block_c,block_dur,condition,countdown,datetime,endtime,list,multichar_response,project,response,response_time,session_number,start_end,starttime,subject_id,task,task_vers,trial
,,,,Fri Mar 21 2025 15:58:07 GMT-0500 (Central Daylight Time),,,,O,space,445,1,,,7117,WL,B,
prac,,0,,Fri Mar 21 2025 15:58:07 GMT-0500 (Central Daylight Time),,NA,b,O,b,8192,1,,,7117,WL,B,1.0
prac,,0,,Fri Mar 21 2025 15:58:07 GMT-0500 (Central Daylight Time),,NA,bo,O,o,1207,1,,,7117,WL,B,1.0
prac,,0,,Fri Mar 21 2025 15:58:07 GMT-0500 (Central Daylight Time),,NA,boo,O,o,214,1,,,7117,WL,B,1.0
prac,,0,,Fri Mar 21 2025 15:58:07 GMT-0500 (Central Daylight Time),,NA,boos,O,s,581,1,,,7117,WL,B,1.0
prac,,0,,Fri Mar 21 2025 15:58:07 GMT-0500 (Central Daylight Time),,NA,boost,O,t,189,1,,,7117,WL,B,1.0
prac,,0,,Fri Mar 21 2025 15:58:07 GMT-0500 (Central Daylight Time),,NA,boostenter,O,enter,6997,1,,,7117,WL,B,1.0
1,2.0830001831054688,learn,57916.99981689453,Fri Mar 21 2025 15:58:07 GMT-0500 (Central Daylight Time),262593.40000000596,A,w,O,w,2062,1,2082.5999999940395,260510.80000001192,7117,WL,B,1.0
1,2.449000120162964,learn,57550.999879837036,Fri Mar 21 2025 15:58:07 GMT-0500 (Central Daylight Time),262959.90000000596,A,wi,O,i,354,1,2449.0999999940395,260510.80000001192,7117,WL,B,1.0
1,3.315999984741211,learn,56684.00001525879,Fri Mar 21 2025 15:58:07 GMT-0500 (Central Daylight Time),263826.10000002384,A,win,O,n,844,1,3315.300000011921,260510.80000001192,7117,WL,B,1.0
1,4.465000152587891,learn,55534.99984741211,Fri Mar 21 2025 15:58:07 GMT-0500 (Central Daylight Time),264975.60000002384,A,wind,O,d,1139,1,4464.800000011921,260510.80000001192,7117,WL,B,1.0
1,5.299000024795532,learn,54700.99997520447,Fri Mar 21 2025 15:58:07 GMT-0500 (Central Daylight Time),265809.0,A,windo,O,o,814,1,5298.199999988079,260510.80000001192,7117,WL,B,1.0
1,6.631999969482422,learn,53368.00003051758,Fri Mar 21 2025 15:58:07 GMT-0500 (Central Daylight Time),267141.8000000119,A,window,O,w,1316,1,6631.0,260510.80000001192,7117,WL,B,1.0
1,7.88100004196167,learn,52118.99995803833,Fri Mar 21 2025 15:58:07 GMT-0500 (Central Daylight Time),268391.3000000119,A,windoww,O,w,1230,1,7880.5,260510.80000001192,7117,WL,B,1.0
1,8.364000082015991,learn,51635.99991798401,Fri Mar 21 2025 15:58:07 GMT-0500 (Central Daylight Time),268874.60000002384,A,windowwi,O,i,462,1,8363.800000011921,260510.80000001192,7117,WL,B,1.0
1,9.297000169754028,learn,50702.99983024597,Fri Mar 21 2025 15:58:07 GMT-0500 (Central Daylight Time),269807.5,A,windowwif,O,f,922,1,9296.699999988079,260510.80000001192,7117,WL,B,1.0
1,9.812999963760376,learn,50187.000036239624,Fri Mar 21 2025 15:58:07 GMT-0500 (Central Daylight Time),270323.90000000596,A,windowwife,O,e,509,1,9813.09999999404,260510.80000001192,7117,WL,B,1.0
1,11.180000066757202,learn,48819.9999332428,Fri Mar 21 2025 15:58:07 GMT-0500 (Central Daylight Time),271690.3000000119,A,windowwifef,O,f,1352,1,11179.5,260510.80000001192,7117,WL,B,1.0
1,11.94700002670288,learn,48052.99997329712,Fri Mar 21 2025 15:58:07 GMT-0500 (Central Daylight Time),272457.8000000119,A,windowwifefi,O,i,754,1,11947.0,260510.80000001192,7117,WL,B,1.0
1,12.879000186920166,learn,47120.999813079834,Fri Mar 21 2025 15:58:07 GMT-0500 (Central Daylight Time),273389.5,A,windowwifefir,O,r,923,1,12878.699999988079,260510.80000001192,7117,WL,B,1.0
1,13.562999963760376,learn,46437.000036239624,Fri Mar 21 2025 15:58:07 GMT-0500 (Central Daylight Time),274072.90000000596,A,windowwifefire,O,e,663,1,13562.09999999404,260510.80000001192,7117,WL,B,1.0
1,15.26200008392334,learn,44737.99991607666,Fri Mar 21 2025 15:58:07 GMT-0500 (Central Daylight Time),275772.2000000179,A,windowwifefirel,O,l,1692,1,15261.40000000596,260510.80000001192,7117,WL,B,1.0
1,16.562000036239624,learn,43437.999963760376,Fri Mar 21 2025 15:58:07 GMT-0500 (Central Daylight Time),277072.0,A,windowwifefirela,O,a,1281,1,16561.19999998808,260510.80000001192,7117,WL,B,1.0
1,17.778000116348267,learn,42221.99988365173,Fri Mar 21 2025 15:58:07 GMT-0500 (Central Daylight Time),278288.3000000119,A,windowwifefirelak,O,k,1205,1,17777.5,260510.80000001192,7117,WL,B,1.0
1,18.294000148773193,learn,41705.99985122681,Fri Mar 21 2025 15:58:07 GMT-0500 (Central Daylight Time),278804.8000000119,A,windowwifefirelake,O,e,500,1,18294.0,260510.80000001192,7117,WL,B,1.0
1,36.289000034332275,learn,23710.999965667725,Fri Mar 21 2025 15:58:07 GMT-0500 (Central Daylight Time),296799.10000002384,A,windowwifefirelak,O,backspace,17976,1,36288.30000001192,260510.80000001192,7117,WL,B,1.0
1,36.5220000743866,learn,23477.999925613403,Fri Mar 21 2025 15:58:07 GMT-0500 (Central Daylight Time),297032.40000000596,A,windowwifefirela,O,backspace,221,1,36521.59999999404,260510.80000001192,7117,WL,B,1.0
1,36.7720000743866,learn,23227.999925613403,Fri Mar 21 2025 15:58:07 GMT-0500 (Central Daylight Time),297282.0,A,windowwifefirel,O,backspace,228,1,36771.19999998808,260510.80000001192,7117,WL,B,1.0
1,37.90499997138977,learn,22095.00002861023,Fri Mar 21 2025 15:58:07 GMT-0500 (Central Daylight Time),298415.10000002384,A,windowwifefire,O,backspace,1115,1,37904.30000001192,260510.80000001192,7117,WL,B,1.0
1,38.12100005149841,learn,21878.999948501587,Fri Mar 21 2025 15:58:07 GMT-0500 (Central Daylight Time),298631.7000000179,A,windowwifefir,O,backspace,198,1,38120.90000000596,260510.80000001192,7117,WL,B,1.0
1,38.3050000667572,learn,21694.999933242798,Fri Mar 21 2025 15:58:07 GMT-0500 (Central Daylight Time),298815.0,A,windowwifefi,O,backspace,165,1,38304.19999998808,260510.80000001192,7117,WL,B,1.0
1,38.48800015449524,learn,21511.99984550476,Fri Mar 21 2025 15:58:07 GMT-0500 (Central Daylight Time),298998.40000000596,A,windowwifef,O,backspace,166,1,38487.59999999404,260510.80000001192,7117,WL,B,1.0
1,38.6710000038147,learn,21328.999996185303,Fri Mar 21 2025 15:58:07 GMT-0500 (Central Daylight Time),299181.3000000119,A,windowwife,O,backspace,166,1,38670.5,260510.80000001192,7117,WL,B,1.0
1,38.854000091552734,learn,21145.999908447266,Fri Mar 21 2025 15:58:07 GMT-0500 (Central Daylight Time),299364.90000000596,A,windowwif,O,backspace,175,1,38854.09999999404,260510.80000001192,7117,WL,B,1.0
1,39.05400013923645,learn,20945.99986076355,Fri Mar 21 2025 15:58:07 GMT-0500 (Central Daylight Time),299564.7000000179,A,windowwi,O,backspace,192,1,39053.90000000596,260510.80000001192,7117,WL,B,1.0
1,39.254000186920166,learn,20745.999813079834,Fri Mar 21 2025 15:58:07 GMT-0500 (Central Daylight Time),299764.7000000179,A,windoww,O,backspace,192,1,39253.90000000596,260510.80000001192,7117,WL,B,1.0
1,40.38700008392334,learn,19612.99991607666,Fri Mar 21 2025 15:58:07 GMT-0500 (Central Daylight Time),300897.60000002384,A,window,O,backspace,1120,1,40386.80000001192,260510.80000001192,7117,WL,B,1.0
1,42.82000017166138,learn,17179.999828338623,Fri Mar 21 2025 15:58:07 GMT-0500 (Central Daylight Time),303330.3000000119,A,windowenter,O,enter,2419,1,42819.5,260510.80000001192,7117,WL,B,1.0
1,46.2020001411438,learn,13797.999858856201,Fri Mar 21 2025 15:58:07 GMT-0500 (Central Daylight Time),306712.5,A,l,O,l,3370,1,3381.699999988079,303330.8000000119,7117,WL,B,2.0
1,46.651999950408936,learn,13348.000049591064,Fri Mar 21 2025 15:58:07 GMT-0500 (Central Daylight Time),307162.40000000596,A,la,O,a,430,1,3831.5999999940395,303330.8000000119,7117,WL,B,2.0
1,49.18400001525879,learn,10815.999984741211,Fri Mar 21 2025 15:58:07 GMT-0500 (Central Daylight Time),309694.90000000596,A,lak,O,k,2522,1,6364.0999999940395,303330.8000000119,7117,WL,B,2.0
1,49.6010000705719,learn,10398.9999294281,Fri Mar 21 2025 15:58:07 GMT-0500 (Central Daylight Time),310111.40000000596,A,lake,O,e,397,1,6780.5999999940395,303330.8000000119,7117,WL,B,2.0
1,51.13000011444092,learn,8869.999885559082,Fri Mar 21 2025 15:58:07 GMT-0500 (Central Daylight Time),311640.5,A,lakeenter,O,enter,1524,1,8309.699999988079,303330.8000000119,7117,WL,B,2.0
1,52.65000009536743,learn,7349.999904632568,Fri Mar 21 2025 15:58:07 GMT-0500 (Central Daylight Time),313160.5,A,w,O,w,1508,1,1519.699999988079,311640.8000000119,7117,WL,B,3.0
1,53.16700005531311,learn,6832.99994468689,Fri Mar 21 2025 15:58:07 GMT-0500 (Central Daylight Time),313677.0,A,wi,O,i,501,1,2036.199999988079,311640.8000000119,7117,WL,B,3.0
1,53.782999992370605,learn,6217.0000076293945,Fri Mar 21 2025 15:58:07 GMT-0500 (Central Daylight Time),314293.3000000119,A,wif,O,f,609,1,2652.5,311640.8000000119,7117,WL,B,3.0
1,54.31599998474121,learn,5684.000015258789,Fri Mar 21 2025 15:58:07 GMT-0500 (Central Daylight Time),314826.7000000179,A,wife,O,e,513,1,3185.9000000059605,311640.8000000119,7117,WL,B,3.0
1,55.282999992370605,learn,4717.0000076293945,Fri Mar 21 2025 15:58:07 GMT-0500 (Central Daylight Time),315793.2000000179,A,wifeenter,O,enter,946,1,4152.4000000059605,311640.8000000119,7117,WL,B,3.0
1,56.39900016784668,learn,3600.9998321533203,Fri Mar 21 2025 15:58:07 GMT-0500 (Central Daylight Time),316909.5,A,s,O,s,1107,1,1115.8999999761581,315793.60000002384,7117,WL,B,4.0
1,56.848999977111816,learn,3151.0000228881836,Fri Mar 21 2025 15:58:07 GMT-0500 (Central Daylight Time),317359.3000000119,A,st,O,t,432,1,1565.699999988079,315793.60000002384,7117,WL,B,4.0
1,57.24900007247925,learn,2750.999927520752,Fri Mar 21 2025 15:58:07 GMT-0500 (Central Daylight Time),317759.2000000179,A,str,O,r,390,1,1965.5999999940395,315793.60000002384,7117,WL,B,4.0
1,57.598999977111816,learn,2401.0000228881836,Fri Mar 21 2025 15:58:07 GMT-0500 (Central Daylight Time),318109.0,A,stre,O,e,342,1,2315.399999976158,315793.60000002384,7117,WL,B,4.0
1,57.932000160217285,learn,2067.999839782715,Fri Mar 21 2025 15:58:07 GMT-0500 (Central Daylight Time),318442.40000000596,A,stree,O,e,312,1,2648.7999999821186,315793.60000002384,7117,WL,B,4.0
1,58.29800009727478,learn,1701.9999027252197,Fri Mar 21 2025 15:58:07 GMT-0500 (Central Daylight Time),318808.90000000596,A,street,O,t,355,1,3015.2999999821186,315793.60000002384,7117,WL,B,4.0
1,59.848000049591064,learn,151.99995040893555,Fri Mar 21 2025 15:58:07 GMT-0500 (Central Daylight Time),320358.3000000119,A,streetenter,O,enter,1532,1,4564.699999988079,315793.60000002384,7117,WL,B,4.0
1,60.01400017738342,learn,-14.000177383422852,Fri Mar 21 2025 15:58:07 GMT-0500 (Central Daylight Time),320524.7000000179,A,None,O,None,162,1,166.0,320358.7000000179,7117,WL,B,5.0
2,2.0820000171661377,learn,57917.99998283386,Fri Mar 21 2025 15:58:07 GMT-0500 (Central Daylight Time),406081.2000000179,A,w,O,w,2071,1,2082.0999999940395,403999.10000002384,7117,WL,B,1.0
2,2.4159998893737793,learn,57584.00011062622,Fri Mar 21 2025 15:58:07 GMT-0500 (Central Daylight Time),406414.7000000179,A,wi,O,i,316,1,2415.5999999940395,403999.10000002384,7117,WL,B,1.0
2,3.181999921798706,learn,56818.000078201294,Fri Mar 21 2025 15:58:07 GMT-0500 (Central Daylight Time),407181.2000000179,A,win,O,n,750,1,3182.0999999940395,403999.10000002384,7117,WL,B,1.0
2,3.9149999618530273,learn,56085.00003814697,Fri Mar 21 2025 15:58:07 GMT-0500 (Central Daylight Time),407914.5,A,wind,O,d,720,1,3915.399999976158,403999.10000002384,7117,WL,B,1.0
2,4.4649999141693115,learn,55535.00008583069,Fri Mar 21 2025 15:58:07 GMT-0500 (Central Daylight Time),408464.0,A,windo,O,o,531,1,4464.899999976158,403999.10000002384,7117,WL,B,1.0
2,4.898000001907349,learn,55101.99999809265,Fri Mar 21 2025 15:58:07 GMT-0500 (Central Daylight Time),408897.2000000179,A,window,O,w,421,1,4898.0999999940395,403999.10000002384,7117,WL,B,1.0
2,7.846999883651733,learn,52153.00011634827,Fri Mar 21 2025 15:58:07 GMT-0500 (Central Daylight Time),411846.5,A,windowl,O,l,2940,1,7847.399999976158,403999.10000002384,7117,WL,B,1.0
2,11.828999996185303,learn,48171.0000038147,Fri Mar 21 2025 15:58:07 GMT-0500 (Central Daylight Time),415828.40000000596,A,window,O,backspace,3967,1,11829.299999982119,403999.10000002384,7117,WL,B,1.0
2,13.411999940872192,learn,46588.00005912781,Fri Mar 21 2025 15:58:07 GMT-0500 (Central Daylight Time),417410.90000000596,A,windowenter,O,enter,1577,1,13411.799999982119,403999.10000002384,7117,WL,B,1.0
2,15.26199984550476,learn,44738.00015449524,Fri Mar 21 2025 15:58:07 GMT-0500 (Central Daylight Time),419262.10000002384,A,l,O,l,1834,1,1850.800000011921,417411.3000000119,7117,WL,B,2.0
2,15.809999942779541,learn,44190.00005722046,Fri Mar 21 2025 15:58:07 GMT-0500 (Central Daylight Time),419810.5,A,la,O,a,535,1,2399.199999988079,417411.3000000119,7117,WL,B,2.0
2,16.542999982833862,learn,43457.00001716614,Fri Mar 21 2025 15:58:07 GMT-0500 (Central Daylight Time),420543.7000000179,A,lak,O,k,723,1,3132.4000000059605,417411.3000000119,7117,WL,B,2.0
2,16.993000030517578,learn,43006.99996948242,Fri Mar 21 2025 15:58:07 GMT-0500 (Central Daylight Time),420993.40000000596,A,lake,O,e,430,1,3582.0999999940395,417411.3000000119,7117,WL,B,2.0
2,18.075999975204468,learn,41924.00002479553,Fri Mar 21 2025 15:58:07 GMT-0500 (Central Daylight Time),422076.10000002384,A,lakeenter,O,enter,1076,1,4664.800000011921,417411.3000000119,7117,WL,B,2.0
2,19.825999975204468,learn,40174.00002479553,Fri Mar 21 2025 15:58:07 GMT-0500 (Central Daylight Time),423825.8000000119,A,c,O,c,1736,1,1749.300000011921,422076.5,7117,WL,B,3.0
2,20.259999990463257,learn,39740.00000953674,Fri Mar 21 2025 15:58:07 GMT-0500 (Central Daylight Time),424260.10000002384,A,ci,O,i,427,1,2183.600000023842,422076.5,7117,WL,B,3.0
2,20.858999967575073,learn,39141.00003242493,Fri Mar 21 2025 15:58:07 GMT-0500 (Central Daylight Time),424858.8000000119,A,cit,O,t,593,1,2782.300000011921,422076.5,7117,WL,B,3.0
2,21.174999952316284,learn,38825.000047683716,Fri Mar 21 2025 15:58:07 GMT-0500 (Central Daylight Time),425175.5,A,city,O,y,298,1,3099.0,422076.5,7117,WL,B,3.0
2,22.607999801635742,learn,37392.00019836426,Fri Mar 21 2025 15:58:07 GMT-0500 (Central Daylight Time),426608.40000000596,A,cityenter,O,enter,1422,1,4531.9000000059605,422076.5,7117,WL,B,3.0
2,23.5239999294281,learn,36476.0000705719,Fri Mar 21 2025 15:58:07 GMT-0500 (Central Daylight Time),427524.60000002384,A,f,O,f,909,1,915.8000000119209,426608.8000000119,7117,WL,B,4.0
2,23.87399983406067,learn,36126.00016593933,Fri Mar 21 2025 15:58:07 GMT-0500 (Central Daylight Time),427874.7000000179,A,fi,O,i,337,1,1265.9000000059605,426608.8000000119,7117,WL,B,4.0
2,24.924000024795532,learn,35075.99997520447,Fri Mar 21 2025 15:58:07 GMT-0500 (Central Daylight Time),428924.3000000119,A,fir,O,r,1034,1,2315.5,426608.8000000119,7117,WL,B,4.0
2,25.353999853134155,learn,34646.000146865845,Fri Mar 21 2025 15:58:07 GMT-0500 (Central Daylight Time),429354.10000002384,A,fire,O,e,425,1,2745.300000011921,426608.8000000119,7117,WL,B,4.0
2,26.12399983406067,learn,33876.00016593933,Fri Mar 21 2025 15:58:07 GMT-0500 (Central Daylight Time),430123.8000000119,A,fireenter,O,enter,755,1,3515.0,426608.8000000119,7117,WL,B,4.0
2,26.85699987411499,learn,33143.00012588501,Fri Mar 21 2025 15:58:07 GMT-0500 (Central Daylight Time),430857.0,A,s,O,s,714,1,732.7999999821186,430124.2000000179,7117,WL,B,5.0
2,27.655999898910522,learn,32344.000101089478,Fri Mar 21 2025 15:58:07 GMT-0500 (Central Daylight Time),431656.8000000119,A,sk,O,k,780,1,1532.5999999940395,430124.2000000179,7117,WL,B,5.0
2,27.93999981880188,learn,32060.00018119812,Fri Mar 21 2025 15:58:07 GMT-0500 (Central Daylight Time),431940.0,A,ski,O,i,268,1,1815.7999999821186,430124.2000000179,7117,WL,B,5.0
2,28.488999843597412,learn,31511.000156402588,Fri Mar 21 2025 15:58:07 GMT-0500 (Central Daylight Time),432489.7000000179,A,skin,O,n,537,1,2365.5,430124.2000000179,7117,WL,B,5.0
2,29.688999891281128,learn,30311.000108718872,Fri Mar 21 2025 15:58:07 GMT-0500 (Central Daylight Time),433689.3000000119,A,skinenter,O,enter,1180,1,3565.0999999940395,430124.2000000179,7117,WL,B,5.0
2,33.08799982070923,learn,26912.00017929077,Fri Mar 21 2025 15:58:07 GMT-0500 (Central Daylight Time),437088.40000000596,A,d,O,d,3388,1,3398.7999999821186,433689.60000002384,7117,WL,B,6.0
2,33.603999853134155,learn,26396.000146865845,Fri Mar 21 2025 15:58:07 GMT-0500 (Central Daylight Time),437604.60000002384,A,do,O,o,508,1,3915.0,433689.60000002384,7117,WL,B,6.0
2,33.870999813079834,learn,26129.000186920166,Fri Mar 21 2025 15:58:07 GMT-0500 (Central Daylight Time),437871.5,A,doo,O,o,248,1,4181.899999976158,433689.60000002384,7117,WL,B,6.0
2,34.355000019073486,learn,25644.999980926514,Fri Mar 21 2025 15:58:07 GMT-0500 (Central Daylight Time),438355.0,A,door,O,r,463,1,4665.399999976158,433689.60000002384,7117,WL,B,6.0
2,35.4210000038147,learn,24578.999996185303,Fri Mar 21 2025 15:58:07 GMT-0500 (Central Daylight Time),439421.10000002384,A,doorenter,O,enter,1050,1,5731.5,433689.60000002384,7117,WL,B,6.0
2,37.22000002861023,learn,22779.99997138977,Fri Mar 21 2025 15:58:07 GMT-0500 (Central Daylight Time),441220.40000000596,A,s,O,s,1792,1,1799.0,439421.40000000596,7117,WL,B,7.0
2,37.669999837875366,learn,22330.000162124634,Fri Mar 21 2025 15:58:07 GMT-0500 (Central Daylight Time),441670.10000002384,A,st,O,t,441,1,2248.7000000178814,439421.40000000596,7117,WL,B,7.0
2,38.03600001335144,learn,21963.99998664856,Fri Mar 21 2025 15:58:07 GMT-0500 (Central Daylight Time),442036.8000000119,A,str,O,r,351,1,2615.4000000059605,439421.40000000596,7117,WL,B,7.0
2,38.36999988555908,learn,21630.000114440918,Fri Mar 21 2025 15:58:07 GMT-0500 (Central Daylight Time),442370.10000002384,A,stre,O,e,320,1,2948.7000000178814,439421.40000000596,7117,WL,B,7.0
2,38.78600001335144,learn,21213.99998664856,Fri Mar 21 2025 15:58:07 GMT-0500 (Central Daylight Time),442786.60000002384,A,stree,O,e,403,1,3365.2000000178814,439421.40000000596,7117,WL,B,7.0
2,39.585999965667725,learn,20414.000034332275,Fri Mar 21 2025 15:58:07 GMT-0500 (Central Daylight Time),443586.5,A,street,O,t,795,1,4165.0999999940395,439421.40000000596,7117,WL,B,7.0
2,41.03600001335144,learn,18963.99998664856,Fri Mar 21 2025 15:58:07 GMT-0500 (Central Daylight Time),445035.90000000596,A,streetenter,O,enter,1443,1,5614.5,439421.40000000596,7117,WL,B,7.0
2,41.86899995803833,learn,18131.00004196167,Fri Mar 21 2025 15:58:07 GMT-0500 (Central Daylight Time),445869.0,A,w,O,w,825,1,832.7999999821186,445036.2000000179,7117,WL,B,8.0
2,42.401999950408936,learn,17598.000049591064,Fri Mar 21 2025 15:58:07 GMT-0500 (Central Daylight Time),446402.2000000179,A,wi,O,i,512,1,1366.0,445036.2000000179,7117,WL,B,8.0
2,43.70099997520447,learn,16299.000024795532,Fri Mar 21 2025 15:58:07 GMT-0500 (Central Daylight Time),447701.7000000179,A,wif,O,f,1284,1,2665.5,445036.2000000179,7117,WL,B,8.0
2,44.18400001525879,learn,15815.999984741211,Fri Mar 21 2025 15:58:07 GMT-0500 (Central Daylight Time),448184.7000000179,A,wife,O,e,463,1,3148.5,445036.2000000179,7117,WL,B,8.0
2,45.03399991989136,learn,14966.000080108643,Fri Mar 21 2025 15:58:07 GMT-0500 (Central Daylight Time),449034.7000000179,A,wifeenter,O,enter,829,1,3998.5,445036.2000000179,7117,WL,B,8.0
2,59.96299982070923,learn,37.000179290771484,Fri Mar 21 2025 15:58:07 GMT-0500 (Central Daylight Time),463963.40000000596,A,enter,O,enter,14914,1,14928.299999982119,449035.10000002384,7117,WL,B,9.0
2,60.01300001144409,learn,-13.000011444091797,Fri Mar 21 2025 15:58:07 GMT-0500 (Central Daylight Time),464013.40000000596,A,None,O,None,44,1,49.599999994039536,463963.8000000119,7117,WL,B,10.0
3,1.1489999294281006,learn,58851.0000705719,Fri Mar 21 2025 15:58:07 GMT-0500 (Central Daylight Time),538623.3000000119,A,s,O,s,1132,1,1149.4000000059605,537473.900000006,7117,WL,B,1.0
3,1.5150001049041748,learn,58484.999895095825,Fri Mar 21 2025 15:58:07 GMT-0500 (Central Daylight Time),538989.8000000119,A,st,O,t,349,1,1515.9000000059605,537473.900000006,7117,WL,B,1.0
3,1.931999921798706,learn,58068.000078201294,Fri Mar 21 2025 15:58:07 GMT-0500 (Central Daylight Time),539406.2000000179,A,str,O,r,399,1,1932.300000011921,537473.900000006,7117,WL,B,1.0
3,2.365000009536743,learn,57634.99999046326,Fri Mar 21 2025 15:58:07 GMT-0500 (Central Daylight Time),539839.400000006,A,stre,O,e,415,1,2365.5,537473.900000006,7117,WL,B,1.0
3,2.615000009536743,learn,57384.99999046326,Fri Mar 21 2025 15:58:07 GMT-0500 (Central Daylight Time),540089.3000000119,A,stree,O,e,230,1,2615.4000000059605,537473.900000006,7117,WL,B,1.0
3,3.1649999618530273,learn,56835.00003814697,Fri Mar 21 2025 15:58:07 GMT-0500 (Central Daylight Time),540639.3000000119,A,street,O,t,539,1,3165.4000000059605,537473.900000006,7117,WL,B,1.0
3,4.04800009727478,learn,55951.99990272522,Fri Mar 21 2025 15:58:07 GMT-0500 (Central Daylight Time),541522.400000006,A,streetenter,O,enter,870,1,4048.5,537473.900000006,7117,WL,B,1.0
3,4.96399998664856,learn,55036.00001335144,Fri Mar 21 2025 15:58:07 GMT-0500 (Central Daylight Time),542438.7000000179,A,g,O,g,906,1,916.0,541522.7000000179,7117,WL,B,2.0
3,5.614000082015991,learn,54385.99991798401,Fri Mar 21 2025 15:58:07 GMT-0500 (Central Daylight Time),543088.400000006,A,gr,O,r,639,1,1565.699999988079,541522.7000000179,7117,WL,B,2.0
3,6.664000034332275,learn,53335.999965667725,Fri Mar 21 2025 15:58:07 GMT-0500 (Central Daylight Time),544138.400000006,A,gra,O,a,1029,1,2615.699999988079,541522.7000000179,7117,WL,B,2.0
3,7.296999931335449,learn,52703.00006866455,Fri Mar 21 2025 15:58:07 GMT-0500 (Central Daylight Time),544771.3000000119,A,gras,O,s,619,1,3248.5999999940395,541522.7000000179,7117,WL,B,2.0
3,7.5970001220703125,learn,52402.99987792969,Fri Mar 21 2025 15:58:07 GMT-0500 (Central Daylight Time),545071.3000000119,A,grass,O,s,282,1,3548.5999999940395,541522.7000000179,7117,WL,B,2.0
3,8.595999956130981,learn,51404.00004386902,Fri Mar 21 2025 15:58:07 GMT-0500 (Central Daylight Time),546070.900000006,A,grassenter,O,enter,991,1,4548.199999988079,541522.7000000179,7117,WL,B,2.0
3,9.296000003814697,learn,50703.9999961853,Fri Mar 21 2025 15:58:07 GMT-0500 (Central Daylight Time),546770.6000000238,A,d,O,d,687,1,699.2000000178814,546071.400000006,7117,WL,B,3.0
3,9.946000099182129,learn,50053.99990081787,Fri Mar 21 2025 15:58:07 GMT-0500 (Central Daylight Time),547420.6000000238,A,do,O,o,644,1,1349.2000000178814,546071.400000006,7117,WL,B,3.0
3,10.246000051498413,learn,49753.99994850159,Fri Mar 21 2025 15:58:07 GMT-0500 (Central Daylight Time),547720.5,A,doo,O,o,290,1,1649.0999999940395,546071.400000006,7117,WL,B,3.0
3,11.111999988555908,learn,48888.00001144409,Fri Mar 21 2025 15:58:07 GMT-0500 (Central Daylight Time),548586.8000000119,A,door,O,r,846,1,2515.4000000059605,546071.400000006,7117,WL,B,3.0
3,13.528000116348267,learn,46471.99988365173,Fri Mar 21 2025 15:58:07 GMT-0500 (Central Daylight Time),551002.5,A,doorenter,O,enter,2394,1,4931.0999999940395,546071.400000006,7117,WL,B,3.0
3,14.378000020980835,learn,45621.999979019165,Fri Mar 21 2025 15:58:07 GMT-0500 (Central Daylight Time),551852.3000000119,A,a,O,a,843,1,849.5,551002.8000000119,7117,WL,B,4.0
3,14.794000148773193,learn,45205.99985122681,Fri Mar 21 2025 15:58:07 GMT-0500 (Central Daylight Time),552268.8000000119,A,ar,O,r,409,1,1266.0,551002.8000000119,7117,WL,B,4.0
3,16.061000108718872,learn,43938.99989128113,Fri Mar 21 2025 15:58:07 GMT-0500 (Central Daylight Time),553535.3000000119,A,arm,O,m,1249,1,2532.5,551002.8000000119,7117,WL,B,4.0
3,17.677000045776367,learn,42322.99995422363,Fri Mar 21 2025 15:58:07 GMT-0500 (Central Daylight Time),555151.3000000119,A,armenter,O,enter,1598,1,4148.5,551002.8000000119,7117,WL,B,4.0
3,18.7260000705719,learn,41273.9999294281,Fri Mar 21 2025 15:58:07 GMT-0500 (Central Daylight Time),556201.1000000238,A,s,O,s,1030,1,1049.5,555151.6000000238,7117,WL,B,5.0
3,19.193000078201294,learn,40806.999921798706,Fri Mar 21 2025 15:58:07 GMT-0500 (Central Daylight Time),556667.5,A,st,O,t,460,1,1515.8999999761581,555151.6000000238,7117,WL,B,5.0
3,19.80999994277954,learn,40190.00005722046,Fri Mar 21 2025 15:58:07 GMT-0500 (Central Daylight Time),557284.2000000179,A,sta,O,a,610,1,2132.5999999940395,555151.6000000238,7117,WL,B,5.0
3,20.243000030517578,learn,39756.99996948242,Fri Mar 21 2025 15:58:07 GMT-0500 (Central Daylight Time),557717.400000006,A,star,O,r,417,1,2565.7999999821186,555151.6000000238,7117,WL,B,5.0
3,21.7260000705719,learn,38273.9999294281,Fri Mar 21 2025 15:58:07 GMT-0500 (Central Daylight Time),559200.2000000179,A,starenter,O,enter,1473,1,4048.5999999940395,555151.6000000238,7117,WL,B,5.0
3,22.80999994277954,learn,37190.00005722046,Fri Mar 21 2025 15:58:07 GMT-0500 (Central Daylight Time),560284.3000000119,A,w,O,w,1077,1,1083.800000011921,559200.5,7117,WL,B,6.0
3,23.258000135421753,learn,36741.99986457825,Fri Mar 21 2025 15:58:07 GMT-0500 (Central Daylight Time),560733.0,A,wi,O,i,433,1,1532.5,559200.5,7117,WL,B,6.0
3,24.808000087738037,learn,35191.99991226196,Fri Mar 21 2025 15:58:07 GMT-0500 (Central Daylight Time),562282.7000000179,A,wif,O,f,1528,1,3082.2000000178814,559200.5,7117,WL,B,6.0
3,25.10800004005432,learn,34891.99995994568,Fri Mar 21 2025 15:58:07 GMT-0500 (Central Daylight Time),562582.400000006,A,wife,O,e,290,1,3381.9000000059605,559200.5,7117,WL,B,6.0
3,25.841000080108643,learn,34158.99991989136,Fri Mar 21 2025 15:58:07 GMT-0500 (Central Daylight Time),563315.7000000179,A,wifeenter,O,enter,719,1,4115.200000017881,559200.5,7117,WL,B,6.0
3,26.7739999294281,learn,33226.0000705719,Fri Mar 21 2025 15:58:07 GMT-0500 (Central Daylight Time),564248.5,A,f,O,f,921,1,932.3999999761581,563316.1000000238,7117,WL,B,7.0
3,27.124000072479248,learn,32875.99992752075,Fri Mar 21 2025 15:58:07 GMT-0500 (Central Daylight Time),564598.5,A,fi,O,i,341,1,1282.3999999761581,563316.1000000238,7117,WL,B,7.0
3,28.056999921798706,learn,31943.000078201294,Fri Mar 21 2025 15:58:07 GMT-0500 (Central Daylight Time),565531.6000000238,A,fir,O,r,919,1,2215.5,563316.1000000238,7117,WL,B,7.0
3,28.33999991416931,learn,31660.00008583069,Fri Mar 21 2025 15:58:07 GMT-0500 (Central Daylight Time),565814.7000000179,A,fire,O,e,266,1,2498.5999999940395,563316.1000000238,7117,WL,B,7.0
3,29.240000009536743,learn,30759.999990463257,Fri Mar 21 2025 15:58:07 GMT-0500 (Central Daylight Time),566714.400000006,A,fireenter,O,enter,879,1,3398.2999999821186,563316.1000000238,7117,WL,B,7.0
3,31.23900008201599,learn,28760.99991798401,Fri Mar 21 2025 15:58:07 GMT-0500 (Central Daylight Time),568713.6000000238,A,c,O,c,1979,1,1998.9000000059605,566714.7000000179,7117,WL,B,8.0
3,31.9060001373291,learn,28093.9998626709,Fri Mar 21 2025 15:58:07 GMT-0500 (Central Daylight Time),569380.400000006,A,cl,O,l,651,1,2665.699999988079,566714.7000000179,7117,WL,B,8.0
3,32.23900008201599,learn,27760.99991798401,Fri Mar 21 2025 15:58:07 GMT-0500 (Central Daylight Time),569713.5,A,clo,O,o,313,1,2998.7999999821186,566714.7000000179,7117,WL,B,8.0
3,33.282999992370605,learn,26717.000007629395,Fri Mar 21 2025 15:58:07 GMT-0500 (Central Daylight Time),570757.5,A,cloc,O,c,1039,1,4042.7999999821186,566714.7000000179,7117,WL,B,8.0
3,33.90499997138977,learn,26095.00002861023,Fri Mar 21 2025 15:58:07 GMT-0500 (Central Daylight Time),571379.6000000238,A,clock,O,k,607,1,4664.9000000059605,566714.7000000179,7117,WL,B,8.0
3,35.15499997138977,learn,24845.00002861023,Fri Mar 21 2025 15:58:07 GMT-0500 (Central Daylight Time),572629.3000000119,A,clockenter,O,enter,1234,1,5914.5999999940395,566714.7000000179,7117,WL,B,8.0
3,40.585999965667725,learn,19414.000034332275,Fri Mar 21 2025 15:58:07 GMT-0500 (Central Daylight Time),578060.8000000119,A,s,O,s,5424,1,5431.199999988079,572629.6000000238,7117,WL,B,9.0
3,40.97000002861023,learn,19029.99997138977,Fri Mar 21 2025 15:58:07 GMT-0500 (Central Daylight Time),578444.2000000179,A,st,O,t,368,1,5814.5999999940395,572629.6000000238,7117,WL,B,9.0
3,43.00200009346008,learn,16997.999906539917,Fri Mar 21 2025 15:58:07 GMT-0500 (Central Daylight Time),580476.7000000179,A,sta,O,a,2017,1,7847.0999999940395,572629.6000000238,7117,WL,B,9.0
3,43.38499999046326,learn,16615.000009536743,Fri Mar 21 2025 15:58:07 GMT-0500 (Central Daylight Time),580860.0,A,star,O,r,369,1,8230.399999976158,572629.6000000238,7117,WL,B,9.0
3,45.068000078201294,learn,14931.999921798706,Fri Mar 21 2025 15:58:07 GMT-0500 (Central Daylight Time),582543.0,A,starenter,O,enter,1674,1,9913.399999976158,572629.6000000238,7117,WL,B,9.0
3,45.818000078201294,learn,14181.999921798706,Fri Mar 21 2025 15:58:07 GMT-0500 (Central Daylight Time),583292.5,A,w,O,w,742,1,749.1999999880791,582543.3000000119,7117,WL,B,10.0
3,46.23399996757507,learn,13766.000032424927,Fri Mar 21 2025 15:58:07 GMT-0500 (Central Daylight Time),583709.2000000179,A,wi,O,i,401,1,1165.9000000059605,582543.3000000119,7117,WL,B,10.0
3,46.95099997520447,learn,13049.000024795532,Fri Mar 21 2025 15:58:07 GMT-0500 (Central Daylight Time),584425.5,A,win,O,n,696,1,1882.199999988079,582543.3000000119,7117,WL,B,10.0
3,47.26699995994568,learn,12733.000040054321,Fri Mar 21 2025 15:58:07 GMT-0500 (Central Daylight Time),584742.1000000238,A,wind,O,d,308,1,2198.800000011921,582543.3000000119,7117,WL,B,10.0
3,47.83400011062622,learn,12165.99988937378,Fri Mar 21 2025 15:58:07 GMT-0500 (Central Daylight Time),585308.900000006,A,windo,O,o,551,1,2765.5999999940395,582543.3000000119,7117,WL,B,10.0
3,48.384000062942505,learn,11615.999937057495,Fri Mar 21 2025 15:58:07 GMT-0500 (Central Daylight Time),585858.5,A,window,O,w,544,1,3315.199999988079,582543.3000000119,7117,WL,B,10.0
3,49.5,learn,10500.0,Fri Mar 21 2025 15:58:07 GMT-0500 (Central Daylight Time),586974.7000000179,A,windowenter,O,enter,1107,1,4431.4000000059605,582543.3000000119,7117,WL,B,10.0
3,60.013999938964844,learn,-13.99993896484375,Fri Mar 21 2025 15:58:07 GMT-0500 (Central Daylight Time),597488.2000000179,A,None,O,None,10509,1,10513.0,586975.2000000179,7117,WL,B,11.0
4,1.0169999599456787,learn,58983.00004005432,Fri Mar 21 2025 15:58:07 GMT-0500 (Central Daylight Time),672531.3000000119,A,s,O,s,1003,1,1016.0999999940395,671515.2000000179,7117,WL,B,1.0
4,1.3329999446868896,learn,58667.00005531311,Fri Mar 21 2025 15:58:07 GMT-0500 (Central Daylight Time),672847.7000000179,A,st,O,t,305,1,1332.5,671515.2000000179,7117,WL,B,1.0
4,1.6989998817443848,learn,58301.000118255615,Fri Mar 21 2025 15:58:07 GMT-0500 (Central Daylight Time),673214.1000000238,A,str,O,r,350,1,1698.9000000059605,671515.2000000179,7117,WL,B,1.0
4,2.0329999923706055,learn,57967.000007629395,Fri Mar 21 2025 15:58:07 GMT-0500 (Central Daylight Time),673547.400000006,A,stre,O,e,327,1,2032.199999988079,671515.2000000179,7117,WL,B,1.0
4,2.2990000247955322,learn,57700.99997520447,Fri Mar 21 2025 15:58:07 GMT-0500 (Central Daylight Time),673814.3000000119,A,stree,O,e,258,1,2299.0999999940395,671515.2000000179,7117,WL,B,1.0
4,2.815999984741211,learn,57184.00001525879,Fri Mar 21 2025 15:58:07 GMT-0500 (Central Daylight Time),674330.7000000179,A,street,O,t,496,1,2815.5,671515.2000000179,7117,WL,B,1.0
4,3.9659998416900635,learn,56034.00015830994,Fri Mar 21 2025 15:58:07 GMT-0500 (Central Daylight Time),675480.5,A,streetenter,O,enter,1130,1,3965.2999999821186,671515.2000000179,7117,WL,B,1.0
4,5.781999826431274,learn,54218.000173568726,Fri Mar 21 2025 15:58:07 GMT-0500 (Central Daylight Time),677296.5,A,g,O,g,1796,1,1815.5,675481.0,7117,WL,B,2.0
4,6.2149999141693115,learn,53785.00008583069,Fri Mar 21 2025 15:58:07 GMT-0500 (Central Daylight Time),677729.6000000238,A,gr,O,r,413,1,2248.600000023842,675481.0,7117,WL,B,2.0
4,7.148000001907349,learn,52851.99999809265,Fri Mar 21 2025 15:58:07 GMT-0500 (Central Daylight Time),678662.6000000238,A,gra,O,a,916,1,3181.600000023842,675481.0,7117,WL,B,2.0
4,7.664000034332275,learn,52335.999965667725,Fri Mar 21 2025 15:58:07 GMT-0500 (Central Daylight Time),679179.2000000179,A,gras,O,s,504,1,3698.2000000178814,675481.0,7117,WL,B,2.0
4,7.898000001907349,learn,52101.99999809265,Fri Mar 21 2025 15:58:07 GMT-0500 (Central Daylight Time),679412.6000000238,A,grass,O,s,226,1,3931.600000023842,675481.0,7117,WL,B,2.0
4,8.980999946594238,learn,51019.00005340576,Fri Mar 21 2025 15:58:07 GMT-0500 (Central Daylight Time),680495.400000006,A,grassenter,O,enter,1074,1,5014.4000000059605,675481.0,7117,WL,B,2.0
4,9.847999811172485,learn,50152.000188827515,Fri Mar 21 2025 15:58:07 GMT-0500 (Central Daylight Time),681362.400000006,A,d,O,d,846,1,866.5999999940395,680495.8000000119,7117,WL,B,3.0
4,10.429999828338623,learn,49570.00017166138,Fri Mar 21 2025 15:58:07 GMT-0500 (Central Daylight Time),681945.0,A,do,O,o,571,1,1449.199999988079,680495.8000000119,7117,WL,B,3.0
4,10.71399998664856,learn,49286.00001335144,Fri Mar 21 2025 15:58:07 GMT-0500 (Central Daylight Time),682228.400000006,A,doo,O,o,268,1,1732.5999999940395,680495.8000000119,7117,WL,B,3.0
4,11.579999923706055,learn,48420.000076293945,Fri Mar 21 2025 15:58:07 GMT-0500 (Central Daylight Time),683094.6000000238,A,door,O,r,849,1,2598.800000011921,680495.8000000119,7117,WL,B,3.0
4,12.212999820709229,learn,47787.00017929077,Fri Mar 21 2025 15:58:07 GMT-0500 (Central Daylight Time),683727.7000000179,A,doorenter,O,enter,614,1,3231.9000000059605,680495.8000000119,7117,WL,B,3.0
4,13.02899980545044,learn,46971.00019454956,Fri Mar 21 2025 15:58:07 GMT-0500 (Central Daylight Time),684544.2000000179,A,a,O,a,805,1,816.0999999940395,683728.1000000238,7117,WL,B,4.0
4,13.428999900817871,learn,46571.00009918213,Fri Mar 21 2025 15:58:07 GMT-0500 (Central Daylight Time),684944.1000000238,A,ar,O,r,389,1,1216.0,683728.1000000238,7117,WL,B,4.0
4,14.628999948501587,learn,45371.00005149841,Fri Mar 21 2025 15:58:07 GMT-0500 (Central Daylight Time),686143.7000000179,A,arm,O,m,1181,1,2415.5999999940395,683728.1000000238,7117,WL,B,4.0
4,15.263000011444092,learn,44736.99998855591,Fri Mar 21 2025 15:58:07 GMT-0500 (Central Daylight Time),686778.0,A,armenter,O,enter,614,1,3049.899999976158,683728.1000000238,7117,WL,B,4.0
4,15.994999885559082,learn,44005.00011444092,Fri Mar 21 2025 15:58:07 GMT-0500 (Central Daylight Time),687509.900000006,A,w,O,w,723,1,731.5999999940395,686778.3000000119,7117,WL,B,5.0
4,16.411999940872192,learn,43588.00005912781,Fri Mar 21 2025 15:58:07 GMT-0500 (Central Daylight Time),687926.400000006,A,wi,O,i,407,1,1148.0999999940395,686778.3000000119,7117,WL,B,5.0
4,17.16100001335144,learn,42838.99998664856,Fri Mar 21 2025 15:58:07 GMT-0500 (Central Daylight Time),688675.900000006,A,win,O,n,735,1,1897.5999999940395,686778.3000000119,7117,WL,B,5.0
4,17.82799983024597,learn,42172.00016975403,Fri Mar 21 2025 15:58:07 GMT-0500 (Central Daylight Time),689342.900000006,A,wind,O,d,658,1,2564.5999999940395,686778.3000000119,7117,WL,B,5.0
4,19.8439998626709,learn,40156.0001373291,Fri Mar 21 2025 15:58:07 GMT-0500 (Central Daylight Time),691358.7000000179,A,windo,O,o,2006,1,4580.4000000059605,686778.3000000119,7117,WL,B,5.0
4,20.32699990272522,learn,39673.00009727478,Fri Mar 21 2025 15:58:07 GMT-0500 (Central Daylight Time),691842.1000000238,A,window,O,w,471,1,5063.800000011921,686778.3000000119,7117,WL,B,5.0
4,21.40999984741211,learn,38590.00015258789,Fri Mar 21 2025 15:58:07 GMT-0500 (Central Daylight Time),692924.900000006,A,windowenter,O,enter,1068,1,6146.5999999940395,686778.3000000119,7117,WL,B,5.0
4,22.493000030517578,learn,37506.99996948242,Fri Mar 21 2025 15:58:07 GMT-0500 (Central Daylight Time),694007.8000000119,A,w,O,w,1064,1,1082.5999999940395,692925.2000000179,7117,WL,B,6.0
4,22.842999935150146,learn,37157.00006484985,Fri Mar 21 2025 15:58:07 GMT-0500 (Central Daylight Time),694357.8000000119,A,wi,O,i,333,1,1432.5999999940395,692925.2000000179,7117,WL,B,6.0
4,23.625999927520752,learn,36374.00007247925,Fri Mar 21 2025 15:58:07 GMT-0500 (Central Daylight Time),695140.8000000119,A,wif,O,f,775,1,2215.5999999940395,692925.2000000179,7117,WL,B,6.0
4,24.276000022888184,learn,35723.99997711182,Fri Mar 21 2025 15:58:07 GMT-0500 (Central Daylight Time),695790.7000000179,A,wife,O,e,632,1,2865.5,692925.2000000179,7117,WL,B,6.0
4,25.508999824523926,learn,34491.000175476074,Fri Mar 21 2025 15:58:07 GMT-0500 (Central Daylight Time),697023.6000000238,A,wifeenter,O,enter,1223,1,4098.4000000059605,692925.2000000179,7117,WL,B,6.0
4,26.39199995994568,learn,33608.00004005432,Fri Mar 21 2025 15:58:07 GMT-0500 (Central Daylight Time),697906.7000000179,A,p,O,p,870,1,882.8000000119209,697023.900000006,7117,WL,B,7.0
4,27.19099998474121,learn,32809.00001525879,Fri Mar 21 2025 15:58:07 GMT-0500 (Central Daylight Time),698706.3000000119,A,pu,O,u,794,1,1682.4000000059605,697023.900000006,7117,WL,B,7.0
4,28.157999992370605,learn,31842.000007629395,Fri Mar 21 2025 15:58:07 GMT-0500 (Central Daylight Time),699672.8000000119,A,pup,O,p,955,1,2648.9000000059605,697023.900000006,7117,WL,B,7.0
4,29.657999992370605,learn,30342.000007629395,Fri Mar 21 2025 15:58:07 GMT-0500 (Central Daylight Time),701172.400000006,A,pupi,O,i,1493,1,4148.5,697023.900000006,7117,WL,B,7.0
4,30.223999977111816,learn,29776.000022888184,Fri Mar 21 2025 15:58:07 GMT-0500 (Central Daylight Time),701738.7000000179,A,pupil,O,l,561,1,4714.800000011921,697023.900000006,7117,WL,B,7.0
4,31.490000009536743,learn,28509.999990463257,Fri Mar 21 2025 15:58:07 GMT-0500 (Central Daylight Time),703005.1000000238,A,pupilenter,O,enter,1259,1,5981.200000017881,697023.900000006,7117,WL,B,7.0
4,32.49000000953674,learn,27509.999990463257,Fri Mar 21 2025 15:58:07 GMT-0500 (Central Daylight Time),704004.6000000238,A,f,O,f,984,1,999.2000000178814,703005.400000006,7117,WL,B,8.0
4,32.87299990653992,learn,27127.000093460083,Fri Mar 21 2025 15:58:07 GMT-0500 (Central Daylight Time),704388.0,A,fi,O,i,369,1,1382.5999999940395,703005.400000006,7117,WL,B,8.0
4,33.972999811172485,learn,26027.000188827515,Fri Mar 21 2025 15:58:07 GMT-0500 (Central Daylight Time),705487.6000000238,A,fir,O,r,1081,1,2482.2000000178814,703005.400000006,7117,WL,B,8.0
4,34.388999938964844,learn,25611.000061035156,Fri Mar 21 2025 15:58:07 GMT-0500 (Central Daylight Time),705904.3000000119,A,fire,O,e,406,1,2898.9000000059605,703005.400000006,7117,WL,B,8.0
4,35.02199983596802,learn,24978.000164031982,Fri Mar 21 2025 15:58:07 GMT-0500 (Central Daylight Time),706537.2000000179,A,fireenter,O,enter,621,1,3531.800000011921,703005.400000006,7117,WL,B,8.0
4,36.08899998664856,learn,23911.00001335144,Fri Mar 21 2025 15:58:07 GMT-0500 (Central Daylight Time),707603.6000000238,A,l,O,l,1052,1,1066.2000000178814,706537.400000006,7117,WL,B,9.0
4,36.687999963760376,learn,23312.000036239624,Fri Mar 21 2025 15:58:07 GMT-0500 (Central Daylight Time),708203.2000000179,A,la,O,a,594,1,1665.800000011921,706537.400000006,7117,WL,B,9.0
4,37.871999979019165,learn,22128.000020980835,Fri Mar 21 2025 15:58:07 GMT-0500 (Central Daylight Time),709386.6000000238,A,lak,O,k,1163,1,2849.2000000178814,706537.400000006,7117,WL,B,9.0
4,38.204999923706055,learn,21795.000076293945,Fri Mar 21 2025 15:58:07 GMT-0500 (Central Daylight Time),709719.7000000179,A,lake,O,e,324,1,3182.300000011921,706537.400000006,7117,WL,B,9.0
4,40.57299995422363,learn,19427.000045776367,Fri Mar 21 2025 15:58:07 GMT-0500 (Central Daylight Time),712087.6000000238,A,lakeenter,O,enter,2358,1,5550.200000017881,706537.400000006,7117,WL,B,9.0
4,41.40399980545044,learn,18596.00019454956,Fri Mar 21 2025 15:58:07 GMT-0500 (Central Daylight Time),712918.8000000119,A,p,O,p,821,1,830.8000000119209,712088.0,7117,WL,B,10.0
4,41.80399990081787,learn,18196.00009918213,Fri Mar 21 2025 15:58:07 GMT-0500 (Central Daylight Time),713318.6000000238,A,pi,O,i,384,1,1230.6000000238419,712088.0,7117,WL,B,10.0
4,42.38699984550476,learn,17613.00015449524,Fri Mar 21 2025 15:58:07 GMT-0500 (Central Daylight Time),713901.5,A,pip,O,p,567,1,1813.5,712088.0,7117,WL,B,10.0
4,43.03699994087219,learn,16963.000059127808,Fri Mar 21 2025 15:58:07 GMT-0500 (Central Daylight Time),714551.5,A,pipe,O,e,632,1,2463.5,712088.0,7117,WL,B,10.0
4,43.90299987792969,learn,16097.000122070312,Fri Mar 21 2025 15:58:07 GMT-0500 (Central Daylight Time),715417.900000006,A,pipeenter,O,enter,854,1,3329.9000000059605,712088.0,7117,WL,B,10.0
4,45.7189998626709,learn,14281.000137329102,Fri Mar 21 2025 15:58:07 GMT-0500 (Central Daylight Time),717234.0,A,c,O,c,1796,1,1815.699999988079,715418.3000000119,7117,WL,B,11.0
4,46.33500003814697,learn,13664.999961853027,Fri Mar 21 2025 15:58:07 GMT-0500 (Central Daylight Time),717850.400000006,A,cl,O,l,603,1,2432.0999999940395,715418.3000000119,7117,WL,B,11.0
4,46.651999950408936,learn,13348.000049591064,Fri Mar 21 2025 15:58:07 GMT-0500 (Central Daylight Time),718167.0,A,clo,O,o,307,1,2748.699999988079,715418.3000000119,7117,WL,B,11.0
4,47.569000005722046,learn,12430.999994277954,Fri Mar 21 2025 15:58:07 GMT-0500 (Central Daylight Time),719084.7000000179,A,cloc,O,c,910,1,3666.4000000059605,715418.3000000119,7117,WL,B,11.0
4,48.66799998283386,learn,11332.000017166138,Fri Mar 21 2025 15:58:07 GMT-0500 (Central Daylight Time),720183.1000000238,A,clock,O,k,1088,1,4764.800000011921,715418.3000000119,7117,WL,B,11.0
4,49.901000022888184,learn,10098.999977111816,Fri Mar 21 2025 15:58:07 GMT-0500 (Central Daylight Time),721416.1000000238,A,clockenter,O,enter,1214,1,5997.800000011921,715418.3000000119,7117,WL,B,11.0
4,53.799999952316284,learn,6200.000047683716,Fri Mar 21 2025 15:58:07 GMT-0500 (Central Daylight Time),725314.8000000119,A,s,O,s,3885,1,3898.300000011921,721416.5,7117,WL,B,12.0
4,54.16599988937378,learn,5834.000110626221,Fri Mar 21 2025 15:58:07 GMT-0500 (Central Daylight Time),725681.5,A,st,O,t,346,1,4265.0,721416.5,7117,WL,B,12.0
4,54.84999990463257,learn,5150.000095367432,Fri Mar 21 2025 15:58:07 GMT-0500 (Central Daylight Time),726365.5,A,sta,O,a,676,1,4949.0,721416.5,7117,WL,B,12.0
4,55.21499991416931,learn,4785.0000858306885,Fri Mar 21 2025 15:58:07 GMT-0500 (Central Daylight Time),726730.8000000119,A,star,O,r,352,1,5314.300000011921,721416.5,7117,WL,B,12.0
4,56.48199987411499,learn,3518.0001258850098,Fri Mar 21 2025 15:58:07 GMT-0500 (Central Daylight Time),727997.3000000119,A,starenter,O,enter,1251,1,6580.800000011921,721416.5,7117,WL,B,12.0
4,57.514999866485596,learn,2485.0001335144043,Fri Mar 21 2025 15:58:07 GMT-0500 (Central Daylight Time),729030.3000000119,A,c,O,c,1016,1,1032.5999999940395,727997.7000000179,7117,WL,B,13.0
4,57.88199996948242,learn,2118.000030517578,Fri Mar 21 2025 15:58:07 GMT-0500 (Central Daylight Time),729396.8000000119,A,ci,O,i,359,1,1399.0999999940395,727997.7000000179,7117,WL,B,13.0
4,58.49799990653992,learn,1502.000093460083,Fri Mar 21 2025 15:58:07 GMT-0500 (Central Daylight Time),730013.1000000238,A,cit,O,t,609,1,2015.4000000059605,727997.7000000179,7117,WL,B,13.0
4,58.914000034332275,learn,1085.9999656677246,Fri Mar 21 2025 15:58:07 GMT-0500 (Central Daylight Time),730429.900000006,A,city,O,y,400,1,2432.199999988079,727997.7000000179,7117,WL,B,13.0
4,60.013999938964844,learn,-13.99993896484375,Fri Mar 21 2025 15:58:07 GMT-0500 (Central Daylight Time),731529.400000006,A,cityNone,O,None,1095,1,3531.699999988079,727997.7000000179,7117,WL,B,13.0
5,0.9330000877380371,learn,60000.0,Fri Mar 21 2025 15:58:07 GMT-0500 (Central Daylight Time),803123.8000000119,A,s,O,s,919,1,933.0999999940395,802190.7000000179,7117,WL,B,1.0
5,1.2330000400543213,learn,60000.0,Fri Mar 21 2025 15:58:07 GMT-0500 (Central Daylight Time),803423.900000006,A,st,O,t,281,1,1233.199999988079,802190.7000000179,7117,WL,B,1.0
5,1.6659998893737793,learn,60000.0,Fri Mar 21 2025 15:58:07 GMT-0500 (Central Daylight Time),803856.900000006,A,str,O,r,413,1,1666.199999988079,802190.7000000179,7117,WL,B,1.0
5,2.0329999923706055,learn,60000.0,Fri Mar 21 2025 15:58:07 GMT-0500 (Central Daylight Time),804223.5,A,stre,O,e,356,1,2032.7999999821186,802190.7000000179,7117,WL,B,1.0
5,2.3489999771118164,learn,60000.0,Fri Mar 21 2025 15:58:07 GMT-0500 (Central Daylight Time),804540.2000000179,A,stree,O,e,310,1,2349.5,802190.7000000179,7117,WL,B,1.0
5,2.6989998817443848,learn,60000.0,Fri Mar 21 2025 15:58:07 GMT-0500 (Central Daylight Time),804890.0,A,street,O,t,329,1,2699.2999999821186,802190.7000000179,7117,WL,B,1.0
5,4.5980000495910645,learn,60000.0,Fri Mar 21 2025 15:58:07 GMT-0500 (Central Daylight Time),806789.3000000119,A,streetenter,O,enter,1891,1,4598.5999999940395,802190.7000000179,7117,WL,B,1.0
5,6.930999994277954,learn,60000.0,Fri Mar 21 2025 15:58:07 GMT-0500 (Central Daylight Time),809121.900000006,A,c,O,c,2320,1,2332.199999988079,806789.7000000179,7117,WL,B,2.0
5,7.38100004196167,learn,60000.0,Fri Mar 21 2025 15:58:07 GMT-0500 (Central Daylight Time),809571.8000000119,A,ci,O,i,443,1,2782.0999999940395,806789.7000000179,7117,WL,B,2.0
5,7.763999938964844,learn,60000.0,Fri Mar 21 2025 15:58:07 GMT-0500 (Central Daylight Time),809955.1000000238,A,cit,O,t,361,1,3165.4000000059605,806789.7000000179,7117,WL,B,2.0
5,8.13100004196167,learn,60000.0,Fri Mar 21 2025 15:58:07 GMT-0500 (Central Daylight Time),810321.5,A,city,O,y,346,1,3531.7999999821186,806789.7000000179,7117,WL,B,2.0
5,9.680000066757202,learn,60000.0,Fri Mar 21 2025 15:58:07 GMT-0500 (Central Daylight Time),811871.1000000238,A,cityenter,O,enter,1532,1,5081.4000000059605,806789.7000000179,7117,WL,B,2.0
5,12.763000011444092,learn,60000.0,Fri Mar 21 2025 15:58:07 GMT-0500 (Central Daylight Time),814953.6000000238,A,g,O,g,3070,1,3082.2000000178814,811871.400000006,7117,WL,B,3.0
5,13.628999948501587,learn,60000.0,Fri Mar 21 2025 15:58:07 GMT-0500 (Central Daylight Time),815819.5,A,gr,O,r,861,1,3948.0999999940395,811871.400000006,7117,WL,B,3.0
5,14.078999996185303,learn,60000.0,Fri Mar 21 2025 15:58:07 GMT-0500 (Central Daylight Time),816269.5,A,gra,O,a,442,1,4398.0999999940395,811871.400000006,7117,WL,B,3.0
5,14.678999900817871,learn,60000.0,Fri Mar 21 2025 15:58:07 GMT-0500 (Central Daylight Time),816869.3000000119,A,gras,O,s,592,1,4997.9000000059605,811871.400000006,7117,WL,B,3.0
5,14.944999933242798,learn,60000.0,Fri Mar 21 2025 15:58:07 GMT-0500 (Central Daylight Time),817136.0,A,grass,O,s,256,1,5264.5999999940395,811871.400000006,7117,WL,B,3.0
5,15.361999988555908,learn,60000.0,Fri Mar 21 2025 15:58:07 GMT-0500 (Central Daylight Time),817552.400000006,A,grassenter,O,enter,397,1,5681.0,811871.400000006,7117,WL,B,3.0
5,16.227999925613403,learn,60000.0,Fri Mar 21 2025 15:58:07 GMT-0500 (Central Daylight Time),818419.0,A,d,O,d,846,1,866.1999999880791,817552.8000000119,7117,WL,B,4.0
5,16.628000020980835,learn,60000.0,Fri Mar 21 2025 15:58:07 GMT-0500 (Central Daylight Time),818818.6000000238,A,do,O,o,387,1,1265.800000011921,817552.8000000119,7117,WL,B,4.0
5,16.89400005340576,learn,60000.0,Fri Mar 21 2025 15:58:07 GMT-0500 (Central Daylight Time),819085.2000000179,A,doo,O,o,258,1,1532.4000000059605,817552.8000000119,7117,WL,B,4.0
5,17.277999877929688,learn,60000.0,Fri Mar 21 2025 15:58:07 GMT-0500 (Central Daylight Time),819468.6000000238,A,door,O,r,368,1,1915.800000011921,817552.8000000119,7117,WL,B,4.0
5,18.01099991798401,learn,60000.0,Fri Mar 21 2025 15:58:07 GMT-0500 (Central Daylight Time),820201.900000006,A,doorenter,O,enter,713,1,2649.0999999940395,817552.8000000119,7117,WL,B,4.0
5,18.82699990272522,learn,60000.0,Fri Mar 21 2025 15:58:07 GMT-0500 (Central Daylight Time),821018.2000000179,A,a,O,a,804,1,816.0,820202.2000000179,7117,WL,B,5.0
5,19.177000045776367,learn,60000.0,Fri Mar 21 2025 15:58:07 GMT-0500 (Central Daylight Time),821368.0,A,ar,O,r,331,1,1165.7999999821186,820202.2000000179,7117,WL,B,5.0
5,24.858999967575073,learn,60000.0,Fri Mar 21 2025 15:58:07 GMT-0500 (Central Daylight Time),827049.5,A,arm,O,m,5661,1,6847.299999982119,820202.2000000179,7117,WL,B,5.0
5,26.075000047683716,learn,60000.0,Fri Mar 21 2025 15:58:07 GMT-0500 (Central Daylight Time),828266.2000000179,A,armenter,O,enter,1195,1,8064.0,820202.2000000179,7117,WL,B,5.0
5,27.20799994468689,learn,60000.0,Fri Mar 21 2025 15:58:07 GMT-0500 (Central Daylight Time),829398.900000006,A,w,O,w,1123,1,1132.4000000059605,828266.5,7117,WL,B,6.0
5,27.556999921798706,learn,60000.0,Fri Mar 21 2025 15:58:07 GMT-0500 (Central Daylight Time),829747.400000006,A,wi,O,i,326,1,1480.9000000059605,828266.5,7117,WL,B,6.0
5,28.323999881744385,learn,60000.0,Fri Mar 21 2025 15:58:07 GMT-0500 (Central Daylight Time),830515.2000000179,A,wif,O,f,753,1,2248.7000000178814,828266.5,7117,WL,B,6.0
5,28.957000017166138,learn,60000.0,Fri Mar 21 2025 15:58:07 GMT-0500 (Central Daylight Time),831148.3000000119,A,wife,O,e,618,1,2881.800000011921,828266.5,7117,WL,B,6.0
5,29.990999937057495,learn,60000.0,Fri Mar 21 2025 15:58:07 GMT-0500 (Central Daylight Time),832181.400000006,A,wifeenter,O,enter,1017,1,3914.9000000059605,828266.5,7117,WL,B,6.0
5,30.957000017166138,learn,60000.0,Fri Mar 21 2025 15:58:07 GMT-0500 (Central Daylight Time),833147.400000006,A,f,O,f,960,1,965.5999999940395,832181.8000000119,7117,WL,B,7.0
5,31.407000064849854,learn,60000.0,Fri Mar 21 2025 15:58:07 GMT-0500 (Central Daylight Time),833597.5,A,fi,O,i,434,1,1415.699999988079,832181.8000000119,7117,WL,B,7.0
5,31.973000049591064,learn,60000.0,Fri Mar 21 2025 15:58:07 GMT-0500 (Central Daylight Time),834164.2000000179,A,fir,O,r,560,1,1982.4000000059605,832181.8000000119,7117,WL,B,7.0
5,32.4229998588562,learn,60000.0,Fri Mar 21 2025 15:58:07 GMT-0500 (Central Daylight Time),834614.0,A,fire,O,e,441,1,2432.199999988079,832181.8000000119,7117,WL,B,7.0
5,32.956000089645386,learn,60000.0,Fri Mar 21 2025 15:58:07 GMT-0500 (Central Daylight Time),835146.8000000119,A,fireenter,O,enter,527,1,2965.0,832181.8000000119,7117,WL,B,7.0
5,33.82299995422363,learn,60000.0,Fri Mar 21 2025 15:58:07 GMT-0500 (Central Daylight Time),836013.400000006,A,l,O,l,859,1,866.2999999821186,835147.1000000238,7117,WL,B,8.0
5,34.25600004196167,learn,60000.0,Fri Mar 21 2025 15:58:07 GMT-0500 (Central Daylight Time),836446.6000000238,A,la,O,a,424,1,1299.5,835147.1000000238,7117,WL,B,8.0
5,35.388999938964844,learn,60000.0,Fri Mar 21 2025 15:58:07 GMT-0500 (Central Daylight Time),837579.400000006,A,lak,O,k,1128,1,2432.2999999821186,835147.1000000238,7117,WL,B,8.0
5,36.15499997138977,learn,60000.0,Fri Mar 21 2025 15:58:07 GMT-0500 (Central Daylight Time),838346.2000000179,A,lake,O,e,754,1,3199.0999999940395,835147.1000000238,7117,WL,B,8.0
5,36.704999923706055,learn,60000.0,Fri Mar 21 2025 15:58:07 GMT-0500 (Central Daylight Time),838895.900000006,A,lakeenter,O,enter,539,1,3748.7999999821186,835147.1000000238,7117,WL,B,8.0
5,37.62100005149841,learn,60000.0,Fri Mar 21 2025 15:58:07 GMT-0500 (Central Daylight Time),839812.3000000119,A,c,O,c,909,1,916.0999999940395,838896.2000000179,7117,WL,B,9.0
5,38.00499987602234,learn,60000.0,Fri Mar 21 2025 15:58:07 GMT-0500 (Central Daylight Time),840196.6000000238,A,ci,O,i,378,1,1300.4000000059605,838896.2000000179,7117,WL,B,9.0
5,38.687000036239624,learn,60000.0,Fri Mar 21 2025 15:58:07 GMT-0500 (Central Daylight Time),840878.5,A,cit,O,t,665,1,1982.2999999821186,838896.2000000179,7117,WL,B,9.0
5,39.05399990081787,learn,60000.0,Fri Mar 21 2025 15:58:07 GMT-0500 (Central Daylight Time),841245.400000006,A,city,O,y,351,1,2349.199999988079,838896.2000000179,7117,WL,B,9.0
5,40.38700008392334,learn,60000.0,Fri Mar 21 2025 15:58:07 GMT-0500 (Central Daylight Time),842578.0,A,cityenter,O,enter,1311,1,3681.7999999821186,838896.2000000179,7117,WL,B,9.0
5,42.0699999332428,learn,60000.0,Fri Mar 21 2025 15:58:07 GMT-0500 (Central Daylight Time),844260.900000006,A,s,O,s,1676,1,1682.5,842578.400000006,7117,WL,B,10.0
5,42.38599991798401,learn,60000.0,Fri Mar 21 2025 15:58:07 GMT-0500 (Central Daylight Time),844577.400000006,A,st,O,t,305,1,1999.0,842578.400000006,7117,WL,B,10.0
5,42.986000061035156,learn,60000.0,Fri Mar 21 2025 15:58:07 GMT-0500 (Central Daylight Time),845177.3000000119,A,sta,O,a,588,1,2598.9000000059605,842578.400000006,7117,WL,B,10.0
5,43.335999965667725,learn,60000.0,Fri Mar 21 2025 15:58:07 GMT-0500 (Central Daylight Time),845527.2000000179,A,star,O,r,332,1,2948.800000011921,842578.400000006,7117,WL,B,10.0
5,45.151999950408936,learn,60000.0,Fri Mar 21 2025 15:58:07 GMT-0500 (Central Daylight Time),847343.6000000238,A,starenter,O,enter,1798,1,4765.200000017881,842578.400000006,7117,WL,B,10.0
5,46.41799998283386,learn,60000.0,Fri Mar 21 2025 15:58:07 GMT-0500 (Central Daylight Time),848609.400000006,A,p,O,p,1245,1,1265.5,847343.900000006,7117,WL,B,11.0
5,47.58399987220764,learn,60000.0,Fri Mar 21 2025 15:58:07 GMT-0500 (Central Daylight Time),849775.6000000238,A,pu,O,u,1156,1,2431.7000000178814,847343.900000006,7117,WL,B,11.0
5,48.56699991226196,learn,60000.0,Fri Mar 21 2025 15:58:07 GMT-0500 (Central Daylight Time),850758.8000000119,A,pup,O,p,974,1,3414.9000000059605,847343.900000006,7117,WL,B,11.0
5,50.632999897003174,learn,60000.0,Fri Mar 21 2025 15:58:07 GMT-0500 (Central Daylight Time),852824.8000000119,A,pupu,O,u,2047,1,5480.9000000059605,847343.900000006,7117,WL,B,11.0
5,50.96399998664856,learn,60000.0,Fri Mar 21 2025 15:58:07 GMT-0500 (Central Daylight Time),853154.900000006,A,pupul,O,l,325,1,5811.0,847343.900000006,7117,WL,B,11.0
5,52.14999985694885,learn,60000.0,Fri Mar 21 2025 15:58:07 GMT-0500 (Central Daylight Time),854341.0,A,pupulenter,O,enter,1170,1,6997.0999999940395,847343.900000006,7117,WL,B,11.0
5,55.181999921798706,learn,60000.0,Fri Mar 21 2025 15:58:07 GMT-0500 (Central Daylight Time),857373.5,A,enter,O,enter,3016,1,3032.199999988079,854341.3000000119,7117,WL,B,12.0
5,64.17899990081787,learn,60000.0,Fri Mar 21 2025 15:58:07 GMT-0500 (Central Daylight Time),866370.6000000238,A,i,O,i,8977,1,8996.800000011921,857373.8000000119,7117,WL,B,13.0
6,0.9000000953674316,distr,59099.99990463257,Fri Mar 21 2025 15:58:07 GMT-0500 (Central Daylight Time),950511.0,B,s,O,s,891,1,899.8999999761581,949611.1000000238,7117,WL,B,1.0
6,1.3670001029968262,distr,58632.999897003174,Fri Mar 21 2025 15:58:07 GMT-0500 (Central Daylight Time),950978.0,B,st,O,t,446,1,1366.8999999761581,949611.1000000238,7117,WL,B,1.0
6,2.565999984741211,distr,57434.00001525879,Fri Mar 21 2025 15:58:07 GMT-0500 (Central Daylight Time),952177.3000000119,B,sto,O,o,1187,1,2566.199999988079,949611.1000000238,7117,WL,B,1.0
6,4.166000127792358,distr,55833.99987220764,Fri Mar 21 2025 15:58:07 GMT-0500 (Central Daylight Time),953776.7000000179,B,stom,O,m,1580,1,4165.5999999940395,949611.1000000238,7117,WL,B,1.0
6,5.299000024795532,distr,54700.99997520447,Fri Mar 21 2025 15:58:07 GMT-0500 (Central Daylight Time),954909.7000000179,B,stomenter,O,enter,1116,1,5298.5999999940395,949611.1000000238,7117,WL,B,1.0
6,7.04800009727478,distr,52951.99990272522,Fri Mar 21 2025 15:58:07 GMT-0500 (Central Daylight Time),956658.900000006,B,o,O,o,1744,1,1748.9000000059605,954910.0,7117,WL,B,2.0
6,8.314000129699707,distr,51685.99987030029,Fri Mar 21 2025 15:58:07 GMT-0500 (Central Daylight Time),957925.400000006,B,oc,O,c,1251,1,3015.4000000059605,954910.0,7117,WL,B,2.0
6,9.265000104904175,distr,50734.999895095825,Fri Mar 21 2025 15:58:07 GMT-0500 (Central Daylight Time),958876.1000000238,B,oce,O,e,944,1,3966.100000023842,954910.0,7117,WL,B,2.0
6,11.046000003814697,distr,48953.9999961853,Fri Mar 21 2025 15:58:07 GMT-0500 (Central Daylight Time),960657.8000000119,B,ocea,O,a,1769,1,5747.800000011921,954910.0,7117,WL,B,2.0
6,11.896000146865845,distr,48103.999853134155,Fri Mar 21 2025 15:58:07 GMT-0500 (Central Daylight Time),961507.400000006,B,ocean,O,n,835,1,6597.4000000059605,954910.0,7117,WL,B,2.0
6,13.21399998664856,distr,46786.00001335144,Fri Mar 21 2025 15:58:07 GMT-0500 (Central Daylight Time),962825.1000000238,B,oceanenter,O,enter,1298,1,7915.100000023842,954910.0,7117,WL,B,2.0
6,14.412000179290771,distr,45587.99982070923,Fri Mar 21 2025 15:58:07 GMT-0500 (Central Daylight Time),964023.400000006,B,b,O,b,1180,1,1198.0999999940395,962825.3000000119,7117,WL,B,3.0
6,14.894999980926514,distr,45105.000019073486,Fri Mar 21 2025 15:58:07 GMT-0500 (Central Daylight Time),964506.6000000238,B,ba,O,a,478,1,1681.300000011921,962825.3000000119,7117,WL,B,3.0
6,15.312000036239624,distr,44687.999963760376,Fri Mar 21 2025 15:58:07 GMT-0500 (Central Daylight Time),964923.2000000179,B,bar,O,r,403,1,2097.9000000059605,962825.3000000119,7117,WL,B,3.0
6,17.42799997329712,distr,42572.00002670288,Fri Mar 21 2025 15:58:07 GMT-0500 (Central Daylight Time),967039.1000000238,B,barenter,O,enter,2098,1,4213.800000011921,962825.3000000119,7117,WL,B,3.0
6,18.794000148773193,distr,41205.99985122681,Fri Mar 21 2025 15:58:07 GMT-0500 (Central Daylight Time),968405.6000000238,B,s,O,s,1350,1,1366.2000000178814,967039.400000006,7117,WL,B,4.0
6,19.544000148773193,distr,40455.99985122681,Fri Mar 21 2025 15:58:07 GMT-0500 (Central Daylight Time),969155.1000000238,B,sp,O,p,737,1,2115.7000000178814,967039.400000006,7117,WL,B,4.0
6,20.509999990463257,distr,39490.00000953674,Fri Mar 21 2025 15:58:07 GMT-0500 (Central Daylight Time),970121.3000000119,B,spa,O,a,946,1,3081.9000000059605,967039.400000006,7117,WL,B,4.0
6,21.210000038146973,distr,38789.99996185303,Fri Mar 21 2025 15:58:07 GMT-0500 (Central Daylight Time),970821.1000000238,B,spac,O,c,691,1,3781.7000000178814,967039.400000006,7117,WL,B,4.0
6,21.575999975204468,distr,38424.00002479553,Fri Mar 21 2025 15:58:07 GMT-0500 (Central Daylight Time),971187.400000006,B,space,O,e,360,1,4148.0,967039.400000006,7117,WL,B,4.0
6,23.80900001525879,distr,36190.99998474121,Fri Mar 21 2025 15:58:07 GMT-0500 (Central Daylight Time),973420.400000006,B,spaceenter,O,enter,2227,1,6381.0,967039.400000006,7117,WL,B,4.0
6,29.241000175476074,distr,30758.999824523926,Fri Mar 21 2025 15:58:07 GMT-0500 (Central Daylight Time),978852.1000000238,B,c,O,c,5418,1,5431.300000011921,973420.8000000119,7117,WL,B,5.0
6,29.407000064849854,distr,30592.999935150146,Fri Mar 21 2025 15:58:07 GMT-0500 (Central Daylight Time),979018.5,B,cl,O,l,146,1,5597.699999988079,973420.8000000119,7117,WL,B,5.0
6,29.742000102996826,distr,30257.999897003174,Fri Mar 21 2025 15:58:07 GMT-0500 (Central Daylight Time),979353.1000000238,B,clo,O,o,315,1,5932.300000011921,973420.8000000119,7117,WL,B,5.0
6,30.374000072479248,distr,29625.999927520752,Fri Mar 21 2025 15:58:07 GMT-0500 (Central Daylight Time),979985.0,B,cloc,O,c,612,1,6564.199999988079,973420.8000000119,7117,WL,B,5.0
6,30.822999954223633,distr,29177.000045776367,Fri Mar 21 2025 15:58:07 GMT-0500 (Central Daylight Time),980434.7000000179,B,clock,O,k,445,1,7013.9000000059605,973420.8000000119,7117,WL,B,5.0
6,31.873000144958496,distr,28126.999855041504,Fri Mar 21 2025 15:58:07 GMT-0500 (Central Daylight Time),981484.5,B,clockenter,O,enter,1043,1,8063.699999988079,973420.8000000119,7117,WL,B,5.0
6,41.837000131607056,distr,18162.999868392944,Fri Mar 21 2025 15:58:07 GMT-0500 (Central Daylight Time),991448.1000000238,B,s,O,s,9944,1,9963.0,981485.1000000238,7117,WL,B,6.0
6,42.20300006866455,distr,17796.99993133545,Fri Mar 21 2025 15:58:07 GMT-0500 (Central Daylight Time),991814.6000000238,B,sp,O,p,349,1,10329.5,981485.1000000238,7117,WL,B,6.0
6,42.82000017166138,distr,17179.999828338623,Fri Mar 21 2025 15:58:07 GMT-0500 (Central Daylight Time),992431.2000000179,B,spa,O,a,599,1,10946.09999999404,981485.1000000238,7117,WL,B,6.0
6,43.486000061035156,distr,16513.999938964844,Fri Mar 21 2025 15:58:07 GMT-0500 (Central Daylight Time),993097.5,B,spac,O,c,646,1,11612.399999976158,981485.1000000238,7117,WL,B,6.0
6,43.91900014877319,distr,16080.999851226807,Fri Mar 21 2025 15:58:07 GMT-0500 (Central Daylight Time),993530.7000000179,B,space,O,e,428,1,12045.59999999404,981485.1000000238,7117,WL,B,6.0
6,59.41499996185303,distr,585.0000381469727,Fri Mar 21 2025 15:58:07 GMT-0500 (Central Daylight Time),1009026.0,B,spaceenter,O,enter,15475,1,27540.899999976158,981485.1000000238,7117,WL,B,6.0
6,60.01400017738342,distr,-14.000177383422852,Fri Mar 21 2025 15:58:07 GMT-0500 (Central Daylight Time),1009625.7000000179,B,None,O,None,595,1,599.4000000059605,1009026.3000000119,7117,WL,B,7.0
7,4.115999937057495,immed,55884.000062942505,Fri Mar 21 2025 15:58:07 GMT-0500 (Central Daylight Time),1050746.0,A,c,O,c,4095,1,4115.0,1046631.0,7117,WL,B,1.0
7,4.499000072479248,immed,55500.99992752075,Fri Mar 21 2025 15:58:07 GMT-0500 (Central Daylight Time),1051129.400000006,A,ci,O,i,371,1,4498.4000000059605,1046631.0,7117,WL,B,1.0
7,4.815000057220459,immed,55184.99994277954,Fri Mar 21 2025 15:58:07 GMT-0500 (Central Daylight Time),1051445.900000006,A,ciy,O,y,301,1,4814.9000000059605,1046631.0,7117,WL,B,1.0
7,7.414999961853027,immed,52585.00003814697,Fri Mar 21 2025 15:58:07 GMT-0500 (Central Daylight Time),1054045.2000000179,A,ciyenter,O,enter,2583,1,7414.200000017881,1046631.0,7117,WL,B,1.0
7,8.015000104904175,immed,51984.999895095825,Fri Mar 21 2025 15:58:07 GMT-0500 (Central Daylight Time),1054645.0,A,t,O,t,592,1,599.5,1054045.5,7117,WL,B,2.0
7,8.38100004196167,immed,51618.99995803833,Fri Mar 21 2025 15:58:07 GMT-0500 (Central Daylight Time),1055011.400000006,A,ty,O,y,360,1,965.9000000059605,1054045.5,7117,WL,B,2.0
7,9.480999946594238,immed,50519.00005340576,Fri Mar 21 2025 15:58:07 GMT-0500 (Central Daylight Time),1056111.2000000179,A,tyenter,O,enter,1082,1,2065.7000000178814,1054045.5,7117,WL,B,2.0
7,12.812999963760376,immed,47187.000036239624,Fri Mar 21 2025 15:58:07 GMT-0500 (Central Daylight Time),1059443.300000012,A,f,O,f,3326,1,3331.800000011921,1056111.5,7117,WL,B,3.0
7,13.378999948501587,immed,46621.00005149841,Fri Mar 21 2025 15:58:07 GMT-0500 (Central Daylight Time),1060009.900000006,A,fi,O,i,554,1,3898.4000000059605,1056111.5,7117,WL,B,3.0
7,14.128999948501587,immed,45871.00005149841,Fri Mar 21 2025 15:58:07 GMT-0500 (Central Daylight Time),1060760.0,A,fir,O,r,739,1,4648.5,1056111.5,7117,WL,B,3.0
7,14.529000043869019,immed,45470.99995613098,Fri Mar 21 2025 15:58:07 GMT-0500 (Central Daylight Time),1061159.5,A,fire,O,e,389,1,5048.0,1056111.5,7117,WL,B,3.0
7,15.178999900817871,immed,44821.00009918213,Fri Mar 21 2025 15:58:07 GMT-0500 (Central Daylight Time),1061809.5,A,fireenter,O,enter,638,1,5698.0,1056111.5,7117,WL,B,3.0
7,15.961999893188477,immed,44038.00010681152,Fri Mar 21 2025 15:58:07 GMT-0500 (Central Daylight Time),1062592.400000006,A,w,O,w,773,1,782.5999999940395,1061809.800000012,7117,WL,B,4.0
7,16.378000020980835,immed,43621.999979019165,Fri Mar 21 2025 15:58:07 GMT-0500 (Central Daylight Time),1063009.0,A,wi,O,i,405,1,1199.199999988079,1061809.800000012,7117,WL,B,4.0
7,17.028000116348267,immed,42971.99988365173,Fri Mar 21 2025 15:58:07 GMT-0500 (Central Daylight Time),1063659.0,A,wif,O,f,629,1,1849.199999988079,1061809.800000012,7117,WL,B,4.0
7,17.461999893188477,immed,42538.00010681152,Fri Mar 21 2025 15:58:07 GMT-0500 (Central Daylight Time),1064092.1000000238,A,wife,O,e,427,1,2282.300000011921,1061809.800000012,7117,WL,B,4.0
7,18.01099991798401,immed,41989.00008201599,Fri Mar 21 2025 15:58:07 GMT-0500 (Central Daylight Time),1064641.900000006,A,wifeenter,O,enter,529,1,2832.0999999940395,1061809.800000012,7117,WL,B,4.0
7,21.97699999809265,immed,38023.00000190735,Fri Mar 21 2025 15:58:07 GMT-0500 (Central Daylight Time),1068607.300000012,A,w,O,w,3956,1,3965.0999999940395,1064642.2000000179,7117,WL,B,5.0
7,22.609999895095825,immed,37390.000104904175,Fri Mar 21 2025 15:58:07 GMT-0500 (Central Daylight Time),1069240.7000000179,A,wi,O,i,614,1,4598.5,1064642.2000000179,7117,WL,B,5.0
7,23.259999990463257,immed,36740.00000953674,Fri Mar 21 2025 15:58:07 GMT-0500 (Central Daylight Time),1069890.6000000238,A,win,O,n,629,1,5248.4000000059605,1064642.2000000179,7117,WL,B,5.0
7,23.64300012588501,immed,36356.99987411499,Fri Mar 21 2025 15:58:07 GMT-0500 (Central Daylight Time),1070273.300000012,A,wind,O,d,363,1,5631.0999999940395,1064642.2000000179,7117,WL,B,5.0
7,24.7260000705719,immed,35273.9999294281,Fri Mar 21 2025 15:58:07 GMT-0500 (Central Daylight Time),1071356.5,A,windo,O,o,1068,1,6714.299999982119,1064642.2000000179,7117,WL,B,5.0
7,25.026000022888184,immed,34973.99997711182,Fri Mar 21 2025 15:58:07 GMT-0500 (Central Daylight Time),1071656.6000000238,A,window,O,w,281,1,7014.4000000059605,1064642.2000000179,7117,WL,B,5.0
7,26.02500009536743,immed,33974.99990463257,Fri Mar 21 2025 15:58:07 GMT-0500 (Central Daylight Time),1072655.900000006,A,windowenter,O,enter,989,1,8013.699999988079,1064642.2000000179,7117,WL,B,5.0
7,29.29200005531311,immed,30707.99994468689,Fri Mar 21 2025 15:58:07 GMT-0500 (Central Daylight Time),1075922.900000006,A,l,O,l,3245,1,3266.5,1072656.400000006,7117,WL,B,6.0
7,30.20799994468689,immed,29792.00005531311,Fri Mar 21 2025 15:58:07 GMT-0500 (Central Daylight Time),1076838.1000000238,A,la,O,a,906,1,4181.700000017881,1072656.400000006,7117,WL,B,6.0
7,31.94000005722046,immed,28059.99994277954,Fri Mar 21 2025 15:58:07 GMT-0500 (Central Daylight Time),1078570.7000000179,A,lak,O,k,1727,1,5914.300000011921,1072656.400000006,7117,WL,B,6.0
7,32.42300009727478,immed,27576.99990272522,Fri Mar 21 2025 15:58:07 GMT-0500 (Central Daylight Time),1079053.800000012,A,lake,O,e,475,1,6397.4000000059605,1072656.400000006,7117,WL,B,6.0
7,34.12299990653992,immed,25877.000093460083,Fri Mar 21 2025 15:58:07 GMT-0500 (Central Daylight Time),1080753.6000000238,A,lakeenter,O,enter,1680,1,8097.200000017881,1072656.400000006,7117,WL,B,6.0
7,35.5220000743866,immed,24477.999925613403,Fri Mar 21 2025 15:58:07 GMT-0500 (Central Daylight Time),1082153.0,A,s,O,s,1380,1,1399.0999999940395,1080753.900000006,7117,WL,B,7.0
7,37.03999996185303,immed,22960.000038146973,Fri Mar 21 2025 15:58:07 GMT-0500 (Central Daylight Time),1083670.6000000238,A,sk,O,k,1500,1,2916.7000000178814,1080753.900000006,7117,WL,B,7.0
7,37.2720000743866,immed,22727.999925613403,Fri Mar 21 2025 15:58:07 GMT-0500 (Central Daylight Time),1083902.400000006,A,ski,O,i,222,1,3148.5,1080753.900000006,7117,WL,B,7.0
7,38.17199993133545,immed,21828.00006866455,Fri Mar 21 2025 15:58:07 GMT-0500 (Central Daylight Time),1084802.300000012,A,skin,O,n,895,1,4048.4000000059605,1080753.900000006,7117,WL,B,7.0
7,39.4539999961853,immed,20546.000003814697,Fri Mar 21 2025 15:58:07 GMT-0500 (Central Daylight Time),1086085.2000000179,A,skinenter,O,enter,1268,1,5331.300000011921,1080753.900000006,7117,WL,B,7.0
7,42.73799991607666,immed,17262.00008392334,Fri Mar 21 2025 15:58:07 GMT-0500 (Central Daylight Time),1089368.7000000179,A,f,O,f,3264,1,3283.300000011921,1086085.400000006,7117,WL,B,8.0
7,42.95300006866455,immed,17046.99993133545,Fri Mar 21 2025 15:58:07 GMT-0500 (Central Daylight Time),1089584.1000000238,A,fi,O,i,206,1,3498.7000000178814,1086085.400000006,7117,WL,B,8.0
7,43.78600001335144,immed,16213.99998664856,Fri Mar 21 2025 15:58:07 GMT-0500 (Central Daylight Time),1090417.2000000179,A,fir,O,r,822,1,4331.800000011921,1086085.400000006,7117,WL,B,8.0
7,44.1029999256134,immed,15897.000074386597,Fri Mar 21 2025 15:58:07 GMT-0500 (Central Daylight Time),1090733.900000006,A,fire,O,e,308,1,4648.5,1086085.400000006,7117,WL,B,8.0
7,44.70300006866455,immed,15296.99993133545,Fri Mar 21 2025 15:58:07 GMT-0500 (Central Daylight Time),1091333.5,A,fireenter,O,enter,592,1,5248.0999999940395,1086085.400000006,7117,WL,B,8.0
7,48.63499999046326,immed,11365.000009536743,Fri Mar 21 2025 15:58:07 GMT-0500 (Central Daylight Time),1095265.5,A,g,O,g,3920,1,3931.699999988079,1091333.800000012,7117,WL,B,9.0
7,49.1010000705719,immed,10898.9999294281,Fri Mar 21 2025 15:58:07 GMT-0500 (Central Daylight Time),1095732.1000000238,A,gr,O,r,460,1,4398.300000011921,1091333.800000012,7117,WL,B,9.0
7,49.88599991798401,immed,10114.000082015991,Fri Mar 21 2025 15:58:07 GMT-0500 (Central Daylight Time),1096516.300000012,A,gra,O,a,778,1,5182.5,1091333.800000012,7117,WL,B,9.0
7,50.51800012588501,immed,9481.99987411499,Fri Mar 21 2025 15:58:07 GMT-0500 (Central Daylight Time),1097148.300000012,A,gras,O,s,617,1,5814.5,1091333.800000012,7117,WL,B,9.0
7,50.78399991989136,immed,9216.000080108643,Fri Mar 21 2025 15:58:07 GMT-0500 (Central Daylight Time),1097414.800000012,A,grass,O,s,257,1,6081.0,1091333.800000012,7117,WL,B,9.0
7,52.08400011062622,immed,7915.999889373779,Fri Mar 21 2025 15:58:07 GMT-0500 (Central Daylight Time),1098714.5,A,grassenter,O,enter,1286,1,7380.699999988079,1091333.800000012,7117,WL,B,9.0
7,57.56599998474121,immed,2434.000015258789,Fri Mar 21 2025 15:58:07 GMT-0500 (Central Daylight Time),1104196.300000012,A,p,O,p,5475,1,5481.5,1098714.800000012,7117,WL,B,10.0
7,58.03200006484985,immed,1967.9999351501465,Fri Mar 21 2025 15:58:07 GMT-0500 (Central Daylight Time),1104662.6000000238,A,pi,O,i,457,1,5947.800000011921,1098714.800000012,7117,WL,B,10.0
7,58.681999921798706,immed,1318.000078201294,Fri Mar 21 2025 15:58:07 GMT-0500 (Central Daylight Time),1105312.5,A,pip,O,p,639,1,6597.699999988079,1098714.800000012,7117,WL,B,10.0
7,59.69799995422363,immed,302.0000457763672,Fri Mar 21 2025 15:58:07 GMT-0500 (Central Daylight Time),1106328.7000000179,A,pipe,O,e,997,1,7613.9000000059605,1098714.800000012,7117,WL,B,10.0
7,60.015000104904175,immed,-15.000104904174805,Fri Mar 21 2025 15:58:07 GMT-0500 (Central Daylight Time),1106645.5,A,pipeNone,O,None,311,1,7930.699999988079,1098714.800000012,7117,WL,B,10.0
