acc_sum,block,block_c,change,condition,correct,correct_response,datetime,endtime,face,project,response,response_time,row_sel,session_number,start_end,starttime,subject_id,task,task_vers,trial
0,prac,1,,1-Back,,,Fri Oct 11 2024 13:49:43 GMT-0500 (Central Daylight Time),,012_o_f_d_a.png,O,space,9814,1,1,,,7024,VNB,C,0
1,prac,1,0.0,1-Back,1,m,Fri Oct 11 2024 13:49:43 GMT-0500 (Central Daylight Time),136034.6000000015,022_y_f_n_a.png,O,m,1892,2,1,2790.8000000044703,133243.79999999702,7024,VNB,C,1
2,prac,1,0.0,1-Back,1,m,Fri Oct 11 2024 13:49:43 GMT-0500 (Central Daylight Time),138300.5,014_m_m_h_a.png,O,m,1392,3,1,2259.8000000044703,136040.69999999553,7024,VNB,C,2
3,prac,1,0.0,1-Back,1,m,Fri Oct 11 2024 13:49:43 GMT-0500 (Central Daylight Time),140483.29999999702,025_y_m_d_a.png,O,m,1315,4,1,2177.2999999970198,138306.0,7024,VNB,C,3
4,prac,1,0.0,1-Back,1,m,Fri Oct 11 2024 13:49:43 GMT-0500 (Central Daylight Time),142449.1000000015,012_o_f_n_a.png,O,m,1081,5,1,1960.2000000029802,140488.8999999985,7024,VNB,C,4
5,prac,1,1.0,1-Back,1,z,Fri Oct 11 2024 13:49:43 GMT-0500 (Central Daylight Time),144265.1000000015,025_y_m_n_a.png,O,z,944,6,1,1810.6000000014901,142454.5,7024,VNB,C,5
6,prac,1,0.0,1-Back,1,m,Fri Oct 11 2024 13:49:43 GMT-0500 (Central Daylight Time),146214.5,015_o_m_h_a.png,O,m,1043,7,1,1943.1000000014901,144271.3999999985,7024,VNB,C,6
7,prac,1,0.0,1-Back,1,m,Fri Oct 11 2024 13:49:43 GMT-0500 (Central Daylight Time),148063.8999999985,019_m_f_d_a.png,O,m,947,8,1,1842.7999999970198,146221.1000000015,7024,VNB,C,7
8,prac,1,1.0,1-Back,1,z,Fri Oct 11 2024 13:49:43 GMT-0500 (Central Daylight Time),149763.6000000015,022_y_f_d_a.png,O,z,809,9,1,1694.4000000059605,148069.19999999553,7024,VNB,C,8
9,prac,1,0.0,1-Back,1,m,Fri Oct 11 2024 13:49:43 GMT-0500 (Central Daylight Time),152329.3999999985,014_m_m_n_a.png,O,m,1695,10,1,2560.10000000149,149769.29999999702,7024,VNB,C,9
10,prac,1,0.0,1-Back,1,m,Fri Oct 11 2024 13:49:43 GMT-0500 (Central Daylight Time),154113.29999999702,012_o_f_h_a.png,O,m,909,11,1,1778.6999999955297,152334.6000000015,7024,VNB,C,10
11,prac,1,0.0,1-Back,1,m,Fri Oct 11 2024 13:49:43 GMT-0500 (Central Daylight Time),155744.79999999702,025_y_m_d_a.png,O,m,748,12,1,1625.3999999985099,154119.3999999985,7024,VNB,C,11
0,test,1,0.0,1-Back,,,Fri Oct 11 2024 13:49:43 GMT-0500 (Central Daylight Time),155744.79999999702,022_y_f_d_a.png,O,space,10529,1,1,1625.3999999985099,154119.3999999985,7024,VNB,C,0
1,test,1,0.0,1-Back,1,m,Fri Oct 11 2024 13:49:43 GMT-0500 (Central Daylight Time),177988.0,019_m_f_n_a.png,O,m,890,2,1,1911.7000000029802,176076.29999999702,7024,VNB,C,1
2,test,1,0.0,1-Back,1,m,Fri Oct 11 2024 13:49:43 GMT-0500 (Central Daylight Time),179970.5,015_o_m_h_a.png,O,m,951,3,1,1979.0,177991.5,7024,VNB,C,2
3,test,1,1.0,1-Back,1,z,Fri Oct 11 2024 13:49:43 GMT-0500 (Central Daylight Time),181819.79999999702,014_m_m_h_a.png,O,z,832,4,1,1845.3999999985099,179974.3999999985,7024,VNB,C,3
4,test,1,0.0,1-Back,1,m,Fri Oct 11 2024 13:49:43 GMT-0500 (Central Daylight Time),183602.6000000015,012_o_f_n_a.png,O,m,758,5,1,1779.3000000044703,181823.29999999702,7024,VNB,C,4
5,test,1,0.0,1-Back,1,m,Fri Oct 11 2024 13:49:43 GMT-0500 (Central Daylight Time),185702.1000000015,025_y_m_d_a.png,O,m,944,6,1,2095.4000000059605,183606.69999999553,7024,VNB,C,5
6,test,1,1.0,1-Back,1,z,Fri Oct 11 2024 13:49:43 GMT-0500 (Central Daylight Time),187784.6000000015,019_m_f_d_a.png,O,z,1052,7,1,2078.5,185706.1000000015,7024,VNB,C,6
7,test,1,0.0,1-Back,1,m,Fri Oct 11 2024 13:49:43 GMT-0500 (Central Daylight Time),189601.79999999702,022_y_f_h_a.png,O,m,786,8,1,1813.2999999970198,187788.5,7024,VNB,C,7
8,test,1,0.0,1-Back,1,m,Fri Oct 11 2024 13:49:43 GMT-0500 (Central Daylight Time),191616.8999999985,015_o_m_n_a.png,O,m,984,9,1,2011.2000000029802,189605.69999999553,7024,VNB,C,8
9,test,1,0.0,1-Back,1,m,Fri Oct 11 2024 13:49:43 GMT-0500 (Central Daylight Time),193516.29999999702,025_y_m_h_a.png,O,m,881,10,1,1895.5,191620.79999999702,7024,VNB,C,9
10,test,1,0.0,1-Back,1,m,Fri Oct 11 2024 13:49:43 GMT-0500 (Central Daylight Time),195482.3999999985,015_o_m_d_a.png,O,m,941,11,1,1962.1000000014901,193520.29999999702,7024,VNB,C,10
11,test,1,1.0,1-Back,1,z,Fri Oct 11 2024 13:49:43 GMT-0500 (Central Daylight Time),197665.0,012_o_f_d_a.png,O,z,1152,12,1,2178.8000000044703,195486.19999999553,7024,VNB,C,11
12,test,1,0.0,1-Back,1,m,Fri Oct 11 2024 13:49:43 GMT-0500 (Central Daylight Time),199830.8999999985,014_m_m_n_a.png,O,m,1136,13,1,2161.7000000029802,197669.19999999553,7024,VNB,C,12
13,test,1,1.0,1-Back,1,z,Fri Oct 11 2024 13:49:43 GMT-0500 (Central Daylight Time),201763.5,022_y_f_n_a.png,O,z,914,14,1,1928.5,199835.0,7024,VNB,C,13
14,test,1,0.0,1-Back,1,m,Fri Oct 11 2024 13:49:43 GMT-0500 (Central Daylight Time),203529.69999999553,019_m_f_h_a.png,O,m,742,15,1,1763.0,201766.69999999553,7024,VNB,C,14
15,test,1,0.0,1-Back,1,m,Fri Oct 11 2024 13:49:43 GMT-0500 (Central Daylight Time),205679.1000000015,014_m_m_d_a.png,O,m,1069,16,1,2145.8000000044703,203533.29999999702,7024,VNB,C,15
16,test,1,0.0,1-Back,1,m,Fri Oct 11 2024 13:49:43 GMT-0500 (Central Daylight Time),207995.1000000015,025_y_m_n_a.png,O,m,1224,17,1,2311.9000000059605,205683.19999999553,7024,VNB,C,16
17,test,1,0.0,1-Back,1,m,Fri Oct 11 2024 13:49:43 GMT-0500 (Central Daylight Time),210161.1000000015,012_o_f_h_a.png,O,m,1002,18,1,2162.0,207999.1000000015,7024,VNB,C,17
0,test,2,0.0,1-Back,,,Fri Oct 11 2024 13:49:43 GMT-0500 (Central Daylight Time),210161.1000000015,025_y_m_n_a.png,O,space,1984,1,1,2162.0,207999.1000000015,7024,VNB,C,0
1,test,2,0.0,1-Back,1,m,Fri Oct 11 2024 13:49:43 GMT-0500 (Central Daylight Time),215909.29999999702,022_y_f_h_a.png,O,m,714,2,1,1728.8999999985099,214180.3999999985,7024,VNB,C,1
2,test,2,1.0,1-Back,1,m,Fri Oct 11 2024 13:49:43 GMT-0500 (Central Daylight Time),217825.3999999985,015_o_m_n_a.png,O,m,884,3,1,1912.0,215913.3999999985,7024,VNB,C,2
3,test,2,0.0,1-Back,1,m,Fri Oct 11 2024 13:49:43 GMT-0500 (Central Daylight Time),219708.1000000015,019_m_f_d_a.png,O,m,865,4,1,1879.2000000029802,217828.8999999985,7024,VNB,C,3
4,test,2,0.0,1-Back,1,z,Fri Oct 11 2024 13:49:43 GMT-0500 (Central Daylight Time),221623.8999999985,014_m_m_d_a.png,O,z,894,5,1,1911.8999999985099,219712.0,7024,VNB,C,4
5,test,2,0.0,1-Back,1,m,Fri Oct 11 2024 13:49:43 GMT-0500 (Central Daylight Time),223440.29999999702,025_y_m_h_a.png,O,m,785,6,1,1812.1000000014901,221628.19999999553,7024,VNB,C,5
6,test,2,1.0,1-Back,1,z,Fri Oct 11 2024 13:49:43 GMT-0500 (Central Daylight Time),225422.8999999985,012_o_f_h_a.png,O,z,953,7,1,1978.7999999970198,223444.1000000015,7024,VNB,C,6
7,test,2,0.0,1-Back,1,m,Fri Oct 11 2024 13:49:43 GMT-0500 (Central Daylight Time),227355.69999999553,019_m_f_n_a.png,O,m,907,8,1,1928.5,225427.19999999553,7024,VNB,C,7
8,test,2,0.0,1-Back,1,m,Fri Oct 11 2024 13:49:43 GMT-0500 (Central Daylight Time),229938.19999999553,022_y_f_d_a.png,O,m,1500,9,1,2578.7999999970198,227359.3999999985,7024,VNB,C,8
9,test,2,0.0,1-Back,1,m,Fri Oct 11 2024 13:49:43 GMT-0500 (Central Daylight Time),232004.1000000015,014_m_m_n_a.png,O,m,1047,10,1,2062.4000000059605,229941.69999999553,7024,VNB,C,9
10,test,2,1.0,1-Back,1,m,Fri Oct 11 2024 13:49:43 GMT-0500 (Central Daylight Time),233903.6000000015,019_m_f_h_a.png,O,m,819,11,1,1895.3000000044703,232008.29999999702,7024,VNB,C,10
11,test,2,0.0,1-Back,1,z,Fri Oct 11 2024 13:49:43 GMT-0500 (Central Daylight Time),235736.29999999702,015_o_m_h_a.png,O,z,761,12,1,1828.6000000014901,233907.69999999553,7024,VNB,C,11
12,test,2,0.0,1-Back,1,m,Fri Oct 11 2024 13:49:43 GMT-0500 (Central Daylight Time),237752.69999999553,025_y_m_d_a.png,O,m,951,13,1,2012.5999999940395,235740.1000000015,7024,VNB,C,12
13,test,2,0.0,1-Back,1,m,Fri Oct 11 2024 13:49:43 GMT-0500 (Central Daylight Time),239968.3999999985,012_o_f_n_a.png,O,m,1136,14,1,2211.5,237756.8999999985,7024,VNB,C,13
14,test,2,0.0,1-Back,1,z,Fri Oct 11 2024 13:49:43 GMT-0500 (Central Daylight Time),241934.3999999985,022_y_f_n_a.png,O,z,887,15,1,1961.5,239972.8999999985,7024,VNB,C,14
15,test,2,1.0,1-Back,1,m,Fri Oct 11 2024 13:49:43 GMT-0500 (Central Daylight Time),244000.5,014_m_m_h_a.png,O,m,985,16,1,2061.89999999851,241938.6000000015,7024,VNB,C,15
16,test,2,0.0,1-Back,1,m,Fri Oct 11 2024 13:49:43 GMT-0500 (Central Daylight Time),246199.69999999553,012_o_f_d_a.png,O,m,1127,17,1,2195.0999999940395,244004.6000000015,7024,VNB,C,16
17,test,2,1.0,1-Back,1,z,Fri Oct 11 2024 13:49:43 GMT-0500 (Central Daylight Time),248299.0,015_o_m_d_a.png,O,z,1017,18,1,2095.39999999851,246203.6000000015,7024,VNB,C,17
0,test,3,1.0,1-Back,,,Fri Oct 11 2024 13:49:43 GMT-0500 (Central Daylight Time),248299.0,012_o_f_h_a.png,O,space,1159,1,1,2095.39999999851,246203.6000000015,7024,VNB,C,0
1,test,3,0.0,1-Back,1,m,Fri Oct 11 2024 13:49:43 GMT-0500 (Central Daylight Time),253414.19999999553,019_m_f_d_a.png,O,m,763,2,1,1829.0,251585.19999999553,7024,VNB,C,1
2,test,3,1.0,1-Back,1,m,Fri Oct 11 2024 13:49:43 GMT-0500 (Central Daylight Time),255380.0,014_m_m_n_a.png,O,m,897,3,1,1961.8999999985099,253418.1000000015,7024,VNB,C,2
3,test,3,0.0,1-Back,1,z,Fri Oct 11 2024 13:49:43 GMT-0500 (Central Daylight Time),257213.69999999553,012_o_f_n_a.png,O,z,755,4,1,1829.5999999940395,255384.1000000015,7024,VNB,C,3
4,test,3,1.0,1-Back,1,m,Fri Oct 11 2024 13:49:43 GMT-0500 (Central Daylight Time),259079.1000000015,015_o_m_d_a.png,O,m,795,5,1,1861.9000000059605,257217.19999999553,7024,VNB,C,4
5,test,3,0.0,1-Back,1,m,Fri Oct 11 2024 13:49:43 GMT-0500 (Central Daylight Time),261045.19999999553,022_y_f_h_a.png,O,m,904,6,1,1962.0999999940395,259083.1000000015,7024,VNB,C,5
6,test,3,0.0,1-Back,1,z,Fri Oct 11 2024 13:49:43 GMT-0500 (Central Daylight Time),262711.19999999553,025_y_m_h_a.png,O,z,586,7,1,1662.0999999940395,261049.1000000015,7024,VNB,C,6
7,test,3,0.0,1-Back,1,m,Fri Oct 11 2024 13:49:43 GMT-0500 (Central Daylight Time),265061.6000000015,019_m_f_n_a.png,O,m,1280,8,1,2346.8000000044703,262714.799999997,7024,VNB,C,7
8,test,3,0.0,1-Back,1,m,Fri Oct 11 2024 13:49:43 GMT-0500 (Central Daylight Time),267093.3999999985,022_y_f_d_a.png,O,m,963,9,1,2027.2999999970198,265066.1000000015,7024,VNB,C,8
9,test,3,1.0,1-Back,1,m,Fri Oct 11 2024 13:49:43 GMT-0500 (Central Daylight Time),269309.19999999553,015_o_m_n_a.png,O,m,1146,10,1,2211.89999999851,267097.299999997,7024,VNB,C,9
10,test,3,0.0,1-Back,1,m,Fri Oct 11 2024 13:49:43 GMT-0500 (Central Daylight Time),271575.1000000015,014_m_m_h_a.png,O,m,1212,11,1,2261.5,269313.6000000015,7024,VNB,C,10
11,test,3,0.0,1-Back,1,z,Fri Oct 11 2024 13:49:43 GMT-0500 (Central Daylight Time),273474.299999997,019_m_f_h_a.png,O,z,824,12,1,1895.5,271578.799999997,7024,VNB,C,11
12,test,3,1.0,1-Back,1,m,Fri Oct 11 2024 13:49:43 GMT-0500 (Central Daylight Time),275390.6000000015,012_o_f_d_a.png,O,m,846,13,1,1912.5,273478.1000000015,7024,VNB,C,12
13,test,3,0.0,1-Back,1,z,Fri Oct 11 2024 13:49:43 GMT-0500 (Central Daylight Time),277406.69999999553,014_m_m_d_a.png,O,z,945,14,1,2012.0999999940395,275394.6000000015,7024,VNB,C,13
14,test,3,0.0,1-Back,1,m,Fri Oct 11 2024 13:49:43 GMT-0500 (Central Daylight Time),279289.3999999985,025_y_m_n_a.png,O,m,801,15,1,1878.6000000014901,277410.799999997,7024,VNB,C,14
15,test,3,1.0,1-Back,1,m,Fri Oct 11 2024 13:49:43 GMT-0500 (Central Daylight Time),281155.3999999985,015_o_m_h_a.png,O,m,798,16,1,1862.8999999985099,279292.5,7024,VNB,C,15
16,test,3,0.0,1-Back,1,m,Fri Oct 11 2024 13:49:43 GMT-0500 (Central Daylight Time),283121.69999999553,025_y_m_d_a.png,O,m,935,17,1,1963.0,281158.69999999553,7024,VNB,C,16
17,test,3,1.0,1-Back,1,m,Fri Oct 11 2024 13:49:43 GMT-0500 (Central Daylight Time),285770.799999997,022_y_f_n_a.png,O,m,1574,18,1,2644.89999999851,283125.8999999985,7024,VNB,C,17
0,test,4,1.0,1-Back,,,Fri Oct 11 2024 13:49:43 GMT-0500 (Central Daylight Time),285770.799999997,014_m_m_d_a.png,O,space,1528,1,1,2644.89999999851,283125.8999999985,7024,VNB,C,0
1,test,4,0.0,1-Back,1,z,Fri Oct 11 2024 13:49:43 GMT-0500 (Central Daylight Time),291385.6000000015,015_o_m_d_a.png,O,z,943,2,1,1961.9000000059605,289423.69999999553,7024,VNB,C,1
2,test,4,0.0,1-Back,1,m,Fri Oct 11 2024 13:49:43 GMT-0500 (Central Daylight Time),293384.8999999985,025_y_m_h_a.png,O,m,976,3,1,1995.7000000029802,291389.19999999553,7024,VNB,C,2
3,test,4,0.0,1-Back,1,m,Fri Oct 11 2024 13:49:43 GMT-0500 (Central Daylight Time),295417.69999999553,019_m_f_n_a.png,O,m,1010,4,1,2028.8999999985099,293388.799999997,7024,VNB,C,3
4,test,4,1.0,1-Back,1,m,Fri Oct 11 2024 13:49:43 GMT-0500 (Central Daylight Time),297300.6000000015,012_o_f_h_a.png,O,m,864,5,1,1879.1000000014901,295421.5,7024,VNB,C,4
5,test,4,0.0,1-Back,1,m,Fri Oct 11 2024 13:49:43 GMT-0500 (Central Daylight Time),299366.6000000015,014_m_m_n_a.png,O,m,1045,6,1,2062.0,297304.6000000015,7024,VNB,C,5
6,test,4,0.0,1-Back,1,m,Fri Oct 11 2024 13:49:43 GMT-0500 (Central Daylight Time),301249.3999999985,025_y_m_d_a.png,O,m,852,7,1,1879.1000000014901,299370.299999997,7024,VNB,C,6
7,test,4,1.0,1-Back,1,z,Fri Oct 11 2024 13:49:43 GMT-0500 (Central Daylight Time),303165.19999999553,022_y_f_d_a.png,O,z,780,8,1,1911.5999999940395,301253.6000000015,7024,VNB,C,7
8,test,4,0.0,1-Back,1,m,Fri Oct 11 2024 13:49:43 GMT-0500 (Central Daylight Time),304914.8999999985,019_m_f_h_a.png,O,m,732,9,1,1745.5,303169.3999999985,7024,VNB,C,8
9,test,4,0.0,1-Back,1,z,Fri Oct 11 2024 13:49:43 GMT-0500 (Central Daylight Time),306764.19999999553,015_o_m_h_a.png,O,z,823,10,1,1845.1999999955297,304919.0,7024,VNB,C,9
10,test,4,1.0,1-Back,1,m,Fri Oct 11 2024 13:49:43 GMT-0500 (Central Daylight Time),308580.19999999553,012_o_f_n_a.png,O,m,791,11,1,1810.2999999970198,306769.8999999985,7024,VNB,C,10
11,test,4,0.0,1-Back,1,m,Fri Oct 11 2024 13:49:43 GMT-0500 (Central Daylight Time),310562.8999999985,019_m_f_d_a.png,O,m,958,12,1,1978.7000000029802,308584.19999999553,7024,VNB,C,11
12,test,4,0.0,1-Back,1,m,Fri Oct 11 2024 13:49:43 GMT-0500 (Central Daylight Time),312445.69999999553,022_y_f_n_a.png,O,m,855,13,1,1878.7999999970198,310566.8999999985,7024,VNB,C,12
13,test,4,0.0,1-Back,1,m,Fri Oct 11 2024 13:49:43 GMT-0500 (Central Daylight Time),314928.19999999553,012_o_f_d_a.png,O,m,1452,14,1,2478.39999999851,312449.799999997,7024,VNB,C,13
14,test,4,0.0,1-Back,1,m,Fri Oct 11 2024 13:49:43 GMT-0500 (Central Daylight Time),317127.5,022_y_f_h_a.png,O,m,1169,15,1,2195.3000000044703,314932.19999999553,7024,VNB,C,14
15,test,4,1.0,1-Back,1,z,Fri Oct 11 2024 13:49:43 GMT-0500 (Central Daylight Time),318976.8999999985,014_m_m_h_a.png,O,z,769,16,1,1845.8999999985099,317131.0,7024,VNB,C,15
16,test,4,0.0,1-Back,1,m,Fri Oct 11 2024 13:49:43 GMT-0500 (Central Daylight Time),321142.8999999985,015_o_m_n_a.png,O,m,1103,17,1,2162.60000000149,318980.299999997,7024,VNB,C,16
17,test,4,1.0,1-Back,1,z,Fri Oct 11 2024 13:49:43 GMT-0500 (Central Daylight Time),323059.299999997,025_y_m_n_a.png,O,z,834,18,1,1912.6000000014901,321146.69999999553,7024,VNB,C,17
0,test,5,1.0,1-Back,,,Fri Oct 11 2024 13:49:43 GMT-0500 (Central Daylight Time),323059.299999997,015_o_m_n_a.png,O,space,966,1,1,1912.6000000014901,321146.69999999553,7024,VNB,C,0
1,test,5,1.0,1-Back,1,m,Fri Oct 11 2024 13:49:43 GMT-0500 (Central Daylight Time),327691.1000000015,012_o_f_h_a.png,O,m,633,2,1,1643.4000000059605,326047.69999999553,7024,VNB,C,1
2,test,5,0.0,1-Back,1,m,Fri Oct 11 2024 13:49:43 GMT-0500 (Central Daylight Time),329956.799999997,025_y_m_d_a.png,O,m,1248,3,1,2261.60000000149,327695.19999999553,7024,VNB,C,2
3,test,5,0.0,1-Back,1,z,Fri Oct 11 2024 13:49:43 GMT-0500 (Central Daylight Time),331922.799999997,015_o_m_d_a.png,O,z,891,4,1,1962.2999999970198,329960.5,7024,VNB,C,3
4,test,5,0.0,1-Back,1,m,Fri Oct 11 2024 13:49:43 GMT-0500 (Central Daylight Time),333805.3999999985,019_m_f_h_a.png,O,m,814,5,1,1878.2999999970198,331927.1000000015,7024,VNB,C,4
5,test,5,0.0,1-Back,1,m,Fri Oct 11 2024 13:49:43 GMT-0500 (Central Daylight Time),335838.19999999553,022_y_f_n_a.png,O,m,962,6,1,2028.6999999955297,333809.5,7024,VNB,C,5
6,test,5,1.0,1-Back,1,z,Fri Oct 11 2024 13:49:43 GMT-0500 (Central Daylight Time),337604.6000000015,012_o_f_n_a.png,O,z,690,7,1,1762.5,335842.1000000015,7024,VNB,C,6
7,test,5,0.0,1-Back,1,m,Fri Oct 11 2024 13:49:43 GMT-0500 (Central Daylight Time),339303.8999999985,019_m_f_d_a.png,O,m,628,8,1,1695.8999999985099,337608.0,7024,VNB,C,7
8,test,5,0.0,1-Back,1,m,Fri Oct 11 2024 13:49:43 GMT-0500 (Central Daylight Time),341419.8999999985,025_y_m_h_a.png,O,m,1064,9,1,2112.7999999970198,339307.1000000015,7024,VNB,C,8
9,test,5,0.0,1-Back,1,m,Fri Oct 11 2024 13:49:43 GMT-0500 (Central Daylight Time),343336.0,022_y_f_d_a.png,O,m,843,10,1,1913.0,341423.0,7024,VNB,C,9
10,test,5,0.0,1-Back,1,m,Fri Oct 11 2024 13:49:43 GMT-0500 (Central Daylight Time),345568.6000000015,014_m_m_n_a.png,O,m,1160,11,1,2229.10000000149,343339.5,7024,VNB,C,10
11,test,5,1.0,1-Back,1,z,Fri Oct 11 2024 13:49:43 GMT-0500 (Central Daylight Time),347268.19999999553,019_m_f_n_a.png,O,z,631,12,1,1695.3999999985099,345572.799999997,7024,VNB,C,11
12,test,5,0.0,1-Back,1,m,Fri Oct 11 2024 13:49:43 GMT-0500 (Central Daylight Time),349264.0,015_o_m_h_a.png,O,m,929,13,1,1992.0,347272.0,7024,VNB,C,12
13,test,5,0.0,1-Back,1,z,Fri Oct 11 2024 13:49:43 GMT-0500 (Central Daylight Time),351050.5,014_m_m_h_a.png,O,z,700,14,1,1783.1000000014901,349267.3999999985,7024,VNB,C,13
14,test,5,1.0,1-Back,1,m,Fri Oct 11 2024 13:49:43 GMT-0500 (Central Daylight Time),352966.3999999985,012_o_f_d_a.png,O,m,845,15,1,1912.1000000014901,351054.299999997,7024,VNB,C,14
15,test,5,0.0,1-Back,1,m,Fri Oct 11 2024 13:49:43 GMT-0500 (Central Daylight Time),354849.1000000015,025_y_m_n_a.png,O,m,802,16,1,1879.0,352970.1000000015,7024,VNB,C,15
16,test,5,0.0,1-Back,1,m,Fri Oct 11 2024 13:49:43 GMT-0500 (Central Daylight Time),356965.1000000015,022_y_f_h_a.png,O,m,1039,17,1,2112.10000000149,354853.0,7024,VNB,C,16
17,test,5,0.0,1-Back,1,m,Fri Oct 11 2024 13:49:43 GMT-0500 (Central Daylight Time),358848.0,014_m_m_d_a.png,O,m,802,18,1,1878.8000000044703,356969.19999999553,7024,VNB,C,17
0,prac,1,0.0,2-Back,,,Fri Oct 11 2024 13:49:43 GMT-0500 (Central Daylight Time),358848.0,019_m_f_n_a.png,O,space,15009,1,1,1878.8000000044703,356969.19999999553,7024,VNB,C,0
0,prac,1,0.0,2-Back,,,Fri Oct 11 2024 13:49:43 GMT-0500 (Central Daylight Time),358848.0,012_o_f_h_a.png,O,space,15009,2,1,1878.8000000044703,356969.19999999553,7024,VNB,C,0
0,prac,1,0.0,2-Back,0,m,Fri Oct 11 2024 13:49:43 GMT-0500 (Central Daylight Time),470046.299999997,015_o_m_d_a.png,O,None,2005,3,1,2900.0,467146.299999997,7024,VNB,C,1
1,prac,1,1.0,2-Back,1,z,Fri Oct 11 2024 13:49:43 GMT-0500 (Central Daylight Time),471945.69999999553,014_m_m_h_a.png,O,z,1024,4,1,1893.2999999970198,470052.3999999985,7024,VNB,C,2
1,prac,1,0.0,2-Back,0,m,Fri Oct 11 2024 13:49:43 GMT-0500 (Central Daylight Time),473995.0,022_y_f_n_a.png,O,z,1105,5,1,1994.8000000044703,472000.19999999553,7024,VNB,C,3
1,prac,1,1.0,2-Back,0,z,Fri Oct 11 2024 13:49:43 GMT-0500 (Central Daylight Time),475927.69999999553,015_o_m_h_a.png,O,m,1027,6,1,1927.8999999985099,473999.799999997,7024,VNB,C,4
1,prac,1,1.0,2-Back,0,z,Fri Oct 11 2024 13:49:43 GMT-0500 (Central Daylight Time),477960.5,025_y_m_n_a.png,O,m,1146,7,1,2026.5,475934.0,7024,VNB,C,5
2,prac,1,0.0,2-Back,1,m,Fri Oct 11 2024 13:49:43 GMT-0500 (Central Daylight Time),480676.6000000015,019_m_f_d_a.png,O,m,1814,8,1,2710.8000000044703,477965.799999997,7024,VNB,C,6
3,prac,1,0.0,2-Back,1,m,Fri Oct 11 2024 13:49:43 GMT-0500 (Central Daylight Time),483143.3999999985,012_o_f_d_a.png,O,m,1574,9,1,2461.39999999851,480682.0,7024,VNB,C,7
4,prac,1,0.0,2-Back,1,m,Fri Oct 11 2024 13:49:43 GMT-0500 (Central Daylight Time),485542.69999999553,014_m_m_h_a.png,O,m,1622,10,1,2394.0999999940395,483148.6000000015,7024,VNB,C,8
5,prac,1,1.0,2-Back,1,z,Fri Oct 11 2024 13:49:43 GMT-0500 (Central Daylight Time),487157.799999997,022_y_f_d_a.png,O,z,722,11,1,1609.8999999985099,485547.8999999985,7024,VNB,C,9
6,prac,1,0.0,2-Back,1,m,Fri Oct 11 2024 13:49:43 GMT-0500 (Central Daylight Time),489273.6000000015,015_o_m_n_a.png,O,m,1225,12,1,2110.5,487163.1000000015,7024,VNB,C,10
0,prac,2,0.0,2-Back,,,Fri Oct 11 2024 13:49:43 GMT-0500 (Central Daylight Time),489273.6000000015,019_m_f_n_a.png,O,a,13078,1,1,2110.5,487163.1000000015,7024,VNB,C,0
0,prac,2,0.0,2-Back,,,Fri Oct 11 2024 13:49:43 GMT-0500 (Central Daylight Time),489273.6000000015,012_o_f_h_a.png,O,a,13078,2,1,2110.5,487163.1000000015,7024,VNB,C,0
1,prac,2,0.0,2-Back,1,m,Fri Oct 11 2024 13:49:43 GMT-0500 (Central Daylight Time),509700.6000000015,015_o_m_d_a.png,O,m,1164,3,1,2060.5,507640.1000000015,7024,VNB,C,1
2,prac,2,1.0,2-Back,1,z,Fri Oct 11 2024 13:49:43 GMT-0500 (Central Daylight Time),511266.69999999553,014_m_m_h_a.png,O,z,792,4,1,1560.3999999985099,509706.299999997,7024,VNB,C,2
2,prac,2,0.0,2-Back,0,m,Fri Oct 11 2024 13:49:43 GMT-0500 (Central Daylight Time),513316.1000000015,022_y_f_n_a.png,O,z,1149,5,1,2043.8000000044703,511272.299999997,7024,VNB,C,3
2,prac,2,1.0,2-Back,0,z,Fri Oct 11 2024 13:49:43 GMT-0500 (Central Daylight Time),515282.1000000015,015_o_m_h_a.png,O,m,1073,6,1,1960.7000000029802,513321.3999999985,7024,VNB,C,4
2,prac,2,1.0,2-Back,0,z,Fri Oct 11 2024 13:49:43 GMT-0500 (Central Daylight Time),517399.3999999985,025_y_m_n_a.png,O,m,1247,7,1,2112.10000000149,515287.299999997,7024,VNB,C,5
2,prac,2,0.0,2-Back,0,m,Fri Oct 11 2024 13:49:43 GMT-0500 (Central Daylight Time),519464.1000000015,019_m_f_d_a.png,O,z,1159,8,1,2059.4000000059605,517404.69999999553,7024,VNB,C,6
2,prac,2,0.0,2-Back,0,m,Fri Oct 11 2024 13:49:43 GMT-0500 (Central Daylight Time),521463.6000000015,012_o_f_d_a.png,O,z,1104,9,1,1994.0,519469.6000000015,7024,VNB,C,7
3,prac,2,0.0,2-Back,1,m,Fri Oct 11 2024 13:49:43 GMT-0500 (Central Daylight Time),523813.0,014_m_m_h_a.png,O,m,1574,10,1,2344.10000000149,521468.8999999985,7024,VNB,C,8
4,prac,2,1.0,2-Back,1,z,Fri Oct 11 2024 13:49:43 GMT-0500 (Central Daylight Time),526495.3999999985,022_y_f_d_a.png,O,z,1767,11,1,2676.60000000149,523818.799999997,7024,VNB,C,9
5,prac,2,0.0,2-Back,1,m,Fri Oct 11 2024 13:49:43 GMT-0500 (Central Daylight Time),528594.6000000015,015_o_m_n_a.png,O,m,1200,12,1,2093.60000000149,526501.0,7024,VNB,C,10
0,test,1,0.0,2-Back,,,Fri Oct 11 2024 13:49:43 GMT-0500 (Central Daylight Time),528594.6000000015,025_y_m_h_a.png,O,space,16952,1,1,2093.60000000149,526501.0,7024,VNB,C,0
0,test,1,0.0,2-Back,,,Fri Oct 11 2024 13:49:43 GMT-0500 (Central Daylight Time),528594.6000000015,012_o_f_n_a.png,O,space,16952,2,1,2093.60000000149,526501.0,7024,VNB,C,0
0,test,1,0.0,2-Back,0,z,Fri Oct 11 2024 13:49:43 GMT-0500 (Central Daylight Time),565549.6000000015,015_o_m_h_a.png,O,m,1062,3,1,2078.8000000044703,563470.799999997,7024,VNB,C,1
1,test,1,0.0,2-Back,1,m,Fri Oct 11 2024 13:49:43 GMT-0500 (Central Daylight Time),567549.1000000015,019_m_f_d_a.png,O,m,979,4,1,1995.8000000044703,565553.299999997,7024,VNB,C,2
2,test,1,1.0,2-Back,1,m,Fri Oct 11 2024 13:49:43 GMT-0500 (Central Daylight Time),569548.299999997,025_y_m_n_a.png,O,m,973,5,1,1995.5,567552.799999997,7024,VNB,C,3
3,test,1,0.0,2-Back,1,z,Fri Oct 11 2024 13:49:43 GMT-0500 (Central Daylight Time),571365.799999997,022_y_f_d_a.png,O,z,789,6,1,1813.5,569552.299999997,7024,VNB,C,4
4,test,1,0.0,2-Back,1,m,Fri Oct 11 2024 13:49:43 GMT-0500 (Central Daylight Time),573180.799999997,014_m_m_h_a.png,O,m,790,7,1,1811.1999999955297,571369.6000000015,7024,VNB,C,5
5,test,1,1.0,2-Back,1,m,Fri Oct 11 2024 13:49:43 GMT-0500 (Central Daylight Time),575513.1999999955,022_y_f_n_a.png,O,m,1301,8,1,2328.7999999970198,573184.3999999985,7024,VNB,C,6
6,test,1,0.0,2-Back,1,z,Fri Oct 11 2024 13:49:43 GMT-0500 (Central Daylight Time),577412.6000000015,012_o_f_h_a.png,O,z,873,9,1,1896.1000000014901,575516.5,7024,VNB,C,7
7,test,1,0.0,2-Back,1,m,Fri Oct 11 2024 13:49:43 GMT-0500 (Central Daylight Time),579228.6999999955,015_o_m_d_a.png,O,m,789,10,1,1812.6999999955297,577416.0,7024,VNB,C,8
8,test,1,1.0,2-Back,1,m,Fri Oct 11 2024 13:49:43 GMT-0500 (Central Daylight Time),580995.0,014_m_m_d_a.png,O,m,734,11,1,1762.8999999985099,579232.1000000015,7024,VNB,C,9
9,test,1,0.0,2-Back,1,m,Fri Oct 11 2024 13:49:43 GMT-0500 (Central Daylight Time),583127.299999997,019_m_f_n_a.png,O,m,1102,12,1,2128.6999999955297,580998.6000000015,7024,VNB,C,10
10,test,1,0.0,2-Back,1,m,Fri Oct 11 2024 13:49:43 GMT-0500 (Central Daylight Time),584893.5,022_y_f_h_a.png,O,m,746,13,1,1762.6000000014901,583130.8999999985,7024,VNB,C,11
11,test,1,0.0,2-Back,1,z,Fri Oct 11 2024 13:49:43 GMT-0500 (Central Daylight Time),586476.5,014_m_m_n_a.png,O,z,557,14,1,1580.0,584896.5,7024,VNB,C,12
12,test,1,0.0,2-Back,1,m,Fri Oct 11 2024 13:49:43 GMT-0500 (Central Daylight Time),588393.6000000015,025_y_m_d_a.png,O,m,886,15,1,1913.3000000044703,586480.299999997,7024,VNB,C,13
13,test,1,1.0,2-Back,1,m,Fri Oct 11 2024 13:49:43 GMT-0500 (Central Daylight Time),590591.8999999985,019_m_f_h_a.png,O,m,1178,16,1,2194.89999999851,588397.0,7024,VNB,C,14
14,test,1,0.0,2-Back,1,z,Fri Oct 11 2024 13:49:43 GMT-0500 (Central Daylight Time),592707.6999999955,012_o_f_d_a.png,O,z,1090,17,1,2112.0,590595.6999999955,7024,VNB,C,15
15,test,1,0.0,2-Back,1,m,Fri Oct 11 2024 13:49:43 GMT-0500 (Central Daylight Time),594824.8999999985,015_o_m_n_a.png,O,m,1042,18,1,2113.5,592711.3999999985,7024,VNB,C,16
0,test,2,0.0,2-Back,,,Fri Oct 11 2024 13:49:43 GMT-0500 (Central Daylight Time),594824.8999999985,014_m_m_h_a.png,O,space,3418,1,1,2113.5,592711.3999999985,7024,VNB,C,0
0,test,2,0.0,2-Back,,,Fri Oct 11 2024 13:49:43 GMT-0500 (Central Daylight Time),594824.8999999985,022_y_f_n_a.png,O,space,3418,2,1,2113.5,592711.3999999985,7024,VNB,C,0
1,test,2,1.0,2-Back,1,z,Fri Oct 11 2024 13:49:43 GMT-0500 (Central Daylight Time),605453.799999997,012_o_f_h_a.png,O,z,930,3,1,1944.7999999970198,603509.0,7024,VNB,C,1
2,test,2,0.0,2-Back,1,m,Fri Oct 11 2024 13:49:43 GMT-0500 (Central Daylight Time),607403.1000000015,015_o_m_d_a.png,O,m,933,4,1,1945.9000000059605,605457.1999999955,7024,VNB,C,2
3,test,2,0.0,2-Back,1,m,Fri Oct 11 2024 13:49:43 GMT-0500 (Central Daylight Time),609702.5,019_m_f_d_a.png,O,m,1279,5,1,2296.10000000149,607406.3999999985,7024,VNB,C,3
4,test,2,0.0,2-Back,1,m,Fri Oct 11 2024 13:49:43 GMT-0500 (Central Daylight Time),611718.6000000015,025_y_m_h_a.png,O,m,988,6,1,2013.0,609705.6000000015,7024,VNB,C,4
5,test,2,0.0,2-Back,1,m,Fri Oct 11 2024 13:49:43 GMT-0500 (Central Daylight Time),614234.5,012_o_f_n_a.png,O,m,1482,7,1,2512.8000000044703,611721.6999999955,7024,VNB,C,5
5,test,2,1.0,2-Back,0,z,Fri Oct 11 2024 13:49:43 GMT-0500 (Central Daylight Time),617266.8999999985,015_o_m_h_a.png,O,None,2016,8,1,3028.7999999970198,614238.1000000015,7024,VNB,C,6
5,test,2,0.0,2-Back,0,m,Fri Oct 11 2024 13:49:43 GMT-0500 (Central Daylight Time),619349.3999999985,022_y_f_d_a.png,O,z,1063,9,1,2078.7000000029802,617270.6999999955,7024,VNB,C,7
6,test,2,0.0,2-Back,1,m,Fri Oct 11 2024 13:49:43 GMT-0500 (Central Daylight Time),621582.299999997,025_y_m_d_a.png,O,m,1205,10,1,2229.1999999955297,619353.1000000015,7024,VNB,C,8
7,test,2,0.0,2-Back,1,m,Fri Oct 11 2024 13:49:43 GMT-0500 (Central Daylight Time),624065.8999999985,014_m_m_n_a.png,O,m,1460,11,1,2479.89999999851,621586.0,7024,VNB,C,9
8,test,2,0.0,2-Back,1,m,Fri Oct 11 2024 13:49:43 GMT-0500 (Central Daylight Time),626547.299999997,019_m_f_h_a.png,O,m,1457,12,1,2478.0,624069.299999997,7024,VNB,C,10
8,test,2,1.0,2-Back,0,z,Fri Oct 11 2024 13:49:43 GMT-0500 (Central Daylight Time),629579.6999999955,015_o_m_n_a.png,O,None,2016,13,1,3028.7999999970198,626550.8999999985,7024,VNB,C,11
9,test,2,0.0,2-Back,1,m,Fri Oct 11 2024 13:49:43 GMT-0500 (Central Daylight Time),632178.6999999955,012_o_f_d_a.png,O,m,1567,14,1,2595.2999999970198,629583.3999999985,7024,VNB,C,12
9,test,2,0.0,2-Back,0,m,Fri Oct 11 2024 13:49:43 GMT-0500 (Central Daylight Time),634478.1000000015,022_y_f_h_a.png,O,z,1271,15,1,2294.8000000044703,632183.299999997,7024,VNB,C,13
9,test,2,0.0,2-Back,0,z,Fri Oct 11 2024 13:49:43 GMT-0500 (Central Daylight Time),636811.799999997,014_m_m_d_a.png,O,m,1308,16,1,2330.60000000149,634481.1999999955,7024,VNB,C,14
10,test,2,0.0,2-Back,1,m,Fri Oct 11 2024 13:49:43 GMT-0500 (Central Daylight Time),638760.0,025_y_m_n_a.png,O,m,928,17,1,1944.8000000044703,636815.1999999955,7024,VNB,C,15
11,test,2,1.0,2-Back,1,m,Fri Oct 11 2024 13:49:43 GMT-0500 (Central Daylight Time),640976.1000000015,019_m_f_n_a.png,O,m,1194,18,1,2212.2000000029802,638763.8999999985,7024,VNB,C,16
0,test,3,1.0,2-Back,,,Fri Oct 11 2024 13:49:43 GMT-0500 (Central Daylight Time),640976.1000000015,015_o_m_n_a.png,O,space,14465,1,1,2212.2000000029802,638763.8999999985,7024,VNB,C,0
0,test,3,1.0,2-Back,,,Fri Oct 11 2024 13:49:43 GMT-0500 (Central Daylight Time),640976.1000000015,012_o_f_d_a.png,O,space,14465,2,1,2212.2000000029802,638763.8999999985,7024,VNB,C,0
1,test,3,0.0,2-Back,1,m,Fri Oct 11 2024 13:49:43 GMT-0500 (Central Daylight Time),662785.8999999985,022_y_f_h_a.png,O,m,1034,3,1,2061.7999999970198,660724.1000000015,7024,VNB,C,1
2,test,3,0.0,2-Back,1,z,Fri Oct 11 2024 13:49:43 GMT-0500 (Central Daylight Time),664935.1999999955,019_m_f_d_a.png,O,z,1128,4,1,2145.5999999940395,662789.6000000015,7024,VNB,C,2
3,test,3,1.0,2-Back,1,m,Fri Oct 11 2024 13:49:43 GMT-0500 (Central Daylight Time),667135.6000000015,025_y_m_n_a.png,O,m,1179,5,1,2196.4000000059605,664939.1999999955,7024,VNB,C,3
3,test,3,0.0,2-Back,0,m,Fri Oct 11 2024 13:49:43 GMT-0500 (Central Daylight Time),669150.6000000015,015_o_m_h_a.png,O,z,996,6,1,2011.1000000014901,667139.5,7024,VNB,C,4
4,test,3,0.0,2-Back,1,z,Fri Oct 11 2024 13:49:43 GMT-0500 (Central Daylight Time),671083.3999999985,022_y_f_n_a.png,O,z,907,7,1,1929.2000000029802,669154.1999999955,7024,VNB,C,5
4,test,3,1.0,2-Back,0,m,Fri Oct 11 2024 13:49:43 GMT-0500 (Central Daylight Time),673499.3999999985,014_m_m_d_a.png,O,z,1383,8,1,2412.2999999970198,671087.1000000015,7024,VNB,C,6
5,test,3,0.0,2-Back,1,m,Fri Oct 11 2024 13:49:43 GMT-0500 (Central Daylight Time),676048.3999999985,025_y_m_d_a.png,O,m,1527,9,1,2545.2999999970198,673503.1000000015,7024,VNB,C,7
6,test,3,0.0,2-Back,1,m,Fri Oct 11 2024 13:49:43 GMT-0500 (Central Daylight Time),678181.1999999955,012_o_f_h_a.png,O,m,1114,10,1,2129.0999999940395,676052.1000000015,7024,VNB,C,8
6,test,3,1.0,2-Back,0,m,Fri Oct 11 2024 13:49:43 GMT-0500 (Central Daylight Time),680430.3999999985,019_m_f_n_a.png,O,z,1229,11,1,2245.60000000149,678184.799999997,7024,VNB,C,9
7,test,3,1.0,2-Back,1,z,Fri Oct 11 2024 13:49:43 GMT-0500 (Central Daylight Time),682496.3999999985,014_m_m_h_a.png,O,z,1044,12,1,2062.2000000029802,680434.1999999955,7024,VNB,C,10
8,test,3,0.0,2-Back,1,m,Fri Oct 11 2024 13:49:43 GMT-0500 (Central Daylight Time),684745.6999999955,022_y_f_d_a.png,O,m,1226,13,1,2245.39999999851,682500.299999997,7024,VNB,C,11
9,test,3,0.0,2-Back,1,m,Fri Oct 11 2024 13:49:43 GMT-0500 (Central Daylight Time),687261.6000000015,012_o_f_n_a.png,O,m,1497,14,1,2512.8000000044703,684748.799999997,7024,VNB,C,12
9,test,3,0.0,2-Back,0,z,Fri Oct 11 2024 13:49:43 GMT-0500 (Central Daylight Time),689727.5,015_o_m_d_a.png,O,m,1445,15,1,2462.2000000029802,687265.299999997,7024,VNB,C,13
9,test,3,1.0,2-Back,0,m,Fri Oct 11 2024 13:49:43 GMT-0500 (Central Daylight Time),692759.8999999985,019_m_f_h_a.png,O,None,2016,16,1,3028.5,689731.3999999985,7024,VNB,C,14
10,test,3,0.0,2-Back,1,m,Fri Oct 11 2024 13:49:43 GMT-0500 (Central Daylight Time),695325.6999999955,014_m_m_n_a.png,O,m,1538,17,1,2562.2999999970198,692763.3999999985,7024,VNB,C,15
11,test,3,0.0,2-Back,1,z,Fri Oct 11 2024 13:49:43 GMT-0500 (Central Daylight Time),697558.299999997,025_y_m_h_a.png,O,z,1205,18,1,2228.89999999851,695329.3999999985,7024,VNB,C,16
0,test,4,0.0,2-Back,,,Fri Oct 11 2024 13:49:43 GMT-0500 (Central Daylight Time),697558.299999997,019_m_f_n_a.png,O,space,3996,1,1,2228.89999999851,695329.3999999985,7024,VNB,C,0
0,test,4,0.0,2-Back,,,Fri Oct 11 2024 13:49:43 GMT-0500 (Central Daylight Time),697558.299999997,015_o_m_n_a.png,O,space,3996,2,1,2228.89999999851,695329.3999999985,7024,VNB,C,0
1,test,4,1.0,2-Back,1,m,Fri Oct 11 2024 13:49:43 GMT-0500 (Central Daylight Time),708738.1999999955,025_y_m_h_a.png,O,m,876,3,1,1895.1999999955297,706843.0,7024,VNB,C,1
2,test,4,1.0,2-Back,1,m,Fri Oct 11 2024 13:49:43 GMT-0500 (Central Daylight Time),710987.6000000015,012_o_f_d_a.png,O,m,1224,4,1,2245.9000000059605,708741.6999999955,7024,VNB,C,2
3,test,4,0.0,2-Back,1,z,Fri Oct 11 2024 13:49:43 GMT-0500 (Central Daylight Time),712753.6000000015,015_o_m_h_a.png,O,z,685,5,1,1762.6000000014901,710991.0,7024,VNB,C,3
4,test,4,0.0,2-Back,1,m,Fri Oct 11 2024 13:49:43 GMT-0500 (Central Daylight Time),714619.6999999955,014_m_m_n_a.png,O,m,791,6,1,1862.0,712757.6999999955,7024,VNB,C,4
4,test,4,0.0,2-Back,0,m,Fri Oct 11 2024 13:49:43 GMT-0500 (Central Daylight Time),716886.799999997,019_m_f_d_a.png,O,z,1189,7,1,2263.2999999970198,714623.5,7024,VNB,C,5
5,test,4,0.0,2-Back,1,z,Fri Oct 11 2024 13:49:43 GMT-0500 (Central Daylight Time),718718.299999997,022_y_f_n_a.png,O,z,763,8,1,1827.6000000014901,716890.6999999955,7024,VNB,C,6
6,test,4,1.0,2-Back,1,m,Fri Oct 11 2024 13:49:43 GMT-0500 (Central Daylight Time),721034.1000000015,012_o_f_h_a.png,O,m,1234,9,1,2312.10000000149,718722.0,7024,VNB,C,7
7,test,4,0.0,2-Back,1,m,Fri Oct 11 2024 13:49:43 GMT-0500 (Central Daylight Time),723250.1999999955,014_m_m_h_a.png,O,m,1183,10,1,2213.0,721037.1999999955,7024,VNB,C,8
8,test,4,0.0,2-Back,1,m,Fri Oct 11 2024 13:49:43 GMT-0500 (Central Daylight Time),724983.0,022_y_f_d_a.png,O,m,662,11,1,1729.1000000014901,723253.8999999985,7024,VNB,C,9
9,test,4,0.0,2-Back,1,m,Fri Oct 11 2024 13:49:43 GMT-0500 (Central Daylight Time),727182.3999999985,025_y_m_n_a.png,O,m,1168,12,1,2196.0,724986.3999999985,7024,VNB,C,10
10,test,4,0.0,2-Back,1,z,Fri Oct 11 2024 13:49:43 GMT-0500 (Central Daylight Time),728998.5,015_o_m_d_a.png,O,z,738,13,1,1812.6000000014901,727185.8999999985,7024,VNB,C,11
11,test,4,1.0,2-Back,1,m,Fri Oct 11 2024 13:49:43 GMT-0500 (Central Daylight Time),731131.1000000015,019_m_f_h_a.png,O,m,1100,14,1,2128.8000000044703,729002.299999997,7024,VNB,C,12
12,test,4,1.0,2-Back,1,m,Fri Oct 11 2024 13:49:43 GMT-0500 (Central Daylight Time),733413.6999999955,022_y_f_h_a.png,O,m,1255,15,1,2279.0,731134.6999999955,7024,VNB,C,13
13,test,4,0.0,2-Back,1,m,Fri Oct 11 2024 13:49:43 GMT-0500 (Central Daylight Time),735263.0,012_o_f_n_a.png,O,m,828,16,1,1845.3000000044703,733417.6999999955,7024,VNB,C,14
13,test,4,0.0,2-Back,0,m,Fri Oct 11 2024 13:49:43 GMT-0500 (Central Daylight Time),738295.6000000015,025_y_m_d_a.png,O,None,2016,17,1,3029.4000000059605,735266.1999999955,7024,VNB,C,15
13,test,4,1.0,2-Back,0,m,Fri Oct 11 2024 13:49:43 GMT-0500 (Central Daylight Time),740178.299999997,014_m_m_d_a.png,O,z,850,18,1,1878.8999999985099,738299.3999999985,7024,VNB,C,16
0,test,5,1.0,2-Back,,,Fri Oct 11 2024 13:49:43 GMT-0500 (Central Daylight Time),740178.299999997,022_y_f_d_a.png,O,space,1512,1,1,1878.8999999985099,738299.3999999985,7024,VNB,C,0
0,test,5,1.0,2-Back,,,Fri Oct 11 2024 13:49:43 GMT-0500 (Central Daylight Time),740178.299999997,012_o_f_h_a.png,O,space,1512,2,1,1878.8999999985099,738299.3999999985,7024,VNB,C,0
1,test,5,1.0,2-Back,1,z,Fri Oct 11 2024 13:49:43 GMT-0500 (Central Daylight Time),748709.0,015_o_m_d_a.png,O,z,723,3,1,1745.8000000044703,746963.1999999955,7024,VNB,C,1
2,test,5,1.0,2-Back,1,m,Fri Oct 11 2024 13:49:43 GMT-0500 (Central Daylight Time),750691.5,019_m_f_n_a.png,O,m,965,4,1,1979.0,748712.5,7024,VNB,C,2
3,test,5,0.0,2-Back,1,m,Fri Oct 11 2024 13:49:43 GMT-0500 (Central Daylight Time),753074.1999999955,014_m_m_h_a.png,O,m,1359,5,1,2379.1999999955297,750695.0,7024,VNB,C,3
4,test,5,0.0,2-Back,1,z,Fri Oct 11 2024 13:49:43 GMT-0500 (Central Daylight Time),754957.0,022_y_f_n_a.png,O,z,856,6,1,1879.2000000029802,753077.799999997,7024,VNB,C,4
4,test,5,0.0,2-Back,0,m,Fri Oct 11 2024 13:49:43 GMT-0500 (Central Daylight Time),757406.1999999955,012_o_f_d_a.png,O,z,1429,7,1,2445.2999999970198,754960.8999999985,7024,VNB,C,5
5,test,5,0.0,2-Back,1,m,Fri Oct 11 2024 13:49:43 GMT-0500 (Central Daylight Time),759472.1999999955,015_o_m_h_a.png,O,m,1036,8,1,2062.5999999940395,757409.6000000015,7024,VNB,C,6
5,test,5,1.0,2-Back,0,z,Fri Oct 11 2024 13:49:43 GMT-0500 (Central Daylight Time),762171.1999999955,019_m_f_d_a.png,O,m,1682,9,1,2695.0,759476.1999999955,7024,VNB,C,7
6,test,5,0.0,2-Back,1,m,Fri Oct 11 2024 13:49:43 GMT-0500 (Central Daylight Time),764304.1000000015,025_y_m_n_a.png,O,m,1076,10,1,2129.4000000059605,762174.6999999955,7024,VNB,C,8
7,test,5,0.0,2-Back,1,m,Fri Oct 11 2024 13:49:43 GMT-0500 (Central Daylight Time),766453.5,014_m_m_n_a.png,O,m,1130,11,1,2145.8000000044703,764307.6999999955,7024,VNB,C,9
7,test,5,0.0,2-Back,0,m,Fri Oct 11 2024 13:49:43 GMT-0500 (Central Daylight Time),768952.6000000015,022_y_f_h_a.png,O,z,1469,12,1,2496.0,766456.6000000015,7024,VNB,C,10
8,test,5,0.0,2-Back,1,m,Fri Oct 11 2024 13:49:43 GMT-0500 (Central Daylight Time),770818.6000000015,025_y_m_d_a.png,O,m,834,13,1,1862.3000000044703,768956.299999997,7024,VNB,C,11
9,test,5,1.0,2-Back,1,z,Fri Oct 11 2024 13:49:43 GMT-0500 (Central Daylight Time),772518.1000000015,019_m_f_h_a.png,O,z,672,14,1,1695.2000000029802,770822.8999999985,7024,VNB,C,12
10,test,5,0.0,2-Back,1,m,Fri Oct 11 2024 13:49:43 GMT-0500 (Central Daylight Time),774567.5,015_o_m_n_a.png,O,m,1028,15,1,2045.3999999985099,772522.1000000015,7024,VNB,C,13
11,test,5,0.0,2-Back,1,m,Fri Oct 11 2024 13:49:43 GMT-0500 (Central Daylight Time),777067.8999999985,014_m_m_d_a.png,O,m,1475,16,1,2496.60000000149,774571.299999997,7024,VNB,C,14
12,test,5,0.0,2-Back,1,z,Fri Oct 11 2024 13:49:43 GMT-0500 (Central Daylight Time),779066.0,012_o_f_n_a.png,O,z,966,17,1,1994.2000000029802,777071.799999997,7024,VNB,C,15
13,test,5,1.0,2-Back,1,m,Fri Oct 11 2024 13:49:43 GMT-0500 (Central Daylight Time),781165.5,025_y_m_h_a.png,O,m,1080,18,1,2096.2000000029802,779069.299999997,7024,VNB,C,16
