block_c,block_dur,condition,countdown,datetime,endtime,list,multichar_response,project,response,response_time,session_number,start_end,starttime,subject_id,task,task_vers,trial
,,,,Tue Jan 14 2025 15:12:22 GMT-0600 (Central Standard Time),,,,I,space,383,1,,,8014,WL,A,
prac,,0,,Tue Jan 14 2025 15:12:22 GMT-0600 (Central Standard Time),,NA,b,I,b,32728,1,,,8014,WL,A,1.0
prac,,0,,Tue Jan 14 2025 15:12:22 GMT-0600 (Central Standard Time),,NA,bo,I,o,360,1,,,8014,WL,A,1.0
prac,,0,,Tue Jan 14 2025 15:12:22 GMT-0600 (Central Standard Time),,NA,boo,I,o,153,1,,,8014,WL,A,1.0
prac,,0,,Tue Jan 14 2025 15:12:22 GMT-0600 (Central Standard Time),,NA,boos,I,s,202,1,,,8014,WL,A,1.0
prac,,0,,Tue Jan 14 2025 15:12:22 GMT-0600 (Central Standard Time),,NA,boost,I,t,370,1,,,8014,WL,A,1.0
prac,,0,,Tue Jan 14 2025 15:12:22 GMT-0600 (Central Standard Time),,NA,boostenter,I,enter,1306,1,,,8014,WL,A,1.0
1,1.7669999599456787,learn,58233.00004005432,Tue Jan 14 2025 15:12:22 GMT-0600 (Central Standard Time),153283.30000001192,A,b,I,b,1751,1,1765.9000000357628,151517.39999997616,8014,WL,A,1.0
1,1.9830000400543213,learn,58016.99995994568,Tue Jan 14 2025 15:12:22 GMT-0600 (Central Standard Time),153499.80000001192,A,bo,I,o,195,1,1982.4000000357628,151517.39999997616,8014,WL,A,1.0
1,2.133000135421753,learn,57866.99986457825,Tue Jan 14 2025 15:12:22 GMT-0600 (Central Standard Time),153649.89999997616,A,boo,I,o,130,1,2132.5,151517.39999997616,8014,WL,A,1.0
1,2.683000087738037,learn,57316.99991226196,Tue Jan 14 2025 15:12:22 GMT-0600 (Central Standard Time),154199.30000001192,A,book,I,k,533,1,2681.900000035763,151517.39999997616,8014,WL,A,1.0
1,3.2180001735687256,learn,56781.999826431274,Tue Jan 14 2025 15:12:22 GMT-0600 (Central Standard Time),154734.69999998808,A,bookenter,I,enter,510,1,3217.300000011921,151517.39999997616,8014,WL,A,1.0
1,3.633000135421753,learn,56366.99986457825,Tue Jan 14 2025 15:12:22 GMT-0600 (Central Standard Time),155149.19999998808,A,t,I,t,391,1,414.0999999642372,154735.10000002384,8014,WL,A,2.0
1,3.866000175476074,learn,56133.999824523926,Tue Jan 14 2025 15:12:22 GMT-0600 (Central Standard Time),155382.39999997616,A,tr,I,r,217,1,647.2999999523163,154735.10000002384,8014,WL,A,2.0
1,4.432000160217285,learn,55567.999839782715,Tue Jan 14 2025 15:12:22 GMT-0600 (Central Standard Time),155949.0,A,tra,I,a,552,1,1213.8999999761581,154735.10000002384,8014,WL,A,2.0
1,4.598999977111816,learn,55401.00002288818,Tue Jan 14 2025 15:12:22 GMT-0600 (Central Standard Time),156115.30000001192,A,trai,I,i,146,1,1380.199999988079,154735.10000002384,8014,WL,A,2.0
1,4.999000072479248,learn,55000.99992752075,Tue Jan 14 2025 15:12:22 GMT-0600 (Central Standard Time),156515.30000001192,A,train,I,n,379,1,1780.199999988079,154735.10000002384,8014,WL,A,2.0
1,5.765000104904175,learn,54234.999895095825,Tue Jan 14 2025 15:12:22 GMT-0600 (Central Standard Time),157281.80000001192,A,trainenter,I,enter,754,1,2546.699999988079,154735.10000002384,8014,WL,A,2.0
1,7.13100004196167,learn,52868.99995803833,Tue Jan 14 2025 15:12:22 GMT-0600 (Central Standard Time),158648.10000002384,A,m,I,m,1356,1,1365.7000000476837,157282.39999997616,8014,WL,A,3.0
1,7.3480000495910645,learn,52651.999950408936,Tue Jan 14 2025 15:12:22 GMT-0600 (Central Standard Time),158864.60000002384,A,me,I,e,198,1,1582.2000000476837,157282.39999997616,8014,WL,A,3.0
1,7.698000192642212,learn,52301.99980735779,Tue Jan 14 2025 15:12:22 GMT-0600 (Central Standard Time),159214.69999998808,A,mea,I,a,327,1,1932.300000011921,157282.39999997616,8014,WL,A,3.0
1,8.015000104904175,learn,51984.999895095825,Tue Jan 14 2025 15:12:22 GMT-0600 (Central Standard Time),159531.19999998808,A,mead,I,d,296,1,2248.800000011921,157282.39999997616,8014,WL,A,3.0
1,8.348000049591064,learn,51651.999950408936,Tue Jan 14 2025 15:12:22 GMT-0600 (Central Standard Time),159864.60000002384,A,meado,I,o,315,1,2582.2000000476837,157282.39999997616,8014,WL,A,3.0
1,9.830000162124634,learn,50169.999837875366,Tue Jan 14 2025 15:12:22 GMT-0600 (Central Standard Time),161347.19999998808,A,meadow,I,w,1462,1,4064.800000011921,157282.39999997616,8014,WL,A,3.0
1,10.980000019073486,learn,49019.999980926514,Tue Jan 14 2025 15:12:22 GMT-0600 (Central Standard Time),162496.80000001192,A,meadowenter,I,enter,1131,1,5214.400000035763,157282.39999997616,8014,WL,A,3.0
1,15.795000076293945,learn,44204.999923706055,Tue Jan 14 2025 15:12:22 GMT-0600 (Central Standard Time),167312.0,A,y,I,y,4806,1,4814.800000011921,162497.19999998808,8014,WL,A,4.0
1,16.41200017929077,learn,43587.99982070923,Tue Jan 14 2025 15:12:22 GMT-0600 (Central Standard Time),167928.30000001192,A,ye,I,e,607,1,5431.100000023842,162497.19999998808,8014,WL,A,4.0
1,16.644999980926514,learn,43355.000019073486,Tue Jan 14 2025 15:12:22 GMT-0600 (Central Standard Time),168161.69999998808,A,yel,I,l,213,1,5664.5,162497.19999998808,8014,WL,A,4.0
1,16.812000036239624,learn,43187.999963760376,Tue Jan 14 2025 15:12:22 GMT-0600 (Central Standard Time),168328.30000001192,A,yell,I,l,149,1,5831.100000023842,162497.19999998808,8014,WL,A,4.0
1,16.978000164031982,learn,43021.99983596802,Tue Jan 14 2025 15:12:22 GMT-0600 (Central Standard Time),168494.89999997616,A,yello,I,o,150,1,5997.699999988079,162497.19999998808,8014,WL,A,4.0
1,17.17799997329712,learn,42822.00002670288,Tue Jan 14 2025 15:12:22 GMT-0600 (Central Standard Time),168694.80000001192,A,yellow,I,w,184,1,6197.600000023842,162497.19999998808,8014,WL,A,4.0
1,17.99399995803833,learn,42006.00004196167,Tue Jan 14 2025 15:12:22 GMT-0600 (Central Standard Time),169511.0,A,yellowenter,I,enter,800,1,7013.800000011921,162497.19999998808,8014,WL,A,4.0
1,20.710000038146973,learn,39289.99996185303,Tue Jan 14 2025 15:12:22 GMT-0600 (Central Standard Time),172227.30000001192,A,g,I,g,2695,1,2715.900000035763,169511.39999997616,8014,WL,A,5.0
1,20.877000093460083,learn,39122.99990653992,Tue Jan 14 2025 15:12:22 GMT-0600 (Central Standard Time),172393.69999998808,A,go,I,o,147,1,2882.300000011921,169511.39999997616,8014,WL,A,5.0
1,21.0770001411438,learn,38922.9998588562,Tue Jan 14 2025 15:12:22 GMT-0600 (Central Standard Time),172593.60000002384,A,gol,I,l,181,1,3082.2000000476837,169511.39999997616,8014,WL,A,5.0
1,21.31000018119812,learn,38689.99981880188,Tue Jan 14 2025 15:12:22 GMT-0600 (Central Standard Time),172826.89999997616,A,gold,I,d,221,1,3315.5,169511.39999997616,8014,WL,A,5.0
1,21.89300012588501,learn,38106.99987411499,Tue Jan 14 2025 15:12:22 GMT-0600 (Central Standard Time),173409.89999997616,A,goldenter,I,enter,572,1,3898.5,169511.39999997616,8014,WL,A,5.0
1,23.4760000705719,learn,36523.9999294281,Tue Jan 14 2025 15:12:22 GMT-0600 (Central Standard Time),174993.0,A,r,I,r,1573,1,1582.699999988079,173410.30000001192,8014,WL,A,6.0
1,23.693000078201294,learn,36306.999921798706,Tue Jan 14 2025 15:12:22 GMT-0600 (Central Standard Time),175209.5,A,ru,I,u,204,1,1799.199999988079,173410.30000001192,8014,WL,A,6.0
1,24.176000118255615,learn,35823.999881744385,Tue Jan 14 2025 15:12:22 GMT-0600 (Central Standard Time),175692.69999998808,A,rug,I,g,461,1,2282.399999976158,173410.30000001192,8014,WL,A,6.0
1,24.676000118255615,learn,35323.999881744385,Tue Jan 14 2025 15:12:22 GMT-0600 (Central Standard Time),176192.39999997616,A,rugenter,I,enter,482,1,2782.099999964237,173410.30000001192,8014,WL,A,6.0
1,27.94099998474121,learn,32059.00001525879,Tue Jan 14 2025 15:12:22 GMT-0600 (Central Standard Time),179458.19999998808,A,f,I,f,3245,1,3265.399999976158,176192.80000001192,8014,WL,A,7.0
1,28.225000143051147,learn,31774.999856948853,Tue Jan 14 2025 15:12:22 GMT-0600 (Central Standard Time),179741.39999997616,A,fl,I,l,260,1,3548.599999964237,176192.80000001192,8014,WL,A,7.0
1,28.374000072479248,learn,31625.999927520752,Tue Jan 14 2025 15:12:22 GMT-0600 (Central Standard Time),179891.19999998808,A,flo,I,o,138,1,3698.399999976158,176192.80000001192,8014,WL,A,7.0
1,28.674000024795532,learn,31325.999975204468,Tue Jan 14 2025 15:12:22 GMT-0600 (Central Standard Time),180191.19999998808,A,flow,I,w,285,1,3998.399999976158,176192.80000001192,8014,WL,A,7.0
1,28.907999992370605,learn,31092.000007629395,Tue Jan 14 2025 15:12:22 GMT-0600 (Central Standard Time),180424.60000002384,A,flowe,I,e,224,1,4231.800000011921,176192.80000001192,8014,WL,A,7.0
1,29.141000032424927,learn,30858.999967575073,Tue Jan 14 2025 15:12:22 GMT-0600 (Central Standard Time),180657.80000001192,A,flower,I,r,222,1,4465.0,176192.80000001192,8014,WL,A,7.0
1,29.692000150680542,learn,30307.999849319458,Tue Jan 14 2025 15:12:22 GMT-0600 (Central Standard Time),181208.69999998808,A,flowerenter,I,enter,540,1,5015.899999976158,176192.80000001192,8014,WL,A,7.0
1,41.78700017929077,learn,18212.99982070923,Tue Jan 14 2025 15:12:22 GMT-0600 (Central Standard Time),193303.80000001192,A,c,I,c,12086,1,12094.699999988079,181209.10000002384,8014,WL,A,8.0
1,42.004000186920166,learn,17995.999813079834,Tue Jan 14 2025 15:12:22 GMT-0600 (Central Standard Time),193520.39999997616,A,ch,I,h,199,1,12311.299999952316,181209.10000002384,8014,WL,A,8.0
1,42.420000076293945,learn,17579.999923706055,Tue Jan 14 2025 15:12:22 GMT-0600 (Central Standard Time),193937.0,A,chi,I,i,406,1,12727.899999976158,181209.10000002384,8014,WL,A,8.0
1,42.72000002861023,learn,17279.99997138977,Tue Jan 14 2025 15:12:22 GMT-0600 (Central Standard Time),194236.89999997616,A,chim,I,m,286,1,13027.799999952316,181209.10000002384,8014,WL,A,8.0
1,43.003000020980835,learn,16996.999979019165,Tue Jan 14 2025 15:12:22 GMT-0600 (Central Standard Time),194520.10000002384,A,chimn,I,n,274,1,13311.0,181209.10000002384,8014,WL,A,8.0
1,43.15300011634827,learn,16846.999883651733,Tue Jan 14 2025 15:12:22 GMT-0600 (Central Standard Time),194670.10000002384,A,chimne,I,e,127,1,13461.0,181209.10000002384,8014,WL,A,8.0
1,43.519999980926514,learn,16480.000019073486,Tue Jan 14 2025 15:12:22 GMT-0600 (Central Standard Time),195036.69999998808,A,chimney,I,y,345,1,13827.599999964237,181209.10000002384,8014,WL,A,8.0
1,44.12000012397766,learn,15879.999876022339,Tue Jan 14 2025 15:12:22 GMT-0600 (Central Standard Time),195636.39999997616,A,chimneyenter,I,enter,586,1,14427.299999952316,181209.10000002384,8014,WL,A,8.0
1,60.015000104904175,learn,-15.000104904174805,Tue Jan 14 2025 15:12:22 GMT-0600 (Central Standard Time),211531.5,A,None,I,None,15888,1,15894.800000011921,195636.69999998808,8014,WL,A,9.0
2,1.3990001678466797,learn,58600.99983215332,Tue Jan 14 2025 15:12:22 GMT-0600 (Central Standard Time),292123.10000002384,A,b,I,b,1387,1,1398.5,290724.60000002384,8014,WL,A,1.0
2,1.6319999694824219,learn,58368.00003051758,Tue Jan 14 2025 15:12:22 GMT-0600 (Central Standard Time),292356.0,A,bo,I,o,211,1,1631.3999999761581,290724.60000002384,8014,WL,A,1.0
2,1.7990000247955322,learn,58200.99997520447,Tue Jan 14 2025 15:12:22 GMT-0600 (Central Standard Time),292522.89999997616,A,boo,I,o,147,1,1798.2999999523163,290724.60000002384,8014,WL,A,1.0
2,2.0480000972747803,learn,57951.99990272522,Tue Jan 14 2025 15:12:22 GMT-0600 (Central Standard Time),292772.6999999881,A,book,I,k,228,1,2048.099999964237,290724.60000002384,8014,WL,A,1.0
2,2.7309999465942383,learn,57269.00005340576,Tue Jan 14 2025 15:12:22 GMT-0600 (Central Standard Time),293455.8000000119,A,bookenter,I,enter,674,1,2731.199999988079,290724.60000002384,8014,WL,A,1.0
2,3.38100004196167,learn,56618.99995803833,Tue Jan 14 2025 15:12:22 GMT-0600 (Central Standard Time),294105.5,A,f,I,f,640,1,649.3000000119209,293456.1999999881,8014,WL,A,2.0
2,3.5810000896453857,learn,56418.999910354614,Tue Jan 14 2025 15:12:22 GMT-0600 (Central Standard Time),294305.60000002384,A,fl,I,l,190,1,849.4000000357628,293456.1999999881,8014,WL,A,2.0
2,3.764000177383423,learn,56235.99982261658,Tue Jan 14 2025 15:12:22 GMT-0600 (Central Standard Time),294488.8000000119,A,flo,I,o,166,1,1032.6000000238419,293456.1999999881,8014,WL,A,2.0
2,4.164000034332275,learn,55835.999965667725,Tue Jan 14 2025 15:12:22 GMT-0600 (Central Standard Time),294888.60000002384,A,flow,I,w,381,1,1432.4000000357628,293456.1999999881,8014,WL,A,2.0
2,4.398000001907349,learn,55601.99999809265,Tue Jan 14 2025 15:12:22 GMT-0600 (Central Standard Time),295121.89999997616,A,flowe,I,e,222,1,1665.699999988079,293456.1999999881,8014,WL,A,2.0
2,4.614000082015991,learn,55385.99991798401,Tue Jan 14 2025 15:12:22 GMT-0600 (Central Standard Time),295338.39999997616,A,flower,I,r,205,1,1882.199999988079,293456.1999999881,8014,WL,A,2.0
2,4.96399998664856,learn,55036.00001335144,Tue Jan 14 2025 15:12:22 GMT-0600 (Central Standard Time),295688.5,A,flowerenter,I,enter,332,1,2232.300000011921,293456.1999999881,8014,WL,A,2.0
2,5.63100004196167,learn,54368.99995803833,Tue Jan 14 2025 15:12:22 GMT-0600 (Central Standard Time),296354.8000000119,A,c,I,c,654,1,665.9000000357628,295688.89999997616,8014,WL,A,3.0
2,5.897000074386597,learn,54102.9999256134,Tue Jan 14 2025 15:12:22 GMT-0600 (Central Standard Time),296621.39999997616,A,ch,I,h,252,1,932.5,295688.89999997616,8014,WL,A,3.0
2,6.514000177383423,learn,53485.99982261658,Tue Jan 14 2025 15:12:22 GMT-0600 (Central Standard Time),297237.89999997616,A,chi,I,i,594,1,1549.0,295688.89999997616,8014,WL,A,3.0
2,6.746999979019165,learn,53253.000020980835,Tue Jan 14 2025 15:12:22 GMT-0600 (Central Standard Time),297470.89999997616,A,chim,I,m,224,1,1782.0,295688.89999997616,8014,WL,A,3.0
2,7.363000154495239,learn,52636.99984550476,Tue Jan 14 2025 15:12:22 GMT-0600 (Central Standard Time),298087.60000002384,A,chimn,I,n,600,1,2398.7000000476837,295688.89999997616,8014,WL,A,3.0
2,7.5299999713897705,learn,52470.00002861023,Tue Jan 14 2025 15:12:22 GMT-0600 (Central Standard Time),298254.39999997616,A,chimne,I,e,160,1,2565.5,295688.89999997616,8014,WL,A,3.0
2,7.863000154495239,learn,52136.99984550476,Tue Jan 14 2025 15:12:22 GMT-0600 (Central Standard Time),298587.39999997616,A,chimney,I,y,320,1,2898.5,295688.89999997616,8014,WL,A,3.0
2,8.130000114440918,learn,51869.99988555908,Tue Jan 14 2025 15:12:22 GMT-0600 (Central Standard Time),298854.10000002384,A,chimneyenter,I,enter,251,1,3165.2000000476837,295688.89999997616,8014,WL,A,3.0
2,8.597000122070312,learn,51402.99987792969,Tue Jan 14 2025 15:12:22 GMT-0600 (Central Standard Time),299320.8000000119,A,g,I,g,449,1,466.30000001192093,298854.5,8014,WL,A,4.0
2,8.796000003814697,learn,51203.9999961853,Tue Jan 14 2025 15:12:22 GMT-0600 (Central Standard Time),299520.3000000119,A,go,I,o,190,1,665.8000000119209,298854.5,8014,WL,A,4.0
2,9.130000114440918,learn,50869.99988555908,Tue Jan 14 2025 15:12:22 GMT-0600 (Central Standard Time),299853.8000000119,A,gol,I,l,319,1,999.3000000119209,298854.5,8014,WL,A,4.0
2,9.479000091552734,learn,50520.999908447266,Tue Jan 14 2025 15:12:22 GMT-0600 (Central Standard Time),300203.6999999881,A,gold,I,d,329,1,1349.199999988079,298854.5,8014,WL,A,4.0
2,9.763000011444092,learn,50236.99998855591,Tue Jan 14 2025 15:12:22 GMT-0600 (Central Standard Time),300487.0,A,goldenter,I,enter,268,1,1632.5,298854.5,8014,WL,A,4.0
2,10.229000091552734,learn,49770.999908447266,Tue Jan 14 2025 15:12:22 GMT-0600 (Central Standard Time),300953.39999997616,A,r,I,r,449,1,466.0999999642372,300487.3000000119,8014,WL,A,5.0
2,10.695000171661377,learn,49304.99982833862,Tue Jan 14 2025 15:12:22 GMT-0600 (Central Standard Time),301419.6999999881,A,ra,I,a,454,1,932.3999999761581,300487.3000000119,8014,WL,A,5.0
2,11.09500002861023,learn,48904.99997138977,Tue Jan 14 2025 15:12:22 GMT-0600 (Central Standard Time),301819.6999999881,A,rat,I,t,380,1,1332.3999999761581,300487.3000000119,8014,WL,A,5.0
2,11.245000123977661,learn,48754.99987602234,Tue Jan 14 2025 15:12:22 GMT-0600 (Central Standard Time),301969.3000000119,A,ratt,I,t,139,1,1482.0,300487.3000000119,8014,WL,A,5.0
2,11.42900013923645,learn,48570.99986076355,Tue Jan 14 2025 15:12:22 GMT-0600 (Central Standard Time),302153.0,A,rattl,I,l,165,1,1665.699999988079,300487.3000000119,8014,WL,A,5.0
2,11.729000091552734,learn,48270.999908447266,Tue Jan 14 2025 15:12:22 GMT-0600 (Central Standard Time),302452.89999997616,A,rattle,I,e,286,1,1965.5999999642372,300487.3000000119,8014,WL,A,5.0
2,12.062000036239624,learn,47937.999963760376,Tue Jan 14 2025 15:12:22 GMT-0600 (Central Standard Time),302786.1999999881,A,rattleenter,I,enter,314,1,2298.899999976158,300487.3000000119,8014,WL,A,5.0
2,12.51200008392334,learn,47487.99991607666,Tue Jan 14 2025 15:12:22 GMT-0600 (Central Standard Time),303236.10000002384,A,f,I,f,437,1,449.5,302786.60000002384,8014,WL,A,6.0
2,12.745000123977661,learn,47254.99987602234,Tue Jan 14 2025 15:12:22 GMT-0600 (Central Standard Time),303469.10000002384,A,fi,I,i,219,1,682.5,302786.60000002384,8014,WL,A,6.0
2,12.978000164031982,learn,47021.99983596802,Tue Jan 14 2025 15:12:22 GMT-0600 (Central Standard Time),303702.5,A,fin,I,n,218,1,915.8999999761581,302786.60000002384,8014,WL,A,6.0
2,13.34500002861023,learn,46654.99997138977,Tue Jan 14 2025 15:12:22 GMT-0600 (Central Standard Time),304069.39999997616,A,fing,I,g,352,1,1282.7999999523163,302786.60000002384,8014,WL,A,6.0
2,13.745000123977661,learn,46254.99987602234,Tue Jan 14 2025 15:12:22 GMT-0600 (Central Standard Time),304469.10000002384,A,finge,I,e,386,1,1682.5,302786.60000002384,8014,WL,A,6.0
2,13.92799997329712,learn,46072.00002670288,Tue Jan 14 2025 15:12:22 GMT-0600 (Central Standard Time),304652.3000000119,A,finger,I,r,170,1,1865.699999988079,302786.60000002384,8014,WL,A,6.0
2,14.49399995803833,learn,45506.00004196167,Tue Jan 14 2025 15:12:22 GMT-0600 (Central Standard Time),305218.8000000119,A,fingerenter,I,enter,547,1,2432.199999988079,302786.60000002384,8014,WL,A,6.0
2,14.91100001335144,learn,45088.99998664856,Tue Jan 14 2025 15:12:22 GMT-0600 (Central Standard Time),305635.39999997616,A,t,I,t,404,1,416.19999998807907,305219.1999999881,8014,WL,A,7.0
2,15.111000061035156,learn,44888.999938964844,Tue Jan 14 2025 15:12:22 GMT-0600 (Central Standard Time),305835.3000000119,A,tr,I,r,188,1,616.1000000238419,305219.1999999881,8014,WL,A,7.0
2,16.009999990463257,learn,43990.00000953674,Tue Jan 14 2025 15:12:22 GMT-0600 (Central Standard Time),306734.8000000119,A,tra,I,a,893,1,1515.6000000238419,305219.1999999881,8014,WL,A,7.0
2,16.14400005340576,learn,43855.99994659424,Tue Jan 14 2025 15:12:22 GMT-0600 (Central Standard Time),306868.3000000119,A,trai,I,i,112,1,1649.1000000238419,305219.1999999881,8014,WL,A,7.0
2,16.377000093460083,learn,43622.99990653992,Tue Jan 14 2025 15:12:22 GMT-0600 (Central Standard Time),307101.5,A,train,I,n,211,1,1882.300000011921,305219.1999999881,8014,WL,A,7.0
2,17.14400005340576,learn,42855.99994659424,Tue Jan 14 2025 15:12:22 GMT-0600 (Central Standard Time),307867.89999997616,A,trainenter,I,enter,754,1,2648.699999988079,305219.1999999881,8014,WL,A,7.0
2,17.8270001411438,learn,42172.9998588562,Tue Jan 14 2025 15:12:22 GMT-0600 (Central Standard Time),308550.89999997616,A,f,I,f,676,1,682.5999999642372,307868.3000000119,8014,WL,A,8.0
2,18.14300012588501,learn,41856.99987411499,Tue Jan 14 2025 15:12:22 GMT-0600 (Central Standard Time),308867.6999999881,A,fl,I,l,297,1,999.3999999761581,307868.3000000119,8014,WL,A,8.0
2,18.30999994277954,learn,41690.00005722046,Tue Jan 14 2025 15:12:22 GMT-0600 (Central Standard Time),309034.3000000119,A,flo,I,o,154,1,1166.0,307868.3000000119,8014,WL,A,8.0
2,18.66000008583069,learn,41339.99991416931,Tue Jan 14 2025 15:12:22 GMT-0600 (Central Standard Time),309384.1999999881,A,flow,I,w,333,1,1515.8999999761581,307868.3000000119,8014,WL,A,8.0
2,18.87600016593933,learn,41123.99983406067,Tue Jan 14 2025 15:12:22 GMT-0600 (Central Standard Time),309600.6999999881,A,flowe,I,e,207,1,1732.3999999761581,307868.3000000119,8014,WL,A,8.0
2,19.14300012588501,learn,40856.99987411499,Tue Jan 14 2025 15:12:22 GMT-0600 (Central Standard Time),309867.3000000119,A,flower,I,r,255,1,1999.0,307868.3000000119,8014,WL,A,8.0
2,19.80900001525879,learn,40190.99998474121,Tue Jan 14 2025 15:12:22 GMT-0600 (Central Standard Time),310533.6999999881,A,flowerenter,I,enter,644,1,2665.399999976158,307868.3000000119,8014,WL,A,8.0
2,23.04200005531311,learn,36957.99994468689,Tue Jan 14 2025 15:12:22 GMT-0600 (Central Standard Time),313766.39999997616,A,r,I,r,3217,1,3232.399999976158,310534.0,8014,WL,A,9.0
2,23.27500009536743,learn,36724.99990463257,Tue Jan 14 2025 15:12:22 GMT-0600 (Central Standard Time),313999.3000000119,A,ru,I,u,216,1,3465.300000011921,310534.0,8014,WL,A,9.0
2,24.008000135421753,learn,35991.99986457825,Tue Jan 14 2025 15:12:22 GMT-0600 (Central Standard Time),314732.39999997616,A,rug,I,g,712,1,4198.399999976158,310534.0,8014,WL,A,9.0
2,24.258000135421753,learn,35741.99986457825,Tue Jan 14 2025 15:12:22 GMT-0600 (Central Standard Time),314982.5,A,rugenter,I,enter,243,1,4448.5,310534.0,8014,WL,A,9.0
2,24.70799994468689,learn,35292.00005531311,Tue Jan 14 2025 15:12:22 GMT-0600 (Central Standard Time),315432.10000002384,A,l,I,l,432,1,449.30000001192093,314982.8000000119,8014,WL,A,10.0
2,24.875,learn,35125.0,Tue Jan 14 2025 15:12:22 GMT-0600 (Central Standard Time),315598.89999997616,A,lo,I,o,151,1,616.0999999642372,314982.8000000119,8014,WL,A,10.0
2,25.074000120162964,learn,34925.999879837036,Tue Jan 14 2025 15:12:22 GMT-0600 (Central Standard Time),315798.8000000119,A,log,I,g,185,1,816.0,314982.8000000119,8014,WL,A,10.0
2,25.70799994468689,learn,34292.00005531311,Tue Jan 14 2025 15:12:22 GMT-0600 (Central Standard Time),316432.0,A,logenter,I,enter,617,1,1449.199999988079,314982.8000000119,8014,WL,A,10.0
2,32.92200016975403,learn,27077.99983024597,Tue Jan 14 2025 15:12:22 GMT-0600 (Central Standard Time),323646.39999997616,A,enter,I,enter,7191,1,7214.0,316432.39999997616,8014,WL,A,11.0
2,33.40499997138977,learn,26595.00002861023,Tue Jan 14 2025 15:12:22 GMT-0600 (Central Standard Time),324129.60000002384,A,enter,I,enter,474,1,482.80000001192093,323646.8000000119,8014,WL,A,12.0
2,34.187999963760376,learn,25812.000036239624,Tue Jan 14 2025 15:12:22 GMT-0600 (Central Standard Time),324912.5,A,enter,I,enter,766,1,782.5,324130.0,8014,WL,A,13.0
2,34.83800005912781,learn,25161.999940872192,Tue Jan 14 2025 15:12:22 GMT-0600 (Central Standard Time),325562.60000002384,A,enter,I,enter,631,1,649.6000000238419,324913.0,8014,WL,A,14.0
2,35.40400004386902,learn,24595.99995613098,Tue Jan 14 2025 15:12:22 GMT-0600 (Central Standard Time),326128.6999999881,A,enter,I,enter,556,1,565.8000000119209,325562.89999997616,8014,WL,A,15.0
3,1.1659998893737793,learn,58834.00011062622,Tue Jan 14 2025 15:12:22 GMT-0600 (Central Standard Time),397589.8000000119,A,h,I,h,1144,1,1166.300000011921,396423.5,8014,WL,A,1.0
3,1.3659999370574951,learn,58634.000062942505,Tue Jan 14 2025 15:12:22 GMT-0600 (Central Standard Time),397789.5,A,ha,I,a,177,1,1366.0,396423.5,8014,WL,A,1.0
3,1.815999984741211,learn,58184.00001525879,Tue Jan 14 2025 15:12:22 GMT-0600 (Central Standard Time),398239.60000002384,A,har,I,r,433,1,1816.1000000238419,396423.5,8014,WL,A,1.0
3,2.5160000324249268,learn,57483.99996757507,Tue Jan 14 2025 15:12:22 GMT-0600 (Central Standard Time),398939.60000002384,A,harp,I,p,679,1,2516.100000023842,396423.5,8014,WL,A,1.0
3,2.931999921798706,learn,57068.000078201294,Tue Jan 14 2025 15:12:22 GMT-0600 (Central Standard Time),399355.8000000119,A,harpenter,I,enter,403,1,2932.300000011921,396423.5,8014,WL,A,1.0
3,3.681999921798706,learn,56318.000078201294,Tue Jan 14 2025 15:12:22 GMT-0600 (Central Standard Time),400105.60000002384,A,b,I,b,732,1,749.5,399356.10000002384,8014,WL,A,2.0
3,3.9489998817443848,learn,56051.000118255615,Tue Jan 14 2025 15:12:22 GMT-0600 (Central Standard Time),400372.5,A,bu,I,u,246,1,1016.3999999761581,399356.10000002384,8014,WL,A,2.0
3,4.131999969482422,learn,55868.00003051758,Tue Jan 14 2025 15:12:22 GMT-0600 (Central Standard Time),400555.5,A,but,I,t,163,1,1199.3999999761581,399356.10000002384,8014,WL,A,2.0
3,4.299000024795532,learn,55700.99997520447,Tue Jan 14 2025 15:12:22 GMT-0600 (Central Standard Time),400722.1999999881,A,butt,I,t,156,1,1366.0999999642372,399356.10000002384,8014,WL,A,2.0
3,4.4649999141693115,learn,55535.00008583069,Tue Jan 14 2025 15:12:22 GMT-0600 (Central Standard Time),400888.60000002384,A,butto,I,o,149,1,1532.5,399356.10000002384,8014,WL,A,2.0
3,4.764999866485596,learn,55235.000133514404,Tue Jan 14 2025 15:12:22 GMT-0600 (Central Standard Time),401188.60000002384,A,button,I,n,278,1,1832.5,399356.10000002384,8014,WL,A,2.0
3,5.082000017166138,learn,54917.99998283386,Tue Jan 14 2025 15:12:22 GMT-0600 (Central Standard Time),401505.3000000119,A,buttonenter,I,enter,307,1,2149.199999988079,399356.10000002384,8014,WL,A,2.0
3,5.497999906539917,learn,54502.00009346008,Tue Jan 14 2025 15:12:22 GMT-0600 (Central Standard Time),401921.8000000119,A,s,I,s,406,1,416.19999998807907,401505.60000002384,8014,WL,A,3.0
3,5.73199987411499,learn,54268.00012588501,Tue Jan 14 2025 15:12:22 GMT-0600 (Central Standard Time),402155.3000000119,A,sa,I,a,222,1,649.6999999880791,401505.60000002384,8014,WL,A,3.0
3,5.947999954223633,learn,54052.00004577637,Tue Jan 14 2025 15:12:22 GMT-0600 (Central Standard Time),402371.60000002384,A,sal,I,l,204,1,866.0,401505.60000002384,8014,WL,A,3.0
3,6.297999858856201,learn,53702.0001411438,Tue Jan 14 2025 15:12:22 GMT-0600 (Central Standard Time),402721.60000002384,A,salt,I,t,339,1,1216.0,401505.60000002384,8014,WL,A,3.0
3,6.63100004196167,learn,53368.99995803833,Tue Jan 14 2025 15:12:22 GMT-0600 (Central Standard Time),403054.6999999881,A,saltenter,I,enter,318,1,1549.0999999642372,401505.60000002384,8014,WL,A,3.0
3,7.115000009536743,learn,52884.99999046326,Tue Jan 14 2025 15:12:22 GMT-0600 (Central Standard Time),403538.0,A,a,I,a,472,1,483.0,403055.0,8014,WL,A,4.0
3,7.430999994277954,learn,52569.000005722046,Tue Jan 14 2025 15:12:22 GMT-0600 (Central Standard Time),403854.5,A,ap,I,p,301,1,799.5,403055.0,8014,WL,A,4.0
3,7.5980000495910645,learn,52401.999950408936,Tue Jan 14 2025 15:12:22 GMT-0600 (Central Standard Time),404021.10000002384,A,app,I,p,153,1,966.1000000238419,403055.0,8014,WL,A,4.0
3,7.830999851226807,learn,52169.00014877319,Tue Jan 14 2025 15:12:22 GMT-0600 (Central Standard Time),404254.5,A,appl,I,l,212,1,1199.5,403055.0,8014,WL,A,4.0
3,8.080999851226807,learn,51919.00014877319,Tue Jan 14 2025 15:12:22 GMT-0600 (Central Standard Time),404504.1999999881,A,apple,I,e,241,1,1449.199999988079,403055.0,8014,WL,A,4.0
3,8.38100004196167,learn,51618.99995803833,Tue Jan 14 2025 15:12:22 GMT-0600 (Central Standard Time),404804.3000000119,A,appleenter,I,enter,288,1,1749.300000011921,403055.0,8014,WL,A,4.0
3,8.746999979019165,learn,51253.000020980835,Tue Jan 14 2025 15:12:22 GMT-0600 (Central Standard Time),405170.8000000119,A,c,I,c,355,1,366.10000002384186,404804.6999999881,8014,WL,A,5.0
3,9.04699993133545,learn,50953.00006866455,Tue Jan 14 2025 15:12:22 GMT-0600 (Central Standard Time),405470.6999999881,A,ch,I,h,284,1,666.0,404804.6999999881,8014,WL,A,5.0
3,9.596999883651733,learn,50403.00011634827,Tue Jan 14 2025 15:12:22 GMT-0600 (Central Standard Time),406020.5,A,chi,I,i,528,1,1215.800000011921,404804.6999999881,8014,WL,A,5.0
3,9.846999883651733,learn,50153.00011634827,Tue Jan 14 2025 15:12:22 GMT-0600 (Central Standard Time),406270.3000000119,A,chim,I,m,234,1,1465.6000000238419,404804.6999999881,8014,WL,A,5.0
3,10.02999997138977,learn,49970.00002861023,Tue Jan 14 2025 15:12:22 GMT-0600 (Central Standard Time),406453.60000002384,A,chimn,I,n,162,1,1648.9000000357628,404804.6999999881,8014,WL,A,5.0
3,10.230000019073486,learn,49769.999980926514,Tue Jan 14 2025 15:12:22 GMT-0600 (Central Standard Time),406653.60000002384,A,chimne,I,e,178,1,1848.9000000357628,404804.6999999881,8014,WL,A,5.0
3,10.646999835968018,learn,49353.00016403198,Tue Jan 14 2025 15:12:22 GMT-0600 (Central Standard Time),407070.0,A,chimney,I,y,410,1,2265.300000011921,404804.6999999881,8014,WL,A,5.0
3,10.929999828338623,learn,49070.00017166138,Tue Jan 14 2025 15:12:22 GMT-0600 (Central Standard Time),407353.3000000119,A,chimneyenter,I,enter,273,1,2548.600000023842,404804.6999999881,8014,WL,A,5.0
3,11.379999876022339,learn,48620.00012397766,Tue Jan 14 2025 15:12:22 GMT-0600 (Central Standard Time),407803.10000002384,A,g,I,g,430,1,449.4000000357628,407353.6999999881,8014,WL,A,6.0
3,11.812999963760376,learn,48187.000036239624,Tue Jan 14 2025 15:12:22 GMT-0600 (Central Standard Time),408236.39999997616,A,go,I,o,412,1,882.6999999880791,407353.6999999881,8014,WL,A,6.0
3,12.296000003814697,learn,47703.9999961853,Tue Jan 14 2025 15:12:22 GMT-0600 (Central Standard Time),408719.60000002384,A,gol,I,l,475,1,1365.9000000357628,407353.6999999881,8014,WL,A,6.0
3,13.246000051498413,learn,46753.99994850159,Tue Jan 14 2025 15:12:22 GMT-0600 (Central Standard Time),409669.60000002384,A,gold,I,d,927,1,2315.900000035763,407353.6999999881,8014,WL,A,6.0
3,13.678999900817871,learn,46321.00009918213,Tue Jan 14 2025 15:12:22 GMT-0600 (Central Standard Time),410102.39999997616,A,goldenter,I,enter,411,1,2748.699999988079,407353.6999999881,8014,WL,A,6.0
3,14.26199984550476,learn,45738.00015449524,Tue Jan 14 2025 15:12:22 GMT-0600 (Central Standard Time),410685.8000000119,A,f,I,f,561,1,583.0,410102.8000000119,8014,WL,A,7.0
3,14.51199984550476,learn,45488.00015449524,Tue Jan 14 2025 15:12:22 GMT-0600 (Central Standard Time),410935.5,A,fl,I,l,233,1,832.6999999880791,410102.8000000119,8014,WL,A,7.0
3,14.678999900817871,learn,45321.00009918213,Tue Jan 14 2025 15:12:22 GMT-0600 (Central Standard Time),411102.5,A,flo,I,o,160,1,999.6999999880791,410102.8000000119,8014,WL,A,7.0
3,15.128000020980835,learn,44871.999979019165,Tue Jan 14 2025 15:12:22 GMT-0600 (Central Standard Time),411551.89999997616,A,flow,I,w,441,1,1449.0999999642372,410102.8000000119,8014,WL,A,7.0
3,15.34500002861023,learn,44654.99997138977,Tue Jan 14 2025 15:12:22 GMT-0600 (Central Standard Time),411768.6999999881,A,flowe,I,e,208,1,1665.8999999761581,410102.8000000119,8014,WL,A,7.0
3,15.577999830245972,learn,44422.00016975403,Tue Jan 14 2025 15:12:22 GMT-0600 (Central Standard Time),412002.10000002384,A,flower,I,r,223,1,1899.300000011921,410102.8000000119,8014,WL,A,7.0
3,16.110999822616577,learn,43889.00017738342,Tue Jan 14 2025 15:12:22 GMT-0600 (Central Standard Time),412535.10000002384,A,flowerenter,I,enter,517,1,2432.300000011921,410102.8000000119,8014,WL,A,7.0
3,17.960999965667725,learn,42039.000034332275,Tue Jan 14 2025 15:12:22 GMT-0600 (Central Standard Time),414384.60000002384,A,k,I,k,1833,1,1849.1000000238419,412535.5,8014,WL,A,8.0
3,18.126999855041504,learn,41873.000144958496,Tue Jan 14 2025 15:12:22 GMT-0600 (Central Standard Time),414551.3000000119,A,ke,I,e,151,1,2015.800000011921,412535.5,8014,WL,A,8.0
3,18.610999822616577,learn,41389.00017738342,Tue Jan 14 2025 15:12:22 GMT-0600 (Central Standard Time),415034.39999997616,A,key,I,y,472,1,2498.899999976158,412535.5,8014,WL,A,8.0
3,18.97699999809265,learn,41023.00000190735,Tue Jan 14 2025 15:12:22 GMT-0600 (Central Standard Time),415400.89999997616,A,keyenter,I,enter,357,1,2865.399999976158,412535.5,8014,WL,A,8.0
3,19.40999984741211,learn,40590.00015258789,Tue Jan 14 2025 15:12:22 GMT-0600 (Central Standard Time),415834.0,A,l,I,l,414,1,432.69999998807907,415401.3000000119,8014,WL,A,9.0
3,19.609999895095825,learn,40390.000104904175,Tue Jan 14 2025 15:12:22 GMT-0600 (Central Standard Time),416034.10000002384,A,lo,I,o,189,1,632.8000000119209,415401.3000000119,8014,WL,A,9.0
3,19.878000020980835,learn,40121.999979019165,Tue Jan 14 2025 15:12:22 GMT-0600 (Central Standard Time),416301.6999999881,A,log,I,g,245,1,900.3999999761581,415401.3000000119,8014,WL,A,9.0
3,20.177000045776367,learn,39822.99995422363,Tue Jan 14 2025 15:12:22 GMT-0600 (Central Standard Time),416600.39999997616,A,logenter,I,enter,281,1,1199.0999999642372,415401.3000000119,8014,WL,A,9.0
3,20.692999839782715,learn,39307.000160217285,Tue Jan 14 2025 15:12:22 GMT-0600 (Central Standard Time),417117.10000002384,A,r,I,r,503,1,516.3000000119209,416600.8000000119,8014,WL,A,10.0
3,20.859999895095825,learn,39140.000104904175,Tue Jan 14 2025 15:12:22 GMT-0600 (Central Standard Time),417283.5,A,ru,I,u,154,1,682.6999999880791,416600.8000000119,8014,WL,A,10.0
3,21.14299988746643,learn,38857.00011253357,Tue Jan 14 2025 15:12:22 GMT-0600 (Central Standard Time),417566.60000002384,A,rug,I,g,275,1,965.8000000119209,416600.8000000119,8014,WL,A,10.0
3,21.842999935150146,learn,38157.00006484985,Tue Jan 14 2025 15:12:22 GMT-0600 (Central Standard Time),418266.60000002384,A,rugenter,I,enter,688,1,1665.800000011921,416600.8000000119,8014,WL,A,10.0
3,26.075000047683716,learn,33924.999952316284,Tue Jan 14 2025 15:12:22 GMT-0600 (Central Standard Time),422498.3000000119,A,f,I,f,4212,1,4231.400000035763,418266.89999997616,8014,WL,A,11.0
3,26.20799994468689,learn,33792.00005531311,Tue Jan 14 2025 15:12:22 GMT-0600 (Central Standard Time),422631.89999997616,A,fl,I,l,124,1,4365.0,418266.89999997616,8014,WL,A,11.0
3,26.375,learn,33625.0,Tue Jan 14 2025 15:12:22 GMT-0600 (Central Standard Time),422798.60000002384,A,flo,I,o,159,1,4531.700000047684,418266.89999997616,8014,WL,A,11.0
3,26.575000047683716,learn,33424.999952316284,Tue Jan 14 2025 15:12:22 GMT-0600 (Central Standard Time),422998.6999999881,A,flow,I,w,177,1,4731.800000011921,418266.89999997616,8014,WL,A,11.0
3,26.774999856948853,learn,33225.00014305115,Tue Jan 14 2025 15:12:22 GMT-0600 (Central Standard Time),423198.3000000119,A,flowe,I,e,192,1,4931.400000035763,418266.89999997616,8014,WL,A,11.0
3,26.990999937057495,learn,33009.000062942505,Tue Jan 14 2025 15:12:22 GMT-0600 (Central Standard Time),423414.8000000119,A,flower,I,r,209,1,5147.900000035763,418266.89999997616,8014,WL,A,11.0
3,27.340999841690063,learn,32659.000158309937,Tue Jan 14 2025 15:12:22 GMT-0600 (Central Standard Time),423764.8000000119,A,flowerenter,I,enter,329,1,5497.900000035763,418266.89999997616,8014,WL,A,11.0
3,30.35699987411499,learn,29643.00012588501,Tue Jan 14 2025 15:12:22 GMT-0600 (Central Standard Time),426780.60000002384,A,b,I,b,2995,1,3015.600000023842,423765.0,8014,WL,A,12.0
3,30.60699987411499,learn,29393.00012588501,Tue Jan 14 2025 15:12:22 GMT-0600 (Central Standard Time),427030.60000002384,A,bo,I,o,226,1,3265.600000023842,423765.0,8014,WL,A,12.0
3,30.756999969482422,learn,29243.000030517578,Tue Jan 14 2025 15:12:22 GMT-0600 (Central Standard Time),427180.39999997616,A,boo,I,o,129,1,3415.399999976158,423765.0,8014,WL,A,12.0
3,31.639999866485596,learn,28360.000133514404,Tue Jan 14 2025 15:12:22 GMT-0600 (Central Standard Time),428063.5,A,book,I,k,867,1,4298.5,423765.0,8014,WL,A,12.0
3,31.94000005722046,learn,28059.99994277954,Tue Jan 14 2025 15:12:22 GMT-0600 (Central Standard Time),428363.39999997616,A,bookenter,I,enter,287,1,4598.399999976158,423765.0,8014,WL,A,12.0
3,33.00600004196167,learn,26993.99995803833,Tue Jan 14 2025 15:12:22 GMT-0600 (Central Standard Time),429429.8000000119,A,t,I,t,1052,1,1066.1000000238419,428363.6999999881,8014,WL,A,13.0
3,33.23899984359741,learn,26761.000156402588,Tue Jan 14 2025 15:12:22 GMT-0600 (Central Standard Time),429663.1999999881,A,tr,I,r,217,1,1299.5,428363.6999999881,8014,WL,A,13.0
3,33.62299990653992,learn,26377.000093460083,Tue Jan 14 2025 15:12:22 GMT-0600 (Central Standard Time),430046.39999997616,A,tra,I,a,368,1,1682.699999988079,428363.6999999881,8014,WL,A,13.0
3,33.82200002670288,learn,26177.99997329712,Tue Jan 14 2025 15:12:22 GMT-0600 (Central Standard Time),430246.1999999881,A,trai,I,i,186,1,1882.5,428363.6999999881,8014,WL,A,13.0
3,34.02199983596802,learn,25978.000164031982,Tue Jan 14 2025 15:12:22 GMT-0600 (Central Standard Time),430446.3000000119,A,train,I,n,177,1,2082.600000023842,428363.6999999881,8014,WL,A,13.0
3,34.65499997138977,learn,25345.00002861023,Tue Jan 14 2025 15:12:22 GMT-0600 (Central Standard Time),431079.1999999881,A,trainenter,I,enter,625,1,2715.5,428363.6999999881,8014,WL,A,13.0
3,38.48799991607666,learn,21512.00008392334,Tue Jan 14 2025 15:12:22 GMT-0600 (Central Standard Time),434911.39999997616,A,b,I,b,3816,1,3831.899999976158,431079.5,8014,WL,A,14.0
3,38.80399990081787,learn,21196.00009918213,Tue Jan 14 2025 15:12:22 GMT-0600 (Central Standard Time),435228.0,A,bu,I,u,296,1,4148.5,431079.5,8014,WL,A,14.0
3,39.187999963760376,learn,20812.000036239624,Tue Jan 14 2025 15:12:22 GMT-0600 (Central Standard Time),435611.3000000119,A,but,I,t,363,1,4531.800000011921,431079.5,8014,WL,A,14.0
3,39.32099986076355,learn,20679.00013923645,Tue Jan 14 2025 15:12:22 GMT-0600 (Central Standard Time),435744.5,A,butt,I,t,116,1,4665.0,431079.5,8014,WL,A,14.0
3,39.5699999332428,learn,20430.000066757202,Tue Jan 14 2025 15:12:22 GMT-0600 (Central Standard Time),435994.1999999881,A,butto,I,o,231,1,4914.699999988079,431079.5,8014,WL,A,14.0
3,39.937000036239624,learn,20062.999963760376,Tue Jan 14 2025 15:12:22 GMT-0600 (Central Standard Time),436360.89999997616,A,button,I,n,349,1,5281.399999976158,431079.5,8014,WL,A,14.0
3,40.269999980926514,learn,19730.000019073486,Tue Jan 14 2025 15:12:22 GMT-0600 (Central Standard Time),436694.10000002384,A,buttonenter,I,enter,310,1,5614.600000023842,431079.5,8014,WL,A,14.0
3,41.8529999256134,learn,18147.000074386597,Tue Jan 14 2025 15:12:22 GMT-0600 (Central Standard Time),438277.10000002384,A,enter,I,enter,1569,1,1582.7000000476837,436694.39999997616,8014,WL,A,15.0
4,0.8659999370574951,learn,59134.000062942505,Tue Jan 14 2025 15:12:22 GMT-0600 (Central Standard Time),507505.3000000119,A,m,I,m,848,1,866.1000000238419,506639.1999999881,8014,WL,A,1.0
4,1.0490000247955322,learn,58950.99997520447,Tue Jan 14 2025 15:12:22 GMT-0600 (Central Standard Time),507688.3000000119,A,me,I,e,174,1,1049.1000000238419,506639.1999999881,8014,WL,A,1.0
4,1.3999998569488525,learn,58600.00014305115,Tue Jan 14 2025 15:12:22 GMT-0600 (Central Standard Time),508038.89999997616,A,mea,I,a,340,1,1399.699999988079,506639.1999999881,8014,WL,A,1.0
4,1.6659998893737793,learn,58334.00011062622,Tue Jan 14 2025 15:12:22 GMT-0600 (Central Standard Time),508305.1999999881,A,mead,I,d,253,1,1666.0,506639.1999999881,8014,WL,A,1.0
4,2.115999937057495,learn,57884.000062942505,Tue Jan 14 2025 15:12:22 GMT-0600 (Central Standard Time),508755.10000002384,A,meado,I,o,438,1,2115.900000035763,506639.1999999881,8014,WL,A,1.0
4,2.2820000648498535,learn,57717.99993515015,Tue Jan 14 2025 15:12:22 GMT-0600 (Central Standard Time),508921.39999997616,A,meadow,I,w,148,1,2282.199999988079,506639.1999999881,8014,WL,A,1.0
4,2.882999897003174,learn,57117.000102996826,Tue Jan 14 2025 15:12:22 GMT-0600 (Central Standard Time),509521.8000000119,A,meadowenter,I,enter,581,1,2882.600000023842,506639.1999999881,8014,WL,A,1.0
4,3.5320000648498535,learn,56467.99993515015,Tue Jan 14 2025 15:12:22 GMT-0600 (Central Standard Time),510171.1999999881,A,g,I,g,630,1,649.0,509522.1999999881,8014,WL,A,2.0
4,3.7159998416900635,learn,56284.00015830994,Tue Jan 14 2025 15:12:22 GMT-0600 (Central Standard Time),510354.5,A,go,I,o,164,1,832.3000000119209,509522.1999999881,8014,WL,A,2.0
4,3.9159998893737793,learn,56084.00011062622,Tue Jan 14 2025 15:12:22 GMT-0600 (Central Standard Time),510554.60000002384,A,gol,I,l,188,1,1032.4000000357628,509522.1999999881,8014,WL,A,2.0
4,4.2159998416900635,learn,55784.00015830994,Tue Jan 14 2025 15:12:22 GMT-0600 (Central Standard Time),510854.5,A,gold,I,d,292,1,1332.300000011921,509522.1999999881,8014,WL,A,2.0
4,4.615000009536743,learn,55384.99999046326,Tue Jan 14 2025 15:12:22 GMT-0600 (Central Standard Time),511254.10000002384,A,goldenter,I,enter,377,1,1731.9000000357628,509522.1999999881,8014,WL,A,2.0
4,5.448999881744385,learn,54551.000118255615,Tue Jan 14 2025 15:12:22 GMT-0600 (Central Standard Time),512087.5,A,b,I,b,817,1,833.0,511254.5,8014,WL,A,3.0
4,5.730999946594238,learn,54269.00005340576,Tue Jan 14 2025 15:12:22 GMT-0600 (Central Standard Time),512370.39999997616,A,bu,I,u,263,1,1115.8999999761581,511254.5,8014,WL,A,3.0
4,5.914999961853027,learn,54085.00003814697,Tue Jan 14 2025 15:12:22 GMT-0600 (Central Standard Time),512553.89999997616,A,but,I,t,173,1,1299.3999999761581,511254.5,8014,WL,A,3.0
4,6.082000017166138,learn,53917.99998283386,Tue Jan 14 2025 15:12:22 GMT-0600 (Central Standard Time),512720.39999997616,A,butt,I,t,149,1,1465.8999999761581,511254.5,8014,WL,A,3.0
4,6.197999954223633,learn,53802.00004577637,Tue Jan 14 2025 15:12:22 GMT-0600 (Central Standard Time),512837.10000002384,A,butto,I,o,95,1,1582.6000000238419,511254.5,8014,WL,A,3.0
4,6.514999866485596,learn,53485.000133514404,Tue Jan 14 2025 15:12:22 GMT-0600 (Central Standard Time),513153.60000002384,A,button,I,n,298,1,1899.1000000238419,511254.5,8014,WL,A,3.0
4,7.180999994277954,learn,52819.000005722046,Tue Jan 14 2025 15:12:22 GMT-0600 (Central Standard Time),513820.0,A,buttonenter,I,enter,646,1,2565.5,511254.5,8014,WL,A,3.0
4,7.497999906539917,learn,52502.00009346008,Tue Jan 14 2025 15:12:22 GMT-0600 (Central Standard Time),514136.60000002384,A,r,I,r,299,1,316.30000001192093,513820.3000000119,8014,WL,A,4.0
4,7.914000034332275,learn,52085.999965667725,Tue Jan 14 2025 15:12:22 GMT-0600 (Central Standard Time),514553.0,A,ra,I,a,406,1,732.6999999880791,513820.3000000119,8014,WL,A,4.0
4,8.313999891281128,learn,51686.00010871887,Tue Jan 14 2025 15:12:22 GMT-0600 (Central Standard Time),514953.1999999881,A,rat,I,t,391,1,1132.8999999761581,513820.3000000119,8014,WL,A,4.0
4,8.46399998664856,learn,51536.00001335144,Tue Jan 14 2025 15:12:22 GMT-0600 (Central Standard Time),515102.6999999881,A,ratt,I,t,142,1,1282.3999999761581,513820.3000000119,8014,WL,A,4.0
4,8.63100004196167,learn,51368.99995803833,Tue Jan 14 2025 15:12:22 GMT-0600 (Central Standard Time),515269.5,A,rattl,I,l,152,1,1449.199999988079,513820.3000000119,8014,WL,A,4.0
4,8.896999835968018,learn,51103.00016403198,Tue Jan 14 2025 15:12:22 GMT-0600 (Central Standard Time),515536.1999999881,A,rattle,I,e,257,1,1715.8999999761581,513820.3000000119,8014,WL,A,4.0
4,9.313999891281128,learn,50686.00010871887,Tue Jan 14 2025 15:12:22 GMT-0600 (Central Standard Time),515952.8000000119,A,rattleenter,I,enter,399,1,2132.5,513820.3000000119,8014,WL,A,4.0
4,9.863999843597412,learn,50136.00015640259,Tue Jan 14 2025 15:12:22 GMT-0600 (Central Standard Time),516502.5,A,l,I,l,528,1,549.3999999761581,515953.10000002384,8014,WL,A,5.0
4,10.02999997138977,learn,49970.00002861023,Tue Jan 14 2025 15:12:22 GMT-0600 (Central Standard Time),516669.1999999881,A,lo,I,o,153,1,716.0999999642372,515953.10000002384,8014,WL,A,5.0
4,10.463000059127808,learn,49536.99994087219,Tue Jan 14 2025 15:12:22 GMT-0600 (Central Standard Time),517102.39999997616,A,log,I,g,426,1,1149.2999999523163,515953.10000002384,8014,WL,A,5.0
4,10.763999938964844,learn,49236.000061035156,Tue Jan 14 2025 15:12:22 GMT-0600 (Central Standard Time),517403.39999997616,A,logenter,I,enter,282,1,1450.2999999523163,515953.10000002384,8014,WL,A,5.0
4,11.213000059127808,learn,48786.99994087219,Tue Jan 14 2025 15:12:22 GMT-0600 (Central Standard Time),517852.0,A,r,I,r,428,1,448.30000001192093,517403.6999999881,8014,WL,A,6.0
4,11.414000034332275,learn,48585.999965667725,Tue Jan 14 2025 15:12:22 GMT-0600 (Central Standard Time),518053.1999999881,A,ru,I,u,179,1,649.5,517403.6999999881,8014,WL,A,6.0
4,11.662999868392944,learn,48337.000131607056,Tue Jan 14 2025 15:12:22 GMT-0600 (Central Standard Time),518302.0,A,rug,I,g,226,1,898.3000000119209,517403.6999999881,8014,WL,A,6.0
4,12.19599986076355,learn,47804.00013923645,Tue Jan 14 2025 15:12:22 GMT-0600 (Central Standard Time),518835.10000002384,A,rugenter,I,enter,521,1,1431.4000000357628,517403.6999999881,8014,WL,A,6.0
4,13.178999900817871,learn,46821.00009918213,Tue Jan 14 2025 15:12:22 GMT-0600 (Central Standard Time),519818.3000000119,A,f,I,f,965,1,982.6999999880791,518835.60000002384,8014,WL,A,7.0
4,13.328999996185303,learn,46671.0000038147,Tue Jan 14 2025 15:12:22 GMT-0600 (Central Standard Time),519968.10000002384,A,fl,I,l,141,1,1132.5,518835.60000002384,8014,WL,A,7.0
4,13.51199984550476,learn,46488.00015449524,Tue Jan 14 2025 15:12:22 GMT-0600 (Central Standard Time),520151.10000002384,A,flo,I,o,175,1,1315.5,518835.60000002384,8014,WL,A,7.0
4,13.796000003814697,learn,46203.9999961853,Tue Jan 14 2025 15:12:22 GMT-0600 (Central Standard Time),520434.60000002384,A,flow,I,w,264,1,1599.0,518835.60000002384,8014,WL,A,7.0
4,14.029000043869019,learn,45970.99995613098,Tue Jan 14 2025 15:12:22 GMT-0600 (Central Standard Time),520668.0,A,flowe,I,e,219,1,1832.3999999761581,518835.60000002384,8014,WL,A,7.0
4,14.244999885559082,learn,45755.00011444092,Tue Jan 14 2025 15:12:22 GMT-0600 (Central Standard Time),520884.39999997616,A,flower,I,r,203,1,2048.7999999523163,518835.60000002384,8014,WL,A,7.0
4,14.578999996185303,learn,45421.0000038147,Tue Jan 14 2025 15:12:22 GMT-0600 (Central Standard Time),521217.8000000119,A,flowerenter,I,enter,315,1,2382.199999988079,518835.60000002384,8014,WL,A,7.0
4,14.911999940872192,learn,45088.00005912781,Tue Jan 14 2025 15:12:22 GMT-0600 (Central Standard Time),521550.6999999881,A,c,I,c,326,1,332.5,521218.1999999881,8014,WL,A,8.0
4,15.227999925613403,learn,44772.0000743866,Tue Jan 14 2025 15:12:22 GMT-0600 (Central Standard Time),521867.39999997616,A,ch,I,h,296,1,649.1999999880791,521218.1999999881,8014,WL,A,8.0
4,15.42799997329712,learn,44572.00002670288,Tue Jan 14 2025 15:12:22 GMT-0600 (Central Standard Time),522067.39999997616,A,chi,I,i,179,1,849.1999999880791,521218.1999999881,8014,WL,A,8.0
4,15.628000020980835,learn,44371.999979019165,Tue Jan 14 2025 15:12:22 GMT-0600 (Central Standard Time),522267.3000000119,A,chin,I,n,187,1,1049.1000000238419,521218.1999999881,8014,WL,A,8.0
4,16.84500002861023,learn,43154.99997138977,Tue Jan 14 2025 15:12:22 GMT-0600 (Central Standard Time),523483.6999999881,A,chi,I,backspace,1196,1,2265.5,521218.1999999881,8014,WL,A,8.0
4,17.210999965667725,learn,42789.000034332275,Tue Jan 14 2025 15:12:22 GMT-0600 (Central Standard Time),523850.1999999881,A,chim,I,m,348,1,2632.0,521218.1999999881,8014,WL,A,8.0
4,17.82800006866455,learn,42171.99993133545,Tue Jan 14 2025 15:12:22 GMT-0600 (Central Standard Time),524466.6999999881,A,chimn,I,n,605,1,3248.5,521218.1999999881,8014,WL,A,8.0
4,17.944000005722046,learn,42055.999994277954,Tue Jan 14 2025 15:12:22 GMT-0600 (Central Standard Time),524583.3000000119,A,chimne,I,e,101,1,3365.100000023842,521218.1999999881,8014,WL,A,8.0
4,18.293999910354614,learn,41706.000089645386,Tue Jan 14 2025 15:12:22 GMT-0600 (Central Standard Time),524933.1999999881,A,chimney,I,y,327,1,3715.0,521218.1999999881,8014,WL,A,8.0
4,18.82699990272522,learn,41173.00009727478,Tue Jan 14 2025 15:12:22 GMT-0600 (Central Standard Time),525466.3000000119,A,chimneyenter,I,enter,514,1,4248.100000023842,521218.1999999881,8014,WL,A,8.0
4,21.90999984741211,learn,38090.00015258789,Tue Jan 14 2025 15:12:22 GMT-0600 (Central Standard Time),528548.8000000119,A,f,I,f,3061,1,3082.300000011921,525466.5,8014,WL,A,9.0
4,22.042999982833862,learn,37957.00001716614,Tue Jan 14 2025 15:12:22 GMT-0600 (Central Standard Time),528682.0,A,fl,I,l,122,1,3215.5,525466.5,8014,WL,A,9.0
4,22.192999839782715,learn,37807.000160217285,Tue Jan 14 2025 15:12:22 GMT-0600 (Central Standard Time),528832.1000000238,A,flo,I,o,142,1,3365.600000023842,525466.5,8014,WL,A,9.0
4,22.375999927520752,learn,37624.00007247925,Tue Jan 14 2025 15:12:22 GMT-0600 (Central Standard Time),529015.0,A,flow,I,w,175,1,3548.5,525466.5,8014,WL,A,9.0
4,22.592999935150146,learn,37407.00006484985,Tue Jan 14 2025 15:12:22 GMT-0600 (Central Standard Time),529231.8000000119,A,flowe,I,e,208,1,3765.300000011921,525466.5,8014,WL,A,9.0
4,22.80900001525879,learn,37190.99998474121,Tue Jan 14 2025 15:12:22 GMT-0600 (Central Standard Time),529448.0,A,flower,I,r,207,1,3981.5,525466.5,8014,WL,A,9.0
4,23.274999856948853,learn,36725.00014305115,Tue Jan 14 2025 15:12:22 GMT-0600 (Central Standard Time),529914.6999999881,A,flowerenter,I,enter,455,1,4448.199999988079,525466.5,8014,WL,A,9.0
4,30.721999883651733,learn,29278.000116348267,Tue Jan 14 2025 15:12:22 GMT-0600 (Central Standard Time),537362.6000000238,A,f,I,f,7430,1,7447.600000023842,529915.0,8014,WL,A,10.0
4,30.973000049591064,learn,29026.999950408936,Tue Jan 14 2025 15:12:22 GMT-0600 (Central Standard Time),537612.8999999762,A,fi,I,i,228,1,7697.899999976158,529915.0,8014,WL,A,10.0
4,31.205999851226807,learn,28794.000148773193,Tue Jan 14 2025 15:12:22 GMT-0600 (Central Standard Time),537845.8000000119,A,fin,I,n,218,1,7930.800000011921,529915.0,8014,WL,A,10.0
4,31.454999923706055,learn,28545.000076293945,Tue Jan 14 2025 15:12:22 GMT-0600 (Central Standard Time),538095.5,A,fing,I,g,241,1,8180.5,529915.0,8014,WL,A,10.0
4,32.0550000667572,learn,27944.999933242798,Tue Jan 14 2025 15:12:22 GMT-0600 (Central Standard Time),538695.5,A,finge,I,e,584,1,8780.5,529915.0,8014,WL,A,10.0
4,32.23899984359741,learn,27761.000156402588,Tue Jan 14 2025 15:12:22 GMT-0600 (Central Standard Time),538878.8999999762,A,finger,I,r,168,1,8963.899999976158,529915.0,8014,WL,A,10.0
4,32.937999963760376,learn,27062.000036239624,Tue Jan 14 2025 15:12:22 GMT-0600 (Central Standard Time),539578.6000000238,A,fingerenter,I,enter,681,1,9663.600000023842,529915.0,8014,WL,A,10.0
4,34.58800005912781,learn,25411.999940872192,Tue Jan 14 2025 15:12:22 GMT-0600 (Central Standard Time),541228.3000000119,A,h,I,h,1637,1,1649.300000011921,539579.0,8014,WL,A,11.0
4,34.9539999961853,learn,25046.000003814697,Tue Jan 14 2025 15:12:22 GMT-0600 (Central Standard Time),541594.5,A,ha,I,a,355,1,2015.5,539579.0,8014,WL,A,11.0
4,35.287999868392944,learn,24712.000131607056,Tue Jan 14 2025 15:12:22 GMT-0600 (Central Standard Time),541927.6999999881,A,har,I,r,316,1,2348.699999988079,539579.0,8014,WL,A,11.0
4,35.6710000038147,learn,24328.999996185303,Tue Jan 14 2025 15:12:22 GMT-0600 (Central Standard Time),542311.3000000119,A,harp,I,p,367,1,2732.300000011921,539579.0,8014,WL,A,11.0
4,36.15400004386902,learn,23845.99995613098,Tue Jan 14 2025 15:12:22 GMT-0600 (Central Standard Time),542794.3000000119,A,harpenter,I,enter,464,1,3215.300000011921,539579.0,8014,WL,A,11.0
4,36.50399994850159,learn,23496.000051498413,Tue Jan 14 2025 15:12:22 GMT-0600 (Central Standard Time),543144.1999999881,A,a,I,a,333,1,349.5999999642372,542794.6000000238,8014,WL,A,12.0
4,36.75399994850159,learn,23246.000051498413,Tue Jan 14 2025 15:12:22 GMT-0600 (Central Standard Time),543394.0,A,ap,I,p,231,1,599.3999999761581,542794.6000000238,8014,WL,A,12.0
4,36.90400004386902,learn,23095.99995613098,Tue Jan 14 2025 15:12:22 GMT-0600 (Central Standard Time),543544.6000000238,A,app,I,p,133,1,750.0,542794.6000000238,8014,WL,A,12.0
4,37.103999853134155,learn,22896.000146865845,Tue Jan 14 2025 15:12:22 GMT-0600 (Central Standard Time),543743.8999999762,A,appl,I,l,190,1,949.2999999523163,542794.6000000238,8014,WL,A,12.0
4,37.37100005149841,learn,22628.999948501587,Tue Jan 14 2025 15:12:22 GMT-0600 (Central Standard Time),544010.6000000238,A,apple,I,e,255,1,1216.0,542794.6000000238,8014,WL,A,12.0
4,37.80399990081787,learn,22196.00009918213,Tue Jan 14 2025 15:12:22 GMT-0600 (Central Standard Time),544443.8999999762,A,appleenter,I,enter,412,1,1649.2999999523163,542794.6000000238,8014,WL,A,12.0
4,39.70300006866455,learn,20296.99993133545,Tue Jan 14 2025 15:12:22 GMT-0600 (Central Standard Time),546343.3000000119,A,b,I,b,1883,1,1899.1000000238419,544444.1999999881,8014,WL,A,13.0
4,39.90299987792969,learn,20097.000122070312,Tue Jan 14 2025 15:12:22 GMT-0600 (Central Standard Time),546542.8999999762,A,bo,I,o,184,1,2098.699999988079,544444.1999999881,8014,WL,A,13.0
4,40.0699999332428,learn,19930.000066757202,Tue Jan 14 2025 15:12:22 GMT-0600 (Central Standard Time),546709.8000000119,A,boo,I,o,143,1,2265.600000023842,544444.1999999881,8014,WL,A,13.0
4,40.269999980926514,learn,19730.000019073486,Tue Jan 14 2025 15:12:22 GMT-0600 (Central Standard Time),546909.6000000238,A,book,I,k,185,1,2465.400000035763,544444.1999999881,8014,WL,A,13.0
4,40.918999910354614,learn,19081.000089645386,Tue Jan 14 2025 15:12:22 GMT-0600 (Central Standard Time),547559.1999999881,A,bookenter,I,enter,641,1,3115.0,544444.1999999881,8014,WL,A,13.0
4,46.33399987220764,learn,13666.000127792358,Tue Jan 14 2025 15:12:22 GMT-0600 (Central Standard Time),552974.3000000119,A,enter,I,enter,5393,1,5414.900000035763,547559.3999999762,8014,WL,A,14.0
4,46.93400001525879,learn,13065.999984741211,Tue Jan 14 2025 15:12:22 GMT-0600 (Central Standard Time),553574.1999999881,A,enter,I,enter,575,1,599.5,552974.6999999881,8014,WL,A,15.0
5,0.48400020599365234,learn,60000.0,Tue Jan 14 2025 15:12:22 GMT-0600 (Central Standard Time),622219.5,A,s,I,s,464,1,483.5,621736.0,8014,WL,A,1.0
5,0.7009999752044678,learn,60000.0,Tue Jan 14 2025 15:12:22 GMT-0600 (Central Standard Time),622436.1999999881,A,sa,I,a,195,1,700.1999999880791,621736.0,8014,WL,A,1.0
5,0.9670000076293945,learn,60000.0,Tue Jan 14 2025 15:12:22 GMT-0600 (Central Standard Time),622702.6000000238,A,sal,I,l,251,1,966.6000000238419,621736.0,8014,WL,A,1.0
5,1.2670001983642578,learn,60000.0,Tue Jan 14 2025 15:12:22 GMT-0600 (Central Standard Time),623002.1999999881,A,salt,I,t,289,1,1266.199999988079,621736.0,8014,WL,A,1.0
5,1.7340002059936523,learn,60000.0,Tue Jan 14 2025 15:12:22 GMT-0600 (Central Standard Time),623469.0,A,saltenter,I,enter,445,1,1733.0,621736.0,8014,WL,A,1.0
5,2.4670000076293945,learn,60000.0,Tue Jan 14 2025 15:12:22 GMT-0600 (Central Standard Time),624202.1000000238,A,k,I,k,721,1,732.7000000476837,623469.3999999762,8014,WL,A,2.0
5,2.7170000076293945,learn,60000.0,Tue Jan 14 2025 15:12:22 GMT-0600 (Central Standard Time),624452.1000000238,A,ke,I,e,237,1,982.7000000476837,623469.3999999762,8014,WL,A,2.0
5,3.1670000553131104,learn,60000.0,Tue Jan 14 2025 15:12:22 GMT-0600 (Central Standard Time),624901.8999999762,A,key,I,y,435,1,1432.5,623469.3999999762,8014,WL,A,2.0
5,3.633000135421753,learn,60000.0,Tue Jan 14 2025 15:12:22 GMT-0600 (Central Standard Time),625368.3999999762,A,keyenter,I,enter,449,1,1899.0,623469.3999999762,8014,WL,A,2.0
5,4.08899998664856,learn,60000.0,Tue Jan 14 2025 15:12:22 GMT-0600 (Central Standard Time),625824.0,A,r,I,r,432,1,455.19999998807907,625368.8000000119,8014,WL,A,3.0
5,4.348999977111816,learn,60000.0,Tue Jan 14 2025 15:12:22 GMT-0600 (Central Standard Time),626084.6999999881,A,ru,I,u,239,1,715.8999999761581,625368.8000000119,8014,WL,A,3.0
5,4.883000135421753,learn,60000.0,Tue Jan 14 2025 15:12:22 GMT-0600 (Central Standard Time),626618.1000000238,A,rug,I,g,522,1,1249.300000011921,625368.8000000119,8014,WL,A,3.0
5,5.166000127792358,learn,60000.0,Tue Jan 14 2025 15:12:22 GMT-0600 (Central Standard Time),626901.1999999881,A,rugenter,I,enter,261,1,1532.3999999761581,625368.8000000119,8014,WL,A,3.0
5,5.499000072479248,learn,60000.0,Tue Jan 14 2025 15:12:22 GMT-0600 (Central Standard Time),627234.3999999762,A,l,I,l,314,1,332.89999997615814,626901.5,8014,WL,A,4.0
5,5.683000087738037,learn,60000.0,Tue Jan 14 2025 15:12:22 GMT-0600 (Central Standard Time),627417.8000000119,A,lo,I,o,173,1,516.3000000119209,626901.5,8014,WL,A,4.0
5,5.882000207901001,learn,60000.0,Tue Jan 14 2025 15:12:22 GMT-0600 (Central Standard Time),627617.6999999881,A,log,I,g,190,1,716.1999999880791,626901.5,8014,WL,A,4.0
5,6.299000024795532,learn,60000.0,Tue Jan 14 2025 15:12:22 GMT-0600 (Central Standard Time),628034.3000000119,A,logenter,I,enter,398,1,1132.800000011921,626901.5,8014,WL,A,4.0
5,6.732000112533569,learn,60000.0,Tue Jan 14 2025 15:12:22 GMT-0600 (Central Standard Time),628467.3999999762,A,r,I,r,421,1,432.7999999523163,628034.6000000238,8014,WL,A,5.0
5,7.182000160217285,learn,60000.0,Tue Jan 14 2025 15:12:22 GMT-0600 (Central Standard Time),628917.3000000119,A,rs,I,s,427,1,882.6999999880791,628034.6000000238,8014,WL,A,5.0
5,8.082000017166138,learn,60000.0,Tue Jan 14 2025 15:12:22 GMT-0600 (Central Standard Time),629817.1000000238,A,r,I,backspace,882,1,1782.5,628034.6000000238,8014,WL,A,5.0
5,8.282000064849854,learn,60000.0,Tue Jan 14 2025 15:12:22 GMT-0600 (Central Standard Time),630017.0,A,ra,I,a,191,1,1982.3999999761581,628034.6000000238,8014,WL,A,5.0
5,8.665000200271606,learn,60000.0,Tue Jan 14 2025 15:12:22 GMT-0600 (Central Standard Time),630400.3000000119,A,rat,I,t,366,1,2365.699999988079,628034.6000000238,8014,WL,A,5.0
5,8.815000057220459,learn,60000.0,Tue Jan 14 2025 15:12:22 GMT-0600 (Central Standard Time),630550.1000000238,A,ratt,I,t,135,1,2515.5,628034.6000000238,8014,WL,A,5.0
5,8.998000144958496,learn,60000.0,Tue Jan 14 2025 15:12:22 GMT-0600 (Central Standard Time),630733.3999999762,A,rattl,I,l,161,1,2698.7999999523163,628034.6000000238,8014,WL,A,5.0
5,9.265000104904175,learn,60000.0,Tue Jan 14 2025 15:12:22 GMT-0600 (Central Standard Time),631000.1000000238,A,rattle,I,e,258,1,2965.5,628034.6000000238,8014,WL,A,5.0
5,9.665000200271606,learn,60000.0,Tue Jan 14 2025 15:12:22 GMT-0600 (Central Standard Time),631399.8999999762,A,rattleenter,I,enter,383,1,3365.2999999523163,628034.6000000238,8014,WL,A,5.0
5,10.081000089645386,learn,60000.0,Tue Jan 14 2025 15:12:22 GMT-0600 (Central Standard Time),631816.3999999762,A,c,I,c,400,1,416.19999998807907,631400.1999999881,8014,WL,A,6.0
5,10.29800009727478,learn,60000.0,Tue Jan 14 2025 15:12:22 GMT-0600 (Central Standard Time),632033.1000000238,A,ch,I,h,199,1,632.9000000357628,631400.1999999881,8014,WL,A,6.0
5,10.531000137329102,learn,60000.0,Tue Jan 14 2025 15:12:22 GMT-0600 (Central Standard Time),632266.1000000238,A,chi,I,i,214,1,865.9000000357628,631400.1999999881,8014,WL,A,6.0
5,10.781000137329102,learn,60000.0,Tue Jan 14 2025 15:12:22 GMT-0600 (Central Standard Time),632516.1999999881,A,chim,I,m,229,1,1116.0,631400.1999999881,8014,WL,A,6.0
5,10.96399998664856,learn,60000.0,Tue Jan 14 2025 15:12:22 GMT-0600 (Central Standard Time),632699.3000000119,A,chimn,I,n,171,1,1299.1000000238419,631400.1999999881,8014,WL,A,6.0
5,11.147000074386597,learn,60000.0,Tue Jan 14 2025 15:12:22 GMT-0600 (Central Standard Time),632882.6999999881,A,chimne,I,e,171,1,1482.5,631400.1999999881,8014,WL,A,6.0
5,11.565000057220459,learn,60000.0,Tue Jan 14 2025 15:12:22 GMT-0600 (Central Standard Time),633300.3000000119,A,chimney,I,y,397,1,1900.1000000238419,631400.1999999881,8014,WL,A,6.0
5,11.847000122070312,learn,60000.0,Tue Jan 14 2025 15:12:22 GMT-0600 (Central Standard Time),633582.3000000119,A,chimneyenter,I,enter,275,1,2182.100000023842,631400.1999999881,8014,WL,A,6.0
5,12.19700002670288,learn,60000.0,Tue Jan 14 2025 15:12:22 GMT-0600 (Central Standard Time),633932.3000000119,A,t,I,t,337,1,349.60000002384186,633582.6999999881,8014,WL,A,7.0
5,12.397000074386597,learn,60000.0,Tue Jan 14 2025 15:12:22 GMT-0600 (Central Standard Time),634132.1999999881,A,tr,I,r,178,1,549.5,633582.6999999881,8014,WL,A,7.0
5,12.71399998664856,learn,60000.0,Tue Jan 14 2025 15:12:22 GMT-0600 (Central Standard Time),634448.8999999762,A,trs,I,s,299,1,866.1999999880791,633582.6999999881,8014,WL,A,7.0
5,12.880000114440918,learn,60000.0,Tue Jan 14 2025 15:12:22 GMT-0600 (Central Standard Time),634615.3999999762,A,trsi,I,i,150,1,1032.699999988079,633582.6999999881,8014,WL,A,7.0
5,14.330000162124634,learn,60000.0,Tue Jan 14 2025 15:12:22 GMT-0600 (Central Standard Time),636065.3000000119,A,trs,I,backspace,1440,1,2482.600000023842,633582.6999999881,8014,WL,A,7.0
5,14.513000011444092,learn,60000.0,Tue Jan 14 2025 15:12:22 GMT-0600 (Central Standard Time),636248.3000000119,A,tr,I,backspace,166,1,2665.600000023842,633582.6999999881,8014,WL,A,7.0
5,15.046000003814697,learn,60000.0,Tue Jan 14 2025 15:12:22 GMT-0600 (Central Standard Time),636781.3999999762,A,tra,I,a,519,1,3198.699999988079,633582.6999999881,8014,WL,A,7.0
5,15.36300015449524,learn,60000.0,Tue Jan 14 2025 15:12:22 GMT-0600 (Central Standard Time),637098.1000000238,A,trai,I,i,298,1,3515.400000035763,633582.6999999881,8014,WL,A,7.0
5,15.963000059127808,learn,60000.0,Tue Jan 14 2025 15:12:22 GMT-0600 (Central Standard Time),637697.8999999762,A,train,I,n,589,1,4115.199999988079,633582.6999999881,8014,WL,A,7.0
5,16.578999996185303,learn,60000.0,Tue Jan 14 2025 15:12:22 GMT-0600 (Central Standard Time),638314.5,A,trainenter,I,enter,606,1,4731.800000011921,633582.6999999881,8014,WL,A,7.0
5,16.996000051498413,learn,60000.0,Tue Jan 14 2025 15:12:22 GMT-0600 (Central Standard Time),638731.0,A,f,I,f,397,1,416.19999998807907,638314.8000000119,8014,WL,A,8.0
5,17.295000076293945,learn,60000.0,Tue Jan 14 2025 15:12:22 GMT-0600 (Central Standard Time),639030.6000000238,A,fl,I,l,292,1,715.8000000119209,638314.8000000119,8014,WL,A,8.0
5,17.479000091552734,learn,60000.0,Tue Jan 14 2025 15:12:22 GMT-0600 (Central Standard Time),639214.1999999881,A,flo,I,o,161,1,899.3999999761581,638314.8000000119,8014,WL,A,8.0
5,17.67900013923645,learn,60000.0,Tue Jan 14 2025 15:12:22 GMT-0600 (Central Standard Time),639414.1999999881,A,flow,I,w,193,1,1099.3999999761581,638314.8000000119,8014,WL,A,8.0
5,17.92900013923645,learn,60000.0,Tue Jan 14 2025 15:12:22 GMT-0600 (Central Standard Time),639663.8999999762,A,flowe,I,e,242,1,1349.0999999642372,638314.8000000119,8014,WL,A,8.0
5,18.16200017929077,learn,60000.0,Tue Jan 14 2025 15:12:22 GMT-0600 (Central Standard Time),639897.1999999881,A,flower,I,r,216,1,1582.3999999761581,638314.8000000119,8014,WL,A,8.0
5,18.51200008392334,learn,60000.0,Tue Jan 14 2025 15:12:22 GMT-0600 (Central Standard Time),640247.1000000238,A,flowerenter,I,enter,335,1,1932.300000011921,638314.8000000119,8014,WL,A,8.0
5,19.445000171661377,learn,60000.0,Tue Jan 14 2025 15:12:22 GMT-0600 (Central Standard Time),641180.1000000238,A,b,I,b,921,1,932.8000000119209,640247.3000000119,8014,WL,A,9.0
5,19.74500012397766,learn,60000.0,Tue Jan 14 2025 15:12:22 GMT-0600 (Central Standard Time),641480.1000000238,A,bo,I,o,283,1,1232.800000011921,640247.3000000119,8014,WL,A,9.0
5,19.89400005340576,learn,60000.0,Tue Jan 14 2025 15:12:22 GMT-0600 (Central Standard Time),641629.6999999881,A,boo,I,o,135,1,1382.3999999761581,640247.3000000119,8014,WL,A,9.0
5,20.22699999809265,learn,60000.0,Tue Jan 14 2025 15:12:22 GMT-0600 (Central Standard Time),641962.8000000119,A,book,I,k,315,1,1715.5,640247.3000000119,8014,WL,A,9.0
5,20.861000061035156,learn,60000.0,Tue Jan 14 2025 15:12:22 GMT-0600 (Central Standard Time),642596.3000000119,A,bookenter,I,enter,613,1,2349.0,640247.3000000119,8014,WL,A,9.0
5,21.811000108718872,learn,60000.0,Tue Jan 14 2025 15:12:22 GMT-0600 (Central Standard Time),643546.1000000238,A,h,I,h,939,1,949.4000000357628,642596.6999999881,8014,WL,A,10.0
5,21.961000204086304,learn,60000.0,Tue Jan 14 2025 15:12:22 GMT-0600 (Central Standard Time),643696.1999999881,A,ha,I,a,134,1,1099.5,642596.6999999881,8014,WL,A,10.0
5,22.294000148773193,learn,60000.0,Tue Jan 14 2025 15:12:22 GMT-0600 (Central Standard Time),644029.5,A,har,I,r,312,1,1432.800000011921,642596.6999999881,8014,WL,A,10.0
5,22.960000038146973,learn,60000.0,Tue Jan 14 2025 15:12:22 GMT-0600 (Central Standard Time),644695.3999999762,A,harp,I,p,658,1,2098.699999988079,642596.6999999881,8014,WL,A,10.0
5,24.14300012588501,learn,60000.0,Tue Jan 14 2025 15:12:22 GMT-0600 (Central Standard Time),645878.3000000119,A,harpenter,I,enter,1176,1,3281.600000023842,642596.6999999881,8014,WL,A,10.0
5,26.692000150680542,learn,60000.0,Tue Jan 14 2025 15:12:22 GMT-0600 (Central Standard Time),648427.6000000238,A,g,I,g,2529,1,2549.100000023842,645878.5,8014,WL,A,11.0
5,26.842000007629395,learn,60000.0,Tue Jan 14 2025 15:12:22 GMT-0600 (Central Standard Time),648577.5,A,go,I,o,131,1,2699.0,645878.5,8014,WL,A,11.0
5,27.02500009536743,learn,60000.0,Tue Jan 14 2025 15:12:22 GMT-0600 (Central Standard Time),648760.8000000119,A,gol,I,l,165,1,2882.300000011921,645878.5,8014,WL,A,11.0
5,27.27500009536743,learn,60000.0,Tue Jan 14 2025 15:12:22 GMT-0600 (Central Standard Time),649010.8000000119,A,gold,I,d,230,1,3132.300000011921,645878.5,8014,WL,A,11.0
5,27.711000204086304,learn,60000.0,Tue Jan 14 2025 15:12:22 GMT-0600 (Central Standard Time),649446.1999999881,A,goldenter,I,enter,423,1,3567.699999988079,645878.5,8014,WL,A,11.0
5,31.573000192642212,learn,60000.0,Tue Jan 14 2025 15:12:22 GMT-0600 (Central Standard Time),653309.8000000119,A,m,I,m,3841,1,3863.400000035763,649446.3999999762,8014,WL,A,12.0
5,31.805999994277954,learn,60000.0,Tue Jan 14 2025 15:12:22 GMT-0600 (Central Standard Time),653542.6999999881,A,me,I,e,216,1,4096.300000011921,649446.3999999762,8014,WL,A,12.0
5,32.055999994277954,learn,60000.0,Tue Jan 14 2025 15:12:22 GMT-0600 (Central Standard Time),653792.6999999881,A,mea,I,a,233,1,4346.300000011921,649446.3999999762,8014,WL,A,12.0
5,32.305999994277954,learn,60000.0,Tue Jan 14 2025 15:12:22 GMT-0600 (Central Standard Time),654042.5,A,mead,I,d,231,1,4596.100000023842,649446.3999999762,8014,WL,A,12.0
5,32.50600004196167,learn,60000.0,Tue Jan 14 2025 15:12:22 GMT-0600 (Central Standard Time),654242.3999999762,A,meado,I,o,180,1,4796.0,649446.3999999762,8014,WL,A,12.0
5,32.723000049591064,learn,60000.0,Tue Jan 14 2025 15:12:22 GMT-0600 (Central Standard Time),654459.1000000238,A,meadow,I,w,204,1,5012.700000047684,649446.3999999762,8014,WL,A,12.0
5,33.23900008201599,learn,60000.0,Tue Jan 14 2025 15:12:22 GMT-0600 (Central Standard Time),654975.3999999762,A,meadowenter,I,enter,508,1,5529.0,649446.3999999762,8014,WL,A,12.0
5,37.23800015449524,learn,60000.0,Tue Jan 14 2025 15:12:22 GMT-0600 (Central Standard Time),658974.3000000119,A,a,I,a,3976,1,3998.600000023842,654975.6999999881,8014,WL,A,13.0
5,37.521000146865845,learn,60000.0,Tue Jan 14 2025 15:12:22 GMT-0600 (Central Standard Time),659257.6000000238,A,ap,I,p,265,1,4281.900000035763,654975.6999999881,8014,WL,A,13.0
5,37.6710000038147,learn,60000.0,Tue Jan 14 2025 15:12:22 GMT-0600 (Central Standard Time),659407.3999999762,A,app,I,p,134,1,4431.699999988079,654975.6999999881,8014,WL,A,13.0
5,37.83800005912781,learn,60000.0,Tue Jan 14 2025 15:12:22 GMT-0600 (Central Standard Time),659574.0,A,appl,I,l,144,1,4598.300000011921,654975.6999999881,8014,WL,A,13.0
5,38.03800010681152,learn,60000.0,Tue Jan 14 2025 15:12:22 GMT-0600 (Central Standard Time),659774.0,A,apple,I,e,185,1,4798.300000011921,654975.6999999881,8014,WL,A,13.0
5,38.38700008392334,learn,60000.0,Tue Jan 14 2025 15:12:22 GMT-0600 (Central Standard Time),660123.8999999762,A,appleenter,I,enter,337,1,5148.199999988079,654975.6999999881,8014,WL,A,13.0
5,42.586000204086304,learn,60000.0,Tue Jan 14 2025 15:12:22 GMT-0600 (Central Standard Time),664322.5,A,enter,I,enter,4187,1,4198.300000011921,660124.1999999881,8014,WL,A,14.0
5,43.069000005722046,learn,60000.0,Tue Jan 14 2025 15:12:22 GMT-0600 (Central Standard Time),664805.6000000238,A,enter,I,enter,469,1,482.80000001192093,664322.8000000119,8014,WL,A,15.0
6,1.4499998092651367,distr,58550.00019073486,Tue Jan 14 2025 15:12:22 GMT-0600 (Central Standard Time),736500.1999999881,B,b,I,b,1437,1,1449.300000011921,735050.8999999762,8014,WL,A,1.0
6,1.6999998092651367,distr,58300.00019073486,Tue Jan 14 2025 15:12:22 GMT-0600 (Central Standard Time),736750.3000000119,B,bo,I,o,235,1,1699.4000000357628,735050.8999999762,8014,WL,A,1.0
6,2.1659998893737793,distr,57834.00011062622,Tue Jan 14 2025 15:12:22 GMT-0600 (Central Standard Time),737216.6000000238,B,bow,I,w,449,1,2165.7000000476837,735050.8999999762,8014,WL,A,1.0
6,2.382999897003174,distr,57617.000102996826,Tue Jan 14 2025 15:12:22 GMT-0600 (Central Standard Time),737433.1999999881,B,bowl,I,l,207,1,2382.300000011921,735050.8999999762,8014,WL,A,1.0
6,3.0159997940063477,distr,56984.00020599365,Tue Jan 14 2025 15:12:22 GMT-0600 (Central Standard Time),738066.3000000119,B,bowlenter,I,enter,614,1,3015.400000035763,735050.8999999762,8014,WL,A,1.0
6,3.5159997940063477,distr,56484.00020599365,Tue Jan 14 2025 15:12:22 GMT-0600 (Central Standard Time),738566.3999999762,B,d,I,d,477,1,499.69999998807907,738066.6999999881,8014,WL,A,2.0
6,3.7819998264312744,distr,56218.000173568726,Tue Jan 14 2025 15:12:22 GMT-0600 (Central Standard Time),738832.8999999762,B,da,I,a,257,1,766.1999999880791,738066.6999999881,8014,WL,A,2.0
6,4.331999778747559,distr,55668.00022125244,Tue Jan 14 2025 15:12:22 GMT-0600 (Central Standard Time),739382.8000000119,B,daw,I,w,534,1,1316.1000000238419,738066.6999999881,8014,WL,A,2.0
6,4.531999826431274,distr,55468.000173568726,Tue Jan 14 2025 15:12:22 GMT-0600 (Central Standard Time),739582.5,B,dawn,I,n,184,1,1515.800000011921,738066.6999999881,8014,WL,A,2.0
6,5.198999881744385,distr,54801.000118255615,Tue Jan 14 2025 15:12:22 GMT-0600 (Central Standard Time),740249.1999999881,B,dawnenter,I,enter,657,1,2182.5,738066.6999999881,8014,WL,A,2.0
6,7.297999858856201,distr,52702.0001411438,Tue Jan 14 2025 15:12:22 GMT-0600 (Central Standard Time),742348.3999999762,B,j,I,j,2087,1,2099.0,740249.3999999762,8014,WL,A,3.0
6,7.447999954223633,distr,52552.00004577637,Tue Jan 14 2025 15:12:22 GMT-0600 (Central Standard Time),742498.3000000119,B,ju,I,u,139,1,2248.900000035763,740249.3999999762,8014,WL,A,3.0
6,7.71399998664856,distr,52286.00001335144,Tue Jan 14 2025 15:12:22 GMT-0600 (Central Standard Time),742764.8999999762,B,jud,I,d,253,1,2515.5,740249.3999999762,8014,WL,A,3.0
6,7.896999835968018,distr,52103.00016403198,Tue Jan 14 2025 15:12:22 GMT-0600 (Central Standard Time),742948.1000000238,B,judg,I,g,162,1,2698.7000000476837,740249.3999999762,8014,WL,A,3.0
6,8.080999851226807,distr,51919.00014877319,Tue Jan 14 2025 15:12:22 GMT-0600 (Central Standard Time),743131.3999999762,B,judge,I,e,171,1,2882.0,740249.3999999762,8014,WL,A,3.0
6,8.629999876022339,distr,51370.00012397766,Tue Jan 14 2025 15:12:22 GMT-0600 (Central Standard Time),743681.0,B,judgeenter,I,enter,541,1,3431.600000023842,740249.3999999762,8014,WL,A,3.0
6,9.113999843597412,distr,50886.00015640259,Tue Jan 14 2025 15:12:22 GMT-0600 (Central Standard Time),744164.6000000238,B,b,I,b,460,1,483.30000001192093,743681.3000000119,8014,WL,A,4.0
6,9.38099980354309,distr,50619.00019645691,Tue Jan 14 2025 15:12:22 GMT-0600 (Central Standard Time),744431.1999999881,B,bo,I,o,251,1,749.8999999761581,743681.3000000119,8014,WL,A,4.0
6,9.829999923706055,distr,50170.000076293945,Tue Jan 14 2025 15:12:22 GMT-0600 (Central Standard Time),744881.0,B,bot,I,t,440,1,1199.699999988079,743681.3000000119,8014,WL,A,4.0
6,10.013999938964844,distr,49986.000061035156,Tue Jan 14 2025 15:12:22 GMT-0600 (Central Standard Time),745064.1999999881,B,bott,I,t,166,1,1382.8999999761581,743681.3000000119,8014,WL,A,4.0
6,10.163999795913696,distr,49836.000204086304,Tue Jan 14 2025 15:12:22 GMT-0600 (Central Standard Time),745214.3000000119,B,bottl,I,l,135,1,1533.0,743681.3000000119,8014,WL,A,4.0
6,10.496999979019165,distr,49503.000020980835,Tue Jan 14 2025 15:12:22 GMT-0600 (Central Standard Time),745547.5,B,bottle,I,e,322,1,1866.199999988079,743681.3000000119,8014,WL,A,4.0
6,10.996999979019165,distr,49003.000020980835,Tue Jan 14 2025 15:12:22 GMT-0600 (Central Standard Time),746047.1999999881,B,bottleenter,I,enter,492,1,2365.899999976158,743681.3000000119,8014,WL,A,4.0
6,16.84499979019165,distr,43155.00020980835,Tue Jan 14 2025 15:12:22 GMT-0600 (Central Standard Time),751895.6000000238,B,c,I,c,5832,1,5848.200000047684,746047.3999999762,8014,WL,A,5.0
6,17.01099991798401,distr,42989.00008201599,Tue Jan 14 2025 15:12:22 GMT-0600 (Central Standard Time),752062.0,B,ch,I,h,152,1,6014.600000023842,746047.3999999762,8014,WL,A,5.0
6,17.244999885559082,distr,42755.00011444092,Tue Jan 14 2025 15:12:22 GMT-0600 (Central Standard Time),752295.1999999881,B,cha,I,a,217,1,6247.800000011921,746047.3999999762,8014,WL,A,5.0
6,17.8439998626709,distr,42156.0001373291,Tue Jan 14 2025 15:12:22 GMT-0600 (Central Standard Time),752895.1000000238,B,chai,I,i,584,1,6847.700000047684,746047.3999999762,8014,WL,A,5.0
6,18.060999870300293,distr,41939.00012969971,Tue Jan 14 2025 15:12:22 GMT-0600 (Central Standard Time),753111.6000000238,B,chair,I,r,208,1,7064.200000047684,746047.3999999762,8014,WL,A,5.0
6,20.043999910354614,distr,39956.000089645386,Tue Jan 14 2025 15:12:22 GMT-0600 (Central Standard Time),755094.3999999762,B,chairenter,I,enter,1959,1,9047.0,746047.3999999762,8014,WL,A,5.0
6,23.942999839782715,distr,36057.000160217285,Tue Jan 14 2025 15:12:22 GMT-0600 (Central Standard Time),758993.1999999881,B,enter,I,enter,3889,1,3898.5,755094.6999999881,8014,WL,A,6.0
6,24.158999919891357,distr,35841.00008010864,Tue Jan 14 2025 15:12:22 GMT-0600 (Central Standard Time),759209.8000000119,B,enter,I,enter,207,1,216.4000000357628,758993.3999999762,8014,WL,A,7.0
6,24.358999967575073,distr,35641.00003242493,Tue Jan 14 2025 15:12:22 GMT-0600 (Central Standard Time),759409.6000000238,B,enter,I,enter,190,1,199.4000000357628,759210.1999999881,8014,WL,A,8.0
6,24.55899977684021,distr,35441.00022315979,Tue Jan 14 2025 15:12:22 GMT-0600 (Central Standard Time),759609.6000000238,B,enter,I,enter,182,1,199.80000001192093,759409.8000000119,8014,WL,A,9.0
6,24.841999769210815,distr,35158.000230789185,Tue Jan 14 2025 15:12:22 GMT-0600 (Central Standard Time),759892.5,B,enter,I,enter,270,1,282.60000002384186,759609.8999999762,8014,WL,A,10.0
6,25.20799994468689,distr,34792.00005531311,Tue Jan 14 2025 15:12:22 GMT-0600 (Central Standard Time),760259.1000000238,B,enter,I,enter,355,1,366.30000001192093,759892.8000000119,8014,WL,A,11.0
6,25.524999856948853,distr,34475.00014305115,Tue Jan 14 2025 15:12:22 GMT-0600 (Central Standard Time),760576.0,B,enter,I,enter,308,1,316.60000002384186,760259.3999999762,8014,WL,A,12.0
6,25.758999824523926,distr,34241.000175476074,Tue Jan 14 2025 15:12:22 GMT-0600 (Central Standard Time),760809.1999999881,B,enter,I,enter,223,1,232.89999997615814,760576.3000000119,8014,WL,A,13.0
6,26.091999769210815,distr,33908.000230789185,Tue Jan 14 2025 15:12:22 GMT-0600 (Central Standard Time),761142.3000000119,B,enter,I,enter,326,1,332.80000001192093,760809.5,8014,WL,A,14.0
6,26.47499990463257,distr,33525.00009536743,Tue Jan 14 2025 15:12:22 GMT-0600 (Central Standard Time),761525.6999999881,B,enter,I,enter,362,1,383.0999999642372,761142.6000000238,8014,WL,A,15.0
7,1.2669999599456787,immed,58733.00004005432,Tue Jan 14 2025 15:12:22 GMT-0600 (Central Standard Time),774621.8999999762,A,f,I,f,1245,1,1266.2999999523163,773355.6000000238,8014,WL,A,1.0
7,1.433000087738037,immed,58566.99991226196,Tue Jan 14 2025 15:12:22 GMT-0600 (Central Standard Time),774788.3000000119,A,fl,I,l,145,1,1432.699999988079,773355.6000000238,8014,WL,A,1.0
7,1.5829999446868896,immed,58417.00005531311,Tue Jan 14 2025 15:12:22 GMT-0600 (Central Standard Time),774938.3000000119,A,flo,I,o,139,1,1582.699999988079,773355.6000000238,8014,WL,A,1.0
7,1.7829999923706055,immed,58217.000007629395,Tue Jan 14 2025 15:12:22 GMT-0600 (Central Standard Time),775138.3000000119,A,flow,I,w,189,1,1782.699999988079,773355.6000000238,8014,WL,A,1.0
7,2.0,immed,58000.0,Tue Jan 14 2025 15:12:22 GMT-0600 (Central Standard Time),775354.8999999762,A,flowe,I,e,197,1,1999.2999999523163,773355.6000000238,8014,WL,A,1.0
7,2.2160000801086426,immed,57783.99991989136,Tue Jan 14 2025 15:12:22 GMT-0600 (Central Standard Time),775571.1000000238,A,flower,I,r,204,1,2215.5,773355.6000000238,8014,WL,A,1.0
7,2.7330000400543213,immed,57266.99995994568,Tue Jan 14 2025 15:12:22 GMT-0600 (Central Standard Time),776087.8999999762,A,flowerenter,I,enter,499,1,2732.2999999523163,773355.6000000238,8014,WL,A,1.0
7,3.0989999771118164,immed,56901.00002288818,Tue Jan 14 2025 15:12:22 GMT-0600 (Central Standard Time),776454.3999999762,A,r,I,r,344,1,366.0999999642372,776088.3000000119,8014,WL,A,2.0
7,3.4159998893737793,immed,56584.00011062622,Tue Jan 14 2025 15:12:22 GMT-0600 (Central Standard Time),776771.0,A,ra,I,a,296,1,682.6999999880791,776088.3000000119,8014,WL,A,2.0
7,3.8320000171661377,immed,56167.99998283386,Tue Jan 14 2025 15:12:22 GMT-0600 (Central Standard Time),777187.3999999762,A,rat,I,t,397,1,1099.0999999642372,776088.3000000119,8014,WL,A,2.0
7,3.9819998741149902,immed,56018.00012588501,Tue Jan 14 2025 15:12:22 GMT-0600 (Central Standard Time),777337.5,A,ratt,I,t,132,1,1249.199999988079,776088.3000000119,8014,WL,A,2.0
7,4.131999969482422,immed,55868.00003051758,Tue Jan 14 2025 15:12:22 GMT-0600 (Central Standard Time),777487.5,A,rattl,I,l,134,1,1399.199999988079,776088.3000000119,8014,WL,A,2.0
7,4.365999937057495,immed,55634.000062942505,Tue Jan 14 2025 15:12:22 GMT-0600 (Central Standard Time),777720.8000000119,A,rattle,I,e,216,1,1632.5,776088.3000000119,8014,WL,A,2.0
7,4.765000104904175,immed,55234.999895095825,Tue Jan 14 2025 15:12:22 GMT-0600 (Central Standard Time),778120.5,A,rattleenter,I,enter,382,1,2032.199999988079,776088.3000000119,8014,WL,A,2.0
7,5.115000009536743,immed,54884.99999046326,Tue Jan 14 2025 15:12:22 GMT-0600 (Central Standard Time),778470.3999999762,A,c,I,c,335,1,349.5999999642372,778120.8000000119,8014,WL,A,3.0
7,5.447999954223633,immed,54552.00004577637,Tue Jan 14 2025 15:12:22 GMT-0600 (Central Standard Time),778803.6000000238,A,ch,I,h,321,1,682.8000000119209,778120.8000000119,8014,WL,A,3.0
7,5.5980000495910645,immed,54401.999950408936,Tue Jan 14 2025 15:12:22 GMT-0600 (Central Standard Time),778953.6000000238,A,chi,I,i,131,1,832.8000000119209,778120.8000000119,8014,WL,A,3.0
7,5.815000057220459,immed,54184.99994277954,Tue Jan 14 2025 15:12:22 GMT-0600 (Central Standard Time),779170.0,A,chin,I,n,197,1,1049.199999988079,778120.8000000119,8014,WL,A,3.0
7,6.98199987411499,immed,53018.00012588501,Tue Jan 14 2025 15:12:22 GMT-0600 (Central Standard Time),780337.6999999881,A,chi,I,backspace,1149,1,2216.899999976158,778120.8000000119,8014,WL,A,3.0
7,7.38100004196167,immed,52618.99995803833,Tue Jan 14 2025 15:12:22 GMT-0600 (Central Standard Time),780736.3000000119,A,chim,I,m,381,1,2615.5,778120.8000000119,8014,WL,A,3.0
7,7.5980000495910645,immed,52401.999950408936,Tue Jan 14 2025 15:12:22 GMT-0600 (Central Standard Time),780953.0,A,chime,I,e,199,1,2832.199999988079,778120.8000000119,8014,WL,A,3.0
7,8.081000089645386,immed,51918.999910354614,Tue Jan 14 2025 15:12:22 GMT-0600 (Central Standard Time),781436.1000000238,A,chimey,I,y,470,1,3315.300000011921,778120.8000000119,8014,WL,A,3.0
7,8.38100004196167,immed,51618.99995803833,Tue Jan 14 2025 15:12:22 GMT-0600 (Central Standard Time),781736.1999999881,A,chimeyenter,I,enter,283,1,3615.399999976158,778120.8000000119,8014,WL,A,3.0
7,8.79699993133545,immed,51203.00006866455,Tue Jan 14 2025 15:12:22 GMT-0600 (Central Standard Time),782152.6000000238,A,t,I,t,407,1,416.10000002384186,781736.5,8014,WL,A,4.0
7,9.013999938964844,immed,50986.000061035156,Tue Jan 14 2025 15:12:22 GMT-0600 (Central Standard Time),782369.1000000238,A,tr,I,r,207,1,632.6000000238419,781736.5,8014,WL,A,4.0
7,9.397000074386597,immed,50602.9999256134,Tue Jan 14 2025 15:12:22 GMT-0600 (Central Standard Time),782752.0,A,tra,I,a,374,1,1015.5,781736.5,8014,WL,A,4.0
7,9.647000074386597,immed,50352.9999256134,Tue Jan 14 2025 15:12:22 GMT-0600 (Central Standard Time),783002.1999999881,A,trai,I,i,240,1,1265.699999988079,781736.5,8014,WL,A,4.0
7,9.996999979019165,immed,50003.000020980835,Tue Jan 14 2025 15:12:22 GMT-0600 (Central Standard Time),783351.8999999762,A,train,I,n,333,1,1615.3999999761581,781736.5,8014,WL,A,4.0
7,10.629999876022339,immed,49370.00012397766,Tue Jan 14 2025 15:12:22 GMT-0600 (Central Standard Time),783985.0,A,trainenter,I,enter,616,1,2248.5,781736.5,8014,WL,A,4.0
7,10.996999979019165,immed,49003.000020980835,Tue Jan 14 2025 15:12:22 GMT-0600 (Central Standard Time),784351.8000000119,A,s,I,s,351,1,366.5,783985.3000000119,8014,WL,A,5.0
7,11.230000019073486,immed,48769.999980926514,Tue Jan 14 2025 15:12:22 GMT-0600 (Central Standard Time),784585.1999999881,A,sa,I,a,216,1,599.8999999761581,783985.3000000119,8014,WL,A,5.0
7,11.480000019073486,immed,48519.999980926514,Tue Jan 14 2025 15:12:22 GMT-0600 (Central Standard Time),784835.3000000119,A,sal,I,l,238,1,850.0,783985.3000000119,8014,WL,A,5.0
7,11.812999963760376,immed,48187.000036239624,Tue Jan 14 2025 15:12:22 GMT-0600 (Central Standard Time),785168.1999999881,A,salt,I,t,324,1,1182.8999999761581,783985.3000000119,8014,WL,A,5.0
7,12.213000059127808,immed,47786.99994087219,Tue Jan 14 2025 15:12:22 GMT-0600 (Central Standard Time),785568.1000000238,A,saltenter,I,enter,391,1,1582.800000011921,783985.3000000119,8014,WL,A,5.0
7,12.480000019073486,immed,47519.999980926514,Tue Jan 14 2025 15:12:22 GMT-0600 (Central Standard Time),785834.8000000119,A,a,I,a,255,1,266.4000000357628,785568.3999999762,8014,WL,A,6.0
7,12.763000011444092,immed,47236.99998855591,Tue Jan 14 2025 15:12:22 GMT-0600 (Central Standard Time),786118.0,A,ap,I,p,260,1,549.6000000238419,785568.3999999762,8014,WL,A,6.0
7,12.912999868392944,immed,47087.000131607056,Tue Jan 14 2025 15:12:22 GMT-0600 (Central Standard Time),786268.1000000238,A,app,I,p,129,1,699.7000000476837,785568.3999999762,8014,WL,A,6.0
7,13.11299991607666,immed,46887.00008392334,Tue Jan 14 2025 15:12:22 GMT-0600 (Central Standard Time),786468.0,A,appl,I,l,179,1,899.6000000238419,785568.3999999762,8014,WL,A,6.0
7,13.546000003814697,immed,46453.9999961853,Tue Jan 14 2025 15:12:22 GMT-0600 (Central Standard Time),786901.1999999881,A,apple,I,e,411,1,1332.800000011921,785568.3999999762,8014,WL,A,6.0
7,13.845999956130981,immed,46154.00004386902,Tue Jan 14 2025 15:12:22 GMT-0600 (Central Standard Time),787201.0,A,appleenter,I,enter,290,1,1632.6000000238419,785568.3999999762,8014,WL,A,6.0
7,14.328999996185303,immed,45671.0000038147,Tue Jan 14 2025 15:12:22 GMT-0600 (Central Standard Time),787684.1000000238,A,g,I,g,462,1,482.80000001192093,787201.3000000119,8014,WL,A,7.0
7,14.711999893188477,immed,45288.00010681152,Tue Jan 14 2025 15:12:22 GMT-0600 (Central Standard Time),788067.1999999881,A,go,I,o,364,1,865.8999999761581,787201.3000000119,8014,WL,A,7.0
7,14.911999940872192,immed,45088.00005912781,Tue Jan 14 2025 15:12:22 GMT-0600 (Central Standard Time),788267.1999999881,A,gol,I,l,180,1,1065.8999999761581,787201.3000000119,8014,WL,A,7.0
7,15.194999933242798,immed,44805.0000667572,Tue Jan 14 2025 15:12:22 GMT-0600 (Central Standard Time),788550.3999999762,A,gold,I,d,276,1,1349.0999999642372,787201.3000000119,8014,WL,A,7.0
7,15.578999996185303,immed,44421.0000038147,Tue Jan 14 2025 15:12:22 GMT-0600 (Central Standard Time),788933.8000000119,A,goldenter,I,enter,361,1,1732.5,787201.3000000119,8014,WL,A,7.0
7,16.51200008392334,immed,43487.99991607666,Tue Jan 14 2025 15:12:22 GMT-0600 (Central Standard Time),789866.8999999762,A,h,I,h,913,1,932.6999999880791,788934.1999999881,8014,WL,A,8.0
7,16.661999940872192,immed,43338.00005912781,Tue Jan 14 2025 15:12:22 GMT-0600 (Central Standard Time),790016.8000000119,A,ha,I,a,140,1,1082.6000000238419,788934.1999999881,8014,WL,A,8.0
7,16.994999885559082,immed,43005.00011444092,Tue Jan 14 2025 15:12:22 GMT-0600 (Central Standard Time),790350.1999999881,A,har,I,r,310,1,1416.0,788934.1999999881,8014,WL,A,8.0
7,17.405999898910522,immed,42594.00010108948,Tue Jan 14 2025 15:12:22 GMT-0600 (Central Standard Time),790761.5,A,harp,I,p,404,1,1827.300000011921,788934.1999999881,8014,WL,A,8.0
7,17.977999925613403,immed,42022.0000743866,Tue Jan 14 2025 15:12:22 GMT-0600 (Central Standard Time),791333.1999999881,A,harpenter,I,enter,547,1,2399.0,788934.1999999881,8014,WL,A,8.0
7,20.82699990272522,immed,39173.00009727478,Tue Jan 14 2025 15:12:22 GMT-0600 (Central Standard Time),794182.1000000238,A,f,I,f,2827,1,2848.7000000476837,791333.3999999762,8014,WL,A,9.0
7,21.043999910354614,immed,38956.000089645386,Tue Jan 14 2025 15:12:22 GMT-0600 (Central Standard Time),794399.1999999881,A,fl,I,l,209,1,3065.800000011921,791333.3999999762,8014,WL,A,9.0
7,21.210000038146973,immed,38789.99996185303,Tue Jan 14 2025 15:12:22 GMT-0600 (Central Standard Time),794565.6000000238,A,flo,I,o,145,1,3232.2000000476837,791333.3999999762,8014,WL,A,9.0
7,21.47699999809265,immed,38523.00000190735,Tue Jan 14 2025 15:12:22 GMT-0600 (Central Standard Time),794832.1000000238,A,flow,I,w,249,1,3498.7000000476837,791333.3999999762,8014,WL,A,9.0
7,21.693000078201294,immed,38306.999921798706,Tue Jan 14 2025 15:12:22 GMT-0600 (Central Standard Time),795048.6000000238,A,flowe,I,e,207,1,3715.2000000476837,791333.3999999762,8014,WL,A,9.0
7,21.91000008583069,immed,38089.99991416931,Tue Jan 14 2025 15:12:22 GMT-0600 (Central Standard Time),795265.0,A,flower,I,r,198,1,3931.600000023842,791333.3999999762,8014,WL,A,9.0
7,22.193000078201294,immed,37806.999921798706,Tue Jan 14 2025 15:12:22 GMT-0600 (Central Standard Time),795548.5,A,flowerenter,I,enter,270,1,4215.100000023842,791333.3999999762,8014,WL,A,9.0
7,22.526000022888184,immed,37473.99997711182,Tue Jan 14 2025 15:12:22 GMT-0600 (Central Standard Time),795881.6999999881,A,t,I,t,322,1,332.89999997615814,795548.8000000119,8014,WL,A,10.0
7,22.7260000705719,immed,37273.9999294281,Tue Jan 14 2025 15:12:22 GMT-0600 (Central Standard Time),796081.5,A,tr,I,r,190,1,532.6999999880791,795548.8000000119,8014,WL,A,10.0
7,23.042999982833862,immed,36957.00001716614,Tue Jan 14 2025 15:12:22 GMT-0600 (Central Standard Time),796398.1999999881,A,tra,I,a,302,1,849.3999999761581,795548.8000000119,8014,WL,A,10.0
7,23.2260000705719,immed,36773.9999294281,Tue Jan 14 2025 15:12:22 GMT-0600 (Central Standard Time),796581.3999999762,A,trai,I,i,169,1,1032.5999999642372,795548.8000000119,8014,WL,A,10.0
7,23.443000078201294,immed,36556.999921798706,Tue Jan 14 2025 15:12:22 GMT-0600 (Central Standard Time),796798.1000000238,A,train,I,n,202,1,1249.300000011921,795548.8000000119,8014,WL,A,10.0
7,24.14299988746643,immed,35857.00011253357,Tue Jan 14 2025 15:12:22 GMT-0600 (Central Standard Time),797497.8999999762,A,trainenter,I,enter,681,1,1949.0999999642372,795548.8000000119,8014,WL,A,10.0
7,25.092000007629395,immed,34907.999992370605,Tue Jan 14 2025 15:12:22 GMT-0600 (Central Standard Time),798447.5,A,l,I,l,934,1,949.3999999761581,797498.1000000238,8014,WL,A,11.0
7,25.259000062942505,immed,34740.999937057495,Tue Jan 14 2025 15:12:22 GMT-0600 (Central Standard Time),798614.1999999881,A,lo,I,o,144,1,1116.0999999642372,797498.1000000238,8014,WL,A,11.0
7,25.54200005531311,immed,34457.99994468689,Tue Jan 14 2025 15:12:22 GMT-0600 (Central Standard Time),798897.3000000119,A,log,I,g,265,1,1399.199999988079,797498.1000000238,8014,WL,A,11.0
7,25.941999912261963,immed,34058.00008773804,Tue Jan 14 2025 15:12:22 GMT-0600 (Central Standard Time),799297.5,A,logenter,I,enter,383,1,1799.3999999761581,797498.1000000238,8014,WL,A,11.0
7,26.492000102996826,immed,33507.999897003174,Tue Jan 14 2025 15:12:22 GMT-0600 (Central Standard Time),799847.1000000238,A,r,I,r,534,1,549.3000000119209,799297.8000000119,8014,WL,A,12.0
7,26.742000102996826,immed,33257.999897003174,Tue Jan 14 2025 15:12:22 GMT-0600 (Central Standard Time),800097.0,A,ru,I,u,240,1,799.1999999880791,799297.8000000119,8014,WL,A,12.0
7,27.075000047683716,immed,32924.999952316284,Tue Jan 14 2025 15:12:22 GMT-0600 (Central Standard Time),800430.1999999881,A,rug,I,g,310,1,1132.3999999761581,799297.8000000119,8014,WL,A,12.0
7,27.674999952316284,immed,32325.000047683716,Tue Jan 14 2025 15:12:22 GMT-0600 (Central Standard Time),801030.1000000238,A,rugenter,I,enter,577,1,1732.300000011921,799297.8000000119,8014,WL,A,12.0
7,28.94099998474121,immed,31059.00001525879,Tue Jan 14 2025 15:12:22 GMT-0600 (Central Standard Time),802296.3999999762,A,m,I,m,1257,1,1266.0,801030.3999999762,8014,WL,A,13.0
7,29.091000080108643,immed,30908.999919891357,Tue Jan 14 2025 15:12:22 GMT-0600 (Central Standard Time),802446.5,A,me,I,e,127,1,1416.1000000238419,801030.3999999762,8014,WL,A,13.0
7,29.35800004005432,immed,30641.99995994568,Tue Jan 14 2025 15:12:22 GMT-0600 (Central Standard Time),802712.8999999762,A,mea,I,a,249,1,1682.5,801030.3999999762,8014,WL,A,13.0
7,29.756999969482422,immed,30243.000030517578,Tue Jan 14 2025 15:12:22 GMT-0600 (Central Standard Time),803112.6000000238,A,mead,I,d,391,1,2082.2000000476837,801030.3999999762,8014,WL,A,13.0
7,29.973999977111816,immed,30026.000022888184,Tue Jan 14 2025 15:12:22 GMT-0600 (Central Standard Time),803329.3000000119,A,meado,I,o,198,1,2298.900000035763,801030.3999999762,8014,WL,A,13.0
7,30.207000017166138,immed,29792.999982833862,Tue Jan 14 2025 15:12:22 GMT-0600 (Central Standard Time),803562.5,A,meadow,I,w,222,1,2532.100000023842,801030.3999999762,8014,WL,A,13.0
7,30.756999969482422,immed,29243.000030517578,Tue Jan 14 2025 15:12:22 GMT-0600 (Central Standard Time),804112.6000000238,A,meadowenter,I,enter,533,1,3082.2000000476837,801030.3999999762,8014,WL,A,13.0
7,37.33800005912781,immed,22661.999940872192,Tue Jan 14 2025 15:12:22 GMT-0600 (Central Standard Time),810693.6999999881,A,f,I,f,6567,1,6580.800000011921,804112.8999999762,8014,WL,A,14.0
7,37.5220000743866,immed,22477.999925613403,Tue Jan 14 2025 15:12:22 GMT-0600 (Central Standard Time),810876.8999999762,A,fi,I,i,169,1,6764.0,804112.8999999762,8014,WL,A,14.0
7,37.73799991607666,immed,22262.00008392334,Tue Jan 14 2025 15:12:22 GMT-0600 (Central Standard Time),811093.6000000238,A,fin,I,n,195,1,6980.700000047684,804112.8999999762,8014,WL,A,14.0
7,37.92199993133545,immed,22078.00006866455,Tue Jan 14 2025 15:12:22 GMT-0600 (Central Standard Time),811276.8000000119,A,fing,I,g,162,1,7163.900000035763,804112.8999999762,8014,WL,A,14.0
7,38.287999868392944,immed,21712.000131607056,Tue Jan 14 2025 15:12:22 GMT-0600 (Central Standard Time),811643.3000000119,A,finge,I,e,355,1,7530.400000035763,804112.8999999762,8014,WL,A,14.0
7,38.50499987602234,immed,21495.00012397766,Tue Jan 14 2025 15:12:22 GMT-0600 (Central Standard Time),811860.1000000238,A,finger,I,r,196,1,7747.200000047684,804112.8999999762,8014,WL,A,14.0
7,38.855000019073486,immed,21144.999980926514,Tue Jan 14 2025 15:12:22 GMT-0600 (Central Standard Time),812209.8999999762,A,fingerenter,I,enter,339,1,8097.0,804112.8999999762,8014,WL,A,14.0
7,44.569000005722046,immed,15430.999994277954,Tue Jan 14 2025 15:12:22 GMT-0600 (Central Standard Time),817924.6000000238,A,k,I,k,5693,1,5714.300000011921,812210.3000000119,8014,WL,A,15.0
7,44.78600001335144,immed,15213.99998664856,Tue Jan 14 2025 15:12:22 GMT-0600 (Central Standard Time),818141.6000000238,A,ke,I,e,202,1,5931.300000011921,812210.3000000119,8014,WL,A,15.0
7,45.168999910354614,immed,14831.000089645386,Tue Jan 14 2025 15:12:22 GMT-0600 (Central Standard Time),818524.6000000238,A,key,I,y,362,1,6314.300000011921,812210.3000000119,8014,WL,A,15.0
7,45.65299987792969,immed,14347.000122070312,Tue Jan 14 2025 15:12:22 GMT-0600 (Central Standard Time),819007.8000000119,A,keyenter,I,enter,474,1,6797.5,812210.3000000119,8014,WL,A,15.0
