block_c,block_dur,condition,countdown,datetime,endtime,list,multichar_response,project,response,response_time,session_number,start_end,starttime,subject_id,task,task_vers,trial
,,,,Fri May 02 2025 14:03:13 GMT-0500 (Central Daylight Time),,,,I,space,7843,2,,,8014,WL,C,
prac,,0,,Fri May 02 2025 14:03:13 GMT-0500 (Central Daylight Time),,NA,b,I,b,8985,2,,,8014,WL,C,1.0
prac,,0,,Fri May 02 2025 14:03:13 GMT-0500 (Central Daylight Time),,NA,bo,I,o,287,2,,,8014,WL,C,1.0
prac,,0,,Fri May 02 2025 14:03:13 GMT-0500 (Central Daylight Time),,NA,boo,I,o,132,2,,,8014,WL,C,1.0
prac,,0,,Fri May 02 2025 14:03:13 GMT-0500 (Central Daylight Time),,NA,boos,I,s,183,2,,,8014,WL,C,1.0
prac,,0,,Fri May 02 2025 14:03:13 GMT-0500 (Central Daylight Time),,NA,boost,I,t,240,2,,,8014,WL,C,1.0
prac,,0,,Fri May 02 2025 14:03:13 GMT-0500 (Central Daylight Time),,NA,boostenter,I,enter,2933,2,,,8014,WL,C,1.0
1,1.683000087738037,learn,58316.99991226196,Fri May 02 2025 14:03:13 GMT-0500 (Central Daylight Time),138550.0,A,t,I,t,1673,2,1682.300000011921,136867.69999998808,8014,WL,C,1.0
1,1.8829998970031738,learn,58117.000102996826,Fri May 02 2025 14:03:13 GMT-0500 (Central Daylight Time),138750.09999999404,A,to,I,o,188,2,1882.4000000059605,136867.69999998808,8014,WL,C,1.0
1,2.5820000171661377,learn,57417.99998283386,Fri May 02 2025 14:03:13 GMT-0500 (Central Daylight Time),139449.69999998808,A,tow,I,w,677,2,2582.0,136867.69999998808,8014,WL,C,1.0
1,2.7820000648498535,learn,57217.99993515015,Fri May 02 2025 14:03:13 GMT-0500 (Central Daylight Time),139649.69999998808,A,towe,I,e,187,2,2782.0,136867.69999998808,8014,WL,C,1.0
1,3.059999942779541,learn,56940.00005722046,Fri May 02 2025 14:03:13 GMT-0500 (Central Daylight Time),139927.79999998212,A,tower,I,r,272,2,3060.0999999940395,136867.69999998808,8014,WL,C,1.0
1,3.4149999618530273,learn,56585.00003814697,Fri May 02 2025 14:03:13 GMT-0500 (Central Daylight Time),140282.40000000596,A,towerenter,I,enter,339,2,3414.7000000178814,136867.69999998808,8014,WL,C,1.0
1,3.8489999771118164,learn,56151.00002288818,Fri May 02 2025 14:03:13 GMT-0500 (Central Daylight Time),140716.09999999404,A,q,I,q,425,2,433.30000001192093,140282.79999998212,8014,WL,C,2.0
1,4.297999858856201,learn,55702.0001411438,Fri May 02 2025 14:03:13 GMT-0500 (Central Daylight Time),141165.79999998212,A,qu,I,u,439,2,883.0,140282.79999998212,8014,WL,C,2.0
1,4.582000017166138,learn,55417.99998283386,Fri May 02 2025 14:03:13 GMT-0500 (Central Daylight Time),141449.19999998808,A,que,I,e,271,2,1166.4000000059605,140282.79999998212,8014,WL,C,2.0
1,4.73199987411499,learn,55268.00012588501,Fri May 02 2025 14:03:13 GMT-0500 (Central Daylight Time),141598.90000000596,A,quee,I,e,138,2,1316.1000000238419,140282.79999998212,8014,WL,C,2.0
1,4.898000001907349,learn,55101.99999809265,Fri May 02 2025 14:03:13 GMT-0500 (Central Daylight Time),141765.59999999404,A,queen,I,n,148,2,1482.800000011921,140282.79999998212,8014,WL,C,2.0
1,5.615000009536743,learn,54384.99999046326,Fri May 02 2025 14:03:13 GMT-0500 (Central Daylight Time),142482.09999999404,A,queenenter,I,enter,701,2,2199.300000011921,140282.79999998212,8014,WL,C,2.0
1,6.547999858856201,learn,53452.0001411438,Fri May 02 2025 14:03:13 GMT-0500 (Central Daylight Time),143415.09999999404,A,d,I,d,914,2,932.5,142482.59999999404,8014,WL,C,3.0
1,6.797999858856201,learn,53202.0001411438,Fri May 02 2025 14:03:13 GMT-0500 (Central Daylight Time),143664.90000000596,A,do,I,o,237,2,1182.300000011921,142482.59999999404,8014,WL,C,3.0
1,7.013999938964844,learn,52986.000061035156,Fri May 02 2025 14:03:13 GMT-0500 (Central Daylight Time),143881.69999998808,A,doc,I,c,196,2,1399.0999999940395,142482.59999999404,8014,WL,C,3.0
1,7.63100004196167,learn,52368.99995803833,Fri May 02 2025 14:03:13 GMT-0500 (Central Daylight Time),144498.19999998808,A,doct,I,t,611,2,2015.5999999940395,142482.59999999404,8014,WL,C,3.0
1,7.864000082015991,learn,52135.99991798401,Fri May 02 2025 14:03:13 GMT-0500 (Central Daylight Time),144731.29999998212,A,docto,I,o,219,2,2248.699999988079,142482.59999999404,8014,WL,C,3.0
1,8.030999898910522,learn,51969.00010108948,Fri May 02 2025 14:03:13 GMT-0500 (Central Daylight Time),144897.79999998212,A,doctor,I,r,161,2,2415.199999988079,142482.59999999404,8014,WL,C,3.0
1,9.147000074386597,learn,50852.9999256134,Fri May 02 2025 14:03:13 GMT-0500 (Central Daylight Time),146014.29999998212,A,doctorenter,I,enter,1098,2,3531.699999988079,142482.59999999404,8014,WL,C,3.0
1,10.129999876022339,learn,49870.00012397766,Fri May 02 2025 14:03:13 GMT-0500 (Central Daylight Time),146997.29999998212,A,b,I,b,966,2,982.5999999940395,146014.69999998808,8014,WL,C,4.0
1,10.296000003814697,learn,49703.9999961853,Fri May 02 2025 14:03:13 GMT-0500 (Central Daylight Time),147163.59999999404,A,bo,I,o,159,2,1148.9000000059605,146014.69999998808,8014,WL,C,4.0
1,10.912999868392944,learn,49087.000131607056,Fri May 02 2025 14:03:13 GMT-0500 (Central Daylight Time),147780.5,A,boy,I,y,599,2,1765.800000011921,146014.69999998808,8014,WL,C,4.0
1,11.230000019073486,learn,48769.999980926514,Fri May 02 2025 14:03:13 GMT-0500 (Central Daylight Time),148096.90000000596,A,boyenter,I,enter,304,2,2082.2000000178814,146014.69999998808,8014,WL,C,4.0
1,11.94599986076355,learn,48054.00013923645,Fri May 02 2025 14:03:13 GMT-0500 (Central Daylight Time),148813.5,A,b,I,b,706,2,716.2000000178814,148097.29999998212,8014,WL,C,5.0
1,12.213000059127808,learn,47786.99994087219,Fri May 02 2025 14:03:13 GMT-0500 (Central Daylight Time),149079.90000000596,A,bo,I,o,254,2,982.6000000238419,148097.29999998212,8014,WL,C,5.0
1,12.578999996185303,learn,47421.0000038147,Fri May 02 2025 14:03:13 GMT-0500 (Central Daylight Time),149446.40000000596,A,bod,I,d,348,2,1349.1000000238419,148097.29999998212,8014,WL,C,5.0
1,12.796000003814697,learn,47203.9999961853,Fri May 02 2025 14:03:13 GMT-0500 (Central Daylight Time),149663.19999998808,A,body,I,y,206,2,1565.9000000059605,148097.29999998212,8014,WL,C,5.0
1,13.562000036239624,learn,46437.999963760376,Fri May 02 2025 14:03:13 GMT-0500 (Central Daylight Time),150429.5,A,bodyenter,I,enter,758,2,2332.2000000178814,148097.29999998212,8014,WL,C,5.0
1,14.411999940872192,learn,45588.00005912781,Fri May 02 2025 14:03:13 GMT-0500 (Central Daylight Time),151279.5,A,s,I,s,838,2,849.5,150430.0,8014,WL,C,6.0
1,14.59500002861023,learn,45404.99997138977,Fri May 02 2025 14:03:13 GMT-0500 (Central Daylight Time),151462.59999999404,A,su,I,u,172,2,1032.5999999940395,150430.0,8014,WL,C,6.0
1,14.961999893188477,learn,45038.00010681152,Fri May 02 2025 14:03:13 GMT-0500 (Central Daylight Time),151829.09999999404,A,sug,I,g,350,2,1399.0999999940395,150430.0,8014,WL,C,6.0
1,15.17799997329712,learn,44822.00002670288,Fri May 02 2025 14:03:13 GMT-0500 (Central Daylight Time),152045.59999999404,A,suga,I,a,208,2,1615.5999999940395,150430.0,8014,WL,C,6.0
1,15.411999940872192,learn,44588.00005912781,Fri May 02 2025 14:03:13 GMT-0500 (Central Daylight Time),152279.0,A,sugar,I,r,215,2,1849.0,150430.0,8014,WL,C,6.0
1,16.07800006866455,learn,43921.99993133545,Fri May 02 2025 14:03:13 GMT-0500 (Central Daylight Time),152945.69999998808,A,sugarenter,I,enter,661,2,2515.699999988079,150430.0,8014,WL,C,6.0
1,17.09500002861023,learn,42904.99997138977,Fri May 02 2025 14:03:13 GMT-0500 (Central Daylight Time),153961.90000000596,A,c,I,c,1010,2,1016.0,152945.90000000596,8014,WL,C,7.0
1,17.560999870300293,learn,42439.00012969971,Fri May 02 2025 14:03:13 GMT-0500 (Central Daylight Time),154428.29999998212,A,ca,I,a,449,2,1482.3999999761581,152945.90000000596,8014,WL,C,7.0
1,17.74399995803833,learn,42256.00004196167,Fri May 02 2025 14:03:13 GMT-0500 (Central Daylight Time),154611.59999999404,A,cam,I,m,168,2,1665.699999988079,152945.90000000596,8014,WL,C,7.0
1,18.39400005340576,learn,41605.99994659424,Fri May 02 2025 14:03:13 GMT-0500 (Central Daylight Time),155261.5,A,camp,I,p,641,2,2315.5999999940395,152945.90000000596,8014,WL,C,7.0
1,19.91000008583069,learn,40089.99991416931,Fri May 02 2025 14:03:13 GMT-0500 (Central Daylight Time),156777.40000000596,A,campenter,I,enter,1503,2,3831.5,152945.90000000596,8014,WL,C,7.0
1,21.292999982833862,learn,38707.00001716614,Fri May 02 2025 14:03:13 GMT-0500 (Central Daylight Time),158160.5,A,s,I,s,1362,2,1382.800000011921,156777.69999998808,8014,WL,C,8.0
1,21.425999879837036,learn,38574.000120162964,Fri May 02 2025 14:03:13 GMT-0500 (Central Daylight Time),158293.69999998808,A,sh,I,h,115,2,1516.0,156777.69999998808,8014,WL,C,8.0
1,21.943000078201294,learn,38056.999921798706,Fri May 02 2025 14:03:13 GMT-0500 (Central Daylight Time),158810.19999998808,A,sho,I,o,502,2,2032.5,156777.69999998808,8014,WL,C,8.0
1,22.575999975204468,learn,37424.00002479553,Fri May 02 2025 14:03:13 GMT-0500 (Central Daylight Time),159443.5,A,shor,I,r,627,2,2665.800000011921,156777.69999998808,8014,WL,C,8.0
1,22.759000062942505,learn,37240.999937057495,Fri May 02 2025 14:03:13 GMT-0500 (Central Daylight Time),159626.69999998808,A,shore,I,e,169,2,2849.0,156777.69999998808,8014,WL,C,8.0
1,24.05900001525879,learn,35940.99998474121,Fri May 02 2025 14:03:13 GMT-0500 (Central Daylight Time),160926.29999998212,A,shoreenter,I,enter,1281,2,4148.5999999940395,156777.69999998808,8014,WL,C,8.0
1,27.407999992370605,learn,32592.000007629395,Fri May 02 2025 14:03:13 GMT-0500 (Central Daylight Time),164275.5,A,w,I,w,3334,2,3348.800000011921,160926.69999998808,8014,WL,C,9.0
1,27.625,learn,32375.0,Fri May 02 2025 14:03:13 GMT-0500 (Central Daylight Time),164491.90000000596,A,wh,I,h,208,2,3565.2000000178814,160926.69999998808,8014,WL,C,9.0
1,27.774999856948853,learn,32225.000143051147,Fri May 02 2025 14:03:13 GMT-0500 (Central Daylight Time),164642.09999999404,A,whe,I,e,136,2,3715.4000000059605,160926.69999998808,8014,WL,C,9.0
1,28.223999977111816,learn,31776.000022888184,Fri May 02 2025 14:03:13 GMT-0500 (Central Daylight Time),165091.69999998808,A,whea,I,a,434,2,4165.0,160926.69999998808,8014,WL,C,9.0
1,29.157000064849854,learn,30842.999935150146,Fri May 02 2025 14:03:13 GMT-0500 (Central Daylight Time),166024.59999999404,A,wheat,I,t,921,2,5097.9000000059605,160926.69999998808,8014,WL,C,9.0
1,30.256999969482422,learn,29743.000030517578,Fri May 02 2025 14:03:13 GMT-0500 (Central Daylight Time),167124.5,A,wheatenter,I,enter,1084,2,6197.800000011921,160926.69999998808,8014,WL,C,9.0
1,34.35599994659424,learn,25644.00005340576,Fri May 02 2025 14:03:13 GMT-0500 (Central Daylight Time),171222.90000000596,A,t,I,t,4080,2,4098.0,167124.90000000596,8014,WL,C,10.0
1,34.5220000743866,learn,25477.999925613403,Fri May 02 2025 14:03:13 GMT-0500 (Central Daylight Time),171389.59999999404,A,to,I,o,158,2,4264.699999988079,167124.90000000596,8014,WL,C,10.0
1,34.888999938964844,learn,25111.000061035156,Fri May 02 2025 14:03:13 GMT-0500 (Central Daylight Time),171756.40000000596,A,tow,I,w,351,2,4631.5,167124.90000000596,8014,WL,C,10.0
1,35.121999979019165,learn,24878.000020980835,Fri May 02 2025 14:03:13 GMT-0500 (Central Daylight Time),171989.29999998212,A,towe,I,e,217,2,4864.399999976158,167124.90000000596,8014,WL,C,10.0
1,35.32200002670288,learn,24677.99997329712,Fri May 02 2025 14:03:13 GMT-0500 (Central Daylight Time),172189.5,A,tower,I,r,183,2,5064.5999999940395,167124.90000000596,8014,WL,C,10.0
1,35.704999923706055,learn,24295.000076293945,Fri May 02 2025 14:03:13 GMT-0500 (Central Daylight Time),172572.79999998212,A,towerenter,I,enter,375,2,5447.899999976158,167124.90000000596,8014,WL,C,10.0
1,44.55200004577637,learn,15447.999954223633,Fri May 02 2025 14:03:13 GMT-0500 (Central Daylight Time),181419.79999998212,A,l,I,l,8840,2,8846.59999999404,172573.19999998808,8014,WL,C,11.0
1,44.80200004577637,learn,15197.999954223633,Fri May 02 2025 14:03:13 GMT-0500 (Central Daylight Time),181669.69999998808,A,la,I,a,240,2,9096.5,172573.19999998808,8014,WL,C,11.0
1,45.55200004577637,learn,14447.999954223633,Fri May 02 2025 14:03:13 GMT-0500 (Central Daylight Time),182419.5,A,lad,I,d,734,2,9846.300000011921,172573.19999998808,8014,WL,C,11.0
1,45.68499994277954,learn,14315.000057220459,Fri May 02 2025 14:03:13 GMT-0500 (Central Daylight Time),182552.69999998808,A,ladd,I,d,122,2,9979.5,172573.19999998808,8014,WL,C,11.0
1,45.86899995803833,learn,14131.00004196167,Fri May 02 2025 14:03:13 GMT-0500 (Central Daylight Time),182736.29999998212,A,ladde,I,e,171,2,10163.09999999404,172573.19999998808,8014,WL,C,11.0
1,46.068000078201294,learn,13931.999921798706,Fri May 02 2025 14:03:13 GMT-0500 (Central Daylight Time),182935.90000000596,A,ladder,I,r,180,2,10362.700000017881,172573.19999998808,8014,WL,C,11.0
1,46.51799988746643,learn,13482.00011253357,Fri May 02 2025 14:03:13 GMT-0500 (Central Daylight Time),183385.90000000596,A,ladderenter,I,enter,444,2,10812.700000017881,172573.19999998808,8014,WL,C,11.0
1,60.013999938964844,learn,-13.99993896484375,Fri May 02 2025 14:03:13 GMT-0500 (Central Daylight Time),196881.79999998212,A,None,I,None,13491,2,13495.59999999404,183386.19999998808,8014,WL,C,12.0
2,1.366999864578247,learn,58633.00013542175,Fri May 02 2025 14:03:13 GMT-0500 (Central Daylight Time),273674.1999999881,A,h,I,h,1362,2,1366.0999999940395,272308.09999999404,8014,WL,C,1.0
2,1.5329999923706055,learn,58467.000007629395,Fri May 02 2025 14:03:13 GMT-0500 (Central Daylight Time),273840.90000000596,A,ho,I,o,146,2,1532.800000011921,272308.09999999404,8014,WL,C,1.0
2,1.7669999599456787,learn,58233.00004005432,Fri May 02 2025 14:03:13 GMT-0500 (Central Daylight Time),274074.0,A,hom,I,m,227,2,1765.9000000059605,272308.09999999404,8014,WL,C,1.0
2,1.9829998016357422,learn,58017.00019836426,Fri May 02 2025 14:03:13 GMT-0500 (Central Daylight Time),274290.7999999821,A,home,I,e,203,2,1982.699999988079,272308.09999999404,8014,WL,C,1.0
2,2.6499998569488525,learn,57350.00014305115,Fri May 02 2025 14:03:13 GMT-0500 (Central Daylight Time),274957.2999999821,A,homeenter,I,enter,657,2,2649.199999988079,272308.09999999404,8014,WL,C,1.0
2,3.065999984741211,learn,56934.00001525879,Fri May 02 2025 14:03:13 GMT-0500 (Central Daylight Time),275373.90000000596,A,c,I,c,407,2,416.30000001192093,274957.59999999404,8014,WL,C,2.0
2,3.5329999923706055,learn,56467.000007629395,Fri May 02 2025 14:03:13 GMT-0500 (Central Daylight Time),275840.2999999821,A,ca,I,a,454,2,882.6999999880791,274957.59999999404,8014,WL,C,2.0
2,4.016000032424927,learn,55983.99996757507,Fri May 02 2025 14:03:13 GMT-0500 (Central Daylight Time),276323.5,A,cat,I,t,476,2,1365.9000000059605,274957.59999999404,8014,WL,C,2.0
2,4.166999816894531,learn,55833.00018310547,Fri May 02 2025 14:03:13 GMT-0500 (Central Daylight Time),276475.0,A,catt,I,t,144,2,1517.4000000059605,274957.59999999404,8014,WL,C,2.0
2,4.348999977111816,learn,55651.00002288818,Fri May 02 2025 14:03:13 GMT-0500 (Central Daylight Time),276656.59999999404,A,cattl,I,l,169,2,1699.0,274957.59999999404,8014,WL,C,2.0
2,4.582000017166138,learn,55417.99998283386,Fri May 02 2025 14:03:13 GMT-0500 (Central Daylight Time),276889.7999999821,A,cattle,I,e,220,2,1932.199999988079,274957.59999999404,8014,WL,C,2.0
2,5.148999929428101,learn,54851.0000705719,Fri May 02 2025 14:03:13 GMT-0500 (Central Daylight Time),277456.5,A,cattleenter,I,enter,555,2,2498.9000000059605,274957.59999999404,8014,WL,C,2.0
2,6.815999984741211,learn,53184.00001525879,Fri May 02 2025 14:03:13 GMT-0500 (Central Daylight Time),279123.6999999881,A,f,I,f,1653,2,1666.5999999940395,277457.09999999404,8014,WL,C,3.0
2,7.097999811172485,learn,52902.000188827515,Fri May 02 2025 14:03:13 GMT-0500 (Central Daylight Time),279405.7999999821,A,fl,I,l,265,2,1948.699999988079,277457.09999999404,8014,WL,C,3.0
2,7.347999811172485,learn,52652.000188827515,Fri May 02 2025 14:03:13 GMT-0500 (Central Daylight Time),279655.59999999404,A,fla,I,a,231,2,2198.5,277457.09999999404,8014,WL,C,3.0
2,7.81499981880188,learn,52185.00018119812,Fri May 02 2025 14:03:13 GMT-0500 (Central Daylight Time),280122.09999999404,A,flag,I,g,461,2,2665.0,277457.09999999404,8014,WL,C,3.0
2,8.148000001907349,learn,51851.99999809265,Fri May 02 2025 14:03:13 GMT-0500 (Central Daylight Time),280455.2999999821,A,flagenter,I,enter,322,2,2998.199999988079,277457.09999999404,8014,WL,C,3.0
2,8.797999858856201,learn,51202.0001411438,Fri May 02 2025 14:03:13 GMT-0500 (Central Daylight Time),281105.1999999881,A,n,I,n,629,2,649.5,280455.6999999881,8014,WL,C,4.0
2,9.17799997329712,learn,50822.00002670288,Fri May 02 2025 14:03:13 GMT-0500 (Central Daylight Time),281485.40000000596,A,na,I,a,375,2,1029.7000000178814,280455.6999999881,8014,WL,C,4.0
2,9.613999843597412,learn,50386.00015640259,Fri May 02 2025 14:03:13 GMT-0500 (Central Daylight Time),281921.7999999821,A,nai,I,i,424,2,1466.0999999940395,280455.6999999881,8014,WL,C,4.0
2,9.830999851226807,learn,50169.00014877319,Fri May 02 2025 14:03:13 GMT-0500 (Central Daylight Time),282138.1999999881,A,nail,I,l,211,2,1682.5,280455.6999999881,8014,WL,C,4.0
2,10.480999946594238,learn,49519.00005340576,Fri May 02 2025 14:03:13 GMT-0500 (Central Daylight Time),282788.2999999821,A,nailenter,I,enter,643,2,2332.5999999940395,280455.6999999881,8014,WL,C,4.0
2,12.396999835968018,learn,47603.00016403198,Fri May 02 2025 14:03:13 GMT-0500 (Central Daylight Time),284704.1999999881,A,c,I,c,1896,2,1915.5,282788.6999999881,8014,WL,C,5.0
2,12.69700002670288,learn,47302.99997329712,Fri May 02 2025 14:03:13 GMT-0500 (Central Daylight Time),285004.0,A,ca,I,a,285,2,2215.300000011921,282788.6999999881,8014,WL,C,5.0
2,12.896999835968018,learn,47103.00016403198,Fri May 02 2025 14:03:13 GMT-0500 (Central Daylight Time),285204.0,A,cam,I,m,184,2,2415.300000011921,282788.6999999881,8014,WL,C,5.0
2,13.429999828338623,learn,46570.00017166138,Fri May 02 2025 14:03:13 GMT-0500 (Central Daylight Time),285737.5,A,camp,I,p,512,2,2948.800000011921,282788.6999999881,8014,WL,C,5.0
2,14.796000003814697,learn,45203.9999961853,Fri May 02 2025 14:03:13 GMT-0500 (Central Daylight Time),287103.6999999881,A,campenter,I,enter,1356,2,4315.0,282788.6999999881,8014,WL,C,5.0
2,15.495999813079834,learn,44504.000186920166,Fri May 02 2025 14:03:13 GMT-0500 (Central Daylight Time),287803.2999999821,A,c,I,c,694,2,699.2999999821186,287104.0,8014,WL,C,6.0
2,15.76199984550476,learn,44238.00015449524,Fri May 02 2025 14:03:13 GMT-0500 (Central Daylight Time),288069.59999999404,A,co,I,o,257,2,965.5999999940395,287104.0,8014,WL,C,6.0
2,16.01199984550476,learn,43988.00015449524,Fri May 02 2025 14:03:13 GMT-0500 (Central Daylight Time),288319.6999999881,A,cor,I,r,239,2,1215.699999988079,287104.0,8014,WL,C,6.0
2,16.27899980545044,learn,43721.00019454956,Fri May 02 2025 14:03:13 GMT-0500 (Central Daylight Time),288586.09999999404,A,corn,I,n,260,2,1482.0999999940395,287104.0,8014,WL,C,6.0
2,16.911999940872192,learn,43088.00005912781,Fri May 02 2025 14:03:13 GMT-0500 (Central Daylight Time),289219.40000000596,A,cornenter,I,enter,619,2,2115.4000000059605,287104.0,8014,WL,C,6.0
2,17.27899980545044,learn,42721.00019454956,Fri May 02 2025 14:03:13 GMT-0500 (Central Daylight Time),289586.0,A,w,I,w,362,2,366.2000000178814,289219.7999999821,8014,WL,C,7.0
2,17.561999797821045,learn,42438.000202178955,Fri May 02 2025 14:03:13 GMT-0500 (Central Daylight Time),289869.2999999821,A,wh,I,h,274,2,649.5,289219.7999999821,8014,WL,C,7.0
2,17.76199984550476,learn,42238.00015449524,Fri May 02 2025 14:03:13 GMT-0500 (Central Daylight Time),290069.09999999404,A,whe,I,e,191,2,849.3000000119209,289219.7999999821,8014,WL,C,7.0
2,18.061999797821045,learn,41938.000202178955,Fri May 02 2025 14:03:13 GMT-0500 (Central Daylight Time),290369.09999999404,A,whea,I,a,279,2,1149.300000011921,289219.7999999821,8014,WL,C,7.0
2,18.227999925613403,learn,41772.0000743866,Fri May 02 2025 14:03:13 GMT-0500 (Central Daylight Time),290535.6999999881,A,wheat,I,t,156,2,1315.9000000059605,289219.7999999821,8014,WL,C,7.0
2,18.911999940872192,learn,41088.00005912781,Fri May 02 2025 14:03:13 GMT-0500 (Central Daylight Time),291219.09999999404,A,wheatenter,I,enter,669,2,1999.300000011921,289219.7999999821,8014,WL,C,7.0
2,19.378000020980835,learn,40621.999979019165,Fri May 02 2025 14:03:13 GMT-0500 (Central Daylight Time),291685.40000000596,A,d,I,d,457,2,465.7000000178814,291219.6999999881,8014,WL,C,8.0
2,19.628000020980835,learn,40371.999979019165,Fri May 02 2025 14:03:13 GMT-0500 (Central Daylight Time),291935.1999999881,A,do,I,o,231,2,715.5,291219.6999999881,8014,WL,C,8.0
2,19.8439998626709,learn,40156.0001373291,Fri May 02 2025 14:03:13 GMT-0500 (Central Daylight Time),292151.7999999821,A,doc,I,c,205,2,932.0999999940395,291219.6999999881,8014,WL,C,8.0
2,20.227999925613403,learn,39772.0000743866,Fri May 02 2025 14:03:13 GMT-0500 (Central Daylight Time),292535.2999999821,A,doct,I,t,373,2,1315.5999999940395,291219.6999999881,8014,WL,C,8.0
2,20.42799997329712,learn,39572.00002670288,Fri May 02 2025 14:03:13 GMT-0500 (Central Daylight Time),292735.1999999881,A,docto,I,o,190,2,1515.5,291219.6999999881,8014,WL,C,8.0
2,20.628999948501587,learn,39371.00005149841,Fri May 02 2025 14:03:13 GMT-0500 (Central Daylight Time),292936.1999999881,A,doctor,I,r,181,2,1716.5,291219.6999999881,8014,WL,C,8.0
2,21.110999822616577,learn,38889.00017738342,Fri May 02 2025 14:03:13 GMT-0500 (Central Daylight Time),293418.1999999881,A,doctorenter,I,enter,461,2,2198.5,291219.6999999881,8014,WL,C,8.0
2,21.66100001335144,learn,38338.99998664856,Fri May 02 2025 14:03:13 GMT-0500 (Central Daylight Time),293968.09999999404,A,c,I,c,530,2,549.5,293418.59999999404,8014,WL,C,9.0
2,22.459999799728394,learn,37540.00020027161,Fri May 02 2025 14:03:13 GMT-0500 (Central Daylight Time),294767.6999999881,A,,I,backspace,780,2,1349.0999999940395,293418.59999999404,8014,WL,C,9.0
2,23.07699990272522,learn,36923.00009727478,Fri May 02 2025 14:03:13 GMT-0500 (Central Daylight Time),295384.1999999881,A,s,I,s,605,2,1965.5999999940395,293418.59999999404,8014,WL,C,9.0
2,23.22699999809265,learn,36773.00000190735,Fri May 02 2025 14:03:13 GMT-0500 (Central Daylight Time),295534.09999999404,A,sh,I,h,132,2,2115.5,293418.59999999404,8014,WL,C,9.0
2,23.709999799728394,learn,36290.00020027161,Fri May 02 2025 14:03:13 GMT-0500 (Central Daylight Time),296017.59999999404,A,sho,I,o,471,2,2599.0,293418.59999999404,8014,WL,C,9.0
2,24.276000022888184,learn,35723.99997711182,Fri May 02 2025 14:03:13 GMT-0500 (Central Daylight Time),296583.6999999881,A,shor,I,r,555,2,3165.0999999940395,293418.59999999404,8014,WL,C,9.0
2,24.47599983215332,learn,35524.00016784668,Fri May 02 2025 14:03:13 GMT-0500 (Central Daylight Time),296783.7999999821,A,shore,I,e,190,2,3365.199999988079,293418.59999999404,8014,WL,C,9.0
2,24.692999839782715,learn,35307.000160217285,Fri May 02 2025 14:03:13 GMT-0500 (Central Daylight Time),297000.40000000596,A,shoreenter,I,enter,197,2,3581.800000011921,293418.59999999404,8014,WL,C,9.0
2,25.192999839782715,learn,34807.000160217285,Fri May 02 2025 14:03:13 GMT-0500 (Central Daylight Time),297500.09999999404,A,q,I,q,484,2,499.19999998807907,297000.90000000596,8014,WL,C,10.0
2,25.526000022888184,learn,34473.99997711182,Fri May 02 2025 14:03:13 GMT-0500 (Central Daylight Time),297833.5,A,qu,I,u,320,2,832.5999999940395,297000.90000000596,8014,WL,C,10.0
2,25.741999864578247,learn,34258.00013542175,Fri May 02 2025 14:03:13 GMT-0500 (Central Daylight Time),298050.09999999404,A,que,I,e,203,2,1049.199999988079,297000.90000000596,8014,WL,C,10.0
2,25.908999919891357,learn,34091.00008010864,Fri May 02 2025 14:03:13 GMT-0500 (Central Daylight Time),298216.7999999821,A,quee,I,e,156,2,1215.8999999761581,297000.90000000596,8014,WL,C,10.0
2,26.05900001525879,learn,33940.99998474121,Fri May 02 2025 14:03:13 GMT-0500 (Central Daylight Time),298366.2999999821,A,queen,I,n,139,2,1365.3999999761581,297000.90000000596,8014,WL,C,10.0
2,26.70899987220764,learn,33291.00012779236,Fri May 02 2025 14:03:13 GMT-0500 (Central Daylight Time),299016.59999999404,A,queenenter,I,enter,630,2,2015.699999988079,297000.90000000596,8014,WL,C,10.0
2,29.274999856948853,learn,30725.000143051147,Fri May 02 2025 14:03:13 GMT-0500 (Central Daylight Time),301582.1999999881,A,l,I,l,2549,2,2565.2999999821186,299016.90000000596,8014,WL,C,11.0
2,29.524999856948853,learn,30475.000143051147,Fri May 02 2025 14:03:13 GMT-0500 (Central Daylight Time),301832.1999999881,A,le,I,e,239,2,2815.2999999821186,299016.90000000596,8014,WL,C,11.0
2,29.840999841690063,learn,30159.000158309937,Fri May 02 2025 14:03:13 GMT-0500 (Central Daylight Time),302148.6999999881,A,let,I,t,301,2,3131.7999999821186,299016.90000000596,8014,WL,C,11.0
2,29.990999937057495,learn,30009.000062942505,Fri May 02 2025 14:03:13 GMT-0500 (Central Daylight Time),302298.40000000596,A,lett,I,t,143,2,3281.5,299016.90000000596,8014,WL,C,11.0
2,30.157999992370605,learn,29842.000007629395,Fri May 02 2025 14:03:13 GMT-0500 (Central Daylight Time),302465.2999999821,A,lette,I,e,154,2,3448.399999976158,299016.90000000596,8014,WL,C,11.0
2,30.37399983406067,learn,29626.00016593933,Fri May 02 2025 14:03:13 GMT-0500 (Central Daylight Time),302681.90000000596,A,letter,I,r,196,2,3665.0,299016.90000000596,8014,WL,C,11.0
2,30.823999881744385,learn,29176.000118255615,Fri May 02 2025 14:03:13 GMT-0500 (Central Daylight Time),303131.7999999821,A,letterenter,I,enter,434,2,4114.899999976158,299016.90000000596,8014,WL,C,11.0
2,32.75699996948242,learn,27243.000030517578,Fri May 02 2025 14:03:13 GMT-0500 (Central Daylight Time),305064.1999999881,A,b,I,b,1913,2,1932.0,303132.1999999881,8014,WL,C,12.0
2,32.99000000953674,learn,27009.999990463257,Fri May 02 2025 14:03:13 GMT-0500 (Central Daylight Time),305297.6999999881,A,bo,I,o,221,2,2165.5,303132.1999999881,8014,WL,C,12.0
2,33.40599989891052,learn,26594.000101089478,Fri May 02 2025 14:03:13 GMT-0500 (Central Daylight Time),305713.90000000596,A,boy,I,y,411,2,2581.7000000178814,303132.1999999881,8014,WL,C,12.0
2,33.67400002479553,learn,26325.999975204468,Fri May 02 2025 14:03:13 GMT-0500 (Central Daylight Time),305981.09999999404,A,boyenter,I,enter,250,2,2848.9000000059605,303132.1999999881,8014,WL,C,12.0
2,34.20700001716614,learn,25792.999982833862,Fri May 02 2025 14:03:13 GMT-0500 (Central Daylight Time),306514.09999999404,A,b,I,b,512,2,532.6999999880791,305981.40000000596,8014,WL,C,13.0
2,34.4229998588562,learn,25577.0001411438,Fri May 02 2025 14:03:13 GMT-0500 (Central Daylight Time),306730.7999999821,A,bo,I,o,203,2,749.3999999761581,305981.40000000596,8014,WL,C,13.0
2,34.78999996185303,learn,25210.000038146973,Fri May 02 2025 14:03:13 GMT-0500 (Central Daylight Time),307097.2999999821,A,bod,I,d,354,2,1115.8999999761581,305981.40000000596,8014,WL,C,13.0
2,35.15599989891052,learn,24844.000101089478,Fri May 02 2025 14:03:13 GMT-0500 (Central Daylight Time),307463.90000000596,A,body,I,y,347,2,1482.5,305981.40000000596,8014,WL,C,13.0
2,36.03999996185303,learn,23960.000038146973,Fri May 02 2025 14:03:13 GMT-0500 (Central Daylight Time),308347.90000000596,A,bodyenter,I,enter,876,2,2366.5,305981.40000000596,8014,WL,C,13.0
2,40.6710000038147,learn,19328.999996185303,Fri May 02 2025 14:03:13 GMT-0500 (Central Daylight Time),312978.6999999881,A,h,I,h,4618,2,4630.5,308348.1999999881,8014,WL,C,14.0
2,40.870999813079834,learn,19129.000186920166,Fri May 02 2025 14:03:13 GMT-0500 (Central Daylight Time),313179.0,A,ho,I,o,187,2,4830.800000011921,308348.1999999881,8014,WL,C,14.0
2,41.08799982070923,learn,18912.00017929077,Fri May 02 2025 14:03:13 GMT-0500 (Central Daylight Time),313395.1999999881,A,hom,I,m,209,2,5047.0,308348.1999999881,8014,WL,C,14.0
2,41.33799982070923,learn,18662.00017929077,Fri May 02 2025 14:03:13 GMT-0500 (Central Daylight Time),313645.1999999881,A,home,I,e,242,2,5297.0,308348.1999999881,8014,WL,C,14.0
2,42.33699989318848,learn,17663.000106811523,Fri May 02 2025 14:03:13 GMT-0500 (Central Daylight Time),314644.90000000596,A,homeenter,I,enter,984,2,6296.700000017881,308348.1999999881,8014,WL,C,14.0
2,43.98699998855591,learn,16013.000011444092,Fri May 02 2025 14:03:13 GMT-0500 (Central Daylight Time),316294.2999999821,A,enter,I,enter,1632,2,1649.0,314645.2999999821,8014,WL,C,15.0
3,0.8830001354217529,learn,59116.99986457825,Fri May 02 2025 14:03:13 GMT-0500 (Central Daylight Time),384672.90000000596,A,t,I,t,872,2,883.0,383789.90000000596,8014,WL,C,1.0
3,1.1500000953674316,learn,58849.99990463257,Fri May 02 2025 14:03:13 GMT-0500 (Central Daylight Time),384939.59999999404,A,to,I,o,252,2,1149.699999988079,383789.90000000596,8014,WL,C,1.0
3,1.4660000801086426,learn,58533.99991989136,Fri May 02 2025 14:03:13 GMT-0500 (Central Daylight Time),385256.09999999404,A,tow,I,w,305,2,1466.199999988079,383789.90000000596,8014,WL,C,1.0
3,1.683000087738037,learn,58316.99991226196,Fri May 02 2025 14:03:13 GMT-0500 (Central Daylight Time),385472.6999999881,A,towe,I,e,205,2,1682.7999999821186,383789.90000000596,8014,WL,C,1.0
3,1.8989999294281006,learn,58101.0000705719,Fri May 02 2025 14:03:13 GMT-0500 (Central Daylight Time),385689.09999999404,A,tower,I,r,196,2,1899.199999988079,383789.90000000596,8014,WL,C,1.0
3,2.3329999446868896,learn,57667.00005531311,Fri May 02 2025 14:03:13 GMT-0500 (Central Daylight Time),386122.40000000596,A,towerenter,I,enter,420,2,2332.5,383789.90000000596,8014,WL,C,1.0
3,2.7320001125335693,learn,57267.99988746643,Fri May 02 2025 14:03:13 GMT-0500 (Central Daylight Time),386522.09999999404,A,s,I,s,395,2,399.30000001192093,386122.7999999821,8014,WL,C,2.0
3,3.0829999446868896,learn,56917.00005531311,Fri May 02 2025 14:03:13 GMT-0500 (Central Daylight Time),386872.2999999821,A,su,I,u,330,2,749.5,386122.7999999821,8014,WL,C,2.0
3,3.749000072479248,learn,56250.99992752075,Fri May 02 2025 14:03:13 GMT-0500 (Central Daylight Time),387538.59999999404,A,sug,I,g,661,2,1415.800000011921,386122.7999999821,8014,WL,C,2.0
3,3.9160001277923584,learn,56083.99987220764,Fri May 02 2025 14:03:13 GMT-0500 (Central Daylight Time),387705.5,A,suga,I,a,146,2,1582.7000000178814,386122.7999999821,8014,WL,C,2.0
3,4.249000072479248,learn,55750.99992752075,Fri May 02 2025 14:03:13 GMT-0500 (Central Daylight Time),388038.5,A,sugar,I,r,323,2,1915.7000000178814,386122.7999999821,8014,WL,C,2.0
3,4.499000072479248,learn,55500.99992752075,Fri May 02 2025 14:03:13 GMT-0500 (Central Daylight Time),388288.2999999821,A,sugarenter,I,enter,239,2,2165.5,386122.7999999821,8014,WL,C,2.0
3,4.881999969482422,learn,55118.00003051758,Fri May 02 2025 14:03:13 GMT-0500 (Central Daylight Time),388671.6999999881,A,c,I,c,364,2,383.09999999403954,388288.59999999404,8014,WL,C,3.0
3,5.131999969482422,learn,54868.00003051758,Fri May 02 2025 14:03:13 GMT-0500 (Central Daylight Time),388922.0,A,co,I,o,246,2,633.4000000059605,388288.59999999404,8014,WL,C,3.0
3,5.398999929428101,learn,54601.0000705719,Fri May 02 2025 14:03:13 GMT-0500 (Central Daylight Time),389188.1999999881,A,cor,I,r,259,2,899.5999999940395,388288.59999999404,8014,WL,C,3.0
3,5.648000001907349,learn,54351.99999809265,Fri May 02 2025 14:03:13 GMT-0500 (Central Daylight Time),389438.0,A,corn,I,n,232,2,1149.4000000059605,388288.59999999404,8014,WL,C,3.0
3,6.248000144958496,learn,53751.999855041504,Fri May 02 2025 14:03:13 GMT-0500 (Central Daylight Time),390037.7999999821,A,cornenter,I,enter,582,2,1749.199999988079,388288.59999999404,8014,WL,C,3.0
3,6.581000089645386,learn,53418.999910354614,Fri May 02 2025 14:03:13 GMT-0500 (Central Daylight Time),390371.09999999404,A,w,I,w,327,2,333.0,390038.09999999404,8014,WL,C,4.0
3,6.865000009536743,learn,53134.99999046326,Fri May 02 2025 14:03:13 GMT-0500 (Central Daylight Time),390654.40000000596,A,wh,I,h,273,2,616.3000000119209,390038.09999999404,8014,WL,C,4.0
3,7.031000137329102,learn,52968.9998626709,Fri May 02 2025 14:03:13 GMT-0500 (Central Daylight Time),390820.7999999821,A,whe,I,e,151,2,782.6999999880791,390038.09999999404,8014,WL,C,4.0
3,7.315000057220459,learn,52684.99994277954,Fri May 02 2025 14:03:13 GMT-0500 (Central Daylight Time),391104.1999999881,A,whea,I,a,273,2,1066.0999999940395,390038.09999999404,8014,WL,C,4.0
3,7.54800009727478,learn,52451.99990272522,Fri May 02 2025 14:03:13 GMT-0500 (Central Daylight Time),391337.7999999821,A,wheat,I,t,228,2,1299.699999988079,390038.09999999404,8014,WL,C,4.0
3,8.398000001907349,learn,51601.99999809265,Fri May 02 2025 14:03:13 GMT-0500 (Central Daylight Time),392187.1999999881,A,wheatenter,I,enter,844,2,2149.0999999940395,390038.09999999404,8014,WL,C,4.0
3,9.013999938964844,learn,50986.000061035156,Fri May 02 2025 14:03:13 GMT-0500 (Central Daylight Time),392803.6999999881,A,h,I,h,601,2,616.2999999821186,392187.40000000596,8014,WL,C,5.0
3,9.180999994277954,learn,50819.000005722046,Fri May 02 2025 14:03:13 GMT-0500 (Central Daylight Time),392970.2999999821,A,ho,I,o,154,2,782.8999999761581,392187.40000000596,8014,WL,C,5.0
3,9.430999994277954,learn,50569.000005722046,Fri May 02 2025 14:03:13 GMT-0500 (Central Daylight Time),393220.1999999881,A,hom,I,m,242,2,1032.7999999821186,392187.40000000596,8014,WL,C,5.0
3,9.847000122070312,learn,50152.99987792969,Fri May 02 2025 14:03:13 GMT-0500 (Central Daylight Time),393637.09999999404,A,home,I,e,409,2,1449.699999988079,392187.40000000596,8014,WL,C,5.0
3,10.263999938964844,learn,49736.000061035156,Fri May 02 2025 14:03:13 GMT-0500 (Central Daylight Time),394053.59999999404,A,homeenter,I,enter,407,2,1866.199999988079,392187.40000000596,8014,WL,C,5.0
3,10.880000114440918,learn,49119.99988555908,Fri May 02 2025 14:03:13 GMT-0500 (Central Daylight Time),394669.90000000596,A,b,I,b,608,2,616.0,394053.90000000596,8014,WL,C,6.0
3,12.413000106811523,learn,47586.99989318848,Fri May 02 2025 14:03:13 GMT-0500 (Central Daylight Time),396202.2999999821,A,bo,I,o,1527,2,2148.399999976158,394053.90000000596,8014,WL,C,6.0
3,12.828999996185303,learn,47171.0000038147,Fri May 02 2025 14:03:13 GMT-0500 (Central Daylight Time),396619.09999999404,A,boy,I,y,410,2,2565.199999988079,394053.90000000596,8014,WL,C,6.0
3,13.163000106811523,learn,46836.99989318848,Fri May 02 2025 14:03:13 GMT-0500 (Central Daylight Time),396952.5,A,boyenter,I,enter,323,2,2898.5999999940395,394053.90000000596,8014,WL,C,6.0
3,13.529000043869019,learn,46470.99995613098,Fri May 02 2025 14:03:13 GMT-0500 (Central Daylight Time),397319.0,A,b,I,b,349,2,366.2000000178814,396952.7999999821,8014,WL,C,7.0
3,13.796000003814697,learn,46203.9999961853,Fri May 02 2025 14:03:13 GMT-0500 (Central Daylight Time),397585.5,A,bo,I,o,255,2,632.7000000178814,396952.7999999821,8014,WL,C,7.0
3,14.696000099182129,learn,45303.99990081787,Fri May 02 2025 14:03:13 GMT-0500 (Central Daylight Time),398485.5,A,bod,I,d,884,2,1532.7000000178814,396952.7999999821,8014,WL,C,7.0
3,15.062000036239624,learn,44937.999963760376,Fri May 02 2025 14:03:13 GMT-0500 (Central Daylight Time),398851.90000000596,A,body,I,y,360,2,1899.1000000238419,396952.7999999821,8014,WL,C,7.0
3,15.490999937057495,learn,44509.000062942505,Fri May 02 2025 14:03:13 GMT-0500 (Central Daylight Time),399280.6999999881,A,bodyenter,I,enter,407,2,2327.9000000059605,396952.7999999821,8014,WL,C,7.0
3,15.84500002861023,learn,44154.99997138977,Fri May 02 2025 14:03:13 GMT-0500 (Central Daylight Time),399634.7999999821,A,h,I,h,340,2,353.7999999821186,399281.0,8014,WL,C,8.0
3,16.062000036239624,learn,43937.999963760376,Fri May 02 2025 14:03:13 GMT-0500 (Central Daylight Time),399851.2999999821,A,ho,I,o,210,2,570.2999999821186,399281.0,8014,WL,C,8.0
3,16.361999988555908,learn,43638.00001144409,Fri May 02 2025 14:03:13 GMT-0500 (Central Daylight Time),400151.59999999404,A,hom,I,m,281,2,870.5999999940395,399281.0,8014,WL,C,8.0
3,16.578999996185303,learn,43421.0000038147,Fri May 02 2025 14:03:13 GMT-0500 (Central Daylight Time),400368.5,A,home,I,e,198,2,1087.5,399281.0,8014,WL,C,8.0
3,17.045000076293945,learn,42954.999923706055,Fri May 02 2025 14:03:13 GMT-0500 (Central Daylight Time),400834.2999999821,A,homeenter,I,enter,460,2,1553.2999999821186,399281.0,8014,WL,C,8.0
3,17.477999925613403,learn,42522.0000743866,Fri May 02 2025 14:03:13 GMT-0500 (Central Daylight Time),401267.6999999881,A,c,I,c,418,2,433.19999998807907,400834.5,8014,WL,C,9.0
3,17.92799997329712,learn,42072.00002670288,Fri May 02 2025 14:03:13 GMT-0500 (Central Daylight Time),401717.6999999881,A,ca,I,a,441,2,883.1999999880791,400834.5,8014,WL,C,9.0
3,18.344000101089478,learn,41655.99989891052,Fri May 02 2025 14:03:13 GMT-0500 (Central Daylight Time),402134.0,A,cat,I,t,399,2,1299.5,400834.5,8014,WL,C,9.0
3,18.511000156402588,learn,41488.99984359741,Fri May 02 2025 14:03:13 GMT-0500 (Central Daylight Time),402300.7999999821,A,catt,I,t,158,2,1466.2999999821186,400834.5,8014,WL,C,9.0
3,18.67799997329712,learn,41322.00002670288,Fri May 02 2025 14:03:13 GMT-0500 (Central Daylight Time),402467.5,A,cattl,I,l,160,2,1633.0,400834.5,8014,WL,C,9.0
3,18.960999965667725,learn,41039.000034332275,Fri May 02 2025 14:03:13 GMT-0500 (Central Daylight Time),402750.59999999404,A,cattle,I,e,266,2,1916.0999999940395,400834.5,8014,WL,C,9.0
3,19.526999950408936,learn,40473.000049591064,Fri May 02 2025 14:03:13 GMT-0500 (Central Daylight Time),403317.0,A,cattleenter,I,enter,550,2,2482.5,400834.5,8014,WL,C,9.0
3,20.66000008583069,learn,39339.99991416931,Fri May 02 2025 14:03:13 GMT-0500 (Central Daylight Time),404449.90000000596,A,n,I,n,1119,2,1132.6000000238419,403317.2999999821,8014,WL,C,10.0
3,20.927000045776367,learn,39072.99995422363,Fri May 02 2025 14:03:13 GMT-0500 (Central Daylight Time),404716.6999999881,A,na,I,a,250,2,1399.4000000059605,403317.2999999821,8014,WL,C,10.0
3,21.127000093460083,learn,38872.99990653992,Fri May 02 2025 14:03:13 GMT-0500 (Central Daylight Time),404916.5,A,nai,I,i,184,2,1599.2000000178814,403317.2999999821,8014,WL,C,10.0
3,21.39400005340576,learn,38605.99994659424,Fri May 02 2025 14:03:13 GMT-0500 (Central Daylight Time),405183.09999999404,A,nail,I,l,257,2,1865.800000011921,403317.2999999821,8014,WL,C,10.0
3,22.0770001411438,learn,37922.9998588562,Fri May 02 2025 14:03:13 GMT-0500 (Central Daylight Time),405866.40000000596,A,nailenter,I,enter,670,2,2549.100000023842,403317.2999999821,8014,WL,C,10.0
3,24.075999975204468,learn,35924.00002479553,Fri May 02 2025 14:03:13 GMT-0500 (Central Daylight Time),407865.6999999881,A,s,I,s,1994,2,1999.0,405866.6999999881,8014,WL,C,11.0
3,24.292999982833862,learn,35707.00001716614,Fri May 02 2025 14:03:13 GMT-0500 (Central Daylight Time),408082.1999999881,A,sh,I,h,195,2,2215.5,405866.6999999881,8014,WL,C,11.0
3,24.80900001525879,learn,35190.99998474121,Fri May 02 2025 14:03:13 GMT-0500 (Central Daylight Time),408598.7999999821,A,sho,I,o,506,2,2732.0999999940395,405866.6999999881,8014,WL,C,11.0
3,25.176000118255615,learn,34823.999881744385,Fri May 02 2025 14:03:13 GMT-0500 (Central Daylight Time),408965.5,A,shor,I,r,349,2,3098.800000011921,405866.6999999881,8014,WL,C,11.0
3,25.54200005531311,learn,34457.99994468689,Fri May 02 2025 14:03:13 GMT-0500 (Central Daylight Time),409331.7999999821,A,shore,I,e,352,2,3465.0999999940395,405866.6999999881,8014,WL,C,11.0
3,25.79200005531311,learn,34207.99994468689,Fri May 02 2025 14:03:13 GMT-0500 (Central Daylight Time),409581.59999999404,A,shoreenter,I,enter,241,2,3714.9000000059605,405866.6999999881,8014,WL,C,11.0
3,26.159000158309937,learn,33840.99984169006,Fri May 02 2025 14:03:13 GMT-0500 (Central Daylight Time),409948.2999999821,A,s,I,s,361,2,366.39999997615814,409581.90000000596,8014,WL,C,12.0
3,26.842000007629395,learn,33157.999992370605,Fri May 02 2025 14:03:13 GMT-0500 (Central Daylight Time),410631.40000000596,A,,I,backspace,665,2,1049.5,409581.90000000596,8014,WL,C,12.0
3,27.39199995994568,learn,32608.00004005432,Fri May 02 2025 14:03:13 GMT-0500 (Central Daylight Time),411181.40000000596,A,c,I,c,534,2,1599.5,409581.90000000596,8014,WL,C,12.0
3,27.825000047683716,learn,32174.999952316284,Fri May 02 2025 14:03:13 GMT-0500 (Central Daylight Time),411614.40000000596,A,ca,I,a,424,2,2032.5,409581.90000000596,8014,WL,C,12.0
3,28.60800004005432,learn,31391.99995994568,Fri May 02 2025 14:03:13 GMT-0500 (Central Daylight Time),412397.59999999404,A,can,I,n,775,2,2815.699999988079,409581.90000000596,8014,WL,C,12.0
3,29.374000072479248,learn,30625.999927520752,Fri May 02 2025 14:03:13 GMT-0500 (Central Daylight Time),413163.7999999821,A,ca,I,backspace,759,2,3581.899999976158,409581.90000000596,8014,WL,C,12.0
3,30.074000120162964,learn,29925.999879837036,Fri May 02 2025 14:03:13 GMT-0500 (Central Daylight Time),413863.90000000596,A,cam,I,m,680,2,4282.0,409581.90000000596,8014,WL,C,12.0
3,30.324000120162964,learn,29675.999879837036,Fri May 02 2025 14:03:13 GMT-0500 (Central Daylight Time),414113.7999999821,A,camp,I,p,245,2,4531.899999976158,409581.90000000596,8014,WL,C,12.0
3,31.124000072479248,learn,28875.999927520752,Fri May 02 2025 14:03:13 GMT-0500 (Central Daylight Time),414913.59999999404,A,campenter,I,enter,787,2,5331.699999988079,409581.90000000596,8014,WL,C,12.0
3,33.25699996948242,learn,26743.000030517578,Fri May 02 2025 14:03:13 GMT-0500 (Central Daylight Time),417046.2999999821,A,c,I,c,2116,2,2132.399999976158,414913.90000000596,8014,WL,C,13.0
3,33.623000144958496,learn,26376.999855041504,Fri May 02 2025 14:03:13 GMT-0500 (Central Daylight Time),417412.59999999404,A,ca,I,a,358,2,2498.699999988079,414913.90000000596,8014,WL,C,13.0
3,34.055999994277954,learn,25944.000005722046,Fri May 02 2025 14:03:13 GMT-0500 (Central Daylight Time),417845.7999999821,A,cat,I,t,416,2,2931.899999976158,414913.90000000596,8014,WL,C,13.0
3,34.206000089645386,learn,25793.999910354614,Fri May 02 2025 14:03:13 GMT-0500 (Central Daylight Time),417995.7999999821,A,catt,I,t,135,2,3081.899999976158,414913.90000000596,8014,WL,C,13.0
3,34.373000144958496,learn,25626.999855041504,Fri May 02 2025 14:03:13 GMT-0500 (Central Daylight Time),418162.2999999821,A,cattl,I,l,153,2,3248.399999976158,414913.90000000596,8014,WL,C,13.0
3,34.638999938964844,learn,25361.000061035156,Fri May 02 2025 14:03:13 GMT-0500 (Central Daylight Time),418428.7999999821,A,cattle,I,e,259,2,3514.899999976158,414913.90000000596,8014,WL,C,13.0
3,35.08899998664856,learn,24911.00001335144,Fri May 02 2025 14:03:13 GMT-0500 (Central Daylight Time),418878.90000000596,A,cattleenter,I,enter,440,2,3965.0,414913.90000000596,8014,WL,C,13.0
3,36.621999979019165,learn,23378.000020980835,Fri May 02 2025 14:03:13 GMT-0500 (Central Daylight Time),420411.6999999881,A,s,I,s,1526,2,1532.5999999940395,418879.09999999404,8014,WL,C,14.0
3,36.83899998664856,learn,23161.00001335144,Fri May 02 2025 14:03:13 GMT-0500 (Central Daylight Time),420628.59999999404,A,su,I,u,201,2,1749.5,418879.09999999404,8014,WL,C,14.0
3,37.204999923706055,learn,22795.000076293945,Fri May 02 2025 14:03:13 GMT-0500 (Central Daylight Time),420994.59999999404,A,sug,I,g,360,2,2115.5,418879.09999999404,8014,WL,C,14.0
3,37.63800001144409,learn,22361.99998855591,Fri May 02 2025 14:03:13 GMT-0500 (Central Daylight Time),421428.0,A,suge,I,e,418,2,2548.9000000059605,418879.09999999404,8014,WL,C,14.0
3,37.92199993133545,learn,22078.00006866455,Fri May 02 2025 14:03:13 GMT-0500 (Central Daylight Time),421711.40000000596,A,suger,I,r,265,2,2832.300000011921,418879.09999999404,8014,WL,C,14.0
3,38.17199993133545,learn,21828.00006866455,Fri May 02 2025 14:03:13 GMT-0500 (Central Daylight Time),421961.2999999821,A,sugerenter,I,enter,229,2,3082.199999988079,418879.09999999404,8014,WL,C,14.0
3,39.9210000038147,learn,20078.999996185303,Fri May 02 2025 14:03:13 GMT-0500 (Central Daylight Time),423710.6999999881,A,n,I,n,1732,2,1749.0999999940395,421961.59999999404,8014,WL,C,15.0
3,40.12100005149841,learn,19878.999948501587,Fri May 02 2025 14:03:13 GMT-0500 (Central Daylight Time),423910.59999999404,A,na,I,a,190,2,1949.0,421961.59999999404,8014,WL,C,15.0
3,40.38800001144409,learn,19611.99998855591,Fri May 02 2025 14:03:13 GMT-0500 (Central Daylight Time),424177.40000000596,A,nai,I,i,246,2,2215.800000011921,421961.59999999404,8014,WL,C,15.0
3,40.621999979019165,learn,19378.000020980835,Fri May 02 2025 14:03:13 GMT-0500 (Central Daylight Time),424411.5,A,nail,I,l,227,2,2449.9000000059605,421961.59999999404,8014,WL,C,15.0
3,41.854000091552734,learn,18145.999908447266,Fri May 02 2025 14:03:13 GMT-0500 (Central Daylight Time),425643.5,A,nailenter,I,enter,1218,2,3681.9000000059605,421961.59999999404,8014,WL,C,15.0
4,0.999000072479248,learn,59000.99992752075,Fri May 02 2025 14:03:13 GMT-0500 (Central Daylight Time),493772.1999999881,A,f,I,f,985,2,999.5,492772.6999999881,8014,WL,C,1.0
4,1.2320001125335693,learn,58767.99988746643,Fri May 02 2025 14:03:13 GMT-0500 (Central Daylight Time),494005.1999999881,A,fl,I,l,225,2,1232.5,492772.6999999881,8014,WL,C,1.0
4,1.5490000247955322,learn,58450.99997520447,Fri May 02 2025 14:03:13 GMT-0500 (Central Daylight Time),494322.09999999404,A,fla,I,a,312,2,1549.4000000059605,492772.6999999881,8014,WL,C,1.0
4,2.0160000324249268,learn,57983.99996757507,Fri May 02 2025 14:03:13 GMT-0500 (Central Daylight Time),494788.5,A,flag,I,g,451,2,2015.800000011921,492772.6999999881,8014,WL,C,1.0
4,2.631999969482422,learn,57368.00003051758,Fri May 02 2025 14:03:13 GMT-0500 (Central Daylight Time),495404.7999999821,A,flagenter,I,enter,601,2,2632.0999999940395,492772.6999999881,8014,WL,C,1.0
4,3.497999906539917,learn,56502.00009346008,Fri May 02 2025 14:03:13 GMT-0500 (Central Daylight Time),496271.1999999881,A,l,I,l,849,2,866.0999999940395,495405.09999999404,8014,WL,C,2.0
4,3.7149999141693115,learn,56285.00008583069,Fri May 02 2025 14:03:13 GMT-0500 (Central Daylight Time),496487.7999999821,A,le,I,e,197,2,1082.699999988079,495405.09999999404,8014,WL,C,2.0
4,4.065000057220459,learn,55934.99994277954,Fri May 02 2025 14:03:13 GMT-0500 (Central Daylight Time),496837.7999999821,A,let,I,t,341,2,1432.699999988079,495405.09999999404,8014,WL,C,2.0
4,4.247999906539917,learn,55752.00009346008,Fri May 02 2025 14:03:13 GMT-0500 (Central Daylight Time),497021.0,A,lett,I,t,174,2,1615.9000000059605,495405.09999999404,8014,WL,C,2.0
4,4.5309998989105225,learn,55469.00010108948,Fri May 02 2025 14:03:13 GMT-0500 (Central Daylight Time),497304.1999999881,A,lette,I,e,264,2,1899.0999999940395,495405.09999999404,8014,WL,C,2.0
4,4.765000104904175,learn,55234.999895095825,Fri May 02 2025 14:03:13 GMT-0500 (Central Daylight Time),497537.7999999821,A,letter,I,r,213,2,2132.699999988079,495405.09999999404,8014,WL,C,2.0
4,5.148000001907349,learn,54851.99999809265,Fri May 02 2025 14:03:13 GMT-0500 (Central Daylight Time),497920.6999999881,A,letterenter,I,enter,363,2,2515.5999999940395,495405.09999999404,8014,WL,C,2.0
4,6.180999994277954,learn,53819.000005722046,Fri May 02 2025 14:03:13 GMT-0500 (Central Daylight Time),498953.7999999821,A,s,I,s,1028,2,1032.7999999821186,497921.0,8014,WL,C,3.0
4,6.29800009727478,learn,53701.99990272522,Fri May 02 2025 14:03:13 GMT-0500 (Central Daylight Time),499070.2999999821,A,sh,I,h,107,2,1149.2999999821186,497921.0,8014,WL,C,3.0
4,6.7809998989105225,learn,53219.00010108948,Fri May 02 2025 14:03:13 GMT-0500 (Central Daylight Time),499553.59999999404,A,sho,I,o,470,2,1632.5999999940395,497921.0,8014,WL,C,3.0
4,7.063999891281128,learn,52936.00010871887,Fri May 02 2025 14:03:13 GMT-0500 (Central Daylight Time),499836.90000000596,A,shor,I,r,276,2,1915.9000000059605,497921.0,8014,WL,C,3.0
4,7.296999931335449,learn,52703.00006866455,Fri May 02 2025 14:03:13 GMT-0500 (Central Daylight Time),500069.7999999821,A,shore,I,e,215,2,2148.7999999821186,497921.0,8014,WL,C,3.0
4,7.563999891281128,learn,52436.00010871887,Fri May 02 2025 14:03:13 GMT-0500 (Central Daylight Time),500336.90000000596,A,shoreenter,I,enter,255,2,2415.9000000059605,497921.0,8014,WL,C,3.0
4,8.329999923706055,learn,51670.000076293945,Fri May 02 2025 14:03:13 GMT-0500 (Central Daylight Time),501103.0,A,c,I,c,756,2,765.5999999940395,500337.40000000596,8014,WL,C,4.0
4,8.746999979019165,learn,51253.000020980835,Fri May 02 2025 14:03:13 GMT-0500 (Central Daylight Time),501519.6999999881,A,ca,I,a,405,2,1182.2999999821186,500337.40000000596,8014,WL,C,4.0
4,8.980999946594238,learn,51019.00005340576,Fri May 02 2025 14:03:13 GMT-0500 (Central Daylight Time),501753.6999999881,A,cam,I,m,229,2,1416.2999999821186,500337.40000000596,8014,WL,C,4.0
4,10.196000099182129,learn,49803.99990081787,Fri May 02 2025 14:03:13 GMT-0500 (Central Daylight Time),502969.09999999404,A,camp,I,p,1195,2,2631.699999988079,500337.40000000596,8014,WL,C,4.0
4,10.812999963760376,learn,49187.000036239624,Fri May 02 2025 14:03:13 GMT-0500 (Central Daylight Time),503585.59999999404,A,campenter,I,enter,604,2,3248.199999988079,500337.40000000596,8014,WL,C,4.0
4,11.645999908447266,learn,48354.000091552734,Fri May 02 2025 14:03:13 GMT-0500 (Central Daylight Time),504418.59999999404,A,w,I,w,819,2,832.6999999880791,503585.90000000596,8014,WL,C,5.0
4,11.828999996185303,learn,48171.0000038147,Fri May 02 2025 14:03:13 GMT-0500 (Central Daylight Time),504601.90000000596,A,wh,I,h,179,2,1016.0,503585.90000000596,8014,WL,C,5.0
4,11.979000091552734,learn,48020.999908447266,Fri May 02 2025 14:03:13 GMT-0500 (Central Daylight Time),504752.0,A,whe,I,e,139,2,1166.0999999940395,503585.90000000596,8014,WL,C,5.0
4,12.279000043869019,learn,47720.99995613098,Fri May 02 2025 14:03:13 GMT-0500 (Central Daylight Time),505051.7999999821,A,whea,I,a,285,2,1465.8999999761581,503585.90000000596,8014,WL,C,5.0
4,12.446000099182129,learn,47553.99990081787,Fri May 02 2025 14:03:13 GMT-0500 (Central Daylight Time),505218.59999999404,A,wheat,I,t,154,2,1632.699999988079,503585.90000000596,8014,WL,C,5.0
4,13.178999900817871,learn,46821.00009918213,Fri May 02 2025 14:03:13 GMT-0500 (Central Daylight Time),505951.40000000596,A,wheatenter,I,enter,722,2,2365.5,503585.90000000596,8014,WL,C,5.0
4,13.628999948501587,learn,46371.00005149841,Fri May 02 2025 14:03:13 GMT-0500 (Central Daylight Time),506401.5,A,q,I,q,438,2,449.80000001192093,505951.6999999881,8014,WL,C,6.0
4,14.51200008392334,learn,45487.99991607666,Fri May 02 2025 14:03:13 GMT-0500 (Central Daylight Time),507284.40000000596,A,qu,I,u,876,2,1332.7000000178814,505951.6999999881,8014,WL,C,6.0
4,14.694999933242798,learn,45305.0000667572,Fri May 02 2025 14:03:13 GMT-0500 (Central Daylight Time),507467.6999999881,A,que,I,e,169,2,1516.0,505951.6999999881,8014,WL,C,6.0
4,14.878000020980835,learn,45121.999979019165,Fri May 02 2025 14:03:13 GMT-0500 (Central Daylight Time),507651.09999999404,A,quee,I,e,170,2,1699.4000000059605,505951.6999999881,8014,WL,C,6.0
4,15.211999893188477,learn,44788.00010681152,Fri May 02 2025 14:03:13 GMT-0500 (Central Daylight Time),507984.2999999821,A,queen,I,n,314,2,2032.5999999940395,505951.6999999881,8014,WL,C,6.0
4,15.861000061035156,learn,44138.999938964844,Fri May 02 2025 14:03:13 GMT-0500 (Central Daylight Time),508634.0,A,queenenter,I,enter,637,2,2682.300000011921,505951.6999999881,8014,WL,C,6.0
4,16.460999965667725,learn,43539.000034332275,Fri May 02 2025 14:03:13 GMT-0500 (Central Daylight Time),509233.7999999821,A,s,I,s,587,2,599.3999999761581,508634.40000000596,8014,WL,C,7.0
4,16.74399995803833,learn,43256.00004196167,Fri May 02 2025 14:03:13 GMT-0500 (Central Daylight Time),509517.09999999404,A,su,I,u,274,2,882.6999999880791,508634.40000000596,8014,WL,C,7.0
4,17.01099991798401,learn,42989.00008201599,Fri May 02 2025 14:03:13 GMT-0500 (Central Daylight Time),509783.6999999881,A,sug,I,g,255,2,1149.2999999821186,508634.40000000596,8014,WL,C,7.0
4,17.276999950408936,learn,42723.000049591064,Fri May 02 2025 14:03:13 GMT-0500 (Central Daylight Time),510050.09999999404,A,suga,I,a,262,2,1415.699999988079,508634.40000000596,8014,WL,C,7.0
4,17.66100001335144,learn,42338.99998664856,Fri May 02 2025 14:03:13 GMT-0500 (Central Daylight Time),510433.59999999404,A,sugar,I,r,371,2,1799.199999988079,508634.40000000596,8014,WL,C,7.0
4,17.944000005722046,learn,42055.999994277954,Fri May 02 2025 14:03:13 GMT-0500 (Central Daylight Time),510716.6999999881,A,sugarenter,I,enter,268,2,2082.2999999821186,508634.40000000596,8014,WL,C,7.0
4,20.07699990272522,learn,39923.00009727478,Fri May 02 2025 14:03:13 GMT-0500 (Central Daylight Time),512849.59999999404,A,d,I,d,2112,2,2132.5,510717.09999999404,8014,WL,C,8.0
4,20.575999975204468,learn,39424.00002479553,Fri May 02 2025 14:03:13 GMT-0500 (Central Daylight Time),513349.2999999821,A,do,I,o,484,2,2632.199999988079,510717.09999999404,8014,WL,C,8.0
4,20.72699999809265,learn,39273.00000190735,Fri May 02 2025 14:03:13 GMT-0500 (Central Daylight Time),513499.2999999821,A,doc,I,c,143,2,2782.199999988079,510717.09999999404,8014,WL,C,8.0
4,21.026000022888184,learn,38973.99997711182,Fri May 02 2025 14:03:13 GMT-0500 (Central Daylight Time),513799.0,A,doct,I,t,289,2,3081.9000000059605,510717.09999999404,8014,WL,C,8.0
4,21.176000118255615,learn,38823.999881744385,Fri May 02 2025 14:03:13 GMT-0500 (Central Daylight Time),513948.90000000596,A,docto,I,o,134,2,3231.800000011921,510717.09999999404,8014,WL,C,8.0
4,21.325999975204468,learn,38674.00002479553,Fri May 02 2025 14:03:13 GMT-0500 (Central Daylight Time),514098.90000000596,A,doctor,I,r,136,2,3381.800000011921,510717.09999999404,8014,WL,C,8.0
4,22.05900001525879,learn,37940.99998474121,Fri May 02 2025 14:03:13 GMT-0500 (Central Daylight Time),514832.09999999404,A,doctorenter,I,enter,715,2,4115.0,510717.09999999404,8014,WL,C,8.0
4,23.125999927520752,learn,36874.00007247925,Fri May 02 2025 14:03:13 GMT-0500 (Central Daylight Time),515898.40000000596,A,h,I,h,1053,2,1066.0,514832.40000000596,8014,WL,C,9.0
4,23.4760000705719,learn,36523.9999294281,Fri May 02 2025 14:03:13 GMT-0500 (Central Daylight Time),516248.40000000596,A,ho,I,o,339,2,1416.0,514832.40000000596,8014,WL,C,9.0
4,23.743000030517578,learn,36256.99996948242,Fri May 02 2025 14:03:13 GMT-0500 (Central Daylight Time),516515.90000000596,A,hom,I,m,260,2,1683.5,514832.40000000596,8014,WL,C,9.0
4,24.236000061035156,learn,35763.999938964844,Fri May 02 2025 14:03:13 GMT-0500 (Central Daylight Time),517008.2999999821,A,home,I,e,487,2,2175.899999976158,514832.40000000596,8014,WL,C,9.0
4,24.526000022888184,learn,35473.99997711182,Fri May 02 2025 14:03:13 GMT-0500 (Central Daylight Time),517298.1999999881,A,homeenter,I,enter,268,2,2465.7999999821186,514832.40000000596,8014,WL,C,9.0
4,25.007999897003174,learn,34992.000102996826,Fri May 02 2025 14:03:13 GMT-0500 (Central Daylight Time),517781.09999999404,A,b,I,b,475,2,482.59999999403954,517298.5,8014,WL,C,10.0
4,25.325000047683716,learn,34674.999952316284,Fri May 02 2025 14:03:13 GMT-0500 (Central Daylight Time),518097.6999999881,A,bo,I,o,304,2,799.1999999880791,517298.5,8014,WL,C,10.0
4,25.691999912261963,learn,34308.00008773804,Fri May 02 2025 14:03:13 GMT-0500 (Central Daylight Time),518464.2999999821,A,boy,I,y,348,2,1165.7999999821186,517298.5,8014,WL,C,10.0
4,25.990999937057495,learn,34009.000062942505,Fri May 02 2025 14:03:13 GMT-0500 (Central Daylight Time),518764.1999999881,A,boyenter,I,enter,292,2,1465.699999988079,517298.5,8014,WL,C,10.0
4,26.35800004005432,learn,33641.99995994568,Fri May 02 2025 14:03:13 GMT-0500 (Central Daylight Time),519130.6999999881,A,b,I,b,360,2,366.19999998807907,518764.5,8014,WL,C,11.0
4,26.625,learn,33375.0,Fri May 02 2025 14:03:13 GMT-0500 (Central Daylight Time),519397.40000000596,A,bo,I,o,259,2,632.9000000059605,518764.5,8014,WL,C,11.0
4,26.990999937057495,learn,33009.000062942505,Fri May 02 2025 14:03:13 GMT-0500 (Central Daylight Time),519763.90000000596,A,bod,I,d,360,2,999.4000000059605,518764.5,8014,WL,C,11.0
4,27.424000024795532,learn,32575.999975204468,Fri May 02 2025 14:03:13 GMT-0500 (Central Daylight Time),520197.09999999404,A,body,I,y,426,2,1432.5999999940395,518764.5,8014,WL,C,11.0
4,27.824000120162964,learn,32175.999879837036,Fri May 02 2025 14:03:13 GMT-0500 (Central Daylight Time),520597.09999999404,A,bodyenter,I,enter,392,2,1832.5999999940395,518764.5,8014,WL,C,11.0
4,28.756999969482422,learn,31243.000030517578,Fri May 02 2025 14:03:13 GMT-0500 (Central Daylight Time),521530.1999999881,A,c,I,c,928,2,932.6999999880791,520597.5,8014,WL,C,12.0
4,29.124000072479248,learn,30875.999927520752,Fri May 02 2025 14:03:13 GMT-0500 (Central Daylight Time),521896.6999999881,A,ca,I,a,355,2,1299.199999988079,520597.5,8014,WL,C,12.0
4,29.556999921798706,learn,30443.000078201294,Fri May 02 2025 14:03:13 GMT-0500 (Central Daylight Time),522329.90000000596,A,cat,I,t,413,2,1732.4000000059605,520597.5,8014,WL,C,12.0
4,29.707000017166138,learn,30292.999982833862,Fri May 02 2025 14:03:13 GMT-0500 (Central Daylight Time),522479.6999999881,A,catt,I,t,139,2,1882.199999988079,520597.5,8014,WL,C,12.0
4,29.874000072479248,learn,30125.999927520752,Fri May 02 2025 14:03:13 GMT-0500 (Central Daylight Time),522646.2999999821,A,cattl,I,l,158,2,2048.7999999821186,520597.5,8014,WL,C,12.0
4,30.256999969482422,learn,29743.000030517578,Fri May 02 2025 14:03:13 GMT-0500 (Central Daylight Time),523029.59999999404,A,cattle,I,e,367,2,2432.0999999940395,520597.5,8014,WL,C,12.0
4,30.756999969482422,learn,29243.000030517578,Fri May 02 2025 14:03:13 GMT-0500 (Central Daylight Time),523529.59999999404,A,cattleenter,I,enter,488,2,2932.0999999940395,520597.5,8014,WL,C,12.0
4,33.789000034332275,learn,26210.999965667725,Fri May 02 2025 14:03:13 GMT-0500 (Central Daylight Time),526562.0,A,d,I,d,3027,2,3032.0999999940395,523529.90000000596,8014,WL,C,13.0
4,33.956000089645386,learn,26043.999910354614,Fri May 02 2025 14:03:13 GMT-0500 (Central Daylight Time),526728.5,A,do,I,o,155,2,3198.5999999940395,523529.90000000596,8014,WL,C,13.0
4,34.10599994659424,learn,25894.00005340576,Fri May 02 2025 14:03:13 GMT-0500 (Central Daylight Time),526878.400000006,A,doc,I,c,140,2,3348.5,523529.90000000596,8014,WL,C,13.0
4,34.388999938964844,learn,25611.000061035156,Fri May 02 2025 14:03:13 GMT-0500 (Central Daylight Time),527161.6999999881,A,doct,I,t,271,2,3631.7999999821186,523529.90000000596,8014,WL,C,13.0
4,34.60599994659424,learn,25394.00005340576,Fri May 02 2025 14:03:13 GMT-0500 (Central Daylight Time),527378.400000006,A,docto,I,o,204,2,3848.5,523529.90000000596,8014,WL,C,13.0
4,34.73900008201599,learn,25260.99991798401,Fri May 02 2025 14:03:13 GMT-0500 (Central Daylight Time),527511.7999999821,A,doctor,I,r,123,2,3981.899999976158,523529.90000000596,8014,WL,C,13.0
4,35.355000019073486,learn,24644.999980926514,Fri May 02 2025 14:03:13 GMT-0500 (Central Daylight Time),528127.7999999821,A,doctorenter,I,enter,606,2,4597.899999976158,523529.90000000596,8014,WL,C,13.0
4,36.22199988365173,learn,23778.000116348267,Fri May 02 2025 14:03:13 GMT-0500 (Central Daylight Time),528995.099999994,A,n,I,n,861,2,867.0999999940395,528128.0,8014,WL,C,14.0
4,36.48799991607666,learn,23512.00008392334,Fri May 02 2025 14:03:13 GMT-0500 (Central Daylight Time),529260.7999999821,A,na,I,a,250,2,1132.7999999821186,528128.0,8014,WL,C,14.0
4,36.704999923706055,learn,23295.000076293945,Fri May 02 2025 14:03:13 GMT-0500 (Central Daylight Time),529477.5,A,nai,I,i,200,2,1349.5,528128.0,8014,WL,C,14.0
4,36.9210000038147,learn,23078.999996185303,Fri May 02 2025 14:03:13 GMT-0500 (Central Daylight Time),529694.1999999881,A,nail,I,l,208,2,1566.199999988079,528128.0,8014,WL,C,14.0
4,38.72099995613098,learn,21279.00004386902,Fri May 02 2025 14:03:13 GMT-0500 (Central Daylight Time),531493.5,A,nailenter,I,enter,1790,2,3365.5,528128.0,8014,WL,C,14.0
4,41.72000002861023,learn,18279.99997138977,Fri May 02 2025 14:03:13 GMT-0500 (Central Daylight Time),534492.599999994,A,s,I,s,2991,2,2998.699999988079,531493.900000006,8014,WL,C,15.0
4,41.920000076293945,learn,18079.999923706055,Fri May 02 2025 14:03:13 GMT-0500 (Central Daylight Time),534692.599999994,A,su,I,u,185,2,3198.699999988079,531493.900000006,8014,WL,C,15.0
4,42.15300011634827,learn,17846.999883651733,Fri May 02 2025 14:03:13 GMT-0500 (Central Daylight Time),534925.900000006,A,sug,I,g,225,2,3432.0,531493.900000006,8014,WL,C,15.0
4,42.335999965667725,learn,17664.000034332275,Fri May 02 2025 14:03:13 GMT-0500 (Central Daylight Time),535109.099999994,A,suga,I,a,168,2,3615.199999988079,531493.900000006,8014,WL,C,15.0
4,42.65300011634827,learn,17346.999883651733,Fri May 02 2025 14:03:13 GMT-0500 (Central Daylight Time),535425.6999999881,A,sugar,I,r,304,2,3931.7999999821186,531493.900000006,8014,WL,C,15.0
4,42.986000061035156,learn,17013.999938964844,Fri May 02 2025 14:03:13 GMT-0500 (Central Daylight Time),535758.7999999821,A,sugarenter,I,enter,315,2,4264.899999976158,531493.900000006,8014,WL,C,15.0
5,1.1340000629425049,learn,60000.0,Fri May 02 2025 14:03:13 GMT-0500 (Central Daylight Time),602472.0,A,t,I,t,1114,2,1133.4000000059605,601338.599999994,8014,WL,C,1.0
5,1.3499999046325684,learn,60000.0,Fri May 02 2025 14:03:13 GMT-0500 (Central Daylight Time),602687.900000006,A,to,I,o,196,2,1349.300000011921,601338.599999994,8014,WL,C,1.0
5,1.6329998970031738,learn,60000.0,Fri May 02 2025 14:03:13 GMT-0500 (Central Daylight Time),602971.1999999881,A,tow,I,w,270,2,1632.5999999940395,601338.599999994,8014,WL,C,1.0
5,1.866999864578247,learn,60000.0,Fri May 02 2025 14:03:13 GMT-0500 (Central Daylight Time),603204.599999994,A,towe,I,e,226,2,1866.0,601338.599999994,8014,WL,C,1.0
5,2.116999864578247,learn,60000.0,Fri May 02 2025 14:03:13 GMT-0500 (Central Daylight Time),603454.5,A,tower,I,r,241,2,2115.9000000059605,601338.599999994,8014,WL,C,1.0
5,2.5160000324249268,learn,60000.0,Fri May 02 2025 14:03:13 GMT-0500 (Central Daylight Time),603854.2999999821,A,towerenter,I,enter,391,2,2515.699999988079,601338.599999994,8014,WL,C,1.0
5,2.8999998569488525,learn,60000.0,Fri May 02 2025 14:03:13 GMT-0500 (Central Daylight Time),604237.5,A,w,I,w,374,2,382.80000001192093,603854.6999999881,8014,WL,C,2.0
5,3.2159998416900635,learn,60000.0,Fri May 02 2025 14:03:13 GMT-0500 (Central Daylight Time),604554.0,A,wh,I,h,296,2,699.3000000119209,603854.6999999881,8014,WL,C,2.0
5,3.382999897003174,learn,60000.0,Fri May 02 2025 14:03:13 GMT-0500 (Central Daylight Time),604720.900000006,A,whe,I,e,155,2,866.2000000178814,603854.6999999881,8014,WL,C,2.0
5,3.6489999294281006,learn,60000.0,Fri May 02 2025 14:03:13 GMT-0500 (Central Daylight Time),604987.1999999881,A,whea,I,a,261,2,1132.5,603854.6999999881,8014,WL,C,2.0
5,3.8329999446868896,learn,60000.0,Fri May 02 2025 14:03:13 GMT-0500 (Central Daylight Time),605170.5,A,wheat,I,t,170,2,1315.800000011921,603854.6999999881,8014,WL,C,2.0
5,4.48199987411499,learn,60000.0,Fri May 02 2025 14:03:13 GMT-0500 (Central Daylight Time),605820.2999999821,A,wheatenter,I,enter,635,2,1965.5999999940395,603854.6999999881,8014,WL,C,2.0
5,4.898999929428101,learn,60000.0,Fri May 02 2025 14:03:13 GMT-0500 (Central Daylight Time),606236.400000006,A,q,I,q,408,2,415.90000000596046,605820.5,8014,WL,C,3.0
5,5.23199987411499,learn,60000.0,Fri May 02 2025 14:03:13 GMT-0500 (Central Daylight Time),606569.6999999881,A,qu,I,u,320,2,749.1999999880791,605820.5,8014,WL,C,3.0
5,5.48199987411499,learn,60000.0,Fri May 02 2025 14:03:13 GMT-0500 (Central Daylight Time),606819.400000006,A,que,I,e,235,2,998.9000000059605,605820.5,8014,WL,C,3.0
5,5.698999881744385,learn,60000.0,Fri May 02 2025 14:03:13 GMT-0500 (Central Daylight Time),607036.400000006,A,quee,I,e,201,2,1215.9000000059605,605820.5,8014,WL,C,3.0
5,5.865000009536743,learn,60000.0,Fri May 02 2025 14:03:13 GMT-0500 (Central Daylight Time),607203.1999999881,A,queen,I,n,152,2,1382.699999988079,605820.5,8014,WL,C,3.0
5,6.549000024795532,learn,60000.0,Fri May 02 2025 14:03:13 GMT-0500 (Central Daylight Time),607886.5,A,queenenter,I,enter,674,2,2066.0,605820.5,8014,WL,C,3.0
5,6.865000009536743,learn,60000.0,Fri May 02 2025 14:03:13 GMT-0500 (Central Daylight Time),608202.900000006,A,s,I,s,310,2,316.0,607886.900000006,8014,WL,C,4.0
5,7.164999961853027,learn,60000.0,Fri May 02 2025 14:03:13 GMT-0500 (Central Daylight Time),608502.7999999821,A,su,I,u,290,2,615.8999999761581,607886.900000006,8014,WL,C,4.0
5,7.764999866485596,learn,60000.0,Fri May 02 2025 14:03:13 GMT-0500 (Central Daylight Time),609102.599999994,A,sug,I,g,583,2,1215.699999988079,607886.900000006,8014,WL,C,4.0
5,7.98199987411499,learn,60000.0,Fri May 02 2025 14:03:13 GMT-0500 (Central Daylight Time),609319.5,A,suga,I,a,199,2,1432.5999999940395,607886.900000006,8014,WL,C,4.0
5,8.315000057220459,learn,60000.0,Fri May 02 2025 14:03:13 GMT-0500 (Central Daylight Time),609652.599999994,A,sugar,I,r,325,2,1765.699999988079,607886.900000006,8014,WL,C,4.0
5,8.648000001907349,learn,60000.0,Fri May 02 2025 14:03:13 GMT-0500 (Central Daylight Time),609985.900000006,A,sugarenter,I,enter,312,2,2099.0,607886.900000006,8014,WL,C,4.0
5,8.980999946594238,learn,60000.0,Fri May 02 2025 14:03:13 GMT-0500 (Central Daylight Time),610318.900000006,A,c,I,c,315,2,332.80000001192093,609986.099999994,8014,WL,C,5.0
5,9.330999851226807,learn,60000.0,Fri May 02 2025 14:03:13 GMT-0500 (Central Daylight Time),610669.0,A,ca,I,a,334,2,682.9000000059605,609986.099999994,8014,WL,C,5.0
5,9.530999898910522,learn,60000.0,Fri May 02 2025 14:03:13 GMT-0500 (Central Daylight Time),610868.7999999821,A,cam,I,m,192,2,882.6999999880791,609986.099999994,8014,WL,C,5.0
5,9.980999946594238,learn,60000.0,Fri May 02 2025 14:03:13 GMT-0500 (Central Daylight Time),611318.400000006,A,camo,I,o,440,2,1332.300000011921,609986.099999994,8014,WL,C,5.0
5,10.664000034332275,learn,60000.0,Fri May 02 2025 14:03:13 GMT-0500 (Central Daylight Time),612001.7999999821,A,cam,I,backspace,660,2,2015.699999988079,609986.099999994,8014,WL,C,5.0
5,10.930999994277954,learn,60000.0,Fri May 02 2025 14:03:13 GMT-0500 (Central Daylight Time),612268.400000006,A,camp,I,p,260,2,2282.300000011921,609986.099999994,8014,WL,C,5.0
5,11.346999883651733,learn,60000.0,Fri May 02 2025 14:03:13 GMT-0500 (Central Daylight Time),612684.900000006,A,campenter,I,enter,409,2,2698.800000011921,609986.099999994,8014,WL,C,5.0
5,12.162999868392944,learn,60000.0,Fri May 02 2025 14:03:13 GMT-0500 (Central Daylight Time),613501.2999999821,A,s,I,s,809,2,816.0999999940395,612685.1999999881,8014,WL,C,6.0
5,12.36299991607666,learn,60000.0,Fri May 02 2025 14:03:13 GMT-0500 (Central Daylight Time),613701.0,A,sh,I,h,192,2,1015.8000000119209,612685.1999999881,8014,WL,C,6.0
5,12.812999963760376,learn,60000.0,Fri May 02 2025 14:03:13 GMT-0500 (Central Daylight Time),614150.900000006,A,sho,I,o,439,2,1465.7000000178814,612685.1999999881,8014,WL,C,6.0
5,13.179999828338623,learn,60000.0,Fri May 02 2025 14:03:13 GMT-0500 (Central Daylight Time),614517.6999999881,A,shor,I,r,359,2,1832.5,612685.1999999881,8014,WL,C,6.0
5,13.395999908447266,learn,60000.0,Fri May 02 2025 14:03:13 GMT-0500 (Central Daylight Time),614734.0,A,shore,I,e,200,2,2048.800000011921,612685.1999999881,8014,WL,C,6.0
5,13.763000011444092,learn,60000.0,Fri May 02 2025 14:03:13 GMT-0500 (Central Daylight Time),615100.599999994,A,shoreenter,I,enter,350,2,2415.4000000059605,612685.1999999881,8014,WL,C,6.0
5,15.145999908447266,learn,60000.0,Fri May 02 2025 14:03:13 GMT-0500 (Central Daylight Time),616483.599999994,A,h,I,h,1369,2,1382.800000011921,615100.7999999821,8014,WL,C,7.0
5,15.478999853134155,learn,60000.0,Fri May 02 2025 14:03:13 GMT-0500 (Central Daylight Time),616816.900000006,A,ho,I,o,313,2,1716.1000000238419,615100.7999999821,8014,WL,C,7.0
5,15.76199984550476,learn,60000.0,Fri May 02 2025 14:03:13 GMT-0500 (Central Daylight Time),617100.099999994,A,hom,I,m,275,2,1999.300000011921,615100.7999999821,8014,WL,C,7.0
5,15.961999893188477,learn,60000.0,Fri May 02 2025 14:03:13 GMT-0500 (Central Daylight Time),617300.099999994,A,home,I,e,185,2,2199.300000011921,615100.7999999821,8014,WL,C,7.0
5,16.394999980926514,learn,60000.0,Fri May 02 2025 14:03:13 GMT-0500 (Central Daylight Time),617733.1999999881,A,homeenter,I,enter,425,2,2632.4000000059605,615100.7999999821,8014,WL,C,7.0
5,16.911999940872192,learn,60000.0,Fri May 02 2025 14:03:13 GMT-0500 (Central Daylight Time),618249.900000006,A,b,I,b,512,2,516.4000000059605,617733.5,8014,WL,C,8.0
5,17.128999948501587,learn,60000.0,Fri May 02 2025 14:03:13 GMT-0500 (Central Daylight Time),618466.5,A,bo,I,o,203,2,733.0,617733.5,8014,WL,C,8.0
5,17.644999980926514,learn,60000.0,Fri May 02 2025 14:03:13 GMT-0500 (Central Daylight Time),618982.6999999881,A,boy,I,y,499,2,1249.199999988079,617733.5,8014,WL,C,8.0
5,17.92799997329712,learn,60000.0,Fri May 02 2025 14:03:13 GMT-0500 (Central Daylight Time),619265.900000006,A,boyenter,I,enter,271,2,1532.4000000059605,617733.5,8014,WL,C,8.0
5,19.527999877929688,learn,60000.0,Fri May 02 2025 14:03:13 GMT-0500 (Central Daylight Time),620865.5,A,b,I,b,1588,2,1599.4000000059605,619266.099999994,8014,WL,C,9.0
5,20.14400005340576,learn,60000.0,Fri May 02 2025 14:03:13 GMT-0500 (Central Daylight Time),621482.1999999881,A,bo,I,o,612,2,2216.0999999940395,619266.099999994,8014,WL,C,9.0
5,20.41100001335144,learn,60000.0,Fri May 02 2025 14:03:13 GMT-0500 (Central Daylight Time),621748.6999999881,A,bod,I,d,251,2,2482.5999999940395,619266.099999994,8014,WL,C,9.0
5,20.777999877929688,learn,60000.0,Fri May 02 2025 14:03:13 GMT-0500 (Central Daylight Time),622115.400000006,A,body,I,y,353,2,2849.300000011921,619266.099999994,8014,WL,C,9.0
5,21.07699990272522,learn,60000.0,Fri May 02 2025 14:03:13 GMT-0500 (Central Daylight Time),622415.099999994,A,bodyenter,I,enter,290,2,3149.0,619266.099999994,8014,WL,C,9.0
5,21.64400005340576,learn,60000.0,Fri May 02 2025 14:03:13 GMT-0500 (Central Daylight Time),622981.599999994,A,c,I,c,558,2,566.0999999940395,622415.5,8014,WL,C,10.0
5,22.177000045776367,learn,60000.0,Fri May 02 2025 14:03:13 GMT-0500 (Central Daylight Time),623514.7999999821,A,ca,I,a,520,2,1099.2999999821186,622415.5,8014,WL,C,10.0
5,22.359999895095825,learn,60000.0,Fri May 02 2025 14:03:13 GMT-0500 (Central Daylight Time),623698.099999994,A,cat,I,t,179,2,1282.5999999940395,622415.5,8014,WL,C,10.0
5,22.526999950408936,learn,60000.0,Fri May 02 2025 14:03:13 GMT-0500 (Central Daylight Time),623864.7999999821,A,catt,I,t,147,2,1449.2999999821186,622415.5,8014,WL,C,10.0
5,23.07699990272522,learn,60000.0,Fri May 02 2025 14:03:13 GMT-0500 (Central Daylight Time),624414.599999994,A,cattl,I,l,533,2,1999.0999999940395,622415.5,8014,WL,C,10.0
5,23.276999950408936,learn,60000.0,Fri May 02 2025 14:03:13 GMT-0500 (Central Daylight Time),624614.400000006,A,cattle,I,e,191,2,2198.9000000059605,622415.5,8014,WL,C,10.0
5,23.625999927520752,learn,60000.0,Fri May 02 2025 14:03:13 GMT-0500 (Central Daylight Time),624964.099999994,A,cattleenter,I,enter,334,2,2548.5999999940395,622415.5,8014,WL,C,10.0
5,23.99399995803833,learn,60000.0,Fri May 02 2025 14:03:13 GMT-0500 (Central Daylight Time),625331.900000006,A,d,I,d,361,2,367.40000000596046,624964.5,8014,WL,C,11.0
5,24.292999982833862,learn,60000.0,Fri May 02 2025 14:03:13 GMT-0500 (Central Daylight Time),625630.6999999881,A,do,I,o,289,2,666.1999999880791,624964.5,8014,WL,C,11.0
5,24.825999975204468,learn,60000.0,Fri May 02 2025 14:03:13 GMT-0500 (Central Daylight Time),626163.7999999821,A,doc,I,c,527,2,1199.2999999821186,624964.5,8014,WL,C,11.0
5,25.175999879837036,learn,60000.0,Fri May 02 2025 14:03:13 GMT-0500 (Central Daylight Time),626513.7999999821,A,doct,I,t,330,2,1549.2999999821186,624964.5,8014,WL,C,11.0
5,25.358999967575073,learn,60000.0,Fri May 02 2025 14:03:13 GMT-0500 (Central Daylight Time),626697.099999994,A,docto,I,o,164,2,1732.5999999940395,624964.5,8014,WL,C,11.0
5,25.509000062942505,learn,60000.0,Fri May 02 2025 14:03:13 GMT-0500 (Central Daylight Time),626847.099999994,A,doctor,I,r,140,2,1882.5999999940395,624964.5,8014,WL,C,11.0
5,25.97599983215332,learn,60000.0,Fri May 02 2025 14:03:13 GMT-0500 (Central Daylight Time),627313.5,A,doctorenter,I,enter,445,2,2349.0,624964.5,8014,WL,C,11.0
5,26.342000007629395,learn,60000.0,Fri May 02 2025 14:03:13 GMT-0500 (Central Daylight Time),627680.099999994,A,f,I,f,348,2,366.40000000596046,627313.6999999881,8014,WL,C,12.0
5,26.54200005531311,learn,60000.0,Fri May 02 2025 14:03:13 GMT-0500 (Central Daylight Time),627879.900000006,A,fl,I,l,180,2,566.2000000178814,627313.6999999881,8014,WL,C,12.0
5,26.825000047683716,learn,60000.0,Fri May 02 2025 14:03:13 GMT-0500 (Central Daylight Time),628163.1999999881,A,fla,I,a,278,2,849.5,627313.6999999881,8014,WL,C,12.0
5,27.29200005531311,learn,60000.0,Fri May 02 2025 14:03:13 GMT-0500 (Central Daylight Time),628629.900000006,A,flag,I,g,458,2,1316.2000000178814,627313.6999999881,8014,WL,C,12.0
5,27.592000007629395,learn,60000.0,Fri May 02 2025 14:03:13 GMT-0500 (Central Daylight Time),628929.6999999881,A,flagenter,I,enter,288,2,1616.0,627313.6999999881,8014,WL,C,12.0
5,28.157999992370605,learn,60000.0,Fri May 02 2025 14:03:13 GMT-0500 (Central Daylight Time),629496.1999999881,A,l,I,l,556,2,566.1999999880791,628930.0,8014,WL,C,13.0
5,28.375,learn,60000.0,Fri May 02 2025 14:03:13 GMT-0500 (Central Daylight Time),629712.7999999821,A,le,I,e,205,2,782.7999999821186,628930.0,8014,WL,C,13.0
5,28.674999952316284,learn,60000.0,Fri May 02 2025 14:03:13 GMT-0500 (Central Daylight Time),630012.6999999881,A,let,I,t,293,2,1082.699999988079,628930.0,8014,WL,C,13.0
5,28.825000047683716,learn,60000.0,Fri May 02 2025 14:03:13 GMT-0500 (Central Daylight Time),630162.5,A,lett,I,t,145,2,1232.5,628930.0,8014,WL,C,13.0
5,29.125,learn,60000.0,Fri May 02 2025 14:03:13 GMT-0500 (Central Daylight Time),630462.599999994,A,lette,I,e,291,2,1532.5999999940395,628930.0,8014,WL,C,13.0
5,29.35800004005432,learn,60000.0,Fri May 02 2025 14:03:13 GMT-0500 (Central Daylight Time),630695.900000006,A,letter,I,r,215,2,1765.9000000059605,628930.0,8014,WL,C,13.0
5,29.657999992370605,learn,60000.0,Fri May 02 2025 14:03:13 GMT-0500 (Central Daylight Time),630995.900000006,A,letterenter,I,enter,294,2,2065.9000000059605,628930.0,8014,WL,C,13.0
5,30.340999841690063,learn,60000.0,Fri May 02 2025 14:03:13 GMT-0500 (Central Daylight Time),631678.7999999821,A,n,I,n,674,2,682.5,630996.2999999821,8014,WL,C,14.0
5,30.573999881744385,learn,60000.0,Fri May 02 2025 14:03:13 GMT-0500 (Central Daylight Time),631912.099999994,A,na,I,a,222,2,915.8000000119209,630996.2999999821,8014,WL,C,14.0
5,30.840999841690063,learn,60000.0,Fri May 02 2025 14:03:13 GMT-0500 (Central Daylight Time),632178.7999999821,A,nai,I,i,253,2,1182.5,630996.2999999821,8014,WL,C,14.0
5,31.12399983406067,learn,60000.0,Fri May 02 2025 14:03:13 GMT-0500 (Central Daylight Time),632462.0,A,nail,I,l,275,2,1465.7000000178814,630996.2999999821,8014,WL,C,14.0
5,32.056999921798706,learn,60000.0,Fri May 02 2025 14:03:13 GMT-0500 (Central Daylight Time),633394.900000006,A,nailenter,I,enter,920,2,2398.600000023842,630996.2999999821,8014,WL,C,14.0
5,41.2039999961853,learn,60000.0,Fri May 02 2025 14:03:13 GMT-0500 (Central Daylight Time),642542.1999999881,A,c,I,c,9131,2,9146.90000000596,633395.2999999821,8014,WL,C,15.0
5,41.37100005149841,learn,60000.0,Fri May 02 2025 14:03:13 GMT-0500 (Central Daylight Time),642708.900000006,A,co,I,o,151,2,9313.600000023842,633395.2999999821,8014,WL,C,15.0
5,41.603999853134155,learn,60000.0,Fri May 02 2025 14:03:13 GMT-0500 (Central Daylight Time),642941.7999999821,A,cor,I,r,225,2,9546.5,633395.2999999821,8014,WL,C,15.0
5,41.88699984550476,learn,60000.0,Fri May 02 2025 14:03:13 GMT-0500 (Central Daylight Time),643225.1999999881,A,corn,I,n,263,2,9829.90000000596,633395.2999999821,8014,WL,C,15.0
5,42.73699998855591,learn,60000.0,Fri May 02 2025 14:03:13 GMT-0500 (Central Daylight Time),644074.7999999821,A,cornenter,I,enter,844,2,10679.5,633395.2999999821,8014,WL,C,15.0
6,1.2170000076293945,distr,58782.999992370605,Fri May 02 2025 14:03:13 GMT-0500 (Central Daylight Time),718901.6999999881,B,s,I,s,1209,2,1216.2999999821186,717685.400000006,8014,WL,C,1.0
6,1.5499999523162842,distr,58450.000047683716,Fri May 02 2025 14:03:13 GMT-0500 (Central Daylight Time),719234.6999999881,B,sk,I,k,319,2,1549.2999999821186,717685.400000006,8014,WL,C,1.0
6,1.815999984741211,distr,58184.00001525879,Fri May 02 2025 14:03:13 GMT-0500 (Central Daylight Time),719501.5,B,sky,I,y,250,2,1816.0999999940395,717685.400000006,8014,WL,C,1.0
6,2.4160001277923584,distr,57583.99987220764,Fri May 02 2025 14:03:13 GMT-0500 (Central Daylight Time),720101.0,B,skyenter,I,enter,592,2,2415.5999999940395,717685.400000006,8014,WL,C,1.0
6,2.8489999771118164,distr,57151.00002288818,Fri May 02 2025 14:03:13 GMT-0500 (Central Daylight Time),720534.400000006,B,d,I,d,417,2,433.10000002384186,720101.2999999821,8014,WL,C,2.0
6,3.0490000247955322,distr,56950.99997520447,Fri May 02 2025 14:03:13 GMT-0500 (Central Daylight Time),720734.400000006,B,do,I,o,191,2,633.1000000238419,720101.2999999821,8014,WL,C,2.0
6,3.2330000400543213,distr,56766.99995994568,Fri May 02 2025 14:03:13 GMT-0500 (Central Daylight Time),720917.599999994,B,dol,I,l,175,2,816.3000000119209,720101.2999999821,8014,WL,C,2.0
6,3.383000135421753,distr,56616.99986457825,Fri May 02 2025 14:03:13 GMT-0500 (Central Daylight Time),721067.599999994,B,doll,I,l,144,2,966.3000000119209,720101.2999999821,8014,WL,C,2.0
6,3.5329999923706055,distr,56467.000007629395,Fri May 02 2025 14:03:13 GMT-0500 (Central Daylight Time),721217.6999999881,B,dolla,I,a,145,2,1116.4000000059605,720101.2999999821,8014,WL,C,2.0
6,3.866000175476074,distr,56133.999824523926,Fri May 02 2025 14:03:13 GMT-0500 (Central Daylight Time),721551.0,B,dollar,I,r,323,2,1449.7000000178814,720101.2999999821,8014,WL,C,2.0
6,4.098999977111816,distr,55901.00002288818,Fri May 02 2025 14:03:13 GMT-0500 (Central Daylight Time),721783.900000006,B,dollarenter,I,enter,215,2,1682.6000000238419,720101.2999999821,8014,WL,C,2.0
6,4.64900016784668,distr,55350.99983215332,Fri May 02 2025 14:03:13 GMT-0500 (Central Daylight Time),722333.6999999881,B,m,I,m,541,2,549.5999999940395,721784.099999994,8014,WL,C,3.0
6,4.914999961853027,distr,55085.00003814697,Fri May 02 2025 14:03:13 GMT-0500 (Central Daylight Time),722600.400000006,B,mo,I,o,247,2,816.3000000119209,721784.099999994,8014,WL,C,3.0
6,5.182000160217285,distr,54817.999839782715,Fri May 02 2025 14:03:13 GMT-0500 (Central Daylight Time),722866.900000006,B,mon,I,n,261,2,1082.800000011921,721784.099999994,8014,WL,C,3.0
6,5.39900016784668,distr,54600.99983215332,Fri May 02 2025 14:03:13 GMT-0500 (Central Daylight Time),723083.6999999881,B,mone,I,e,203,2,1299.5999999940395,721784.099999994,8014,WL,C,3.0
6,5.7820000648498535,distr,54217.99993515015,Fri May 02 2025 14:03:13 GMT-0500 (Central Daylight Time),723466.900000006,B,money,I,y,370,2,1682.800000011921,721784.099999994,8014,WL,C,3.0
6,6.082000017166138,distr,53917.99998283386,Fri May 02 2025 14:03:13 GMT-0500 (Central Daylight Time),723766.7999999821,B,moneyenter,I,enter,282,2,1982.699999988079,721784.099999994,8014,WL,C,3.0
6,6.980999946594238,distr,53019.00005340576,Fri May 02 2025 14:03:13 GMT-0500 (Central Daylight Time),724666.2999999821,B,b,I,b,895,2,899.1999999880791,723767.099999994,8014,WL,C,4.0
6,7.164999961853027,distr,52835.00003814697,Fri May 02 2025 14:03:13 GMT-0500 (Central Daylight Time),724849.6999999881,B,bu,I,u,171,2,1082.5999999940395,723767.099999994,8014,WL,C,4.0
6,7.38100004196167,distr,52618.99995803833,Fri May 02 2025 14:03:13 GMT-0500 (Central Daylight Time),725066.2999999821,B,but,I,t,204,2,1299.199999988079,723767.099999994,8014,WL,C,4.0
6,7.514000177383423,distr,52485.99982261658,Fri May 02 2025 14:03:13 GMT-0500 (Central Daylight Time),725199.400000006,B,butt,I,t,123,2,1432.300000011921,723767.099999994,8014,WL,C,4.0
6,8.248000144958496,distr,51751.999855041504,Fri May 02 2025 14:03:13 GMT-0500 (Central Daylight Time),725932.599999994,B,butte,I,e,717,2,2165.5,723767.099999994,8014,WL,C,4.0
6,8.430999994277954,distr,51569.000005722046,Fri May 02 2025 14:03:13 GMT-0500 (Central Daylight Time),726115.900000006,B,butter,I,r,169,2,2348.800000011921,723767.099999994,8014,WL,C,4.0
6,8.664000034332275,distr,51335.999965667725,Fri May 02 2025 14:03:13 GMT-0500 (Central Daylight Time),726349.099999994,B,butterenter,I,enter,217,2,2582.0,723767.099999994,8014,WL,C,4.0
6,9.480999946594238,distr,50519.00005340576,Fri May 02 2025 14:03:13 GMT-0500 (Central Daylight Time),727165.7999999821,B,m,I,m,808,2,816.2999999821186,726349.5,8014,WL,C,5.0
6,9.764000177383423,distr,50235.99982261658,Fri May 02 2025 14:03:13 GMT-0500 (Central Daylight Time),727448.7999999821,B,mo,I,o,262,2,1099.2999999821186,726349.5,8014,WL,C,5.0
6,10.064000129699707,distr,49935.99987030029,Fri May 02 2025 14:03:13 GMT-0500 (Central Daylight Time),727748.7999999821,B,mot,I,t,285,2,1399.2999999821186,726349.5,8014,WL,C,5.0
6,10.19700002670288,distr,49802.99997329712,Fri May 02 2025 14:03:13 GMT-0500 (Central Daylight Time),727882.1999999881,B,moth,I,h,121,2,1532.699999988079,726349.5,8014,WL,C,5.0
6,10.414000034332275,distr,49585.999965667725,Fri May 02 2025 14:03:13 GMT-0500 (Central Daylight Time),728098.599999994,B,mothe,I,e,203,2,1749.0999999940395,726349.5,8014,WL,C,5.0
6,10.597000122070312,distr,49402.99987792969,Fri May 02 2025 14:03:13 GMT-0500 (Central Daylight Time),728282.099999994,B,mother,I,r,179,2,1932.5999999940395,726349.5,8014,WL,C,5.0
6,10.864000082015991,distr,49135.99991798401,Fri May 02 2025 14:03:13 GMT-0500 (Central Daylight Time),728548.5,B,motherenter,I,enter,251,2,2199.0,726349.5,8014,WL,C,5.0
6,11.430999994277954,distr,48569.000005722046,Fri May 02 2025 14:03:13 GMT-0500 (Central Daylight Time),729116.1999999881,B,c,I,c,561,2,567.2999999821186,728548.900000006,8014,WL,C,6.0
6,11.680000066757202,distr,48319.9999332428,Fri May 02 2025 14:03:13 GMT-0500 (Central Daylight Time),729364.900000006,B,ch,I,h,233,2,816.0,728548.900000006,8014,WL,C,6.0
6,11.913000106811523,distr,48086.99989318848,Fri May 02 2025 14:03:13 GMT-0500 (Central Daylight Time),729598.099999994,B,chr,I,r,224,2,1049.199999988079,728548.900000006,8014,WL,C,6.0
6,12.196000099182129,distr,47803.99990081787,Fri May 02 2025 14:03:13 GMT-0500 (Central Daylight Time),729881.400000006,B,chri,I,i,262,2,1332.5,728548.900000006,8014,WL,C,6.0
6,12.562999963760376,distr,47437.000036239624,Fri May 02 2025 14:03:13 GMT-0500 (Central Daylight Time),730248.099999994,B,chris,I,s,356,2,1699.199999988079,728548.900000006,8014,WL,C,6.0
6,12.896000146865845,distr,47103.999853134155,Fri May 02 2025 14:03:13 GMT-0500 (Central Daylight Time),730581.1999999881,B,christ,I,t,325,2,2032.2999999821186,728548.900000006,8014,WL,C,6.0
6,13.17900013923645,distr,46820.99986076355,Fri May 02 2025 14:03:13 GMT-0500 (Central Daylight Time),730864.5,B,christm,I,m,272,2,2315.5999999940395,728548.900000006,8014,WL,C,6.0
6,13.378999948501587,distr,46621.00005149841,Fri May 02 2025 14:03:13 GMT-0500 (Central Daylight Time),731064.5,B,christma,I,a,180,2,2515.5999999940395,728548.900000006,8014,WL,C,6.0
6,13.696000099182129,distr,46303.99990081787,Fri May 02 2025 14:03:13 GMT-0500 (Central Daylight Time),731381.0,B,christmas,I,s,309,2,2832.0999999940395,728548.900000006,8014,WL,C,6.0
6,14.296000003814697,distr,45703.9999961853,Fri May 02 2025 14:03:13 GMT-0500 (Central Daylight Time),731980.6999999881,B,christmasenter,I,enter,592,2,3431.7999999821186,728548.900000006,8014,WL,C,6.0
6,15.212000131607056,distr,44787.999868392944,Fri May 02 2025 14:03:13 GMT-0500 (Central Daylight Time),732897.0,B,v,I,v,896,2,916.0,731981.0,8014,WL,C,7.0
6,15.462000131607056,distr,44537.999868392944,Fri May 02 2025 14:03:13 GMT-0500 (Central Daylight Time),733147.2999999821,B,va,I,a,236,2,1166.2999999821186,731981.0,8014,WL,C,7.0
6,15.878000020980835,distr,44121.999979019165,Fri May 02 2025 14:03:13 GMT-0500 (Central Daylight Time),733563.5,B,val,I,l,401,2,1582.5,731981.0,8014,WL,C,7.0
6,16.045000076293945,distr,43954.999923706055,Fri May 02 2025 14:03:13 GMT-0500 (Central Daylight Time),733730.1999999881,B,vall,I,l,153,2,1749.199999988079,731981.0,8014,WL,C,7.0
6,16.74500012397766,distr,43254.99987602234,Fri May 02 2025 14:03:13 GMT-0500 (Central Daylight Time),734430.0,B,valle,I,e,683,2,2449.0,731981.0,8014,WL,C,7.0
6,16.92799997329712,distr,43072.00002670288,Fri May 02 2025 14:03:13 GMT-0500 (Central Daylight Time),734613.2999999821,B,valley,I,y,167,2,2632.2999999821186,731981.0,8014,WL,C,7.0
6,18.42799997329712,distr,41572.00002670288,Fri May 02 2025 14:03:13 GMT-0500 (Central Daylight Time),736112.7999999821,B,valleyenter,I,enter,1488,2,4131.799999982119,731981.0,8014,WL,C,7.0
6,21.860000133514404,distr,38139.999866485596,Fri May 02 2025 14:03:13 GMT-0500 (Central Daylight Time),739545.099999994,B,d,I,d,3412,2,3432.0,736113.099999994,8014,WL,C,8.0
6,22.41000008583069,distr,37589.99991416931,Fri May 02 2025 14:03:13 GMT-0500 (Central Daylight Time),740094.5,B,di,I,i,531,2,3981.4000000059605,736113.099999994,8014,WL,C,8.0
6,22.526000022888184,distr,37473.99997711182,Fri May 02 2025 14:03:13 GMT-0500 (Central Daylight Time),740211.400000006,B,dia,I,a,102,2,4098.300000011921,736113.099999994,8014,WL,C,8.0
6,22.759999990463257,distr,37240.00000953674,Fri May 02 2025 14:03:13 GMT-0500 (Central Daylight Time),740444.7999999821,B,diam,I,m,218,2,4331.699999988079,736113.099999994,8014,WL,C,8.0
6,23.343000173568726,distr,36656.999826431274,Fri May 02 2025 14:03:13 GMT-0500 (Central Daylight Time),741027.7999999821,B,diamo,I,o,569,2,4914.699999988079,736113.099999994,8014,WL,C,8.0
6,23.858999967575073,distr,36141.00003242493,Fri May 02 2025 14:03:13 GMT-0500 (Central Daylight Time),741544.400000006,B,diamon,I,n,498,2,5431.300000011921,736113.099999994,8014,WL,C,8.0
6,24.693000078201294,distr,35306.999921798706,Fri May 02 2025 14:03:13 GMT-0500 (Central Daylight Time),742377.6999999881,B,diamond,I,d,827,2,6264.5999999940395,736113.099999994,8014,WL,C,8.0
6,25.276000022888184,distr,34723.99997711182,Fri May 02 2025 14:03:13 GMT-0500 (Central Daylight Time),742960.6999999881,B,diamondenter,I,enter,572,2,6847.5999999940395,736113.099999994,8014,WL,C,8.0
6,34.09000015258789,distr,25909.99984741211,Fri May 02 2025 14:03:13 GMT-0500 (Central Daylight Time),751774.599999994,B,w,I,w,8797,2,8813.699999988079,742960.900000006,8014,WL,C,9.0
6,34.18900012969971,distr,25810.999870300293,Fri May 02 2025 14:03:13 GMT-0500 (Central Daylight Time),751874.2999999821,B,wi,I,i,94,2,8913.399999976158,742960.900000006,8014,WL,C,9.0
6,34.456000089645386,distr,25543.999910354614,Fri May 02 2025 14:03:13 GMT-0500 (Central Daylight Time),752141.0,B,win,I,n,251,2,9180.09999999404,742960.900000006,8014,WL,C,9.0
6,34.973000049591064,distr,25026.999950408936,Fri May 02 2025 14:03:13 GMT-0500 (Central Daylight Time),752657.5,B,wint,I,t,504,2,9696.59999999404,742960.900000006,8014,WL,C,9.0
6,35.10599994659424,distr,24894.00005340576,Fri May 02 2025 14:03:13 GMT-0500 (Central Daylight Time),752791.0,B,winte,I,e,116,2,9830.09999999404,742960.900000006,8014,WL,C,9.0
6,35.305999994277954,distr,24694.000005722046,Fri May 02 2025 14:03:13 GMT-0500 (Central Daylight Time),752991.0,B,winter,I,r,181,2,10030.09999999404,742960.900000006,8014,WL,C,9.0
6,35.72200012207031,distr,24277.999877929688,Fri May 02 2025 14:03:13 GMT-0500 (Central Daylight Time),753407.5,B,winterenter,I,enter,407,2,10446.59999999404,742960.900000006,8014,WL,C,9.0
6,37.58800005912781,distr,22411.999940872192,Fri May 02 2025 14:03:13 GMT-0500 (Central Daylight Time),755273.5,B,enter,I,enter,1854,2,1865.5999999940395,753407.900000006,8014,WL,C,10.0
6,37.75500011444092,distr,22244.999885559082,Fri May 02 2025 14:03:13 GMT-0500 (Central Daylight Time),755440.0,B,enter,I,enter,156,2,166.09999999403954,755273.900000006,8014,WL,C,11.0
6,39.63800001144409,distr,20361.99998855591,Fri May 02 2025 14:03:13 GMT-0500 (Central Daylight Time),757322.599999994,B,enter,I,enter,1878,2,1882.199999988079,755440.400000006,8014,WL,C,12.0
6,39.82100009918213,distr,20178.99990081787,Fri May 02 2025 14:03:13 GMT-0500 (Central Daylight Time),757506.099999994,B,enter,I,enter,163,2,183.09999999403954,757323.0,8014,WL,C,13.0
6,40.40400004386902,distr,19595.99995613098,Fri May 02 2025 14:03:13 GMT-0500 (Central Daylight Time),758089.2999999821,B,enter,I,enter,562,2,582.8999999761581,757506.400000006,8014,WL,C,14.0
6,40.854000091552734,distr,19145.999908447266,Fri May 02 2025 14:03:13 GMT-0500 (Central Daylight Time),758539.0,B,enter,I,enter,436,2,449.30000001192093,758089.6999999881,8014,WL,C,15.0
7,2.2829999923706055,immed,57717.000007629395,Fri May 02 2025 14:03:13 GMT-0500 (Central Daylight Time),771018.599999994,A,t,I,t,2270,2,2282.4000000059605,768736.1999999881,8014,WL,C,1.0
7,2.4819998741149902,immed,57518.00012588501,Fri May 02 2025 14:03:13 GMT-0500 (Central Daylight Time),771218.400000006,A,to,I,o,185,2,2482.2000000178814,768736.1999999881,8014,WL,C,1.0
7,3.381999969482422,immed,56618.00003051758,Fri May 02 2025 14:03:13 GMT-0500 (Central Daylight Time),772118.099999994,A,tow,I,w,891,2,3381.9000000059605,768736.1999999881,8014,WL,C,1.0
7,3.615999937057495,immed,56384.000062942505,Fri May 02 2025 14:03:13 GMT-0500 (Central Daylight Time),772351.5,A,towe,I,e,215,2,3615.300000011921,768736.1999999881,8014,WL,C,1.0
7,3.815000057220459,immed,56184.99994277954,Fri May 02 2025 14:03:13 GMT-0500 (Central Daylight Time),772551.400000006,A,tower,I,r,190,2,3815.2000000178814,768736.1999999881,8014,WL,C,1.0
7,4.23199987411499,immed,55768.00012588501,Fri May 02 2025 14:03:13 GMT-0500 (Central Daylight Time),772967.900000006,A,towerenter,I,enter,398,2,4231.700000017881,768736.1999999881,8014,WL,C,1.0
7,4.648999929428101,immed,55351.0000705719,Fri May 02 2025 14:03:13 GMT-0500 (Central Daylight Time),773384.5,A,w,I,w,398,2,416.30000001192093,772968.1999999881,8014,WL,C,2.0
7,5.065000057220459,immed,54934.99994277954,Fri May 02 2025 14:03:13 GMT-0500 (Central Daylight Time),773801.099999994,A,wh,I,h,397,2,832.9000000059605,772968.1999999881,8014,WL,C,2.0
7,5.23199987411499,immed,54768.00012588501,Fri May 02 2025 14:03:13 GMT-0500 (Central Daylight Time),773967.6999999881,A,whe,I,e,148,2,999.5,772968.1999999881,8014,WL,C,2.0
7,5.497999906539917,immed,54502.00009346008,Fri May 02 2025 14:03:13 GMT-0500 (Central Daylight Time),774234.0,A,whea,I,a,261,2,1265.800000011921,772968.1999999881,8014,WL,C,2.0
7,5.680999994277954,immed,54319.000005722046,Fri May 02 2025 14:03:13 GMT-0500 (Central Daylight Time),774417.2999999821,A,wheat,I,t,171,2,1449.0999999940395,772968.1999999881,8014,WL,C,2.0
7,7.228999853134155,immed,52771.000146865845,Fri May 02 2025 14:03:13 GMT-0500 (Central Daylight Time),775965.2999999821,A,wheatenter,I,enter,1543,2,2997.0999999940395,772968.1999999881,8014,WL,C,2.0
7,8.313999891281128,immed,51686.00010871887,Fri May 02 2025 14:03:13 GMT-0500 (Central Daylight Time),777049.900000006,A,q,I,q,1080,2,1084.300000011921,775965.599999994,8014,WL,C,3.0
7,8.563999891281128,immed,51436.00010871887,Fri May 02 2025 14:03:13 GMT-0500 (Central Daylight Time),777299.900000006,A,qu,I,u,236,2,1334.300000011921,775965.599999994,8014,WL,C,3.0
7,8.829999923706055,immed,51170.000076293945,Fri May 02 2025 14:03:13 GMT-0500 (Central Daylight Time),777566.599999994,A,que,I,e,249,2,1601.0,775965.599999994,8014,WL,C,3.0
7,8.980000019073486,immed,51019.999980926514,Fri May 02 2025 14:03:13 GMT-0500 (Central Daylight Time),777716.5,A,quee,I,e,135,2,1750.9000000059605,775965.599999994,8014,WL,C,3.0
7,9.096999883651733,immed,50903.00011634827,Fri May 02 2025 14:03:13 GMT-0500 (Central Daylight Time),777832.900000006,A,queen,I,n,105,2,1867.300000011921,775965.599999994,8014,WL,C,3.0
7,9.71399998664856,immed,50286.00001335144,Fri May 02 2025 14:03:13 GMT-0500 (Central Daylight Time),778449.5,A,queenenter,I,enter,595,2,2483.9000000059605,775965.599999994,8014,WL,C,3.0
7,10.062999963760376,immed,49937.000036239624,Fri May 02 2025 14:03:13 GMT-0500 (Central Daylight Time),778799.400000006,A,s,I,s,340,2,349.5,778449.900000006,8014,WL,C,4.0
7,10.329999923706055,immed,49670.000076293945,Fri May 02 2025 14:03:13 GMT-0500 (Central Daylight Time),779066.099999994,A,su,I,u,262,2,616.1999999880791,778449.900000006,8014,WL,C,4.0
7,10.61299991607666,immed,49387.00008392334,Fri May 02 2025 14:03:13 GMT-0500 (Central Daylight Time),779349.2999999821,A,sug,I,g,275,2,899.3999999761581,778449.900000006,8014,WL,C,4.0
7,10.763000011444092,immed,49236.99998855591,Fri May 02 2025 14:03:13 GMT-0500 (Central Daylight Time),779499.2999999821,A,suga,I,a,136,2,1049.3999999761581,778449.900000006,8014,WL,C,4.0
7,11.11299991607666,immed,48887.00008392334,Fri May 02 2025 14:03:13 GMT-0500 (Central Daylight Time),779849.099999994,A,sugar,I,r,329,2,1399.199999988079,778449.900000006,8014,WL,C,4.0
7,11.346999883651733,immed,48653.00011634827,Fri May 02 2025 14:03:13 GMT-0500 (Central Daylight Time),780083.5,A,sugarenter,I,enter,229,2,1633.5999999940395,778449.900000006,8014,WL,C,4.0
7,12.44599986076355,immed,47554.00013923645,Fri May 02 2025 14:03:13 GMT-0500 (Central Daylight Time),781182.0,A,h,I,h,1090,2,1098.2000000178814,780083.7999999821,8014,WL,C,5.0
7,12.628999948501587,immed,47371.00005149841,Fri May 02 2025 14:03:13 GMT-0500 (Central Daylight Time),781365.400000006,A,ho,I,o,175,2,1281.6000000238419,780083.7999999821,8014,WL,C,5.0
7,12.878999948501587,immed,47121.00005149841,Fri May 02 2025 14:03:13 GMT-0500 (Central Daylight Time),781615.099999994,A,hom,I,m,232,2,1531.300000011921,780083.7999999821,8014,WL,C,5.0
7,13.128999948501587,immed,46871.00005149841,Fri May 02 2025 14:03:13 GMT-0500 (Central Daylight Time),781865.400000006,A,home,I,e,229,2,1781.6000000238419,780083.7999999821,8014,WL,C,5.0
7,13.529000043869019,immed,46470.99995613098,Fri May 02 2025 14:03:13 GMT-0500 (Central Daylight Time),782264.900000006,A,homeenter,I,enter,379,2,2181.100000023842,780083.7999999821,8014,WL,C,5.0
7,14.062000036239624,immed,45937.999963760376,Fri May 02 2025 14:03:13 GMT-0500 (Central Daylight Time),782798.2999999821,A,b,I,b,524,2,533.0,782265.2999999821,8014,WL,C,6.0
7,14.26199984550476,immed,45738.00015449524,Fri May 02 2025 14:03:13 GMT-0500 (Central Daylight Time),782998.099999994,A,bo,I,o,191,2,732.8000000119209,782265.2999999821,8014,WL,C,6.0
7,14.711999893188477,immed,45288.00010681152,Fri May 02 2025 14:03:13 GMT-0500 (Central Daylight Time),783448.0,A,bod,I,d,431,2,1182.7000000178814,782265.2999999821,8014,WL,C,6.0
7,15.111999988555908,immed,44888.00001144409,Fri May 02 2025 14:03:13 GMT-0500 (Central Daylight Time),783848.099999994,A,body,I,y,381,2,1582.800000011921,782265.2999999821,8014,WL,C,6.0
7,15.361999988555908,immed,44638.00001144409,Fri May 02 2025 14:03:13 GMT-0500 (Central Daylight Time),784097.599999994,A,bodyenter,I,enter,237,2,1832.300000011921,782265.2999999821,8014,WL,C,6.0
7,16.062000036239624,immed,43937.999963760376,Fri May 02 2025 14:03:13 GMT-0500 (Central Daylight Time),784797.599999994,A,b,I,b,692,2,699.6999999880791,784097.900000006,8014,WL,C,7.0
7,16.244999885559082,immed,43755.00011444092,Fri May 02 2025 14:03:13 GMT-0500 (Central Daylight Time),784980.6999999881,A,bo,I,o,168,2,882.7999999821186,784097.900000006,8014,WL,C,7.0
7,17.277999877929688,immed,42722.00012207031,Fri May 02 2025 14:03:13 GMT-0500 (Central Daylight Time),786013.900000006,A,boy,I,y,1017,2,1916.0,784097.900000006,8014,WL,C,7.0
7,17.76099991798401,immed,42239.00008201599,Fri May 02 2025 14:03:13 GMT-0500 (Central Daylight Time),786497.0,A,boyenter,I,enter,464,2,2399.0999999940395,784097.900000006,8014,WL,C,7.0
7,18.42799997329712,immed,41572.00002670288,Fri May 02 2025 14:03:13 GMT-0500 (Central Daylight Time),787163.599999994,A,c,I,c,660,2,666.1999999880791,786497.400000006,8014,WL,C,8.0
7,18.89400005340576,immed,41105.99994659424,Fri May 02 2025 14:03:13 GMT-0500 (Central Daylight Time),787630.1999999881,A,ca,I,a,450,2,1132.7999999821186,786497.400000006,8014,WL,C,8.0
7,19.310999870300293,immed,40689.00012969971,Fri May 02 2025 14:03:13 GMT-0500 (Central Daylight Time),788046.599999994,A,cat,I,t,407,2,1549.199999988079,786497.400000006,8014,WL,C,8.0
7,19.47699999809265,immed,40523.00000190735,Fri May 02 2025 14:03:13 GMT-0500 (Central Daylight Time),788213.099999994,A,catt,I,t,159,2,1715.699999988079,786497.400000006,8014,WL,C,8.0
7,19.626999855041504,immed,40373.000144958496,Fri May 02 2025 14:03:13 GMT-0500 (Central Daylight Time),788363.0,A,cattl,I,l,145,2,1865.5999999940395,786497.400000006,8014,WL,C,8.0
7,19.89400005340576,immed,40105.99994659424,Fri May 02 2025 14:03:13 GMT-0500 (Central Daylight Time),788629.7999999821,A,cattle,I,e,259,2,2132.399999976158,786497.400000006,8014,WL,C,8.0
7,20.22699999809265,immed,39773.00000190735,Fri May 02 2025 14:03:13 GMT-0500 (Central Daylight Time),788962.6999999881,A,cattleenter,I,enter,320,2,2465.2999999821186,786497.400000006,8014,WL,C,8.0
7,21.05999994277954,immed,38940.00005722046,Fri May 02 2025 14:03:13 GMT-0500 (Central Daylight Time),789795.900000006,A,f,I,f,827,2,832.9000000059605,788963.0,8014,WL,C,9.0
7,21.40999984741211,immed,38590.00015258789,Fri May 02 2025 14:03:13 GMT-0500 (Central Daylight Time),790145.900000006,A,fl,I,l,329,2,1182.9000000059605,788963.0,8014,WL,C,9.0
7,21.609999895095825,immed,38390.000104904175,Fri May 02 2025 14:03:13 GMT-0500 (Central Daylight Time),790345.900000006,A,fla,I,a,180,2,1382.9000000059605,788963.0,8014,WL,C,9.0
7,22.210000038146973,immed,37789.99996185303,Fri May 02 2025 14:03:13 GMT-0500 (Central Daylight Time),790945.5,A,flag,I,g,588,2,1982.5,788963.0,8014,WL,C,9.0
7,22.675999879837036,immed,37324.000120162964,Fri May 02 2025 14:03:13 GMT-0500 (Central Daylight Time),791412.0,A,flagenter,I,enter,452,2,2449.0,788963.0,8014,WL,C,9.0
7,23.292999982833862,immed,36707.00001716614,Fri May 02 2025 14:03:13 GMT-0500 (Central Daylight Time),792028.599999994,A,l,I,l,610,2,616.3000000119209,791412.2999999821,8014,WL,C,10.0
7,23.493000030517578,immed,36506.99996948242,Fri May 02 2025 14:03:13 GMT-0500 (Central Daylight Time),792228.6999999881,A,le,I,e,193,2,816.4000000059605,791412.2999999821,8014,WL,C,10.0
7,23.80900001525879,immed,36190.99998474121,Fri May 02 2025 14:03:13 GMT-0500 (Central Daylight Time),792545.0,A,let,I,t,304,2,1132.7000000178814,791412.2999999821,8014,WL,C,10.0
7,23.95899987220764,immed,36041.00012779236,Fri May 02 2025 14:03:13 GMT-0500 (Central Daylight Time),792695.099999994,A,lett,I,t,141,2,1282.800000011921,791412.2999999821,8014,WL,C,10.0
7,24.258999824523926,immed,35741.000175476074,Fri May 02 2025 14:03:13 GMT-0500 (Central Daylight Time),792994.6999999881,A,lette,I,e,294,2,1582.4000000059605,791412.2999999821,8014,WL,C,10.0
7,24.45899987220764,immed,35541.00012779236,Fri May 02 2025 14:03:13 GMT-0500 (Central Daylight Time),793195.0,A,letter,I,r,186,2,1782.7000000178814,791412.2999999821,8014,WL,C,10.0
7,24.70899987220764,immed,35291.00012779236,Fri May 02 2025 14:03:13 GMT-0500 (Central Daylight Time),793444.7999999821,A,letterenter,I,enter,242,2,2032.5,791412.2999999821,8014,WL,C,10.0
7,25.358999967575073,immed,34641.00003242493,Fri May 02 2025 14:03:13 GMT-0500 (Central Daylight Time),794094.6999999881,A,c,I,c,641,2,649.5999999940395,793445.099999994,8014,WL,C,11.0
7,26.024999856948853,immed,33975.00014305115,Fri May 02 2025 14:03:13 GMT-0500 (Central Daylight Time),794761.0,A,ca,I,a,655,2,1315.9000000059605,793445.099999994,8014,WL,C,11.0
7,26.22499990463257,immed,33775.00009536743,Fri May 02 2025 14:03:13 GMT-0500 (Central Daylight Time),794961.0,A,cam,I,m,188,2,1515.9000000059605,793445.099999994,8014,WL,C,11.0
7,26.70799994468689,immed,33292.00005531311,Fri May 02 2025 14:03:13 GMT-0500 (Central Daylight Time),795444.099999994,A,camp,I,p,469,2,1999.0,793445.099999994,8014,WL,C,11.0
7,27.14199995994568,immed,32858.00004005432,Fri May 02 2025 14:03:13 GMT-0500 (Central Daylight Time),795877.599999994,A,campenter,I,enter,425,2,2432.5,793445.099999994,8014,WL,C,11.0
7,27.85800004005432,immed,32141.99995994568,Fri May 02 2025 14:03:13 GMT-0500 (Central Daylight Time),796593.900000006,A,s,I,s,712,2,716.0,795877.900000006,8014,WL,C,12.0
7,28.10800004005432,immed,31891.99995994568,Fri May 02 2025 14:03:13 GMT-0500 (Central Daylight Time),796843.6999999881,A,sh,I,h,236,2,965.7999999821186,795877.900000006,8014,WL,C,12.0
7,28.625,immed,31375.0,Fri May 02 2025 14:03:13 GMT-0500 (Central Daylight Time),797360.7999999821,A,sho,I,o,498,2,1482.8999999761581,795877.900000006,8014,WL,C,12.0
7,28.924000024795532,immed,31075.999975204468,Fri May 02 2025 14:03:13 GMT-0500 (Central Daylight Time),797660.400000006,A,shor,I,r,293,2,1782.5,795877.900000006,8014,WL,C,12.0
7,29.141000032424927,immed,30858.999967575073,Fri May 02 2025 14:03:13 GMT-0500 (Central Daylight Time),797876.900000006,A,shore,I,e,201,2,1999.0,795877.900000006,8014,WL,C,12.0
