acc_sum,block,block_c,condition,correct,correct_response,datetime,endtime,flanker,jitter,project,response,response_test_buffer_response,response_test_target_response,response_time,response_time_test_buffer_response,response_time_test_target_response,row_sel,session_number,start_end,starttime,subject_id,target,task,task_vers,time_test_buffer,time_test_buffer_response,time_test_constants,time_test_flanker,time_test_jitter,time_test_logger,time_test_target,time_test_target_response,time_test_variables,trial
0,prac,1,con,0,m,Thu Nov 07 2024 13:00:07 GMT-0600 (Central Standard Time),125716.29999995232,gold,800,I,None,,,1814,,,13,1,4872.299999952316,120844.0,7027,gold,NF,C,,,,,,,,,,1
1,prac,1,con,1,m,Thu Nov 07 2024 13:00:07 GMT-0600 (Central Standard Time),128282.29999995232,bronze,800,I,m,,,438,,,9,1,2541.7000000476837,125740.59999990463,7027,bronze,NF,C,,,,,,,,,,2
2,prac,1,inc,1,m,Thu Nov 07 2024 13:00:07 GMT-0600 (Central Standard Time),131047.89999985695,pear,900,I,m,,,548,,,14,1,2741.5,128306.39999985695,7027,iron,NF,C,,,,,,,,,,3
3,prac,1,con,1,z,Thu Nov 07 2024 13:00:07 GMT-0600 (Central Standard Time),133630.09999990463,lime,800,I,z,,,458,,,5,1,2557.7999999523163,131072.29999995232,7027,lime,NF,C,,,,,,,,,,4
4,prac,1,inc,1,z,Thu Nov 07 2024 13:00:07 GMT-0600 (Central Standard Time),136612.5,cobalt,1100,I,z,,,551,,,4,1,2956.600000143051,133655.89999985695,7027,raisin,NF,C,,,,,,,,,,5
4,prac,1,con,0,m,Thu Nov 07 2024 13:00:07 GMT-0600 (Central Standard Time),139511.70000004768,zinc,1000,I,z,,,565,,,15,1,2880.300000190735,136631.39999985695,7027,zinc,NF,C,,,,,,,,,,6
5,prac,1,inc,1,z,Thu Nov 07 2024 13:00:07 GMT-0600 (Central Standard Time),142310.59999990463,iron,900,I,z,,,574,,,6,1,2776.5,139534.09999990463,7027,pear,NF,C,,,,,,,,,,7
5,prac,1,con,0,m,Thu Nov 07 2024 13:00:07 GMT-0600 (Central Standard Time),145292.79999995232,silver,1000,I,z,,,651,,,11,1,2962.2999999523163,142330.5,7027,silver,NF,C,,,,,,,,,,8
6,prac,1,inc,1,z,Thu Nov 07 2024 13:00:07 GMT-0600 (Central Standard Time),148192.09999990463,copper,900,I,z,,,673,,,2,1,2876.7999999523163,145315.29999995232,7027,cherry,NF,C,,,,,,,,,,9
7,prac,1,con,1,z,Thu Nov 07 2024 13:00:07 GMT-0600 (Central Standard Time),151241.0,kiwi,1000,I,z,,,729,,,7,1,3027.600000143051,148213.39999985695,7027,kiwi,NF,C,,,,,,,,,,10
8,prac,1,inc,1,z,Thu Nov 07 2024 13:00:07 GMT-0600 (Central Standard Time),154323.29999995232,lead,1100,I,z,,,653,,,8,1,3057.9000000953674,151265.39999985695,7027,plum,NF,C,,,,,,,,,,11
9,prac,1,inc,1,m,Thu Nov 07 2024 13:00:07 GMT-0600 (Central Standard Time),157339.0,raisin,1100,I,m,,,595,,,12,1,2993.9000000953674,154345.09999990463,7027,cobalt,NF,C,,,,,,,,,,12
10,prac,1,con,1,z,Thu Nov 07 2024 13:00:07 GMT-0600 (Central Standard Time),160338.20000004768,orange,1000,I,z,,,679,,,3,1,2977.2000000476837,157361.0,7027,orange,NF,C,,,,,,,,,,13
11,prac,1,con,1,z,Thu Nov 07 2024 13:00:07 GMT-0600 (Central Standard Time),162953.79999995232,banana,800,I,z,,,488,,,1,1,2594.5999999046326,160359.20000004768,7027,banana,NF,C,,,,,,,,,,14
12,prac,1,inc,1,m,Thu Nov 07 2024 13:00:07 GMT-0600 (Central Standard Time),165769.70000004768,cherry,900,I,m,,,596,,,10,1,2791.800000190735,162977.89999985695,7027,copper,NF,C,,,,,,,,,,15
13,prac,1,inc,1,m,Thu Nov 07 2024 13:00:07 GMT-0600 (Central Standard Time),168785.39999985695,plum,1100,I,m,,,596,,,16,1,2994.0,165791.39999985695,7027,lead,NF,C,,,,,,,,,,16
1,test,1,inc,1,z,Thu Nov 07 2024 13:00:07 GMT-0600 (Central Standard Time),188595.0,zinc,1000,I,z,z,None,428,229.0,199.0,47,1,1962.0,186633.0,7027,pear,NF,C,179513,179513,177783,178796,177784,179745,179313,179313,179745,1
2,test,1,inc,1,m,Thu Nov 07 2024 13:00:07 GMT-0600 (Central Standard Time),190361.59999990463,banana,800,I,m,m,None,423,224.0,199.0,69,1,1752.2999999523163,188609.29999995232,7027,bronze,NF,C,181279,181279,179759,180562,179760,181512,181079,181079,181511,2
3,test,1,con,1,m,Thu Nov 07 2024 13:00:07 GMT-0600 (Central Standard Time),192360.70000004768,bronze,1000,I,m,m,None,440,241.0,199.0,67,1,1976.7000000476837,190384.0,7027,bronze,NF,C,183262,183262,181534,182545,181535,183511,183062,183062,183511,3
4,test,1,con,1,z,Thu Nov 07 2024 13:00:07 GMT-0600 (Central Standard Time),194143.5,cherry,800,I,z,z,None,417,218.0,199.0,9,1,1760.2000000476837,192383.29999995232,7027,cherry,NF,C,185061,185061,183533,184345,183535,185294,184861,184861,185293,4
5,test,1,inc,1,m,Thu Nov 07 2024 13:00:07 GMT-0600 (Central Standard Time),196209.39999985695,kiwi,1000,I,m,m,None,498,283.0,215.0,127,1,2043.5,194165.89999985695,7027,lead,NF,C,187060,187060,185316,186327,185317,187360,186844,186844,187359,5
6,test,1,con,1,m,Thu Nov 07 2024 13:00:07 GMT-0600 (Central Standard Time),198308.79999995232,silver,1000,I,m,m,None,536,337.0,199.0,83,1,2078.5,196230.29999995232,7027,silver,NF,C,189110,189110,187380,188393,187382,189459,188910,188910,189459,6
7,test,1,inc,1,z,Thu Nov 07 2024 13:00:07 GMT-0600 (Central Standard Time),200307.79999995232,copper,900,I,z,z,None,545,346.0,199.0,6,1,1978.2000000476837,198329.59999990463,7027,banana,NF,C,191109,191109,189480,190392,189481,191458,190909,190909,191458,7
8,test,1,con,1,z,Thu Nov 07 2024 13:00:07 GMT-0600 (Central Standard Time),202190.70000004768,banana,800,I,z,z,None,526,327.0,199.0,1,1,1860.2000000476837,200330.5,7027,banana,NF,C,193008,193008,191480,192292,191482,193341,192808,192808,193341,8
9,test,1,con,1,z,Thu Nov 07 2024 13:00:07 GMT-0600 (Central Standard Time),204256.79999995232,cherry,1000,I,z,z,None,507,308.0,199.0,11,1,2045.2000000476837,202211.59999990463,7027,cherry,NF,C,195091,195091,193362,194374,193363,195407,194891,194891,195407,9
10,test,1,con,1,z,Thu Nov 07 2024 13:00:07 GMT-0600 (Central Standard Time),206272.09999990463,kiwi,900,I,z,z,None,556,357.0,199.0,50,1,1994.5,204277.59999990463,7027,kiwi,NF,C,197057,197057,195428,196340,195429,197422,196857,196857,197422,10
11,test,1,con,1,z,Thu Nov 07 2024 13:00:07 GMT-0600 (Central Standard Time),208121.29999995232,raisin,900,I,z,z,None,406,206.0,200.0,26,1,1835.5999999046326,206285.70000004768,7027,raisin,NF,C,199055,199055,197436,198340,197436,199271,198855,198855,199271,11
12,test,1,inc,1,m,Thu Nov 07 2024 13:00:07 GMT-0600 (Central Standard Time),209988.09999990463,pear,900,I,m,m,None,419,220.0,199.0,118,1,1860.7999999523163,208127.29999995232,7027,zinc,NF,C,200906,200906,199277,200189,199278,201138,200706,200706,201138,12
13,test,1,inc,1,m,Thu Nov 07 2024 13:00:07 GMT-0600 (Central Standard Time),212037.5,pear,900,I,m,m,None,586,386.0,200.0,102,1,2028.7999999523163,210008.70000004768,7027,gold,NF,C,202789,202789,201159,202072,201159,203188,202588,202588,203188,13
14,test,1,inc,1,z,Thu Nov 07 2024 13:00:07 GMT-0600 (Central Standard Time),214053.39999985695,copper,900,I,z,z,None,552,353.0,199.0,22,1,1993.5999999046326,212059.79999995232,7027,orange,NF,C,204838,204838,203210,204121,203211,205204,204638,204638,205203,14
15,test,1,con,1,z,Thu Nov 07 2024 13:00:07 GMT-0600 (Central Standard Time),216219.5,cherry,1100,I,z,z,None,504,305.0,199.0,12,1,2143.9000000953674,214075.59999990463,7027,cherry,NF,C,207054,207054,205226,206337,205227,207370,206854,206854,207369,15
16,test,1,con,1,z,Thu Nov 07 2024 13:00:07 GMT-0600 (Central Standard Time),217969.39999985695,pear,800,I,z,z,None,398,199.0,199.0,41,1,1728.3999998569489,216241.0,7027,pear,NF,C,208920,208920,207391,208203,207392,209120,208720,208720,209119,16
17,test,1,inc,1,z,Thu Nov 07 2024 13:00:07 GMT-0600 (Central Standard Time),219868.20000004768,gold,800,I,z,z,None,554,354.0,200.0,45,1,1877.2000000476837,217991.0,7027,pear,NF,C,210653,210653,209141,209951,209143,211018,210452,210452,211018,17
18,test,1,con,1,z,Thu Nov 07 2024 13:00:07 GMT-0600 (Central Standard Time),221834.29999995232,lime,900,I,z,z,None,505,306.0,199.0,34,1,1945.0,219889.29999995232,7027,lime,NF,C,212669,212669,211039,211952,211041,212985,212468,212469,212984,18
19,test,1,con,1,z,Thu Nov 07 2024 13:00:07 GMT-0600 (Central Standard Time),223983.59999990463,raisin,1100,I,z,z,None,491,292.0,199.0,28,1,2128.2999999523163,221855.29999995232,7027,raisin,NF,C,214834,214835,213005,214118,213007,215134,214634,214635,215134,19
20,test,1,inc,1,m,Thu Nov 07 2024 13:00:07 GMT-0600 (Central Standard Time),225916.20000004768,banana,800,I,m,m,None,570,371.0,199.0,93,1,1911.3000001907349,224004.89999985695,7027,cobalt,NF,C,216684,216684,215155,215967,215156,217066,216484,216484,217066,20
21,test,1,con,1,z,Thu Nov 07 2024 13:00:07 GMT-0600 (Central Standard Time),228115.5,lime,1100,I,z,z,None,545,330.0,215.0,36,1,2176.2000000476837,225939.29999995232,7027,lime,NF,C,218933,218933,217089,218200,217090,219266,218717,218717,219265,21
21,test,1,inc,0,z,Thu Nov 07 2024 13:00:07 GMT-0600 (Central Standard Time),230298.0,cobalt,1100,I,m,m,None,522,323.0,199.0,32,1,2152.7000000476837,228145.29999995232,7027,raisin,NF,C,221116,221116,219295,220399,219297,221448,220916,220916,221448,22
22,test,1,inc,1,z,Thu Nov 07 2024 13:00:07 GMT-0600 (Central Standard Time),232780.5,cobalt,1100,I,z,z,None,828,629.0,199.0,16,1,2460.2999999523163,230320.20000004768,7027,cherry,NF,C,223298,223298,221470,222582,221471,223931,223098,223098,223930,23
23,test,1,inc,1,z,Thu Nov 07 2024 13:00:07 GMT-0600 (Central Standard Time),235046.20000004768,lead,1100,I,z,z,None,600,401.0,199.0,56,1,2243.100000143051,232803.09999990463,7027,kiwi,NF,C,225781,225781,223953,225064,223954,226196,225581,225581,226196,24
24,test,1,con,1,m,Thu Nov 07 2024 13:00:07 GMT-0600 (Central Standard Time),237079.29999995232,zinc,900,I,m,m,None,583,384.0,199.0,114,1,2021.7000000476837,235057.59999990463,7027,zinc,NF,C,227830,227830,226208,227114,226208,228229,227630,227630,228229,25
25,test,1,inc,1,m,Thu Nov 07 2024 13:00:07 GMT-0600 (Central Standard Time),239161.79999995232,lime,800,I,m,m,None,733,533.0,200.0,109,1,2060.9000000953674,237100.89999985695,7027,iron,NF,C,229778,229778,228251,229062,228252,230312,229578,229578,230312,26
25,test,1,con,0,m,Thu Nov 07 2024 13:00:07 GMT-0600 (Central Standard Time),241377.09999990463,cobalt,1100,I,z,z,None,555,355.0,200.0,92,1,2195.2999999523163,239181.79999995232,7027,cobalt,NF,C,232162,232162,230332,231445,230333,232527,231961,231961,232527,27
26,test,1,inc,1,m,Thu Nov 07 2024 13:00:07 GMT-0600 (Central Standard Time),243560.5,cherry,900,I,m,m,None,734,534.0,200.0,78,1,2177.9000000953674,241382.59999990463,7027,copper,NF,C,234161,234161,232533,233445,232533,234711,233961,233961,234711,28
27,test,1,con,1,m,Thu Nov 07 2024 13:00:07 GMT-0600 (Central Standard Time),245642.39999985695,iron,1000,I,m,m,None,528,329.0,199.0,107,1,2061.399999856949,243581.0,7027,iron,NF,C,236460,236461,234731,235743,234732,236792,236261,236261,236792,29
28,test,1,inc,1,m,Thu Nov 07 2024 13:00:07 GMT-0600 (Central Standard Time),247908.20000004768,raisin,1100,I,m,m,None,628,428.0,200.0,88,1,2260.100000143051,245648.09999990463,7027,silver,NF,C,238625,238625,236798,237909,236799,239058,238425,238425,239058,30
29,test,1,con,1,m,Thu Nov 07 2024 13:00:07 GMT-0600 (Central Standard Time),250091.0,cobalt,900,I,m,m,None,740,540.0,200.0,90,1,2177.7000000476837,247913.29999995232,7027,cobalt,NF,C,240691,240691,239063,239976,239064,241241,240491,240491,241241,31
30,test,1,inc,1,m,Thu Nov 07 2024 13:00:07 GMT-0600 (Central Standard Time),252290.79999995232,plum,1100,I,m,m,None,564,364.0,200.0,120,1,2188.0999999046326,250102.70000004768,7027,zinc,NF,C,243075,243075,241253,242359,241253,243441,242874,242874,243441,32
31,test,1,con,1,m,Thu Nov 07 2024 13:00:07 GMT-0600 (Central Standard Time),254289.89999985695,silver,800,I,m,m,None,664,465.0,199.0,81,1,1979.3999998569489,252310.5,7027,silver,NF,C,244974,244974,243461,244273,243461,245440,244774,244774,245440,33
32,test,1,con,1,m,Thu Nov 07 2024 13:00:07 GMT-0600 (Central Standard Time),256671.79999995232,lead,1100,I,m,m,None,733,533.0,200.0,124,1,2361.0999999046326,254310.70000004768,7027,lead,NF,C,247289,247289,245461,246574,245462,247822,247089,247089,247822,34
33,test,1,con,1,m,Thu Nov 07 2024 13:00:07 GMT-0600 (Central Standard Time),258771.39999985695,copper,900,I,m,m,None,663,463.0,200.0,74,1,2094.0,256677.39999985695,7027,copper,NF,C,249455,249455,247827,248739,247828,249921,249255,249255,249921,35
34,test,1,inc,1,m,Thu Nov 07 2024 13:00:07 GMT-0600 (Central Standard Time),261020.79999995232,raisin,1100,I,m,m,None,612,411.0,201.0,80,1,2244.2000000476837,258776.59999990463,7027,copper,NF,C,251755,251756,249927,251039,249927,252171,251554,251554,252171,36
35,test,1,con,1,z,Thu Nov 07 2024 13:00:07 GMT-0600 (Central Standard Time),263154.0,kiwi,1000,I,z,z,None,574,375.0,199.0,51,1,2113.2999999523163,261040.70000004768,7027,kiwi,NF,C,253920,253920,252191,253205,252192,254304,253721,253721,254304,37
36,test,1,inc,1,z,Thu Nov 07 2024 13:00:07 GMT-0600 (Central Standard Time),265235.7999999523,copper,900,I,z,z,None,620,420.0,200.0,14,1,2062.0,263173.7999999523,7027,cherry,NF,C,255954,255954,254324,255238,254325,256386,255753,255753,256386,38
37,test,1,con,1,z,Thu Nov 07 2024 13:00:07 GMT-0600 (Central Standard Time),267585.89999985695,pear,1000,I,z,z,None,807,592.0,215.0,43,1,2340.0999999046326,265245.7999999523,7027,pear,NF,C,258135,258135,256396,257403,256397,258736,257920,257920,258736,39
38,test,1,inc,1,m,Thu Nov 07 2024 13:00:07 GMT-0600 (Central Standard Time),269735.39999985695,plum,1100,I,m,m,None,485,286.0,199.0,128,1,2128.0999999046326,267607.2999999523,7027,lead,NF,C,260585,260585,258757,259868,258758,260885,260385,260385,260885,40
39,test,1,inc,1,z,Thu Nov 07 2024 13:00:07 GMT-0600 (Central Standard Time),271784.89999985695,iron,900,I,z,z,None,584,384.0,200.0,54,1,2029.6999998092651,269755.2000000477,7027,kiwi,NF,C,262535,262535,260905,261818,260906,262935,262334,262334,262935,41
40,test,1,inc,1,m,Thu Nov 07 2024 13:00:07 GMT-0600 (Central Standard Time),273982.89999985695,raisin,1100,I,m,m,None,534,334.0,200.0,72,1,2177.5,271805.39999985695,7027,bronze,NF,C,264783,264783,262955,264067,262957,265133,264583,264583,265133,42
41,test,1,inc,1,z,Thu Nov 07 2024 13:00:07 GMT-0600 (Central Standard Time),275949.89999985695,gold,800,I,z,z,None,620,421.0,199.0,37,1,1961.3999998569489,273988.5,7027,lime,NF,C,266666,266666,265139,265951,265139,267100,266467,266467,267100,43
42,test,1,con,1,m,Thu Nov 07 2024 13:00:07 GMT-0600 (Central Standard Time),277932.59999990463,iron,900,I,m,m,None,529,330.0,199.0,106,1,1962.0,275970.59999990463,7027,iron,NF,C,268749,268749,267121,268034,267122,269083,268549,268549,269083,44
43,test,1,con,1,z,Thu Nov 07 2024 13:00:07 GMT-0600 (Central Standard Time),279865.09999990463,lime,800,I,z,z,None,566,351.0,215.0,33,1,1911.7000000476837,277953.39999985695,7027,lime,NF,C,270648,270648,269103,269915,269105,271015,270433,270433,271015,45
44,test,1,con,1,z,Thu Nov 07 2024 13:00:07 GMT-0600 (Central Standard Time),282246.89999985695,lime,1000,I,z,z,None,825,625.0,200.0,35,1,2361.699999809265,279885.2000000477,7027,lime,NF,C,272764,272764,271035,272047,271036,273397,272564,272564,273397,46
45,test,1,con,1,m,Thu Nov 07 2024 13:00:07 GMT-0600 (Central Standard Time),284462.7999999523,bronze,900,I,m,m,None,774,573.0,201.0,66,1,2210.0,282252.7999999523,7027,bronze,NF,C,275031,275032,273403,274313,273403,275613,274830,274830,275613,47
46,test,1,inc,1,m,Thu Nov 07 2024 13:00:07 GMT-0600 (Central Standard Time),286595.39999985695,kiwi,1000,I,m,m,None,594,394.0,200.0,111,1,2127.699999809265,284467.7000000477,7027,iron,NF,C,277347,277347,275618,276629,275618,277746,277146,277146,277745,48
47,test,1,con,1,z,Thu Nov 07 2024 13:00:07 GMT-0600 (Central Standard Time),288628.09999990463,cherry,900,I,z,z,None,585,386.0,199.0,10,1,2026.7999999523163,286601.2999999523,7027,cherry,NF,C,279379,279379,277751,278663,277752,279778,279179,279179,279778,49
48,test,1,inc,1,z,Thu Nov 07 2024 13:00:07 GMT-0600 (Central Standard Time),290794.0,silver,1000,I,z,z,None,622,422.0,200.0,23,1,2160.7000000476837,288633.2999999523,7027,orange,NF,C,281511,281511,279783,280795,279784,281944,281311,281311,281944,50
49,test,1,inc,1,m,Thu Nov 07 2024 13:00:07 GMT-0600 (Central Standard Time),292660.09999990463,banana,800,I,m,m,None,528,327.0,201.0,77,1,1860.2000000476837,290799.89999985695,7027,copper,NF,C,283478,283478,281950,282761,281950,283810,283277,283277,283810,51
50,test,1,inc,1,z,Thu Nov 07 2024 13:00:07 GMT-0600 (Central Standard Time),294892.7999999523,lead,1100,I,z,z,None,594,394.0,200.0,64,1,2227.7000000476837,292665.09999990463,7027,plum,NF,C,285643,285643,283815,284927,283815,286043,285443,285443,286043,52
51,test,1,con,1,m,Thu Nov 07 2024 13:00:07 GMT-0600 (Central Standard Time),296658.7999999523,zinc,800,I,m,m,None,430,230.0,200.0,113,1,1761.0999999046326,294897.7000000477,7027,zinc,NF,C,287576,287576,286048,286859,286048,287809,287376,287376,287809,53
52,test,1,con,1,z,Thu Nov 07 2024 13:00:07 GMT-0600 (Central Standard Time),298908.0,orange,900,I,z,z,None,811,611.0,200.0,18,1,2243.600000143051,296664.39999985695,7027,orange,NF,C,289442,289442,287814,288725,287815,290058,289242,289242,290058,54
52,test,1,inc,0,z,Thu Nov 07 2024 13:00:07 GMT-0600 (Central Standard Time),300807.39999985695,gold,800,I,m,m,None,550,349.0,201.0,61,1,1893.5,298913.89999985695,7027,plum,NF,C,291592,291592,290064,290875,290064,291957,291391,291391,291957,55
53,test,1,con,1,m,Thu Nov 07 2024 13:00:07 GMT-0600 (Central Standard Time),302840.2000000477,gold,900,I,m,m,None,588,389.0,199.0,98,1,2027.0,300813.2000000477,7027,gold,NF,C,293592,293592,291963,292874,291964,293990,293392,293392,293990,56
54,test,1,inc,1,z,Thu Nov 07 2024 13:00:07 GMT-0600 (Central Standard Time),304839.7000000477,bronze,800,I,z,z,None,650,435.0,215.0,13,1,1993.6000001430511,302846.09999990463,7027,cherry,NF,C,295540,295540,293996,294808,293996,295990,295325,295325,295990,57
55,test,1,inc,1,z,Thu Nov 07 2024 13:00:07 GMT-0600 (Central Standard Time),306973.0,iron,900,I,z,z,None,686,487.0,199.0,38,1,2122.2000000476837,304850.7999999523,7027,lime,NF,C,297624,297624,296001,296907,296002,298123,297424,297424,298123,58
56,test,1,inc,1,z,Thu Nov 07 2024 13:00:07 GMT-0600 (Central Standard Time),309222.09999990463,cobalt,1100,I,z,z,None,593,394.0,199.0,8,1,2229.0,306993.09999990463,7027,banana,NF,C,299973,299973,298143,299256,298144,300372,299773,299773,300372,59
57,test,1,inc,1,m,Thu Nov 07 2024 13:00:07 GMT-0600 (Central Standard Time),311404.7000000477,pear,900,I,m,m,None,729,529.0,200.0,110,1,2162.800000190735,309241.89999985695,7027,iron,NF,C,302022,302022,300392,301306,300393,302555,301822,301822,302555,60
58,test,1,con,1,z,Thu Nov 07 2024 13:00:07 GMT-0600 (Central Standard Time),313403.89999985695,raisin,800,I,z,z,None,645,446.0,199.0,25,1,1979.1999998092651,311424.7000000477,7027,raisin,NF,C,304105,304105,302575,303388,302576,304554,303905,303905,304554,61
59,test,1,con,1,z,Thu Nov 07 2024 13:00:07 GMT-0600 (Central Standard Time),315636.7000000477,plum,1000,I,z,z,None,670,470.0,200.0,59,1,2212.600000143051,313424.09999990463,7027,plum,NF,C,306304,306305,304574,305588,304575,306787,306104,306104,306787,62
60,test,1,con,1,m,Thu Nov 07 2024 13:00:07 GMT-0600 (Central Standard Time),317936.0,copper,1100,I,m,m,None,641,442.0,199.0,76,1,2279.2000000476837,315656.7999999523,7027,copper,NF,C,308637,308637,306807,307920,306808,309086,308437,308437,309086,63
61,test,1,con,1,m,Thu Nov 07 2024 13:00:07 GMT-0600 (Central Standard Time),320018.5,gold,1000,I,m,m,None,530,331.0,199.0,99,1,2062.100000143051,317956.39999985695,7027,gold,NF,C,310836,310836,309106,310119,309107,311169,310636,310636,311169,64
62,test,1,inc,1,z,Thu Nov 07 2024 13:00:07 GMT-0600 (Central Standard Time),322134.59999990463,iron,900,I,z,z,None,659,460.0,199.0,62,1,2096.5999999046326,320038.0,7027,plum,NF,C,312819,312819,311188,312102,311189,313285,312619,312619,313285,65
63,test,1,con,1,z,Thu Nov 07 2024 13:00:07 GMT-0600 (Central Standard Time),324217.5,banana,1000,I,z,z,None,531,332.0,199.0,3,1,2065.5,322152.0,7027,banana,NF,C,315035,315035,313302,314318,313303,315368,314835,314835,315368,66
63,test,1,con,0,z,Thu Nov 07 2024 13:00:07 GMT-0600 (Central Standard Time),326249.59999990463,raisin,1000,I,m,m,None,481,281.0,200.0,27,1,2010.7000000476837,324238.89999985695,7027,raisin,NF,C,317117,317118,315389,316401,315390,317400,316917,316917,317400,67
64,test,1,inc,1,m,Thu Nov 07 2024 13:00:07 GMT-0600 (Central Standard Time),328515.89999985695,kiwi,1000,I,m,m,None,704,505.0,199.0,103,1,2245.199999809265,326270.7000000477,7027,gold,NF,C,319150,319150,317421,318433,317422,319666,318950,318950,319666,68
65,test,1,con,1,m,Thu Nov 07 2024 13:00:07 GMT-0600 (Central Standard Time),330698.09999990463,iron,800,I,m,m,None,821,622.0,199.0,105,1,2161.7000000476837,328536.39999985695,7027,iron,NF,C,321216,321216,319686,320499,319687,321848,321016,321016,321848,69
66,test,1,con,1,z,Thu Nov 07 2024 13:00:07 GMT-0600 (Central Standard Time),332947.7999999523,pear,1100,I,z,z,None,587,388.0,199.0,44,1,2229.0999999046326,330718.7000000477,7027,pear,NF,C,323699,323699,321869,322982,321870,324098,323498,323499,324098,70
67,test,1,inc,1,m,Thu Nov 07 2024 13:00:07 GMT-0600 (Central Standard Time),335230.2000000477,raisin,1100,I,m,m,None,618,419.0,199.0,96,1,2262.100000143051,332968.09999990463,7027,cobalt,NF,C,325948,325948,324118,325230,324119,326380,325748,325748,326380,71
68,test,1,inc,1,m,Thu Nov 07 2024 13:00:07 GMT-0600 (Central Standard Time),337296.39999985695,banana,800,I,m,m,None,707,508.0,199.0,85,1,2045.2999999523163,335251.09999990463,7027,silver,NF,C,327930,327931,326401,327214,326402,328446,327731,327731,328446,72
69,test,1,inc,1,z,Thu Nov 07 2024 13:00:07 GMT-0600 (Central Standard Time),339495.5,cobalt,1100,I,z,z,None,535,335.0,200.0,24,1,2179.100000143051,337316.39999985695,7027,orange,NF,C,330296,330296,328466,329580,328468,330646,330096,330096,330646,73
70,test,1,con,1,z,Thu Nov 07 2024 13:00:07 GMT-0600 (Central Standard Time),341911.39999985695,kiwi,1100,I,z,z,None,758,559.0,199.0,52,1,2396.0,339515.39999985695,7027,kiwi,NF,C,332496,332496,330665,331780,330667,333062,332296,332296,333061,74
71,test,1,con,1,z,Thu Nov 07 2024 13:00:07 GMT-0600 (Central Standard Time),343977.89999985695,plum,900,I,z,z,None,615,416.0,199.0,58,1,2046.5,341931.39999985695,7027,plum,NF,C,334711,334711,333081,333995,333083,335128,334511,334512,335128,75
72,test,1,inc,1,m,Thu Nov 07 2024 13:00:07 GMT-0600 (Central Standard Time),345959.09999990463,cherry,900,I,m,m,None,517,317.0,200.0,70,1,1959.3999998569489,343999.7000000477,7027,bronze,NF,C,336776,336776,335150,336062,335151,337109,336576,336576,337109,76
73,test,1,con,1,m,Thu Nov 07 2024 13:00:07 GMT-0600 (Central Standard Time),347992.7999999523,cobalt,800,I,m,m,None,684,483.0,201.0,89,1,2028.7000000476837,345964.09999990463,7027,cobalt,NF,C,338643,338644,337114,337926,337114,339143,338442,338442,339143,77
74,test,1,con,1,m,Thu Nov 07 2024 13:00:07 GMT-0600 (Central Standard Time),350091.89999985695,zinc,1100,I,m,m,None,437,238.0,199.0,116,1,2079.199999809265,348012.7000000477,7027,zinc,NF,C,340993,340993,339163,340276,339163,341242,340793,340793,341242,78
75,test,1,inc,1,z,Thu Nov 07 2024 13:00:07 GMT-0600 (Central Standard Time),352291.2999999523,lead,1100,I,z,z,None,538,339.0,199.0,40,1,2178.4000000953674,350112.89999985695,7027,lime,NF,C,343092,343092,341263,342376,341264,343441,342892,342892,343441,79
76,test,1,con,1,z,Thu Nov 07 2024 13:00:07 GMT-0600 (Central Standard Time),354423.89999985695,banana,1100,I,z,z,None,466,267.0,199.0,4,1,2112.199999809265,352311.7000000477,7027,banana,NF,C,345292,345292,343462,344575,343463,345574,345091,345092,345574,80
77,test,1,inc,1,z,Thu Nov 07 2024 13:00:07 GMT-0600 (Central Standard Time),356606.7000000477,zinc,1000,I,z,z,None,626,427.0,199.0,39,1,2162.9000000953674,354443.7999999523,7027,lime,NF,C,347324,347324,345594,346608,345595,347757,347124,347124,347757,81
78,test,1,inc,1,m,Thu Nov 07 2024 13:00:07 GMT-0600 (Central Standard Time),358739.09999990463,orange,1000,I,m,m,None,579,380.0,199.0,79,1,2115.399999856949,356623.7000000477,7027,copper,NF,C,349507,349507,347774,348790,347774,349889,349307,349307,349889,82
79,test,1,con,1,m,Thu Nov 07 2024 13:00:07 GMT-0600 (Central Standard Time),360988.59999990463,gold,1100,I,m,m,None,595,395.0,200.0,100,1,2229.7000000476837,358758.89999985695,7027,gold,NF,C,351740,351740,349909,351023,349910,352139,351539,351539,352138,83
80,test,1,con,1,m,Thu Nov 07 2024 13:00:07 GMT-0600 (Central Standard Time),362887.7999999523,copper,800,I,m,m,None,541,342.0,199.0,73,1,1878.7999999523163,361009.0,7027,copper,NF,C,353689,353689,352159,352973,352160,354038,353489,353489,354038,84
81,test,1,inc,1,z,Thu Nov 07 2024 13:00:07 GMT-0600 (Central Standard Time),365003.59999990463,silver,1000,I,z,z,None,562,363.0,199.0,31,1,2095.5,362908.09999990463,7027,raisin,NF,C,355788,355788,354058,355071,354059,356154,355588,355588,356154,85
82,test,1,con,1,z,Thu Nov 07 2024 13:00:07 GMT-0600 (Central Standard Time),366953.2999999523,kiwi,800,I,z,z,None,582,383.0,199.0,49,1,1930.4000000953674,365022.89999985695,7027,kiwi,NF,C,357704,357704,356173,356988,356174,358103,357504,357504,358103,86
83,test,1,inc,1,m,Thu Nov 07 2024 13:00:07 GMT-0600 (Central Standard Time),368969.09999990463,lime,800,I,m,m,None,657,458.0,199.0,101,1,1996.0,366973.09999990463,7027,gold,NF,C,359653,359653,358123,358937,358124,360119,359453,359453,360119,87
84,test,1,inc,1,m,Thu Nov 07 2024 13:00:07 GMT-0600 (Central Standard Time),371201.7999999523,pear,900,I,m,m,None,774,574.0,200.0,126,1,2212.5999999046326,368989.2000000477,7027,lead,NF,C,361769,361769,360139,361053,360140,362352,361569,361569,362352,88
85,test,1,con,1,m,Thu Nov 07 2024 13:00:07 GMT-0600 (Central Standard Time),374117.2999999523,gold,800,I,m,m,None,1560,1361.0,199.0,97,1,2894.7000000476837,371222.59999990463,7027,gold,NF,C,363902,363902,362373,363185,362374,365268,363702,363702,365267,89
86,test,1,con,1,m,Thu Nov 07 2024 13:00:07 GMT-0600 (Central Standard Time),376183.39999985695,copper,1000,I,m,m,None,503,304.0,199.0,75,1,2045.1999998092651,374138.2000000477,7027,copper,NF,C,367018,367018,365288,366301,365289,367334,366818,366818,367333,90
87,test,1,inc,1,m,Thu Nov 07 2024 13:00:07 GMT-0600 (Central Standard Time),378499.39999985695,plum,1100,I,m,m,None,654,455.0,199.0,112,1,2295.699999809265,376203.7000000477,7027,iron,NF,C,369183,369184,367354,368467,367355,369649,368984,368984,369649,91
88,test,1,inc,1,z,Thu Nov 07 2024 13:00:07 GMT-0600 (Central Standard Time),380481.59999990463,iron,900,I,z,z,None,530,331.0,199.0,46,1,1961.7000000476837,378519.89999985695,7027,pear,NF,C,371300,371300,369670,370583,369671,371632,371100,371100,371632,92
89,test,1,con,1,m,Thu Nov 07 2024 13:00:07 GMT-0600 (Central Standard Time),382697.7999999523,lead,1000,I,m,m,None,664,465.0,199.0,123,1,2196.5999999046326,380501.2000000477,7027,lead,NF,C,373382,373382,371651,372666,371652,373848,373182,373182,373848,93
90,test,1,con,1,z,Thu Nov 07 2024 13:00:07 GMT-0600 (Central Standard Time),385280.59999990463,orange,1100,I,z,z,None,916,717.0,199.0,20,1,2563.2000000476837,382717.39999985695,7027,orange,NF,C,375698,375698,373867,374982,373869,376431,375498,375498,376431,94
91,test,1,inc,1,z,Thu Nov 07 2024 13:00:07 GMT-0600 (Central Standard Time),387429.7000000477,zinc,1000,I,z,z,None,593,394.0,199.0,63,1,2128.9000000953674,385300.7999999523,7027,plum,NF,C,378181,378181,376451,377464,376452,378580,377981,377981,378580,95
92,test,1,inc,1,m,Thu Nov 07 2024 13:00:07 GMT-0600 (Central Standard Time),389562.2000000477,orange,1000,I,m,m,None,580,381.0,199.0,87,1,2113.5,387448.7000000477,7027,silver,NF,C,380330,380330,378599,379613,378599,380712,380130,380130,380712,96
93,test,1,inc,1,z,Thu Nov 07 2024 13:00:07 GMT-0600 (Central Standard Time),391460.89999985695,bronze,800,I,z,z,None,541,342.0,199.0,29,1,1879.5,389581.39999985695,7027,raisin,NF,C,382263,382263,380731,381546,380733,382611,382063,382063,382611,97
94,test,1,con,1,z,Thu Nov 07 2024 13:00:07 GMT-0600 (Central Standard Time),393611.2000000477,orange,1000,I,z,z,None,605,405.0,200.0,19,1,2145.100000143051,391466.09999990463,7027,orange,NF,C,384346,384346,382616,383629,382616,384761,384145,384145,384761,98
95,test,1,inc,1,m,Thu Nov 07 2024 13:00:07 GMT-0600 (Central Standard Time),395709.89999985695,kiwi,1000,I,m,m,None,544,345.0,199.0,119,1,2077.199999809265,393632.7000000477,7027,zinc,NF,C,386511,386511,384783,385796,384784,386860,386311,386311,386860,99
96,test,1,con,1,m,Thu Nov 07 2024 13:00:07 GMT-0600 (Central Standard Time),397959.59999990463,cobalt,1000,I,m,m,None,708,509.0,199.0,91,1,2240.399999856949,395719.2000000477,7027,cobalt,NF,C,388594,388594,386869,387877,386870,389110,388394,388394,389110,100
97,test,1,inc,1,m,Thu Nov 07 2024 13:00:07 GMT-0600 (Central Standard Time),400042.09999990463,cherry,900,I,m,m,None,630,431.0,199.0,86,1,2062.899999856949,397979.2000000477,7027,silver,NF,C,390760,390760,389129,390043,389130,391192,390560,390560,391192,101
98,test,1,inc,1,m,Thu Nov 07 2024 13:00:07 GMT-0600 (Central Standard Time),402108.2999999523,cherry,900,I,m,m,None,603,404.0,199.0,94,1,2046.0999999046326,400062.2000000477,7027,cobalt,NF,C,392843,392843,391212,392126,391213,393258,392643,392643,393258,102
99,test,1,con,1,z,Thu Nov 07 2024 13:00:07 GMT-0600 (Central Standard Time),403991.0,pear,900,I,z,z,None,419,219.0,200.0,42,1,1862.0,402129.0,7027,pear,NF,C,394908,394908,393279,394192,393280,395141,394708,394708,395141,103
100,test,1,con,1,m,Thu Nov 07 2024 13:00:07 GMT-0600 (Central Standard Time),405857.89999985695,lead,800,I,m,m,None,514,299.0,215.0,121,1,1847.0,404010.89999985695,7027,lead,NF,C,396708,396708,395161,395975,395162,397008,396492,396492,397008,104
101,test,1,con,1,m,Thu Nov 07 2024 13:00:07 GMT-0600 (Central Standard Time),407873.09999990463,lead,900,I,m,m,None,557,357.0,200.0,122,1,1995.7000000476837,405877.39999985695,7027,lead,NF,C,398658,398658,397027,397941,397028,399023,398457,398457,399023,105
102,test,1,inc,1,m,Thu Nov 07 2024 13:00:07 GMT-0600 (Central Standard Time),410222.2000000477,plum,1100,I,m,m,None,694,494.0,200.0,104,1,2329.800000190735,407892.39999985695,7027,gold,NF,C,400873,400873,399042,400157,399043,401372,400673,400673,401372,106
103,test,1,inc,1,m,Thu Nov 07 2024 13:00:07 GMT-0600 (Central Standard Time),412138.0,lime,800,I,m,m,None,564,364.0,200.0,117,1,1896.2000000476837,410241.7999999523,7027,zinc,NF,C,402923,402923,401392,402206,401393,403288,402722,402722,403288,107
104,test,1,inc,1,z,Thu Nov 07 2024 13:00:07 GMT-0600 (Central Standard Time),414204.39999985695,silver,1000,I,z,z,None,504,305.0,199.0,7,1,2047.2999999523163,412157.09999990463,7027,banana,NF,C,405038,405038,403307,404322,403308,405355,404838,404838,405354,108
105,test,1,inc,1,m,Thu Nov 07 2024 13:00:07 GMT-0600 (Central Standard Time),416303.59999990463,orange,1000,I,m,m,None,542,342.0,200.0,71,1,2078.7999999523163,414224.7999999523,7027,bronze,NF,C,407104,407105,405375,406388,405376,407454,406904,406904,407454,109
106,test,1,con,1,z,Thu Nov 07 2024 13:00:07 GMT-0600 (Central Standard Time),418319.59999990463,banana,900,I,z,z,None,558,359.0,199.0,2,1,1995.8999998569489,416323.7000000477,7027,banana,NF,C,409104,409104,407474,408387,407475,409470,408904,408904,409470,110
106,test,1,inc,0,z,Thu Nov 07 2024 13:00:07 GMT-0600 (Central Standard Time),420519.0,lead,1100,I,m,m,None,542,343.0,199.0,48,1,2178.0,418341.0,7027,pear,NF,C,411320,411320,409491,410603,409492,411669,411120,411120,411669,111
107,test,1,inc,1,z,Thu Nov 07 2024 13:00:07 GMT-0600 (Central Standard Time),422901.2999999523,zinc,1000,I,z,z,None,819,620.0,199.0,55,1,2362.2000000476837,420539.09999990463,7027,kiwi,NF,C,413419,413419,411689,412702,411690,414052,413219,413219,414051,112
108,test,1,inc,1,z,Thu Nov 07 2024 13:00:07 GMT-0600 (Central Standard Time),425100.7000000477,copper,900,I,z,z,None,737,538.0,199.0,30,1,2178.600000143051,422922.09999990463,7027,raisin,NF,C,415701,415701,414072,414984,414073,416251,415502,415502,416251,113
109,test,1,inc,1,z,Thu Nov 07 2024 13:00:07 GMT-0600 (Central Standard Time),427033.59999990463,bronze,800,I,z,z,None,581,382.0,199.0,5,1,1912.2999999523163,425121.2999999523,7027,banana,NF,C,417801,417801,416271,417084,416272,418184,417601,417601,418183,114
110,test,1,inc,1,m,Thu Nov 07 2024 13:00:07 GMT-0600 (Central Standard Time),429232.7000000477,orange,1000,I,m,m,None,632,433.0,199.0,95,1,2179.600000143051,427053.09999990463,7027,cobalt,NF,C,419934,419934,418203,419217,418204,420383,419734,419734,420383,115
110,test,1,con,0,m,Thu Nov 07 2024 13:00:07 GMT-0600 (Central Standard Time),432898.2000000477,silver,1100,I,None,None,None,1815,1815.0,199.0,84,1,3645.2000000476837,429253.0,7027,silver,NF,C,422233,422233,420403,421516,420404,424048,422033,422033,424048,116
111,test,1,inc,1,m,Thu Nov 07 2024 13:00:07 GMT-0600 (Central Standard Time),434897.39999985695,lime,800,I,m,m,None,648,449.0,199.0,125,1,1982.2999999523163,432915.09999990463,7027,lead,NF,C,425598,425598,424065,424882,424066,426048,425398,425398,426047,117
112,test,1,inc,1,z,Thu Nov 07 2024 13:00:07 GMT-0600 (Central Standard Time),436863.59999990463,bronze,800,I,z,z,None,600,401.0,199.0,21,1,1946.2000000476837,434917.39999985695,7027,orange,NF,C,427598,427598,426067,426881,426068,428014,427398,427398,428014,118
113,test,1,con,1,z,Thu Nov 07 2024 13:00:07 GMT-0600 (Central Standard Time),438746.2999999523,plum,800,I,z,z,None,522,323.0,199.0,57,1,1863.4000000953674,436882.89999985695,7027,plum,NF,C,429564,429564,428033,428847,428034,429896,429364,429364,429896,119
114,test,1,con,1,z,Thu Nov 07 2024 13:00:07 GMT-0600 (Central Standard Time),440812.09999990463,orange,800,I,z,z,None,713,513.0,200.0,17,1,2046.0999999046326,438766.0,7027,orange,NF,C,431446,431446,429916,430730,429917,431962,431246,431246,431962,120
115,test,1,con,1,z,Thu Nov 07 2024 13:00:07 GMT-0600 (Central Standard Time),442977.7999999523,plum,1100,I,z,z,None,513,314.0,199.0,60,1,2146.2000000476837,440831.59999990463,7027,plum,NF,C,433813,433813,431982,433096,431983,434128,433612,433612,434128,121
116,test,1,inc,1,z,Thu Nov 07 2024 13:00:07 GMT-0600 (Central Standard Time),445144.09999990463,silver,1000,I,z,z,None,600,401.0,199.0,15,1,2146.0,442998.09999990463,7027,cherry,NF,C,435878,435878,434148,435162,434149,436294,435679,435679,436294,122
117,test,1,inc,1,z,Thu Nov 07 2024 13:00:07 GMT-0600 (Central Standard Time),447193.5,gold,800,I,z,z,None,682,483.0,199.0,53,1,2027.2999999523163,445166.2000000477,7027,kiwi,NF,C,437844,437844,436316,437128,436317,438344,437644,437644,438343,123
117,test,1,con,0,m,Thu Nov 07 2024 13:00:07 GMT-0600 (Central Standard Time),449326.2000000477,iron,1100,I,z,z,None,469,269.0,200.0,108,1,2115.5,447210.7000000477,7027,iron,NF,C,440193,440194,438361,439477,438361,440476,439993,439993,440476,124
117,test,1,con,0,m,Thu Nov 07 2024 13:00:07 GMT-0600 (Central Standard Time),451641.39999985695,bronze,1100,I,z,z,None,663,464.0,199.0,68,1,2295.399999856949,449346.0,7027,bronze,NF,C,442326,442326,440496,441610,440497,442791,442126,442126,442791,125
118,test,1,con,1,m,Thu Nov 07 2024 13:00:07 GMT-0600 (Central Standard Time),453758.0,zinc,1000,I,m,m,None,570,370.0,200.0,115,1,2106.9000000953674,451651.09999990463,7027,zinc,NF,C,444525,444525,442801,443809,442801,444908,444325,444325,444908,126
119,test,1,con,1,m,Thu Nov 07 2024 13:00:07 GMT-0600 (Central Standard Time),455657.59999990463,bronze,800,I,m,m,None,548,349.0,199.0,65,1,1880.2000000476837,453777.39999985695,7027,bronze,NF,C,446458,446458,444927,445741,444928,446808,446258,446258,446808,127
120,test,1,con,1,m,Thu Nov 07 2024 13:00:07 GMT-0600 (Central Standard Time),457640.09999990463,silver,900,I,m,m,None,526,326.0,200.0,82,1,1963.5,455676.59999990463,7027,silver,NF,C,448457,448457,446827,447741,446828,448790,448257,448257,448790,128
