Q,Q1,Q2,Q3,Q4,acc_sum,block,block_c,correct,correct_response,datetime,endtime,project,response,response_time,row_sel,session_number,squiggle1,squiggle1x,squiggle1y,squiggle2,squiggle2x,squiggle2y,squiggle3,squiggle3x,squiggle3y,squiggle4,squiggle4x,squiggle4y,start_end,starttime,subject_id,target_congruent,task,task_vers,testsquiggle,testsquigglex,testsquiggley,time_practice_delay,time_practice_fixation,time_practice_stimuli,time_practice_study,time_test_delay,time_test_fixation,time_test_stimuli,time_test_study,trial
1,1,0,0,0,1,prac,1,1,z,Mon Apr 28 2025 16:25:00 GMT-0500 (Central Daylight Time),127979.5,O,z,1597,1,1,116.bmp,-120,-120,117.bmp,120,-120,118.bmp,-120,120,119.bmp,120,120,10414.59999999404,117564.90000000596,7133,yes,SM,A,116.bmp,-120,-120,114610,108578,116627,110593,,,,,1
3,0,0,1,0,1,prac,1,0,m,Mon Apr 28 2025 16:25:00 GMT-0500 (Central Daylight Time),138475.80000001192,O,z,1655,2,1,120.bmp,-120,-120,121.bmp,120,-120,122.bmp,-120,120,123.bmp,120,120,10478.200000017881,127997.59999999404,7133,no,SM,A,123.bmp,-120,120,125040,119010,127057,121025,,,,,2
4,0,0,0,1,2,prac,1,1,m,Mon Apr 28 2025 16:25:00 GMT-0500 (Central Daylight Time),149289.0,O,m,1975,3,1,124.bmp,-120,-120,125.bmp,120,-120,126.bmp,-120,120,127.bmp,120,120,10797.59999999404,138491.40000000596,7133,no,SM,A,124.bmp,120,120,135536,129504,137553,131522,,,,,3
2,0,1,0,0,2,prac,1,0,z,Mon Apr 28 2025 16:25:00 GMT-0500 (Central Daylight Time),160135.30000001192,O,None,2014,4,1,128.bmp,-120,-120,129.bmp,120,-120,130.bmp,-120,120,131.bmp,120,120,10829.0,149306.30000001192,7133,yes,SM,A,129.bmp,120,-120,146349,140319,148367,142333,,,,,4
3,0,0,1,0,3,prac,1,1,z,Mon Apr 28 2025 16:25:00 GMT-0500 (Central Daylight Time),170314.80000001192,O,z,1356,5,1,132.bmp,-120,-120,133.bmp,120,-120,134.bmp,-120,120,135.bmp,120,120,10165.200000017881,160149.59999999404,7133,yes,SM,A,134.bmp,-120,120,157179,151162,159196,153165,,,,,5
1,1,0,0,0,4,prac,1,1,m,Mon Apr 28 2025 16:25:00 GMT-0500 (Central Daylight Time),180645.30000001192,O,m,1512,6,1,136.bmp,-120,-120,137.bmp,120,-120,138.bmp,-120,120,139.bmp,120,120,10319.600000023842,170325.69999998808,7133,no,SM,A,139.bmp,-120,-120,167359,161338,169376,163345,,,,,6
2,0,1,0,0,5,prac,1,1,m,Mon Apr 28 2025 16:25:00 GMT-0500 (Central Daylight Time),191457.59999999404,O,m,1965,7,1,140.bmp,-120,-120,141.bmp,120,-120,142.bmp,-120,120,143.bmp,120,120,10796.90000000596,180660.69999998808,7133,no,SM,A,140.bmp,120,-120,177705,171674,179722,173691,,,,,7
4,0,0,0,1,5,prac,1,0,z,Mon Apr 28 2025 16:25:00 GMT-0500 (Central Daylight Time),202288.09999999404,O,None,2013,8,1,144.bmp,-120,-120,145.bmp,120,-120,146.bmp,-120,120,147.bmp,120,120,10821.799999982119,191466.30000001192,7133,yes,SM,A,147.bmp,120,120,188502,182479,190520,184486,,,,,8
4,0,0,0,1,0,test,1,0,m,Mon Apr 28 2025 16:25:00 GMT-0500 (Central Daylight Time),227913.0,O,None,2015,1,1,148.bmp,-120,-120,149.bmp,120,-120,150.bmp,-120,120,143.bmp,120,120,10051.0,217862.0,7133,no,SM,A,150.bmp,120,120,188502,182479,190520,184486,214893.0,208875.0,216910.0,210879.0,1
2,0,1,0,0,1,test,1,1,m,Mon Apr 28 2025 16:25:00 GMT-0500 (Central Daylight Time),237859.80000001192,O,m,1873,2,1,101.bmp,-120,-120,102.bmp,120,-120,103.bmp,-120,120,104.bmp,120,120,9923.300000011921,227936.5,7133,no,SM,A,103.bmp,120,-120,188502,182479,190520,184486,224973.0,218949.0,226991.0,220960.0,2
1,1,0,0,0,1,test,1,0,z,Mon Apr 28 2025 16:25:00 GMT-0500 (Central Daylight Time),247923.09999999404,O,None,2015,3,1,105.bmp,-120,-120,106.bmp,120,-120,107.bmp,-120,120,108.bmp,120,120,10049.699999988079,237873.40000000596,7133,yes,SM,A,105.bmp,-120,-120,188502,182479,190520,184486,234903.0,228886.0,236920.0,230889.0,3
3,0,0,1,0,2,test,1,1,m,Mon Apr 28 2025 16:25:00 GMT-0500 (Central Daylight Time),257653.0,O,m,1680,4,1,109.bmp,-120,-120,110.bmp,120,-120,111.bmp,-120,120,112.bmp,120,120,9715.90000000596,247937.09999999404,7133,no,SM,A,109.bmp,-120,120,188502,182479,190520,184486,244967.0,238950.0,246984.0,240952.0,4
2,0,1,0,0,3,test,1,1,z,Mon Apr 28 2025 16:25:00 GMT-0500 (Central Daylight Time),267566.3000000119,O,z,1863,5,1,113.bmp,-120,-120,114.bmp,120,-120,115.bmp,-120,120,116.bmp,120,120,9899.100000023842,257667.19999998808,7133,yes,SM,A,114.bmp,120,-120,188502,182479,190520,184486,254697.0,248680.0,256713.0,250683.0,5
3,0,0,1,0,4,test,1,1,z,Mon Apr 28 2025 16:25:00 GMT-0500 (Central Daylight Time),277296.6999999881,O,z,1676,6,1,117.bmp,-120,-120,118.bmp,120,-120,119.bmp,-120,120,120.bmp,120,120,9717.5,267579.1999999881,7133,yes,SM,A,119.bmp,-120,120,188502,182479,190520,184486,264610.0,258592.0,266628.0,260596.0,6
4,0,0,0,1,4,test,1,0,z,Mon Apr 28 2025 16:25:00 GMT-0500 (Central Daylight Time),287359.5,O,None,2013,7,1,121.bmp,-120,-120,122.bmp,120,-120,123.bmp,-120,120,124.bmp,120,120,10049.0,277310.5,7133,yes,SM,A,124.bmp,120,120,188502,182479,190520,184486,274340.0,268323.0,276358.0,270326.0,7
2,0,1,0,0,5,test,1,1,m,Mon Apr 28 2025 16:25:00 GMT-0500 (Central Daylight Time),296940.3000000119,O,m,1523,8,1,125.bmp,-120,-120,126.bmp,120,-120,127.bmp,-120,120,128.bmp,120,120,9572.90000000596,287367.40000000596,7133,no,SM,A,125.bmp,120,-120,188502,182479,190520,184486,284404.0,278380.0,286421.0,280389.0,8
3,0,0,1,0,5,test,1,0,m,Mon Apr 28 2025 16:25:00 GMT-0500 (Central Daylight Time),306970.3000000119,O,z,1966,9,1,129.bmp,-120,-120,130.bmp,120,-120,131.bmp,-120,120,132.bmp,120,120,10016.90000000596,296953.40000000596,7133,no,SM,A,130.bmp,-120,120,188502,182479,190520,184486,293984.0,287966.0,296002.0,289969.0,9
4,0,0,0,1,6,test,1,1,z,Mon Apr 28 2025 16:25:00 GMT-0500 (Central Daylight Time),316833.0,O,z,1808,10,1,137.bmp,-120,-120,138.bmp,120,-120,139.bmp,-120,120,140.bmp,120,120,9848.699999988079,306984.3000000119,7133,yes,SM,A,140.bmp,120,120,188502,182479,190520,184486,304014.0,297997.0,306031.0,300000.0,10
3,0,0,1,0,7,test,1,1,z,Mon Apr 28 2025 16:25:00 GMT-0500 (Central Daylight Time),326580.59999999404,O,z,1682,11,1,133.bmp,-120,-120,134.bmp,120,-120,135.bmp,-120,120,136.bmp,120,120,9743.5,316837.09999999404,7133,yes,SM,A,135.bmp,-120,120,188502,182479,190520,184486,313877.0,307849.0,315895.0,309862.0,11
2,0,1,0,0,8,test,1,1,m,Mon Apr 28 2025 16:25:00 GMT-0500 (Central Daylight Time),336460.90000000596,O,m,1830,12,1,141.bmp,-120,-120,142.bmp,120,-120,143.bmp,-120,120,144.bmp,120,120,9867.40000000596,326593.5,7133,no,SM,A,141.bmp,120,-120,188502,182479,190520,184486,323624.0,317606.0,325641.0,319610.0,12
3,0,0,1,0,9,test,1,1,m,Mon Apr 28 2025 16:25:00 GMT-0500 (Central Daylight Time),346007.6999999881,O,m,1471,13,1,145.bmp,-120,-120,146.bmp,120,-120,147.bmp,-120,120,148.bmp,120,120,9532.399999976158,336475.3000000119,7133,no,SM,A,146.bmp,-120,120,188502,182479,190520,184486,333521.0,327488.0,335538.0,329507.0,13
1,1,0,0,0,10,test,1,1,z,Mon Apr 28 2025 16:25:00 GMT-0500 (Central Daylight Time),355804.59999999404,O,z,1732,14,1,149.bmp,-120,-120,150.bmp,120,-120,104.bmp,-120,120,101.bmp,120,120,9782.799999982119,346021.8000000119,7133,yes,SM,A,149.bmp,-120,-120,188502,182479,190520,184486,343051.0,337035.0,345068.0,339037.0,14
4,0,0,0,1,10,test,1,0,m,Mon Apr 28 2025 16:25:00 GMT-0500 (Central Daylight Time),365867.8000000119,O,None,2015,15,1,110.bmp,-120,-120,111.bmp,120,-120,112.bmp,-120,120,113.bmp,120,120,10049.5,355818.3000000119,7133,no,SM,A,111.bmp,120,120,188502,182479,190520,184486,352848.0,346831.0,354865.0,348834.0,15
1,1,0,0,0,10,test,1,0,m,Mon Apr 28 2025 16:25:00 GMT-0500 (Central Daylight Time),375931.1999999881,O,None,2014,16,1,102.bmp,-120,-120,103.bmp,120,-120,104.bmp,-120,120,105.bmp,120,120,10050.299999982119,365880.90000000596,7133,no,SM,A,105.bmp,-120,-120,188502,182479,190520,184486,362911.0,356894.0,364928.0,358897.0,16
3,0,0,1,0,11,test,1,1,m,Mon Apr 28 2025 16:25:00 GMT-0500 (Central Daylight Time),385277.90000000596,O,m,1271,17,1,122.bmp,-120,-120,123.bmp,120,-120,124.bmp,-120,120,125.bmp,120,120,9332.0,375945.90000000596,7133,no,SM,A,122.bmp,-120,120,188502,182479,190520,184486,372991.0,366960.0,375009.0,368977.0,17
1,1,0,0,0,12,test,1,1,z,Mon Apr 28 2025 16:25:00 GMT-0500 (Central Daylight Time),395241.40000000596,O,z,1909,18,1,106.bmp,-120,-120,107.bmp,120,-120,108.bmp,-120,120,109.bmp,120,120,9951.40000000596,385290.0,7133,yes,SM,A,106.bmp,-120,-120,188502,182479,190520,184486,382321.0,376303.0,384339.0,378307.0,18
2,0,1,0,0,13,test,1,1,z,Mon Apr 28 2025 16:25:00 GMT-0500 (Central Daylight Time),405205.8000000119,O,z,1915,19,1,126.bmp,-120,-120,127.bmp,120,-120,128.bmp,-120,120,129.bmp,120,120,9951.800000011921,395254.0,7133,yes,SM,A,127.bmp,120,-120,188502,182479,190520,184486,392285.0,386267.0,394302.0,388271.0,19
3,0,0,1,0,14,test,1,1,z,Mon Apr 28 2025 16:25:00 GMT-0500 (Central Daylight Time),415051.6999999881,O,z,1783,20,1,130.bmp,-120,-120,131.bmp,120,-120,132.bmp,-120,120,133.bmp,120,120,9832.299999982119,405219.40000000596,7133,yes,SM,A,132.bmp,-120,120,188502,182479,190520,184486,402248.0,396232.0,404265.0,398234.0,20
1,1,0,0,0,14,test,1,0,m,Mon Apr 28 2025 16:25:00 GMT-0500 (Central Daylight Time),425031.6999999881,O,z,1921,21,1,114.bmp,-120,-120,115.bmp,120,-120,116.bmp,-120,120,117.bmp,120,120,9966.399999976158,415065.3000000119,7133,no,SM,A,116.bmp,-120,-120,188502,182479,190520,184486,412095.0,406078.0,414112.0,408081.0,21
4,0,0,0,1,15,test,1,1,z,Mon Apr 28 2025 16:25:00 GMT-0500 (Central Daylight Time),434795.1999999881,O,z,1700,22,1,118.bmp,-120,-120,119.bmp,120,-120,120.bmp,-120,120,121.bmp,120,120,9750.699999988079,425044.5,7133,yes,SM,A,121.bmp,120,120,188502,182479,190520,184486,422074.0,416057.0,424092.0,418061.0,22
1,1,0,0,0,15,test,1,0,m,Mon Apr 28 2025 16:25:00 GMT-0500 (Central Daylight Time),444858.59999999404,O,None,2014,23,1,134.bmp,-120,-120,135.bmp,120,-120,136.bmp,-120,120,137.bmp,120,120,10050.5,434808.09999999404,7133,no,SM,A,137.bmp,-120,-120,188502,182479,190520,184486,431838.0,425821.0,433856.0,427824.0,23
2,0,1,0,0,16,test,1,1,z,Mon Apr 28 2025 16:25:00 GMT-0500 (Central Daylight Time),454704.3000000119,O,z,1794,24,1,142.bmp,-120,-120,143.bmp,120,-120,144.bmp,-120,120,145.bmp,120,120,9832.0,444872.3000000119,7133,yes,SM,A,143.bmp,120,-120,188502,182479,190520,184486,441902.0,435885.0,443917.0,437888.0,24
4,0,0,0,1,17,test,1,1,m,Mon Apr 28 2025 16:25:00 GMT-0500 (Central Daylight Time),464152.09999999404,O,m,1386,25,1,146.bmp,-120,-120,147.bmp,120,-120,148.bmp,-120,120,149.bmp,120,120,9443.699999988079,454708.40000000596,7133,no,SM,A,148.bmp,120,120,188502,182479,190520,184486,451748.0,445721.0,453766.0,447734.0,25
1,1,0,0,0,17,test,1,0,z,Mon Apr 28 2025 16:25:00 GMT-0500 (Central Daylight Time),474048.6999999881,O,m,1826,26,1,138.bmp,-120,-120,139.bmp,120,-120,140.bmp,-120,120,141.bmp,120,120,9882.0,464166.6999999881,7133,yes,SM,A,138.bmp,-120,-120,188502,182479,190520,184486,461212.0,455180.0,463230.0,457198.0,26
4,0,0,0,1,17,test,1,0,z,Mon Apr 28 2025 16:25:00 GMT-0500 (Central Daylight Time),483762.1999999881,O,m,1660,27,1,150.bmp,-120,-120,111.bmp,120,-120,101.bmp,-120,120,102.bmp,120,120,9699.899999976158,474062.3000000119,7133,yes,SM,A,102.bmp,120,120,188502,182479,190520,184486,471093.0,465075.0,473109.0,467077.0,27
3,0,0,1,0,17,test,1,0,m,Mon Apr 28 2025 16:25:00 GMT-0500 (Central Daylight Time),493575.90000000596,O,z,1754,28,1,103.bmp,-120,-120,104.bmp,120,-120,105.bmp,-120,120,106.bmp,120,120,9801.200000017881,483774.6999999881,7133,no,SM,A,103.bmp,-120,120,188502,182479,190520,184486,480806.0,474788.0,482822.0,476791.0,28
2,0,1,0,0,17,test,1,0,z,Mon Apr 28 2025 16:25:00 GMT-0500 (Central Daylight Time),503355.1999999881,O,m,1715,29,1,107.bmp,-120,-120,108.bmp,120,-120,109.bmp,-120,120,110.bmp,120,120,9764.699999988079,493590.5,7133,yes,SM,A,108.bmp,120,-120,188502,182479,190520,184486,490635.0,484603.0,492652.0,486620.0,29
3,0,0,1,0,18,test,1,1,z,Mon Apr 28 2025 16:25:00 GMT-0500 (Central Daylight Time),512852.1999999881,O,z,1448,30,1,111.bmp,-120,-120,112.bmp,120,-120,113.bmp,-120,120,114.bmp,120,120,9493.399999976158,503358.8000000119,7133,yes,SM,A,113.bmp,-120,120,188502,182479,190520,184486,500399.0,494371.0,502415.0,496383.0,30
1,1,0,0,0,19,test,1,1,z,Mon Apr 28 2025 16:25:00 GMT-0500 (Central Daylight Time),522483.09999999404,O,z,1567,31,1,115.bmp,-120,-120,116.bmp,120,-120,117.bmp,-120,120,118.bmp,120,120,9627.40000000596,512855.6999999881,7133,yes,SM,A,115.bmp,-120,-120,188502,182479,190520,184486,509896.0,503868.0,511913.0,505881.0,31
2,0,1,0,0,19,test,1,0,m,Mon Apr 28 2025 16:25:00 GMT-0500 (Central Daylight Time),532362.3000000119,O,z,1817,32,1,119.bmp,-120,-120,120.bmp,120,-120,121.bmp,-120,120,122.bmp,120,120,9866.600000023842,522495.6999999881,7133,no,SM,A,119.bmp,120,-120,188502,182479,190520,184486,519527.0,513508.0,521542.0,515512.0,32
4,0,0,0,1,19,test,1,0,z,Mon Apr 28 2025 16:25:00 GMT-0500 (Central Daylight Time),541859.099999994,O,m,1433,33,1,131.bmp,-120,-120,132.bmp,120,-120,133.bmp,-120,120,134.bmp,120,120,9492.299999982119,532366.8000000119,7133,yes,SM,A,134.bmp,120,120,188502,182479,190520,184486,529406.0,523379.0,531422.0,525391.0,33
2,0,1,0,0,19,test,1,0,z,Mon Apr 28 2025 16:25:00 GMT-0500 (Central Daylight Time),551922.5,O,None,2014,34,1,123.bmp,-120,-120,124.bmp,120,-120,125.bmp,-120,120,126.bmp,120,120,10059.59999999404,541862.900000006,7133,yes,SM,A,124.bmp,120,-120,188502,182479,190520,184486,538903.0,532875.0,540921.0,534889.0,34
4,0,0,0,1,20,test,1,1,m,Mon Apr 28 2025 16:25:00 GMT-0500 (Central Daylight Time),561219.599999994,O,m,1233,35,1,127.bmp,-120,-120,128.bmp,120,-120,129.bmp,-120,120,130.bmp,120,120,9286.59999999404,551933.0,7133,no,SM,A,129.bmp,120,120,188502,182479,190520,184486,548966.0,542945.0,550982.0,544954.0,35
3,0,0,1,0,21,test,1,1,m,Mon Apr 28 2025 16:25:00 GMT-0500 (Central Daylight Time),570816.400000006,O,m,1542,36,1,135.bmp,-120,-120,136.bmp,120,-120,137.bmp,-120,120,138.bmp,120,120,9592.59999999404,561223.8000000119,7133,no,SM,A,135.bmp,-120,120,188502,182479,190520,184486,558263.0,552236.0,560281.0,554248.0,36
1,1,0,0,0,22,test,1,1,m,Mon Apr 28 2025 16:25:00 GMT-0500 (Central Daylight Time),580847.099999994,O,m,1979,37,1,139.bmp,-120,-120,140.bmp,120,-120,141.bmp,-120,120,142.bmp,120,120,10026.59999999404,570820.5,7133,no,SM,A,140.bmp,-120,-120,188502,182479,190520,184486,567861.0,561833.0,569878.0,563845.0,37
2,0,1,0,0,23,test,1,1,m,Mon Apr 28 2025 16:25:00 GMT-0500 (Central Daylight Time),590377.0,O,m,1477,38,1,143.bmp,-120,-120,144.bmp,120,-120,145.bmp,-120,120,146.bmp,120,120,9517.40000000596,580859.599999994,7133,no,SM,A,145.bmp,120,-120,188502,182479,190520,184486,577891.0,571872.0,579908.0,573876.0,38
4,0,0,0,1,24,test,1,1,z,Mon Apr 28 2025 16:25:00 GMT-0500 (Central Daylight Time),599941.0,O,z,1507,39,1,147.bmp,-120,-120,148.bmp,120,-120,149.bmp,-120,120,150.bmp,120,120,9550.800000011921,590390.1999999881,7133,yes,SM,A,150.bmp,120,120,188502,182479,190520,184486,587421.0,581403.0,589438.0,583407.0,39
3,0,0,1,0,25,test,1,1,m,Mon Apr 28 2025 16:25:00 GMT-0500 (Central Daylight Time),609954.099999994,O,m,1959,40,1,104.bmp,-120,-120,105.bmp,120,-120,106.bmp,-120,120,107.bmp,120,120,9999.90000000596,599954.1999999881,7133,no,SM,A,105.bmp,-120,120,188502,182479,190520,184486,596984.0,590967.0,599002.0,592970.0,40
1,1,0,0,0,25,test,1,0,z,Mon Apr 28 2025 16:25:00 GMT-0500 (Central Daylight Time),620017.900000006,O,None,2015,41,1,108.bmp,-120,-120,109.bmp,120,-120,110.bmp,-120,120,111.bmp,120,120,10050.59999999404,609967.3000000119,7133,yes,SM,A,108.bmp,-120,-120,188502,182479,190520,184486,606998.0,600980.0,609015.0,602983.0,41
4,0,0,0,1,25,test,1,0,z,Mon Apr 28 2025 16:25:00 GMT-0500 (Central Daylight Time),630081.0,O,None,2015,42,1,112.bmp,-120,-120,113.bmp,120,-120,114.bmp,-120,120,115.bmp,120,120,10049.90000000596,620031.099999994,7133,yes,SM,A,115.bmp,120,120,188502,182479,190520,184486,617061.0,611044.0,619078.0,613047.0,42
1,1,0,0,0,26,test,1,1,z,Mon Apr 28 2025 16:25:00 GMT-0500 (Central Daylight Time),639944.6999999881,O,z,1802,43,1,116.bmp,-120,-120,117.bmp,120,-120,118.bmp,-120,120,119.bmp,120,120,9851.59999999404,630093.099999994,7133,yes,SM,A,116.bmp,-120,-120,188502,182479,190520,184486,627124.0,621106.0,629142.0,623110.0,43
4,0,0,0,1,27,test,1,1,m,Mon Apr 28 2025 16:25:00 GMT-0500 (Central Daylight Time),649541.1999999881,O,m,1540,44,1,104.bmp,-120,-120,101.bmp,120,-120,102.bmp,-120,120,103.bmp,120,120,9582.59999999404,639958.599999994,7133,no,SM,A,104.bmp,120,120,188502,182479,190520,184486,636988.0,630971.0,639005.0,632974.0,44
1,1,0,0,0,27,test,1,0,m,Mon Apr 28 2025 16:25:00 GMT-0500 (Central Daylight Time),659571.5,O,z,1967,45,1,128.bmp,-120,-120,129.bmp,120,-120,130.bmp,-120,120,131.bmp,120,120,10017.699999988079,649553.8000000119,7133,no,SM,A,131.bmp,-120,-120,188502,182479,190520,184486,646585.0,640566.0,648602.0,642570.0,45
1,1,0,0,0,28,test,1,1,m,Mon Apr 28 2025 16:25:00 GMT-0500 (Central Daylight Time),669418.1999999881,O,m,1784,46,1,120.bmp,-120,-120,121.bmp,120,-120,122.bmp,-120,120,123.bmp,120,120,9834.799999982119,659583.400000006,7133,no,SM,A,121.bmp,-120,-120,188502,182479,190520,184486,656615.0,650596.0,658632.0,652601.0,46
3,0,0,1,0,29,test,1,1,z,Mon Apr 28 2025 16:25:00 GMT-0500 (Central Daylight Time),678898.1999999881,O,z,1409,47,1,124.bmp,-120,-120,125.bmp,120,-120,126.bmp,-120,120,127.bmp,120,120,9455.899999976158,669442.3000000119,7133,yes,SM,A,126.bmp,-120,120,188502,182479,190520,184486,666479.0,660455.0,668496.0,662464.0,47
3,0,0,1,0,29,test,1,0,z,Mon Apr 28 2025 16:25:00 GMT-0500 (Central Daylight Time),688795.3000000119,O,m,1833,48,1,140.bmp,-120,-120,141.bmp,120,-120,142.bmp,-120,120,143.bmp,120,120,9888.600000023842,678906.6999999881,7133,yes,SM,A,142.bmp,-120,120,188502,182479,190520,184486,675942.0,669919.0,677959.0,671928.0,48
2,0,1,0,0,30,test,1,1,z,Mon Apr 28 2025 16:25:00 GMT-0500 (Central Daylight Time),698458.6999999881,O,z,1592,49,1,136.bmp,-120,-120,137.bmp,120,-120,138.bmp,-120,120,139.bmp,120,120,9648.699999988079,688810.0,7133,yes,SM,A,137.bmp,120,-120,188502,182479,190520,184486,685855.0,679823.0,687873.0,681840.0,49
3,0,0,1,0,31,test,1,1,m,Mon Apr 28 2025 16:25:00 GMT-0500 (Central Daylight Time),708122.1999999881,O,m,1610,50,1,132.bmp,-120,-120,133.bmp,120,-120,134.bmp,-120,120,135.bmp,120,120,9650.299999982119,698471.900000006,7133,no,SM,A,132.bmp,-120,120,188502,182479,190520,184486,695502.0,689485.0,697519.0,691487.0,50
2,0,1,0,0,32,test,1,1,z,Mon Apr 28 2025 16:25:00 GMT-0500 (Central Daylight Time),717769.1999999881,O,z,1586,51,1,144.bmp,-120,-120,145.bmp,120,-120,146.bmp,-120,120,147.bmp,120,120,9634.799999982119,708134.400000006,7133,yes,SM,A,145.bmp,120,-120,188502,182479,190520,184486,705166.0,699147.0,707183.0,701151.0,51
4,0,0,0,1,33,test,1,1,m,Mon Apr 28 2025 16:25:00 GMT-0500 (Central Daylight Time),727515.8000000119,O,m,1691,52,1,148.bmp,-120,-120,149.bmp,120,-120,150.bmp,-120,120,131.bmp,120,120,9734.300000011921,717781.5,7133,no,SM,A,148.bmp,120,120,188502,182479,190520,184486,714812.0,708794.0,716830.0,710798.0,52
3,0,0,1,0,34,test,1,1,z,Mon Apr 28 2025 16:25:00 GMT-0500 (Central Daylight Time),736812.6999999881,O,z,1232,53,1,101.bmp,-120,-120,102.bmp,120,-120,103.bmp,-120,120,104.bmp,120,120,9283.5,727529.1999999881,7133,yes,SM,A,103.bmp,-120,120,188502,182479,190520,184486,724559.0,718542.0,726577.0,720545.0,53
1,1,0,0,0,35,test,1,1,m,Mon Apr 28 2025 16:25:00 GMT-0500 (Central Daylight Time),746826.1999999881,O,m,1952,54,1,105.bmp,-120,-120,106.bmp,120,-120,107.bmp,-120,120,108.bmp,120,120,10000.899999976158,736825.3000000119,7133,no,SM,A,107.bmp,-120,-120,188502,182479,190520,184486,733856.0,727838.0,735873.0,729842.0,54
4,0,0,0,1,35,test,1,0,z,Mon Apr 28 2025 16:25:00 GMT-0500 (Central Daylight Time),756839.400000006,O,m,1956,55,1,109.bmp,-120,-120,110.bmp,120,-120,111.bmp,-120,120,112.bmp,120,120,10000.700000017881,746838.6999999881,7133,yes,SM,A,112.bmp,120,120,188502,182479,190520,184486,743870.0,737851.0,745885.0,739854.0,55
2,0,1,0,0,36,test,1,1,m,Mon Apr 28 2025 16:25:00 GMT-0500 (Central Daylight Time),766586.3000000119,O,m,1685,56,1,113.bmp,-120,-120,114.bmp,120,-120,115.bmp,-120,120,116.bmp,120,120,9734.0,756852.3000000119,7133,no,SM,A,113.bmp,120,-120,188502,182479,190520,184486,753883.0,747865.0,755900.0,749868.0,56
4,0,0,0,1,37,test,1,1,m,Mon Apr 28 2025 16:25:00 GMT-0500 (Central Daylight Time),776582.8000000119,O,m,1946,57,1,117.bmp,-120,-120,118.bmp,120,-120,119.bmp,-120,120,120.bmp,120,120,9984.200000017881,766598.599999994,7133,no,SM,A,118.bmp,120,120,188502,182479,190520,184486,763630.0,757612.0,765647.0,759615.0,57
3,0,0,1,0,37,test,1,0,z,Mon Apr 28 2025 16:25:00 GMT-0500 (Central Daylight Time),786346.599999994,O,m,1709,58,1,121.bmp,-120,-120,122.bmp,120,-120,123.bmp,-120,120,124.bmp,120,120,9751.299999982119,776595.3000000119,7133,yes,SM,A,123.bmp,-120,120,188502,182479,190520,184486,773627.0,767608.0,775644.0,769612.0,58
2,0,1,0,0,37,test,1,0,m,Mon Apr 28 2025 16:25:00 GMT-0500 (Central Daylight Time),796426.8000000119,O,None,2014,59,1,125.bmp,-120,-120,126.bmp,120,-120,127.bmp,-120,120,128.bmp,120,120,10055.5,786371.3000000119,7133,no,SM,A,128.bmp,120,-120,188502,182479,190520,184486,783407.0,777384.0,785424.0,779392.0,59
1,1,0,0,0,37,test,1,0,z,Mon Apr 28 2025 16:25:00 GMT-0500 (Central Daylight Time),806273.3000000119,O,m,1794,60,1,129.bmp,-120,-120,130.bmp,120,-120,131.bmp,-120,120,132.bmp,120,120,9834.300000011921,796439.0,7133,yes,SM,A,129.bmp,-120,-120,188502,182479,190520,184486,793469.0,787452.0,795487.0,789456.0,60
2,0,1,0,0,38,test,1,1,z,Mon Apr 28 2025 16:25:00 GMT-0500 (Central Daylight Time),816036.8000000119,O,z,1707,61,1,133.bmp,-120,-120,134.bmp,120,-120,135.bmp,-120,120,136.bmp,120,120,9751.100000023842,806285.6999999881,7133,yes,SM,A,134.bmp,120,-120,188502,182479,190520,184486,803317.0,797298.0,805334.0,799303.0,61
4,0,0,0,1,39,test,1,1,z,Mon Apr 28 2025 16:25:00 GMT-0500 (Central Daylight Time),825949.8000000119,O,z,1863,62,1,141.bmp,-120,-120,142.bmp,120,-120,143.bmp,-120,120,144.bmp,120,120,9898.700000017881,816051.099999994,7133,yes,SM,A,144.bmp,120,120,188502,182479,190520,184486,813080.0,807064.0,815098.0,809066.0,62
1,1,0,0,0,39,test,1,0,m,Mon Apr 28 2025 16:25:00 GMT-0500 (Central Daylight Time),835913.900000006,O,z,1910,63,1,145.bmp,-120,-120,146.bmp,120,-120,147.bmp,-120,120,148.bmp,120,120,9951.90000000596,825962.0,7133,no,SM,A,145.bmp,-120,120,188502,182479,190520,184486,822994.0,816975.0,825011.0,818979.0,63
2,0,1,0,0,40,test,1,1,z,Mon Apr 28 2025 16:25:00 GMT-0500 (Central Daylight Time),845710.099999994,O,z,1746,64,1,149.bmp,-120,-120,150.bmp,120,-120,112.bmp,-120,120,101.bmp,120,120,9784.5,835925.599999994,7133,yes,SM,A,150.bmp,120,-120,188502,182479,190520,184486,832957.0,826938.0,834975.0,828943.0,64
4,0,0,0,1,40,test,1,0,m,Mon Apr 28 2025 16:25:00 GMT-0500 (Central Daylight Time),855640.5,O,z,1878,65,1,102.bmp,-120,-120,103.bmp,120,-120,104.bmp,-120,120,105.bmp,120,120,9917.199999988079,845723.3000000119,7133,no,SM,A,104.bmp,120,120,188502,182479,190520,184486,842754.0,836736.0,844771.0,838740.0,65
3,0,0,1,0,41,test,1,1,m,Mon Apr 28 2025 16:25:00 GMT-0500 (Central Daylight Time),864904.099999994,O,m,1211,66,1,106.bmp,-120,-120,107.bmp,120,-120,108.bmp,-120,120,109.bmp,120,120,9251.09999999404,855653.0,7133,no,SM,A,109.bmp,-120,120,188502,182479,190520,184486,852684.0,846666.0,854702.0,848670.0,66
2,0,1,0,0,42,test,1,1,m,Mon Apr 28 2025 16:25:00 GMT-0500 (Central Daylight Time),874584.3000000119,O,m,1630,67,1,137.bmp,-120,-120,138.bmp,120,-120,139.bmp,-120,120,140.bmp,120,120,9668.40000000596,864915.900000006,7133,no,SM,A,139.bmp,120,-120,188502,182479,190520,184486,861948.0,855929.0,863963.0,857933.0,67
3,0,0,1,0,43,test,1,1,z,Mon Apr 28 2025 16:25:00 GMT-0500 (Central Daylight Time),884348.099999994,O,z,1700,68,1,110.bmp,-120,-120,111.bmp,120,-120,112.bmp,-120,120,113.bmp,120,120,9751.199999988079,874596.900000006,7133,yes,SM,A,112.bmp,-120,120,188502,182479,190520,184486,871628.0,865610.0,873645.0,867614.0,68
1,1,0,0,0,44,test,1,1,m,Mon Apr 28 2025 16:25:00 GMT-0500 (Central Daylight Time),893894.400000006,O,m,1496,69,1,114.bmp,-120,-120,115.bmp,120,-120,116.bmp,-120,120,117.bmp,120,120,9532.800000011921,884361.599999994,7133,no,SM,A,115.bmp,-120,-120,188502,182479,190520,184486,881391.0,875374.0,883409.0,877377.0,69
2,0,1,0,0,45,test,1,1,m,Mon Apr 28 2025 16:25:00 GMT-0500 (Central Daylight Time),903858.1999999881,O,m,1902,70,1,118.bmp,-120,-120,119.bmp,120,-120,120.bmp,-120,120,121.bmp,120,120,9951.899999976158,893906.3000000119,7133,no,SM,A,120.bmp,120,-120,188502,182479,190520,184486,890938.0,884919.0,892955.0,886924.0,70
4,0,0,0,1,45,test,1,0,z,Mon Apr 28 2025 16:25:00 GMT-0500 (Central Daylight Time),913921.5,O,None,2014,71,1,122.bmp,-120,-120,123.bmp,120,-120,124.bmp,-120,120,125.bmp,120,120,10050.699999988079,903870.8000000119,7133,yes,SM,A,125.bmp,120,120,188502,182479,190520,184486,900902.0,894884.0,902919.0,896887.0,71
1,1,0,0,0,45,test,1,0,z,Mon Apr 28 2025 16:25:00 GMT-0500 (Central Daylight Time),923684.900000006,O,m,1707,72,1,126.bmp,-120,-120,127.bmp,120,-120,128.bmp,-120,120,129.bmp,120,120,9751.300000011921,913933.599999994,7133,yes,SM,A,126.bmp,-120,-120,188502,182479,190520,184486,910965.0,904946.0,912982.0,906951.0,72
2,0,1,0,0,46,test,1,1,z,Mon Apr 28 2025 16:25:00 GMT-0500 (Central Daylight Time),933198.5,O,z,1465,73,1,130.bmp,-120,-120,131.bmp,120,-120,132.bmp,-120,120,133.bmp,120,120,9500.40000000596,923698.099999994,7133,yes,SM,A,131.bmp,120,-120,188502,182479,190520,184486,920728.0,914711.0,922744.0,916714.0,73
4,0,0,0,1,47,test,1,1,m,Mon Apr 28 2025 16:25:00 GMT-0500 (Central Daylight Time),942712.0,O,m,1454,74,1,134.bmp,-120,-120,135.bmp,120,-120,136.bmp,-120,120,137.bmp,120,120,9504.300000011921,933207.6999999881,7133,no,SM,A,136.bmp,120,120,188502,182479,190520,184486,930242.0,924220.0,932259.0,926228.0,74
2,0,1,0,0,47,test,1,0,m,Mon Apr 28 2025 16:25:00 GMT-0500 (Central Daylight Time),952608.5,O,z,1836,75,1,138.bmp,-120,-120,139.bmp,120,-120,140.bmp,-120,120,141.bmp,120,120,9884.90000000596,942723.599999994,7133,no,SM,A,141.bmp,120,-120,188502,182479,190520,184486,939756.0,933736.0,941773.0,935741.0,75
1,1,0,0,0,48,test,1,1,z,Mon Apr 28 2025 16:25:00 GMT-0500 (Central Daylight Time),962372.1999999881,O,z,1707,76,1,142.bmp,-120,-120,143.bmp,120,-120,144.bmp,-120,120,145.bmp,120,120,9751.399999976158,952620.8000000119,7133,yes,SM,A,142.bmp,-120,-120,188502,182479,190520,184486,949652.0,943633.0,951670.0,945638.0,76
3,0,0,1,0,49,test,1,1,z,Mon Apr 28 2025 16:25:00 GMT-0500 (Central Daylight Time),972269.0,O,z,1840,77,1,150.bmp,-120,-120,111.bmp,120,-120,101.bmp,-120,120,102.bmp,120,120,9883.800000011921,962385.1999999881,7133,yes,SM,A,101.bmp,-120,120,188502,182479,190520,184486,959416.0,953398.0,961433.0,955401.0,77
1,1,0,0,0,49,test,1,0,m,Mon Apr 28 2025 16:25:00 GMT-0500 (Central Daylight Time),982349.3000000119,O,None,2015,78,1,146.bmp,-120,-120,147.bmp,120,-120,148.bmp,-120,120,149.bmp,120,120,10063.800000011921,972285.5,7133,no,SM,A,147.bmp,-120,-120,188502,182479,190520,184486,969329.0,963298.0,971346.0,965315.0,78
4,0,0,0,1,50,test,1,1,m,Mon Apr 28 2025 16:25:00 GMT-0500 (Central Daylight Time),992245.099999994,O,m,1823,79,1,107.bmp,-120,-120,108.bmp,120,-120,109.bmp,-120,120,110.bmp,120,120,9878.799999982119,982366.3000000119,7133,no,SM,A,107.bmp,120,120,188502,182479,190520,184486,979409.0,973379.0,981425.0,975395.0,79
3,0,0,1,0,51,test,1,1,m,Mon Apr 28 2025 16:25:00 GMT-0500 (Central Daylight Time),1001792.8000000119,O,m,1486,80,1,103.bmp,-120,-120,104.bmp,120,-120,105.bmp,-120,120,106.bmp,120,120,9542.5,992250.3000000119,7133,no,SM,A,106.bmp,-120,120,188502,182479,190520,184486,989289.0,983263.0,991307.0,985275.0,80
