Number,acc_sum,block,block_c,block_cond,con_img,correct,correct_response,datetime,endtime,jitter,project,response,response_time,row_sel,session_number,start_end,starttime,subject_id,task,task_vers,trial
2,0,prac,1,A,circle.png,0,z,Tue Nov 12 2024 09:18:37 GMT-0600 (Central Standard Time),58294.89999985695,2000,O,None,1512,2,1,4285.699999809265,54009.200000047684,7032,NTS,C,1
3,1,prac,1,A,circle.png,1,z,Tue Nov 12 2024 09:18:37 GMT-0600 (Central Standard Time),61194.39999985695,1200,O,z,881,3,1,2880.7999999523163,58313.59999990463,7032,NTS,C,2
9,2,prac,1,A,circle.png,1,m,Tue Nov 12 2024 09:18:37 GMT-0600 (Central Standard Time),64042.299999952316,1500,O,m,537,8,1,2817.7000000476837,61224.59999990463,7032,NTS,C,3
6,3,prac,1,A,circle.png,1,m,Tue Nov 12 2024 09:18:37 GMT-0600 (Central Standard Time),67508.59999990463,1900,O,m,778,5,1,3452.2999999523163,64056.299999952316,7032,NTS,C,4
6,4,prac,1,A,circle.png,1,m,Tue Nov 12 2024 09:18:37 GMT-0600 (Central Standard Time),70957.59999990463,1900,O,m,744,5,1,3418.899999856949,67538.70000004768,7032,NTS,C,5
8,5,prac,1,A,circle.png,1,m,Tue Nov 12 2024 09:18:37 GMT-0600 (Central Standard Time),74040.0,1600,O,m,667,7,1,3052.5,70987.5,7032,NTS,C,6
1,6,prac,1,A,circle.png,1,z,Tue Nov 12 2024 09:18:37 GMT-0600 (Central Standard Time),76422.59999990463,1000,O,z,578,1,1,2353.0999999046326,74069.5,7032,NTS,C,7
3,7,prac,1,A,circle.png,1,z,Tue Nov 12 2024 09:18:37 GMT-0600 (Central Standard Time),79070.70000004768,1200,O,z,643,3,1,2621.9000000953674,76448.79999995232,7032,NTS,C,8
4,8,prac,1,A,circle.png,1,z,Tue Nov 12 2024 09:18:37 GMT-0600 (Central Standard Time),81787.29999995232,1400,O,z,524,4,1,2701.4000000953674,79085.89999985695,7032,NTS,C,9
9,9,prac,1,A,circle.png,1,m,Tue Nov 12 2024 09:18:37 GMT-0600 (Central Standard Time),84602.89999985695,1500,O,m,498,8,1,2787.0999999046326,81815.79999995232,7032,NTS,C,10
7,10,prac,1,A,circle.png,1,m,Tue Nov 12 2024 09:18:37 GMT-0600 (Central Standard Time),87651.09999990463,1700,O,m,523,6,1,3015.2999999523163,84635.79999995232,7032,NTS,C,11
2,11,prac,1,A,circle.png,1,z,Tue Nov 12 2024 09:18:37 GMT-0600 (Central Standard Time),91184.89999985695,2000,O,z,734,2,1,3526.5999999046326,87658.29999995232,7032,NTS,C,12
4,0,prac,1,B,triangle.png,0,m,Tue Nov 12 2024 09:18:37 GMT-0600 (Central Standard Time),129121.70000004768,1500,O,None,1515,4,1,3788.2000000476837,125333.5,7032,NTS,C,1
3,1,prac,1,B,triangle.png,1,z,Tue Nov 12 2024 09:18:37 GMT-0600 (Central Standard Time),132287.39999985695,1600,O,z,760,3,1,3135.899999856949,129151.5,7032,NTS,C,2
2,2,prac,1,B,triangle.png,1,m,Tue Nov 12 2024 09:18:37 GMT-0600 (Central Standard Time),135919.39999985695,1700,O,m,1119,2,1,3609.399999856949,132310.0,7032,NTS,C,3
9,2,prac,1,B,triangle.png,0,z,Tue Nov 12 2024 09:18:37 GMT-0600 (Central Standard Time),139634.79999995232,1400,O,None,1515,8,1,3693.9000000953674,135940.89999985695,7032,NTS,C,4
6,2,prac,1,B,triangle.png,0,m,Tue Nov 12 2024 09:18:37 GMT-0600 (Central Standard Time),142950.29999995232,1000,O,None,1517,5,1,3290.4000000953674,139659.89999985695,7032,NTS,C,5
7,3,prac,1,B,triangle.png,1,z,Tue Nov 12 2024 09:18:37 GMT-0600 (Central Standard Time),146882.59999990463,2000,O,z,1116,6,1,3903.2999999523163,142979.29999995232,7032,NTS,C,6
8,4,prac,1,B,triangle.png,1,m,Tue Nov 12 2024 09:18:37 GMT-0600 (Central Standard Time),149732.0,1200,O,m,848,7,1,2820.100000143051,146911.89999985695,7032,NTS,C,7
6,5,prac,1,B,triangle.png,1,m,Tue Nov 12 2024 09:18:37 GMT-0600 (Central Standard Time),152197.39999985695,1000,O,m,654,5,1,2438.199999809265,149759.20000004768,7032,NTS,C,8
8,6,prac,1,B,triangle.png,1,m,Tue Nov 12 2024 09:18:37 GMT-0600 (Central Standard Time),154896.59999990463,1200,O,m,693,7,1,2671.2999999523163,152225.29999995232,7032,NTS,C,9
1,7,prac,1,B,triangle.png,1,z,Tue Nov 12 2024 09:18:37 GMT-0600 (Central Standard Time),158412.09999990463,1900,O,z,806,1,1,3488.0999999046326,154924.0,7032,NTS,C,10
2,8,prac,1,B,triangle.png,1,m,Tue Nov 12 2024 09:18:37 GMT-0600 (Central Standard Time),161594.5,1700,O,m,672,2,1,3156.600000143051,158437.89999985695,7032,NTS,C,11
1,9,prac,1,B,triangle.png,1,z,Tue Nov 12 2024 09:18:37 GMT-0600 (Central Standard Time),165109.79999995232,1900,O,z,812,1,1,3490.7999999523163,161619.0,7032,NTS,C,12
4,1,test,1,A,circle.png,1,z,Tue Nov 12 2024 09:18:37 GMT-0600 (Central Standard Time),187069.39999985695,1400,O,z,1471,4,1,2891.0,184178.39999985695,7032,NTS,C,1
7,1,test,1,A,circle.png,0,m,Tue Nov 12 2024 09:18:37 GMT-0600 (Central Standard Time),189502.09999990463,1700,O,z,686,6,1,2409.899999856949,187092.20000004768,7032,NTS,C,2
1,2,test,1,A,circle.png,1,z,Tue Nov 12 2024 09:18:37 GMT-0600 (Central Standard Time),191117.70000004768,1000,O,z,580,1,1,1596.5,189521.20000004768,7032,NTS,C,3
6,3,test,1,A,circle.png,1,m,Tue Nov 12 2024 09:18:37 GMT-0600 (Central Standard Time),193866.89999985695,1900,O,m,798,5,1,2729.2999999523163,191137.59999990463,7032,NTS,C,4
2,4,test,1,A,circle.png,1,z,Tue Nov 12 2024 09:18:37 GMT-0600 (Central Standard Time),196582.70000004768,2000,O,z,678,2,1,2695.4000000953674,193887.29999995232,7032,NTS,C,5
8,5,test,1,A,circle.png,1,m,Tue Nov 12 2024 09:18:37 GMT-0600 (Central Standard Time),198948.89999985695,1600,O,m,733,7,1,2346.5,196602.39999985695,7032,NTS,C,6
9,6,test,1,A,circle.png,1,m,Tue Nov 12 2024 09:18:37 GMT-0600 (Central Standard Time),201148.0,1500,O,m,649,8,1,2180.7000000476837,198967.29999995232,7032,NTS,C,7
1,7,test,1,A,circle.png,1,z,Tue Nov 12 2024 09:18:37 GMT-0600 (Central Standard Time),202796.89999985695,1000,O,z,613,1,1,1630.1999998092651,201166.70000004768,7032,NTS,C,8
2,8,test,1,A,circle.png,1,z,Tue Nov 12 2024 09:18:37 GMT-0600 (Central Standard Time),205579.70000004768,2000,O,z,730,2,1,2763.600000143051,202816.09999990463,7032,NTS,C,9
8,9,test,1,A,circle.png,1,m,Tue Nov 12 2024 09:18:37 GMT-0600 (Central Standard Time),207879.29999995232,1600,O,m,661,7,1,2279.2000000476837,205600.09999990463,7032,NTS,C,10
3,10,test,1,A,circle.png,1,z,Tue Nov 12 2024 09:18:37 GMT-0600 (Central Standard Time),209778.20000004768,1200,O,z,656,3,1,1877.9000000953674,207900.29999995232,7032,NTS,C,11
7,11,test,1,A,circle.png,1,m,Tue Nov 12 2024 09:18:37 GMT-0600 (Central Standard Time),212111.0,1700,O,m,587,6,1,2313.2000000476837,209797.79999995232,7032,NTS,C,12
9,12,test,1,A,circle.png,1,m,Tue Nov 12 2024 09:18:37 GMT-0600 (Central Standard Time),214244.39999985695,1500,O,m,597,8,1,2113.699999809265,212130.70000004768,7032,NTS,C,13
2,13,test,1,A,circle.png,1,z,Tue Nov 12 2024 09:18:37 GMT-0600 (Central Standard Time),216925.89999985695,2000,O,z,638,2,1,2662.2999999523163,214263.59999990463,7032,NTS,C,14
7,14,test,1,A,circle.png,1,m,Tue Nov 12 2024 09:18:37 GMT-0600 (Central Standard Time),219291.89999985695,1700,O,m,622,6,1,2344.899999856949,216947.0,7032,NTS,C,15
8,15,test,1,A,circle.png,1,m,Tue Nov 12 2024 09:18:37 GMT-0600 (Central Standard Time),221524.79999995232,1600,O,m,597,7,1,2214.4000000953674,219310.39999985695,7032,NTS,C,16
9,16,test,1,A,circle.png,1,m,Tue Nov 12 2024 09:18:37 GMT-0600 (Central Standard Time),223756.89999985695,1500,O,m,697,8,1,2213.0999999046326,221543.79999995232,7032,NTS,C,17
7,17,test,1,A,circle.png,1,m,Tue Nov 12 2024 09:18:37 GMT-0600 (Central Standard Time),226273.09999990463,1700,O,m,768,6,1,2497.0999999046326,223776.0,7032,NTS,C,18
4,18,test,1,A,circle.png,1,z,Tue Nov 12 2024 09:18:37 GMT-0600 (Central Standard Time),228388.59999990463,1400,O,z,680,4,1,2096.0,226292.59999990463,7032,NTS,C,19
9,19,test,1,A,circle.png,1,m,Tue Nov 12 2024 09:18:37 GMT-0600 (Central Standard Time),230555.0,1500,O,m,625,8,1,2146.7999999523163,228408.20000004768,7032,NTS,C,20
4,20,test,1,A,circle.png,1,z,Tue Nov 12 2024 09:18:37 GMT-0600 (Central Standard Time),232587.29999995232,1400,O,z,591,4,1,2012.5,230574.79999995232,7032,NTS,C,21
1,21,test,1,A,circle.png,1,z,Tue Nov 12 2024 09:18:37 GMT-0600 (Central Standard Time),234453.5,1000,O,z,822,1,1,1845.2999999523163,232608.20000004768,7032,NTS,C,22
3,22,test,1,A,circle.png,1,z,Tue Nov 12 2024 09:18:37 GMT-0600 (Central Standard Time),236236.20000004768,1200,O,z,538,3,1,1763.1000001430511,234473.09999990463,7032,NTS,C,23
6,23,test,1,A,circle.png,1,m,Tue Nov 12 2024 09:18:37 GMT-0600 (Central Standard Time),238818.70000004768,1900,O,m,633,5,1,2563.600000143051,236255.09999990463,7032,NTS,C,24
1,0,test,1,B,triangle.png,0,z,Tue Nov 12 2024 09:18:37 GMT-0600 (Central Standard Time),259845.39999985695,1900,O,None,1517,1,1,3434.2999999523163,256411.09999990463,7032,NTS,C,1
2,1,test,1,B,triangle.png,1,m,Tue Nov 12 2024 09:18:37 GMT-0600 (Central Standard Time),262427.7000000477,1200,O,m,1341,10,1,2563.0,259864.70000004768,7032,NTS,C,2
9,2,test,1,B,triangle.png,1,z,Tue Nov 12 2024 09:18:37 GMT-0600 (Central Standard Time),265476.7999999523,1900,O,z,1106,16,1,3029.2999999523163,262447.5,7032,NTS,C,3
1,3,test,1,B,triangle.png,1,z,Tue Nov 12 2024 09:18:37 GMT-0600 (Central Standard Time),267492.59999990463,1400,O,z,573,9,1,1995.3999998569489,265497.2000000477,7032,NTS,C,4
8,4,test,1,B,triangle.png,1,m,Tue Nov 12 2024 09:18:37 GMT-0600 (Central Standard Time),269292.09999990463,1200,O,m,557,7,1,1780.8999998569489,267511.2000000477,7032,NTS,C,5
1,5,test,1,B,triangle.png,1,z,Tue Nov 12 2024 09:18:37 GMT-0600 (Central Standard Time),271324.89999985695,1400,O,z,590,9,1,2014.0999999046326,269310.7999999523,7032,NTS,C,6
8,6,test,1,B,triangle.png,1,m,Tue Nov 12 2024 09:18:37 GMT-0600 (Central Standard Time),273173.89999985695,1200,O,m,613,7,1,1829.5999999046326,271344.2999999523,7032,NTS,C,7
2,7,test,1,B,triangle.png,1,m,Tue Nov 12 2024 09:18:37 GMT-0600 (Central Standard Time),275923.2999999523,1700,O,m,1008,2,1,2730.9000000953674,273192.39999985695,7032,NTS,C,8
4,8,test,1,B,triangle.png,1,m,Tue Nov 12 2024 09:18:37 GMT-0600 (Central Standard Time),277522.89999985695,1000,O,m,559,12,1,1579.0999999046326,275943.7999999523,7032,NTS,C,9
7,9,test,1,B,triangle.png,1,z,Tue Nov 12 2024 09:18:37 GMT-0600 (Central Standard Time),279872.09999990463,1600,O,z,703,14,1,2329.5999999046326,277542.5,7032,NTS,C,10
3,10,test,1,B,triangle.png,1,z,Tue Nov 12 2024 09:18:37 GMT-0600 (Central Standard Time),282587.7999999523,2000,O,z,665,11,1,2700.7999999523163,279887.0,7032,NTS,C,11
4,11,test,1,B,triangle.png,1,m,Tue Nov 12 2024 09:18:37 GMT-0600 (Central Standard Time),284237.2999999523,1000,O,m,623,12,1,1644.0,282593.2999999523,7032,NTS,C,12
6,12,test,1,B,triangle.png,1,m,Tue Nov 12 2024 09:18:37 GMT-0600 (Central Standard Time),285820.09999990463,1000,O,m,533,5,1,1562.8999998569489,284257.2000000477,7032,NTS,C,13
9,13,test,1,B,triangle.png,1,z,Tue Nov 12 2024 09:18:37 GMT-0600 (Central Standard Time),287869.59999990463,1400,O,z,608,8,1,2030.8999998569489,285838.7000000477,7032,NTS,C,14
2,13,test,1,B,triangle.png,0,m,Tue Nov 12 2024 09:18:37 GMT-0600 (Central Standard Time),289718.89999985695,1200,O,z,605,10,1,1829.5,287889.39999985695,7032,NTS,C,15
3,14,test,1,B,triangle.png,1,z,Tue Nov 12 2024 09:18:37 GMT-0600 (Central Standard Time),292134.7000000477,1600,O,z,780,3,1,2397.2000000476837,289737.5,7032,NTS,C,16
3,14,test,1,B,triangle.png,0,z,Tue Nov 12 2024 09:18:37 GMT-0600 (Central Standard Time),295283.7000000477,1600,O,None,1515,3,1,3131.9000000953674,292151.7999999523,7032,NTS,C,17
8,15,test,1,B,triangle.png,1,m,Tue Nov 12 2024 09:18:37 GMT-0600 (Central Standard Time),297933.0,1700,O,m,915,15,1,2631.7000000476837,295301.2999999523,7032,NTS,C,18
2,15,test,1,B,triangle.png,0,m,Tue Nov 12 2024 09:18:37 GMT-0600 (Central Standard Time),300298.7999999523,1700,O,z,625,2,1,2347.7000000476837,297951.09999990463,7032,NTS,C,19
6,16,test,1,B,triangle.png,1,m,Tue Nov 12 2024 09:18:37 GMT-0600 (Central Standard Time),302947.7999999523,1500,O,m,1108,13,1,2630.2999999523163,300317.5,7032,NTS,C,20
7,17,test,1,B,triangle.png,1,z,Tue Nov 12 2024 09:18:37 GMT-0600 (Central Standard Time),306029.59999990463,2000,O,z,1038,6,1,3061.0999999046326,302968.5,7032,NTS,C,21
3,18,test,1,B,triangle.png,1,z,Tue Nov 12 2024 09:18:37 GMT-0600 (Central Standard Time),308812.39999985695,2000,O,z,757,11,1,2771.399999856949,306041.0,7032,NTS,C,22
4,19,test,1,B,triangle.png,1,m,Tue Nov 12 2024 09:18:37 GMT-0600 (Central Standard Time),311078.2000000477,1500,O,m,730,4,1,2246.800000190735,308831.39999985695,7032,NTS,C,23
7,20,test,1,B,triangle.png,1,z,Tue Nov 12 2024 09:18:37 GMT-0600 (Central Standard Time),313477.39999985695,1600,O,z,764,14,1,2380.5999999046326,311096.7999999523,7032,NTS,C,24
7,0,prac,1,C,triangle.png,0,z,Tue Nov 12 2024 09:18:37 GMT-0600 (Central Standard Time),352748.09999990463,1200,O,None,1515,6,1,3488.5,349259.59999990463,7032,NTS,C,1
4,0,prac,1,C,circle.png,0,z,Tue Nov 12 2024 09:18:37 GMT-0600 (Central Standard Time),355613.59999990463,1000,O,m,1062,4,1,2837.5,352776.09999990463,7032,NTS,C,2
2,0,prac,1,C,triangle.png,0,m,Tue Nov 12 2024 09:18:37 GMT-0600 (Central Standard Time),359529.2000000477,1600,O,None,1514,2,1,3892.7000000476837,355636.5,7032,NTS,C,3
1,1,prac,1,C,circle.png,1,z,Tue Nov 12 2024 09:18:37 GMT-0600 (Central Standard Time),363444.59999990463,1700,O,z,1396,1,1,3884.2000000476837,359560.39999985695,7032,NTS,C,4
6,2,prac,1,C,circle.png,1,m,Tue Nov 12 2024 09:18:37 GMT-0600 (Central Standard Time),367476.7000000477,2000,O,m,1222,5,1,4004.2000000476837,363472.5,7032,NTS,C,5
6,3,prac,1,C,circle.png,1,m,Tue Nov 12 2024 09:18:37 GMT-0600 (Central Standard Time),371175.5,2000,O,m,886,5,1,3672.100000143051,367503.39999985695,7032,NTS,C,6
4,4,prac,1,C,circle.png,1,z,Tue Nov 12 2024 09:18:37 GMT-0600 (Central Standard Time),373924.7000000477,1000,O,z,939,4,1,2722.7000000476837,371202.0,7032,NTS,C,7
7,4,prac,1,C,triangle.png,0,z,Tue Nov 12 2024 09:18:37 GMT-0600 (Central Standard Time),377439.89999985695,1200,O,None,1515,6,1,3486.2999999523163,373953.59999990463,7032,NTS,C,8
9,5,prac,1,C,circle.png,1,m,Tue Nov 12 2024 09:18:37 GMT-0600 (Central Standard Time),381188.89999985695,1900,O,m,1039,8,1,3722.2999999523163,377466.59999990463,7032,NTS,C,9
3,6,prac,1,C,triangle.png,1,z,Tue Nov 12 2024 09:18:37 GMT-0600 (Central Standard Time),384754.39999985695,1500,O,z,1266,3,1,3538.199999809265,381216.2000000477,7032,NTS,C,10
3,7,prac,1,C,triangle.png,1,z,Tue Nov 12 2024 09:18:37 GMT-0600 (Central Standard Time),387770.0,1500,O,z,700,3,1,2988.2999999523163,384781.7000000477,7032,NTS,C,11
8,8,prac,1,C,triangle.png,1,m,Tue Nov 12 2024 09:18:37 GMT-0600 (Central Standard Time),390835.5,1400,O,m,864,7,1,3039.4000000953674,387796.09999990463,7032,NTS,C,12
1,0,test,1,C,triangle.png,0,z,Tue Nov 12 2024 09:18:37 GMT-0600 (Central Standard Time),406213.7999999523,1900,O,m,889,9,1,2814.0,403399.7999999523,7032,NTS,C,1
8,0,test,1,C,triangle.png,0,m,Tue Nov 12 2024 09:18:37 GMT-0600 (Central Standard Time),409146.2000000477,1600,O,z,1292,7,1,2912.100000143051,406234.09999990463,7032,NTS,C,2
9,0,test,1,C,triangle.png,0,z,Tue Nov 12 2024 09:18:37 GMT-0600 (Central Standard Time),412095.2999999523,1400,O,None,1515,16,1,2927.5999999046326,409167.7000000477,7032,NTS,C,3
1,1,test,1,C,circle.png,1,z,Tue Nov 12 2024 09:18:37 GMT-0600 (Central Standard Time),414311.09999990463,1000,O,z,1171,1,1,2194.7000000476837,412116.39999985695,7032,NTS,C,4
9,2,test,1,C,circle.png,1,m,Tue Nov 12 2024 09:18:37 GMT-0600 (Central Standard Time),416960.2999999523,1500,O,m,1111,24,1,2628.4000000953674,414331.89999985695,7032,NTS,C,5
2,2,test,1,C,triangle.png,0,m,Tue Nov 12 2024 09:18:37 GMT-0600 (Central Standard Time),420509.09999990463,2000,O,None,1515,2,1,3528.2999999523163,416980.7999999523,7032,NTS,C,6
8,3,test,1,C,circle.png,1,m,Tue Nov 12 2024 09:18:37 GMT-0600 (Central Standard Time),423158.2999999523,1200,O,m,1405,15,1,2630.4000000953674,420527.89999985695,7032,NTS,C,7
2,4,test,1,C,circle.png,1,z,Tue Nov 12 2024 09:18:37 GMT-0600 (Central Standard Time),426140.5,1700,O,z,1240,10,1,2962.2000000476837,423178.2999999523,7032,NTS,C,8
4,5,test,1,C,triangle.png,1,m,Tue Nov 12 2024 09:18:37 GMT-0600 (Central Standard Time),428722.89999985695,1500,O,m,1034,20,1,2562.199999809265,426160.7000000477,7032,NTS,C,9
7,5,test,1,C,triangle.png,0,z,Tue Nov 12 2024 09:18:37 GMT-0600 (Central Standard Time),431972.2000000477,1700,O,None,1515,6,1,3230.2000000476837,428742.0,7032,NTS,C,10
2,6,test,1,C,circle.png,1,z,Tue Nov 12 2024 09:18:37 GMT-0600 (Central Standard Time),435054.09999990463,1700,O,z,1346,18,1,3060.899999856949,431993.2000000477,7032,NTS,C,11
7,7,test,1,C,circle.png,1,m,Tue Nov 12 2024 09:18:37 GMT-0600 (Central Standard Time),437870.09999990463,2000,O,m,774,14,1,2797.0999999046326,435073.0,7032,NTS,C,12
6,8,test,1,C,circle.png,1,m,Tue Nov 12 2024 09:18:37 GMT-0600 (Central Standard Time),440668.7999999523,1900,O,m,864,21,1,2777.5999999046326,437891.2000000477,7032,NTS,C,13
9,9,test,1,C,circle.png,1,m,Tue Nov 12 2024 09:18:37 GMT-0600 (Central Standard Time),443001.7000000477,1500,O,m,793,8,1,2315.100000143051,440686.59999990463,7032,NTS,C,14
4,10,test,1,C,circle.png,1,z,Tue Nov 12 2024 09:18:37 GMT-0600 (Central Standard Time),445267.59999990463,1400,O,z,825,4,1,2246.5,443021.09999990463,7032,NTS,C,15
8,11,test,1,C,triangle.png,1,m,Tue Nov 12 2024 09:18:37 GMT-0600 (Central Standard Time),448035.59999990463,1600,O,m,1134,23,1,2748.7000000476837,445286.89999985695,7032,NTS,C,16
1,11,test,1,C,triangle.png,0,z,Tue Nov 12 2024 09:18:37 GMT-0600 (Central Standard Time),451481.2999999523,1900,O,None,1516,17,1,3426.9000000953674,448054.39999985695,7032,NTS,C,17
3,12,test,1,C,circle.png,1,z,Tue Nov 12 2024 09:18:37 GMT-0600 (Central Standard Time),454297.39999985695,1600,O,z,1185,11,1,2810.399999856949,451487.0,7032,NTS,C,18
7,12,test,1,C,triangle.png,0,z,Tue Nov 12 2024 09:18:37 GMT-0600 (Central Standard Time),457030.39999985695,1700,O,m,1007,22,1,2721.699999809265,454308.7000000477,7032,NTS,C,19
4,12,test,1,C,triangle.png,0,m,Tue Nov 12 2024 09:18:37 GMT-0600 (Central Standard Time),460080.0,1500,O,None,1516,12,1,3029.9000000953674,457050.09999990463,7032,NTS,C,20
3,13,test,1,C,triangle.png,1,z,Tue Nov 12 2024 09:18:37 GMT-0600 (Central Standard Time),462245.2999999523,1200,O,z,923,3,1,2148.7000000476837,460096.59999990463,7032,NTS,C,21
6,14,test,1,C,triangle.png,1,m,Tue Nov 12 2024 09:18:37 GMT-0600 (Central Standard Time),464427.89999985695,1000,O,m,1141,13,1,2163.199999809265,462264.7000000477,7032,NTS,C,22
3,15,test,1,C,circle.png,1,z,Tue Nov 12 2024 09:18:37 GMT-0600 (Central Standard Time),467160.2999999523,1600,O,z,1086,19,1,2712.0,464448.2999999523,7032,NTS,C,23
6,16,test,1,C,circle.png,1,m,Tue Nov 12 2024 09:18:37 GMT-0600 (Central Standard Time),469942.59999990463,1900,O,m,846,5,1,2761.7999999523163,467180.7999999523,7032,NTS,C,24
1,0,test,2,C,triangle.png,0,z,Tue Nov 12 2024 09:18:37 GMT-0600 (Central Standard Time),477523.7000000477,1900,O,None,1515,17,1,3431.600000143051,474092.09999990463,7032,NTS,C,1
1,1,test,2,C,circle.png,1,z,Tue Nov 12 2024 09:18:37 GMT-0600 (Central Standard Time),479773.09999990463,1000,O,z,1207,1,1,2228.7999999523163,477544.2999999523,7032,NTS,C,2
6,1,test,2,C,triangle.png,0,m,Tue Nov 12 2024 09:18:37 GMT-0600 (Central Standard Time),482322.2000000477,1000,O,None,1515,21,1,2529.4000000953674,479792.7999999523,7032,NTS,C,3
9,2,test,2,C,triangle.png,1,z,Tue Nov 12 2024 09:18:37 GMT-0600 (Central Standard Time),484754.7000000477,1400,O,z,992,16,1,2412.0,482342.7000000477,7032,NTS,C,4
8,3,test,2,C,triangle.png,1,m,Tue Nov 12 2024 09:18:37 GMT-0600 (Central Standard Time),487836.7000000477,1600,O,m,1448,7,1,3062.5,484774.2000000477,7032,NTS,C,5
6,4,test,2,C,circle.png,1,m,Tue Nov 12 2024 09:18:37 GMT-0600 (Central Standard Time),490636.09999990463,1900,O,m,850,5,1,2779.5999999046326,487856.5,7032,NTS,C,6
3,5,test,2,C,circle.png,1,z,Tue Nov 12 2024 09:18:37 GMT-0600 (Central Standard Time),493385.09999990463,1600,O,z,1111,19,1,2729.399999856949,490655.7000000477,7032,NTS,C,7
1,6,test,2,C,triangle.png,1,z,Tue Nov 12 2024 09:18:37 GMT-0600 (Central Standard Time),496350.7999999523,1900,O,z,1021,9,1,2947.0999999046326,493403.7000000477,7032,NTS,C,8
2,7,test,2,C,triangle.png,1,m,Tue Nov 12 2024 09:18:37 GMT-0600 (Central Standard Time),499433.2000000477,2000,O,m,1036,2,1,3063.5,496369.7000000477,7032,NTS,C,9
9,8,test,2,C,circle.png,1,m,Tue Nov 12 2024 09:18:37 GMT-0600 (Central Standard Time),501815.7000000477,1500,O,m,845,8,1,2362.7000000476837,499453.0,7032,NTS,C,10
7,9,test,2,C,triangle.png,1,z,Tue Nov 12 2024 09:18:37 GMT-0600 (Central Standard Time),504964.7000000477,1700,O,z,1416,6,1,3130.4000000953674,501834.2999999523,7032,NTS,C,11
3,9,test,2,C,triangle.png,0,z,Tue Nov 12 2024 09:18:37 GMT-0600 (Central Standard Time),507712.89999985695,1200,O,None,1515,3,1,2729.199999809265,504983.7000000477,7032,NTS,C,12
8,10,test,2,C,circle.png,1,m,Tue Nov 12 2024 09:18:37 GMT-0600 (Central Standard Time),509846.09999990463,1200,O,m,913,23,1,2128.2999999523163,507717.7999999523,7032,NTS,C,13
4,11,test,2,C,circle.png,1,z,Tue Nov 12 2024 09:18:37 GMT-0600 (Central Standard Time),512328.89999985695,1400,O,z,1045,4,1,2463.0999999046326,509865.7999999523,7032,NTS,C,14
3,12,test,2,C,circle.png,1,z,Tue Nov 12 2024 09:18:37 GMT-0600 (Central Standard Time),515010.39999985695,1600,O,z,1040,11,1,2662.0,512348.39999985695,7032,NTS,C,15
8,13,test,2,C,circle.png,1,m,Tue Nov 12 2024 09:18:37 GMT-0600 (Central Standard Time),517327.7000000477,1200,O,m,1088,15,1,2312.4000000953674,515015.2999999523,7032,NTS,C,16
9,14,test,2,C,triangle.png,1,z,Tue Nov 12 2024 09:18:37 GMT-0600 (Central Standard Time),520126.09999990463,1400,O,z,1363,24,1,2776.0999999046326,517350.0,7032,NTS,C,17
6,15,test,2,C,triangle.png,1,m,Tue Nov 12 2024 09:18:37 GMT-0600 (Central Standard Time),522159.09999990463,1000,O,m,989,13,1,2011.8999998569489,520147.2000000477,7032,NTS,C,18
4,16,test,2,C,triangle.png,1,m,Tue Nov 12 2024 09:18:37 GMT-0600 (Central Standard Time),524674.5999999046,1500,O,m,975,20,1,2496.7000000476837,522177.89999985695,7032,NTS,C,19
4,17,test,2,C,triangle.png,1,m,Tue Nov 12 2024 09:18:37 GMT-0600 (Central Standard Time),527057.0999999046,1500,O,m,835,12,1,2364.0,524693.0999999046,7032,NTS,C,20
2,18,test,2,C,circle.png,1,z,Tue Nov 12 2024 09:18:37 GMT-0600 (Central Standard Time),529806.2999999523,1700,O,z,1013,10,1,2730.2999999523163,527076.0,7032,NTS,C,21
7,19,test,2,C,circle.png,1,m,Tue Nov 12 2024 09:18:37 GMT-0600 (Central Standard Time),532705.5,2000,O,m,852,14,1,2880.100000143051,529825.399999857,7032,NTS,C,22
2,20,test,2,C,circle.png,1,z,Tue Nov 12 2024 09:18:37 GMT-0600 (Central Standard Time),535204.7000000477,1700,O,z,765,18,1,2479.0,532725.7000000477,7032,NTS,C,23
7,21,test,2,C,circle.png,1,m,Tue Nov 12 2024 09:18:37 GMT-0600 (Central Standard Time),538303.7999999523,2000,O,m,1054,22,1,3079.5,535224.2999999523,7032,NTS,C,24
7,0,test,3,C,triangle.png,0,z,Tue Nov 12 2024 09:18:37 GMT-0600 (Central Standard Time),544635.0999999046,1700,O,m,1184,6,1,2915.2999999523163,541719.7999999523,7032,NTS,C,1
3,0,test,3,C,triangle.png,0,z,Tue Nov 12 2024 09:18:37 GMT-0600 (Central Standard Time),547117.0999999046,1200,O,m,1247,3,1,2462.399999856949,544654.7000000477,7032,NTS,C,2
6,0,test,3,C,triangle.png,0,m,Tue Nov 12 2024 09:18:37 GMT-0600 (Central Standard Time),549666.899999857,1000,O,None,1516,13,1,2530.399999856949,547136.5,7032,NTS,C,3
9,1,test,3,C,circle.png,1,m,Tue Nov 12 2024 09:18:37 GMT-0600 (Central Standard Time),552165.899999857,1500,O,m,956,24,1,2480.199999809265,549685.7000000477,7032,NTS,C,4
8,2,test,3,C,triangle.png,1,m,Tue Nov 12 2024 09:18:37 GMT-0600 (Central Standard Time),555164.899999857,1600,O,m,1350,7,1,2979.699999809265,552185.2000000477,7032,NTS,C,5
7,2,test,3,C,circle.png,0,m,Tue Nov 12 2024 09:18:37 GMT-0600 (Central Standard Time),558713.5999999046,2000,O,None,1515,14,1,3530.0,555183.5999999046,7032,NTS,C,6
4,2,test,3,C,triangle.png,0,m,Tue Nov 12 2024 09:18:37 GMT-0600 (Central Standard Time),561762.7000000477,1500,O,None,1516,12,1,3030.600000143051,558732.0999999046,7032,NTS,C,7
2,3,test,3,C,circle.png,1,z,Tue Nov 12 2024 09:18:37 GMT-0600 (Central Standard Time),564911.7000000477,1700,O,z,1404,10,1,3129.4000000953674,561782.2999999523,7032,NTS,C,8
7,3,test,3,C,triangle.png,0,z,Tue Nov 12 2024 09:18:37 GMT-0600 (Central Standard Time),568159.7000000477,1700,O,None,1515,22,1,3228.4000000953674,564931.2999999523,7032,NTS,C,9
8,4,test,3,C,circle.png,1,m,Tue Nov 12 2024 09:18:37 GMT-0600 (Central Standard Time),570476.5,1200,O,m,1091,15,1,2310.4000000953674,568166.0999999046,7032,NTS,C,10
8,4,test,3,C,triangle.png,0,m,Tue Nov 12 2024 09:18:37 GMT-0600 (Central Standard Time),573625.2999999523,1600,O,None,1515,23,1,3127.4000000953674,570497.899999857,7032,NTS,C,11
3,5,test,3,C,triangle.png,1,z,Tue Nov 12 2024 09:18:37 GMT-0600 (Central Standard Time),575841.2999999523,1200,O,z,977,19,1,2197.4000000953674,573643.899999857,7032,NTS,C,12
6,6,test,3,C,circle.png,1,m,Tue Nov 12 2024 09:18:37 GMT-0600 (Central Standard Time),578873.7000000477,1900,O,m,1093,5,1,3013.300000190735,575860.399999857,7032,NTS,C,13
4,7,test,3,C,circle.png,1,z,Tue Nov 12 2024 09:18:37 GMT-0600 (Central Standard Time),581224.2999999523,1400,O,z,905,20,1,2330.7000000476837,578893.5999999046,7032,NTS,C,14
2,8,test,3,C,triangle.png,1,m,Tue Nov 12 2024 09:18:37 GMT-0600 (Central Standard Time),584488.399999857,2000,O,m,1220,2,1,3245.2999999523163,581243.0999999046,7032,NTS,C,15
1,9,test,3,C,circle.png,1,z,Tue Nov 12 2024 09:18:37 GMT-0600 (Central Standard Time),586304.2999999523,1000,O,z,770,1,1,1797.7000000476837,584506.5999999046,7032,NTS,C,16
1,10,test,3,C,circle.png,1,z,Tue Nov 12 2024 09:18:37 GMT-0600 (Central Standard Time),588220.399999857,1000,O,z,866,17,1,1897.3999998569489,586323.0,7032,NTS,C,17
9,11,test,3,C,triangle.png,1,z,Tue Nov 12 2024 09:18:37 GMT-0600 (Central Standard Time),591003.0999999046,1400,O,z,1342,16,1,2763.7000000476837,588239.399999857,7032,NTS,C,18
3,12,test,3,C,circle.png,1,z,Tue Nov 12 2024 09:18:37 GMT-0600 (Central Standard Time),593752.2000000477,1600,O,z,1104,11,1,2731.100000143051,591021.0999999046,7032,NTS,C,19
6,13,test,3,C,circle.png,1,m,Tue Nov 12 2024 09:18:37 GMT-0600 (Central Standard Time),596716.7999999523,1900,O,m,1021,21,1,2944.7999999523163,593772.0,7032,NTS,C,20
1,14,test,3,C,triangle.png,1,z,Tue Nov 12 2024 09:18:37 GMT-0600 (Central Standard Time),599683.5,1900,O,z,1034,9,1,2961.2000000476837,596722.2999999523,7032,NTS,C,21
2,15,test,3,C,triangle.png,1,m,Tue Nov 12 2024 09:18:37 GMT-0600 (Central Standard Time),602915.7000000477,2000,O,m,1191,18,1,3213.800000190735,599701.899999857,7032,NTS,C,22
9,16,test,3,C,circle.png,1,m,Tue Nov 12 2024 09:18:37 GMT-0600 (Central Standard Time),605265.0,1500,O,m,803,8,1,2328.5,602936.5,7032,NTS,C,23
4,17,test,3,C,circle.png,1,z,Tue Nov 12 2024 09:18:37 GMT-0600 (Central Standard Time),607730.899999857,1400,O,z,1017,4,1,2446.399999856949,605284.5,7032,NTS,C,24
8,1,test,4,C,circle.png,1,m,Tue Nov 12 2024 09:18:37 GMT-0600 (Central Standard Time),612146.2999999523,1200,O,m,1085,15,1,2315.9000000953674,609830.399999857,7032,NTS,C,1
2,2,test,4,C,circle.png,1,z,Tue Nov 12 2024 09:18:37 GMT-0600 (Central Standard Time),614828.899999857,1700,O,z,941,10,1,2663.2999999523163,612165.5999999046,7032,NTS,C,2
4,3,test,4,C,circle.png,1,z,Tue Nov 12 2024 09:18:37 GMT-0600 (Central Standard Time),617027.7000000477,1400,O,z,758,4,1,2176.0,614851.7000000477,7032,NTS,C,3
3,4,test,4,C,triangle.png,1,z,Tue Nov 12 2024 09:18:37 GMT-0600 (Central Standard Time),619393.5999999046,1200,O,z,1126,19,1,2346.2999999523163,617047.2999999523,7032,NTS,C,4
4,4,test,4,C,circle.png,0,z,Tue Nov 12 2024 09:18:37 GMT-0600 (Central Standard Time),622341.899999857,1400,O,None,1515,20,1,2928.199999809265,619413.7000000477,7032,NTS,C,5
8,5,test,4,C,triangle.png,1,m,Tue Nov 12 2024 09:18:37 GMT-0600 (Central Standard Time),625141.899999857,1600,O,m,1172,7,1,2793.7999999523163,622348.0999999046,7032,NTS,C,6
3,6,test,4,C,circle.png,1,z,Tue Nov 12 2024 09:18:37 GMT-0600 (Central Standard Time),627824.2000000477,1600,O,z,1045,11,1,2662.7000000476837,625161.5,7032,NTS,C,7
8,7,test,4,C,triangle.png,1,m,Tue Nov 12 2024 09:18:37 GMT-0600 (Central Standard Time),630606.5999999046,1600,O,m,1138,23,1,2763.5999999046326,627843.0,7032,NTS,C,8
9,7,test,4,C,circle.png,0,m,Tue Nov 12 2024 09:18:37 GMT-0600 (Central Standard Time),633655.899999857,1500,O,None,1516,24,1,3029.5999999046326,630626.2999999523,7032,NTS,C,9
3,7,test,4,C,triangle.png,0,z,Tue Nov 12 2024 09:18:37 GMT-0600 (Central Standard Time),636404.7999999523,1200,O,None,1516,3,1,2729.2999999523163,633675.5,7032,NTS,C,10
2,8,test,4,C,triangle.png,1,m,Tue Nov 12 2024 09:18:37 GMT-0600 (Central Standard Time),639670.2999999523,2000,O,m,1222,18,1,3246.2000000476837,636424.0999999046,7032,NTS,C,11
7,9,test,4,C,circle.png,1,m,Tue Nov 12 2024 09:18:37 GMT-0600 (Central Standard Time),642919.2999999523,2000,O,m,1204,14,1,3230.4000000953674,639688.899999857,7032,NTS,C,12
9,9,test,4,C,triangle.png,0,z,Tue Nov 12 2024 09:18:37 GMT-0600 (Central Standard Time),645785.0,1400,O,m,1427,16,1,2846.4000000953674,642938.5999999046,7032,NTS,C,13
1,10,test,4,C,circle.png,1,z,Tue Nov 12 2024 09:18:37 GMT-0600 (Central Standard Time),648234.0,1000,O,z,1401,17,1,2428.7999999523163,645805.2000000477,7032,NTS,C,14
6,11,test,4,C,circle.png,1,m,Tue Nov 12 2024 09:18:37 GMT-0600 (Central Standard Time),651349.2000000477,1900,O,m,1179,5,1,3094.7000000476837,648254.5,7032,NTS,C,15
4,11,test,4,C,triangle.png,0,m,Tue Nov 12 2024 09:18:37 GMT-0600 (Central Standard Time),654398.7999999523,1500,O,None,1515,12,1,3030.7999999523163,651368.0,7032,NTS,C,16
9,12,test,4,C,circle.png,1,m,Tue Nov 12 2024 09:18:37 GMT-0600 (Central Standard Time),657014.7000000477,1500,O,m,1071,8,1,2597.2000000476837,654417.5,7032,NTS,C,17
2,13,test,4,C,triangle.png,1,m,Tue Nov 12 2024 09:18:37 GMT-0600 (Central Standard Time),660196.7000000477,2000,O,m,1149,2,1,3162.600000143051,657034.0999999046,7032,NTS,C,18
7,14,test,4,C,triangle.png,1,z,Tue Nov 12 2024 09:18:37 GMT-0600 (Central Standard Time),663145.899999857,1700,O,z,1209,6,1,2930.199999809265,660215.7000000477,7032,NTS,C,19
7,15,test,4,C,triangle.png,1,z,Tue Nov 12 2024 09:18:37 GMT-0600 (Central Standard Time),665945.0999999046,1700,O,z,1052,22,1,2781.399999856949,663163.7000000477,7032,NTS,C,20
1,16,test,4,C,triangle.png,1,z,Tue Nov 12 2024 09:18:37 GMT-0600 (Central Standard Time),668694.0999999046,1900,O,z,813,9,1,2730.5999999046326,665963.5,7032,NTS,C,21
6,17,test,4,C,triangle.png,1,m,Tue Nov 12 2024 09:18:37 GMT-0600 (Central Standard Time),670643.2000000477,1000,O,m,908,13,1,1930.9000000953674,668712.2999999523,7032,NTS,C,22
6,18,test,4,C,circle.png,1,m,Tue Nov 12 2024 09:18:37 GMT-0600 (Central Standard Time),673725.2999999523,1900,O,m,1147,21,1,3061.2999999523163,670664.0,7032,NTS,C,23
1,19,test,4,C,circle.png,1,z,Tue Nov 12 2024 09:18:37 GMT-0600 (Central Standard Time),675641.7999999523,1000,O,z,877,1,1,1897.7000000476837,673744.0999999046,7032,NTS,C,24
