acc_sum,block,block_c,change,condition,correct,correct_response,datetime,endtime,face,project,response,response_time,row_sel,session_number,start_end,starttime,subject_id,task,task_vers,trial
0,prac,1,,1-Back,,,Mon Jan 27 2025 09:37:41 GMT-0500 (Eastern Standard Time),,093_m_f_n_a.png,I,space,8925,1,1,,,9008,NNB,C,0
1,prac,1,0.0,1-Back,1,m,Mon Jan 27 2025 09:37:41 GMT-0500 (Eastern Standard Time),188006.6999988556,098_y_f_n_a.png,I,m,1173,2,1,2090.5,185916.1999988556,9008,NNB,C,1
2,prac,1,1.0,1-Back,1,z,Mon Jan 27 2025 09:37:41 GMT-0500 (Eastern Standard Time),189756.59999847412,098_y_f_n_a.png,I,z,962,3,1,1737.1999988555908,188019.39999961853,9008,NNB,C,2
3,prac,1,0.0,1-Back,1,m,Mon Jan 27 2025 09:37:41 GMT-0500 (Eastern Standard Time),192139.89999961853,059_o_m_n_a.png,I,m,1447,4,1,2371.5,189768.39999961853,9008,NNB,C,3
4,prac,1,0.0,1-Back,1,m,Mon Jan 27 2025 09:37:41 GMT-0500 (Eastern Standard Time),193956.1999988556,092_m_m_n_a.png,I,m,831,5,1,1804.7999992370605,192151.39999961853,9008,NNB,C,4
5,prac,1,1.0,1-Back,1,z,Mon Jan 27 2025 09:37:41 GMT-0500 (Eastern Standard Time),195239.79999923706,092_m_m_n_a.png,I,z,502,6,1,1272.6000003814697,193967.1999988556,9008,NNB,C,5
6,prac,1,0.0,1-Back,1,m,Mon Jan 27 2025 09:37:41 GMT-0500 (Eastern Standard Time),197206.29999923706,130_o_f_n_a.png,I,m,1014,7,1,1955.3999996185303,195250.89999961853,9008,NNB,C,6
7,prac,1,0.0,1-Back,1,m,Mon Jan 27 2025 09:37:41 GMT-0500 (Eastern Standard Time),199589.6999988556,082_m_m_n_a.png,I,m,1455,8,1,2370.2999992370605,197219.39999961853,9008,NNB,C,7
8,prac,1,0.0,1-Back,1,m,Mon Jan 27 2025 09:37:41 GMT-0500 (Eastern Standard Time),202473.0,093_m_f_n_a.png,I,m,1959,9,1,2868.6000003814697,199604.39999961853,9008,NNB,C,8
9,prac,1,1.0,1-Back,1,z,Mon Jan 27 2025 09:37:41 GMT-0500 (Eastern Standard Time),204422.5,093_m_f_n_a.png,I,z,1166,10,1,1935.8000011444092,202486.6999988556,9008,NNB,C,9
10,prac,1,0.0,1-Back,1,m,Mon Jan 27 2025 09:37:41 GMT-0500 (Eastern Standard Time),206173.1999988556,059_o_m_n_a.png,I,m,964,11,1,1739.8999996185303,204433.29999923706,9008,NNB,C,10
11,prac,1,0.0,1-Back,1,m,Mon Jan 27 2025 09:37:41 GMT-0500 (Eastern Standard Time),208139.59999847412,028_y_f_n_a.png,I,m,1034,12,1,1952.099998474121,206187.5,9008,NNB,C,11
0,test,1,0.0,1-Back,,,Mon Jan 27 2025 09:37:41 GMT-0500 (Eastern Standard Time),208139.59999847412,098_y_f_n_a.png,I,space,13743,1,1,1952.099998474121,206187.5,9008,NNB,C,0
0,test,1,0.0,1-Back,0,m,Mon Jan 27 2025 09:37:41 GMT-0500 (Eastern Standard Time),231106.1999988556,006_m_f_n_a.png,I,z,653,2,1,1707.6000003814697,229398.59999847412,9008,NNB,C,1
1,test,1,0.0,1-Back,1,m,Mon Jan 27 2025 09:37:41 GMT-0500 (Eastern Standard Time),233839.79999923706,028_y_f_n_a.png,I,m,1704,3,1,2724.5,231115.29999923706,9008,NNB,C,2
2,test,1,1.0,1-Back,1,z,Mon Jan 27 2025 09:37:41 GMT-0500 (Eastern Standard Time),235623.0,028_y_f_n_a.png,I,z,749,4,1,1775.1000003814697,233847.89999961853,9008,NNB,C,3
3,test,1,0.0,1-Back,1,m,Mon Jan 27 2025 09:37:41 GMT-0500 (Eastern Standard Time),237456.5,006_m_f_n_a.png,I,m,803,5,1,1825.0,235631.5,9008,NNB,C,4
4,test,1,0.0,1-Back,1,m,Mon Jan 27 2025 09:37:41 GMT-0500 (Eastern Standard Time),239239.39999961853,059_o_m_n_a.png,I,m,763,6,1,1773.5,237465.89999961853,9008,NNB,C,5
4,test,1,1.0,1-Back,0,z,Mon Jan 27 2025 09:37:41 GMT-0500 (Eastern Standard Time),240706.1999988556,059_o_m_n_a.png,I,m,435,7,1,1458.5,239247.6999988556,9008,NNB,C,6
5,test,1,0.0,1-Back,1,m,Mon Jan 27 2025 09:37:41 GMT-0500 (Eastern Standard Time),242689.79999923706,092_m_m_n_a.png,I,m,952,8,1,1975.2000007629395,240714.59999847412,9008,NNB,C,7
6,test,1,0.0,1-Back,1,m,Mon Jan 27 2025 09:37:41 GMT-0500 (Eastern Standard Time),244539.59999847412,130_o_f_n_a.png,I,m,825,9,1,1839.7999992370605,242699.79999923706,9008,NNB,C,8
7,test,1,0.0,1-Back,1,m,Mon Jan 27 2025 09:37:41 GMT-0500 (Eastern Standard Time),246556.29999923706,092_m_m_n_a.png,I,m,991,10,1,2008.2000007629395,244548.09999847412,9008,NNB,C,9
8,test,1,0.0,1-Back,1,m,Mon Jan 27 2025 09:37:41 GMT-0500 (Eastern Standard Time),248322.79999923706,057_y_m_n_a.png,I,m,734,11,1,1751.7999992370605,246571.0,9008,NNB,C,10
9,test,1,1.0,1-Back,1,z,Mon Jan 27 2025 09:37:41 GMT-0500 (Eastern Standard Time),249889.59999847412,057_y_m_n_a.png,I,z,537,12,1,1559.6999988555908,248329.89999961853,9008,NNB,C,11
10,test,1,0.0,1-Back,1,m,Mon Jan 27 2025 09:37:41 GMT-0500 (Eastern Standard Time),252023.0,030_o_f_n_a.png,I,m,1099,13,1,2124.0,249899.0,9008,NNB,C,12
11,test,1,1.0,1-Back,1,z,Mon Jan 27 2025 09:37:41 GMT-0500 (Eastern Standard Time),253756.1999988556,030_o_f_n_a.png,I,z,707,14,1,1723.7999992370605,252032.39999961853,9008,NNB,C,13
12,test,1,0.0,1-Back,1,m,Mon Jan 27 2025 09:37:41 GMT-0500 (Eastern Standard Time),255489.6999988556,031_y_m_n_a.png,I,m,702,15,1,1724.3999996185303,253765.29999923706,9008,NNB,C,14
13,test,1,0.0,1-Back,1,m,Mon Jan 27 2025 09:37:41 GMT-0500 (Eastern Standard Time),257356.29999923706,093_m_f_n_a.png,I,m,841,16,1,1858.7000007629395,255497.59999847412,9008,NNB,C,15
14,test,1,0.0,1-Back,1,m,Mon Jan 27 2025 09:37:41 GMT-0500 (Eastern Standard Time),259089.59999847412,146_o_m_n_a.png,I,m,702,17,1,1723.8999996185303,257365.6999988556,9008,NNB,C,16
15,test,1,0.0,1-Back,1,m,Mon Jan 27 2025 09:37:41 GMT-0500 (Eastern Standard Time),261339.59999847412,093_m_f_n_a.png,I,m,1225,18,1,2241.599998474121,259098.0,9008,NNB,C,17
0,test,2,0.0,1-Back,,,Mon Jan 27 2025 09:37:41 GMT-0500 (Eastern Standard Time),261339.59999847412,092_m_m_n_a.png,I,space,2144,1,1,2241.599998474121,259098.0,9008,NNB,C,0
1,test,2,0.0,1-Back,1,m,Mon Jan 27 2025 09:37:41 GMT-0500 (Eastern Standard Time),267240.5999984741,006_m_f_n_a.png,I,m,713,2,1,1723.8999996185303,265516.6999988556,9008,NNB,C,1
2,test,2,1.0,1-Back,1,z,Mon Jan 27 2025 09:37:41 GMT-0500 (Eastern Standard Time),268939.6999988556,006_m_f_n_a.png,I,z,675,3,1,1690.6999988555908,267249.0,9008,NNB,C,2
3,test,2,0.0,1-Back,1,m,Mon Jan 27 2025 09:37:41 GMT-0500 (Eastern Standard Time),270872.79999923706,092_m_m_n_a.png,I,m,912,4,1,1923.5,268949.29999923706,9008,NNB,C,3
4,test,2,0.0,1-Back,1,m,Mon Jan 27 2025 09:37:41 GMT-0500 (Eastern Standard Time),273706.39999961853,057_y_m_n_a.png,I,m,1810,5,1,2824.8999996185303,270881.5,9008,NNB,C,4
5,test,2,0.0,1-Back,1,m,Mon Jan 27 2025 09:37:41 GMT-0500 (Eastern Standard Time),275506.29999923706,098_y_f_n_a.png,I,m,768,6,1,1791.3999996185303,273714.89999961853,9008,NNB,C,5
6,test,2,1.0,1-Back,1,z,Mon Jan 27 2025 09:37:41 GMT-0500 (Eastern Standard Time),277106.29999923706,098_y_f_n_a.png,I,z,568,7,1,1590.7999992370605,275515.5,9008,NNB,C,6
7,test,2,0.0,1-Back,1,m,Mon Jan 27 2025 09:37:41 GMT-0500 (Eastern Standard Time),278989.79999923706,057_y_m_n_a.png,I,m,856,8,1,1875.3999996185303,277114.39999961853,9008,NNB,C,7
8,test,2,0.0,1-Back,1,m,Mon Jan 27 2025 09:37:41 GMT-0500 (Eastern Standard Time),281123.0,030_o_f_n_a.png,I,m,1102,9,1,2124.7000007629395,278998.29999923706,9008,NNB,C,8
9,test,2,0.0,1-Back,1,m,Mon Jan 27 2025 09:37:41 GMT-0500 (Eastern Standard Time),282956.29999923706,082_m_m_n_a.png,I,m,807,10,1,1824.8999996185303,281131.39999961853,9008,NNB,C,9
10,test,2,1.0,1-Back,1,z,Mon Jan 27 2025 09:37:41 GMT-0500 (Eastern Standard Time),284406.5,082_m_m_n_a.png,I,z,431,11,1,1442.3000011444092,282964.1999988556,9008,NNB,C,10
11,test,2,0.0,1-Back,1,m,Mon Jan 27 2025 09:37:41 GMT-0500 (Eastern Standard Time),286822.89999961853,030_o_f_n_a.png,I,m,1381,12,1,2407.2000007629395,284415.6999988556,9008,NNB,C,11
12,test,2,0.0,1-Back,1,m,Mon Jan 27 2025 09:37:41 GMT-0500 (Eastern Standard Time),288639.39999961853,130_o_f_n_a.png,I,m,788,13,1,1807.5,286831.89999961853,9008,NNB,C,12
13,test,2,0.0,1-Back,1,m,Mon Jan 27 2025 09:37:41 GMT-0500 (Eastern Standard Time),290372.29999923706,059_o_m_n_a.png,I,m,699,14,1,1723.3999996185303,288648.89999961853,9008,NNB,C,13
14,test,2,0.0,1-Back,1,m,Mon Jan 27 2025 09:37:41 GMT-0500 (Eastern Standard Time),292572.89999961853,146_o_m_n_a.png,I,m,1174,15,1,2195.300001144409,290377.5999984741,9008,NNB,C,14
15,test,2,1.0,1-Back,1,z,Mon Jan 27 2025 09:37:41 GMT-0500 (Eastern Standard Time),294439.39999961853,146_o_m_n_a.png,I,z,845,16,1,1857.3000011444092,292582.0999984741,9008,NNB,C,15
16,test,2,0.0,1-Back,1,m,Mon Jan 27 2025 09:37:41 GMT-0500 (Eastern Standard Time),296506.29999923706,031_y_m_n_a.png,I,m,1043,17,1,2058.7000007629395,294447.5999984741,9008,NNB,C,16
17,test,2,1.0,1-Back,1,z,Mon Jan 27 2025 09:37:41 GMT-0500 (Eastern Standard Time),298339.6999988556,031_y_m_n_a.png,I,z,800,18,1,1825.6000003814697,296514.0999984741,9008,NNB,C,17
0,test,3,1.0,1-Back,,,Mon Jan 27 2025 09:37:41 GMT-0500 (Eastern Standard Time),298339.6999988556,028_y_f_n_a.png,I,space,6145,1,1,1825.6000003814697,296514.0999984741,9008,NNB,C,0
1,test,3,0.0,1-Back,1,m,Mon Jan 27 2025 09:37:41 GMT-0500 (Eastern Standard Time),308339.5999984741,146_o_m_n_a.png,I,m,651,1,1,1679.0,306660.5999984741,9008,NNB,C,1
2,test,3,1.0,1-Back,1,z,Mon Jan 27 2025 09:37:41 GMT-0500 (Eastern Standard Time),310673.0999984741,146_o_m_n_a.png,I,z,1303,1,1,2324.2999992370605,308348.79999923706,9008,NNB,C,2
3,test,3,0.0,1-Back,1,m,Mon Jan 27 2025 09:37:41 GMT-0500 (Eastern Standard Time),313339.6999988556,093_m_f_n_a.png,I,m,1641,1,1,2657.7999992370605,310681.89999961853,9008,NNB,C,3
4,test,3,1.0,1-Back,1,z,Mon Jan 27 2025 09:37:41 GMT-0500 (Eastern Standard Time),315256.29999923706,093_m_f_n_a.png,I,z,896,1,1,1908.1000003814697,313348.1999988556,9008,NNB,C,4
5,test,3,0.0,1-Back,1,m,Mon Jan 27 2025 09:37:41 GMT-0500 (Eastern Standard Time),317456.5,030_o_f_n_a.png,I,m,1169,1,1,2190.400001525879,315266.0999984741,9008,NNB,C,5
6,test,3,0.0,1-Back,1,m,Mon Jan 27 2025 09:37:41 GMT-0500 (Eastern Standard Time),319173.1999988556,057_y_m_n_a.png,I,m,682,1,1,1707.7999992370605,317465.39999961853,9008,NNB,C,6
6,test,3,0.0,1-Back,0,m,Mon Jan 27 2025 09:37:41 GMT-0500 (Eastern Standard Time),321006.39999961853,030_o_f_n_a.png,I,z,805,1,1,1823.8999996185303,319182.5,9008,NNB,C,7
7,test,3,0.0,1-Back,1,m,Mon Jan 27 2025 09:37:41 GMT-0500 (Eastern Standard Time),323156.1999988556,031_y_m_n_a.png,I,m,1116,1,1,2140.3999996185303,321015.79999923706,9008,NNB,C,8
8,test,3,1.0,1-Back,1,z,Mon Jan 27 2025 09:37:41 GMT-0500 (Eastern Standard Time),324656.1999988556,031_y_m_n_a.png,I,z,470,1,1,1491.3999996185303,323164.79999923706,9008,NNB,C,9
9,test,3,0.0,1-Back,1,m,Mon Jan 27 2025 09:37:41 GMT-0500 (Eastern Standard Time),327089.29999923706,006_m_f_n_a.png,I,m,1402,1,1,2419.7000007629395,324669.5999984741,9008,NNB,C,10
10,test,3,0.0,1-Back,1,m,Mon Jan 27 2025 09:37:41 GMT-0500 (Eastern Standard Time),328840.6999988556,098_y_f_n_a.png,I,m,729,1,1,1746.6999988555908,327094.0,9008,NNB,C,11
11,test,3,1.0,1-Back,1,z,Mon Jan 27 2025 09:37:41 GMT-0500 (Eastern Standard Time),330273.1999988556,098_y_f_n_a.png,I,z,402,1,1,1423.1999988555908,328850.0,9008,NNB,C,12
12,test,3,0.0,1-Back,1,m,Mon Jan 27 2025 09:37:41 GMT-0500 (Eastern Standard Time),331923.1999988556,006_m_f_n_a.png,I,m,617,1,1,1640.6999988555908,330282.5,9008,NNB,C,13
13,test,3,0.0,1-Back,1,m,Mon Jan 27 2025 09:37:41 GMT-0500 (Eastern Standard Time),333923.0,092_m_m_n_a.png,I,m,967,1,1,1990.8000011444092,331932.1999988556,9008,NNB,C,14
14,test,3,1.0,1-Back,1,z,Mon Jan 27 2025 09:37:41 GMT-0500 (Eastern Standard Time),335439.5999984741,092_m_m_n_a.png,I,z,488,1,1,1507.6999988555908,333931.89999961853,9008,NNB,C,15
15,test,3,0.0,1-Back,1,m,Mon Jan 27 2025 09:37:41 GMT-0500 (Eastern Standard Time),337156.0,130_o_f_n_a.png,I,m,682,1,1,1708.8000011444092,335447.1999988556,9008,NNB,C,16
16,test,3,1.0,1-Back,1,z,Mon Jan 27 2025 09:37:41 GMT-0500 (Eastern Standard Time),338889.6999988556,130_o_f_n_a.png,I,z,712,1,1,1729.5,337160.1999988556,9008,NNB,C,17
0,test,4,1.0,1-Back,,,Mon Jan 27 2025 09:37:41 GMT-0500 (Eastern Standard Time),338889.6999988556,093_m_f_n_a.png,I,space,2570,1,1,1729.5,337160.1999988556,9008,NNB,C,0
1,test,4,0.0,1-Back,1,m,Mon Jan 27 2025 09:37:41 GMT-0500 (Eastern Standard Time),345189.79999923706,146_o_m_n_a.png,I,m,531,2,1,1555.6000003814697,343634.1999988556,9008,NNB,C,1
2,test,4,0.0,1-Back,1,m,Mon Jan 27 2025 09:37:41 GMT-0500 (Eastern Standard Time),347639.39999961853,093_m_f_n_a.png,I,m,1429,3,1,2442.0,345197.39999961853,9008,NNB,C,2
3,test,4,0.0,1-Back,1,m,Mon Jan 27 2025 09:37:41 GMT-0500 (Eastern Standard Time),349356.39999961853,030_o_f_n_a.png,I,m,691,4,1,1709.5,347646.89999961853,9008,NNB,C,3
4,test,4,1.0,1-Back,1,z,Mon Jan 27 2025 09:37:41 GMT-0500 (Eastern Standard Time),351039.6999988556,030_o_f_n_a.png,I,z,656,5,1,1673.6999988555908,349366.0,9008,NNB,C,4
5,test,4,0.0,1-Back,1,m,Mon Jan 27 2025 09:37:41 GMT-0500 (Eastern Standard Time),353223.1999988556,098_y_f_n_a.png,I,m,1163,6,1,2172.3999996185303,351050.79999923706,9008,NNB,C,5
6,test,4,0.0,1-Back,1,m,Mon Jan 27 2025 09:37:41 GMT-0500 (Eastern Standard Time),355139.79999923706,057_y_m_n_a.png,I,m,885,7,1,1907.7999992370605,353232.0,9008,NNB,C,6
7,test,4,1.0,1-Back,1,z,Mon Jan 27 2025 09:37:41 GMT-0500 (Eastern Standard Time),356923.1999988556,057_y_m_n_a.png,I,z,760,8,1,1773.8999996185303,355149.29999923706,9008,NNB,C,7
8,test,4,0.0,1-Back,1,m,Mon Jan 27 2025 09:37:41 GMT-0500 (Eastern Standard Time),358856.0,098_y_f_n_a.png,I,m,911,9,1,1924.5,356931.5,9008,NNB,C,8
9,test,4,0.0,1-Back,1,m,Mon Jan 27 2025 09:37:41 GMT-0500 (Eastern Standard Time),360589.6999988556,082_m_m_n_a.png,I,m,706,10,1,1729.3999996185303,358860.29999923706,9008,NNB,C,9
10,test,4,1.0,1-Back,1,z,Mon Jan 27 2025 09:37:41 GMT-0500 (Eastern Standard Time),362039.5,082_m_m_n_a.png,I,z,429,11,1,1440.900001525879,360598.5999984741,9008,NNB,C,10
11,test,4,0.0,1-Back,1,m,Mon Jan 27 2025 09:37:41 GMT-0500 (Eastern Standard Time),363790.0999984741,130_o_f_n_a.png,I,m,724,12,1,1741.7999992370605,362048.29999923706,9008,NNB,C,11
12,test,4,0.0,1-Back,1,m,Mon Jan 27 2025 09:37:41 GMT-0500 (Eastern Standard Time),365373.1999988556,059_o_m_n_a.png,I,m,557,13,1,1573.3999996185303,363799.79999923706,9008,NNB,C,12
13,test,4,0.0,1-Back,1,m,Mon Jan 27 2025 09:37:41 GMT-0500 (Eastern Standard Time),367389.6999988556,130_o_f_n_a.png,I,m,990,14,1,2007.6000003814697,365382.0999984741,9008,NNB,C,13
14,test,4,0.0,1-Back,1,m,Mon Jan 27 2025 09:37:41 GMT-0500 (Eastern Standard Time),369173.0,028_y_f_n_a.png,I,m,749,15,1,1773.3000011444092,367399.6999988556,9008,NNB,C,14
15,test,4,1.0,1-Back,1,z,Mon Jan 27 2025 09:37:41 GMT-0500 (Eastern Standard Time),370656.29999923706,028_y_f_n_a.png,I,z,455,16,1,1475.6000003814697,369180.6999988556,9008,NNB,C,15
16,test,4,0.0,1-Back,1,m,Mon Jan 27 2025 09:37:41 GMT-0500 (Eastern Standard Time),372389.6999988556,006_m_f_n_a.png,I,m,698,17,1,1724.2999992370605,370665.39999961853,9008,NNB,C,16
16,test,4,1.0,1-Back,0,z,Mon Jan 27 2025 09:37:41 GMT-0500 (Eastern Standard Time),374356.39999961853,006_m_f_n_a.png,I,m,933,18,1,1957.8000011444092,372398.5999984741,9008,NNB,C,17
0,test,5,1.0,1-Back,,,Mon Jan 27 2025 09:37:41 GMT-0500 (Eastern Standard Time),374356.39999961853,059_o_m_n_a.png,I,space,2248,1,1,1957.8000011444092,372398.5999984741,9008,NNB,C,0
1,test,5,1.0,1-Back,1,z,Mon Jan 27 2025 09:37:41 GMT-0500 (Eastern Standard Time),380589.39999961853,059_o_m_n_a.png,I,z,923,2,1,1941.5,378647.89999961853,9008,NNB,C,1
2,test,5,0.0,1-Back,1,m,Mon Jan 27 2025 09:37:41 GMT-0500 (Eastern Standard Time),382556.29999923706,098_y_f_n_a.png,I,m,942,3,1,1962.1000003814697,380594.1999988556,9008,NNB,C,2
3,test,5,0.0,1-Back,1,m,Mon Jan 27 2025 09:37:41 GMT-0500 (Eastern Standard Time),384389.79999923706,057_y_m_n_a.png,I,m,798,4,1,1824.6000003814697,382565.1999988556,9008,NNB,C,3
4,test,5,0.0,1-Back,1,m,Mon Jan 27 2025 09:37:41 GMT-0500 (Eastern Standard Time),386005.89999961853,098_y_f_n_a.png,I,m,597,5,1,1607.7000007629395,384398.1999988556,9008,NNB,C,4
5,test,5,0.0,1-Back,1,m,Mon Jan 27 2025 09:37:41 GMT-0500 (Eastern Standard Time),387622.89999961853,092_m_m_n_a.png,I,m,596,6,1,1612.8000011444092,386010.0999984741,9008,NNB,C,5
6,test,5,1.0,1-Back,1,z,Mon Jan 27 2025 09:37:41 GMT-0500 (Eastern Standard Time),389073.0,092_m_m_n_a.png,I,z,420,7,1,1441.0,387632.0,9008,NNB,C,6
7,test,5,0.0,1-Back,1,m,Mon Jan 27 2025 09:37:41 GMT-0500 (Eastern Standard Time),390906.1999988556,028_y_f_n_a.png,I,m,811,8,1,1825.1999988555908,389081.0,9008,NNB,C,7
8,test,5,0.0,1-Back,1,m,Mon Jan 27 2025 09:37:41 GMT-0500 (Eastern Standard Time),392623.0999984741,031_y_m_n_a.png,I,m,689,9,1,1708.7999992370605,390914.29999923706,9008,NNB,C,8
9,test,5,0.0,1-Back,1,m,Mon Jan 27 2025 09:37:41 GMT-0500 (Eastern Standard Time),394256.5,028_y_f_n_a.png,I,m,605,10,1,1623.7000007629395,392632.79999923706,9008,NNB,C,9
10,test,5,0.0,1-Back,1,m,Mon Jan 27 2025 09:37:41 GMT-0500 (Eastern Standard Time),395806.29999923706,130_o_f_n_a.png,I,m,522,11,1,1535.2000007629395,394271.0999984741,9008,NNB,C,10
11,test,5,1.0,1-Back,1,z,Mon Jan 27 2025 09:37:41 GMT-0500 (Eastern Standard Time),397523.0,130_o_f_n_a.png,I,z,685,12,1,1708.6000003814697,395814.39999961853,9008,NNB,C,11
12,test,5,0.0,1-Back,1,m,Mon Jan 27 2025 09:37:41 GMT-0500 (Eastern Standard Time),399306.5,146_o_m_n_a.png,I,m,759,13,1,1775.0,397531.5,9008,NNB,C,12
13,test,5,0.0,1-Back,1,m,Mon Jan 27 2025 09:37:41 GMT-0500 (Eastern Standard Time),401006.5,093_m_f_n_a.png,I,m,675,14,1,1691.5,399315.0,9008,NNB,C,13
14,test,5,1.0,1-Back,1,z,Mon Jan 27 2025 09:37:41 GMT-0500 (Eastern Standard Time),402423.0,093_m_f_n_a.png,I,z,396,15,1,1409.5,401013.5,9008,NNB,C,14
15,test,5,0.0,1-Back,1,m,Mon Jan 27 2025 09:37:41 GMT-0500 (Eastern Standard Time),404073.0999984741,146_o_m_n_a.png,I,m,629,16,1,1641.0,402432.0999984741,9008,NNB,C,15
16,test,5,0.0,1-Back,1,m,Mon Jan 27 2025 09:37:41 GMT-0500 (Eastern Standard Time),405739.79999923706,006_m_f_n_a.png,I,m,642,17,1,1657.3999996185303,404082.39999961853,9008,NNB,C,16
17,test,5,0.0,1-Back,1,m,Mon Jan 27 2025 09:37:41 GMT-0500 (Eastern Standard Time),407323.1999988556,082_m_m_n_a.png,I,m,559,18,1,1574.7999992370605,405748.39999961853,9008,NNB,C,17
0,prac,1,0.0,2-Back,,,Mon Jan 27 2025 09:37:41 GMT-0500 (Eastern Standard Time),407323.1999988556,031_y_m_n_a.png,I,space,19381,1,1,1574.7999992370605,405748.39999961853,9008,NNB,C,0
0,prac,1,0.0,2-Back,,,Mon Jan 27 2025 09:37:41 GMT-0500 (Eastern Standard Time),407323.1999988556,006_m_f_n_a.png,I,space,19381,2,1,1574.7999992370605,405748.39999961853,9008,NNB,C,0
1,prac,1,1.0,2-Back,1,m,Mon Jan 27 2025 09:37:41 GMT-0500 (Eastern Standard Time),529906.5999984741,146_o_m_n_a.png,I,m,876,3,1,1955.599998474121,527951.0,9008,NNB,C,1
1,prac,1,0.0,2-Back,0,m,Mon Jan 27 2025 09:37:41 GMT-0500 (Eastern Standard Time),532973.2999992371,130_o_f_n_a.png,I,None,2006,4,1,3055.6000003814697,529917.6999988556,9008,NNB,C,2
2,prac,1,0.0,2-Back,1,z,Mon Jan 27 2025 09:37:41 GMT-0500 (Eastern Standard Time),535439.8999996185,146_o_m_n_a.png,I,z,1677,5,1,2453.8999996185303,532986.0,9008,NNB,C,3
3,prac,1,1.0,2-Back,1,z,Mon Jan 27 2025 09:37:41 GMT-0500 (Eastern Standard Time),537489.8999996185,130_o_f_n_a.png,I,z,1260,6,1,2039.8999996185303,535450.0,9008,NNB,C,4
4,prac,1,0.0,2-Back,1,m,Mon Jan 27 2025 09:37:41 GMT-0500 (Eastern Standard Time),539489.8999996185,082_m_m_n_a.png,I,m,997,7,1,1988.1000003814697,537501.7999992371,9008,NNB,C,5
5,prac,1,0.0,2-Back,1,m,Mon Jan 27 2025 09:37:41 GMT-0500 (Eastern Standard Time),542273.3999996185,059_o_m_n_a.png,I,m,1726,8,1,2771.1000003814697,539502.2999992371,9008,NNB,C,6
6,prac,1,0.0,2-Back,1,m,Mon Jan 27 2025 09:37:41 GMT-0500 (Eastern Standard Time),544673.5,028_y_f_n_a.png,I,m,1404,9,1,2388.6000003814697,542284.8999996185,9008,NNB,C,7
7,prac,1,1.0,2-Back,1,z,Mon Jan 27 2025 09:37:41 GMT-0500 (Eastern Standard Time),546306.5999984741,059_o_m_n_a.png,I,z,840,10,1,1621.599998474121,544685.0,9008,NNB,C,8
8,prac,1,0.0,2-Back,1,m,Mon Jan 27 2025 09:37:41 GMT-0500 (Eastern Standard Time),548206.5,098_y_f_n_a.png,I,m,925,11,1,1889.3000011444092,546317.1999988556,9008,NNB,C,9
8,prac,1,0.0,2-Back,0,m,Mon Jan 27 2025 09:37:41 GMT-0500 (Eastern Standard Time),549973.1999988556,082_m_m_n_a.png,I,z,831,12,1,1756.0,548217.1999988556,9008,NNB,C,10
0,test,1,0.0,2-Back,,,Mon Jan 27 2025 09:37:41 GMT-0500 (Eastern Standard Time),549973.1999988556,057_y_m_n_a.png,I,space,16617,1,1,1756.0,548217.1999988556,9008,NNB,C,0
0,test,1,0.0,2-Back,,,Mon Jan 27 2025 09:37:41 GMT-0500 (Eastern Standard Time),549973.1999988556,057_y_m_n_a.png,I,space,16617,2,1,1756.0,548217.1999988556,9008,NNB,C,0
0,test,1,0.0,2-Back,0,m,Mon Jan 27 2025 09:37:41 GMT-0500 (Eastern Standard Time),602023.5,130_o_f_n_a.png,I,None,2014,3,1,3024.6000003814697,598998.8999996185,9008,NNB,C,1
0,test,1,0.0,2-Back,0,m,Mon Jan 27 2025 09:37:41 GMT-0500 (Eastern Standard Time),604856.3999996185,092_m_m_n_a.png,I,z,1811,4,1,2825.0,602031.3999996185,9008,NNB,C,2
1,test,1,1.0,2-Back,1,z,Mon Jan 27 2025 09:37:41 GMT-0500 (Eastern Standard Time),607006.5,130_o_f_n_a.png,I,z,1124,5,1,2144.5,604862.0,9008,NNB,C,3
2,test,1,0.0,2-Back,1,m,Mon Jan 27 2025 09:37:41 GMT-0500 (Eastern Standard Time),609323.2999992371,098_y_f_n_a.png,I,m,1293,6,1,2307.1000003814697,607016.1999988556,9008,NNB,C,4
2,test,1,0.0,2-Back,0,m,Mon Jan 27 2025 09:37:41 GMT-0500 (Eastern Standard Time),611190.0,092_m_m_n_a.png,I,z,831,7,1,1858.1000003814697,609331.8999996185,9008,NNB,C,5
2,test,1,1.0,2-Back,0,z,Mon Jan 27 2025 09:37:41 GMT-0500 (Eastern Standard Time),613073.1999988556,098_y_f_n_a.png,I,m,853,8,1,1874.5,611198.6999988556,9008,NNB,C,6
2,test,1,0.0,2-Back,0,m,Mon Jan 27 2025 09:37:41 GMT-0500 (Eastern Standard Time),616106.7999992371,031_y_m_n_a.png,I,None,2014,9,1,3029.0,613077.7999992371,9008,NNB,C,7
2,test,1,0.0,2-Back,0,m,Mon Jan 27 2025 09:37:41 GMT-0500 (Eastern Standard Time),617940.0,030_o_f_n_a.png,I,z,801,10,1,1825.0,616115.0,9008,NNB,C,8
3,test,1,1.0,2-Back,1,z,Mon Jan 27 2025 09:37:41 GMT-0500 (Eastern Standard Time),620156.5,031_y_m_n_a.png,I,z,1191,11,1,2208.400001525879,617948.0999984741,9008,NNB,C,9
3,test,1,0.0,2-Back,0,m,Mon Jan 27 2025 09:37:41 GMT-0500 (Eastern Standard Time),623189.7999992371,006_m_f_n_a.png,I,None,2014,12,1,3026.3999996185303,620163.3999996185,9008,NNB,C,10
3,test,1,0.0,2-Back,0,m,Mon Jan 27 2025 09:37:41 GMT-0500 (Eastern Standard Time),625273.1999988556,006_m_f_n_a.png,I,z,1062,13,1,2075.5,623197.6999988556,9008,NNB,C,11
4,test,1,0.0,2-Back,1,m,Mon Jan 27 2025 09:37:41 GMT-0500 (Eastern Standard Time),627223.5,146_o_m_n_a.png,I,m,930,14,1,1942.1000003814697,625281.3999996185,9008,NNB,C,12
5,test,1,0.0,2-Back,1,m,Mon Jan 27 2025 09:37:41 GMT-0500 (Eastern Standard Time),629390.0999984741,030_o_f_n_a.png,I,m,1140,15,1,2157.3999996185303,627232.6999988556,9008,NNB,C,13
6,test,1,1.0,2-Back,1,z,Mon Jan 27 2025 09:37:41 GMT-0500 (Eastern Standard Time),631189.5999984741,146_o_m_n_a.png,I,z,765,16,1,1790.599998474121,629399.0,9008,NNB,C,14
7,test,1,0.0,2-Back,1,m,Mon Jan 27 2025 09:37:41 GMT-0500 (Eastern Standard Time),633206.0999984741,093_m_f_n_a.png,I,m,985,17,1,2011.1999988555908,631194.8999996185,9008,NNB,C,15
8,test,1,0.0,2-Back,1,m,Mon Jan 27 2025 09:37:41 GMT-0500 (Eastern Standard Time),635306.5,082_m_m_n_a.png,I,m,1078,18,1,2096.7000007629395,633209.7999992371,9008,NNB,C,16
0,test,2,0.0,2-Back,,,Mon Jan 27 2025 09:37:41 GMT-0500 (Eastern Standard Time),635306.5,082_m_m_n_a.png,I,space,10819,1,1,2096.7000007629395,633209.7999992371,9008,NNB,C,0
0,test,2,0.0,2-Back,,,Mon Jan 27 2025 09:37:41 GMT-0500 (Eastern Standard Time),635306.5,028_y_f_n_a.png,I,space,10819,2,1,2096.7000007629395,633209.7999992371,9008,NNB,C,0
1,test,2,1.0,2-Back,1,z,Mon Jan 27 2025 09:37:41 GMT-0500 (Eastern Standard Time),652956.5999984741,082_m_m_n_a.png,I,z,527,3,1,1541.2999992370605,651415.2999992371,9008,NNB,C,1
1,test,2,0.0,2-Back,0,m,Mon Jan 27 2025 09:37:41 GMT-0500 (Eastern Standard Time),655989.7999992371,093_m_f_n_a.png,I,None,2014,4,1,3024.8999996185303,652964.8999996185,9008,NNB,C,2
2,test,2,0.0,2-Back,1,m,Mon Jan 27 2025 09:37:41 GMT-0500 (Eastern Standard Time),658956.5,028_y_f_n_a.png,I,m,1943,5,1,2962.0,655994.5,9008,NNB,C,3
2,test,2,0.0,2-Back,0,m,Mon Jan 27 2025 09:37:41 GMT-0500 (Eastern Standard Time),661990.0,146_o_m_n_a.png,I,None,2016,6,1,3024.6000003814697,658965.3999996185,9008,NNB,C,4
2,test,2,0.0,2-Back,0,m,Mon Jan 27 2025 09:37:41 GMT-0500 (Eastern Standard Time),664456.6999988556,098_y_f_n_a.png,I,z,1446,7,1,2457.7999992370605,661998.8999996185,9008,NNB,C,5
3,test,2,1.0,2-Back,1,z,Mon Jan 27 2025 09:37:41 GMT-0500 (Eastern Standard Time),667123.2999992371,146_o_m_n_a.png,I,z,1635,8,1,2657.7999992370605,664465.5,9008,NNB,C,6
4,test,2,0.0,2-Back,1,m,Mon Jan 27 2025 09:37:41 GMT-0500 (Eastern Standard Time),668956.3999996185,031_y_m_n_a.png,I,m,807,9,1,1821.2000007629395,667135.1999988556,9008,NNB,C,7
4,test,2,0.0,2-Back,0,m,Mon Jan 27 2025 09:37:41 GMT-0500 (Eastern Standard Time),671990.0,031_y_m_n_a.png,I,None,2015,10,1,3028.1000003814697,668961.8999996185,9008,NNB,C,8
5,test,2,0.0,2-Back,1,m,Mon Jan 27 2025 09:37:41 GMT-0500 (Eastern Standard Time),674823.2999992371,006_m_f_n_a.png,I,m,1814,11,1,2824.6000003814697,671998.6999988556,9008,NNB,C,9
5,test,2,0.0,2-Back,0,m,Mon Jan 27 2025 09:37:41 GMT-0500 (Eastern Standard Time),676656.3999996185,028_y_f_n_a.png,I,z,803,12,1,1825.3999996185303,674831.0,9008,NNB,C,10
6,test,2,1.0,2-Back,1,z,Mon Jan 27 2025 09:37:41 GMT-0500 (Eastern Standard Time),678940.0999984741,006_m_f_n_a.png,I,z,1260,13,1,2279.2999992370605,676660.7999992371,9008,NNB,C,11
7,test,2,0.0,2-Back,1,m,Mon Jan 27 2025 09:37:41 GMT-0500 (Eastern Standard Time),680690.0999984741,059_o_m_n_a.png,I,m,720,14,1,1741.3999996185303,678948.6999988556,9008,NNB,C,12
8,test,2,0.0,2-Back,1,m,Mon Jan 27 2025 09:37:41 GMT-0500 (Eastern Standard Time),683456.7999992371,059_o_m_n_a.png,I,m,1738,15,1,2757.8999996185303,680698.8999996185,9008,NNB,C,13
9,test,2,0.0,2-Back,1,m,Mon Jan 27 2025 09:37:41 GMT-0500 (Eastern Standard Time),685506.5999984741,030_o_f_n_a.png,I,m,1019,16,1,2041.099998474121,683465.5,9008,NNB,C,14
10,test,2,0.0,2-Back,1,m,Mon Jan 27 2025 09:37:41 GMT-0500 (Eastern Standard Time),687440.0999984741,092_m_m_n_a.png,I,m,905,17,1,1924.5,685515.5999984741,9008,NNB,C,15
11,test,2,1.0,2-Back,1,z,Mon Jan 27 2025 09:37:41 GMT-0500 (Eastern Standard Time),689373.3999996185,030_o_f_n_a.png,I,z,907,18,1,1924.3999996185303,687449.0,9008,NNB,C,16
0,test,3,1.0,2-Back,,,Mon Jan 27 2025 09:37:41 GMT-0500 (Eastern Standard Time),689373.3999996185,057_y_m_n_a.png,I,space,2328,1,1,1924.3999996185303,687449.0,9008,NNB,C,0
0,test,3,1.0,2-Back,,,Mon Jan 27 2025 09:37:41 GMT-0500 (Eastern Standard Time),689373.3999996185,057_y_m_n_a.png,I,space,2328,2,1,1924.3999996185303,687449.0,9008,NNB,C,0
1,test,3,0.0,2-Back,1,m,Mon Jan 27 2025 09:37:41 GMT-0500 (Eastern Standard Time),699306.0,030_o_f_n_a.png,I,m,1376,3,1,2390.0,696916.0,9008,NNB,C,1
2,test,3,0.0,2-Back,1,m,Mon Jan 27 2025 09:37:41 GMT-0500 (Eastern Standard Time),701356.6999988556,082_m_m_n_a.png,I,m,1025,4,1,2045.0,699311.6999988556,9008,NNB,C,2
3,test,3,1.0,2-Back,1,z,Mon Jan 27 2025 09:37:41 GMT-0500 (Eastern Standard Time),703323.5,030_o_f_n_a.png,I,z,943,5,1,1959.1000003814697,701364.3999996185,9008,NNB,C,3
4,test,3,0.0,2-Back,1,m,Mon Jan 27 2025 09:37:41 GMT-0500 (Eastern Standard Time),705239.7999992371,031_y_m_n_a.png,I,m,896,6,1,1908.2000007629395,703331.5999984741,9008,NNB,C,4
5,test,3,0.0,2-Back,1,m,Mon Jan 27 2025 09:37:41 GMT-0500 (Eastern Standard Time),707740.1999988556,082_m_m_n_a.png,I,m,1475,7,1,2492.699998855591,705247.5,9008,NNB,C,5
6,test,3,1.0,2-Back,1,z,Mon Jan 27 2025 09:37:41 GMT-0500 (Eastern Standard Time),709456.6999988556,031_y_m_n_a.png,I,z,688,8,1,1707.7999992370605,707748.8999996185,9008,NNB,C,6
7,test,3,0.0,2-Back,1,m,Mon Jan 27 2025 09:37:41 GMT-0500 (Eastern Standard Time),711506.3999996185,028_y_f_n_a.png,I,m,1020,9,1,2039.1000003814697,709467.2999992371,9008,NNB,C,7
7,test,3,0.0,2-Back,0,m,Mon Jan 27 2025 09:37:41 GMT-0500 (Eastern Standard Time),713372.8999996185,092_m_m_n_a.png,I,z,842,10,1,1861.5,711511.3999996185,9008,NNB,C,8
8,test,3,1.0,2-Back,1,z,Mon Jan 27 2025 09:37:41 GMT-0500 (Eastern Standard Time),715490.0999984741,028_y_f_n_a.png,I,z,1087,11,1,2110.8999996185303,713379.1999988556,9008,NNB,C,9
8,test,3,1.0,2-Back,0,z,Mon Jan 27 2025 09:37:41 GMT-0500 (Eastern Standard Time),717473.0,092_m_m_n_a.png,I,m,953,12,1,1974.900001525879,715498.0999984741,9008,NNB,C,10
9,test,3,0.0,2-Back,1,m,Mon Jan 27 2025 09:37:41 GMT-0500 (Eastern Standard Time),719373.5,030_o_f_n_a.png,I,m,875,13,1,1896.1000003814697,717477.3999996185,9008,NNB,C,11
10,test,3,0.0,2-Back,1,m,Mon Jan 27 2025 09:37:41 GMT-0500 (Eastern Standard Time),721173.3999996185,093_m_f_n_a.png,I,m,766,14,1,1786.3999996185303,719387.0,9008,NNB,C,12
10,test,3,0.0,2-Back,0,m,Mon Jan 27 2025 09:37:41 GMT-0500 (Eastern Standard Time),723156.5999984741,146_o_m_n_a.png,I,z,950,15,1,1975.2999992370605,721181.2999992371,9008,NNB,C,13
10,test,3,1.0,2-Back,0,z,Mon Jan 27 2025 09:37:41 GMT-0500 (Eastern Standard Time),724739.6999988556,093_m_f_n_a.png,I,m,550,16,1,1579.0,723160.6999988556,9008,NNB,C,14
11,test,3,0.0,2-Back,1,m,Mon Jan 27 2025 09:37:41 GMT-0500 (Eastern Standard Time),726806.5,130_o_f_n_a.png,I,m,1032,17,1,2061.5,724745.0,9008,NNB,C,15
11,test,3,0.0,2-Back,0,m,Mon Jan 27 2025 09:37:41 GMT-0500 (Eastern Standard Time),728889.8999996185,130_o_f_n_a.png,I,z,1060,18,1,2077.0,726812.8999996185,9008,NNB,C,16
0,test,4,0.0,2-Back,,,Mon Jan 27 2025 09:37:41 GMT-0500 (Eastern Standard Time),728889.8999996185,059_o_m_n_a.png,I,space,2396,1,1,2077.0,726812.8999996185,9008,NNB,C,0
0,test,4,0.0,2-Back,,,Mon Jan 27 2025 09:37:41 GMT-0500 (Eastern Standard Time),728889.8999996185,098_y_f_n_a.png,I,space,2396,2,1,2077.0,726812.8999996185,9008,NNB,C,0
1,test,4,1.0,2-Back,1,z,Mon Jan 27 2025 09:37:41 GMT-0500 (Eastern Standard Time),738490.1999988556,059_o_m_n_a.png,I,z,644,3,1,1659.6000003814697,736830.5999984741,9008,NNB,C,1
2,test,4,1.0,2-Back,1,z,Mon Jan 27 2025 09:37:41 GMT-0500 (Eastern Standard Time),740756.5,098_y_f_n_a.png,I,z,1234,4,1,2257.900001525879,738498.5999984741,9008,NNB,C,2
3,test,4,0.0,2-Back,1,m,Mon Jan 27 2025 09:37:41 GMT-0500 (Eastern Standard Time),742523.0,030_o_f_n_a.png,I,m,743,5,1,1762.400001525879,740760.5999984741,9008,NNB,C,3
3,test,4,0.0,2-Back,0,m,Mon Jan 27 2025 09:37:41 GMT-0500 (Eastern Standard Time),744623.5999984741,030_o_f_n_a.png,I,z,1072,6,1,2096.3999996185303,742527.1999988556,9008,NNB,C,4
4,test,4,0.0,2-Back,1,m,Mon Jan 27 2025 09:37:41 GMT-0500 (Eastern Standard Time),746390.0,006_m_f_n_a.png,I,m,732,7,1,1757.5,744632.5,9008,NNB,C,5
5,test,4,0.0,2-Back,1,m,Mon Jan 27 2025 09:37:41 GMT-0500 (Eastern Standard Time),748690.0999984741,031_y_m_n_a.png,I,m,1270,8,1,2291.2999992370605,746398.7999992371,9008,NNB,C,6
6,test,4,1.0,2-Back,1,z,Mon Jan 27 2025 09:37:41 GMT-0500 (Eastern Standard Time),750623.2999992371,006_m_f_n_a.png,I,z,905,9,1,1924.1000003814697,748699.1999988556,9008,NNB,C,7
7,test,4,0.0,2-Back,1,m,Mon Jan 27 2025 09:37:41 GMT-0500 (Eastern Standard Time),752340.0999984741,092_m_m_n_a.png,I,m,685,10,1,1709.8999996185303,750630.1999988556,9008,NNB,C,8
7,test,4,0.0,2-Back,0,m,Mon Jan 27 2025 09:37:41 GMT-0500 (Eastern Standard Time),753740.0,031_y_m_n_a.png,I,z,376,11,1,1392.2000007629395,752347.7999992371,9008,NNB,C,9
8,test,4,0.0,2-Back,1,m,Mon Jan 27 2025 09:37:41 GMT-0500 (Eastern Standard Time),755439.8999996185,130_o_f_n_a.png,I,m,672,12,1,1691.8999996185303,753748.0,9008,NNB,C,10
9,test,4,0.0,2-Back,1,m,Mon Jan 27 2025 09:37:41 GMT-0500 (Eastern Standard Time),758240.1999988556,057_y_m_n_a.png,I,m,1771,13,1,2792.8999996185303,755447.2999992371,9008,NNB,C,11
10,test,4,1.0,2-Back,1,z,Mon Jan 27 2025 09:37:41 GMT-0500 (Eastern Standard Time),759840.1999988556,130_o_f_n_a.png,I,z,494,14,1,1592.1000003814697,758248.0999984741,9008,NNB,C,12
11,test,4,1.0,2-Back,1,z,Mon Jan 27 2025 09:37:41 GMT-0500 (Eastern Standard Time),761690.1999988556,057_y_m_n_a.png,I,z,827,15,1,1842.5,759847.6999988556,9008,NNB,C,13
12,test,4,0.0,2-Back,1,m,Mon Jan 27 2025 09:37:41 GMT-0500 (Eastern Standard Time),763241.0999984741,082_m_m_n_a.png,I,m,530,16,1,1542.5,761698.5999984741,9008,NNB,C,14
13,test,4,0.0,2-Back,1,m,Mon Jan 27 2025 09:37:41 GMT-0500 (Eastern Standard Time),765090.1999988556,093_m_f_n_a.png,I,m,822,17,1,1841.7999992370605,763248.3999996185,9008,NNB,C,15
14,test,4,1.0,2-Back,1,z,Mon Jan 27 2025 09:37:41 GMT-0500 (Eastern Standard Time),766940.1999988556,082_m_m_n_a.png,I,z,826,18,1,1841.0,765099.1999988556,9008,NNB,C,16
0,test,5,1.0,2-Back,,,Mon Jan 27 2025 09:37:41 GMT-0500 (Eastern Standard Time),766940.1999988556,057_y_m_n_a.png,I,space,2113,1,1,1841.0,765099.1999988556,9008,NNB,C,0
0,test,5,1.0,2-Back,,,Mon Jan 27 2025 09:37:41 GMT-0500 (Eastern Standard Time),766940.1999988556,093_m_f_n_a.png,I,space,2113,2,1,1841.0,765099.1999988556,9008,NNB,C,0
1,test,5,1.0,2-Back,1,z,Mon Jan 27 2025 09:37:41 GMT-0500 (Eastern Standard Time),775606.8999996185,057_y_m_n_a.png,I,z,465,3,1,1491.2000007629395,774115.6999988556,9008,NNB,C,1
2,test,5,1.0,2-Back,1,z,Mon Jan 27 2025 09:37:41 GMT-0500 (Eastern Standard Time),778023.1999988556,093_m_f_n_a.png,I,z,1397,4,1,2408.699998855591,775614.5,9008,NNB,C,2
3,test,5,0.0,2-Back,1,m,Mon Jan 27 2025 09:37:41 GMT-0500 (Eastern Standard Time),779740.2999992371,130_o_f_n_a.png,I,m,693,5,1,1708.5,778031.7999992371,9008,NNB,C,3
4,test,5,0.0,2-Back,1,m,Mon Jan 27 2025 09:37:41 GMT-0500 (Eastern Standard Time),782106.5,057_y_m_n_a.png,I,m,1343,6,1,2358.800001144409,779747.6999988556,9008,NNB,C,4
5,test,5,0.0,2-Back,1,m,Mon Jan 27 2025 09:37:41 GMT-0500 (Eastern Standard Time),783840.1999988556,028_y_f_n_a.png,I,m,706,7,1,1727.6999988555908,782112.5,9008,NNB,C,5
5,test,5,0.0,2-Back,0,m,Mon Jan 27 2025 09:37:41 GMT-0500 (Eastern Standard Time),785590.1999988556,130_o_f_n_a.png,I,z,715,8,1,1742.0,783848.1999988556,9008,NNB,C,6
6,test,5,1.0,2-Back,1,z,Mon Jan 27 2025 09:37:41 GMT-0500 (Eastern Standard Time),787406.8999996185,028_y_f_n_a.png,I,z,791,9,1,1807.3999996185303,785599.5,9008,NNB,C,7
7,test,5,0.0,2-Back,1,m,Mon Jan 27 2025 09:37:41 GMT-0500 (Eastern Standard Time),789090.1999988556,146_o_m_n_a.png,I,m,653,10,1,1674.7999992370605,787415.3999996185,9008,NNB,C,8
8,test,5,0.0,2-Back,1,m,Mon Jan 27 2025 09:37:41 GMT-0500 (Eastern Standard Time),790856.5,006_m_f_n_a.png,I,m,746,11,1,1757.3000011444092,789099.1999988556,9008,NNB,C,9
8,test,5,0.0,2-Back,0,m,Mon Jan 27 2025 09:37:41 GMT-0500 (Eastern Standard Time),792673.5,092_m_m_n_a.png,I,z,787,12,1,1810.6000003814697,790862.8999996185,9008,NNB,C,10
9,test,5,0.0,2-Back,1,m,Mon Jan 27 2025 09:37:41 GMT-0500 (Eastern Standard Time),794423.0,146_o_m_n_a.png,I,m,714,13,1,1741.0,792682.0,9008,NNB,C,11
9,test,5,1.0,2-Back,0,z,Mon Jan 27 2025 09:37:41 GMT-0500 (Eastern Standard Time),795990.2999992371,092_m_m_n_a.png,I,m,532,14,1,1562.6000003814697,794427.6999988556,9008,NNB,C,12
10,test,5,0.0,2-Back,1,m,Mon Jan 27 2025 09:37:41 GMT-0500 (Eastern Standard Time),798039.8999996185,098_y_f_n_a.png,I,m,1030,15,1,2041.5,795998.3999996185,9008,NNB,C,13
11,test,5,0.0,2-Back,1,m,Mon Jan 27 2025 09:37:41 GMT-0500 (Eastern Standard Time),799973.5,059_o_m_n_a.png,I,m,900,16,1,1927.5,798046.0,9008,NNB,C,14
11,test,5,0.0,2-Back,0,m,Mon Jan 27 2025 09:37:41 GMT-0500 (Eastern Standard Time),801686.0999984741,006_m_f_n_a.png,I,z,662,17,1,1704.099998474121,799982.0,9008,NNB,C,15
11,test,5,1.0,2-Back,0,z,Mon Jan 27 2025 09:37:41 GMT-0500 (Eastern Standard Time),803106.7999992371,059_o_m_n_a.png,I,m,385,18,1,1416.5,801690.2999992371,9008,NNB,C,16
