acc_sum,block,block_c,block_cond,con_img,correct,correct_response,datetime,endtime,face,jitter,line,project,response,response_time,row_sel,session_number,start_end,starttime,subject_id,task,task_vers,trial
1,prac,1,A,haborder.png,1,z,Wed Oct 02 2024 17:40:03 GMT-0500 (Central Daylight Time),50546.800000071526,CFD-WF-003-014-A.jpg,1600,solid,O,z,824,10,1,3249.100000023842,47297.700000047684,7021,ATS,A,1
2,prac,1,A,haborder.png,1,z,Wed Oct 02 2024 17:40:03 GMT-0500 (Central Daylight Time),53129.200000047684,CFD-WF-019-015-A.jpg,1000,solid,O,z,751,12,1,5831.5,47297.700000047684,7021,ATS,A,2
3,prac,1,A,haborder.png,1,m,Wed Oct 02 2024 17:40:03 GMT-0500 (Central Daylight Time),56361.300000071526,CFD-WM-006-013-HC.jpg,1700,solid,O,m,709,9,1,9063.600000023842,47297.700000047684,7021,ATS,A,3
4,prac,1,A,haborder.png,1,z,Wed Oct 02 2024 17:40:03 GMT-0500 (Central Daylight Time),59810.300000071526,CFD-BM-005-010-A.jpg,1600,solid,O,z,1025,2,1,12512.600000023842,47297.700000047684,7021,ATS,A,4
5,prac,1,A,haborder.png,1,m,Wed Oct 02 2024 17:40:03 GMT-0500 (Central Daylight Time),62842.40000009537,CFD-WF-017-016-HC.jpg,1500,solid,O,m,732,11,1,15544.700000047684,47297.700000047684,7021,ATS,A,5
6,prac,1,A,haborder.png,1,m,Wed Oct 02 2024 17:40:03 GMT-0500 (Central Daylight Time),65941.40000009537,CFD-BM-029-026-HC.jpg,1500,solid,O,m,781,3,1,18643.700000047684,47297.700000047684,7021,ATS,A,6
7,prac,1,A,haborder.png,1,z,Wed Oct 02 2024 17:40:03 GMT-0500 (Central Daylight Time),68857.20000004768,CFD-BF-039-039-A.jpg,1200,solid,O,z,875,6,1,21559.5,47297.700000047684,7021,ATS,A,7
8,prac,1,A,haborder.png,1,z,Wed Oct 02 2024 17:40:03 GMT-0500 (Central Daylight Time),72722.60000002384,CFD-WM-013-015-A.jpg,1900,solid,O,z,1149,8,1,25424.899999976158,47297.700000047684,7021,ATS,A,8
9,prac,1,A,haborder.png,1,z,Wed Oct 02 2024 17:40:03 GMT-0500 (Central Daylight Time),75371.0,CFD-BF-023-013-A.jpg,1000,solid,O,z,831,4,1,28073.299999952316,47297.700000047684,7021,ATS,A,9
10,prac,1,A,haborder.png,1,m,Wed Oct 02 2024 17:40:03 GMT-0500 (Central Daylight Time),79103.90000009537,CFD-BF-028-020-HC.jpg,2000,solid,O,m,936,5,1,31806.200000047684,47297.700000047684,7021,ATS,A,10
11,prac,1,A,haborder.png,1,m,Wed Oct 02 2024 17:40:03 GMT-0500 (Central Daylight Time),82886.10000002384,CFD-BM-017-052-HC.jpg,1700,solid,O,m,1253,1,1,35588.39999997616,47297.700000047684,7021,ATS,A,11
12,prac,1,A,haborder.png,1,m,Wed Oct 02 2024 17:40:03 GMT-0500 (Central Daylight Time),85868.20000004768,CFD-WM-004-005-HC.jpg,1400,solid,O,m,756,7,1,38570.5,47297.700000047684,7021,ATS,A,12
1,prac,1,B,mfborder.png,1,m,Wed Oct 02 2024 17:40:03 GMT-0500 (Central Daylight Time),121206.70000004768,CFD-WM-006-013-HC.jpg,1600,dash,O,m,1269,10,1,3682.2999999523163,117524.40000009537,7021,ATS,A,1
2,prac,1,B,mfborder.png,1,z,Wed Oct 02 2024 17:40:03 GMT-0500 (Central Daylight Time),124321.80000007153,CFD-BF-010-005-HC.jpg,1500,dash,O,z,782,3,1,6797.399999976158,117524.40000009537,7021,ATS,A,2
3,prac,1,B,mfborder.png,1,m,Wed Oct 02 2024 17:40:03 GMT-0500 (Central Daylight Time),127471.10000002384,CFD-WM-013-015-A.jpg,1700,dash,O,m,644,9,1,9946.699999928474,117524.40000009537,7021,ATS,A,3
4,prac,1,B,mfborder.png,1,z,Wed Oct 02 2024 17:40:03 GMT-0500 (Central Daylight Time),129953.80000007153,CFD-BF-023-013-A.jpg,1000,dash,O,z,666,4,1,12429.399999976158,117524.40000009537,7021,ATS,A,4
5,prac,1,B,mfborder.png,1,z,Wed Oct 02 2024 17:40:03 GMT-0500 (Central Daylight Time),132453.0,CFD-WF-017-016-HC.jpg,1000,dash,O,z,679,12,1,14928.599999904633,117524.40000009537,7021,ATS,A,5
6,prac,1,B,mfborder.png,1,z,Wed Oct 02 2024 17:40:03 GMT-0500 (Central Daylight Time),135918.40000009537,CFD-WF-002-008-HC.jpg,1900,dash,O,z,737,8,1,18394.0,117524.40000009537,7021,ATS,A,6
7,prac,1,B,mfborder.png,1,m,Wed Oct 02 2024 17:40:03 GMT-0500 (Central Daylight Time),138551.0,CFD-WM-019-013-A.jpg,1200,dash,O,m,621,6,1,21026.599999904633,117524.40000009537,7021,ATS,A,7
8,prac,1,B,mfborder.png,1,z,Wed Oct 02 2024 17:40:03 GMT-0500 (Central Daylight Time),141500.0,CFD-BF-028-020-HC.jpg,1400,dash,O,z,730,7,1,23975.599999904633,117524.40000009537,7021,ATS,A,8
9,prac,1,B,mfborder.png,1,m,Wed Oct 02 2024 17:40:03 GMT-0500 (Central Daylight Time),144799.0,CFD-BM-029-026-HC.jpg,1700,dash,O,m,777,1,1,27274.599999904633,117524.40000009537,7021,ATS,A,9
10,prac,1,B,mfborder.png,1,m,Wed Oct 02 2024 17:40:03 GMT-0500 (Central Daylight Time),148397.70000004768,CFD-BM-005-010-A.jpg,2000,dash,O,m,787,5,1,30873.299999952316,117524.40000009537,7021,ATS,A,10
11,prac,1,B,mfborder.png,1,z,Wed Oct 02 2024 17:40:03 GMT-0500 (Central Daylight Time),151896.5,CFD-WF-003-014-A.jpg,1500,dash,O,z,1169,11,1,34372.09999990463,117524.40000009537,7021,ATS,A,11
12,prac,1,B,mfborder.png,1,m,Wed Oct 02 2024 17:40:03 GMT-0500 (Central Daylight Time),155678.60000002384,CFD-BM-010-019-A.jpg,1600,dash,O,m,1361,2,1,38154.199999928474,117524.40000009537,7021,ATS,A,12
1,test,1,A,haborder.png,1,m,Wed Oct 02 2024 17:40:03 GMT-0500 (Central Daylight Time),178970.80000007153,CFD-BF-028-020-HC.jpg,2000,solid,O,m,807,5,1,2848.8000000715256,176122.0,7021,ATS,A,1
2,test,1,A,haborder.png,1,m,Wed Oct 02 2024 17:40:03 GMT-0500 (Central Daylight Time),181290.10000002384,CFD-WM-004-005-HC.jpg,1400,solid,O,m,901,7,1,5168.100000023842,176122.0,7021,ATS,A,2
3,test,1,A,haborder.png,1,m,Wed Oct 02 2024 17:40:03 GMT-0500 (Central Daylight Time),183752.60000002384,CFD-WF-017-016-HC.jpg,1500,solid,O,m,919,11,1,7630.600000023842,176122.0,7021,ATS,A,3
4,test,1,A,haborder.png,1,m,Wed Oct 02 2024 17:40:03 GMT-0500 (Central Daylight Time),186235.20000004768,CFD-BM-029-026-HC.jpg,1500,solid,O,m,941,3,1,10113.200000047684,176122.0,7021,ATS,A,4
5,test,1,A,haborder.png,1,m,Wed Oct 02 2024 17:40:03 GMT-0500 (Central Daylight Time),188517.80000007153,CFD-WF-017-016-HC.jpg,1500,solid,O,m,739,11,1,12395.800000071526,176122.0,7021,ATS,A,5
6,test,1,A,haborder.png,1,z,Wed Oct 02 2024 17:40:03 GMT-0500 (Central Daylight Time),190600.30000007153,CFD-BF-039-039-A.jpg,1200,solid,O,z,836,6,1,14478.300000071526,176122.0,7021,ATS,A,6
7,test,1,A,haborder.png,1,z,Wed Oct 02 2024 17:40:03 GMT-0500 (Central Daylight Time),192333.0,CFD-WF-019-015-A.jpg,1000,solid,O,z,698,12,1,16211.0,176122.0,7021,ATS,A,7
8,test,1,A,haborder.png,1,z,Wed Oct 02 2024 17:40:03 GMT-0500 (Central Daylight Time),194699.10000002384,CFD-WF-003-014-A.jpg,1600,solid,O,z,725,10,1,18577.100000023842,176122.0,7021,ATS,A,8
9,test,1,A,haborder.png,1,z,Wed Oct 02 2024 17:40:03 GMT-0500 (Central Daylight Time),196498.80000007153,CFD-BF-023-013-A.jpg,1000,solid,O,z,759,4,1,20376.800000071526,176122.0,7021,ATS,A,9
10,test,1,A,haborder.png,1,z,Wed Oct 02 2024 17:40:03 GMT-0500 (Central Daylight Time),198964.20000004768,CFD-BM-005-010-A.jpg,1600,solid,O,z,815,2,1,22842.200000047684,176122.0,7021,ATS,A,10
11,test,1,A,haborder.png,1,z,Wed Oct 02 2024 17:40:03 GMT-0500 (Central Daylight Time),201330.40000009537,CFD-WF-003-014-A.jpg,1600,solid,O,z,718,10,1,25208.400000095367,176122.0,7021,ATS,A,11
12,test,1,A,haborder.png,1,z,Wed Oct 02 2024 17:40:03 GMT-0500 (Central Daylight Time),203246.30000007153,CFD-BF-023-013-A.jpg,1000,solid,O,z,872,4,1,27124.300000071526,176122.0,7021,ATS,A,12
13,test,1,A,haborder.png,1,m,Wed Oct 02 2024 17:40:03 GMT-0500 (Central Daylight Time),205395.60000002384,CFD-WM-004-005-HC.jpg,1400,solid,O,m,708,7,1,29273.600000023842,176122.0,7021,ATS,A,13
14,test,1,A,haborder.png,1,m,Wed Oct 02 2024 17:40:03 GMT-0500 (Central Daylight Time),207994.5,CFD-WM-006-013-HC.jpg,1700,solid,O,m,850,9,1,31872.5,176122.0,7021,ATS,A,14
15,test,1,A,haborder.png,1,z,Wed Oct 02 2024 17:40:03 GMT-0500 (Central Daylight Time),210543.70000004768,CFD-BM-005-010-A.jpg,1600,solid,O,z,903,2,1,34421.700000047684,176122.0,7021,ATS,A,15
16,test,1,A,haborder.png,1,m,Wed Oct 02 2024 17:40:03 GMT-0500 (Central Daylight Time),213176.20000004768,CFD-BM-017-052-HC.jpg,1700,solid,O,m,894,1,1,37054.200000047684,176122.0,7021,ATS,A,16
17,test,1,A,haborder.png,1,z,Wed Oct 02 2024 17:40:03 GMT-0500 (Central Daylight Time),215141.70000004768,CFD-BF-039-039-A.jpg,1200,solid,O,z,721,6,1,39019.700000047684,176122.0,7021,ATS,A,17
18,test,1,A,haborder.png,1,z,Wed Oct 02 2024 17:40:03 GMT-0500 (Central Daylight Time),216841.80000007153,CFD-WF-019-015-A.jpg,1000,solid,O,z,676,12,1,40719.800000071526,176122.0,7021,ATS,A,18
19,test,1,A,haborder.png,1,m,Wed Oct 02 2024 17:40:03 GMT-0500 (Central Daylight Time),219307.70000004768,CFD-WM-006-013-HC.jpg,1700,solid,O,m,726,9,1,43185.700000047684,176122.0,7021,ATS,A,19
20,test,1,A,haborder.png,1,z,Wed Oct 02 2024 17:40:03 GMT-0500 (Central Daylight Time),222222.70000004768,CFD-WM-013-015-A.jpg,1900,solid,O,z,978,8,1,46100.700000047684,176122.0,7021,ATS,A,20
21,test,1,A,haborder.png,1,m,Wed Oct 02 2024 17:40:03 GMT-0500 (Central Daylight Time),225022.5,CFD-BF-028-020-HC.jpg,2000,solid,O,m,780,5,1,48900.5,176122.0,7021,ATS,A,21
22,test,1,A,haborder.png,1,m,Wed Oct 02 2024 17:40:03 GMT-0500 (Central Daylight Time),227321.80000007153,CFD-BM-029-026-HC.jpg,1500,solid,O,m,752,3,1,51199.800000071526,176122.0,7021,ATS,A,22
23,test,1,A,haborder.png,1,z,Wed Oct 02 2024 17:40:03 GMT-0500 (Central Daylight Time),230004.20000004768,CFD-WM-013-015-A.jpg,1900,solid,O,z,742,8,1,53882.200000047684,176122.0,7021,ATS,A,23
24,test,1,A,haborder.png,1,m,Wed Oct 02 2024 17:40:03 GMT-0500 (Central Daylight Time),232370.10000002384,CFD-BM-017-052-HC.jpg,1700,solid,O,m,618,1,1,56248.10000002384,176122.0,7021,ATS,A,24
1,test,1,B,mfborder.png,1,z,Wed Oct 02 2024 17:40:03 GMT-0500 (Central Daylight Time),245065.80000007153,CFD-BF-010-005-HC.jpg,1500,dash,O,z,1051,3,1,2598.899999976158,242466.90000009537,7021,ATS,A,1
2,test,1,B,mfborder.png,1,z,Wed Oct 02 2024 17:40:03 GMT-0500 (Central Daylight Time),247748.10000002384,CFD-WF-002-008-HC.jpg,1900,dash,O,z,732,8,1,5281.199999928474,242466.90000009537,7021,ATS,A,2
3,test,1,B,mfborder.png,1,z,Wed Oct 02 2024 17:40:03 GMT-0500 (Central Daylight Time),249831.10000002384,CFD-BF-010-005-HC.jpg,1500,dash,O,z,562,3,1,7364.199999928474,242466.90000009537,7021,ATS,A,3
4,test,1,B,mfborder.png,1,m,Wed Oct 02 2024 17:40:03 GMT-0500 (Central Daylight Time),252196.80000007153,CFD-BM-010-019-A.jpg,1600,dash,O,m,723,2,1,9729.899999976158,242466.90000009537,7021,ATS,A,4
5,test,1,B,mfborder.png,1,z,Wed Oct 02 2024 17:40:03 GMT-0500 (Central Daylight Time),254496.10000002384,CFD-WF-003-014-A.jpg,1500,dash,O,z,754,11,1,12029.199999928474,242466.90000009537,7021,ATS,A,5
6,test,1,B,mfborder.png,1,m,Wed Oct 02 2024 17:40:03 GMT-0500 (Central Daylight Time),256812.80000007153,CFD-WM-006-013-HC.jpg,1600,dash,O,m,681,10,1,14345.899999976158,242466.90000009537,7021,ATS,A,6
7,test,1,B,mfborder.png,1,z,Wed Oct 02 2024 17:40:03 GMT-0500 (Central Daylight Time),258644.80000007153,CFD-WF-017-016-HC.jpg,1000,dash,O,z,798,12,1,16177.899999976158,242466.90000009537,7021,ATS,A,7
8,test,1,B,mfborder.png,1,m,Wed Oct 02 2024 17:40:03 GMT-0500 (Central Daylight Time),260727.40000009537,CFD-WM-019-013-A.jpg,1200,dash,O,m,837,6,1,18260.5,242466.90000009537,7021,ATS,A,8
9,test,1,B,mfborder.png,1,m,Wed Oct 02 2024 17:40:03 GMT-0500 (Central Daylight Time),263626.10000002384,CFD-BM-005-010-A.jpg,2000,dash,O,m,851,5,1,21159.199999928474,242466.90000009537,7021,ATS,A,9
10,test,1,B,mfborder.png,1,m,Wed Oct 02 2024 17:40:03 GMT-0500 (Central Daylight Time),266025.7000000477,CFD-BM-029-026-HC.jpg,1700,dash,O,m,676,1,1,23558.799999952316,242466.90000009537,7021,ATS,A,10
11,test,1,B,mfborder.png,1,m,Wed Oct 02 2024 17:40:03 GMT-0500 (Central Daylight Time),268708.8000000715,CFD-BM-029-026-HC.jpg,1700,dash,O,m,948,1,1,26241.899999976158,242466.90000009537,7021,ATS,A,11
12,test,1,B,mfborder.png,1,z,Wed Oct 02 2024 17:40:03 GMT-0500 (Central Daylight Time),270824.0,CFD-BF-028-020-HC.jpg,1400,dash,O,z,678,7,1,28357.099999904633,242466.90000009537,7021,ATS,A,12
13,test,1,B,mfborder.png,1,z,Wed Oct 02 2024 17:40:03 GMT-0500 (Central Daylight Time),272506.90000009537,CFD-WF-017-016-HC.jpg,1000,dash,O,z,641,12,1,30040.0,242466.90000009537,7021,ATS,A,13
14,test,1,B,mfborder.png,1,z,Wed Oct 02 2024 17:40:03 GMT-0500 (Central Daylight Time),274906.10000002384,CFD-WF-003-014-A.jpg,1500,dash,O,z,851,11,1,32439.199999928474,242466.90000009537,7021,ATS,A,14
15,test,1,B,mfborder.png,1,z,Wed Oct 02 2024 17:40:03 GMT-0500 (Central Daylight Time),277472.0,CFD-BF-028-020-HC.jpg,1400,dash,O,z,1129,7,1,35005.09999990463,242466.90000009537,7021,ATS,A,15
16,test,1,B,mfborder.png,1,z,Wed Oct 02 2024 17:40:03 GMT-0500 (Central Daylight Time),279804.7000000477,CFD-BF-023-013-A.jpg,1000,dash,O,z,1297,4,1,37337.799999952316,242466.90000009537,7021,ATS,A,16
17,test,1,B,mfborder.png,1,z,Wed Oct 02 2024 17:40:03 GMT-0500 (Central Daylight Time),282470.40000009537,CFD-WF-002-008-HC.jpg,1900,dash,O,z,722,8,1,40003.5,242466.90000009537,7021,ATS,A,17
18,test,1,B,mfborder.png,1,m,Wed Oct 02 2024 17:40:03 GMT-0500 (Central Daylight Time),284802.8000000715,CFD-WM-013-015-A.jpg,1700,dash,O,m,584,9,1,42335.89999997616,242466.90000009537,7021,ATS,A,18
19,test,1,B,mfborder.png,1,m,Wed Oct 02 2024 17:40:03 GMT-0500 (Central Daylight Time),287152.10000002384,CFD-WM-006-013-HC.jpg,1600,dash,O,m,703,10,1,44685.199999928474,242466.90000009537,7021,ATS,A,19
20,test,1,B,mfborder.png,1,m,Wed Oct 02 2024 17:40:03 GMT-0500 (Central Daylight Time),289734.60000002384,CFD-BM-010-019-A.jpg,1600,dash,O,m,939,2,1,47267.699999928474,242466.90000009537,7021,ATS,A,20
21,test,1,B,mfborder.png,1,m,Wed Oct 02 2024 17:40:03 GMT-0500 (Central Daylight Time),292184.0,CFD-WM-013-015-A.jpg,1700,dash,O,m,703,9,1,49717.09999990463,242466.90000009537,7021,ATS,A,21
22,test,1,B,mfborder.png,1,z,Wed Oct 02 2024 17:40:03 GMT-0500 (Central Daylight Time),293933.2000000477,CFD-BF-023-013-A.jpg,1000,dash,O,z,715,4,1,51466.299999952316,242466.90000009537,7021,ATS,A,22
23,test,1,B,mfborder.png,1,m,Wed Oct 02 2024 17:40:03 GMT-0500 (Central Daylight Time),296715.2000000477,CFD-BM-005-010-A.jpg,2000,dash,O,m,739,5,1,54248.299999952316,242466.90000009537,7021,ATS,A,23
24,test,1,B,mfborder.png,1,m,Wed Oct 02 2024 17:40:03 GMT-0500 (Central Daylight Time),298581.8000000715,CFD-WM-019-013-A.jpg,1200,dash,O,m,638,6,1,56114.89999997616,242466.90000009537,7021,ATS,A,24
0,prac,1,C,mfborder.png,0,z,Wed Oct 02 2024 17:40:03 GMT-0500 (Central Daylight Time),341267.7000000477,CFD-BF-028-020-HC.jpg,1000,dash,O,None,1515,3,1,3315.7999999523163,337951.90000009537,7021,ATS,A,1
1,prac,1,C,haborder.png,1,m,Wed Oct 02 2024 17:40:03 GMT-0500 (Central Daylight Time),344166.90000009537,CFD-WM-004-005-HC.jpg,1000,dash,O,m,1078,11,1,6215.0,337951.90000009537,7021,ATS,A,2
2,prac,1,C,haborder.png,1,z,Wed Oct 02 2024 17:40:03 GMT-0500 (Central Daylight Time),347682.40000009537,CFD-WF-003-014-A.jpg,1600,dash,O,z,1092,9,1,9730.5,337951.90000009537,7021,ATS,A,3
3,prac,1,C,haborder.png,1,m,Wed Oct 02 2024 17:40:03 GMT-0500 (Central Daylight Time),350898.0,CFD-BM-029-026-HC.jpg,1500,solid,O,m,883,10,1,12946.099999904633,337951.90000009537,7021,ATS,A,4
4,prac,1,C,haborder.png,1,z,Wed Oct 02 2024 17:40:03 GMT-0500 (Central Daylight Time),354446.90000009537,CFD-BF-023-013-A.jpg,1900,dash,O,z,837,7,1,16495.0,337951.90000009537,7021,ATS,A,5
4,prac,1,C,mfborder.png,0,m,Wed Oct 02 2024 17:40:03 GMT-0500 (Central Daylight Time),357312.3000000715,CFD-BM-005-010-A.jpg,1200,dash,O,z,834,5,1,19360.399999976158,337951.90000009537,7021,ATS,A,6
4,prac,1,C,mfborder.png,0,m,Wed Oct 02 2024 17:40:03 GMT-0500 (Central Daylight Time),361327.7000000477,CFD-WM-013-015-A.jpg,1700,solid,O,None,1515,6,1,23375.799999952316,337951.90000009537,7021,ATS,A,7
5,prac,1,C,mfborder.png,1,z,Wed Oct 02 2024 17:40:03 GMT-0500 (Central Daylight Time),364776.7000000477,CFD-WF-019-015-A.jpg,1500,solid,O,z,1119,2,1,26824.799999952316,337951.90000009537,7021,ATS,A,8
5,prac,1,C,mfborder.png,0,m,Wed Oct 02 2024 17:40:03 GMT-0500 (Central Daylight Time),369108.5,CFD-BM-017-052-HC.jpg,2000,solid,O,None,1515,4,1,31156.599999904633,337951.90000009537,7021,ATS,A,9
6,prac,1,C,mfborder.png,1,z,Wed Oct 02 2024 17:40:03 GMT-0500 (Central Daylight Time),372424.10000002384,CFD-WF-017-016-HC.jpg,1600,dash,O,z,894,1,1,34472.199999928474,337951.90000009537,7021,ATS,A,10
6,prac,1,C,haborder.png,0,m,Wed Oct 02 2024 17:40:03 GMT-0500 (Central Daylight Time),376139.3000000715,CFD-WM-004-005-HC.jpg,1400,solid,O,None,1515,12,1,38187.39999997616,337951.90000009537,7021,ATS,A,11
7,prac,1,C,haborder.png,1,z,Wed Oct 02 2024 17:40:03 GMT-0500 (Central Daylight Time),379621.7000000477,CFD-BF-039-039-A.jpg,1700,solid,O,z,979,8,1,41669.799999952316,337951.90000009537,7021,ATS,A,12
0,prac,2,C,haborder.png,0,m,Wed Oct 02 2024 17:40:03 GMT-0500 (Central Daylight Time),388718.60000002384,CFD-BM-029-026-HC.jpg,1500,solid,O,None,1515,10,1,50766.699999928474,337951.90000009537,7021,ATS,A,1
0,prac,2,C,mfborder.png,0,m,Wed Oct 02 2024 17:40:03 GMT-0500 (Central Daylight Time),392250.8000000715,CFD-BM-005-010-A.jpg,1200,dash,O,None,1515,5,1,54298.89999997616,337951.90000009537,7021,ATS,A,2
1,prac,2,C,mfborder.png,1,m,Wed Oct 02 2024 17:40:03 GMT-0500 (Central Daylight Time),396149.60000002384,CFD-BM-017-052-HC.jpg,2000,solid,O,m,1071,4,1,58197.699999928474,337951.90000009537,7021,ATS,A,3
2,prac,2,C,haborder.png,1,z,Wed Oct 02 2024 17:40:03 GMT-0500 (Central Daylight Time),399348.8000000715,CFD-WF-003-014-A.jpg,1600,dash,O,z,797,9,1,61396.89999997616,337951.90000009537,7021,ATS,A,4
2,prac,2,C,mfborder.png,0,z,Wed Oct 02 2024 17:40:03 GMT-0500 (Central Daylight Time),403180.5,CFD-WF-019-015-A.jpg,1500,solid,O,None,1515,2,1,65228.59999990463,337951.90000009537,7021,ATS,A,5
2,prac,2,C,haborder.png,0,z,Wed Oct 02 2024 17:40:03 GMT-0500 (Central Daylight Time),407412.5,CFD-BF-023-013-A.jpg,1900,dash,O,None,1515,7,1,69460.59999990463,337951.90000009537,7021,ATS,A,6
3,prac,2,C,haborder.png,1,m,Wed Oct 02 2024 17:40:03 GMT-0500 (Central Daylight Time),410494.60000002384,CFD-WM-004-005-HC.jpg,1400,solid,O,m,853,12,1,72542.69999992847,337951.90000009537,7021,ATS,A,7
4,prac,2,C,mfborder.png,1,z,Wed Oct 02 2024 17:40:03 GMT-0500 (Central Daylight Time),414060.5,CFD-WF-017-016-HC.jpg,1600,dash,O,z,1156,1,1,76108.59999990463,337951.90000009537,7021,ATS,A,8
4,prac,2,C,mfborder.png,0,m,Wed Oct 02 2024 17:40:03 GMT-0500 (Central Daylight Time),418075.7000000477,CFD-WM-013-015-A.jpg,1700,solid,O,None,1515,6,1,80123.79999995232,337951.90000009537,7021,ATS,A,9
5,prac,2,C,haborder.png,1,m,Wed Oct 02 2024 17:40:03 GMT-0500 (Central Daylight Time),420508.3000000715,CFD-WM-004-005-HC.jpg,1000,dash,O,m,606,11,1,82556.39999997616,337951.90000009537,7021,ATS,A,10
6,prac,2,C,mfborder.png,1,z,Wed Oct 02 2024 17:40:03 GMT-0500 (Central Daylight Time),423290.90000009537,CFD-BF-028-020-HC.jpg,1000,dash,O,z,949,3,1,85339.0,337951.90000009537,7021,ATS,A,11
7,prac,2,C,haborder.png,1,z,Wed Oct 02 2024 17:40:03 GMT-0500 (Central Daylight Time),426789.60000002384,CFD-BF-039-039-A.jpg,1700,solid,O,z,971,8,1,88837.69999992847,337951.90000009537,7021,ATS,A,12
1,test,1,C,haborder.png,1,m,Wed Oct 02 2024 17:40:03 GMT-0500 (Central Daylight Time),448082.60000002384,CFD-WF-002-008-HC.jpg,1500,solid,O,m,976,11,1,2515.7999999523163,445566.8000000715,7021,ATS,A,1
2,test,1,C,haborder.png,1,m,Wed Oct 02 2024 17:40:03 GMT-0500 (Central Daylight Time),450597.90000009537,CFD-BF-028-020-HC.jpg,1600,solid,O,m,879,10,1,5031.100000023842,445566.8000000715,7021,ATS,A,2
3,test,1,C,haborder.png,1,z,Wed Oct 02 2024 17:40:03 GMT-0500 (Central Daylight Time),453297.5,CFD-BM-010-019-A.jpg,1700,solid,O,z,976,9,1,7730.699999928474,445566.8000000715,7021,ATS,A,3
4,test,1,C,mfborder.png,1,z,Wed Oct 02 2024 17:40:03 GMT-0500 (Central Daylight Time),456012.7000000477,CFD-BF-010-005-HC.jpg,1700,dash,O,z,973,1,1,10445.899999976158,445566.8000000715,7021,ATS,A,4
5,test,1,C,mfborder.png,1,z,Wed Oct 02 2024 17:40:03 GMT-0500 (Central Daylight Time),458296.0,CFD-WF-003-014-A.jpg,1500,dash,O,z,763,3,1,12729.199999928474,445566.8000000715,7021,ATS,A,5
6,test,1,C,mfborder.png,1,m,Wed Oct 02 2024 17:40:03 GMT-0500 (Central Daylight Time),460411.2000000477,CFD-BM-029-026-HC.jpg,1200,dash,O,m,873,6,1,14844.399999976158,445566.8000000715,7021,ATS,A,6
7,test,1,C,mfborder.png,1,m,Wed Oct 02 2024 17:40:03 GMT-0500 (Central Daylight Time),463477.10000002384,CFD-WM-019-013-A.jpg,2000,dash,O,m,1048,5,1,17910.299999952316,445566.8000000715,7021,ATS,A,7
7,test,1,C,mfborder.png,0,z,Wed Oct 02 2024 17:40:03 GMT-0500 (Central Daylight Time),466509.90000009537,CFD-WF-003-014-A.jpg,1500,dash,O,None,1517,3,1,20943.100000023842,445566.8000000715,7021,ATS,A,8
8,test,1,C,haborder.png,1,z,Wed Oct 02 2024 17:40:03 GMT-0500 (Central Daylight Time),469842.10000002384,CFD-BM-005-010-A.jpg,1900,solid,O,z,1392,8,1,24275.299999952316,445566.8000000715,7021,ATS,A,9
8,test,1,C,mfborder.png,0,z,Wed Oct 02 2024 17:40:03 GMT-0500 (Central Daylight Time),473041.10000002384,CFD-BF-010-005-HC.jpg,1700,dash,O,m,1452,1,1,27474.299999952316,445566.8000000715,7021,ATS,A,10
8,test,1,C,haborder.png,0,m,Wed Oct 02 2024 17:40:03 GMT-0500 (Central Daylight Time),476090.3000000715,CFD-WF-002-008-HC.jpg,1500,solid,O,None,1515,11,1,30523.5,445566.8000000715,7021,ATS,A,11
8,test,1,C,mfborder.png,0,m,Wed Oct 02 2024 17:40:03 GMT-0500 (Central Daylight Time),478622.5,CFD-WM-006-013-HC.jpg,1000,dash,O,z,1488,4,1,33055.699999928474,445566.8000000715,7021,ATS,A,12
9,test,1,C,mfborder.png,1,z,Wed Oct 02 2024 17:40:03 GMT-0500 (Central Daylight Time),481637.60000002384,CFD-BF-023-013-A.jpg,1600,dash,O,z,1379,2,1,36070.799999952316,445566.8000000715,7021,ATS,A,13
10,test,1,C,haborder.png,1,z,Wed Oct 02 2024 17:40:03 GMT-0500 (Central Daylight Time),484553.5,CFD-BM-005-010-A.jpg,1900,solid,O,z,993,8,1,38986.699999928474,445566.8000000715,7021,ATS,A,14
11,test,1,C,haborder.png,1,m,Wed Oct 02 2024 17:40:03 GMT-0500 (Central Daylight Time),486436.5,CFD-WF-017-016-HC.jpg,1000,solid,O,m,849,12,1,40869.699999928474,445566.8000000715,7021,ATS,A,15
12,test,1,C,haborder.png,1,z,Wed Oct 02 2024 17:40:03 GMT-0500 (Central Daylight Time),488902.5,CFD-WM-013-015-A.jpg,1400,solid,O,z,1023,7,1,43335.699999928474,445566.8000000715,7021,ATS,A,16
13,test,1,C,mfborder.png,1,m,Wed Oct 02 2024 17:40:03 GMT-0500 (Central Daylight Time),492384.60000002384,CFD-WM-019-013-A.jpg,2000,dash,O,m,1436,5,1,46817.799999952316,445566.8000000715,7021,ATS,A,17
14,test,1,C,haborder.png,1,m,Wed Oct 02 2024 17:40:03 GMT-0500 (Central Daylight Time),494766.60000002384,CFD-WF-017-016-HC.jpg,1000,solid,O,m,1336,12,1,49199.799999952316,445566.8000000715,7021,ATS,A,18
15,test,1,C,haborder.png,1,z,Wed Oct 02 2024 17:40:03 GMT-0500 (Central Daylight Time),497499.8000000715,CFD-BM-010-019-A.jpg,1700,solid,O,z,1008,9,1,51933.0,445566.8000000715,7021,ATS,A,19
16,test,1,C,mfborder.png,1,m,Wed Oct 02 2024 17:40:03 GMT-0500 (Central Daylight Time),500014.90000009537,CFD-BM-029-026-HC.jpg,1200,dash,O,m,1279,6,1,54448.10000002384,445566.8000000715,7021,ATS,A,20
17,test,1,C,mfborder.png,1,m,Wed Oct 02 2024 17:40:03 GMT-0500 (Central Daylight Time),502098.0,CFD-WM-006-013-HC.jpg,1000,dash,O,m,1060,4,1,56531.199999928474,445566.8000000715,7021,ATS,A,21
18,test,1,C,mfborder.png,1,z,Wed Oct 02 2024 17:40:03 GMT-0500 (Central Daylight Time),505229.90000009537,CFD-BF-023-013-A.jpg,1600,dash,O,z,1487,2,1,59663.10000002384,445566.8000000715,7021,ATS,A,22
18,test,1,C,haborder.png,0,z,Wed Oct 02 2024 17:40:03 GMT-0500 (Central Daylight Time),508163.0,CFD-WM-013-015-A.jpg,1400,solid,O,None,1515,7,1,62596.199999928474,445566.8000000715,7021,ATS,A,23
19,test,1,C,haborder.png,1,m,Wed Oct 02 2024 17:40:03 GMT-0500 (Central Daylight Time),510778.5,CFD-BF-028-020-HC.jpg,1600,solid,O,m,978,10,1,65211.699999928474,445566.8000000715,7021,ATS,A,24
0,test,2,C,mfborder.png,0,m,Wed Oct 02 2024 17:40:03 GMT-0500 (Central Daylight Time),515793.90000009537,CFD-BM-017-052-HC.jpg,1000,dash,O,None,1515,4,1,2549.3000000715256,513244.60000002384,7021,ATS,A,1
1,test,2,C,mfborder.png,1,m,Wed Oct 02 2024 17:40:03 GMT-0500 (Central Daylight Time),517826.5,CFD-BM-017-052-HC.jpg,1000,dash,O,m,984,4,1,4581.899999976158,513244.60000002384,7021,ATS,A,2
2,test,2,C,haborder.png,1,m,Wed Oct 02 2024 17:40:03 GMT-0500 (Central Daylight Time),520325.40000009537,CFD-WM-004-005-HC.jpg,1000,solid,O,m,1464,12,1,7080.800000071526,513244.60000002384,7021,ATS,A,3
3,test,2,C,haborder.png,1,z,Wed Oct 02 2024 17:40:03 GMT-0500 (Central Daylight Time),522957.8000000715,CFD-WF-003-014-A.jpg,1700,solid,O,z,890,9,1,9713.200000047684,513244.60000002384,7021,ATS,A,4
4,test,2,C,haborder.png,1,m,Wed Oct 02 2024 17:40:03 GMT-0500 (Central Daylight Time),525673.3000000715,CFD-BM-029-026-HC.jpg,1600,solid,O,m,1075,10,1,12428.700000047684,513244.60000002384,7021,ATS,A,5
5,test,2,C,haborder.png,1,m,Wed Oct 02 2024 17:40:03 GMT-0500 (Central Daylight Time),528155.7000000477,CFD-BM-029-026-HC.jpg,1600,solid,O,m,864,10,1,14911.100000023842,513244.60000002384,7021,ATS,A,6
6,test,2,C,haborder.png,1,z,Wed Oct 02 2024 17:40:03 GMT-0500 (Central Daylight Time),530788.9000000954,CFD-WF-003-014-A.jpg,1700,solid,O,z,899,9,1,17544.300000071526,513244.60000002384,7021,ATS,A,7
7,test,2,C,haborder.png,1,z,Wed Oct 02 2024 17:40:03 GMT-0500 (Central Daylight Time),534070.9000000954,CFD-BF-039-039-A.jpg,1900,solid,O,z,1338,8,1,20826.300000071526,513244.60000002384,7021,ATS,A,8
8,test,2,C,mfborder.png,1,z,Wed Oct 02 2024 17:40:03 GMT-0500 (Central Daylight Time),536953.4000000954,CFD-WF-019-015-A.jpg,1600,dash,O,z,1235,2,1,23708.800000071526,513244.60000002384,7021,ATS,A,9
8,test,2,C,mfborder.png,0,z,Wed Oct 02 2024 17:40:03 GMT-0500 (Central Daylight Time),540202.6000000238,CFD-WF-017-016-HC.jpg,1700,dash,O,None,1515,1,1,26958.0,513244.60000002384,7021,ATS,A,10
8,test,2,C,mfborder.png,0,m,Wed Oct 02 2024 17:40:03 GMT-0500 (Central Daylight Time),543751.4000000954,CFD-BM-005-010-A.jpg,2000,dash,O,None,1515,5,1,30506.800000071526,513244.60000002384,7021,ATS,A,11
9,test,2,C,mfborder.png,1,m,Wed Oct 02 2024 17:40:03 GMT-0500 (Central Daylight Time),545700.6000000238,CFD-WM-013-015-A.jpg,1200,dash,O,m,700,6,1,32456.0,513244.60000002384,7021,ATS,A,12
10,test,2,C,haborder.png,1,z,Wed Oct 02 2024 17:40:03 GMT-0500 (Central Daylight Time),549016.0,CFD-BF-039-039-A.jpg,1900,solid,O,z,1378,8,1,35771.39999997616,513244.60000002384,7021,ATS,A,13
10,test,2,C,mfborder.png,0,m,Wed Oct 02 2024 17:40:03 GMT-0500 (Central Daylight Time),552565.0,CFD-BM-005-010-A.jpg,2000,dash,O,None,1516,5,1,39320.39999997616,513244.60000002384,7021,ATS,A,14
10,test,2,C,mfborder.png,0,z,Wed Oct 02 2024 17:40:03 GMT-0500 (Central Daylight Time),555813.9000000954,CFD-WF-017-016-HC.jpg,1700,dash,O,None,1515,1,1,42569.300000071526,513244.60000002384,7021,ATS,A,15
10,test,2,C,haborder.png,0,m,Wed Oct 02 2024 17:40:03 GMT-0500 (Central Daylight Time),558363.0,CFD-WM-004-005-HC.jpg,1000,solid,O,None,1515,12,1,45118.39999997616,513244.60000002384,7021,ATS,A,16
11,test,2,C,mfborder.png,1,z,Wed Oct 02 2024 17:40:03 GMT-0500 (Central Daylight Time),561028.7000000477,CFD-BF-028-020-HC.jpg,1500,dash,O,z,1124,3,1,47784.10000002384,513244.60000002384,7021,ATS,A,17
11,test,2,C,haborder.png,0,z,Wed Oct 02 2024 17:40:03 GMT-0500 (Central Daylight Time),563544.6000000238,CFD-BF-023-013-A.jpg,1400,solid,O,m,1077,7,1,50300.0,513244.60000002384,7021,ATS,A,18
12,test,2,C,haborder.png,1,m,Wed Oct 02 2024 17:40:03 GMT-0500 (Central Daylight Time),566327.1000000238,CFD-WM-004-005-HC.jpg,1500,solid,O,m,1246,11,1,53082.5,513244.60000002384,7021,ATS,A,19
13,test,2,C,haborder.png,1,m,Wed Oct 02 2024 17:40:03 GMT-0500 (Central Daylight Time),568742.9000000954,CFD-WM-004-005-HC.jpg,1500,solid,O,m,871,11,1,55498.300000071526,513244.60000002384,7021,ATS,A,20
14,test,2,C,mfborder.png,1,z,Wed Oct 02 2024 17:40:03 GMT-0500 (Central Daylight Time),571358.8000000715,CFD-BF-028-020-HC.jpg,1500,dash,O,z,1072,3,1,58114.200000047684,513244.60000002384,7021,ATS,A,21
14,test,2,C,haborder.png,0,z,Wed Oct 02 2024 17:40:03 GMT-0500 (Central Daylight Time),574308.0,CFD-BF-023-013-A.jpg,1400,solid,O,None,1515,7,1,61063.39999997616,513244.60000002384,7021,ATS,A,22
15,test,2,C,mfborder.png,1,m,Wed Oct 02 2024 17:40:03 GMT-0500 (Central Daylight Time),576856.8000000715,CFD-WM-013-015-A.jpg,1200,dash,O,m,1311,6,1,63612.200000047684,513244.60000002384,7021,ATS,A,23
15,test,2,C,mfborder.png,0,z,Wed Oct 02 2024 17:40:03 GMT-0500 (Central Daylight Time),579989.0,CFD-WF-019-015-A.jpg,1600,dash,O,m,1490,2,1,66744.39999997616,513244.60000002384,7021,ATS,A,24
0,test,3,C,haborder.png,0,m,Wed Oct 02 2024 17:40:03 GMT-0500 (Central Daylight Time),584171.3000000715,CFD-WF-017-016-HC.jpg,1000,solid,O,None,1515,12,1,2549.100000023842,581622.2000000477,7021,ATS,A,1
1,test,3,C,haborder.png,1,m,Wed Oct 02 2024 17:40:03 GMT-0500 (Central Daylight Time),585970.9000000954,CFD-WF-017-016-HC.jpg,1000,solid,O,m,750,12,1,4348.700000047684,581622.2000000477,7021,ATS,A,2
1,test,3,C,haborder.png,0,z,Wed Oct 02 2024 17:40:03 GMT-0500 (Central Daylight Time),588919.2000000477,CFD-WM-013-015-A.jpg,1400,solid,O,None,1516,7,1,7297.0,581622.2000000477,7021,ATS,A,3
2,test,3,C,haborder.png,1,z,Wed Oct 02 2024 17:40:03 GMT-0500 (Central Daylight Time),591785.4000000954,CFD-BM-005-010-A.jpg,1900,solid,O,z,936,8,1,10163.200000047684,581622.2000000477,7021,ATS,A,4
3,test,3,C,mfborder.png,1,m,Wed Oct 02 2024 17:40:03 GMT-0500 (Central Daylight Time),594134.6000000238,CFD-BM-029-026-HC.jpg,1200,dash,O,m,1113,6,1,12512.399999976158,581622.2000000477,7021,ATS,A,5
4,test,3,C,mfborder.png,1,m,Wed Oct 02 2024 17:40:03 GMT-0500 (Central Daylight Time),595967.3000000715,CFD-WM-006-013-HC.jpg,1000,dash,O,m,795,4,1,14345.100000023842,581622.2000000477,7021,ATS,A,6
5,test,3,C,haborder.png,1,z,Wed Oct 02 2024 17:40:03 GMT-0500 (Central Daylight Time),598916.9000000954,CFD-BM-010-019-A.jpg,1700,solid,O,z,1215,9,1,17294.700000047684,581622.2000000477,7021,ATS,A,7
5,test,3,C,mfborder.png,0,z,Wed Oct 02 2024 17:40:03 GMT-0500 (Central Daylight Time),601765.5,CFD-BF-023-013-A.jpg,1600,dash,O,m,1207,2,1,20143.299999952316,581622.2000000477,7021,ATS,A,8
5,test,3,C,haborder.png,0,z,Wed Oct 02 2024 17:40:03 GMT-0500 (Central Daylight Time),605080.6000000238,CFD-BM-005-010-A.jpg,1900,solid,O,m,1369,8,1,23458.399999976158,581622.2000000477,7021,ATS,A,9
5,test,3,C,mfborder.png,0,m,Wed Oct 02 2024 17:40:03 GMT-0500 (Central Daylight Time),607812.9000000954,CFD-BM-029-026-HC.jpg,1200,dash,O,None,1514,6,1,26190.700000047684,581622.2000000477,7021,ATS,A,10
5,test,3,C,haborder.png,0,m,Wed Oct 02 2024 17:40:03 GMT-0500 (Central Daylight Time),610512.6000000238,CFD-WF-002-008-HC.jpg,1500,solid,O,z,1179,11,1,28890.399999976158,581622.2000000477,7021,ATS,A,11
5,test,3,C,haborder.png,0,z,Wed Oct 02 2024 17:40:03 GMT-0500 (Central Daylight Time),613761.6000000238,CFD-BM-010-019-A.jpg,1700,solid,O,None,1515,9,1,32139.399999976158,581622.2000000477,7021,ATS,A,12
5,test,3,C,mfborder.png,0,z,Wed Oct 02 2024 17:40:03 GMT-0500 (Central Daylight Time),616910.3000000715,CFD-BF-023-013-A.jpg,1600,dash,O,None,1514,2,1,35288.10000002384,581622.2000000477,7021,ATS,A,13
6,test,3,C,mfborder.png,1,z,Wed Oct 02 2024 17:40:03 GMT-0500 (Central Daylight Time),619326.4000000954,CFD-WF-003-014-A.jpg,1500,dash,O,z,873,3,1,37704.200000047684,581622.2000000477,7021,ATS,A,14
7,test,3,C,haborder.png,1,m,Wed Oct 02 2024 17:40:03 GMT-0500 (Central Daylight Time),622041.8000000715,CFD-BF-028-020-HC.jpg,1600,solid,O,m,1069,10,1,40419.60000002384,581622.2000000477,7021,ATS,A,15
8,test,3,C,haborder.png,1,m,Wed Oct 02 2024 17:40:03 GMT-0500 (Central Daylight Time),624724.1000000238,CFD-WF-002-008-HC.jpg,1500,solid,O,m,1166,11,1,43101.89999997616,581622.2000000477,7021,ATS,A,16
9,test,3,C,mfborder.png,1,z,Wed Oct 02 2024 17:40:03 GMT-0500 (Central Daylight Time),627806.8000000715,CFD-BF-010-005-HC.jpg,1700,dash,O,z,1364,1,1,46184.60000002384,581622.2000000477,7021,ATS,A,17
10,test,3,C,haborder.png,1,m,Wed Oct 02 2024 17:40:03 GMT-0500 (Central Daylight Time),630589.2000000477,CFD-BF-028-020-HC.jpg,1600,solid,O,m,1139,10,1,48967.0,581622.2000000477,7021,ATS,A,18
10,test,3,C,mfborder.png,0,m,Wed Oct 02 2024 17:40:03 GMT-0500 (Central Daylight Time),632788.0,CFD-WM-006-013-HC.jpg,1000,dash,O,z,1165,4,1,51165.799999952316,581622.2000000477,7021,ATS,A,19
11,test,3,C,mfborder.png,1,z,Wed Oct 02 2024 17:40:03 GMT-0500 (Central Daylight Time),635737.7000000477,CFD-WF-003-014-A.jpg,1500,dash,O,z,1426,3,1,54115.5,581622.2000000477,7021,ATS,A,20
12,test,3,C,mfborder.png,1,m,Wed Oct 02 2024 17:40:03 GMT-0500 (Central Daylight Time),639253.3000000715,CFD-WM-019-013-A.jpg,2000,dash,O,m,1465,5,1,57631.10000002384,581622.2000000477,7021,ATS,A,21
13,test,3,C,mfborder.png,1,m,Wed Oct 02 2024 17:40:03 GMT-0500 (Central Daylight Time),642335.5,CFD-WM-019-013-A.jpg,2000,dash,O,m,1038,5,1,60713.299999952316,581622.2000000477,7021,ATS,A,22
14,test,3,C,mfborder.png,1,z,Wed Oct 02 2024 17:40:03 GMT-0500 (Central Daylight Time),645151.2000000477,CFD-BF-010-005-HC.jpg,1700,dash,O,z,1080,1,1,63529.0,581622.2000000477,7021,ATS,A,23
14,test,3,C,haborder.png,0,z,Wed Oct 02 2024 17:40:03 GMT-0500 (Central Daylight Time),648099.7000000477,CFD-WM-013-015-A.jpg,1400,solid,O,None,1515,7,1,66477.5,581622.2000000477,7021,ATS,A,24
0,test,4,C,mfborder.png,0,z,Wed Oct 02 2024 17:40:03 GMT-0500 (Central Daylight Time),653098.7000000477,CFD-WF-017-016-HC.jpg,1700,dash,O,None,1514,1,1,3249.0,649849.7000000477,7021,ATS,A,1
0,test,4,C,haborder.png,0,z,Wed Oct 02 2024 17:40:03 GMT-0500 (Central Daylight Time),655731.3000000715,CFD-WF-003-014-A.jpg,1700,solid,O,m,891,9,1,5881.600000023842,649849.7000000477,7021,ATS,A,2
1,test,4,C,mfborder.png,1,m,Wed Oct 02 2024 17:40:03 GMT-0500 (Central Daylight Time),658230.2000000477,CFD-WM-013-015-A.jpg,1200,dash,O,m,1263,6,1,8380.5,649849.7000000477,7021,ATS,A,3
2,test,4,C,haborder.png,1,z,Wed Oct 02 2024 17:40:03 GMT-0500 (Central Daylight Time),660862.0,CFD-WF-003-014-A.jpg,1700,solid,O,z,887,9,1,11012.299999952316,649849.7000000477,7021,ATS,A,4
3,test,4,C,haborder.png,1,z,Wed Oct 02 2024 17:40:03 GMT-0500 (Central Daylight Time),663311.9000000954,CFD-BF-023-013-A.jpg,1400,solid,O,z,1029,7,1,13462.200000047684,649849.7000000477,7021,ATS,A,5
4,test,4,C,haborder.png,1,z,Wed Oct 02 2024 17:40:03 GMT-0500 (Central Daylight Time),665478.0,CFD-BF-023-013-A.jpg,1400,solid,O,z,722,7,1,15628.299999952316,649849.7000000477,7021,ATS,A,6
5,test,4,C,mfborder.png,1,m,Wed Oct 02 2024 17:40:03 GMT-0500 (Central Daylight Time),668710.2000000477,CFD-BM-005-010-A.jpg,2000,dash,O,m,1189,5,1,18860.5,649849.7000000477,7021,ATS,A,7
6,test,4,C,haborder.png,1,m,Wed Oct 02 2024 17:40:03 GMT-0500 (Central Daylight Time),671425.4000000954,CFD-WM-004-005-HC.jpg,1500,solid,O,m,1176,11,1,21575.700000047684,649849.7000000477,7021,ATS,A,8
7,test,4,C,haborder.png,1,m,Wed Oct 02 2024 17:40:03 GMT-0500 (Central Daylight Time),673091.9000000954,CFD-WM-004-005-HC.jpg,1000,solid,O,m,642,12,1,23242.200000047684,649849.7000000477,7021,ATS,A,9
8,test,4,C,mfborder.png,1,z,Wed Oct 02 2024 17:40:03 GMT-0500 (Central Daylight Time),676007.8000000715,CFD-WF-017-016-HC.jpg,1700,dash,O,z,1171,1,1,26158.100000023842,649849.7000000477,7021,ATS,A,10
9,test,4,C,mfborder.png,1,m,Wed Oct 02 2024 17:40:03 GMT-0500 (Central Daylight Time),677957.2000000477,CFD-BM-017-052-HC.jpg,1000,dash,O,m,915,4,1,28107.5,649849.7000000477,7021,ATS,A,11
10,test,4,C,haborder.png,1,m,Wed Oct 02 2024 17:40:03 GMT-0500 (Central Daylight Time),680855.5,CFD-BM-029-026-HC.jpg,1600,solid,O,m,1233,10,1,31005.799999952316,649849.7000000477,7021,ATS,A,12
11,test,4,C,mfborder.png,1,z,Wed Oct 02 2024 17:40:03 GMT-0500 (Central Daylight Time),683705.4000000954,CFD-BF-028-020-HC.jpg,1500,dash,O,z,1320,3,1,33855.700000047684,649849.7000000477,7021,ATS,A,13
12,test,4,C,haborder.png,1,m,Wed Oct 02 2024 17:40:03 GMT-0500 (Central Daylight Time),686221.2000000477,CFD-WM-004-005-HC.jpg,1000,solid,O,m,1482,12,1,36371.5,649849.7000000477,7021,ATS,A,14
13,test,4,C,haborder.png,1,m,Wed Oct 02 2024 17:40:03 GMT-0500 (Central Daylight Time),688653.3000000715,CFD-WM-004-005-HC.jpg,1500,solid,O,m,889,11,1,38803.60000002384,649849.7000000477,7021,ATS,A,15
14,test,4,C,mfborder.png,1,z,Wed Oct 02 2024 17:40:03 GMT-0500 (Central Daylight Time),691552.1000000238,CFD-BF-028-020-HC.jpg,1500,dash,O,z,1370,3,1,41702.39999997616,649849.7000000477,7021,ATS,A,16
15,test,4,C,mfborder.png,1,m,Wed Oct 02 2024 17:40:03 GMT-0500 (Central Daylight Time),694768.5,CFD-BM-005-010-A.jpg,2000,dash,O,m,1187,5,1,44918.799999952316,649849.7000000477,7021,ATS,A,17
16,test,4,C,mfborder.png,1,z,Wed Oct 02 2024 17:40:03 GMT-0500 (Central Daylight Time),697450.6000000238,CFD-WF-019-015-A.jpg,1600,dash,O,z,1043,2,1,47600.89999997616,649849.7000000477,7021,ATS,A,18
17,test,4,C,haborder.png,1,m,Wed Oct 02 2024 17:40:03 GMT-0500 (Central Daylight Time),700133.1000000238,CFD-BM-029-026-HC.jpg,1600,solid,O,m,1042,10,1,50283.39999997616,649849.7000000477,7021,ATS,A,19
18,test,4,C,haborder.png,1,z,Wed Oct 02 2024 17:40:03 GMT-0500 (Central Daylight Time),703148.7000000477,CFD-BF-039-039-A.jpg,1900,solid,O,z,1065,8,1,53299.0,649849.7000000477,7021,ATS,A,20
19,test,4,C,haborder.png,1,z,Wed Oct 02 2024 17:40:03 GMT-0500 (Central Daylight Time),705931.2000000477,CFD-BF-039-039-A.jpg,1900,solid,O,z,835,8,1,56081.5,649849.7000000477,7021,ATS,A,21
19,test,4,C,mfborder.png,0,m,Wed Oct 02 2024 17:40:03 GMT-0500 (Central Daylight Time),708679.9000000954,CFD-WM-013-015-A.jpg,1200,dash,O,None,1515,6,1,58830.200000047684,649849.7000000477,7021,ATS,A,22
20,test,4,C,mfborder.png,1,z,Wed Oct 02 2024 17:40:03 GMT-0500 (Central Daylight Time),711246.3000000715,CFD-WF-019-015-A.jpg,1600,dash,O,z,939,2,1,61396.60000002384,649849.7000000477,7021,ATS,A,23
21,test,4,C,mfborder.png,1,m,Wed Oct 02 2024 17:40:03 GMT-0500 (Central Daylight Time),713512.1000000238,CFD-BM-017-052-HC.jpg,1000,dash,O,m,1229,4,1,63662.39999997616,649849.7000000477,7021,ATS,A,24
