acc_sum,block,block_c,block_cond,con_img,correct,correct_response,datetime,endtime,face,jitter,line,project,response,response_time,row_sel,session_number,start_end,starttime,subject_id,task,task_vers,trial
0,prac,1,A,haborder.png,0,z,Thu Feb 06 2025 18:22:36 GMT-0600 (Central Standard Time),44576.5,CFD-BF-031-020-A.jpg,1000,solid,O,m,1473,4,1,3299.300000011921,41277.19999998808,7044,ATS,C,1
0,prac,1,A,haborder.png,0,m,Thu Feb 06 2025 18:22:36 GMT-0600 (Central Standard Time),48408.39999997616,CFD-WF-013-009-HC.jpg,1500,solid,O,None,1511,11,1,7131.199999988079,41277.19999998808,7044,ATS,C,2
0,prac,1,A,haborder.png,0,m,Thu Feb 06 2025 18:22:36 GMT-0600 (Central Standard Time),52439.5,CFD-WM-035-036-HC.jpg,1700,solid,O,None,1510,9,1,11162.300000011921,41277.19999998808,7044,ATS,C,3
1,prac,1,A,haborder.png,1,m,Thu Feb 06 2025 18:22:36 GMT-0600 (Central Standard Time),55905.19999998808,CFD-BM-034-035-HC.jpg,1700,solid,O,m,966,1,1,14628.0,41277.19999998808,7044,ATS,C,4
2,prac,1,A,haborder.png,1,z,Thu Feb 06 2025 18:22:36 GMT-0600 (Central Standard Time),58805.30000001192,CFD-WF-023-013-A.jpg,1000,solid,O,z,1096,12,1,17528.100000023842,41277.19999998808,7044,ATS,C,5
3,prac,1,A,haborder.png,1,z,Thu Feb 06 2025 18:22:36 GMT-0600 (Central Standard Time),61987.39999997616,CFD-WF-037-016-A.jpg,1600,solid,O,z,759,10,1,20710.19999998808,41277.19999998808,7044,ATS,C,6
4,prac,1,A,haborder.png,1,z,Thu Feb 06 2025 18:22:36 GMT-0600 (Central Standard Time),65402.80000001192,CFD-WM-036-018-A.jpg,1900,solid,O,z,685,8,1,24125.600000023842,41277.19999998808,7044,ATS,C,7
4,prac,1,A,haborder.png,0,m,Thu Feb 06 2025 18:22:36 GMT-0600 (Central Standard Time),68701.0,CFD-WM-028-005-HC.jpg,1400,solid,O,z,1071,7,1,27423.80000001192,41277.19999998808,7044,ATS,C,8
5,prac,1,A,haborder.png,1,z,Thu Feb 06 2025 18:22:36 GMT-0600 (Central Standard Time),71717.39999997616,CFD-BF-002-018-A.jpg,1200,solid,O,z,1029,6,1,30440.19999998808,41277.19999998808,7044,ATS,C,9
6,prac,1,A,haborder.png,1,z,Thu Feb 06 2025 18:22:36 GMT-0600 (Central Standard Time),74832.5,CFD-BM-043-014-A.jpg,1600,solid,O,z,688,2,1,33555.30000001192,41277.19999998808,7044,ATS,C,10
7,prac,1,A,haborder.png,1,m,Thu Feb 06 2025 18:22:36 GMT-0600 (Central Standard Time),77782.30000001192,CFD-BM-022-004-HC.jpg,1500,solid,O,m,642,3,1,36505.10000002384,41277.19999998808,7044,ATS,C,11
7,prac,1,A,haborder.png,0,m,Thu Feb 06 2025 18:22:36 GMT-0600 (Central Standard Time),81447.39999997616,CFD-BF-019-004-HC.jpg,2000,solid,O,z,836,5,1,40170.19999998808,41277.19999998808,7044,ATS,C,12
1,prac,2,A,haborder.png,1,z,Thu Feb 06 2025 18:22:36 GMT-0600 (Central Standard Time),87162.0,CFD-WF-037-016-A.jpg,1600,solid,O,z,987,10,1,45884.80000001192,41277.19999998808,7044,ATS,C,1
2,prac,2,A,haborder.png,1,z,Thu Feb 06 2025 18:22:36 GMT-0600 (Central Standard Time),89595.0,CFD-WF-023-013-A.jpg,1000,solid,O,z,604,12,1,48317.80000001192,41277.19999998808,7044,ATS,C,2
3,prac,2,A,haborder.png,1,m,Thu Feb 06 2025 18:22:36 GMT-0600 (Central Standard Time),92694.0,CFD-WM-035-036-HC.jpg,1700,solid,O,m,565,9,1,51416.80000001192,41277.19999998808,7044,ATS,C,3
4,prac,2,A,haborder.png,1,z,Thu Feb 06 2025 18:22:36 GMT-0600 (Central Standard Time),95209.80000001192,CFD-BF-031-020-A.jpg,1000,solid,O,z,663,4,1,53932.60000002384,41277.19999998808,7044,ATS,C,4
5,prac,2,A,haborder.png,1,z,Thu Feb 06 2025 18:22:36 GMT-0600 (Central Standard Time),98741.80000001192,CFD-WM-036-018-A.jpg,1900,solid,O,z,807,8,1,57464.60000002384,41277.19999998808,7044,ATS,C,5
6,prac,2,A,haborder.png,1,m,Thu Feb 06 2025 18:22:36 GMT-0600 (Central Standard Time),101874.19999998808,CFD-BM-034-035-HC.jpg,1700,solid,O,m,604,1,1,60597.0,41277.19999998808,7044,ATS,C,6
7,prac,2,A,haborder.png,1,z,Thu Feb 06 2025 18:22:36 GMT-0600 (Central Standard Time),104923.19999998808,CFD-BM-043-014-A.jpg,1600,solid,O,z,628,2,1,63646.0,41277.19999998808,7044,ATS,C,7
8,prac,2,A,haborder.png,1,m,Thu Feb 06 2025 18:22:36 GMT-0600 (Central Standard Time),107938.89999997616,CFD-WM-028-005-HC.jpg,1400,solid,O,m,786,7,1,66661.69999998808,41277.19999998808,7044,ATS,C,8
9,prac,2,A,haborder.png,1,m,Thu Feb 06 2025 18:22:36 GMT-0600 (Central Standard Time),111171.19999998808,CFD-BM-022-004-HC.jpg,1500,solid,O,m,910,3,1,69894.0,41277.19999998808,7044,ATS,C,9
10,prac,2,A,haborder.png,1,m,Thu Feb 06 2025 18:22:36 GMT-0600 (Central Standard Time),114170.19999998808,CFD-WF-013-009-HC.jpg,1500,solid,O,m,665,11,1,72893.0,41277.19999998808,7044,ATS,C,10
11,prac,2,A,haborder.png,1,z,Thu Feb 06 2025 18:22:36 GMT-0600 (Central Standard Time),116752.69999998808,CFD-BF-002-018-A.jpg,1200,solid,O,z,555,6,1,75475.5,41277.19999998808,7044,ATS,C,11
12,prac,2,A,haborder.png,1,m,Thu Feb 06 2025 18:22:36 GMT-0600 (Central Standard Time),120268.39999997616,CFD-BF-019-004-HC.jpg,2000,solid,O,m,685,5,1,78991.19999998808,41277.19999998808,7044,ATS,C,12
1,prac,1,B,mfborder.png,1,z,Thu Feb 06 2025 18:22:36 GMT-0600 (Central Standard Time),145409.89999997616,CFD-BF-019-004-HC.jpg,1400,7,O,z,1444,dash,1,3665.300000011921,141744.59999996424,7044,ATS,C,1
2,prac,1,B,mfborder.png,1,z,Thu Feb 06 2025 18:22:36 GMT-0600 (Central Standard Time),148042.5,CFD-WF-013-009-HC.jpg,1000,12,O,z,795,dash,1,6297.900000035763,141744.59999996424,7044,ATS,C,2
3,prac,1,B,mfborder.png,1,m,Thu Feb 06 2025 18:22:36 GMT-0600 (Central Standard Time),150658.30000001192,CFD-WM-034-040-A.jpg,1200,6,O,m,578,dash,1,8913.700000047684,141744.59999996424,7044,ATS,C,3
4,prac,1,B,mfborder.png,1,m,Thu Feb 06 2025 18:22:36 GMT-0600 (Central Standard Time),153773.80000001192,CFD-BM-022-004-HC.jpg,1700,1,O,m,575,dash,1,12029.200000047684,141744.59999996424,7044,ATS,C,4
5,prac,1,B,mfborder.png,1,m,Thu Feb 06 2025 18:22:36 GMT-0600 (Central Standard Time),156756.09999996424,CFD-WM-035-036-HC.jpg,1600,10,O,m,560,dash,1,15011.5,141744.59999996424,7044,ATS,C,5
6,prac,1,B,mfborder.png,1,z,Thu Feb 06 2025 18:22:36 GMT-0600 (Central Standard Time),160105.19999998808,CFD-WF-001-010-HC.jpg,1900,8,O,z,637,dash,1,18360.600000023842,141744.59999996424,7044,ATS,C,6
7,prac,1,B,mfborder.png,1,m,Thu Feb 06 2025 18:22:36 GMT-0600 (Central Standard Time),163304.19999998808,CFD-WM-036-018-A.jpg,1700,9,O,m,668,dash,1,21559.600000023842,141744.59999996424,7044,ATS,C,7
8,prac,1,B,mfborder.png,1,z,Thu Feb 06 2025 18:22:36 GMT-0600 (Central Standard Time),166202.69999998808,CFD-BF-042-031-HC.jpg,1500,3,O,z,561,dash,1,24458.100000023842,141744.59999996424,7044,ATS,C,8
9,prac,1,B,mfborder.png,1,z,Thu Feb 06 2025 18:22:36 GMT-0600 (Central Standard Time),169352.0,CFD-WF-037-016-A.jpg,1500,11,O,z,813,dash,1,27607.400000035763,141744.59999996424,7044,ATS,C,9
10,prac,1,B,mfborder.png,1,z,Thu Feb 06 2025 18:22:36 GMT-0600 (Central Standard Time),171918.0,CFD-BF-031-020-A.jpg,1000,4,O,z,741,dash,1,30173.400000035763,141744.59999996424,7044,ATS,C,10
11,prac,1,B,mfborder.png,1,m,Thu Feb 06 2025 18:22:36 GMT-0600 (Central Standard Time),174950.19999998808,CFD-BM-021-026-A.jpg,1600,2,O,m,607,dash,1,33205.60000002384,141744.59999996424,7044,ATS,C,11
12,prac,1,B,mfborder.png,1,m,Thu Feb 06 2025 18:22:36 GMT-0600 (Central Standard Time),178299.19999998808,CFD-BM-043-014-A.jpg,2000,5,O,m,527,dash,1,36554.60000002384,141744.59999996424,7044,ATS,C,12
1,test,1,A,haborder.png,1,m,Thu Feb 06 2025 18:22:36 GMT-0600 (Central Standard Time),197193.09999996424,CFD-WF-013-009-HC.jpg,1500,solid,O,m,1032,11,1,2599.199999988079,194593.89999997616,7044,ATS,C,1
2,test,1,A,haborder.png,1,z,Thu Feb 06 2025 18:22:36 GMT-0600 (Central Standard Time),199525.59999996424,CFD-BM-043-014-A.jpg,1600,solid,O,z,685,2,1,4931.699999988079,194593.89999997616,7044,ATS,C,2
3,test,1,A,haborder.png,1,m,Thu Feb 06 2025 18:22:36 GMT-0600 (Central Standard Time),202457.80000001192,CFD-BM-034-035-HC.jpg,1700,solid,O,m,1188,1,1,7863.900000035763,194593.89999997616,7044,ATS,C,3
4,test,1,A,haborder.png,1,m,Thu Feb 06 2025 18:22:36 GMT-0600 (Central Standard Time),205057.0,CFD-BM-034-035-HC.jpg,1700,solid,O,m,857,1,1,10463.100000023842,194593.89999997616,7044,ATS,C,4
5,test,1,A,haborder.png,1,m,Thu Feb 06 2025 18:22:36 GMT-0600 (Central Standard Time),207322.30000001192,CFD-WM-028-005-HC.jpg,1400,solid,O,m,809,7,1,12728.400000035763,194593.89999997616,7044,ATS,C,5
6,test,1,A,haborder.png,1,m,Thu Feb 06 2025 18:22:36 GMT-0600 (Central Standard Time),210055.39999997616,CFD-BF-019-004-HC.jpg,2000,solid,O,m,708,5,1,15461.5,194593.89999997616,7044,ATS,C,6
7,test,1,A,haborder.png,1,z,Thu Feb 06 2025 18:22:36 GMT-0600 (Central Standard Time),211806.09999996424,CFD-BF-031-020-A.jpg,1000,solid,O,z,678,4,1,17212.19999998808,194593.89999997616,7044,ATS,C,7
8,test,1,A,haborder.png,1,z,Thu Feb 06 2025 18:22:36 GMT-0600 (Central Standard Time),213471.0,CFD-WF-023-013-A.jpg,1000,solid,O,z,618,12,1,18877.100000023842,194593.89999997616,7044,ATS,C,8
9,test,1,A,haborder.png,1,m,Thu Feb 06 2025 18:22:36 GMT-0600 (Central Standard Time),215903.39999997616,CFD-WM-035-036-HC.jpg,1700,solid,O,m,684,9,1,21309.5,194593.89999997616,7044,ATS,C,9
10,test,1,A,haborder.png,1,z,Thu Feb 06 2025 18:22:36 GMT-0600 (Central Standard Time),219252.30000001192,CFD-WM-036-018-A.jpg,1900,solid,O,z,1383,8,1,24658.400000035763,194593.89999997616,7044,ATS,C,10
11,test,1,A,haborder.png,1,m,Thu Feb 06 2025 18:22:36 GMT-0600 (Central Standard Time),221951.39999997616,CFD-BF-019-004-HC.jpg,2000,solid,O,m,650,5,1,27357.5,194593.89999997616,7044,ATS,C,11
12,test,1,A,haborder.png,1,z,Thu Feb 06 2025 18:22:36 GMT-0600 (Central Standard Time),223717.30000001192,CFD-BF-031-020-A.jpg,1000,solid,O,z,718,4,1,29123.400000035763,194593.89999997616,7044,ATS,C,12
13,test,1,A,haborder.png,1,z,Thu Feb 06 2025 18:22:36 GMT-0600 (Central Standard Time),225450.30000001192,CFD-WF-023-013-A.jpg,1000,solid,O,z,647,12,1,30856.400000035763,194593.89999997616,7044,ATS,C,13
14,test,1,A,haborder.png,1,m,Thu Feb 06 2025 18:22:36 GMT-0600 (Central Standard Time),227699.5,CFD-BM-022-004-HC.jpg,1500,solid,O,m,696,3,1,33105.60000002384,194593.89999997616,7044,ATS,C,14
15,test,1,A,haborder.png,1,z,Thu Feb 06 2025 18:22:36 GMT-0600 (Central Standard Time),230132.09999996424,CFD-WF-037-016-A.jpg,1600,solid,O,z,778,10,1,35538.19999998808,194593.89999997616,7044,ATS,C,15
16,test,1,A,haborder.png,1,z,Thu Feb 06 2025 18:22:36 GMT-0600 (Central Standard Time),232414.59999996424,CFD-WF-037-016-A.jpg,1600,solid,O,z,634,10,1,37820.69999998808,194593.89999997616,7044,ATS,C,16
17,test,1,A,haborder.png,1,m,Thu Feb 06 2025 18:22:36 GMT-0600 (Central Standard Time),234680.59999996424,CFD-WF-013-009-HC.jpg,1500,solid,O,m,716,11,1,40086.69999998808,194593.89999997616,7044,ATS,C,17
18,test,1,A,haborder.png,1,z,Thu Feb 06 2025 18:22:36 GMT-0600 (Central Standard Time),236597.30000001192,CFD-BF-002-018-A.jpg,1200,solid,O,z,661,6,1,42003.40000003576,194593.89999997616,7044,ATS,C,18
19,test,1,A,haborder.png,1,m,Thu Feb 06 2025 18:22:36 GMT-0600 (Central Standard Time),238929.19999998808,CFD-BM-022-004-HC.jpg,1500,solid,O,m,782,3,1,44335.30000001192,194593.89999997616,7044,ATS,C,19
20,test,1,A,haborder.png,1,z,Thu Feb 06 2025 18:22:36 GMT-0600 (Central Standard Time),240811.80000001192,CFD-BF-002-018-A.jpg,1200,solid,O,z,628,6,1,46217.90000003576,194593.89999997616,7044,ATS,C,20
21,test,1,A,haborder.png,1,z,Thu Feb 06 2025 18:22:36 GMT-0600 (Central Standard Time),244077.5,CFD-WM-036-018-A.jpg,1900,solid,O,z,1320,8,1,49483.60000002384,194593.89999997616,7044,ATS,C,21
22,test,1,A,haborder.png,1,m,Thu Feb 06 2025 18:22:36 GMT-0600 (Central Standard Time),246477.0,CFD-WM-035-036-HC.jpg,1700,solid,O,m,637,9,1,51883.10000002384,194593.89999997616,7044,ATS,C,22
23,test,1,A,haborder.png,1,m,Thu Feb 06 2025 18:22:36 GMT-0600 (Central Standard Time),248525.89999997616,CFD-WM-028-005-HC.jpg,1400,solid,O,m,609,7,1,53932.0,194593.89999997616,7044,ATS,C,23
24,test,1,A,haborder.png,1,z,Thu Feb 06 2025 18:22:36 GMT-0600 (Central Standard Time),250808.59999996424,CFD-BM-043-014-A.jpg,1600,solid,O,z,632,2,1,56214.69999998808,194593.89999997616,7044,ATS,C,24
1,test,1,B,mfborder.png,1,z,Thu Feb 06 2025 18:22:36 GMT-0600 (Central Standard Time),261687.69999998808,CFD-WF-013-009-HC.jpg,1000,dash,O,z,1169,12,1,2231.699999988079,259456.0,7044,ATS,C,1
2,test,1,B,mfborder.png,1,z,Thu Feb 06 2025 18:22:36 GMT-0600 (Central Standard Time),264171.3000000119,CFD-BF-042-031-HC.jpg,1500,dash,O,z,928,3,1,4715.300000011921,259456.0,7044,ATS,C,2
3,test,1,B,mfborder.png,1,m,Thu Feb 06 2025 18:22:36 GMT-0600 (Central Standard Time),266453.8000000119,CFD-WM-036-018-A.jpg,1700,dash,O,m,535,9,1,6997.800000011921,259456.0,7044,ATS,C,3
4,test,1,B,mfborder.png,1,z,Thu Feb 06 2025 18:22:36 GMT-0600 (Central Standard Time),269069.5,CFD-WF-001-010-HC.jpg,1900,dash,O,z,668,8,1,9613.5,259456.0,7044,ATS,C,4
5,test,1,B,mfborder.png,1,z,Thu Feb 06 2025 18:22:36 GMT-0600 (Central Standard Time),270852.59999996424,CFD-WF-013-009-HC.jpg,1000,dash,O,z,712,12,1,11396.599999964237,259456.0,7044,ATS,C,5
6,test,1,B,mfborder.png,1,m,Thu Feb 06 2025 18:22:36 GMT-0600 (Central Standard Time),273368.09999996424,CFD-BM-043-014-A.jpg,2000,dash,O,m,483,5,1,13912.099999964237,259456.0,7044,ATS,C,6
7,test,1,B,mfborder.png,1,m,Thu Feb 06 2025 18:22:36 GMT-0600 (Central Standard Time),275600.5,CFD-BM-022-004-HC.jpg,1700,dash,O,m,482,1,1,16144.5,259456.0,7044,ATS,C,7
8,test,1,B,mfborder.png,1,m,Thu Feb 06 2025 18:22:36 GMT-0600 (Central Standard Time),278166.1999999881,CFD-BM-043-014-A.jpg,2000,dash,O,m,525,5,1,18710.19999998808,259456.0,7044,ATS,C,8
9,test,1,B,mfborder.png,1,m,Thu Feb 06 2025 18:22:36 GMT-0600 (Central Standard Time),280432.1999999881,CFD-BM-021-026-A.jpg,1600,dash,O,m,623,2,1,20976.19999998808,259456.0,7044,ATS,C,9
10,test,1,B,mfborder.png,1,z,Thu Feb 06 2025 18:22:36 GMT-0600 (Central Standard Time),282481.59999996424,CFD-BF-019-004-HC.jpg,1400,dash,O,z,597,7,1,23025.599999964237,259456.0,7044,ATS,C,10
11,test,1,B,mfborder.png,1,m,Thu Feb 06 2025 18:22:36 GMT-0600 (Central Standard Time),284713.5,CFD-BM-021-026-A.jpg,1600,dash,O,m,579,2,1,25257.5,259456.0,7044,ATS,C,11
12,test,1,B,mfborder.png,1,m,Thu Feb 06 2025 18:22:36 GMT-0600 (Central Standard Time),287380.0,CFD-WM-035-036-HC.jpg,1600,dash,O,m,1031,10,1,27924.0,259456.0,7044,ATS,C,12
13,test,1,B,mfborder.png,1,z,Thu Feb 06 2025 18:22:36 GMT-0600 (Central Standard Time),289096.09999996424,CFD-BF-031-020-A.jpg,1000,dash,O,z,673,4,1,29640.099999964237,259456.0,7044,ATS,C,13
13,test,1,B,mfborder.png,0,z,Thu Feb 06 2025 18:22:36 GMT-0600 (Central Standard Time),291814.3000000119,CFD-WF-001-010-HC.jpg,1900,dash,O,m,779,8,1,32358.30000001192,259456.0,7044,ATS,C,14
14,test,1,B,mfborder.png,1,z,Thu Feb 06 2025 18:22:36 GMT-0600 (Central Standard Time),293828.1999999881,CFD-BF-031-020-A.jpg,1000,dash,O,z,969,4,1,34372.19999998808,259456.0,7044,ATS,C,15
15,test,1,B,mfborder.png,1,m,Thu Feb 06 2025 18:22:36 GMT-0600 (Central Standard Time),296177.09999996424,CFD-BM-022-004-HC.jpg,1700,dash,O,m,582,1,1,36721.09999996424,259456.0,7044,ATS,C,16
16,test,1,B,mfborder.png,1,z,Thu Feb 06 2025 18:22:36 GMT-0600 (Central Standard Time),298393.39999997616,CFD-BF-042-031-HC.jpg,1500,dash,O,z,652,3,1,38937.39999997616,259456.0,7044,ATS,C,17
17,test,1,B,mfborder.png,1,z,Thu Feb 06 2025 18:22:36 GMT-0600 (Central Standard Time),301125.5,CFD-WF-037-016-A.jpg,1500,dash,O,z,1195,11,1,41669.5,259456.0,7044,ATS,C,18
18,test,1,B,mfborder.png,1,m,Thu Feb 06 2025 18:22:36 GMT-0600 (Central Standard Time),302925.1999999881,CFD-WM-034-040-A.jpg,1200,dash,O,m,535,6,1,43469.19999998808,259456.0,7044,ATS,C,19
19,test,1,B,mfborder.png,1,z,Thu Feb 06 2025 18:22:36 GMT-0600 (Central Standard Time),305024.3000000119,CFD-BF-019-004-HC.jpg,1400,dash,O,z,649,7,1,45568.30000001192,259456.0,7044,ATS,C,20
20,test,1,B,mfborder.png,1,m,Thu Feb 06 2025 18:22:36 GMT-0600 (Central Standard Time),307373.39999997616,CFD-WM-036-018-A.jpg,1700,dash,O,m,585,9,1,47917.39999997616,259456.0,7044,ATS,C,21
21,test,1,B,mfborder.png,1,z,Thu Feb 06 2025 18:22:36 GMT-0600 (Central Standard Time),309506.09999996424,CFD-WF-037-016-A.jpg,1500,dash,O,z,588,11,1,50050.09999996424,259456.0,7044,ATS,C,22
22,test,1,B,mfborder.png,1,m,Thu Feb 06 2025 18:22:36 GMT-0600 (Central Standard Time),311522.1999999881,CFD-WM-034-040-A.jpg,1200,dash,O,m,763,6,1,52066.19999998808,259456.0,7044,ATS,C,23
23,test,1,B,mfborder.png,1,m,Thu Feb 06 2025 18:22:36 GMT-0600 (Central Standard Time),313821.09999996424,CFD-WM-035-036-HC.jpg,1600,dash,O,m,660,10,1,54365.09999996424,259456.0,7044,ATS,C,24
0,prac,1,C,haborder.png,0,m,Thu Feb 06 2025 18:22:36 GMT-0600 (Central Standard Time),359623.3000000119,CFD-WM-028-005-HC.jpg,1400,solid,O,None,1510,10,1,3732.2000000476837,355891.09999996424,7044,ATS,C,1
0,prac,1,C,mfborder.png,0,m,Thu Feb 06 2025 18:22:36 GMT-0600 (Central Standard Time),363655.3000000119,CFD-WM-036-018-A.jpg,1700,solid,O,None,1510,10,1,7764.200000047684,355891.09999996424,7044,ATS,C,2
1,prac,1,C,mfborder.png,1,m,Thu Feb 06 2025 18:22:36 GMT-0600 (Central Standard Time),366887.5,CFD-BM-043-014-A.jpg,1200,dash,O,m,1228,10,1,10996.400000035763,355891.09999996424,7044,ATS,C,3
2,prac,1,C,haborder.png,1,z,Thu Feb 06 2025 18:22:36 GMT-0600 (Central Standard Time),370403.0,CFD-BF-031-020-A.jpg,1900,dash,O,z,779,10,1,14511.900000035763,355891.09999996424,7044,ATS,C,4
3,prac,1,C,mfborder.png,1,z,Thu Feb 06 2025 18:22:36 GMT-0600 (Central Standard Time),374068.5,CFD-WF-023-013-A.jpg,1500,solid,O,z,1343,10,1,18177.400000035763,355891.09999996424,7044,ATS,C,5
3,prac,1,C,mfborder.png,0,z,Thu Feb 06 2025 18:22:36 GMT-0600 (Central Standard Time),377583.89999997616,CFD-WF-013-009-HC.jpg,1600,dash,O,m,1106,10,1,21692.80000001192,355891.09999996424,7044,ATS,C,6
4,prac,1,C,mfborder.png,1,z,Thu Feb 06 2025 18:22:36 GMT-0600 (Central Standard Time),380899.5,CFD-BF-019-004-HC.jpg,1000,dash,O,z,1481,10,1,25008.400000035763,355891.09999996424,7044,ATS,C,7
5,prac,1,C,mfborder.png,1,m,Thu Feb 06 2025 18:22:36 GMT-0600 (Central Standard Time),384781.6999999881,CFD-BM-034-035-HC.jpg,2000,solid,O,m,1051,10,1,28890.600000023842,355891.09999996424,7044,ATS,C,8
6,prac,1,C,haborder.png,1,m,Thu Feb 06 2025 18:22:36 GMT-0600 (Central Standard Time),388197.3000000119,CFD-BM-022-004-HC.jpg,1500,solid,O,m,1100,10,1,32306.200000047684,355891.09999996424,7044,ATS,C,9
7,prac,1,C,haborder.png,1,z,Thu Feb 06 2025 18:22:36 GMT-0600 (Central Standard Time),391396.1999999881,CFD-WF-037-016-A.jpg,1600,dash,O,z,785,10,1,35505.10000002384,355891.09999996424,7044,ATS,C,10
8,prac,1,C,haborder.png,1,z,Thu Feb 06 2025 18:22:36 GMT-0600 (Central Standard Time),394661.59999996424,CFD-BF-002-018-A.jpg,1700,solid,O,z,759,10,1,38770.5,355891.09999996424,7044,ATS,C,11
9,prac,1,C,haborder.png,1,m,Thu Feb 06 2025 18:22:36 GMT-0600 (Central Standard Time),397194.1999999881,CFD-WM-028-005-HC.jpg,1000,dash,O,m,721,10,1,41303.10000002384,355891.09999996424,7044,ATS,C,12
0,test,1,C,haborder.png,0,z,Thu Feb 06 2025 18:22:36 GMT-0600 (Central Standard Time),421469.8000000119,CFD-WM-036-018-A.jpg,1400,solid,O,None,1510,7,1,2949.2000000476837,418520.59999996424,7044,ATS,C,1
0,test,1,C,haborder.png,0,m,Thu Feb 06 2025 18:22:36 GMT-0600 (Central Standard Time),424535.39999997616,CFD-WF-001-010-HC.jpg,1500,solid,O,None,1510,11,1,6014.800000011921,418520.59999996424,7044,ATS,C,2
1,test,1,C,haborder.png,1,z,Thu Feb 06 2025 18:22:36 GMT-0600 (Central Standard Time),427650.6999999881,CFD-BM-021-026-A.jpg,1700,solid,O,z,1363,9,1,9130.100000023842,418520.59999996424,7044,ATS,C,3
2,test,1,C,mfborder.png,1,m,Thu Feb 06 2025 18:22:36 GMT-0600 (Central Standard Time),430749.8000000119,CFD-WM-034-040-A.jpg,2000,dash,O,m,1060,5,1,12229.200000047684,418520.59999996424,7044,ATS,C,4
2,test,1,C,mfborder.png,0,z,Thu Feb 06 2025 18:22:36 GMT-0600 (Central Standard Time),433799.0,CFD-WF-037-016-A.jpg,1500,dash,O,None,1510,3,1,15278.400000035763,418520.59999996424,7044,ATS,C,5
2,test,1,C,haborder.png,0,m,Thu Feb 06 2025 18:22:36 GMT-0600 (Central Standard Time),436847.5,CFD-WF-001-010-HC.jpg,1500,solid,O,None,1514,11,1,18326.900000035763,418520.59999996424,7044,ATS,C,6
3,test,1,C,mfborder.png,1,m,Thu Feb 06 2025 18:22:36 GMT-0600 (Central Standard Time),439296.89999997616,CFD-WM-035-036-HC.jpg,1000,dash,O,m,1406,4,1,20776.30000001192,418520.59999996424,7044,ATS,C,7
4,test,1,C,mfborder.png,1,m,Thu Feb 06 2025 18:22:36 GMT-0600 (Central Standard Time),441946.09999996424,CFD-BM-022-004-HC.jpg,1200,dash,O,m,1397,6,1,23425.5,418520.59999996424,7044,ATS,C,8
5,test,1,C,haborder.png,1,m,Thu Feb 06 2025 18:22:36 GMT-0600 (Central Standard Time),445028.39999997616,CFD-BF-019-004-HC.jpg,1600,solid,O,m,1421,10,1,26507.80000001192,418520.59999996424,7044,ATS,C,9
5,test,1,C,mfborder.png,0,z,Thu Feb 06 2025 18:22:36 GMT-0600 (Central Standard Time),448177.5,CFD-BF-031-020-A.jpg,1600,dash,O,None,1510,2,1,29656.900000035763,418520.59999996424,7044,ATS,C,10
5,test,1,C,mfborder.png,0,z,Thu Feb 06 2025 18:22:36 GMT-0600 (Central Standard Time),451109.59999996424,CFD-BF-042-031-HC.jpg,1700,dash,O,m,1193,1,1,32589.0,418520.59999996424,7044,ATS,C,11
5,test,1,C,haborder.png,0,z,Thu Feb 06 2025 18:22:36 GMT-0600 (Central Standard Time),454375.5,CFD-BM-021-026-A.jpg,1700,solid,O,None,1505,9,1,35854.90000003576,418520.59999996424,7044,ATS,C,12
6,test,1,C,haborder.png,1,z,Thu Feb 06 2025 18:22:36 GMT-0600 (Central Standard Time),457724.3000000119,CFD-BM-043-014-A.jpg,1900,solid,O,z,1394,8,1,39203.700000047684,418520.59999996424,7044,ATS,C,13
7,test,1,C,mfborder.png,1,z,Thu Feb 06 2025 18:22:36 GMT-0600 (Central Standard Time),460856.5,CFD-BF-031-020-A.jpg,1600,dash,O,z,1490,2,1,42335.90000003576,418520.59999996424,7044,ATS,C,14
7,test,1,C,haborder.png,0,z,Thu Feb 06 2025 18:22:36 GMT-0600 (Central Standard Time),464322.1999999881,CFD-BM-043-014-A.jpg,1900,solid,O,None,1505,8,1,45801.60000002384,418520.59999996424,7044,ATS,C,15
8,test,1,C,mfborder.png,1,m,Thu Feb 06 2025 18:22:36 GMT-0600 (Central Standard Time),466787.89999997616,CFD-BM-022-004-HC.jpg,1200,dash,O,m,1212,6,1,48267.30000001192,418520.59999996424,7044,ATS,C,16
8,test,1,C,mfborder.png,0,m,Thu Feb 06 2025 18:22:36 GMT-0600 (Central Standard Time),469303.6999999881,CFD-WM-035-036-HC.jpg,1000,dash,O,z,1449,4,1,50783.10000002384,418520.59999996424,7044,ATS,C,17
8,test,1,C,haborder.png,0,m,Thu Feb 06 2025 18:22:36 GMT-0600 (Central Standard Time),471869.89999997616,CFD-WF-013-009-HC.jpg,1000,solid,O,None,1511,12,1,53349.30000001192,418520.59999996424,7044,ATS,C,18
8,test,1,C,haborder.png,0,m,Thu Feb 06 2025 18:22:36 GMT-0600 (Central Standard Time),474761.6999999881,CFD-BF-019-004-HC.jpg,1600,solid,O,z,1233,10,1,56241.10000002384,418520.59999996424,7044,ATS,C,19
8,test,1,C,mfborder.png,0,z,Thu Feb 06 2025 18:22:36 GMT-0600 (Central Standard Time),477484.5,CFD-BF-042-031-HC.jpg,1700,dash,O,m,985,1,1,58963.90000003576,418520.59999996424,7044,ATS,C,20
8,test,1,C,haborder.png,0,z,Thu Feb 06 2025 18:22:36 GMT-0600 (Central Standard Time),480067.0,CFD-WM-036-018-A.jpg,1400,solid,O,m,1130,7,1,61546.40000003576,418520.59999996424,7044,ATS,C,21
8,test,1,C,haborder.png,0,m,Thu Feb 06 2025 18:22:36 GMT-0600 (Central Standard Time),482199.6999999881,CFD-WF-013-009-HC.jpg,1000,solid,O,z,1075,12,1,63679.10000002384,418520.59999996424,7044,ATS,C,22
8,test,1,C,mfborder.png,0,m,Thu Feb 06 2025 18:22:36 GMT-0600 (Central Standard Time),485598.09999996424,CFD-WM-034-040-A.jpg,2000,dash,O,z,1350,5,1,67077.5,418520.59999996424,7044,ATS,C,23
8,test,1,C,mfborder.png,0,z,Thu Feb 06 2025 18:22:36 GMT-0600 (Central Standard Time),487781.09999996424,CFD-WF-037-016-A.jpg,1500,dash,O,m,603,3,1,69260.5,418520.59999996424,7044,ATS,C,24
1,test,2,C,mfborder.png,1,m,Thu Feb 06 2025 18:22:36 GMT-0600 (Central Standard Time),495727.89999997616,CFD-BM-034-035-HC.jpg,1000,dash,O,m,1231,4,1,2281.899999976158,493446.0,7044,ATS,C,1
1,test,2,C,haborder.png,0,m,Thu Feb 06 2025 18:22:36 GMT-0600 (Central Standard Time),498827.1999999881,CFD-BM-022-004-HC.jpg,1600,solid,O,z,1474,10,1,5381.199999988079,493446.0,7044,ATS,C,2
2,test,2,C,haborder.png,1,m,Thu Feb 06 2025 18:22:36 GMT-0600 (Central Standard Time),501043.5,CFD-WM-028-005-HC.jpg,1000,solid,O,m,1188,12,1,7597.5,493446.0,7044,ATS,C,3
3,test,2,C,haborder.png,1,m,Thu Feb 06 2025 18:22:36 GMT-0600 (Central Standard Time),503775.6999999881,CFD-BM-022-004-HC.jpg,1600,solid,O,m,1091,10,1,10329.699999988079,493446.0,7044,ATS,C,4
3,test,2,C,mfborder.png,0,m,Thu Feb 06 2025 18:22:36 GMT-0600 (Central Standard Time),505891.5,CFD-WM-036-018-A.jpg,1200,dash,O,z,875,6,1,12445.5,493446.0,7044,ATS,C,5
3,test,2,C,haborder.png,0,z,Thu Feb 06 2025 18:22:36 GMT-0600 (Central Standard Time),509124.3000000119,CFD-WF-037-016-A.jpg,1700,solid,O,None,1510,9,1,15678.300000011921,493446.0,7044,ATS,C,6
4,test,2,C,haborder.png,1,z,Thu Feb 06 2025 18:22:36 GMT-0600 (Central Standard Time),511756.59999996424,CFD-BF-031-020-A.jpg,1400,solid,O,z,1178,7,1,18310.599999964237,493446.0,7044,ATS,C,7
5,test,2,C,haborder.png,1,m,Thu Feb 06 2025 18:22:36 GMT-0600 (Central Standard Time),514139.3000000119,CFD-WM-028-005-HC.jpg,1000,solid,O,m,1326,12,1,20693.30000001192,493446.0,7044,ATS,C,8
6,test,2,C,mfborder.png,1,z,Thu Feb 06 2025 18:22:36 GMT-0600 (Central Standard Time),517121.39999997616,CFD-WF-013-009-HC.jpg,1700,dash,O,z,1239,1,1,23675.399999976158,493446.0,7044,ATS,C,9
7,test,2,C,haborder.png,1,z,Thu Feb 06 2025 18:22:36 GMT-0600 (Central Standard Time),520253.6999999881,CFD-WF-037-016-A.jpg,1700,solid,O,z,1378,9,1,26807.69999998808,493446.0,7044,ATS,C,10
8,test,2,C,mfborder.png,1,m,Thu Feb 06 2025 18:22:36 GMT-0600 (Central Standard Time),523302.59999996424,CFD-BM-043-014-A.jpg,2000,dash,O,m,1008,5,1,29856.599999964237,493446.0,7044,ATS,C,11
8,test,2,C,haborder.png,0,z,Thu Feb 06 2025 18:22:36 GMT-0600 (Central Standard Time),526252.0999999642,CFD-BF-031-020-A.jpg,1400,solid,O,None,1510,7,1,32806.09999996424,493446.0,7044,ATS,C,12
9,test,2,C,mfborder.png,1,m,Thu Feb 06 2025 18:22:36 GMT-0600 (Central Standard Time),528833.6999999881,CFD-WM-036-018-A.jpg,1200,dash,O,m,1310,6,1,35387.69999998808,493446.0,7044,ATS,C,13
10,test,2,C,haborder.png,1,z,Thu Feb 06 2025 18:22:36 GMT-0600 (Central Standard Time),531683.5999999642,CFD-BF-002-018-A.jpg,1900,solid,O,z,921,8,1,38237.59999996424,493446.0,7044,ATS,C,14
10,test,2,C,mfborder.png,0,m,Thu Feb 06 2025 18:22:36 GMT-0600 (Central Standard Time),534232.6999999881,CFD-BM-034-035-HC.jpg,1000,dash,O,None,1514,4,1,40786.69999998808,493446.0,7044,ATS,C,15
10,test,2,C,haborder.png,0,m,Thu Feb 06 2025 18:22:36 GMT-0600 (Central Standard Time),537281.8000000119,CFD-WM-028-005-HC.jpg,1500,solid,O,None,1510,11,1,43835.80000001192,493446.0,7044,ATS,C,16
10,test,2,C,mfborder.png,0,z,Thu Feb 06 2025 18:22:36 GMT-0600 (Central Standard Time),540530.5,CFD-WF-013-009-HC.jpg,1700,dash,O,None,1510,1,1,47084.5,493446.0,7044,ATS,C,17
11,test,2,C,mfborder.png,1,z,Thu Feb 06 2025 18:22:36 GMT-0600 (Central Standard Time),543113.0,CFD-BF-019-004-HC.jpg,1500,dash,O,z,1040,3,1,49667.0,493446.0,7044,ATS,C,18
11,test,2,C,mfborder.png,0,z,Thu Feb 06 2025 18:22:36 GMT-0600 (Central Standard Time),546295.3999999762,CFD-WF-023-013-A.jpg,1600,dash,O,None,1511,2,1,52849.39999997616,493446.0,7044,ATS,C,19
12,test,2,C,haborder.png,1,z,Thu Feb 06 2025 18:22:36 GMT-0600 (Central Standard Time),549494.0999999642,CFD-BF-002-018-A.jpg,1900,solid,O,z,1235,8,1,56048.09999996424,493446.0,7044,ATS,C,20
13,test,2,C,mfborder.png,1,z,Thu Feb 06 2025 18:22:36 GMT-0600 (Central Standard Time),552292.5999999642,CFD-WF-023-013-A.jpg,1600,dash,O,z,1163,2,1,58846.59999996424,493446.0,7044,ATS,C,21
14,test,2,C,haborder.png,1,m,Thu Feb 06 2025 18:22:36 GMT-0600 (Central Standard Time),554775.3000000119,CFD-WM-028-005-HC.jpg,1500,solid,O,m,954,11,1,61329.30000001192,493446.0,7044,ATS,C,22
14,test,2,C,mfborder.png,0,z,Thu Feb 06 2025 18:22:36 GMT-0600 (Central Standard Time),557807.5,CFD-BF-019-004-HC.jpg,1500,dash,O,None,1515,3,1,64361.5,493446.0,7044,ATS,C,23
15,test,2,C,mfborder.png,1,m,Thu Feb 06 2025 18:22:36 GMT-0600 (Central Standard Time),560957.6999999881,CFD-BM-043-014-A.jpg,2000,dash,O,m,1127,5,1,67511.69999998808,493446.0,7044,ATS,C,24
1,test,3,C,mfborder.png,1,m,Thu Feb 06 2025 18:22:36 GMT-0600 (Central Standard Time),568371.5999999642,CFD-WM-035-036-HC.jpg,1000,dash,O,m,1209,4,1,2282.199999988079,566089.3999999762,7044,ATS,C,1
2,test,3,C,mfborder.png,1,m,Thu Feb 06 2025 18:22:36 GMT-0600 (Central Standard Time),570637.5,CFD-WM-035-036-HC.jpg,1000,dash,O,m,1218,4,1,4548.100000023842,566089.3999999762,7044,ATS,C,2
3,test,3,C,mfborder.png,1,m,Thu Feb 06 2025 18:22:36 GMT-0600 (Central Standard Time),572919.8999999762,CFD-BM-022-004-HC.jpg,1200,dash,O,m,1033,6,1,6830.5,566089.3999999762,7044,ATS,C,3
3,test,3,C,mfborder.png,0,z,Thu Feb 06 2025 18:22:36 GMT-0600 (Central Standard Time),575985.6999999881,CFD-WF-037-016-A.jpg,1500,dash,O,None,1507,3,1,9896.300000011921,566089.3999999762,7044,ATS,C,4
3,test,3,C,haborder.png,0,z,Thu Feb 06 2025 18:22:36 GMT-0600 (Central Standard Time),579234.5999999642,CFD-BM-021-026-A.jpg,1700,solid,O,None,1510,9,1,13145.199999988079,566089.3999999762,7044,ATS,C,5
4,test,3,C,mfborder.png,1,z,Thu Feb 06 2025 18:22:36 GMT-0600 (Central Standard Time),581766.8000000119,CFD-WF-037-016-A.jpg,1500,dash,O,z,991,3,1,15677.400000035763,566089.3999999762,7044,ATS,C,6
5,test,3,C,mfborder.png,1,m,Thu Feb 06 2025 18:22:36 GMT-0600 (Central Standard Time),584999.3000000119,CFD-WM-034-040-A.jpg,2000,dash,O,m,1191,5,1,18909.900000035763,566089.3999999762,7044,ATS,C,7
6,test,3,C,haborder.png,1,z,Thu Feb 06 2025 18:22:36 GMT-0600 (Central Standard Time),587931.8999999762,CFD-WM-036-018-A.jpg,1400,solid,O,z,1479,7,1,21842.5,566089.3999999762,7044,ATS,C,8
6,test,3,C,haborder.png,0,z,Thu Feb 06 2025 18:22:36 GMT-0600 (Central Standard Time),590997.8000000119,CFD-BM-043-014-A.jpg,1900,solid,O,m,1126,8,1,24908.400000035763,566089.3999999762,7044,ATS,C,9
6,test,3,C,haborder.png,0,m,Thu Feb 06 2025 18:22:36 GMT-0600 (Central Standard Time),593546.6999999881,CFD-WF-013-009-HC.jpg,1000,solid,O,None,1510,12,1,27457.30000001192,566089.3999999762,7044,ATS,C,10
7,test,3,C,mfborder.png,1,z,Thu Feb 06 2025 18:22:36 GMT-0600 (Central Standard Time),596728.5999999642,CFD-BF-042-031-HC.jpg,1700,dash,O,z,1432,1,1,30639.19999998808,566089.3999999762,7044,ATS,C,11
8,test,3,C,haborder.png,1,z,Thu Feb 06 2025 18:22:36 GMT-0600 (Central Standard Time),600144.3000000119,CFD-BM-043-014-A.jpg,1900,solid,O,z,1466,8,1,34054.90000003576,566089.3999999762,7044,ATS,C,12
8,test,3,C,haborder.png,0,m,Thu Feb 06 2025 18:22:36 GMT-0600 (Central Standard Time),603010.0999999642,CFD-WF-001-010-HC.jpg,1500,solid,O,z,1322,11,1,36920.69999998808,566089.3999999762,7044,ATS,C,13
9,test,3,C,mfborder.png,1,z,Thu Feb 06 2025 18:22:36 GMT-0600 (Central Standard Time),606109.8000000119,CFD-BF-031-020-A.jpg,1600,dash,O,z,1464,2,1,40020.40000003576,566089.3999999762,7044,ATS,C,14
10,test,3,C,haborder.png,1,z,Thu Feb 06 2025 18:22:36 GMT-0600 (Central Standard Time),609308.0999999642,CFD-BM-021-026-A.jpg,1700,solid,O,z,1456,9,1,43218.69999998808,566089.3999999762,7044,ATS,C,15
11,test,3,C,mfborder.png,1,m,Thu Feb 06 2025 18:22:36 GMT-0600 (Central Standard Time),611490.5999999642,CFD-BM-022-004-HC.jpg,1200,dash,O,m,929,6,1,45401.19999998808,566089.3999999762,7044,ATS,C,16
11,test,3,C,mfborder.png,0,z,Thu Feb 06 2025 18:22:36 GMT-0600 (Central Standard Time),614339.8999999762,CFD-BF-042-031-HC.jpg,1700,dash,O,m,1079,1,1,48250.5,566089.3999999762,7044,ATS,C,17
11,test,3,C,haborder.png,0,m,Thu Feb 06 2025 18:22:36 GMT-0600 (Central Standard Time),617422.0999999642,CFD-BF-019-004-HC.jpg,1600,solid,O,z,1443,10,1,51332.69999998808,566089.3999999762,7044,ATS,C,18
11,test,3,C,haborder.png,0,m,Thu Feb 06 2025 18:22:36 GMT-0600 (Central Standard Time),619754.5999999642,CFD-BF-019-004-HC.jpg,1600,solid,O,z,672,10,1,53665.19999998808,566089.3999999762,7044,ATS,C,19
11,test,3,C,haborder.png,0,m,Thu Feb 06 2025 18:22:36 GMT-0600 (Central Standard Time),622570.3000000119,CFD-WF-001-010-HC.jpg,1500,solid,O,z,1273,11,1,56480.90000003576,566089.3999999762,7044,ATS,C,20
11,test,3,C,mfborder.png,0,z,Thu Feb 06 2025 18:22:36 GMT-0600 (Central Standard Time),625735.1999999881,CFD-BF-031-020-A.jpg,1600,dash,O,None,1504,2,1,59645.80000001192,566089.3999999762,7044,ATS,C,21
11,test,3,C,haborder.png,0,m,Thu Feb 06 2025 18:22:36 GMT-0600 (Central Standard Time),628201.8000000119,CFD-WF-013-009-HC.jpg,1000,solid,O,z,1430,12,1,62112.40000003576,566089.3999999762,7044,ATS,C,22
11,test,3,C,mfborder.png,0,m,Thu Feb 06 2025 18:22:36 GMT-0600 (Central Standard Time),631750.8000000119,CFD-WM-034-040-A.jpg,2000,dash,O,None,1511,5,1,65661.40000003576,566089.3999999762,7044,ATS,C,23
11,test,3,C,haborder.png,0,z,Thu Feb 06 2025 18:22:36 GMT-0600 (Central Standard Time),634249.6999999881,CFD-WM-036-018-A.jpg,1400,solid,O,m,1031,7,1,68160.30000001192,566089.3999999762,7044,ATS,C,24
0,test,4,C,mfborder.png,0,z,Thu Feb 06 2025 18:22:36 GMT-0600 (Central Standard Time),646746.0,CFD-BF-019-004-HC.jpg,1500,dash,O,None,1509,3,1,3065.900000035763,643680.0999999642,7044,ATS,C,1
0,test,4,C,haborder.png,0,z,Thu Feb 06 2025 18:22:36 GMT-0600 (Central Standard Time),650194.0,CFD-BF-002-018-A.jpg,1900,solid,O,None,1515,8,1,6513.900000035763,643680.0999999642,7044,ATS,C,2
1,test,4,C,haborder.png,1,z,Thu Feb 06 2025 18:22:36 GMT-0600 (Central Standard Time),653243.5999999642,CFD-BF-002-018-A.jpg,1900,solid,O,z,1115,8,1,9563.5,643680.0999999642,7044,ATS,C,3
2,test,4,C,haborder.png,1,m,Thu Feb 06 2025 18:22:36 GMT-0600 (Central Standard Time),655759.5999999642,CFD-WM-028-005-HC.jpg,1500,solid,O,m,950,11,1,12079.5,643680.0999999642,7044,ATS,C,4
3,test,4,C,haborder.png,1,m,Thu Feb 06 2025 18:22:36 GMT-0600 (Central Standard Time),658158.5,CFD-WM-028-005-HC.jpg,1500,solid,O,m,859,11,1,14478.400000035763,643680.0999999642,7044,ATS,C,5
4,test,4,C,haborder.png,1,m,Thu Feb 06 2025 18:22:36 GMT-0600 (Central Standard Time),660873.6999999881,CFD-BM-022-004-HC.jpg,1600,solid,O,m,1046,10,1,17193.600000023842,643680.0999999642,7044,ATS,C,6
5,test,4,C,haborder.png,1,m,Thu Feb 06 2025 18:22:36 GMT-0600 (Central Standard Time),662840.5,CFD-WM-028-005-HC.jpg,1000,solid,O,m,937,12,1,19160.400000035763,643680.0999999642,7044,ATS,C,7
6,test,4,C,haborder.png,1,m,Thu Feb 06 2025 18:22:36 GMT-0600 (Central Standard Time),665323.0,CFD-BM-022-004-HC.jpg,1600,solid,O,m,814,10,1,21642.900000035763,643680.0999999642,7044,ATS,C,8
7,test,4,C,haborder.png,1,m,Thu Feb 06 2025 18:22:36 GMT-0600 (Central Standard Time),666922.3999999762,CFD-WM-028-005-HC.jpg,1000,solid,O,m,555,12,1,23242.30000001192,643680.0999999642,7044,ATS,C,9
7,test,4,C,mfborder.png,0,m,Thu Feb 06 2025 18:22:36 GMT-0600 (Central Standard Time),669671.8000000119,CFD-WM-036-018-A.jpg,1200,dash,O,None,1510,6,1,25991.700000047684,643680.0999999642,7044,ATS,C,10
8,test,4,C,mfborder.png,1,z,Thu Feb 06 2025 18:22:36 GMT-0600 (Central Standard Time),672037.3999999762,CFD-BF-019-004-HC.jpg,1500,dash,O,z,819,3,1,28357.30000001192,643680.0999999642,7044,ATS,C,11
8,test,4,C,haborder.png,0,z,Thu Feb 06 2025 18:22:36 GMT-0600 (Central Standard Time),675203.0,CFD-WF-037-016-A.jpg,1700,solid,O,m,1420,9,1,31522.900000035763,643680.0999999642,7044,ATS,C,12
8,test,4,C,mfborder.png,0,m,Thu Feb 06 2025 18:22:36 GMT-0600 (Central Standard Time),678735.0,CFD-BM-043-014-A.jpg,2000,dash,O,z,1483,5,1,35054.90000003576,643680.0999999642,7044,ATS,C,13
8,test,4,C,mfborder.png,0,m,Thu Feb 06 2025 18:22:36 GMT-0600 (Central Standard Time),681184.5,CFD-WM-036-018-A.jpg,1200,dash,O,z,1199,6,1,37504.40000003576,643680.0999999642,7044,ATS,C,14
9,test,4,C,haborder.png,1,z,Thu Feb 06 2025 18:22:36 GMT-0600 (Central Standard Time),683966.8999999762,CFD-BF-031-020-A.jpg,1400,solid,O,z,1321,7,1,40286.80000001192,643680.0999999642,7044,ATS,C,15
10,test,4,C,haborder.png,1,z,Thu Feb 06 2025 18:22:36 GMT-0600 (Central Standard Time),686132.0999999642,CFD-BF-031-020-A.jpg,1400,solid,O,z,694,7,1,42452.0,643680.0999999642,7044,ATS,C,16
10,test,4,C,mfborder.png,0,m,Thu Feb 06 2025 18:22:36 GMT-0600 (Central Standard Time),688664.6999999881,CFD-BM-034-035-HC.jpg,1000,dash,O,None,1510,4,1,44984.60000002384,643680.0999999642,7044,ATS,C,17
11,test,4,C,mfborder.png,1,z,Thu Feb 06 2025 18:22:36 GMT-0600 (Central Standard Time),691198.0,CFD-WF-023-013-A.jpg,1600,dash,O,z,902,2,1,47517.90000003576,643680.0999999642,7044,ATS,C,18
11,test,4,C,mfborder.png,0,z,Thu Feb 06 2025 18:22:36 GMT-0600 (Central Standard Time),694447.0,CFD-WF-013-009-HC.jpg,1700,dash,O,None,1510,1,1,50766.90000003576,643680.0999999642,7044,ATS,C,19
11,test,4,C,mfborder.png,0,z,Thu Feb 06 2025 18:22:36 GMT-0600 (Central Standard Time),696979.3000000119,CFD-WF-013-009-HC.jpg,1700,dash,O,m,763,1,1,53299.200000047684,643680.0999999642,7044,ATS,C,20
12,test,4,C,haborder.png,1,z,Thu Feb 06 2025 18:22:36 GMT-0600 (Central Standard Time),699794.8000000119,CFD-WF-037-016-A.jpg,1700,solid,O,z,1071,9,1,56114.700000047684,643680.0999999642,7044,ATS,C,21
13,test,4,C,mfborder.png,1,z,Thu Feb 06 2025 18:22:36 GMT-0600 (Central Standard Time),702810.6999999881,CFD-WF-023-013-A.jpg,1600,dash,O,z,1346,2,1,59130.60000002384,643680.0999999642,7044,ATS,C,22
13,test,4,C,mfborder.png,0,m,Thu Feb 06 2025 18:22:36 GMT-0600 (Central Standard Time),706109.8999999762,CFD-BM-043-014-A.jpg,2000,dash,O,z,1260,5,1,62429.80000001192,643680.0999999642,7044,ATS,C,23
14,test,4,C,mfborder.png,1,m,Thu Feb 06 2025 18:22:36 GMT-0600 (Central Standard Time),708043.3999999762,CFD-BM-034-035-HC.jpg,1000,dash,O,m,894,4,1,64363.30000001192,643680.0999999642,7044,ATS,C,24
