acc_sum,block,block_c,condition,correct,correct_response,datetime,endtime,flanker,jitter,project,response,response_test_buffer_response,response_test_target_response,response_time,response_time_test_buffer_response,response_time_test_target_response,row_sel,session_number,start_end,starttime,subject_id,target,task,task_vers,time_test_buffer,time_test_buffer_response,time_test_constants,time_test_flanker,time_test_jitter,time_test_logger,time_test_target,time_test_target_response,time_test_variables,trial
1,prac,1,con,1,m,Wed Apr 16 2025 13:39:37 GMT-0400 (Eastern Daylight Time),107963.0,remote,1000,I,m,,,1257,,,7,1,3557.300000190735,104405.69999980927,9014,remote,AF,B,,,,,,,,,,1
1,prac,1,inc,0,z,Wed Apr 16 2025 13:39:37 GMT-0400 (Eastern Daylight Time),111046.0,napkin,1100,I,m,,,679,,,12,1,3069.7000007629395,107976.29999923706,9014,friend,AF,B,,,,,,,,,,2
2,prac,1,inc,1,m,Wed Apr 16 2025 13:39:37 GMT-0400 (Eastern Daylight Time),114096.29999923706,brutal,1100,I,m,,,636,,,8,1,3040.5999994277954,111055.69999980927,9014,window,AF,B,,,,,,,,,,3
3,prac,1,con,1,m,Wed Apr 16 2025 13:39:37 GMT-0400 (Eastern Daylight Time),116746.19999980927,step,800,I,m,,,544,,,1,1,2639.6000003814697,114106.5999994278,9014,step,AF,B,,,,,,,,,,4
4,prac,1,con,1,m,Wed Apr 16 2025 13:39:37 GMT-0400 (Eastern Daylight Time),119379.69999980927,jacket,800,I,m,,,516,,,5,1,2623.199999809265,116756.5,9014,jacket,AF,B,,,,,,,,,,5
5,prac,1,con,1,z,Wed Apr 16 2025 13:39:37 GMT-0400 (Eastern Daylight Time),122212.89999961853,love,1000,I,z,,,530,,,11,1,2823.0,119389.89999961853,9014,love,AF,B,,,,,,,,,,6
6,prac,1,inc,1,m,Wed Apr 16 2025 13:39:37 GMT-0400 (Eastern Daylight Time),124996.0999994278,elated,900,I,m,,,581,,,6,1,2774.5999994277954,122221.5,9014,napkin,AF,B,,,,,,,,,,7
7,prac,1,inc,1,z,Wed Apr 16 2025 13:39:37 GMT-0400 (Eastern Daylight Time),127963.0,window,1100,I,z,,,558,,,16,1,2957.6000003814697,125005.39999961853,9014,temper,AF,B,,,,,,,,,,8
7,prac,1,con,0,z,Wed Apr 16 2025 13:39:37 GMT-0400 (Eastern Daylight Time),130446.29999923706,elated,800,I,m,,,371,,,9,1,2474.7999992370605,127971.5,9014,elated,AF,B,,,,,,,,,,9
8,prac,1,inc,1,m,Wed Apr 16 2025 13:39:37 GMT-0400 (Eastern Daylight Time),133112.89999961853,kind,900,I,m,,,460,,,2,1,2656.800000190735,130456.0999994278,9014,rock,AF,B,,,,,,,,,,10
9,prac,1,con,1,z,Wed Apr 16 2025 13:39:37 GMT-0400 (Eastern Daylight Time),135862.79999923706,brutal,800,I,z,,,645,,,13,1,2739.199999809265,133123.5999994278,9014,brutal,AF,B,,,,,,,,,,11
10,prac,1,con,1,m,Wed Apr 16 2025 13:39:37 GMT-0400 (Eastern Daylight Time),138596.19999980927,bell,1000,I,m,,,416,,,3,1,2723.800000190735,135872.39999961853,9014,bell,AF,B,,,,,,,,,,12
11,prac,1,con,1,z,Wed Apr 16 2025 13:39:37 GMT-0400 (Eastern Daylight Time),141346.19999980927,rage,1000,I,z,,,434,,,15,1,2740.300000190735,138605.89999961853,9014,rage,AF,B,,,,,,,,,,13
12,prac,1,inc,1,z,Wed Apr 16 2025 13:39:37 GMT-0400 (Eastern Daylight Time),144162.79999923706,film,900,I,z,,,600,,,14,1,2805.2999992370605,141357.5,9014,hate,AF,B,,,,,,,,,,14
13,prac,1,inc,1,z,Wed Apr 16 2025 13:39:37 GMT-0400 (Eastern Daylight Time),146945.5999994278,rock,900,I,z,,,567,,,10,1,2773.300000190735,144172.29999923706,9014,kind,AF,B,,,,,,,,,,15
14,prac,1,inc,1,m,Wed Apr 16 2025 13:39:37 GMT-0400 (Eastern Daylight Time),150029.5,hate,1100,I,m,,,672,,,4,1,3078.0,146951.5,9014,film,AF,B,,,,,,,,,,16
1,test,1,con,1,m,Wed Apr 16 2025 13:39:37 GMT-0400 (Eastern Daylight Time),163446.0999994278,jacket,1100,I,m,m,None,581,382.0,199.0,100,1,2208.3999996185303,161237.69999980927,9014,jacket,AF,B,158497,158497,156672,157781,156672,158880,158298,158298,158880,1
2,test,1,con,1,m,Wed Apr 16 2025 13:39:37 GMT-0400 (Eastern Daylight Time),165146.29999923706,film,800,I,m,m,None,360,161.0,199.0,89,1,1692.0,163454.29999923706,9014,film,AF,B,160414,160414,158888,159698,158889,160580,160214,160214,160580,2
3,test,1,inc,1,m,Wed Apr 16 2025 13:39:37 GMT-0400 (Eastern Daylight Time),167179.39999961853,love,1000,I,m,m,None,492,293.0,199.0,87,1,2023.3000001907349,165156.0999994278,9014,bell,AF,B,162314,162314,160590,161597,160591,162614,162114,162114,162613,3
4,test,1,inc,1,m,Wed Apr 16 2025 13:39:37 GMT-0400 (Eastern Daylight Time),168979.29999923706,rage,800,I,m,m,None,451,252.0,199.0,93,1,1790.7999992370605,167188.5,9014,film,AF,B,164147,164147,162623,163431,162623,164413,163948,163948,164413,4
5,test,1,con,1,m,Wed Apr 16 2025 13:39:37 GMT-0400 (Eastern Daylight Time),170762.69999980927,remote,800,I,m,m,None,443,244.0,199.0,113,1,1773.6999998092651,168989.0,9014,remote,AF,B,165947,165947,164423,165231,164423,166197,165748,165748,166197,5
6,test,1,inc,1,m,Wed Apr 16 2025 13:39:37 GMT-0400 (Eastern Daylight Time),172779.39999961853,brutal,900,I,m,m,None,576,376.0,200.0,102,1,2006.6999998092651,170772.69999980927,9014,jacket,AF,B,167831,167831,166207,167114,166207,168214,167630,167630,168213,6
7,test,1,con,1,m,Wed Apr 16 2025 13:39:37 GMT-0400 (Eastern Daylight Time),174479.5,step,800,I,m,m,None,355,156.0,199.0,65,1,1691.5,172788.0,9014,step,AF,B,169747,169747,168222,169031,168223,169914,169548,169548,169913,7
8,test,1,inc,1,m,Wed Apr 16 2025 13:39:37 GMT-0400 (Eastern Daylight Time),176446.0,elated,800,I,m,m,None,622,407.0,215.0,125,1,1957.1000003814697,174488.89999961853,9014,window,AF,B,171464,171464,169923,170731,169924,171880,171248,171248,171880,8
9,test,1,con,1,m,Wed Apr 16 2025 13:39:37 GMT-0400 (Eastern Daylight Time),178446.0999994278,window,1000,I,m,m,None,456,257.0,199.0,123,1,1990.5,176455.5999994278,9014,window,AF,B,173614,173614,171890,172897,171890,173880,173414,173414,173880,9
9,test,1,con,0,z,Wed Apr 16 2025 13:39:37 GMT-0400 (Eastern Daylight Time),180529.19999980927,temper,1100,I,m,m,None,436,237.0,199.0,60,1,2074.199999809265,178455.0,9014,temper,AF,B,175714,175714,173889,174997,173890,175963,175514,175514,175963,10
9,test,1,inc,0,z,Wed Apr 16 2025 13:39:37 GMT-0400 (Eastern Daylight Time),182379.29999923706,remote,1000,I,m,m,None,309,110.0,199.0,31,1,1838.6999998092651,180540.5999994278,9014,friend,AF,B,177697,177697,175975,176980,175975,177813,177497,177498,177813,11
10,test,1,inc,1,m,Wed Apr 16 2025 13:39:37 GMT-0400 (Eastern Daylight Time),184329.29999923706,kind,900,I,m,m,None,511,312.0,199.0,70,1,1937.3999996185303,182391.89999961853,9014,step,AF,B,179447,179447,177826,178731,177826,179763,179248,179248,179763,12
11,test,1,con,1,z,Wed Apr 16 2025 13:39:37 GMT-0400 (Eastern Daylight Time),186279.19999980927,kind,900,I,z,z,None,512,297.0,215.0,10,1,1941.3000001907349,184337.89999961853,9014,kind,AF,B,181414,181414,179772,180681,179773,181713,181197,181198,181713,13
12,test,1,inc,1,m,Wed Apr 16 2025 13:39:37 GMT-0400 (Eastern Daylight Time),188512.89999961853,temper,1000,I,m,m,None,687,488.0,199.0,127,1,2222.6000003814697,186290.29999923706,9014,window,AF,B,183447,183447,181724,182731,181725,183947,183247,183248,183947,14
12,test,1,con,0,z,Wed Apr 16 2025 13:39:37 GMT-0400 (Eastern Daylight Time),190446.0999994278,elated,900,I,m,m,None,489,290.0,199.0,2,1,1924.6999998092651,188521.39999961853,9014,elated,AF,B,185581,185581,183955,184864,183956,185880,185381,185381,185880,15
12,test,1,con,0,z,Wed Apr 16 2025 13:39:37 GMT-0400 (Eastern Daylight Time),192546.0,friend,1100,I,m,m,None,452,253.0,199.0,28,1,2089.4000005722046,190456.5999994278,9014,friend,AF,B,187714,187714,185891,186997,185891,187980,187514,187514,187980,16
13,test,1,con,1,m,Wed Apr 16 2025 13:39:37 GMT-0400 (Eastern Daylight Time),194262.39999961853,jacket,800,I,m,m,None,380,181.0,199.0,97,1,1706.6000003814697,192555.79999923706,9014,jacket,AF,B,189514,189514,187990,188797,187990,189697,189314,189314,189696,17
14,test,1,con,1,m,Wed Apr 16 2025 13:39:37 GMT-0400 (Eastern Daylight Time),196312.79999923706,step,1000,I,m,m,None,512,313.0,199.0,67,1,2041.5999994277954,194271.19999980927,9014,step,AF,B,191431,191431,189705,190714,189706,191747,191231,191231,191747,18
15,test,1,con,1,z,Wed Apr 16 2025 13:39:37 GMT-0400 (Eastern Daylight Time),198095.89999961853,love,900,I,z,z,None,337,138.0,199.0,18,1,1773.1999998092651,196322.69999980927,9014,love,AF,B,193381,193381,191757,192664,191757,193530,193181,193181,193530,19
16,test,1,con,1,m,Wed Apr 16 2025 13:39:37 GMT-0400 (Eastern Daylight Time),199996.0,napkin,1000,I,m,m,None,358,159.0,199.0,107,1,1892.4000005722046,198103.5999994278,9014,napkin,AF,B,195264,195264,193538,194547,193538,195430,195064,195064,195430,20
17,test,1,con,1,m,Wed Apr 16 2025 13:39:37 GMT-0400 (Eastern Daylight Time),202145.89999961853,remote,900,I,m,m,None,702,503.0,199.0,114,1,2139.8999996185303,200006.0,9014,remote,AF,B,197064,197064,195440,196347,195441,197580,196864,196864,197580,21
18,test,1,con,1,z,Wed Apr 16 2025 13:39:37 GMT-0400 (Eastern Daylight Time),204145.79999923706,rage,1000,I,z,z,None,452,253.0,199.0,51,1,1989.0,202156.79999923706,9014,rage,AF,B,199314,199314,197591,198597,197591,199580,199114,199114,199580,22
19,test,1,inc,1,m,Wed Apr 16 2025 13:39:37 GMT-0400 (Eastern Daylight Time),206095.89999961853,brutal,900,I,m,m,None,504,305.0,199.0,126,1,1940.6000003814697,204155.29999923706,9014,window,AF,B,201214,201214,199589,200497,199590,201530,201014,201014,201530,23
20,test,1,con,1,z,Wed Apr 16 2025 13:39:37 GMT-0400 (Eastern Daylight Time),208029.29999923706,love,1000,I,z,z,None,390,191.0,199.0,19,1,1922.5999994277954,206106.69999980927,9014,love,AF,B,203264,203264,201541,202547,201541,203463,203064,203064,203463,24
21,test,1,inc,1,m,Wed Apr 16 2025 13:39:37 GMT-0400 (Eastern Daylight Time),210046.0999994278,temper,1000,I,m,m,None,474,274.0,200.0,119,1,2007.3999996185303,208038.69999980927,9014,remote,AF,B,205197,205197,203473,204481,203473,205480,204997,204997,205480,25
22,test,1,con,1,m,Wed Apr 16 2025 13:39:37 GMT-0400 (Eastern Daylight Time),212362.5999994278,remote,1100,I,m,m,None,676,477.0,199.0,116,1,2307.699999809265,210054.89999961853,9014,remote,AF,B,207314,207314,205489,206597,205489,207797,207114,207114,207797,26
23,test,1,inc,1,m,Wed Apr 16 2025 13:39:37 GMT-0400 (Eastern Daylight Time),214496.0,hate,1100,I,m,m,None,487,288.0,199.0,72,1,2124.5,212371.5,9014,step,AF,B,209630,209631,207806,208914,207806,209930,209431,209431,209930,27
23,test,1,inc,0,z,Wed Apr 16 2025 13:39:37 GMT-0400 (Eastern Daylight Time),216896.0,remote,1000,I,m,m,None,854,655.0,199.0,7,1,2391.9000005722046,214504.0999994278,9014,elated,AF,B,211664,211664,209938,210947,209939,212330,211464,211464,212330,28
24,test,1,inc,1,m,Wed Apr 16 2025 13:39:37 GMT-0400 (Eastern Daylight Time),218912.5999994278,kind,900,I,m,m,None,570,371.0,199.0,94,1,2007.6999998092651,216904.89999961853,9014,film,AF,B,213964,213964,212339,213247,212339,214347,213764,213764,214347,29
25,test,1,con,1,m,Wed Apr 16 2025 13:39:37 GMT-0400 (Eastern Daylight Time),221179.29999923706,rock,1000,I,m,m,None,725,526.0,199.0,75,1,2257.199999809265,218922.0999994278,9014,rock,AF,B,216080,216081,214356,215364,214357,216613,215881,215881,216613,30
26,test,1,inc,1,m,Wed Apr 16 2025 13:39:37 GMT-0400 (Eastern Daylight Time),223029.19999980927,rage,800,I,m,m,None,499,300.0,199.0,69,1,1840.9000005722046,221188.29999923706,9014,step,AF,B,218147,218147,216622,217430,216623,218463,217947,217947,218463,31
27,test,1,inc,1,m,Wed Apr 16 2025 13:39:37 GMT-0400 (Eastern Daylight Time),224879.29999923706,elated,800,I,m,m,None,506,306.0,200.0,117,1,1840.8999996185303,223038.39999961853,9014,remote,AF,B,219997,219997,218472,219281,218473,220313,219797,219797,220313,32
27,test,1,inc,0,z,Wed Apr 16 2025 13:39:37 GMT-0400 (Eastern Daylight Time),226712.5,jacket,800,I,m,m,None,495,296.0,199.0,5,1,1824.6000003814697,224887.89999961853,9014,elated,AF,B,221847,221847,220322,221131,220322,222147,221647,221647,222147,33
28,test,1,inc,1,z,Wed Apr 16 2025 13:39:37 GMT-0400 (Eastern Daylight Time),228762.69999980927,step,800,I,z,z,None,709,510.0,199.0,53,1,2041.0,226721.69999980927,9014,rage,AF,B,223681,223681,222156,222964,222156,224197,223481,223481,224197,34
29,test,1,con,1,m,Wed Apr 16 2025 13:39:37 GMT-0400 (Eastern Daylight Time),230812.79999923706,bell,800,I,m,m,None,707,508.0,199.0,81,1,2039.5999994277954,228773.19999980927,9014,bell,AF,B,225731,225731,224207,225014,224208,226247,225531,225531,226247,35
30,test,1,con,1,m,Wed Apr 16 2025 13:39:37 GMT-0400 (Eastern Daylight Time),232645.69999980927,film,900,I,m,m,None,398,199.0,199.0,90,1,1824.6999998092651,230821.0,9014,film,AF,B,227880,227880,226255,227164,226256,228080,227681,227681,228080,36
31,test,1,inc,1,z,Wed Apr 16 2025 13:39:37 GMT-0400 (Eastern Daylight Time),234746.0,napkin,900,I,z,z,None,660,461.0,199.0,30,1,2092.5,232653.5,9014,friend,AF,B,229714,229714,228088,228997,228088,230180,229514,229514,230180,37
32,test,1,inc,1,z,Wed Apr 16 2025 13:39:37 GMT-0400 (Eastern Daylight Time),236879.39999961853,rock,900,I,z,z,None,688,489.0,199.0,54,1,2125.0,234754.39999961853,9014,rage,AF,B,231814,231814,230188,231097,230189,232313,231614,231614,232313,38
32,test,1,con,0,z,Wed Apr 16 2025 13:39:37 GMT-0400 (Eastern Daylight Time),238962.5,brutal,1100,I,m,m,None,435,236.0,199.0,36,1,2074.6000003814697,236887.89999961853,9014,brutal,AF,B,234147,234147,232322,233431,232322,234397,233947,233947,234396,39
33,test,1,con,1,m,Wed Apr 16 2025 13:39:37 GMT-0400 (Eastern Daylight Time),240978.89999961853,window,1100,I,m,m,None,369,170.0,199.0,124,1,2007.1999998092651,238971.69999980927,9014,window,AF,B,236230,236231,234406,235514,234406,236413,236031,236031,236413,40
34,test,1,inc,1,z,Wed Apr 16 2025 13:39:37 GMT-0400 (Eastern Daylight Time),243012.5,rock,900,I,z,z,None,583,384.0,199.0,46,1,2027.8000001907349,240984.69999980927,9014,hate,AF,B,238047,238047,236419,237331,236419,238447,237847,237847,238446,41
35,test,1,inc,1,z,Wed Apr 16 2025 13:39:37 GMT-0400 (Eastern Daylight Time),244962.79999923706,step,800,I,z,z,None,601,402.0,199.0,13,1,1941.5999994277954,243021.19999980927,9014,kind,AF,B,239981,239981,238455,239264,238456,240397,239781,239781,240397,42
36,test,1,inc,1,m,Wed Apr 16 2025 13:39:37 GMT-0400 (Eastern Daylight Time),247012.79999923706,love,1000,I,m,m,None,499,300.0,199.0,79,1,2041.1999998092651,244971.5999994278,9014,rock,AF,B,242130,242131,240406,241414,240406,242447,241931,241931,242447,43
37,test,1,inc,1,z,Wed Apr 16 2025 13:39:37 GMT-0400 (Eastern Daylight Time),249196.0,napkin,900,I,z,z,None,741,542.0,199.0,62,1,2172.9000005722046,247023.0999994278,9014,temper,AF,B,244081,244081,242457,243364,242458,244630,243881,243881,244630,44
38,test,1,con,1,m,Wed Apr 16 2025 13:39:37 GMT-0400 (Eastern Daylight Time),251312.69999980927,jacket,1000,I,m,m,None,570,371.0,199.0,99,1,2107.300000190735,249205.39999961853,9014,jacket,AF,B,246364,246364,244639,245647,244640,246747,246164,246164,246747,45
39,test,1,inc,1,z,Wed Apr 16 2025 13:39:37 GMT-0400 (Eastern Daylight Time),253595.89999961853,window,1100,I,z,z,None,641,442.0,199.0,8,1,2273.1000003814697,251322.79999923706,9014,elated,AF,B,248581,248581,246757,247864,246757,249030,248381,248381,249030,46
40,test,1,inc,1,z,Wed Apr 16 2025 13:39:37 GMT-0400 (Eastern Daylight Time),255612.5999994278,step,800,I,z,z,None,675,476.0,199.0,21,1,2007.5999994277954,253605.0,9014,love,AF,B,250563,250563,249039,249847,249039,251047,250364,250364,251047,47
41,test,1,inc,1,m,Wed Apr 16 2025 13:39:37 GMT-0400 (Eastern Daylight Time),257645.89999961853,kind,900,I,m,m,None,590,391.0,199.0,86,1,2023.5,255622.39999961853,9014,bell,AF,B,252680,252680,251056,251964,251057,253080,252481,252481,253080,48
41,test,1,inc,0,z,Wed Apr 16 2025 13:39:37 GMT-0400 (Eastern Daylight Time),260012.5999994278,jacket,800,I,m,m,None,1024,825.0,199.0,29,1,2356.800000190735,257655.79999923706,9014,friend,AF,B,254614,254614,253090,253897,253090,255447,254414,254414,255447,49
42,test,1,con,1,m,Wed Apr 16 2025 13:39:37 GMT-0400 (Eastern Daylight Time),261996.0,film,1000,I,m,m,None,442,243.0,199.0,91,1,1973.7000007629395,260022.29999923706,9014,film,AF,B,257180,257180,255456,256464,255457,257430,256981,256981,257430,50
43,test,1,con,1,m,Wed Apr 16 2025 13:39:37 GMT-0400 (Eastern Daylight Time),263979.19999980927,step,900,I,m,m,None,542,343.0,199.0,66,1,1973.6999998092651,262005.5,9014,step,AF,B,259064,259064,257440,258347,257440,259413,258864,258864,259413,51
44,test,1,con,1,m,Wed Apr 16 2025 13:39:37 GMT-0400 (Eastern Daylight Time),265995.79999923706,bell,1000,I,m,m,None,475,276.0,199.0,83,1,2007.8999996185303,263987.89999961853,9014,bell,AF,B,261147,261147,259422,260431,259422,261430,260947,260947,261430,52
45,test,1,inc,1,z,Wed Apr 16 2025 13:39:37 GMT-0400 (Eastern Daylight Time),268095.69999980927,bell,1000,I,z,z,None,554,355.0,199.0,15,1,2090.6000003814697,266005.0999994278,9014,kind,AF,B,263164,263164,261439,262447,261439,263530,262964,262964,263530,53
45,test,1,inc,0,z,Wed Apr 16 2025 13:39:37 GMT-0400 (Eastern Daylight Time),270029.19999980927,jacket,800,I,m,m,None,590,391.0,199.0,61,1,1924.4000005722046,268104.79999923706,9014,temper,AF,B,265064,265064,263539,264347,263539,265463,264864,264864,265463,54
46,test,1,inc,1,m,Wed Apr 16 2025 13:39:37 GMT-0400 (Eastern Daylight Time),272079.39999961853,temper,1000,I,m,m,None,505,306.0,199.0,111,1,2041.1000003814697,270038.29999923706,9014,napkin,AF,B,267197,267197,265472,266480,265473,267513,266997,266997,267513,55
47,test,1,con,1,z,Wed Apr 16 2025 13:39:37 GMT-0400 (Eastern Daylight Time),274329.19999980927,temper,1000,I,z,z,None,711,512.0,199.0,59,1,2241.300000190735,272087.89999961853,9014,temper,AF,B,269247,269247,267522,268531,267522,269763,269047,269047,269763,56
48,test,1,con,1,z,Wed Apr 16 2025 13:39:37 GMT-0400 (Eastern Daylight Time),276145.79999923706,brutal,800,I,z,z,None,468,253.0,215.0,33,1,1807.6999998092651,274338.0999994278,9014,brutal,AF,B,271314,271314,269772,270580,269773,271580,271098,271098,271580,57
48,test,1,inc,0,z,Wed Apr 16 2025 13:39:37 GMT-0400 (Eastern Daylight Time),278595.79999923706,window,1100,I,m,m,None,800,601.0,199.0,32,1,2442.0999994277954,276153.69999980927,9014,friend,AF,B,273414,273414,271588,272697,271588,274030,273214,273214,274030,58
49,test,1,inc,1,m,Wed Apr 16 2025 13:39:37 GMT-0400 (Eastern Daylight Time),280579.0999994278,elated,800,I,m,m,None,634,435.0,199.0,101,1,1974.0999994277954,278605.0,9014,jacket,AF,B,275564,275564,274039,274847,274039,276013,275364,275364,276013,59
50,test,1,con,1,z,Wed Apr 16 2025 13:39:37 GMT-0400 (Eastern Daylight Time),282479.29999923706,kind,800,I,z,z,None,556,356.0,200.0,9,1,1892.1999998092651,280587.0999994278,9014,kind,AF,B,277547,277547,276021,276831,276022,277913,277347,277347,277913,60
51,test,1,con,1,z,Wed Apr 16 2025 13:39:37 GMT-0400 (Eastern Daylight Time),284912.69999980927,elated,1000,I,z,z,None,887,688.0,199.0,3,1,2424.199999809265,282488.5,9014,elated,AF,B,279647,279647,277923,278931,277923,280347,279447,279447,280347,61
51,test,1,con,0,z,Wed Apr 16 2025 13:39:37 GMT-0400 (Eastern Daylight Time),287179.39999961853,friend,1000,I,m,m,None,725,526.0,199.0,27,1,2257.6000003814697,284921.79999923706,9014,friend,AF,B,282081,282081,280356,281364,280356,282613,281881,281881,282613,62
51,test,1,con,0,z,Wed Apr 16 2025 13:39:37 GMT-0400 (Eastern Daylight Time),288995.79999923706,friend,800,I,m,m,None,467,268.0,199.0,25,1,1807.5,287188.29999923706,9014,friend,AF,B,284147,284147,282622,283430,282623,284430,283947,283947,284430,63
52,test,1,inc,1,m,Wed Apr 16 2025 13:39:37 GMT-0400 (Eastern Daylight Time),290979.5,elated,800,I,m,m,None,634,435.0,199.0,109,1,1975.8000001907349,289003.69999980927,9014,napkin,AF,B,285964,285964,284438,285247,284438,286414,285764,285764,286413,64
53,test,1,con,1,m,Wed Apr 16 2025 13:39:37 GMT-0400 (Eastern Daylight Time),292879.0999994278,bell,900,I,m,m,None,455,256.0,199.0,82,1,1888.3999996185303,290990.69999980927,9014,bell,AF,B,288047,288047,286425,287331,286425,288313,287847,287847,288313,65
54,test,1,con,1,z,Wed Apr 16 2025 13:39:37 GMT-0400 (Eastern Daylight Time),294912.5,love,1100,I,z,z,None,387,188.0,199.0,20,1,2024.2000007629395,292888.29999923706,9014,love,AF,B,290147,290147,288322,289431,288323,290347,289947,289948,290346,66
55,test,1,inc,1,m,Wed Apr 16 2025 13:39:37 GMT-0400 (Eastern Daylight Time),296929.39999961853,love,1000,I,m,m,None,470,271.0,199.0,71,1,2007.5,294921.89999961853,9014,step,AF,B,292080,292080,290356,291364,290356,292364,291881,291881,292363,67
56,test,1,inc,1,m,Wed Apr 16 2025 13:39:37 GMT-0400 (Eastern Daylight Time),299045.89999961853,temper,1000,I,m,m,None,581,382.0,199.0,103,1,2107.300000190735,296938.5999994278,9014,jacket,AF,B,294097,294097,292373,293380,292373,294480,293897,293897,294480,68
57,test,1,con,1,z,Wed Apr 16 2025 13:39:37 GMT-0400 (Eastern Daylight Time),301029.5999994278,hate,1000,I,z,z,None,448,249.0,199.0,43,1,1975.5999994277954,299054.0,9014,hate,AF,B,296214,296214,294488,295497,294489,296464,296014,296014,296464,69
58,test,1,inc,1,m,Wed Apr 16 2025 13:39:37 GMT-0400 (Eastern Daylight Time),303212.5999994278,hate,1100,I,m,m,None,541,342.0,199.0,80,1,2174.3999996185303,301038.19999980927,9014,rock,AF,B,298297,298297,296472,297581,296473,298647,298097,298097,298647,70
59,test,1,con,1,m,Wed Apr 16 2025 13:39:37 GMT-0400 (Eastern Daylight Time),305145.89999961853,jacket,900,I,m,m,None,494,295.0,199.0,98,1,1924.1000003814697,303221.79999923706,9014,jacket,AF,B,300280,300280,298656,299564,298656,300580,300081,300081,300580,71
60,test,1,inc,1,z,Wed Apr 16 2025 13:39:37 GMT-0400 (Eastern Daylight Time),307295.89999961853,film,1100,I,z,z,None,504,305.0,199.0,48,1,2141.6000003814697,305154.29999923706,9014,hate,AF,B,302414,302414,300588,301698,300589,302730,302214,302214,302730,72
61,test,1,con,1,m,Wed Apr 16 2025 13:39:37 GMT-0400 (Eastern Daylight Time),309195.89999961853,window,900,I,m,m,None,458,259.0,199.0,122,1,1891.6000003814697,307304.29999923706,9014,window,AF,B,304364,304364,302738,303647,302739,304630,304164,304164,304630,73
62,test,1,con,1,m,Wed Apr 16 2025 13:39:37 GMT-0400 (Eastern Daylight Time),311095.79999923706,napkin,800,I,m,m,None,562,363.0,199.0,105,1,1890.7999992370605,309205.0,9014,napkin,AF,B,306163,306164,304639,305447,304640,306530,305964,305964,306530,74
63,test,1,inc,1,z,Wed Apr 16 2025 13:39:37 GMT-0400 (Eastern Daylight Time),313245.5,window,1100,I,z,z,None,505,306.0,199.0,40,1,2141.1000003814697,311104.39999961853,9014,brutal,AF,B,308363,308364,306538,307647,306539,308680,308164,308164,308680,75
64,test,1,inc,1,m,Wed Apr 16 2025 13:39:37 GMT-0400 (Eastern Daylight Time),315429.0,hate,1100,I,m,m,None,532,333.0,199.0,88,1,2176.7000007629395,313252.29999923706,9014,bell,AF,B,310514,310514,308686,309797,308687,310863,310314,310314,310863,76
65,test,1,inc,1,m,Wed Apr 16 2025 13:39:37 GMT-0400 (Eastern Daylight Time),317462.19999980927,brutal,900,I,m,m,None,597,398.0,199.0,110,1,2024.9000005722046,315437.29999923706,9014,napkin,AF,B,312497,312497,310871,311781,310872,312896,312297,312297,312896,77
66,test,1,inc,1,z,Wed Apr 16 2025 13:39:37 GMT-0400 (Eastern Daylight Time),319629.29999923706,film,1100,I,z,z,None,524,325.0,199.0,24,1,2159.199999809265,317470.0999994278,9014,love,AF,B,314730,314730,312904,314014,312905,315063,314531,314531,315063,78
67,test,1,con,1,z,Wed Apr 16 2025 13:39:37 GMT-0400 (Eastern Daylight Time),321829.0,rage,1100,I,z,z,None,549,350.0,199.0,52,1,2190.9000005722046,319638.0999994278,9014,rage,AF,B,316897,316897,315072,316180,315073,317263,316697,316697,317263,79
68,test,1,con,1,z,Wed Apr 16 2025 13:39:37 GMT-0400 (Eastern Daylight Time),323729.19999980927,rage,900,I,z,z,None,453,254.0,199.0,50,1,1892.1999998092651,321837.0,9014,rage,AF,B,318897,318897,317271,318180,317272,319163,318697,318697,319163,80
69,test,1,inc,1,m,Wed Apr 16 2025 13:39:37 GMT-0400 (Eastern Daylight Time),325795.89999961853,friend,1100,I,m,m,None,417,218.0,199.0,112,1,2057.199999809265,323738.69999980927,9014,napkin,AF,B,320997,320997,319173,320281,319173,321230,320797,320797,321230,81
70,test,1,con,1,m,Wed Apr 16 2025 13:39:37 GMT-0400 (Eastern Daylight Time),328095.79999923706,rock,1100,I,m,m,None,655,456.0,199.0,76,1,2291.2999992370605,325804.5,9014,rock,AF,B,323063,323063,321239,322346,321239,323530,322864,322864,323530,82
71,test,1,inc,1,z,Wed Apr 16 2025 13:39:37 GMT-0400 (Eastern Daylight Time),330196.0999994278,rock,900,I,z,z,None,650,451.0,199.0,14,1,2091.800000190735,328104.29999923706,9014,kind,AF,B,325164,325164,323538,324447,323539,325630,324964,324964,325630,83
72,test,1,inc,1,z,Wed Apr 16 2025 13:39:37 GMT-0400 (Eastern Daylight Time),332312.5,bell,1000,I,z,z,None,578,379.0,199.0,47,1,2107.800000190735,330204.69999980927,9014,hate,AF,B,327364,327364,325639,326647,325639,327747,327164,327164,327746,84
73,test,1,inc,1,m,Wed Apr 16 2025 13:39:37 GMT-0400 (Eastern Daylight Time),334329.0999994278,kind,900,I,m,m,None,578,379.0,199.0,78,1,2008.0,332321.0999994278,9014,rock,AF,B,329380,329380,327755,328664,327756,329763,329181,329181,329763,85
74,test,1,inc,1,z,Wed Apr 16 2025 13:39:37 GMT-0400 (Eastern Daylight Time),336529.19999980927,film,1100,I,z,z,None,553,354.0,199.0,56,1,2191.9000005722046,334337.29999923706,9014,rage,AF,B,331597,331597,329771,330880,329772,331963,331397,331397,331963,86
75,test,1,inc,1,m,Wed Apr 16 2025 13:39:37 GMT-0400 (Eastern Daylight Time),338695.69999980927,hate,1100,I,m,m,None,529,330.0,199.0,96,1,2158.0,336537.69999980927,9014,film,AF,B,333797,333797,331972,333080,331972,334130,333597,333597,334130,87
76,test,1,inc,1,m,Wed Apr 16 2025 13:39:37 GMT-0400 (Eastern Daylight Time),340929.19999980927,friend,1100,I,m,m,None,586,387.0,199.0,128,1,2223.199999809265,338706.0,9014,window,AF,B,335964,335964,334140,335247,334140,336363,335764,335764,336363,88
77,test,1,con,1,z,Wed Apr 16 2025 13:39:37 GMT-0400 (Eastern Daylight Time),343028.69999980927,hate,900,I,z,z,None,648,449.0,199.0,42,1,2090.300000190735,340938.39999961853,9014,hate,AF,B,337997,337997,336372,337280,336373,338463,337797,337797,338463,89
77,test,1,con,0,z,Wed Apr 16 2025 13:39:37 GMT-0400 (Eastern Daylight Time),345046.0,friend,900,I,m,m,None,581,382.0,199.0,26,1,2009.6000003814697,343036.39999961853,9014,friend,AF,B,340097,340097,338470,339381,338471,340480,339897,339897,340480,90
78,test,1,con,1,m,Wed Apr 16 2025 13:39:37 GMT-0400 (Eastern Daylight Time),347179.0999994278,film,1100,I,m,m,None,492,293.0,199.0,92,1,2122.800000190735,345056.29999923706,9014,film,AF,B,342313,342314,340490,341597,340491,342613,342114,342114,342613,91
79,test,1,inc,1,z,Wed Apr 16 2025 13:39:37 GMT-0400 (Eastern Daylight Time),349412.39999961853,window,1100,I,z,z,None,583,384.0,199.0,64,1,2224.199999809265,347188.19999980927,9014,temper,AF,B,344447,344447,342622,343730,342623,344846,344247,344247,344846,92
80,test,1,inc,1,z,Wed Apr 16 2025 13:39:37 GMT-0400 (Eastern Daylight Time),351345.89999961853,step,800,I,z,z,None,587,387.0,200.0,45,1,1924.8999996185303,349421.0,9014,hate,AF,B,346380,346380,344855,345664,344855,346780,346180,346180,346780,93
80,test,1,inc,0,z,Wed Apr 16 2025 13:39:37 GMT-0400 (Eastern Daylight Time),353462.0999994278,remote,1000,I,m,m,None,580,381.0,199.0,39,1,2107.300000190735,351354.79999923706,9014,brutal,AF,B,348514,348514,346789,347797,346789,348896,348314,348314,348896,94
81,test,1,con,1,m,Wed Apr 16 2025 13:39:37 GMT-0400 (Eastern Daylight Time),355562.39999961853,remote,1000,I,m,m,None,561,361.0,200.0,115,1,2092.1000003814697,353470.29999923706,9014,remote,AF,B,350630,350630,348904,349914,348905,350997,350430,350430,350996,95
82,test,1,con,1,z,Wed Apr 16 2025 13:39:37 GMT-0400 (Eastern Daylight Time),357462.0999994278,temper,900,I,z,z,None,464,265.0,199.0,58,1,1891.1999998092651,355570.89999961853,9014,temper,AF,B,352630,352630,351005,351913,351005,352896,352431,352431,352896,96
83,test,1,con,1,z,Wed Apr 16 2025 13:39:37 GMT-0400 (Eastern Daylight Time),359395.69999980927,brutal,900,I,z,z,None,484,285.0,199.0,34,1,1926.1999998092651,357469.5,9014,brutal,AF,B,354530,354530,352904,353814,352904,354830,354331,354331,354830,97
84,test,1,con,1,z,Wed Apr 16 2025 13:39:37 GMT-0400 (Eastern Daylight Time),361179.19999980927,elated,800,I,z,z,None,442,243.0,199.0,1,1,1774.1000003814697,359405.0999994278,9014,elated,AF,B,356364,356364,354839,355647,354840,356613,356164,356164,356613,98
85,test,1,inc,1,m,Wed Apr 16 2025 13:39:37 GMT-0400 (Eastern Daylight Time),363245.79999923706,love,1000,I,m,m,None,522,307.0,215.0,95,1,2057.3999996185303,361188.39999961853,9014,film,AF,B,358364,358364,356622,357630,356623,358680,358148,358148,358680,99
85,test,1,inc,0,m,Wed Apr 16 2025 13:39:37 GMT-0400 (Eastern Daylight Time),365379.0999994278,friend,1100,I,z,z,None,484,285.0,199.0,120,1,2124.0999994277954,363255.0,9014,remote,AF,B,360514,360514,358689,359797,358690,360813,360314,360314,360813,100
86,test,1,inc,1,z,Wed Apr 16 2025 13:39:37 GMT-0400 (Eastern Daylight Time),367562.39999961853,bell,1000,I,z,z,None,643,444.0,199.0,55,1,2174.300000190735,365388.0999994278,9014,rage,AF,B,362547,362547,360822,361830,360823,362997,362347,362347,362996,101
87,test,1,con,1,m,Wed Apr 16 2025 13:39:37 GMT-0400 (Eastern Daylight Time),369729.0999994278,rock,900,I,m,m,None,720,520.0,200.0,74,1,2157.5999994277954,367571.5,9014,rock,AF,B,364630,364631,363006,363914,363006,365163,364430,364430,365163,102
88,test,1,con,1,z,Wed Apr 16 2025 13:39:37 GMT-0400 (Eastern Daylight Time),371862.0999994278,hate,1100,I,z,z,None,497,298.0,199.0,44,1,2123.5999994277954,369738.5,9014,hate,AF,B,366997,366997,365173,366280,365173,367296,366797,366797,367296,103
89,test,1,inc,1,z,Wed Apr 16 2025 13:39:37 GMT-0400 (Eastern Daylight Time),374129.0,remote,1000,I,z,z,None,720,521.0,199.0,63,1,2259.7000007629395,371869.29999923706,9014,temper,AF,B,369030,369030,367303,368314,367304,369563,368831,368831,369563,104
90,test,1,con,1,z,Wed Apr 16 2025 13:39:37 GMT-0400 (Eastern Daylight Time),376229.5,elated,1100,I,z,z,None,465,266.0,199.0,4,1,2091.5,374138.0,9014,elated,AF,B,371397,371397,369572,370680,369572,371664,371197,371197,371664,105
91,test,1,inc,1,m,Wed Apr 16 2025 13:39:37 GMT-0400 (Eastern Daylight Time),378529.19999980927,friend,1100,I,m,m,None,653,454.0,199.0,104,1,2290.5,376238.69999980927,9014,jacket,AF,B,373497,373497,371673,372780,371673,373963,373297,373297,373963,106
92,test,1,inc,1,m,Wed Apr 16 2025 13:39:37 GMT-0400 (Eastern Daylight Time),380579.0,rage,800,I,m,m,None,701,502.0,199.0,77,1,2040.5,378538.5,9014,rock,AF,B,375497,375497,373973,374780,373973,376013,375297,375297,376013,107
93,test,1,inc,1,z,Wed Apr 16 2025 13:39:37 GMT-0400 (Eastern Daylight Time),382512.39999961853,jacket,800,I,z,z,None,587,388.0,199.0,37,1,1925.3999996185303,380587.0,9014,brutal,AF,B,377547,377547,376021,376830,376021,377947,377347,377347,377946,108
94,test,1,con,1,z,Wed Apr 16 2025 13:39:37 GMT-0400 (Eastern Daylight Time),384345.69999980927,hate,800,I,z,z,None,494,295.0,199.0,41,1,1824.3000001907349,382521.39999961853,9014,hate,AF,B,379480,379480,377955,378764,377956,379780,379281,379281,379780,109
95,test,1,inc,1,z,Wed Apr 16 2025 13:39:37 GMT-0400 (Eastern Daylight Time),386412.5,bell,1000,I,z,z,None,524,325.0,199.0,23,1,2057.300000190735,384355.19999980927,9014,love,AF,B,381513,381514,379789,380797,379790,381847,381314,381314,381846,110
96,test,1,con,1,z,Wed Apr 16 2025 13:39:37 GMT-0400 (Eastern Daylight Time),388229.5,rage,800,I,z,z,None,483,283.0,200.0,49,1,1808.1000003814697,386421.39999961853,9014,rage,AF,B,383380,383380,381855,382664,381856,383664,383180,383180,383664,111
97,test,1,inc,1,m,Wed Apr 16 2025 13:39:37 GMT-0400 (Eastern Daylight Time),390312.29999923706,brutal,900,I,m,m,None,645,446.0,199.0,118,1,2075.3999996185303,388236.89999961853,9014,remote,AF,B,385297,385297,383671,384580,383671,385746,385097,385097,385746,112
98,test,1,con,1,m,Wed Apr 16 2025 13:39:37 GMT-0400 (Eastern Daylight Time),392628.89999961853,napkin,1100,I,m,m,None,667,467.0,200.0,108,1,2308.3999996185303,390320.5,9014,napkin,AF,B,387580,387580,385755,386864,385755,388063,387380,387380,388063,113
99,test,1,con,1,m,Wed Apr 16 2025 13:39:37 GMT-0400 (Eastern Daylight Time),394579.0,rock,800,I,m,m,None,601,402.0,199.0,73,1,1940.8000001907349,392638.19999980927,9014,rock,AF,B,389597,389597,388072,388880,388073,390013,389397,389397,390013,114
100,test,1,con,1,z,Wed Apr 16 2025 13:39:37 GMT-0400 (Eastern Daylight Time),396329.0,love,800,I,z,z,None,411,212.0,199.0,17,1,1741.0,394588.0,9014,love,AF,B,391547,391547,390022,390830,390023,391763,391347,391347,391763,115
101,test,1,con,1,z,Wed Apr 16 2025 13:39:37 GMT-0400 (Eastern Daylight Time),398395.69999980927,brutal,1000,I,z,z,None,525,326.0,199.0,35,1,2058.300000190735,396337.39999961853,9014,brutal,AF,B,393497,393497,391771,392780,391772,393830,393297,393297,393830,116
101,test,1,con,0,m,Wed Apr 16 2025 13:39:37 GMT-0400 (Eastern Daylight Time),400545.79999923706,bell,1100,I,z,z,None,502,303.0,199.0,84,1,2140.2999992370605,398405.5,9014,bell,AF,B,395664,395664,393840,394947,393840,395980,395464,395464,395980,117
102,test,1,inc,1,z,Wed Apr 16 2025 13:39:37 GMT-0400 (Eastern Daylight Time),402795.69999980927,film,1100,I,z,z,None,608,409.0,199.0,16,1,2241.1000003814697,400554.5999994278,9014,kind,AF,B,397814,397814,395989,397097,395989,398230,397614,397614,398230,118
103,test,1,inc,1,m,Wed Apr 16 2025 13:39:37 GMT-0400 (Eastern Daylight Time),404645.5,rage,800,I,m,m,None,514,315.0,199.0,85,1,1841.2000007629395,402804.29999923706,9014,bell,AF,B,399764,399764,398238,399047,398239,400080,399564,399564,400080,119
104,test,1,con,1,m,Wed Apr 16 2025 13:39:37 GMT-0400 (Eastern Daylight Time),406695.69999980927,napkin,900,I,m,m,None,612,413.0,199.0,106,1,2042.5,404653.19999980927,9014,napkin,AF,B,401713,401714,400087,400997,400088,402130,401514,401514,402130,120
105,test,1,inc,1,z,Wed Apr 16 2025 13:39:37 GMT-0400 (Eastern Daylight Time),408695.69999980927,rock,900,I,z,z,None,562,363.0,199.0,22,1,1990.5,406705.19999980927,9014,love,AF,B,403764,403764,402139,403047,402140,404130,403564,403564,404130,121
106,test,1,con,1,z,Wed Apr 16 2025 13:39:37 GMT-0400 (Eastern Daylight Time),410779.19999980927,kind,1000,I,z,z,None,543,344.0,199.0,11,1,2074.6000003814697,408704.5999994278,9014,kind,AF,B,405863,405863,404139,405147,404139,406213,405664,405664,406213,122
107,test,1,con,1,z,Wed Apr 16 2025 13:39:37 GMT-0400 (Eastern Daylight Time),412612.39999961853,temper,800,I,z,z,None,483,284.0,199.0,57,1,1824.3999996185303,410788.0,9014,temper,AF,B,407747,407747,406222,407030,406222,408046,407547,407547,408046,123
107,test,1,con,0,m,Wed Apr 16 2025 13:39:37 GMT-0400 (Eastern Daylight Time),414795.79999923706,step,1100,I,z,z,None,542,343.0,199.0,68,1,2174.5,412621.29999923706,9014,step,AF,B,409880,409880,408055,409164,408056,410230,409681,409681,410230,124
108,test,1,con,1,z,Wed Apr 16 2025 13:39:37 GMT-0400 (Eastern Daylight Time),416879.0,kind,1100,I,z,z,None,439,240.0,199.0,12,1,2074.5,414804.5,9014,kind,AF,B,412063,412063,410239,411347,410239,412313,411864,411864,412313,125
109,test,1,inc,1,z,Wed Apr 16 2025 13:39:37 GMT-0400 (Eastern Daylight Time),419028.89999961853,napkin,900,I,z,z,None,699,500.0,199.0,6,1,2140.800000190735,416888.0999994278,9014,elated,AF,B,413947,413947,412322,413230,412323,414463,413747,413747,414463,126
110,test,1,con,1,m,Wed Apr 16 2025 13:39:37 GMT-0400 (Eastern Daylight Time),421012.29999923706,window,800,I,m,m,None,635,435.0,200.0,121,1,1974.7999992370605,419037.5,9014,window,AF,B,415996,415996,414472,415280,414472,416446,415796,415796,416446,127
111,test,1,inc,1,z,Wed Apr 16 2025 13:39:37 GMT-0400 (Eastern Daylight Time),423045.29999923706,napkin,900,I,z,z,None,597,398.0,199.0,38,1,2020.0,421025.29999923706,9014,brutal,AF,B,418080,418080,416459,417363,416460,418479,417880,417880,418479,128
