acc_sum,block,block_c,condition,correct,correct_response,datetime,endtime,flanker,jitter,project,response,response_test_buffer_response,response_test_target_response,response_time,response_time_test_buffer_response,response_time_test_target_response,row_sel,session_number,start_end,starttime,subject_id,target,task,task_vers,time_test_buffer,time_test_buffer_response,time_test_constants,time_test_flanker,time_test_jitter,time_test_logger,time_test_target,time_test_target_response,time_test_variables,trial
0,prac,1,inc,0,z,Mon Feb 24 2025 13:43:05 GMT-0600 (Central Standard Time),106668.1000000001,film,900,O,None,,,1799,,,14,1,4960.800000000279,101707.29999999981,7063,hate,AF,B,,,,,,,,,,1
1,prac,1,con,1,z,Mon Feb 24 2025 13:43:05 GMT-0600 (Central Standard Time),109484.0,brutal,800,O,z,,,714,,,13,1,2810.5,106673.5,7063,brutal,AF,B,,,,,,,,,,2
2,prac,1,inc,1,z,Mon Feb 24 2025 13:43:05 GMT-0600 (Central Standard Time),112499.79999999981,window,1100,O,z,,,614,,,16,1,3011.0999999996275,109488.70000000019,7063,temper,AF,B,,,,,,,,,,3
2,prac,1,inc,0,z,Mon Feb 24 2025 13:43:05 GMT-0600 (Central Standard Time),115748.29999999981,napkin,1100,O,m,,,838,,,12,1,3244.0,112504.29999999981,7063,friend,AF,B,,,,,,,,,,4
3,prac,1,inc,1,m,Mon Feb 24 2025 13:43:05 GMT-0600 (Central Standard Time),119280.70000000019,hate,1100,O,m,,,1129,,,4,1,3524.7000000001863,115756.0,7063,film,AF,B,,,,,,,,,,5
4,prac,1,con,1,m,Mon Feb 24 2025 13:43:05 GMT-0600 (Central Standard Time),122029.8999999999,jacket,800,O,m,,,637,,,5,1,2744.1999999997206,119285.70000000019,7063,jacket,AF,B,,,,,,,,,,6
5,prac,1,inc,1,z,Mon Feb 24 2025 13:43:05 GMT-0600 (Central Standard Time),124795.70000000019,rock,900,O,z,,,556,,,10,1,2761.600000000093,122034.1000000001,7063,kind,AF,B,,,,,,,,,,7
6,prac,1,inc,1,m,Mon Feb 24 2025 13:43:05 GMT-0600 (Central Standard Time),127728.29999999981,brutal,1100,O,m,,,516,,,8,1,2928.2999999998137,124800.0,7063,window,AF,B,,,,,,,,,,8
7,prac,1,con,1,m,Mon Feb 24 2025 13:43:05 GMT-0600 (Central Standard Time),130560.6000000001,bell,1000,O,m,,,517,,,3,1,2827.899999999907,127732.70000000019,7063,bell,AF,B,,,,,,,,,,9
8,prac,1,con,1,z,Mon Feb 24 2025 13:43:05 GMT-0600 (Central Standard Time),133309.7000000002,rage,1000,O,z,,,436,,,15,1,2744.4000000003725,130565.29999999981,7063,rage,AF,B,,,,,,,,,,10
9,prac,1,inc,1,m,Mon Feb 24 2025 13:43:05 GMT-0600 (Central Standard Time),136042.1000000001,elated,900,O,m,,,532,,,6,1,2727.7000000001863,133314.3999999999,7063,napkin,AF,B,,,,,,,,,,11
10,prac,1,con,1,z,Mon Feb 24 2025 13:43:05 GMT-0600 (Central Standard Time),138891.2000000002,love,1000,O,z,,,548,,,11,1,2844.5,136046.7000000002,7063,love,AF,B,,,,,,,,,,12
11,prac,1,con,1,m,Mon Feb 24 2025 13:43:05 GMT-0600 (Central Standard Time),141490.7000000002,step,800,O,m,,,497,,,1,1,2595.600000000093,138895.1000000001,7063,step,AF,B,,,,,,,,,,13
11,prac,1,con,0,z,Mon Feb 24 2025 13:43:05 GMT-0600 (Central Standard Time),144089.7999999998,elated,800,O,m,,,498,,,9,1,2594.6999999997206,141495.1000000001,7063,elated,AF,B,,,,,,,,,,14
12,prac,1,inc,1,m,Mon Feb 24 2025 13:43:05 GMT-0600 (Central Standard Time),147055.5,kind,900,O,m,,,751,,,2,1,2961.2000000001863,144094.2999999998,7063,rock,AF,B,,,,,,,,,,15
13,prac,1,con,1,m,Mon Feb 24 2025 13:43:05 GMT-0600 (Central Standard Time),149837.8999999999,remote,1000,O,m,,,477,,,7,1,2778.1999999997206,147059.7000000002,7063,remote,AF,B,,,,,,,,,,16
0,test,1,con,0,z,Mon Feb 24 2025 13:43:05 GMT-0600 (Central Standard Time),171147.7999999998,friend,1100,O,m,m,None,549,349.0,200.0,28,1,2179.1999999997206,168968.6000000001,7063,friend,AF,B,166738,166738,164909,166022,164909,167088,166538,166538,167088,1
0,test,1,con,0,z,Mon Feb 24 2025 13:43:05 GMT-0600 (Central Standard Time),173047.3999999999,friend,800,O,m,m,None,554,353.0,201.0,25,1,1895.1000000000931,171152.2999999998,7063,friend,AF,B,168622,168622,167092,167905,167093,168987,168421,168421,168987,2
1,test,1,inc,1,z,Mon Feb 24 2025 13:43:05 GMT-0600 (Central Standard Time),175313.1000000001,film,1100,O,z,z,None,625,426.0,199.0,48,1,2261.3000000002794,173051.7999999998,7063,hate,AF,B,170820,170821,168992,170104,168992,171253,170621,170621,171253,3
2,test,1,con,1,z,Mon Feb 24 2025 13:43:05 GMT-0600 (Central Standard Time),177295.8999999999,rage,900,O,z,z,None,544,345.0,199.0,50,1,1978.5,175317.3999999999,7063,rage,AF,B,172886,172886,171257,172170,171258,173236,172687,172687,173236,4
3,test,1,con,1,m,Mon Feb 24 2025 13:43:05 GMT-0600 (Central Standard Time),179462.0,window,1100,O,m,m,None,530,330.0,200.0,124,1,2162.0,177300.0,7063,window,AF,B,175069,175069,173240,174352,173240,175402,174869,174869,175402,5
4,test,1,con,1,z,Mon Feb 24 2025 13:43:05 GMT-0600 (Central Standard Time),181877.6000000001,temper,1100,O,z,z,None,771,571.0,200.0,60,1,2411.7000000001863,179465.8999999999,7063,temper,AF,B,177235,177235,175406,176519,175406,177818,177035,177035,177818,6
5,test,1,inc,1,m,Mon Feb 24 2025 13:43:05 GMT-0600 (Central Standard Time),184060.6000000001,friend,1100,O,m,m,None,547,348.0,199.0,128,1,2178.7000000001863,181881.8999999999,7063,window,AF,B,179651,179651,177822,178934,177823,180001,179451,179451,180001,7
6,test,1,inc,1,z,Mon Feb 24 2025 13:43:05 GMT-0600 (Central Standard Time),186626.2999999998,rock,900,O,z,z,None,1116,917.0,199.0,14,1,2561.7999999998137,184064.5,7063,kind,AF,B,181634,181634,180005,180918,180005,182566,181434,181434,182566,8
7,test,1,con,1,m,Mon Feb 24 2025 13:43:05 GMT-0600 (Central Standard Time),188692.3999999999,napkin,800,O,m,m,None,731,532.0,199.0,105,1,2061.899999999907,186630.5,7063,napkin,AF,B,184099,184099,182571,183383,182571,184633,183900,183900,184632,9
8,test,1,inc,1,z,Mon Feb 24 2025 13:43:05 GMT-0600 (Central Standard Time),190774.8999999999,jacket,800,O,z,z,None,745,546.0,199.0,61,1,2078.399999999907,188696.5,7063,temper,AF,B,186165,186165,184637,185449,184637,186715,185966,185966,186715,10
9,test,1,con,1,m,Mon Feb 24 2025 13:43:05 GMT-0600 (Central Standard Time),193041.0,jacket,1100,O,m,m,None,619,419.0,200.0,100,1,2261.399999999907,190779.6000000001,7063,jacket,AF,B,188548,188548,186720,187831,186720,188981,188348,188348,188981,11
10,test,1,inc,1,m,Mon Feb 24 2025 13:43:05 GMT-0600 (Central Standard Time),194923.3999999999,elated,800,O,m,m,None,548,348.0,200.0,101,1,1877.7999999998137,193045.6000000001,7063,jacket,AF,B,190514,190514,188986,189798,188986,190863,190314,190314,190863,12
11,test,1,con,1,m,Mon Feb 24 2025 13:43:05 GMT-0600 (Central Standard Time),196773.1000000001,bell,800,O,m,m,None,506,306.0,200.0,81,1,1845.6000000000931,194927.5,7063,bell,AF,B,192397,192397,190867,191681,190868,192713,192197,192197,192713,13
12,test,1,con,1,z,Mon Feb 24 2025 13:43:05 GMT-0600 (Central Standard Time),198622.7000000002,rage,800,O,z,z,None,513,313.0,200.0,49,1,1845.5,196777.2000000002,7063,rage,AF,B,194246,194246,192717,193530,192718,194563,194046,194046,194563,14
13,test,1,con,1,z,Mon Feb 24 2025 13:43:05 GMT-0600 (Central Standard Time),200705.2999999998,hate,1000,O,z,z,None,533,334.0,199.0,43,1,2078.5999999996275,198626.7000000002,7063,hate,AF,B,196296,196296,194567,195579,194567,196645,196096,196096,196645,15
13,test,1,con,0,z,Mon Feb 24 2025 13:43:05 GMT-0600 (Central Standard Time),202904.3999999999,friend,1000,O,m,m,None,652,453.0,199.0,27,1,2195.2999999998137,200709.1000000001,7063,friend,AF,B,198378,198378,196649,197662,196649,198845,198178,198179,198844,16
14,test,1,con,1,m,Mon Feb 24 2025 13:43:05 GMT-0600 (Central Standard Time),204920.5,window,800,O,m,m,None,668,469.0,199.0,121,1,2012.1000000000931,202908.3999999999,7063,window,AF,B,200378,200378,198848,199662,198849,200861,200178,200178,200861,17
15,test,1,inc,1,z,Mon Feb 24 2025 13:43:05 GMT-0600 (Central Standard Time),207186.6000000001,film,1100,O,z,z,None,624,425.0,199.0,16,1,2262.0,204924.6000000001,7063,kind,AF,B,202694,202694,200865,201977,200865,203127,202494,202494,203127,18
16,test,1,inc,1,m,Mon Feb 24 2025 13:43:05 GMT-0600 (Central Standard Time),209435.7999999998,friend,1100,O,m,m,None,606,407.0,199.0,120,1,2245.5,207190.2999999998,7063,remote,AF,B,204960,204960,203130,204243,203131,205376,204759,204760,205376,19
17,test,1,con,1,m,Mon Feb 24 2025 13:43:05 GMT-0600 (Central Standard Time),211518.6000000001,remote,1000,O,m,m,None,545,346.0,199.0,115,1,2078.8000000002794,209439.7999999998,7063,remote,AF,B,207109,207109,205380,206392,205380,207459,206909,206909,207459,20
18,test,1,inc,1,z,Mon Feb 24 2025 13:43:05 GMT-0600 (Central Standard Time),213568.1000000001,napkin,900,O,z,z,None,625,412.0,213.0,38,1,2044.8999999999069,211523.2000000002,7063,brutal,AF,B,209091,209091,207463,208375,207464,209508,208878,208878,209508,21
19,test,1,con,1,z,Mon Feb 24 2025 13:43:05 GMT-0600 (Central Standard Time),215683.8999999999,brutal,1000,O,z,z,None,574,374.0,200.0,35,1,2110.899999999907,213573.0,7063,brutal,AF,B,211241,211241,209513,210525,209513,211624,211041,211041,211624,22
20,test,1,inc,1,z,Mon Feb 24 2025 13:43:05 GMT-0600 (Central Standard Time),217883.2000000002,remote,1000,O,z,z,None,650,450.0,200.0,7,1,2195.2000000001863,215688.0,7063,elated,AF,B,213357,213357,211628,212641,211628,213823,213157,213157,213823,23
21,test,1,inc,1,m,Mon Feb 24 2025 13:43:05 GMT-0600 (Central Standard Time),219949.2999999998,temper,1000,O,m,m,None,523,323.0,200.0,111,1,2062.0,217887.2999999998,7063,napkin,AF,B,215556,215556,213827,214840,213828,215889,215356,215356,215889,24
22,test,1,con,1,z,Mon Feb 24 2025 13:43:05 GMT-0600 (Central Standard Time),222031.7999999998,rage,1000,O,z,z,None,544,345.0,199.0,51,1,2079.0,219952.7999999998,7063,rage,AF,B,217622,217622,215893,216906,215893,217972,217423,217423,217972,25
23,test,1,con,1,z,Mon Feb 24 2025 13:43:05 GMT-0600 (Central Standard Time),223915.6000000001,brutal,800,O,z,z,None,550,350.0,200.0,33,1,1879.5,222036.1000000001,7063,brutal,AF,B,219505,219505,217976,218789,217977,219856,219305,219305,219856,26
24,test,1,inc,1,z,Mon Feb 24 2025 13:43:05 GMT-0600 (Central Standard Time),226147.3999999999,window,1100,O,z,z,None,582,383.0,199.0,32,1,2227.899999999907,223919.5,7063,friend,AF,B,221688,221688,219859,220971,219860,222087,221488,221488,222087,27
25,test,1,inc,1,m,Mon Feb 24 2025 13:43:05 GMT-0600 (Central Standard Time),228163.1000000001,brutal,900,O,m,m,None,566,367.0,199.0,102,1,2011.7000000001863,226151.3999999999,7063,jacket,AF,B,223720,223720,222091,223004,222092,224103,223521,223521,224103,28
26,test,1,con,1,z,Mon Feb 24 2025 13:43:05 GMT-0600 (Central Standard Time),230379.2000000002,elated,1100,O,z,z,None,581,382.0,199.0,4,1,2212.3000000002794,228166.8999999999,7063,elated,AF,B,225936,225937,224107,225220,224107,226319,225737,225737,226319,29
27,test,1,con,1,z,Mon Feb 24 2025 13:43:05 GMT-0600 (Central Standard Time),232195.6000000001,love,800,O,z,z,None,473,274.0,199.0,17,1,1812.5,230383.1000000001,7063,love,AF,B,227853,227853,226323,227136,226324,228136,227652,227653,228136,30
28,test,1,inc,1,m,Mon Feb 24 2025 13:43:05 GMT-0600 (Central Standard Time),234228.1000000001,temper,1000,O,m,m,None,490,291.0,199.0,103,1,2028.8000000002794,232199.2999999998,7063,jacket,AF,B,229868,229868,228139,229152,228140,230168,229669,229669,230168,31
29,test,1,con,1,m,Mon Feb 24 2025 13:43:05 GMT-0600 (Central Standard Time),236225.0,remote,800,O,m,m,None,664,464.0,200.0,113,1,1993.0,234232.0,7063,remote,AF,B,231701,231701,230172,230985,230172,232165,231501,231501,232165,32
30,test,1,inc,1,z,Mon Feb 24 2025 13:43:05 GMT-0600 (Central Standard Time),238209.7999999998,rock,900,O,z,z,None,540,341.0,199.0,54,1,1980.6999999997206,236229.1000000001,7063,rage,AF,B,233801,233801,232169,233084,232169,234150,233601,233601,234150,33
31,test,1,con,1,m,Mon Feb 24 2025 13:43:05 GMT-0600 (Central Standard Time),240242.8999999999,bell,1000,O,m,m,None,490,291.0,199.0,83,1,2028.8999999999069,238214.0,7063,bell,AF,B,235883,235884,234154,235167,234154,236183,235684,235684,236183,34
32,test,1,inc,1,z,Mon Feb 24 2025 13:43:05 GMT-0600 (Central Standard Time),242109.0,step,800,O,z,z,None,523,323.0,200.0,53,1,1862.2999999998137,240246.7000000002,7063,rage,AF,B,237716,237716,236187,237000,236187,238049,237516,237516,238049,35
33,test,1,con,1,z,Mon Feb 24 2025 13:43:05 GMT-0600 (Central Standard Time),244141.7000000002,elated,1000,O,z,z,None,497,297.0,200.0,3,1,2029.0,242112.7000000002,7063,elated,AF,B,239782,239782,238053,239066,238053,240082,239582,239582,240082,36
34,test,1,con,1,m,Mon Feb 24 2025 13:43:05 GMT-0600 (Central Standard Time),246157.6000000001,jacket,1000,O,m,m,None,472,272.0,200.0,99,1,2012.3999999999069,244145.2000000002,7063,jacket,AF,B,241815,241815,240085,241099,240086,242098,241615,241615,242098,37
35,test,1,inc,1,z,Mon Feb 24 2025 13:43:05 GMT-0600 (Central Standard Time),248040.5,step,800,O,z,z,None,536,336.0,200.0,45,1,1879.3999999999069,246161.1000000001,7063,hate,AF,B,243631,243631,242101,242914,242101,243981,243431,243431,243981,38
36,test,1,inc,1,z,Mon Feb 24 2025 13:43:05 GMT-0600 (Central Standard Time),250123.1000000001,bell,1000,O,z,z,None,532,333.0,199.0,47,1,2078.5,248044.6000000001,7063,hate,AF,B,245714,245714,243985,244997,243985,246063,245514,245514,246063,39
37,test,1,inc,1,m,Mon Feb 24 2025 13:43:05 GMT-0600 (Central Standard Time),252089.3999999999,rage,800,O,m,m,None,626,427.0,199.0,93,1,1962.0,250127.3999999999,7063,film,AF,B,247596,247596,246067,246880,246068,248029,247397,247397,248029,40
38,test,1,inc,1,m,Mon Feb 24 2025 13:43:05 GMT-0600 (Central Standard Time),254288.3999999999,temper,1000,O,m,m,None,652,453.0,199.0,127,1,2195.399999999907,252093.0,7063,window,AF,B,249762,249762,248033,249046,248033,250229,249563,249563,250228,41
39,test,1,inc,1,z,Mon Feb 24 2025 13:43:05 GMT-0600 (Central Standard Time),256171.2999999998,step,800,O,z,z,None,532,333.0,199.0,13,1,1879.1999999997206,254292.1000000001,7063,kind,AF,B,251762,251762,250232,251045,250232,252111,251562,251562,252111,42
40,test,1,inc,1,m,Mon Feb 24 2025 13:43:05 GMT-0600 (Central Standard Time),258020.6000000001,elated,800,O,m,m,None,514,315.0,199.0,125,1,1845.6000000000931,256175.0,7063,window,AF,B,253644,253644,252115,252928,252115,253961,253445,253445,253961,43
41,test,1,con,1,z,Mon Feb 24 2025 13:43:05 GMT-0600 (Central Standard Time),260153.1000000001,rage,1100,O,z,z,None,492,167.0,325.0,52,1,2128.600000000093,258024.5,7063,rage,AF,B,255919,255919,253965,255077,253965,256093,255594,255594,256093,44
42,test,1,inc,1,m,Mon Feb 24 2025 13:43:05 GMT-0600 (Central Standard Time),262386.1000000001,temper,1000,O,m,m,None,684,484.0,200.0,119,1,2229.3000000002794,260156.7999999998,7063,remote,AF,B,257826,257827,256097,257110,256097,258326,257626,257626,258326,45
43,test,1,inc,1,m,Mon Feb 24 2025 13:43:05 GMT-0600 (Central Standard Time),264318.7000000002,kind,900,O,m,m,None,496,296.0,200.0,86,1,1928.8000000002794,262389.8999999999,7063,bell,AF,B,259959,259959,258330,259243,258331,260259,259759,259759,260259,46
44,test,1,con,1,m,Mon Feb 24 2025 13:43:05 GMT-0600 (Central Standard Time),266318.1000000001,film,1000,O,m,m,None,455,255.0,200.0,91,1,1995.6000000000931,264322.5,7063,film,AF,B,261992,261992,260263,261275,260263,262258,261792,261792,262258,47
45,test,1,con,1,m,Mon Feb 24 2025 13:43:05 GMT-0600 (Central Standard Time),268250.7999999998,napkin,900,O,m,m,None,483,284.0,199.0,106,1,1929.0999999996275,266321.7000000002,7063,napkin,AF,B,263891,263891,262262,263175,262262,264191,263691,263692,264191,48
46,test,1,con,1,m,Mon Feb 24 2025 13:43:05 GMT-0600 (Central Standard Time),270400.1000000001,step,1100,O,m,m,None,503,303.0,200.0,68,1,2145.5,268254.6000000001,7063,step,AF,B,266024,266024,264195,265307,264195,266340,265824,265824,266340,49
47,test,1,con,1,z,Mon Feb 24 2025 13:43:05 GMT-0600 (Central Standard Time),272466.2000000002,love,1000,O,z,z,None,518,318.0,200.0,19,1,2062.3000000002794,270403.8999999999,7063,love,AF,B,268073,268073,266344,267357,266344,268406,267873,267873,268406,50
48,test,1,inc,1,z,Mon Feb 24 2025 13:43:05 GMT-0600 (Central Standard Time),274665.6000000001,window,1100,O,z,z,None,560,360.0,200.0,64,1,2195.899999999907,272469.7000000002,7063,temper,AF,B,270239,270239,268410,269523,268410,270606,270039,270039,270606,51
49,test,1,inc,1,m,Mon Feb 24 2025 13:43:05 GMT-0600 (Central Standard Time),276631.3999999999,kind,900,O,m,m,None,519,320.0,199.0,70,1,1962.1999999997206,274669.2000000002,7063,step,AF,B,272239,272239,270609,271522,270610,272572,272039,272039,272571,52
50,test,1,inc,1,m,Mon Feb 24 2025 13:43:05 GMT-0600 (Central Standard Time),278614.2000000002,brutal,900,O,m,m,None,537,338.0,199.0,118,1,1978.9000000003725,276635.2999999998,7063,remote,AF,B,274205,274205,272575,273489,272576,274554,274005,274005,274554,53
51,test,1,inc,1,m,Mon Feb 24 2025 13:43:05 GMT-0600 (Central Standard Time),280663.6000000001,love,1000,O,m,m,None,511,311.0,200.0,87,1,2045.8000000002794,278617.7999999998,7063,bell,AF,B,276288,276288,274558,275571,274558,276604,276087,276087,276604,54
52,test,1,con,1,m,Mon Feb 24 2025 13:43:05 GMT-0600 (Central Standard Time),282596.2999999998,rock,900,O,m,m,None,514,315.0,199.0,74,1,1928.7999999998137,280667.5,7063,rock,AF,B,278220,278220,276608,277520,276608,278536,278021,278021,278536,55
53,test,1,inc,1,m,Mon Feb 24 2025 13:43:05 GMT-0600 (Central Standard Time),284545.7999999998,elated,800,O,m,m,None,475,276.0,199.0,109,1,1945.8999999999069,282599.8999999999,7063,napkin,AF,B,280203,280203,278540,279487,278540,280486,280003,280003,280486,56
54,test,1,inc,1,m,Mon Feb 24 2025 13:43:05 GMT-0600 (Central Standard Time),286528.5,brutal,900,O,m,m,None,536,336.0,200.0,126,1,1978.7999999998137,284549.7000000002,7063,window,AF,B,282119,282119,280490,281402,280490,282469,281919,281919,282469,57
55,test,1,con,1,z,Mon Feb 24 2025 13:43:05 GMT-0600 (Central Standard Time),288444.3999999999,elated,900,O,z,z,None,472,273.0,199.0,2,1,1912.1000000000931,286532.2999999998,7063,elated,AF,B,284101,284102,282472,283385,282473,284385,283902,283902,284384,58
56,test,1,inc,1,z,Mon Feb 24 2025 13:43:05 GMT-0600 (Central Standard Time),290627.0,film,1100,O,z,z,None,532,333.0,199.0,56,1,2178.899999999907,288448.1000000001,7063,rage,AF,B,286218,286218,284388,285501,284388,286567,286018,286018,286567,59
57,test,1,con,1,z,Mon Feb 24 2025 13:43:05 GMT-0600 (Central Standard Time),292793.1000000001,hate,1100,O,z,z,None,519,319.0,200.0,44,1,2162.399999999907,290630.7000000002,7063,hate,AF,B,288400,288400,286571,287684,286571,288733,288200,288200,288733,60
58,test,1,inc,1,z,Mon Feb 24 2025 13:43:05 GMT-0600 (Central Standard Time),295059.2000000002,window,1100,O,z,z,None,625,425.0,200.0,40,1,2261.9000000003725,292797.2999999998,7063,brutal,AF,B,290566,290566,288737,289850,288738,290999,290366,290366,290999,61
59,test,1,inc,1,m,Mon Feb 24 2025 13:43:05 GMT-0600 (Central Standard Time),297158.5,hate,1100,O,m,m,None,463,263.0,200.0,88,1,2095.600000000093,295062.8999999999,7063,bell,AF,B,292832,292832,291003,292116,291003,293099,292632,292632,293099,62
60,test,1,inc,1,m,Mon Feb 24 2025 13:43:05 GMT-0600 (Central Standard Time),299074.6000000001,kind,900,O,m,m,None,475,275.0,200.0,94,1,1912.1000000000931,297162.5,7063,film,AF,B,294732,294732,293103,294015,293103,295015,294531,294531,295015,63
61,test,1,inc,1,z,Mon Feb 24 2025 13:43:05 GMT-0600 (Central Standard Time),301040.5,napkin,900,O,z,z,None,518,319.0,199.0,62,1,1962.1000000000931,299078.3999999999,7063,temper,AF,B,296648,296648,295018,295931,295019,296981,296448,296448,296981,64
62,test,1,con,1,z,Mon Feb 24 2025 13:43:05 GMT-0600 (Central Standard Time),303389.7999999998,brutal,1100,O,z,z,None,712,513.0,199.0,36,1,2345.6999999997206,301044.1000000001,7063,brutal,AF,B,298814,298814,296984,298097,296984,299330,298614,298614,299330,65
63,test,1,con,1,z,Mon Feb 24 2025 13:43:05 GMT-0600 (Central Standard Time),305339.1000000001,temper,900,O,z,z,None,516,316.0,200.0,58,1,1945.6000000000931,303393.5,7063,temper,AF,B,300963,300963,299334,300247,299334,301279,300763,300763,301279,66
64,test,1,inc,1,z,Mon Feb 24 2025 13:43:05 GMT-0600 (Central Standard Time),307171.7000000002,jacket,800,O,z,z,None,490,248.0,242.0,37,1,1828.8000000002794,305342.8999999999,7063,brutal,AF,B,302854,302854,301283,302096,301283,303112,302612,302612,303112,67
65,test,1,con,1,m,Mon Feb 24 2025 13:43:05 GMT-0600 (Central Standard Time),309238.0,remote,1100,O,m,m,None,430,230.0,200.0,116,1,2062.7000000001863,307175.2999999998,7063,remote,AF,B,304945,304945,303115,304229,303116,305178,304745,304745,305178,68
65,test,1,con,0,z,Mon Feb 24 2025 13:43:05 GMT-0600 (Central Standard Time),311170.7000000002,friend,900,O,m,m,None,492,292.0,200.0,26,1,1929.1000000000931,309241.6000000001,7063,friend,AF,B,306811,306811,305182,306095,305182,307111,306611,306611,307111,69
66,test,1,inc,1,z,Mon Feb 24 2025 13:43:05 GMT-0600 (Central Standard Time),313136.8999999999,step,800,O,z,z,None,619,419.0,200.0,21,1,1962.6999999997206,311174.2000000002,7063,love,AF,B,308644,308644,307114,307927,307115,309077,308444,308444,309077,70
67,test,1,con,1,z,Mon Feb 24 2025 13:43:05 GMT-0600 (Central Standard Time),314986.1000000001,hate,800,O,z,z,None,498,283.0,215.0,41,1,1845.3999999999069,313140.7000000002,7063,hate,AF,B,310627,310627,309081,309893,309081,310926,310411,310411,310926,71
68,test,1,con,1,m,Mon Feb 24 2025 13:43:05 GMT-0600 (Central Standard Time),316935.7000000002,jacket,800,O,m,m,None,604,404.0,200.0,97,1,1945.9000000003725,314989.7999999998,7063,jacket,AF,B,312459,312459,310930,311743,310930,312876,312259,312259,312876,72
69,test,1,con,1,m,Mon Feb 24 2025 13:43:05 GMT-0600 (Central Standard Time),319168.3999999999,bell,900,O,m,m,None,793,594.0,199.0,82,1,2227.6999999997206,316940.7000000002,7063,bell,AF,B,314509,314509,312881,313792,312881,315108,314309,314309,315108,73
70,test,1,con,1,m,Mon Feb 24 2025 13:43:05 GMT-0600 (Central Standard Time),321151.0,film,800,O,m,m,None,637,438.0,199.0,89,1,1978.6000000000931,319172.3999999999,7063,film,AF,B,316641,316641,315112,315925,315113,317091,316441,316442,317091,74
71,test,1,inc,1,z,Mon Feb 24 2025 13:43:05 GMT-0600 (Central Standard Time),323200.2000000002,bell,1000,O,z,z,None,511,311.0,200.0,55,1,2045.7000000001863,321154.5,7063,rage,AF,B,318824,318824,317095,318108,317095,319140,318624,318624,319140,75
72,test,1,inc,1,z,Mon Feb 24 2025 13:43:05 GMT-0600 (Central Standard Time),325133.0,jacket,800,O,z,z,None,588,389.0,199.0,5,1,1928.7999999998137,323204.2000000002,7063,elated,AF,B,320674,320674,319144,319957,319145,321073,320474,320474,321073,76
73,test,1,inc,1,z,Mon Feb 24 2025 13:43:05 GMT-0600 (Central Standard Time),326998.7999999998,jacket,800,O,z,z,None,520,320.0,200.0,29,1,1862.0,325136.7999999998,7063,friend,AF,B,322606,322606,321077,321890,321077,322939,322406,322406,322939,77
74,test,1,con,1,z,Mon Feb 24 2025 13:43:05 GMT-0600 (Central Standard Time),328965.5,hate,900,O,z,z,None,523,323.0,200.0,42,1,1963.0,327002.5,7063,hate,AF,B,324572,324572,322942,323856,322943,324906,324372,324372,324906,78
75,test,1,inc,1,m,Mon Feb 24 2025 13:43:05 GMT-0600 (Central Standard Time),331114.6000000001,friend,1100,O,m,m,None,492,284.0,208.0,104,1,2145.600000000093,328969.0,7063,jacket,AF,B,326755,326755,324909,326022,324909,327055,326547,326547,327055,79
76,test,1,inc,1,z,Mon Feb 24 2025 13:43:05 GMT-0600 (Central Standard Time),333047.2000000002,rock,900,O,z,z,None,486,287.0,199.0,22,1,1928.7000000001863,331118.5,7063,love,AF,B,328688,328688,327059,327971,327059,328987,328488,328488,328987,80
77,test,1,con,1,m,Mon Feb 24 2025 13:43:05 GMT-0600 (Central Standard Time),335196.6000000001,rock,1100,O,m,m,None,507,307.0,200.0,76,1,2145.7000000001863,333050.8999999999,7063,rock,AF,B,330820,330820,328991,330104,328991,331137,330620,330620,331137,81
78,test,1,inc,1,z,Mon Feb 24 2025 13:43:05 GMT-0600 (Central Standard Time),337329.2999999998,remote,1000,O,z,z,None,592,393.0,199.0,63,1,2128.5,335200.7999999998,7063,temper,AF,B,332870,332870,331141,332153,331141,333269,332670,332670,333269,82
79,test,1,inc,1,z,Mon Feb 24 2025 13:43:05 GMT-0600 (Central Standard Time),339311.8999999999,napkin,900,O,z,z,None,544,345.0,199.0,30,1,1979.0,337332.8999999999,7063,friend,AF,B,334902,334902,333273,334186,333273,335252,334703,334703,335252,83
80,test,1,inc,1,m,Mon Feb 24 2025 13:43:05 GMT-0600 (Central Standard Time),341511.2000000002,hate,1100,O,m,m,None,562,362.0,200.0,80,1,2195.5,339315.7000000002,7063,rock,AF,B,337085,337085,335256,336369,335256,337451,336885,336885,337451,84
81,test,1,inc,1,z,Mon Feb 24 2025 13:43:05 GMT-0600 (Central Standard Time),343693.8999999999,window,1100,O,z,z,None,538,339.0,199.0,8,1,2178.6999999997206,341515.2000000002,7063,elated,AF,B,339284,339284,337455,338568,337456,339634,339085,339085,339634,85
82,test,1,inc,1,m,Mon Feb 24 2025 13:43:05 GMT-0600 (Central Standard Time),345560.0,elated,800,O,m,m,None,527,328.0,199.0,117,1,1862.7000000001863,343697.2999999998,7063,remote,AF,B,341167,341167,339637,340451,339638,341500,340967,340968,341500,86
83,test,1,con,1,m,Mon Feb 24 2025 13:43:05 GMT-0600 (Central Standard Time),347492.7000000002,window,900,O,m,m,None,490,289.0,201.0,122,1,1929.2000000001863,345563.5,7063,window,AF,B,343134,343134,341504,342417,341504,343433,342933,342933,343433,87
84,test,1,inc,1,z,Mon Feb 24 2025 13:43:05 GMT-0600 (Central Standard Time),349592.0,remote,1000,O,z,z,None,553,353.0,200.0,31,1,2095.600000000093,347496.3999999999,7063,friend,AF,B,345166,345166,343436,344449,343437,345532,344966,344966,345532,88
85,test,1,con,1,m,Mon Feb 24 2025 13:43:05 GMT-0600 (Central Standard Time),351641.2999999998,step,1000,O,m,m,None,509,309.0,200.0,67,1,2045.6999999997206,349595.6000000001,7063,step,AF,B,347266,347266,345536,346549,345536,347581,347065,347065,347581,89
86,test,1,con,1,z,Mon Feb 24 2025 13:43:05 GMT-0600 (Central Standard Time),353724.0,kind,1000,O,z,z,None,540,341.0,199.0,11,1,2078.600000000093,351645.3999999999,7063,kind,AF,B,349314,349314,347585,348599,347586,349664,349115,349115,349664,90
87,test,1,con,1,z,Mon Feb 24 2025 13:43:05 GMT-0600 (Central Standard Time),355773.5,temper,800,O,z,z,None,713,514.0,199.0,57,1,2045.6000000000931,353727.8999999999,7063,temper,AF,B,351197,351197,349668,350481,349668,351714,350998,350998,351713,91
88,test,1,inc,1,z,Mon Feb 24 2025 13:43:05 GMT-0600 (Central Standard Time),357839.3999999999,bell,1000,O,z,z,None,527,328.0,199.0,15,1,2062.100000000093,355777.2999999998,7063,kind,AF,B,353447,353447,351717,352730,351718,353780,353247,353247,353779,92
89,test,1,con,1,z,Mon Feb 24 2025 13:43:05 GMT-0600 (Central Standard Time),359988.6000000001,temper,1000,O,z,z,None,605,406.0,199.0,59,1,2145.8000000002794,357842.7999999998,7063,temper,AF,B,355513,355513,353783,354796,353783,355929,355313,355313,355929,93
90,test,1,con,1,z,Mon Feb 24 2025 13:43:05 GMT-0600 (Central Standard Time),361838.2999999998,brutal,900,O,z,z,None,405,205.0,200.0,34,1,1846.0,359992.2999999998,7063,brutal,AF,B,357562,357562,355932,356846,355933,357778,357362,357362,357778,94
91,test,1,con,1,z,Mon Feb 24 2025 13:43:05 GMT-0600 (Central Standard Time),363587.7000000002,elated,800,O,z,z,None,407,208.0,199.0,1,1,1745.4000000003725,361842.2999999998,7063,elated,AF,B,359311,359311,357782,358596,357783,359528,359112,359112,359528,95
91,test,1,con,0,m,Mon Feb 24 2025 13:43:05 GMT-0600 (Central Standard Time),365687.0,bell,1100,O,z,z,None,462,262.0,200.0,84,1,2095.5,363591.5,7063,bell,AF,B,361361,361361,359532,360644,359532,361627,361161,361161,361627,96
92,test,1,con,1,m,Mon Feb 24 2025 13:43:05 GMT-0600 (Central Standard Time),367686.3999999999,step,800,O,m,m,None,655,455.0,200.0,65,1,1996.0,365690.3999999999,7063,step,AF,B,363160,363160,361630,362444,361631,363626,362960,362960,363626,97
93,test,1,con,1,m,Mon Feb 24 2025 13:43:05 GMT-0600 (Central Standard Time),370020.2000000002,napkin,1000,O,m,m,None,790,591.0,199.0,107,1,2330.2000000001863,367690.0,7063,napkin,AF,B,365360,365360,363630,364643,363630,365960,365159,365160,365960,98
94,test,1,con,1,z,Mon Feb 24 2025 13:43:05 GMT-0600 (Central Standard Time),372201.7000000002,kind,1100,O,z,z,None,534,335.0,199.0,12,1,2177.600000000093,370024.1000000001,7063,kind,AF,B,367792,367792,365964,367075,365965,368142,367593,367593,368142,99
95,test,1,con,1,z,Mon Feb 24 2025 13:43:05 GMT-0600 (Central Standard Time),374184.2999999998,kind,900,O,z,z,None,544,343.0,201.0,10,1,1979.0,372205.2999999998,7063,kind,AF,B,369776,369776,368145,369059,368146,370124,369575,369575,370124,100
96,test,1,inc,1,z,Mon Feb 24 2025 13:43:05 GMT-0600 (Central Standard Time),376283.6000000001,remote,1000,O,z,z,None,565,366.0,199.0,39,1,2095.8000000002794,374187.7999999998,7063,brutal,AF,B,371857,371857,370128,371141,370128,372224,371658,371658,372224,101
97,test,1,con,1,m,Mon Feb 24 2025 13:43:05 GMT-0600 (Central Standard Time),378199.7999999998,rock,800,O,m,m,None,509,303.0,206.0,73,1,1912.6999999997206,376287.1000000001,7063,rock,AF,B,373824,373824,372227,373041,372227,374140,373617,373617,374140,102
98,test,1,con,1,z,Mon Feb 24 2025 13:43:05 GMT-0600 (Central Standard Time),380149.2000000002,love,900,O,z,z,None,506,306.0,200.0,18,1,1945.4000000003725,378203.7999999998,7063,love,AF,B,375773,375773,374144,375057,374144,376089,375573,375573,376089,103
99,test,1,inc,1,m,Mon Feb 24 2025 13:43:05 GMT-0600 (Central Standard Time),382231.7000000002,love,1000,O,m,m,None,537,337.0,200.0,95,1,2079.0,380152.7000000002,7063,film,AF,B,377822,377822,376093,377106,376093,378172,377622,377622,378172,104
100,test,1,inc,1,z,Mon Feb 24 2025 13:43:05 GMT-0600 (Central Standard Time),384247.8999999999,rock,900,O,z,z,None,578,378.0,200.0,46,1,2012.6000000000931,382235.2999999998,7063,hate,AF,B,379805,379805,378175,379088,378176,380188,379605,379605,380188,105
101,test,1,con,1,z,Mon Feb 24 2025 13:43:05 GMT-0600 (Central Standard Time),386513.6000000001,love,1100,O,z,z,None,618,418.0,200.0,20,1,2262.100000000093,384251.5,7063,love,AF,B,382021,382021,380192,381304,380192,382454,381821,381821,382454,106
102,test,1,con,1,m,Mon Feb 24 2025 13:43:05 GMT-0600 (Central Standard Time),388646.5,remote,900,O,m,m,None,696,496.0,200.0,114,1,2129.100000000093,386517.3999999999,7063,remote,AF,B,384087,384087,382457,383370,382458,384587,383887,383887,384587,107
103,test,1,inc,1,m,Mon Feb 24 2025 13:43:05 GMT-0600 (Central Standard Time),390612.6000000001,brutal,900,O,m,m,None,522,323.0,199.0,110,1,1962.3000000002794,388650.2999999998,7063,napkin,AF,B,386220,386220,384590,385503,384591,386553,386020,386020,386553,108
104,test,1,inc,1,m,Mon Feb 24 2025 13:43:05 GMT-0600 (Central Standard Time),392711.8999999999,love,1000,O,m,m,None,553,354.0,199.0,71,1,2095.5,390616.3999999999,7063,step,AF,B,388285,388285,386556,387569,386557,388652,388086,388086,388652,109
105,test,1,con,1,z,Mon Feb 24 2025 13:43:05 GMT-0600 (Central Standard Time),394777.7999999998,kind,800,O,z,z,None,726,526.0,200.0,9,1,2062.0,392715.7999999998,7063,kind,AF,B,390185,390185,388656,389469,388656,390718,389985,389985,390718,110
106,test,1,inc,1,m,Mon Feb 24 2025 13:43:05 GMT-0600 (Central Standard Time),396660.7000000002,rage,800,O,m,m,None,540,340.0,200.0,85,1,1879.2000000001863,394781.5,7063,bell,AF,B,392251,392251,390722,391535,390722,392601,392051,392051,392601,111
107,test,1,con,1,m,Mon Feb 24 2025 13:43:05 GMT-0600 (Central Standard Time),398659.7999999998,window,1000,O,m,m,None,465,265.0,200.0,123,1,1995.5999999996275,396664.2000000002,7063,window,AF,B,394334,394334,392604,393617,392604,394600,394134,394134,394600,112
108,test,1,inc,1,z,Mon Feb 24 2025 13:43:05 GMT-0600 (Central Standard Time),400826.0,film,1100,O,z,z,None,526,326.0,200.0,24,1,2162.399999999907,398663.6000000001,7063,love,AF,B,396433,396433,394604,395717,394604,396766,396233,396233,396766,113
109,test,1,inc,1,m,Mon Feb 24 2025 13:43:05 GMT-0600 (Central Standard Time),402808.7999999998,kind,900,O,m,m,None,536,336.0,200.0,78,1,1979.0,400829.7999999998,7063,rock,AF,B,398399,398399,396770,397683,396770,398749,398199,398199,398749,114
110,test,1,inc,1,m,Mon Feb 24 2025 13:43:05 GMT-0600 (Central Standard Time),404691.6000000001,rage,800,O,m,m,None,534,334.0,200.0,77,1,1879.0,402812.6000000001,7063,rock,AF,B,400282,400282,398753,399565,398753,400632,400082,400082,400632,115
111,test,1,inc,1,z,Mon Feb 24 2025 13:43:05 GMT-0600 (Central Standard Time),406690.8999999999,napkin,900,O,z,z,None,549,350.0,199.0,6,1,1995.6999999997206,404695.2000000002,7063,elated,AF,B,402265,402265,400635,401548,400636,402631,402065,402065,402631,116
112,test,1,inc,1,m,Mon Feb 24 2025 13:43:05 GMT-0600 (Central Standard Time),408823.5,hate,1100,O,m,m,None,495,295.0,200.0,96,1,2128.7999999998137,406694.7000000002,7063,film,AF,B,404464,404464,402635,403748,402635,404764,404264,404264,404764,117
113,test,1,con,1,m,Mon Feb 24 2025 13:43:05 GMT-0600 (Central Standard Time),410973.0,napkin,1100,O,m,m,None,513,314.0,199.0,108,1,2145.7000000001863,408827.2999999998,7063,napkin,AF,B,406597,406597,404767,405880,404768,406913,406397,406397,406913,118
114,test,1,inc,1,m,Mon Feb 24 2025 13:43:05 GMT-0600 (Central Standard Time),413055.6000000001,love,1000,O,m,m,None,537,337.0,200.0,79,1,2079.3000000002794,410976.2999999998,7063,rock,AF,B,408646,408646,406916,407929,406917,408996,408446,408446,408996,119
115,test,1,inc,1,m,Mon Feb 24 2025 13:43:05 GMT-0600 (Central Standard Time),414888.3999999999,rage,800,O,m,m,None,493,294.0,199.0,69,1,1829.1000000000931,413059.2999999998,7063,step,AF,B,410529,410529,408999,409812,409000,410828,410329,410329,410828,120
116,test,1,con,1,m,Mon Feb 24 2025 13:43:05 GMT-0600 (Central Standard Time),417270.7999999998,rock,1000,O,m,m,None,846,646.0,200.0,75,1,2378.5,414892.2999999998,7063,rock,AF,B,412561,412561,410832,411845,410833,413211,412361,412361,413211,121
117,test,1,con,1,m,Mon Feb 24 2025 13:43:05 GMT-0600 (Central Standard Time),419220.2000000002,jacket,900,O,m,m,None,515,315.0,200.0,98,1,1945.6000000000931,417274.6000000001,7063,jacket,AF,B,414844,414844,413215,414128,413215,415160,414644,414644,415160,122
118,test,1,inc,1,m,Mon Feb 24 2025 13:43:05 GMT-0600 (Central Standard Time),421353.1000000001,hate,1100,O,m,m,None,486,286.0,200.0,72,1,2129.3000000002794,419223.7999999998,7063,step,AF,B,416993,416993,415164,416277,415164,417293,416793,416793,417293,123
119,test,1,inc,1,m,Mon Feb 24 2025 13:43:05 GMT-0600 (Central Standard Time),423502.1000000001,friend,1100,O,m,m,None,513,313.0,200.0,112,1,2145.399999999907,421356.7000000002,7063,napkin,AF,B,419126,419126,417297,418409,417297,419442,418926,418926,419442,124
120,test,1,con,1,m,Mon Feb 24 2025 13:43:05 GMT-0600 (Central Standard Time),425684.8999999999,film,1100,O,m,m,None,505,306.0,199.0,92,1,2179.0,423505.8999999999,7063,film,AF,B,421309,421309,419446,420598,419446,421625,421109,421109,421625,125
121,test,1,con,1,m,Mon Feb 24 2025 13:43:05 GMT-0600 (Central Standard Time),427617.6000000001,film,900,O,m,m,None,493,293.0,200.0,90,1,1929.2000000001863,425688.3999999999,7063,film,AF,B,423258,423258,421628,422542,421629,423558,423058,423058,423558,126
122,test,1,inc,1,z,Mon Feb 24 2025 13:43:05 GMT-0600 (Central Standard Time),429617.0,bell,1000,O,z,z,None,460,260.0,200.0,23,1,1995.7000000001863,427621.2999999998,7063,love,AF,B,425291,425291,423561,424574,423562,425557,425091,425091,425557,127
123,test,1,con,1,m,Mon Feb 24 2025 13:43:05 GMT-0600 (Central Standard Time),431566.3999999999,step,900,O,m,m,None,505,305.0,200.0,66,1,1945.7999999998137,429620.6000000001,7063,step,AF,B,427190,427190,425561,426474,425561,427506,426990,426990,427506,128
