block_c,block_dur,condition,countdown,datetime,endtime,list,multichar_response,project,response,response_time,session_number,start_end,starttime,subject_id,task,task_vers,trial
,,,,Mon Feb 10 2025 16:39:26 GMT-0600 (Central Standard Time),,,,O,space,737,1,,,7054,WL,B,
prac,,0,,Mon Feb 10 2025 16:39:26 GMT-0600 (Central Standard Time),,NA,b,O,b,6847,1,,,7054,WL,B,1.0
prac,,0,,Mon Feb 10 2025 16:39:26 GMT-0600 (Central Standard Time),,NA,bo,O,o,427,1,,,7054,WL,B,1.0
prac,,0,,Mon Feb 10 2025 16:39:26 GMT-0600 (Central Standard Time),,NA,boo,O,o,161,1,,,7054,WL,B,1.0
prac,,0,,Mon Feb 10 2025 16:39:26 GMT-0600 (Central Standard Time),,NA,boos,O,s,89,1,,,7054,WL,B,1.0
prac,,0,,Mon Feb 10 2025 16:39:26 GMT-0600 (Central Standard Time),,NA,boost,O,t,374,1,,,7054,WL,B,1.0
prac,,0,,Mon Feb 10 2025 16:39:26 GMT-0600 (Central Standard Time),,NA,boostenter,O,enter,4062,1,,,7054,WL,B,1.0
1,1.383000135421753,learn,58616.99986457825,Mon Feb 10 2025 16:39:26 GMT-0600 (Central Standard Time),177218.0,A,s,O,s,1374,1,1382.7999999998137,175835.2000000002,7054,WL,B,1.0
1,1.5999999046325684,learn,58400.00009536743,Mon Feb 10 2025 16:39:26 GMT-0600 (Central Standard Time),177434.80000000075,A,st,O,t,198,1,1599.6000000005588,175835.2000000002,7054,WL,B,1.0
1,1.9490001201629639,learn,58050.999879837036,Mon Feb 10 2025 16:39:26 GMT-0600 (Central Standard Time),177784.5,A,str,O,r,326,1,1949.2999999998137,175835.2000000002,7054,WL,B,1.0
1,2.065999984741211,learn,57934.00001525879,Mon Feb 10 2025 16:39:26 GMT-0600 (Central Standard Time),177900.90000000037,A,stre,O,e,104,1,2065.7000000001863,175835.2000000002,7054,WL,B,1.0
1,2.4160001277923584,learn,57583.99987220764,Mon Feb 10 2025 16:39:26 GMT-0600 (Central Standard Time),178250.80000000075,A,stree,O,e,341,1,2415.600000000559,175835.2000000002,7054,WL,B,1.0
1,2.6660001277923584,learn,57333.99987220764,Mon Feb 10 2025 16:39:26 GMT-0600 (Central Standard Time),178500.7000000002,A,street,O,t,230,1,2665.5,175835.2000000002,7054,WL,B,1.0
1,3.565999984741211,learn,56434.00001525879,Mon Feb 10 2025 16:39:26 GMT-0600 (Central Standard Time),179400.60000000056,A,streets,O,s,876,1,3565.4000000003725,175835.2000000002,7054,WL,B,1.0
1,3.9649999141693115,learn,56035.00008583069,Mon Feb 10 2025 16:39:26 GMT-0600 (Central Standard Time),179800.30000000075,A,streetst,O,t,384,1,3965.100000000559,175835.2000000002,7054,WL,B,1.0
1,10.763000011444092,learn,49236.99998855591,Mon Feb 10 2025 16:39:26 GMT-0600 (Central Standard Time),186598.60000000056,A,streets,O,backspace,6785,1,10763.400000000373,175835.2000000002,7054,WL,B,1.0
1,11.145999908447266,learn,48854.000091552734,Mon Feb 10 2025 16:39:26 GMT-0600 (Central Standard Time),186981.60000000056,A,street,O,backspace,370,1,11146.400000000373,175835.2000000002,7054,WL,B,1.0
1,12.496000051498413,learn,47503.99994850159,Mon Feb 10 2025 16:39:26 GMT-0600 (Central Standard Time),188331.40000000037,A,streetenter,O,enter,1331,1,12496.200000000186,175835.2000000002,7054,WL,B,1.0
1,13.312000036239624,learn,46687.999963760376,Mon Feb 10 2025 16:39:26 GMT-0600 (Central Standard Time),189147.5,A,s,O,s,797,1,815.5999999996275,188331.90000000037,7054,WL,B,2.0
1,13.479000091552734,learn,46520.999908447266,Mon Feb 10 2025 16:39:26 GMT-0600 (Central Standard Time),189314.30000000075,A,st,O,t,149,1,982.4000000003725,188331.90000000037,7054,WL,B,2.0
1,13.661999940872192,learn,46338.00005912781,Mon Feb 10 2025 16:39:26 GMT-0600 (Central Standard Time),189497.7000000002,A,sto,O,o,175,1,1165.7999999998137,188331.90000000037,7054,WL,B,2.0
1,13.880000114440918,learn,46119.99988555908,Mon Feb 10 2025 16:39:26 GMT-0600 (Central Standard Time),189715.2000000002,A,stor,O,r,199,1,1383.2999999998137,188331.90000000037,7054,WL,B,2.0
1,14.062000036239624,learn,45937.999963760376,Mon Feb 10 2025 16:39:26 GMT-0600 (Central Standard Time),189897.60000000056,A,store,O,e,158,1,1565.7000000001863,188331.90000000037,7054,WL,B,2.0
1,14.76200008392334,learn,45237.99991607666,Mon Feb 10 2025 16:39:26 GMT-0600 (Central Standard Time),190597.30000000075,A,storeenter,O,enter,689,1,2265.4000000003725,188331.90000000037,7054,WL,B,2.0
1,15.212000131607056,learn,44787.999868392944,Mon Feb 10 2025 16:39:26 GMT-0600 (Central Standard Time),191046.80000000075,A,a,O,a,435,1,448.90000000037253,190597.90000000037,7054,WL,B,3.0
1,15.361999988555908,learn,44638.00001144409,Mon Feb 10 2025 16:39:26 GMT-0600 (Central Standard Time),191196.90000000037,A,ar,O,r,130,1,599.0,190597.90000000037,7054,WL,B,3.0
1,15.444999933242798,learn,44555.0000667572,Mon Feb 10 2025 16:39:26 GMT-0600 (Central Standard Time),191280.0,A,are,O,e,68,1,682.0999999996275,190597.90000000037,7054,WL,B,3.0
1,15.710999965667725,learn,44289.000034332275,Mon Feb 10 2025 16:39:26 GMT-0600 (Central Standard Time),191546.60000000056,A,arem,O,m,248,1,948.7000000001863,190597.90000000037,7054,WL,B,3.0
1,16.361000061035156,learn,43638.999938964844,Mon Feb 10 2025 16:39:26 GMT-0600 (Central Standard Time),192196.60000000056,A,are,O,backspace,631,1,1598.7000000001863,190597.90000000037,7054,WL,B,3.0
1,16.727999925613403,learn,43272.0000743866,Mon Feb 10 2025 16:39:26 GMT-0600 (Central Standard Time),192563.0,A,ar,O,backspace,348,1,1965.0999999996275,190597.90000000037,7054,WL,B,3.0
1,17.043999910354614,learn,42956.000089645386,Mon Feb 10 2025 16:39:26 GMT-0600 (Central Standard Time),192879.60000000056,A,arm,O,m,295,1,2281.7000000001863,190597.90000000037,7054,WL,B,3.0
1,17.49399995803833,learn,42506.00004196167,Mon Feb 10 2025 16:39:26 GMT-0600 (Central Standard Time),193329.40000000037,A,armenter,O,enter,425,1,2731.5,190597.90000000037,7054,WL,B,3.0
1,18.111000061035156,learn,41888.999938964844,Mon Feb 10 2025 16:39:26 GMT-0600 (Central Standard Time),193945.80000000075,A,w,O,w,608,1,616.2000000001863,193329.60000000056,7054,WL,B,4.0
1,18.32699990272522,learn,41673.00009727478,Mon Feb 10 2025 16:39:26 GMT-0600 (Central Standard Time),194162.60000000056,A,wi,O,i,209,1,833.0,193329.60000000056,7054,WL,B,4.0
1,18.51200008392334,learn,41487.99991607666,Mon Feb 10 2025 16:39:26 GMT-0600 (Central Standard Time),194346.90000000037,A,wif,O,f,172,1,1017.2999999998137,193329.60000000056,7054,WL,B,4.0
1,18.710999965667725,learn,41289.000034332275,Mon Feb 10 2025 16:39:26 GMT-0600 (Central Standard Time),194545.90000000037,A,wife,O,e,187,1,1216.2999999998137,193329.60000000056,7054,WL,B,4.0
1,19.24399995803833,learn,40756.00004196167,Mon Feb 10 2025 16:39:26 GMT-0600 (Central Standard Time),195079.2000000002,A,wifeenter,O,enter,520,1,1749.5999999996275,193329.60000000056,7054,WL,B,4.0
1,19.677000045776367,learn,40322.99995422363,Mon Feb 10 2025 16:39:26 GMT-0600 (Central Standard Time),195512.30000000075,A,s,O,s,410,1,432.70000000018626,195079.60000000056,7054,WL,B,5.0
1,19.776999950408936,learn,40223.000049591064,Mon Feb 10 2025 16:39:26 GMT-0600 (Central Standard Time),195612.2000000002,A,sk,O,k,81,1,532.5999999996275,195079.60000000056,7054,WL,B,5.0
1,19.927000045776367,learn,40072.99995422363,Mon Feb 10 2025 16:39:26 GMT-0600 (Central Standard Time),195762.2000000002,A,ski,O,i,133,1,682.5999999996275,195079.60000000056,7054,WL,B,5.0
1,20.177000045776367,learn,39822.99995422363,Mon Feb 10 2025 16:39:26 GMT-0600 (Central Standard Time),196012.30000000075,A,skin,O,n,231,1,932.7000000001863,195079.60000000056,7054,WL,B,5.0
1,20.64300012588501,learn,39356.99987411499,Mon Feb 10 2025 16:39:26 GMT-0600 (Central Standard Time),196478.40000000037,A,skinenter,O,enter,443,1,1398.7999999998137,195079.60000000056,7054,WL,B,5.0
1,21.360000133514404,learn,38639.999866485596,Mon Feb 10 2025 16:39:26 GMT-0600 (Central Standard Time),197195.30000000075,A,p,O,p,707,1,716.6000000005588,196478.7000000002,7054,WL,B,6.0
1,21.509999990463257,learn,38490.00000953674,Mon Feb 10 2025 16:39:26 GMT-0600 (Central Standard Time),197344.90000000037,A,pi,O,i,133,1,866.2000000001863,196478.7000000002,7054,WL,B,6.0
1,21.693000078201294,learn,38306.999921798706,Mon Feb 10 2025 16:39:26 GMT-0600 (Central Standard Time),197528.5,A,pip,O,p,161,1,1049.7999999998137,196478.7000000002,7054,WL,B,6.0
1,21.926000118255615,learn,38073.999881744385,Mon Feb 10 2025 16:39:26 GMT-0600 (Central Standard Time),197761.5,A,pipe,O,e,217,1,1282.7999999998137,196478.7000000002,7054,WL,B,6.0
1,22.276000022888184,learn,37723.99997711182,Mon Feb 10 2025 16:39:26 GMT-0600 (Central Standard Time),198111.40000000037,A,pipeenter,O,enter,328,1,1632.7000000001863,196478.7000000002,7054,WL,B,6.0
1,23.39300012588501,learn,36606.99987411499,Mon Feb 10 2025 16:39:26 GMT-0600 (Central Standard Time),199228.0,A,c,O,c,1106,1,1116.199999999255,198111.80000000075,7054,WL,B,7.0
1,23.509000062942505,learn,36490.999937057495,Mon Feb 10 2025 16:39:26 GMT-0600 (Central Standard Time),199344.60000000056,A,ci,O,i,93,1,1232.7999999998137,198111.80000000075,7054,WL,B,7.0
1,23.676000118255615,learn,36323.999881744385,Mon Feb 10 2025 16:39:26 GMT-0600 (Central Standard Time),199511.2000000002,A,cit,O,t,153,1,1399.3999999994412,198111.80000000075,7054,WL,B,7.0
1,23.842000007629395,learn,36157.999992370605,Mon Feb 10 2025 16:39:26 GMT-0600 (Central Standard Time),199677.5,A,city,O,y,146,1,1565.699999999255,198111.80000000075,7054,WL,B,7.0
1,24.158999919891357,learn,35841.00008010864,Mon Feb 10 2025 16:39:26 GMT-0600 (Central Standard Time),199994.10000000056,A,cityenter,O,enter,307,1,1882.2999999998137,198111.80000000075,7054,WL,B,7.0
1,24.492000102996826,learn,35507.999897003174,Mon Feb 10 2025 16:39:26 GMT-0600 (Central Standard Time),200327.5,A,w,O,w,311,1,333.0,199994.5,7054,WL,B,8.0
1,24.625,learn,35375.0,Mon Feb 10 2025 16:39:26 GMT-0600 (Central Standard Time),200460.60000000056,A,wi,O,i,114,1,466.1000000005588,199994.5,7054,WL,B,8.0
1,24.926000118255615,learn,35073.999881744385,Mon Feb 10 2025 16:39:26 GMT-0600 (Central Standard Time),200761.30000000075,A,win,O,n,293,1,766.8000000007451,199994.5,7054,WL,B,8.0
1,25.27500009536743,learn,34724.99990463257,Mon Feb 10 2025 16:39:26 GMT-0600 (Central Standard Time),201110.5,A,wind,O,d,336,1,1116.0,199994.5,7054,WL,B,8.0
1,25.47499990463257,learn,34525.00009536743,Mon Feb 10 2025 16:39:26 GMT-0600 (Central Standard Time),201310.30000000075,A,windo,O,o,180,1,1315.800000000745,199994.5,7054,WL,B,8.0
1,26.092000007629395,learn,33907.999992370605,Mon Feb 10 2025 16:39:26 GMT-0600 (Central Standard Time),201927.10000000056,A,window,O,w,604,1,1932.6000000005588,199994.5,7054,WL,B,8.0
1,26.39199995994568,learn,33608.00004005432,Mon Feb 10 2025 16:39:26 GMT-0600 (Central Standard Time),202226.7000000002,A,windowenter,O,enter,290,1,2232.2000000001863,199994.5,7054,WL,B,8.0
1,26.825000047683716,learn,33174.999952316284,Mon Feb 10 2025 16:39:26 GMT-0600 (Central Standard Time),202660.2000000002,A,d,O,d,415,1,433.20000000018626,202227.0,7054,WL,B,9.0
1,26.907999992370605,learn,33092.000007629395,Mon Feb 10 2025 16:39:26 GMT-0600 (Central Standard Time),202743.40000000037,A,do,O,o,69,1,516.4000000003725,202227.0,7054,WL,B,9.0
1,27.091000080108643,learn,32908.99991989136,Mon Feb 10 2025 16:39:26 GMT-0600 (Central Standard Time),202926.60000000056,A,doo,O,o,163,1,699.6000000005588,202227.0,7054,WL,B,9.0
1,27.29100012779236,learn,32708.99987220764,Mon Feb 10 2025 16:39:26 GMT-0600 (Central Standard Time),203126.5,A,door,O,r,187,1,899.5,202227.0,7054,WL,B,9.0
1,28.391000032424927,learn,31608.999967575073,Mon Feb 10 2025 16:39:26 GMT-0600 (Central Standard Time),204226.40000000037,A,doorenter,O,enter,1083,1,1999.4000000003725,202227.0,7054,WL,B,9.0
1,39.32100009918213,learn,20678.99990081787,Mon Feb 10 2025 16:39:26 GMT-0600 (Central Standard Time),215156.30000000075,A,enter,O,enter,10919,1,10929.600000000559,204226.7000000002,7054,WL,B,10.0
1,42.62000012397766,learn,17379.99987602234,Mon Feb 10 2025 16:39:26 GMT-0600 (Central Standard Time),218455.30000000075,A,enter,O,enter,3277,1,3298.7000000001863,215156.60000000056,7054,WL,B,11.0
1,43.12000012397766,learn,16879.99987602234,Mon Feb 10 2025 16:39:26 GMT-0600 (Central Standard Time),218955.2000000002,A,enter,O,enter,482,1,499.3999999994412,218455.80000000075,7054,WL,B,12.0
1,43.519999980926514,learn,16480.000019073486,Mon Feb 10 2025 16:39:26 GMT-0600 (Central Standard Time),219355.0,A,enter,O,enter,383,1,399.19999999925494,218955.80000000075,7054,WL,B,13.0
1,43.88599991798401,learn,16114.000082015991,Mon Feb 10 2025 16:39:26 GMT-0600 (Central Standard Time),219721.40000000037,A,enter,O,enter,343,1,366.09999999962747,219355.30000000075,7054,WL,B,14.0
1,44.335999965667725,learn,15664.000034332275,Mon Feb 10 2025 16:39:26 GMT-0600 (Central Standard Time),220171.30000000075,A,enter,O,enter,432,1,449.5,219721.80000000075,7054,WL,B,15.0
2,4.5980000495910645,learn,55401.999950408936,Mon Feb 10 2025 16:39:26 GMT-0600 (Central Standard Time),295298.0,A,c,O,c,4590,1,4597.5,290700.5,7054,WL,B,1.0
2,4.664000034332275,learn,55335.999965667725,Mon Feb 10 2025 16:39:26 GMT-0600 (Central Standard Time),295364.30000000075,A,cl,O,l,55,1,4663.800000000745,290700.5,7054,WL,B,1.0
2,4.880000114440918,learn,55119.99988555908,Mon Feb 10 2025 16:39:26 GMT-0600 (Central Standard Time),295580.7000000002,A,clo,O,o,198,1,4880.200000000186,290700.5,7054,WL,B,1.0
2,5.164000034332275,learn,54835.999965667725,Mon Feb 10 2025 16:39:26 GMT-0600 (Central Standard Time),295864.4000000004,A,cloc,O,c,269,1,5163.9000000003725,290700.5,7054,WL,B,1.0
2,5.296999931335449,learn,54703.00006866455,Mon Feb 10 2025 16:39:26 GMT-0600 (Central Standard Time),295997.7000000002,A,clock,O,k,122,1,5297.200000000186,290700.5,7054,WL,B,1.0
2,6.213000059127808,learn,53786.99994087219,Mon Feb 10 2025 16:39:26 GMT-0600 (Central Standard Time),296913.9000000004,A,clockenter,O,enter,900,1,6213.4000000003725,290700.5,7054,WL,B,1.0
2,10.029000043869019,learn,49970.99995613098,Mon Feb 10 2025 16:39:26 GMT-0600 (Central Standard Time),300729.2000000002,A,g,O,g,3799,1,3814.7999999998137,296914.4000000004,7054,WL,B,2.0
2,10.26200008392334,learn,49737.99991607666,Mon Feb 10 2025 16:39:26 GMT-0600 (Central Standard Time),300962.60000000056,A,gr,O,r,216,1,4048.2000000001863,296914.4000000004,7054,WL,B,2.0
2,10.529000043869019,learn,49470.99995613098,Mon Feb 10 2025 16:39:26 GMT-0600 (Central Standard Time),301229.30000000075,A,gra,O,a,247,1,4314.9000000003725,296914.4000000004,7054,WL,B,2.0
2,10.711999893188477,learn,49288.00010681152,Mon Feb 10 2025 16:39:26 GMT-0600 (Central Standard Time),301412.7000000002,A,gras,O,s,164,1,4498.299999999814,296914.4000000004,7054,WL,B,2.0
2,10.894999980926514,learn,49105.000019073486,Mon Feb 10 2025 16:39:26 GMT-0600 (Central Standard Time),301595.60000000056,A,grass,O,s,174,1,4681.200000000186,296914.4000000004,7054,WL,B,2.0
2,11.961999893188477,learn,48038.00010681152,Mon Feb 10 2025 16:39:26 GMT-0600 (Central Standard Time),302662.2000000002,A,grassenter,O,enter,1054,1,5747.799999999814,296914.4000000004,7054,WL,B,2.0
2,13.227999925613403,learn,46772.0000743866,Mon Feb 10 2025 16:39:26 GMT-0600 (Central Standard Time),303928.7000000002,A,s,O,s,1251,1,1266.2999999998137,302662.4000000004,7054,WL,B,3.0
2,13.42799997329712,learn,46572.00002670288,Mon Feb 10 2025 16:39:26 GMT-0600 (Central Standard Time),304128.5,A,st,O,t,185,1,1466.0999999996275,302662.4000000004,7054,WL,B,3.0
2,13.594000101089478,learn,46405.99989891052,Mon Feb 10 2025 16:39:26 GMT-0600 (Central Standard Time),304295.0,A,sto,O,o,154,1,1632.5999999996275,302662.4000000004,7054,WL,B,3.0
2,13.760999917984009,learn,46239.00008201599,Mon Feb 10 2025 16:39:26 GMT-0600 (Central Standard Time),304461.60000000056,A,stor,O,r,155,1,1799.2000000001863,302662.4000000004,7054,WL,B,3.0
2,13.844000101089478,learn,46155.99989891052,Mon Feb 10 2025 16:39:26 GMT-0600 (Central Standard Time),304544.80000000075,A,store,O,e,61,1,1882.4000000003725,302662.4000000004,7054,WL,B,3.0
2,14.476999998092651,learn,45523.00000190735,Mon Feb 10 2025 16:39:26 GMT-0600 (Central Standard Time),305177.9000000004,A,storeenter,O,enter,626,1,2515.5,302662.4000000004,7054,WL,B,3.0
2,14.877000093460083,learn,45122.99990653992,Mon Feb 10 2025 16:39:26 GMT-0600 (Central Standard Time),305577.80000000075,A,w,O,w,384,1,399.6000000005588,305178.2000000002,7054,WL,B,4.0
2,14.99399995803833,learn,45006.00004196167,Mon Feb 10 2025 16:39:26 GMT-0600 (Central Standard Time),305694.5,A,wi,O,i,104,1,516.2999999998137,305178.2000000002,7054,WL,B,4.0
2,15.476999998092651,learn,44523.00000190735,Mon Feb 10 2025 16:39:26 GMT-0600 (Central Standard Time),306177.7000000002,A,wif,O,f,475,1,999.5,305178.2000000002,7054,WL,B,4.0
2,15.677000045776367,learn,44322.99995422363,Mon Feb 10 2025 16:39:26 GMT-0600 (Central Standard Time),306377.7000000002,A,wife,O,e,192,1,1199.5,305178.2000000002,7054,WL,B,4.0
2,17.042999982833862,learn,42957.00001716614,Mon Feb 10 2025 16:39:26 GMT-0600 (Central Standard Time),307743.60000000056,A,wifeenter,O,enter,1344,1,2565.4000000003725,305178.2000000002,7054,WL,B,4.0
2,17.526999950408936,learn,42473.000049591064,Mon Feb 10 2025 16:39:26 GMT-0600 (Central Standard Time),308227.10000000056,A,c,O,c,474,1,483.1000000005588,307744.0,7054,WL,B,5.0
2,17.627000093460083,learn,42372.99990653992,Mon Feb 10 2025 16:39:26 GMT-0600 (Central Standard Time),308327.2000000002,A,ci,O,i,87,1,583.2000000001863,307744.0,7054,WL,B,5.0
2,17.842999935150146,learn,42157.00006484985,Mon Feb 10 2025 16:39:26 GMT-0600 (Central Standard Time),308543.5,A,cit,O,t,203,1,799.5,307744.0,7054,WL,B,5.0
2,17.9760000705719,learn,42023.9999294281,Mon Feb 10 2025 16:39:26 GMT-0600 (Central Standard Time),308676.9000000004,A,city,O,y,114,1,932.9000000003725,307744.0,7054,WL,B,5.0
2,18.276000022888184,learn,41723.99997711182,Mon Feb 10 2025 16:39:26 GMT-0600 (Central Standard Time),308977.10000000056,A,cityenter,O,enter,285,1,1233.1000000005588,307744.0,7054,WL,B,5.0
2,18.627000093460083,learn,41372.99990653992,Mon Feb 10 2025 16:39:26 GMT-0600 (Central Standard Time),309327.9000000004,A,s,O,s,329,1,350.5,308977.4000000004,7054,WL,B,6.0
2,18.792999982833862,learn,41207.00001716614,Mon Feb 10 2025 16:39:26 GMT-0600 (Central Standard Time),309493.4000000004,A,st,O,t,145,1,516.0,308977.4000000004,7054,WL,B,6.0
2,18.95900011062622,learn,41040.99988937378,Mon Feb 10 2025 16:39:26 GMT-0600 (Central Standard Time),309659.9000000004,A,sta,O,a,156,1,682.5,308977.4000000004,7054,WL,B,6.0
2,19.125999927520752,learn,40874.00007247925,Mon Feb 10 2025 16:39:26 GMT-0600 (Central Standard Time),309826.5,A,star,O,r,150,1,849.0999999996275,308977.4000000004,7054,WL,B,6.0
2,19.842000007629395,learn,40157.999992370605,Mon Feb 10 2025 16:39:26 GMT-0600 (Central Standard Time),310543.0,A,starenter,O,enter,695,1,1565.5999999996275,308977.4000000004,7054,WL,B,6.0
2,20.342000007629395,learn,39657.999992370605,Mon Feb 10 2025 16:39:26 GMT-0600 (Central Standard Time),311042.80000000075,A,s,O,s,490,1,499.40000000037253,310543.4000000004,7054,WL,B,7.0
2,20.492000102996826,learn,39507.999897003174,Mon Feb 10 2025 16:39:26 GMT-0600 (Central Standard Time),311192.80000000075,A,sk,O,k,135,1,649.4000000003725,310543.4000000004,7054,WL,B,7.0
2,20.691999912261963,learn,39308.00008773804,Mon Feb 10 2025 16:39:26 GMT-0600 (Central Standard Time),311392.7000000002,A,ski,O,i,185,1,849.2999999998137,310543.4000000004,7054,WL,B,7.0
2,20.908999919891357,learn,39091.00008010864,Mon Feb 10 2025 16:39:26 GMT-0600 (Central Standard Time),311609.4000000004,A,skin,O,n,201,1,1066.0,310543.4000000004,7054,WL,B,7.0
2,21.691999912261963,learn,38308.00008773804,Mon Feb 10 2025 16:39:26 GMT-0600 (Central Standard Time),312392.5,A,skinenter,O,enter,760,1,1849.0999999996275,310543.4000000004,7054,WL,B,7.0
2,24.242000102996826,learn,35757.999897003174,Mon Feb 10 2025 16:39:26 GMT-0600 (Central Standard Time),314942.80000000075,A,p,O,p,2529,1,2549.9000000003725,312392.9000000004,7054,WL,B,8.0
2,24.35700011253357,learn,35642.99988746643,Mon Feb 10 2025 16:39:26 GMT-0600 (Central Standard Time),315058.0,A,pu,O,u,107,1,2665.0999999996275,312392.9000000004,7054,WL,B,8.0
2,24.95799994468689,learn,35042.00005531311,Mon Feb 10 2025 16:39:26 GMT-0600 (Central Standard Time),315658.80000000075,A,pup,O,p,592,1,3265.9000000003725,312392.9000000004,7054,WL,B,8.0
2,25.2739999294281,learn,34726.0000705719,Mon Feb 10 2025 16:39:26 GMT-0600 (Central Standard Time),315974.5,A,pupi,O,i,295,1,3581.5999999996275,312392.9000000004,7054,WL,B,8.0
2,25.574000120162964,learn,34425.999879837036,Mon Feb 10 2025 16:39:26 GMT-0600 (Central Standard Time),316274.5,A,pupil,O,l,283,1,3881.5999999996275,312392.9000000004,7054,WL,B,8.0
2,26.157000064849854,learn,33842.99993515015,Mon Feb 10 2025 16:39:26 GMT-0600 (Central Standard Time),316857.80000000075,A,pupilenter,O,enter,560,1,4464.9000000003725,312392.9000000004,7054,WL,B,8.0
2,26.657000064849854,learn,33342.99993515015,Mon Feb 10 2025 16:39:26 GMT-0600 (Central Standard Time),317357.7000000002,A,p,O,p,488,1,499.5,316858.2000000002,7054,WL,B,9.0
2,26.789999961853027,learn,33210.00003814697,Mon Feb 10 2025 16:39:26 GMT-0600 (Central Standard Time),317490.80000000075,A,pi,O,i,115,1,632.6000000005588,316858.2000000002,7054,WL,B,9.0
2,26.957000017166138,learn,33042.99998283386,Mon Feb 10 2025 16:39:26 GMT-0600 (Central Standard Time),317657.30000000075,A,pip,O,p,151,1,799.1000000005588,316858.2000000002,7054,WL,B,9.0
2,27.657000064849854,learn,32342.999935150146,Mon Feb 10 2025 16:39:26 GMT-0600 (Central Standard Time),318357.4000000004,A,pipe,O,e,682,1,1499.2000000001863,316858.2000000002,7054,WL,B,9.0
2,28.17300009727478,learn,31826.99990272522,Mon Feb 10 2025 16:39:26 GMT-0600 (Central Standard Time),318873.80000000075,A,pipeenter,O,enter,500,1,2015.6000000005588,316858.2000000002,7054,WL,B,9.0
2,30.289000034332275,learn,29710.999965667725,Mon Feb 10 2025 16:39:26 GMT-0600 (Central Standard Time),320989.80000000075,A,w,O,w,2104,1,2115.7000000001863,318874.10000000056,7054,WL,B,10.0
2,30.48900008201599,learn,29510.99991798401,Mon Feb 10 2025 16:39:26 GMT-0600 (Central Standard Time),321189.7000000002,A,wi,O,i,188,1,2315.5999999996275,318874.10000000056,7054,WL,B,10.0
2,30.655999898910522,learn,29344.000101089478,Mon Feb 10 2025 16:39:26 GMT-0600 (Central Standard Time),321356.30000000075,A,win,O,n,148,1,2482.2000000001863,318874.10000000056,7054,WL,B,10.0
2,30.772000074386597,learn,29227.999925613403,Mon Feb 10 2025 16:39:26 GMT-0600 (Central Standard Time),321472.80000000075,A,wind,O,d,102,1,2598.7000000001863,318874.10000000056,7054,WL,B,10.0
2,31.022000074386597,learn,28977.999925613403,Mon Feb 10 2025 16:39:26 GMT-0600 (Central Standard Time),321722.9000000004,A,windo,O,o,240,1,2848.7999999998137,318874.10000000056,7054,WL,B,10.0
2,31.289000034332275,learn,28710.999965667725,Mon Feb 10 2025 16:39:26 GMT-0600 (Central Standard Time),321989.2000000002,A,window,O,w,255,1,3115.0999999996275,318874.10000000056,7054,WL,B,10.0
2,31.505000114440918,learn,28494.999885559082,Mon Feb 10 2025 16:39:26 GMT-0600 (Central Standard Time),322206.0,A,windowenter,O,enter,196,1,3331.899999999441,318874.10000000056,7054,WL,B,10.0
2,31.805000066757202,learn,28194.999933242798,Mon Feb 10 2025 16:39:26 GMT-0600 (Central Standard Time),322505.9000000004,A,d,O,d,284,1,299.5,322206.4000000004,7054,WL,B,11.0
2,31.938999891281128,learn,28061.000108718872,Mon Feb 10 2025 16:39:26 GMT-0600 (Central Standard Time),322639.2000000002,A,do,O,o,112,1,432.79999999981374,322206.4000000004,7054,WL,B,11.0
2,32.105000019073486,learn,27894.999980926514,Mon Feb 10 2025 16:39:26 GMT-0600 (Central Standard Time),322805.60000000056,A,doo,O,o,147,1,599.2000000001863,322206.4000000004,7054,WL,B,11.0
2,32.25600004196167,learn,27743.99995803833,Mon Feb 10 2025 16:39:26 GMT-0600 (Central Standard Time),322956.9000000004,A,door,O,r,132,1,750.5,322206.4000000004,7054,WL,B,11.0
2,32.7720000743866,learn,27227.999925613403,Mon Feb 10 2025 16:39:26 GMT-0600 (Central Standard Time),323472.30000000075,A,doorenter,O,enter,493,1,1265.9000000003725,322206.4000000004,7054,WL,B,11.0
2,37.33699989318848,learn,22663.000106811523,Mon Feb 10 2025 16:39:26 GMT-0600 (Central Standard Time),328037.4000000004,A,s,O,s,4545,1,4564.700000000186,323472.7000000002,7054,WL,B,12.0
2,37.437000036239624,learn,22562.999963760376,Mon Feb 10 2025 16:39:26 GMT-0600 (Central Standard Time),328137.30000000075,A,sk,O,k,77,1,4664.600000000559,323472.7000000002,7054,WL,B,12.0
2,37.62100005149841,learn,22378.999948501587,Mon Feb 10 2025 16:39:26 GMT-0600 (Central Standard Time),328321.30000000075,A,ski,O,i,176,1,4848.600000000559,323472.7000000002,7054,WL,B,12.0
2,37.769999980926514,learn,22230.000019073486,Mon Feb 10 2025 16:39:26 GMT-0600 (Central Standard Time),328470.7000000002,A,skin,O,n,137,1,4998.0,323472.7000000002,7054,WL,B,12.0
2,38.187000036239624,learn,21812.999963760376,Mon Feb 10 2025 16:39:26 GMT-0600 (Central Standard Time),328887.4000000004,A,skinenter,O,enter,395,1,5414.700000000186,323472.7000000002,7054,WL,B,12.0
2,38.80299997329712,learn,21197.00002670288,Mon Feb 10 2025 16:39:26 GMT-0600 (Central Standard Time),329503.60000000056,A,l,O,l,603,1,616.0,328887.60000000056,7054,WL,B,13.0
2,38.93600010871887,learn,21063.999891281128,Mon Feb 10 2025 16:39:26 GMT-0600 (Central Standard Time),329637.0,A,la,O,a,122,1,749.3999999994412,328887.60000000056,7054,WL,B,13.0
2,39.085999965667725,learn,20914.000034332275,Mon Feb 10 2025 16:39:26 GMT-0600 (Central Standard Time),329786.9000000004,A,lak,O,k,140,1,899.2999999998137,328887.60000000056,7054,WL,B,13.0
2,39.253000020980835,learn,20746.999979019165,Mon Feb 10 2025 16:39:26 GMT-0600 (Central Standard Time),329953.5,A,lake,O,e,158,1,1065.8999999994412,328887.60000000056,7054,WL,B,13.0
2,39.6029999256134,learn,20397.000074386597,Mon Feb 10 2025 16:39:26 GMT-0600 (Central Standard Time),330303.30000000075,A,lakeenter,O,enter,336,1,1415.7000000001863,328887.60000000056,7054,WL,B,13.0
2,42.569000005722046,learn,17430.999994277954,Mon Feb 10 2025 16:39:26 GMT-0600 (Central Standard Time),333269.30000000075,A,c,O,c,2955,1,2965.7000000001863,330303.60000000056,7054,WL,B,14.0
2,42.75200009346008,learn,17247.999906539917,Mon Feb 10 2025 16:39:26 GMT-0600 (Central Standard Time),333452.5,A,ca,O,a,164,1,3148.899999999441,330303.60000000056,7054,WL,B,14.0
2,43.05200004577637,learn,16947.999954223633,Mon Feb 10 2025 16:39:26 GMT-0600 (Central Standard Time),333752.4000000004,A,cab,O,b,277,1,3448.7999999998137,330303.60000000056,7054,WL,B,14.0
2,43.20199990272522,learn,16798.00009727478,Mon Feb 10 2025 16:39:26 GMT-0600 (Central Standard Time),333902.5,A,cabi,O,i,137,1,3598.899999999441,330303.60000000056,7054,WL,B,14.0
2,43.318000078201294,learn,16681.999921798706,Mon Feb 10 2025 16:39:26 GMT-0600 (Central Standard Time),334018.7000000002,A,cabin,O,n,107,1,3715.0999999996275,330303.60000000056,7054,WL,B,14.0
2,43.66799998283386,learn,16332.000017166138,Mon Feb 10 2025 16:39:26 GMT-0600 (Central Standard Time),334368.7000000002,A,cabinenter,O,enter,335,1,4065.0999999996275,330303.60000000056,7054,WL,B,14.0
2,46.717000007629395,learn,13282.999992370605,Mon Feb 10 2025 16:39:26 GMT-0600 (Central Standard Time),337417.80000000075,A,enter,O,enter,3033,1,3048.7000000001863,334369.10000000056,7054,WL,B,15.0
3,1.9660000801086426,learn,58033.99991989136,Mon Feb 10 2025 16:39:26 GMT-0600 (Central Standard Time),407446.0,A,f,O,f,1946,1,1965.8999999994412,405480.10000000056,7054,WL,B,1.0
3,2.115999937057495,learn,57884.000062942505,Mon Feb 10 2025 16:39:26 GMT-0600 (Central Standard Time),407596.0,A,fi,O,i,139,1,2115.899999999441,405480.10000000056,7054,WL,B,1.0
3,2.249000072479248,learn,57750.99992752075,Mon Feb 10 2025 16:39:26 GMT-0600 (Central Standard Time),407729.30000000075,A,fir,O,r,126,1,2249.2000000001863,405480.10000000056,7054,WL,B,1.0
3,2.3489999771118164,learn,57651.00002288818,Mon Feb 10 2025 16:39:26 GMT-0600 (Central Standard Time),407829.2000000002,A,fire,O,e,80,1,2349.0999999996275,405480.10000000056,7054,WL,B,1.0
3,3.0329999923706055,learn,56967.000007629395,Mon Feb 10 2025 16:39:26 GMT-0600 (Central Standard Time),408512.60000000056,A,fireenter,O,enter,669,1,3032.5,405480.10000000056,7054,WL,B,1.0
3,3.5339999198913574,learn,56466.00008010864,Mon Feb 10 2025 16:39:26 GMT-0600 (Central Standard Time),409013.4000000004,A,c,O,c,481,1,500.5,408512.9000000004,7054,WL,B,2.0
3,3.6489999294281006,learn,56351.0000705719,Mon Feb 10 2025 16:39:26 GMT-0600 (Central Standard Time),409128.7000000002,A,cl,O,l,100,1,615.7999999998137,408512.9000000004,7054,WL,B,2.0
3,3.8320000171661377,learn,56167.99998283386,Mon Feb 10 2025 16:39:26 GMT-0600 (Central Standard Time),409312.2000000002,A,clo,O,o,169,1,799.2999999998137,408512.9000000004,7054,WL,B,2.0
3,4.0320000648498535,learn,55967.99993515015,Mon Feb 10 2025 16:39:26 GMT-0600 (Central Standard Time),409512.10000000056,A,cloc,O,c,178,1,999.2000000001863,408512.9000000004,7054,WL,B,2.0
3,4.181999921798706,learn,55818.000078201294,Mon Feb 10 2025 16:39:26 GMT-0600 (Central Standard Time),409662.0,A,clock,O,k,138,1,1149.0999999996275,408512.9000000004,7054,WL,B,2.0
3,4.598999977111816,learn,55401.00002288818,Mon Feb 10 2025 16:39:26 GMT-0600 (Central Standard Time),410078.60000000056,A,clockenter,O,enter,404,1,1565.7000000001863,408512.9000000004,7054,WL,B,2.0
3,5.0980000495910645,learn,54901.999950408936,Mon Feb 10 2025 16:39:26 GMT-0600 (Central Standard Time),410578.10000000056,A,w,O,w,491,1,499.20000000018626,410078.9000000004,7054,WL,B,3.0
3,5.2149999141693115,learn,54785.00008583069,Mon Feb 10 2025 16:39:26 GMT-0600 (Central Standard Time),410695.0,A,wi,O,i,96,1,616.0999999996275,410078.9000000004,7054,WL,B,3.0
3,5.315000057220459,learn,54684.99994277954,Mon Feb 10 2025 16:39:26 GMT-0600 (Central Standard Time),410795.0,A,win,O,n,91,1,716.0999999996275,410078.9000000004,7054,WL,B,3.0
3,5.497999906539917,learn,54502.00009346008,Mon Feb 10 2025 16:39:26 GMT-0600 (Central Standard Time),410978.30000000075,A,wind,O,d,167,1,899.4000000003725,410078.9000000004,7054,WL,B,3.0
3,5.631999969482422,learn,54368.00003051758,Mon Feb 10 2025 16:39:26 GMT-0600 (Central Standard Time),411111.4000000004,A,windo,O,o,120,1,1032.5,410078.9000000004,7054,WL,B,3.0
3,5.865000009536743,learn,54134.99999046326,Mon Feb 10 2025 16:39:26 GMT-0600 (Central Standard Time),411344.9000000004,A,window,O,w,210,1,1266.0,410078.9000000004,7054,WL,B,3.0
3,6.23199987411499,learn,53768.00012588501,Mon Feb 10 2025 16:39:26 GMT-0600 (Central Standard Time),411711.4000000004,A,windowenter,O,enter,353,1,1632.5,410078.9000000004,7054,WL,B,3.0
3,6.697999954223633,learn,53302.00004577637,Mon Feb 10 2025 16:39:26 GMT-0600 (Central Standard Time),412177.80000000075,A,s,O,s,450,1,466.1000000005588,411711.7000000002,7054,WL,B,4.0
3,6.830999851226807,learn,53169.00014877319,Mon Feb 10 2025 16:39:26 GMT-0600 (Central Standard Time),412311.10000000056,A,st,O,t,112,1,599.4000000003725,411711.7000000002,7054,WL,B,4.0
3,7.047999858856201,learn,52952.0001411438,Mon Feb 10 2025 16:39:26 GMT-0600 (Central Standard Time),412527.60000000056,A,str,O,r,194,1,815.9000000003725,411711.7000000002,7054,WL,B,4.0
3,7.115999937057495,learn,52884.000062942505,Mon Feb 10 2025 16:39:26 GMT-0600 (Central Standard Time),412595.4000000004,A,stre,O,e,58,1,883.7000000001863,411711.7000000002,7054,WL,B,4.0
3,7.297999858856201,learn,52702.0001411438,Mon Feb 10 2025 16:39:26 GMT-0600 (Central Standard Time),412777.5,A,stree,O,e,174,1,1065.7999999998137,411711.7000000002,7054,WL,B,4.0
3,7.513999938964844,learn,52486.000061035156,Mon Feb 10 2025 16:39:26 GMT-0600 (Central Standard Time),412994.0,A,street,O,t,209,1,1282.2999999998137,411711.7000000002,7054,WL,B,4.0
3,7.680999994277954,learn,52319.000005722046,Mon Feb 10 2025 16:39:26 GMT-0600 (Central Standard Time),413161.0,A,streetenter,O,enter,151,1,1449.2999999998137,411711.7000000002,7054,WL,B,4.0
3,7.914000034332275,learn,52085.999965667725,Mon Feb 10 2025 16:39:26 GMT-0600 (Central Standard Time),413394.10000000056,A,g,O,g,216,1,232.79999999981374,413161.30000000075,7054,WL,B,5.0
3,8.114000082015991,learn,51885.99991798401,Mon Feb 10 2025 16:39:26 GMT-0600 (Central Standard Time),413594.30000000075,A,gr,O,r,185,1,433.0,413161.30000000075,7054,WL,B,5.0
3,8.263999938964844,learn,51736.000061035156,Mon Feb 10 2025 16:39:26 GMT-0600 (Central Standard Time),413744.0,A,gra,O,a,128,1,582.6999999992549,413161.30000000075,7054,WL,B,5.0
3,8.414000034332275,learn,51585.999965667725,Mon Feb 10 2025 16:39:26 GMT-0600 (Central Standard Time),413893.9000000004,A,gras,O,s,137,1,732.5999999996275,413161.30000000075,7054,WL,B,5.0
3,8.614000082015991,learn,51385.99991798401,Mon Feb 10 2025 16:39:26 GMT-0600 (Central Standard Time),414093.80000000075,A,grass,O,s,179,1,932.5,413161.30000000075,7054,WL,B,5.0
3,9.763999938964844,learn,50236.000061035156,Mon Feb 10 2025 16:39:26 GMT-0600 (Central Standard Time),415243.5,A,grassenter,O,enter,1132,1,2082.199999999255,413161.30000000075,7054,WL,B,5.0
3,10.162999868392944,learn,49837.000131607056,Mon Feb 10 2025 16:39:26 GMT-0600 (Central Standard Time),415643.30000000075,A,w,O,w,382,1,399.5,415243.80000000075,7054,WL,B,6.0
3,10.312999963760376,learn,49687.000036239624,Mon Feb 10 2025 16:39:26 GMT-0600 (Central Standard Time),415793.2000000002,A,wi,O,i,127,1,549.3999999994412,415243.80000000075,7054,WL,B,6.0
3,10.430000066757202,learn,49569.9999332428,Mon Feb 10 2025 16:39:26 GMT-0600 (Central Standard Time),415910.0,A,wif,O,f,96,1,666.1999999992549,415243.80000000075,7054,WL,B,6.0
3,10.579999923706055,learn,49420.000076293945,Mon Feb 10 2025 16:39:26 GMT-0600 (Central Standard Time),416060.0,A,wife,O,e,140,1,816.1999999992549,415243.80000000075,7054,WL,B,6.0
3,11.096999883651733,learn,48903.00011634827,Mon Feb 10 2025 16:39:26 GMT-0600 (Central Standard Time),416576.5,A,wifeenter,O,enter,494,1,1332.699999999255,415243.80000000075,7054,WL,B,6.0
3,11.345999956130981,learn,48654.00004386902,Mon Feb 10 2025 16:39:26 GMT-0600 (Central Standard Time),416826.2000000002,A,s,O,s,241,1,249.29999999981374,416576.9000000004,7054,WL,B,7.0
3,11.480000019073486,learn,48519.999980926514,Mon Feb 10 2025 16:39:26 GMT-0600 (Central Standard Time),416959.5,A,st,O,t,120,1,382.59999999962747,416576.9000000004,7054,WL,B,7.0
3,11.662999868392944,learn,48337.000131607056,Mon Feb 10 2025 16:39:26 GMT-0600 (Central Standard Time),417142.9000000004,A,sta,O,a,170,1,566.0,416576.9000000004,7054,WL,B,7.0
3,11.796000003814697,learn,48203.9999961853,Mon Feb 10 2025 16:39:26 GMT-0600 (Central Standard Time),417276.30000000075,A,star,O,r,123,1,699.4000000003725,416576.9000000004,7054,WL,B,7.0
3,12.27999997138977,learn,47720.00002861023,Mon Feb 10 2025 16:39:26 GMT-0600 (Central Standard Time),417759.60000000056,A,starenter,O,enter,469,1,1182.7000000001863,416576.9000000004,7054,WL,B,7.0
3,12.713000059127808,learn,47286.99994087219,Mon Feb 10 2025 16:39:26 GMT-0600 (Central Standard Time),418192.7000000002,A,c,O,c,410,1,432.79999999981374,417759.9000000004,7054,WL,B,8.0
3,12.845999956130981,learn,47154.00004386902,Mon Feb 10 2025 16:39:26 GMT-0600 (Central Standard Time),418325.9000000004,A,ci,O,i,112,1,566.0,417759.9000000004,7054,WL,B,8.0
3,13.013000011444092,learn,46986.99998855591,Mon Feb 10 2025 16:39:26 GMT-0600 (Central Standard Time),418492.5,A,cit,O,t,156,1,732.5999999996275,417759.9000000004,7054,WL,B,8.0
3,13.178999900817871,learn,46821.00009918213,Mon Feb 10 2025 16:39:26 GMT-0600 (Central Standard Time),418659.2000000002,A,city,O,y,149,1,899.2999999998137,417759.9000000004,7054,WL,B,8.0
3,14.228999853134155,learn,45771.000146865845,Mon Feb 10 2025 16:39:26 GMT-0600 (Central Standard Time),419708.7000000002,A,cityenter,O,enter,1039,1,1948.7999999998137,417759.9000000004,7054,WL,B,8.0
3,14.480000019073486,learn,45519.999980926514,Mon Feb 10 2025 16:39:26 GMT-0600 (Central Standard Time),419959.5,A,a,O,a,237,1,250.5,419709.0,7054,WL,B,9.0
3,14.644999980926514,learn,45355.000019073486,Mon Feb 10 2025 16:39:26 GMT-0600 (Central Standard Time),420125.4000000004,A,ar,O,r,147,1,416.40000000037253,419709.0,7054,WL,B,9.0
3,14.861999988555908,learn,45138.00001144409,Mon Feb 10 2025 16:39:26 GMT-0600 (Central Standard Time),420341.9000000004,A,arm,O,m,197,1,632.9000000003725,419709.0,7054,WL,B,9.0
3,15.51199984550476,learn,44488.00015449524,Mon Feb 10 2025 16:39:26 GMT-0600 (Central Standard Time),420991.7000000002,A,armenter,O,enter,636,1,1282.7000000001863,419709.0,7054,WL,B,9.0
3,15.861999988555908,learn,44138.00001144409,Mon Feb 10 2025 16:39:26 GMT-0600 (Central Standard Time),421341.60000000056,A,s,O,s,331,1,349.6000000005588,420992.0,7054,WL,B,10.0
3,15.961999893188477,learn,44038.00010681152,Mon Feb 10 2025 16:39:26 GMT-0600 (Central Standard Time),421441.5,A,sk,O,k,77,1,449.5,420992.0,7054,WL,B,10.0
3,16.128000020980835,learn,43871.999979019165,Mon Feb 10 2025 16:39:26 GMT-0600 (Central Standard Time),421608.2000000002,A,ski,O,i,152,1,616.2000000001863,420992.0,7054,WL,B,10.0
3,16.312000036239624,learn,43687.999963760376,Mon Feb 10 2025 16:39:26 GMT-0600 (Central Standard Time),421791.7000000002,A,skin,O,n,162,1,799.7000000001863,420992.0,7054,WL,B,10.0
3,16.91100001335144,learn,43088.99998664856,Mon Feb 10 2025 16:39:26 GMT-0600 (Central Standard Time),422391.30000000075,A,skinenter,O,enter,578,1,1399.300000000745,420992.0,7054,WL,B,10.0
3,17.277999877929688,learn,42722.00012207031,Mon Feb 10 2025 16:39:26 GMT-0600 (Central Standard Time),422758.0,A,p,O,p,347,1,366.29999999981374,422391.7000000002,7054,WL,B,11.0
3,17.378000020980835,learn,42621.999979019165,Mon Feb 10 2025 16:39:26 GMT-0600 (Central Standard Time),422857.60000000056,A,pi,O,i,92,1,465.90000000037253,422391.7000000002,7054,WL,B,11.0
3,17.560999870300293,learn,42439.00012969971,Mon Feb 10 2025 16:39:26 GMT-0600 (Central Standard Time),423041.2000000002,A,pip,O,p,168,1,649.5,422391.7000000002,7054,WL,B,11.0
3,18.194000005722046,learn,41805.999994277954,Mon Feb 10 2025 16:39:26 GMT-0600 (Central Standard Time),423674.30000000075,A,pipe,O,e,616,1,1282.6000000005588,422391.7000000002,7054,WL,B,11.0
3,18.460999965667725,learn,41539.000034332275,Mon Feb 10 2025 16:39:26 GMT-0600 (Central Standard Time),423940.80000000075,A,pipeenter,O,enter,255,1,1549.1000000005588,422391.7000000002,7054,WL,B,11.0
3,19.027999877929688,learn,40972.00012207031,Mon Feb 10 2025 16:39:26 GMT-0600 (Central Standard Time),424507.9000000004,A,p,O,p,558,1,566.7000000001863,423941.2000000002,7054,WL,B,12.0
3,19.17799997329712,learn,40822.00002670288,Mon Feb 10 2025 16:39:26 GMT-0600 (Central Standard Time),424658.10000000056,A,pu,O,u,126,1,716.9000000003725,423941.2000000002,7054,WL,B,12.0
3,19.444000005722046,learn,40555.999994277954,Mon Feb 10 2025 16:39:26 GMT-0600 (Central Standard Time),424924.10000000056,A,pul,O,l,248,1,982.9000000003725,423941.2000000002,7054,WL,B,12.0
3,20.109999895095825,learn,39890.000104904175,Mon Feb 10 2025 16:39:26 GMT-0600 (Central Standard Time),425590.2000000002,A,pu,O,backspace,654,1,1649.0,423941.2000000002,7054,WL,B,12.0
3,20.509999990463257,learn,39490.00000953674,Mon Feb 10 2025 16:39:26 GMT-0600 (Central Standard Time),425989.9000000004,A,pup,O,p,379,1,2048.7000000001863,423941.2000000002,7054,WL,B,12.0
3,20.677000045776367,learn,39322.99995422363,Mon Feb 10 2025 16:39:26 GMT-0600 (Central Standard Time),426156.80000000075,A,pupi,O,i,156,1,2215.600000000559,423941.2000000002,7054,WL,B,12.0
3,20.943000078201294,learn,39056.999921798706,Mon Feb 10 2025 16:39:26 GMT-0600 (Central Standard Time),426423.30000000075,A,pupil,O,l,245,1,2482.100000000559,423941.2000000002,7054,WL,B,12.0
3,21.276000022888184,learn,38723.99997711182,Mon Feb 10 2025 16:39:26 GMT-0600 (Central Standard Time),426756.30000000075,A,pupilenter,O,enter,314,1,2815.100000000559,423941.2000000002,7054,WL,B,12.0
3,22.009999990463257,learn,37990.00000953674,Mon Feb 10 2025 16:39:26 GMT-0600 (Central Standard Time),427489.60000000056,A,c,O,c,710,1,732.9000000003725,426756.7000000002,7054,WL,B,13.0
3,22.193000078201294,learn,37806.999921798706,Mon Feb 10 2025 16:39:26 GMT-0600 (Central Standard Time),427673.0,A,ca,O,a,160,1,916.2999999998137,426756.7000000002,7054,WL,B,13.0
3,22.40999984741211,learn,37590.00015258789,Mon Feb 10 2025 16:39:26 GMT-0600 (Central Standard Time),427889.7000000002,A,cab,O,b,209,1,1133.0,426756.7000000002,7054,WL,B,13.0
3,22.592999935150146,learn,37407.00006484985,Mon Feb 10 2025 16:39:26 GMT-0600 (Central Standard Time),428072.9000000004,A,cabi,O,i,160,1,1316.2000000001863,426756.7000000002,7054,WL,B,13.0
3,22.70899987220764,learn,37291.00012779236,Mon Feb 10 2025 16:39:26 GMT-0600 (Central Standard Time),428189.4000000004,A,cabin,O,n,97,1,1432.7000000001863,426756.7000000002,7054,WL,B,13.0
3,23.009999990463257,learn,36990.00000953674,Mon Feb 10 2025 16:39:26 GMT-0600 (Central Standard Time),428489.5,A,cabinenter,O,enter,276,1,1732.7999999998137,426756.7000000002,7054,WL,B,13.0
3,23.259000062942505,learn,36740.999937057495,Mon Feb 10 2025 16:39:26 GMT-0600 (Central Standard Time),428739.30000000075,A,l,O,l,232,1,249.40000000037253,428489.9000000004,7054,WL,B,14.0
3,23.375999927520752,learn,36624.00007247925,Mon Feb 10 2025 16:39:26 GMT-0600 (Central Standard Time),428855.9000000004,A,la,O,a,94,1,366.0,428489.9000000004,7054,WL,B,14.0
3,23.592999935150146,learn,36407.00006484985,Mon Feb 10 2025 16:39:26 GMT-0600 (Central Standard Time),429072.80000000075,A,lak,O,k,193,1,582.9000000003725,428489.9000000004,7054,WL,B,14.0
3,23.743000030517578,learn,36256.99996948242,Mon Feb 10 2025 16:39:26 GMT-0600 (Central Standard Time),429222.5,A,lake,O,e,137,1,732.5999999996275,428489.9000000004,7054,WL,B,14.0
3,24.325999975204468,learn,35674.00002479553,Mon Feb 10 2025 16:39:26 GMT-0600 (Central Standard Time),429805.80000000075,A,lakeenter,O,enter,563,1,1315.9000000003725,428489.9000000004,7054,WL,B,14.0
3,26.657999992370605,learn,33342.000007629395,Mon Feb 10 2025 16:39:26 GMT-0600 (Central Standard Time),432138.10000000056,A,f,O,f,2316,1,2332.100000000559,429806.0,7054,WL,B,15.0
3,26.757999897003174,learn,33242.000102996826,Mon Feb 10 2025 16:39:26 GMT-0600 (Central Standard Time),432238.10000000056,A,fi,O,i,80,1,2432.100000000559,429806.0,7054,WL,B,15.0
3,26.89199995994568,learn,33108.00004005432,Mon Feb 10 2025 16:39:26 GMT-0600 (Central Standard Time),432371.4000000004,A,fir,O,r,115,1,2565.4000000003725,429806.0,7054,WL,B,15.0
3,26.95799994468689,learn,33042.00005531311,Mon Feb 10 2025 16:39:26 GMT-0600 (Central Standard Time),432438.10000000056,A,fire,O,e,54,1,2632.100000000559,429806.0,7054,WL,B,15.0
3,27.29200005531311,learn,32707.99994468689,Mon Feb 10 2025 16:39:26 GMT-0600 (Central Standard Time),432771.4000000004,A,fireenter,O,enter,316,1,2965.4000000003725,429806.0,7054,WL,B,15.0
4,1.7879998683929443,learn,58212.000131607056,Mon Feb 10 2025 16:39:26 GMT-0600 (Central Standard Time),502049.9000000004,A,s,O,s,1771,1,1787.4000000003725,500262.5,7054,WL,B,1.0
4,2.1710000038146973,learn,57828.9999961853,Mon Feb 10 2025 16:39:26 GMT-0600 (Central Standard Time),502432.7000000002,A,st,O,t,367,1,2170.2000000001863,500262.5,7054,WL,B,1.0
4,2.436999797821045,learn,57563.000202178955,Mon Feb 10 2025 16:39:26 GMT-0600 (Central Standard Time),502699.4000000004,A,str,O,r,257,1,2436.9000000003725,500262.5,7054,WL,B,1.0
4,2.4709999561309814,learn,57529.00004386902,Mon Feb 10 2025 16:39:26 GMT-0600 (Central Standard Time),502732.60000000056,A,stre,O,e,22,1,2470.100000000559,500262.5,7054,WL,B,1.0
4,2.6710000038146973,learn,57328.9999961853,Mon Feb 10 2025 16:39:26 GMT-0600 (Central Standard Time),502932.60000000056,A,stree,O,e,189,1,2670.100000000559,500262.5,7054,WL,B,1.0
4,2.937999963760376,learn,57062.000036239624,Mon Feb 10 2025 16:39:26 GMT-0600 (Central Standard Time),503200.5,A,street,O,t,245,1,2938.0,500262.5,7054,WL,B,1.0
4,3.686999797821045,learn,56313.000202178955,Mon Feb 10 2025 16:39:26 GMT-0600 (Central Standard Time),503949.10000000056,A,streets,O,s,737,1,3686.600000000559,500262.5,7054,WL,B,1.0
4,4.003999948501587,learn,55996.00005149841,Mon Feb 10 2025 16:39:26 GMT-0600 (Central Standard Time),504266.0,A,streetst,O,t,294,1,4003.5,500262.5,7054,WL,B,1.0
4,4.352999925613403,learn,55647.0000743866,Mon Feb 10 2025 16:39:26 GMT-0600 (Central Standard Time),504615.5,A,streets,O,backspace,335,1,4353.0,500262.5,7054,WL,B,1.0
4,4.536999940872192,learn,55463.00005912781,Mon Feb 10 2025 16:39:26 GMT-0600 (Central Standard Time),504798.80000000075,A,street,O,backspace,170,1,4536.300000000745,500262.5,7054,WL,B,1.0
4,4.936999797821045,learn,55063.000202178955,Mon Feb 10 2025 16:39:26 GMT-0600 (Central Standard Time),505198.60000000056,A,streetenter,O,enter,379,1,4936.100000000559,500262.5,7054,WL,B,1.0
4,5.21999979019165,learn,54780.00020980835,Mon Feb 10 2025 16:39:26 GMT-0600 (Central Standard Time),505482.0,A,s,O,s,267,1,283.0,505199.0,7054,WL,B,2.0
4,5.436999797821045,learn,54563.000202178955,Mon Feb 10 2025 16:39:26 GMT-0600 (Central Standard Time),505698.7000000002,A,st,O,t,200,1,499.70000000018626,505199.0,7054,WL,B,2.0
4,5.619999885559082,learn,54380.00011444092,Mon Feb 10 2025 16:39:26 GMT-0600 (Central Standard Time),505881.7000000002,A,sto,O,o,160,1,682.7000000001863,505199.0,7054,WL,B,2.0
4,5.769999980926514,learn,54230.000019073486,Mon Feb 10 2025 16:39:26 GMT-0600 (Central Standard Time),506031.7000000002,A,stor,O,r,128,1,832.7000000001863,505199.0,7054,WL,B,2.0
4,5.852999925613403,learn,54147.0000743866,Mon Feb 10 2025 16:39:26 GMT-0600 (Central Standard Time),506115.10000000056,A,store,O,e,74,1,916.1000000005588,505199.0,7054,WL,B,2.0
4,6.335999965667725,learn,53664.000034332275,Mon Feb 10 2025 16:39:26 GMT-0600 (Central Standard Time),506598.4000000004,A,storeenter,O,enter,463,1,1399.4000000003725,505199.0,7054,WL,B,2.0
4,6.835999965667725,learn,53164.000034332275,Mon Feb 10 2025 16:39:26 GMT-0600 (Central Standard Time),507098.30000000075,A,c,O,c,484,1,499.6000000005588,506598.7000000002,7054,WL,B,3.0
4,6.918999910354614,learn,53081.000089645386,Mon Feb 10 2025 16:39:26 GMT-0600 (Central Standard Time),507181.5,A,cl,O,l,64,1,582.7999999998137,506598.7000000002,7054,WL,B,3.0
4,7.102999925613403,learn,52897.0000743866,Mon Feb 10 2025 16:39:26 GMT-0600 (Central Standard Time),507364.80000000075,A,clo,O,o,173,1,766.1000000005588,506598.7000000002,7054,WL,B,3.0
4,7.28600001335144,learn,52713.99998664856,Mon Feb 10 2025 16:39:26 GMT-0600 (Central Standard Time),507547.9000000004,A,cloc,O,c,165,1,949.2000000001863,506598.7000000002,7054,WL,B,3.0
4,7.385999917984009,learn,52614.00008201599,Mon Feb 10 2025 16:39:26 GMT-0600 (Central Standard Time),507647.9000000004,A,clock,O,k,86,1,1049.2000000001863,506598.7000000002,7054,WL,B,3.0
4,8.634999990463257,learn,51365.00000953674,Mon Feb 10 2025 16:39:26 GMT-0600 (Central Standard Time),508897.5,A,clockenter,O,enter,1233,1,2298.7999999998137,506598.7000000002,7054,WL,B,3.0
4,9.334999799728394,learn,50665.00020027161,Mon Feb 10 2025 16:39:26 GMT-0600 (Central Standard Time),509597.2000000002,A,f,O,f,681,1,699.2999999998137,508897.9000000004,7054,WL,B,4.0
4,9.418999910354614,learn,50581.000089645386,Mon Feb 10 2025 16:39:26 GMT-0600 (Central Standard Time),509680.60000000056,A,fi,O,i,61,1,782.7000000001863,508897.9000000004,7054,WL,B,4.0
4,9.567999839782715,learn,50432.000160217285,Mon Feb 10 2025 16:39:26 GMT-0600 (Central Standard Time),509830.4000000004,A,fir,O,r,137,1,932.5,508897.9000000004,7054,WL,B,4.0
4,9.651999950408936,learn,50348.000049591064,Mon Feb 10 2025 16:39:26 GMT-0600 (Central Standard Time),509913.80000000075,A,fire,O,e,75,1,1015.9000000003725,508897.9000000004,7054,WL,B,4.0
4,10.134999990463257,learn,49865.00000953674,Mon Feb 10 2025 16:39:26 GMT-0600 (Central Standard Time),510397.2000000002,A,fireenter,O,enter,463,1,1499.2999999998137,508897.9000000004,7054,WL,B,4.0
4,10.551999807357788,learn,49448.00019264221,Mon Feb 10 2025 16:39:26 GMT-0600 (Central Standard Time),510813.60000000056,A,a,O,a,397,1,416.1000000005588,510397.5,7054,WL,B,5.0
4,10.700999975204468,learn,49299.00002479553,Mon Feb 10 2025 16:39:26 GMT-0600 (Central Standard Time),510963.5,A,ar,O,r,132,1,566.0,510397.5,7054,WL,B,5.0
4,10.884999990463257,learn,49115.00000953674,Mon Feb 10 2025 16:39:26 GMT-0600 (Central Standard Time),511146.80000000075,A,arm,O,m,174,1,749.3000000007451,510397.5,7054,WL,B,5.0
4,11.184999942779541,learn,48815.00005722046,Mon Feb 10 2025 16:39:26 GMT-0600 (Central Standard Time),511446.7000000002,A,armenter,O,enter,287,1,1049.2000000001863,510397.5,7054,WL,B,5.0
4,11.434999942779541,learn,48565.00005722046,Mon Feb 10 2025 16:39:26 GMT-0600 (Central Standard Time),511696.60000000056,A,s,O,s,228,1,249.6000000005588,511447.0,7054,WL,B,6.0
4,11.53499984741211,learn,48465.00015258789,Mon Feb 10 2025 16:39:26 GMT-0600 (Central Standard Time),511796.5,A,sk,O,k,81,1,349.5,511447.0,7054,WL,B,6.0
4,11.717999935150146,learn,48282.00006484985,Mon Feb 10 2025 16:39:26 GMT-0600 (Central Standard Time),511979.9000000004,A,ski,O,i,173,1,532.9000000003725,511447.0,7054,WL,B,6.0
4,11.883999824523926,learn,48116.000175476074,Mon Feb 10 2025 16:39:26 GMT-0600 (Central Standard Time),512146.30000000075,A,skin,O,n,158,1,699.3000000007451,511447.0,7054,WL,B,6.0
4,12.383999824523926,learn,47616.000175476074,Mon Feb 10 2025 16:39:26 GMT-0600 (Central Standard Time),512646.30000000075,A,skinenter,O,enter,480,1,1199.300000000745,511447.0,7054,WL,B,6.0
4,13.10099983215332,learn,46899.00016784668,Mon Feb 10 2025 16:39:26 GMT-0600 (Central Standard Time),513362.60000000056,A,c,O,c,708,1,716.0,512646.60000000056,7054,WL,B,7.0
4,13.184000015258789,learn,46815.99998474121,Mon Feb 10 2025 16:39:26 GMT-0600 (Central Standard Time),513446.30000000075,A,ci,O,i,71,1,799.7000000001863,512646.60000000056,7054,WL,B,7.0
4,13.400999784469604,learn,46599.000215530396,Mon Feb 10 2025 16:39:26 GMT-0600 (Central Standard Time),513662.60000000056,A,cit,O,t,196,1,1016.0,512646.60000000056,7054,WL,B,7.0
4,13.500999927520752,learn,46499.00007247925,Mon Feb 10 2025 16:39:26 GMT-0600 (Central Standard Time),513762.7000000002,A,city,O,y,91,1,1116.0999999996275,512646.60000000056,7054,WL,B,7.0
4,13.916999816894531,learn,46083.00018310547,Mon Feb 10 2025 16:39:26 GMT-0600 (Central Standard Time),514179.30000000075,A,cityenter,O,enter,398,1,1532.7000000001863,512646.60000000056,7054,WL,B,7.0
4,14.233999967575073,learn,45766.00003242493,Mon Feb 10 2025 16:39:26 GMT-0600 (Central Standard Time),514495.80000000075,A,p,O,p,302,1,316.1000000005588,514179.7000000002,7054,WL,B,8.0
4,14.349999904632568,learn,45650.00009536743,Mon Feb 10 2025 16:39:26 GMT-0600 (Central Standard Time),514612.4000000004,A,pu,O,u,98,1,432.70000000018626,514179.7000000002,7054,WL,B,8.0
4,14.666999816894531,learn,45333.00018310547,Mon Feb 10 2025 16:39:26 GMT-0600 (Central Standard Time),514929.0,A,pup,O,p,302,1,749.2999999998137,514179.7000000002,7054,WL,B,8.0
4,15.066999912261963,learn,44933.00008773804,Mon Feb 10 2025 16:39:26 GMT-0600 (Central Standard Time),515329.0,A,pupi,O,i,377,1,1149.2999999998137,514179.7000000002,7054,WL,B,8.0
4,15.283999919891357,learn,44716.00008010864,Mon Feb 10 2025 16:39:26 GMT-0600 (Central Standard Time),515545.9000000004,A,pupil,O,l,193,1,1366.2000000001863,514179.7000000002,7054,WL,B,8.0
4,15.91599988937378,learn,44084.00011062622,Mon Feb 10 2025 16:39:26 GMT-0600 (Central Standard Time),516178.2000000002,A,pupilenter,O,enter,624,1,1998.5,514179.7000000002,7054,WL,B,8.0
4,16.33299994468689,learn,43667.00005531311,Mon Feb 10 2025 16:39:26 GMT-0600 (Central Standard Time),516595.2000000002,A,p,O,p,400,1,416.70000000018626,516178.5,7054,WL,B,9.0
4,16.482999801635742,learn,43517.00019836426,Mon Feb 10 2025 16:39:26 GMT-0600 (Central Standard Time),516745.0,A,pi,O,i,127,1,566.5,516178.5,7054,WL,B,9.0
4,16.865999937057495,learn,43134.000062942505,Mon Feb 10 2025 16:39:26 GMT-0600 (Central Standard Time),517128.4000000004,A,pip,O,p,369,1,949.9000000003725,516178.5,7054,WL,B,9.0
4,17.532999992370605,learn,42467.000007629395,Mon Feb 10 2025 16:39:26 GMT-0600 (Central Standard Time),517794.7000000002,A,pipe,O,e,649,1,1616.2000000001863,516178.5,7054,WL,B,9.0
4,17.83299994468689,learn,42167.00005531311,Mon Feb 10 2025 16:39:26 GMT-0600 (Central Standard Time),518094.60000000056,A,pipeenter,O,enter,287,1,1916.1000000005588,516178.5,7054,WL,B,9.0
4,18.215999841690063,learn,41784.00015830994,Mon Feb 10 2025 16:39:26 GMT-0600 (Central Standard Time),518477.80000000075,A,c,O,c,363,1,382.80000000074506,518095.0,7054,WL,B,10.0
4,18.365999937057495,learn,41634.000062942505,Mon Feb 10 2025 16:39:26 GMT-0600 (Central Standard Time),518628.0,A,ca,O,a,132,1,533.0,518095.0,7054,WL,B,10.0
4,18.531999826431274,learn,41468.000173568726,Mon Feb 10 2025 16:39:26 GMT-0600 (Central Standard Time),518794.2000000002,A,cab,O,b,158,1,699.2000000001863,518095.0,7054,WL,B,10.0
4,18.715999841690063,learn,41284.00015830994,Mon Feb 10 2025 16:39:26 GMT-0600 (Central Standard Time),518977.80000000075,A,cabi,O,i,167,1,882.8000000007451,518095.0,7054,WL,B,10.0
4,18.881999969482422,learn,41118.00003051758,Mon Feb 10 2025 16:39:26 GMT-0600 (Central Standard Time),519144.30000000075,A,cabin,O,n,145,1,1049.300000000745,518095.0,7054,WL,B,10.0
4,19.49899983406067,learn,40501.00016593933,Mon Feb 10 2025 16:39:26 GMT-0600 (Central Standard Time),519760.7000000002,A,cabinenter,O,enter,593,1,1665.7000000001863,518095.0,7054,WL,B,10.0
4,19.747999906539917,learn,40252.00009346008,Mon Feb 10 2025 16:39:26 GMT-0600 (Central Standard Time),520010.5,A,l,O,l,241,1,249.3999999994412,519761.10000000056,7054,WL,B,11.0
4,19.89800000190735,learn,40101.99999809265,Mon Feb 10 2025 16:39:26 GMT-0600 (Central Standard Time),520160.4000000004,A,la,O,a,128,1,399.29999999981374,519761.10000000056,7054,WL,B,11.0
4,20.082000017166138,learn,39917.99998283386,Mon Feb 10 2025 16:39:26 GMT-0600 (Central Standard Time),520344.0,A,lak,O,k,162,1,582.8999999994412,519761.10000000056,7054,WL,B,11.0
4,20.24899983406067,learn,39751.00016593933,Mon Feb 10 2025 16:39:26 GMT-0600 (Central Standard Time),520510.80000000075,A,lake,O,e,154,1,749.7000000001863,519761.10000000056,7054,WL,B,11.0
4,20.597999811172485,learn,39402.000188827515,Mon Feb 10 2025 16:39:26 GMT-0600 (Central Standard Time),520860.5,A,lakeenter,O,enter,332,1,1099.3999999994412,519761.10000000056,7054,WL,B,11.0
4,21.764999866485596,learn,38235.000133514404,Mon Feb 10 2025 16:39:26 GMT-0600 (Central Standard Time),522026.80000000075,A,w,O,w,1150,1,1166.0,520860.80000000075,7054,WL,B,12.0
4,21.847999811172485,learn,38152.000188827515,Mon Feb 10 2025 16:39:26 GMT-0600 (Central Standard Time),522110.10000000056,A,wi,O,i,71,1,1249.2999999998137,520860.80000000075,7054,WL,B,12.0
4,22.030999898910522,learn,37969.00010108948,Mon Feb 10 2025 16:39:26 GMT-0600 (Central Standard Time),522293.30000000075,A,wif,O,f,172,1,1432.5,520860.80000000075,7054,WL,B,12.0
4,22.180999994277954,learn,37819.000005722046,Mon Feb 10 2025 16:39:26 GMT-0600 (Central Standard Time),522443.4000000004,A,wife,O,e,141,1,1582.5999999996275,520860.80000000075,7054,WL,B,12.0
4,22.46399998664856,learn,37536.00001335144,Mon Feb 10 2025 16:39:26 GMT-0600 (Central Standard Time),522726.4000000004,A,wifeenter,O,enter,262,1,1865.5999999996275,520860.80000000075,7054,WL,B,12.0
4,22.88099980354309,learn,37119.00019645691,Mon Feb 10 2025 16:39:26 GMT-0600 (Central Standard Time),523143.0,A,s,O,s,395,1,416.19999999925494,522726.80000000075,7054,WL,B,13.0
4,23.030999898910522,learn,36969.00010108948,Mon Feb 10 2025 16:39:26 GMT-0600 (Central Standard Time),523293.0,A,st,O,t,131,1,566.1999999992549,522726.80000000075,7054,WL,B,13.0
4,23.263999938964844,learn,36736.000061035156,Mon Feb 10 2025 16:39:26 GMT-0600 (Central Standard Time),523526.4000000004,A,sta,O,a,213,1,799.5999999996275,522726.80000000075,7054,WL,B,13.0
4,23.413999795913696,learn,36586.000204086304,Mon Feb 10 2025 16:39:26 GMT-0600 (Central Standard Time),523676.0,A,star,O,r,132,1,949.1999999992549,522726.80000000075,7054,WL,B,13.0
4,23.96399998664856,learn,36036.00001335144,Mon Feb 10 2025 16:39:26 GMT-0600 (Central Standard Time),524226.0,A,starenter,O,enter,531,1,1499.199999999255,522726.80000000075,7054,WL,B,13.0
4,26.763000011444092,learn,33236.99998855591,Mon Feb 10 2025 16:39:26 GMT-0600 (Central Standard Time),527025.5,A,w,O,w,2776,1,2799.0999999996275,524226.4000000004,7054,WL,B,14.0
4,26.829999923706055,learn,33170.000076293945,Mon Feb 10 2025 16:39:26 GMT-0600 (Central Standard Time),527091.9000000004,A,wi,O,i,57,1,2865.5,524226.4000000004,7054,WL,B,14.0
4,26.96299982070923,learn,33037.00017929077,Mon Feb 10 2025 16:39:26 GMT-0600 (Central Standard Time),527225.1000000006,A,win,O,n,118,1,2998.7000000001863,524226.4000000004,7054,WL,B,14.0
4,27.11299991607666,learn,32887.00008392334,Mon Feb 10 2025 16:39:26 GMT-0600 (Central Standard Time),527375.1000000006,A,wind,O,d,137,1,3148.7000000001863,524226.4000000004,7054,WL,B,14.0
4,27.245999813079834,learn,32754.000186920166,Mon Feb 10 2025 16:39:26 GMT-0600 (Central Standard Time),527508.4000000004,A,windo,O,o,123,1,3282.0,524226.4000000004,7054,WL,B,14.0
4,27.44599986076355,learn,32554.00013923645,Mon Feb 10 2025 16:39:26 GMT-0600 (Central Standard Time),527708.3000000007,A,window,O,w,189,1,3481.9000000003725,524226.4000000004,7054,WL,B,14.0
4,27.62999987602234,learn,32370.00012397766,Mon Feb 10 2025 16:39:26 GMT-0600 (Central Standard Time),527891.6000000006,A,windowenter,O,enter,173,1,3665.2000000001863,524226.4000000004,7054,WL,B,14.0
4,27.895999908447266,learn,32104.000091552734,Mon Feb 10 2025 16:39:26 GMT-0600 (Central Standard Time),528158.3000000007,A,d,O,d,254,1,266.30000000074506,527892.0,7054,WL,B,15.0
4,28.013000011444092,learn,31986.99998855591,Mon Feb 10 2025 16:39:26 GMT-0600 (Central Standard Time),528274.8000000007,A,do,O,o,108,1,382.80000000074506,527892.0,7054,WL,B,15.0
4,28.21299982070923,learn,31787.00017929077,Mon Feb 10 2025 16:39:26 GMT-0600 (Central Standard Time),528474.7000000002,A,doo,O,o,192,1,582.7000000001863,527892.0,7054,WL,B,15.0
4,28.37999987602234,learn,31620.00012397766,Mon Feb 10 2025 16:39:26 GMT-0600 (Central Standard Time),528641.6000000006,A,door,O,r,151,1,749.6000000005588,527892.0,7054,WL,B,15.0
4,28.878999948501587,learn,31121.000051498413,Mon Feb 10 2025 16:39:26 GMT-0600 (Central Standard Time),529141.3000000007,A,doorenter,O,enter,488,1,1249.300000000745,527892.0,7054,WL,B,15.0
5,1.2000000476837158,learn,60000.0,Mon Feb 10 2025 16:39:26 GMT-0600 (Central Standard Time),596020.5,A,f,O,f,1190,1,1199.7999999998137,594820.7000000002,7054,WL,B,1.0
5,1.3329999446868896,learn,60000.0,Mon Feb 10 2025 16:39:26 GMT-0600 (Central Standard Time),596153.7000000002,A,fi,O,i,116,1,1333.0,594820.7000000002,7054,WL,B,1.0
5,1.433000087738037,learn,60000.0,Mon Feb 10 2025 16:39:26 GMT-0600 (Central Standard Time),596253.4000000004,A,fir,O,r,87,1,1432.7000000001863,594820.7000000002,7054,WL,B,1.0
5,1.5,learn,60000.0,Mon Feb 10 2025 16:39:26 GMT-0600 (Central Standard Time),596320.3000000007,A,fire,O,e,52,1,1499.6000000005588,594820.7000000002,7054,WL,B,1.0
5,2.382999897003174,learn,60000.0,Mon Feb 10 2025 16:39:26 GMT-0600 (Central Standard Time),597203.6000000006,A,fireenter,O,enter,865,1,2382.9000000003725,594820.7000000002,7054,WL,B,1.0
5,3.1500000953674316,learn,60000.0,Mon Feb 10 2025 16:39:26 GMT-0600 (Central Standard Time),597969.7000000002,A,c,O,c,742,1,765.7999999998137,597203.9000000004,7054,WL,B,2.0
5,3.2330000400543213,learn,60000.0,Mon Feb 10 2025 16:39:26 GMT-0600 (Central Standard Time),598053.0,A,cl,O,l,64,1,849.0999999996275,597203.9000000004,7054,WL,B,2.0
5,3.433000087738037,learn,60000.0,Mon Feb 10 2025 16:39:26 GMT-0600 (Central Standard Time),598252.8000000007,A,clo,O,o,181,1,1048.9000000003725,597203.9000000004,7054,WL,B,2.0
5,3.6670000553131104,learn,60000.0,Mon Feb 10 2025 16:39:26 GMT-0600 (Central Standard Time),598487.3000000007,A,cloc,O,c,221,1,1283.4000000003725,597203.9000000004,7054,WL,B,2.0
5,3.7990000247955322,learn,60000.0,Mon Feb 10 2025 16:39:26 GMT-0600 (Central Standard Time),598619.3000000007,A,clock,O,k,114,1,1415.4000000003725,597203.9000000004,7054,WL,B,2.0
5,4.165999889373779,learn,60000.0,Mon Feb 10 2025 16:39:26 GMT-0600 (Central Standard Time),598986.1000000006,A,clockenter,O,enter,350,1,1782.2000000001863,597203.9000000004,7054,WL,B,2.0
5,4.565999984741211,learn,60000.0,Mon Feb 10 2025 16:39:26 GMT-0600 (Central Standard Time),599386.0,A,s,O,s,376,1,399.59999999962747,598986.4000000004,7054,WL,B,3.0
5,4.698999881744385,learn,60000.0,Mon Feb 10 2025 16:39:26 GMT-0600 (Central Standard Time),599519.2000000002,A,st,O,t,112,1,532.7999999998137,598986.4000000004,7054,WL,B,3.0
5,4.898999929428101,learn,60000.0,Mon Feb 10 2025 16:39:26 GMT-0600 (Central Standard Time),599719.1000000006,A,str,O,r,179,1,732.7000000001863,598986.4000000004,7054,WL,B,3.0
5,5.148999929428101,learn,60000.0,Mon Feb 10 2025 16:39:26 GMT-0600 (Central Standard Time),599969.0,A,stre,O,e,235,1,982.5999999996275,598986.4000000004,7054,WL,B,3.0
5,5.331000089645386,learn,60000.0,Mon Feb 10 2025 16:39:26 GMT-0600 (Central Standard Time),600152.4000000004,A,stree,O,e,168,1,1166.0,598986.4000000004,7054,WL,B,3.0
5,5.480999946594238,learn,60000.0,Mon Feb 10 2025 16:39:26 GMT-0600 (Central Standard Time),600302.3000000007,A,street,O,t,129,1,1315.9000000003725,598986.4000000004,7054,WL,B,3.0
5,5.648999929428101,learn,60000.0,Mon Feb 10 2025 16:39:26 GMT-0600 (Central Standard Time),600470.0,A,streetenter,O,enter,147,1,1483.5999999996275,598986.4000000004,7054,WL,B,3.0
5,5.864000082015991,learn,60000.0,Mon Feb 10 2025 16:39:26 GMT-0600 (Central Standard Time),600685.4000000004,A,g,O,g,204,1,215.09999999962747,600470.3000000007,7054,WL,B,4.0
5,6.081000089645386,learn,60000.0,Mon Feb 10 2025 16:39:26 GMT-0600 (Central Standard Time),600902.1000000006,A,gr,O,r,204,1,431.79999999981374,600470.3000000007,7054,WL,B,4.0
5,6.197000026702881,learn,60000.0,Mon Feb 10 2025 16:39:26 GMT-0600 (Central Standard Time),601018.5,A,gra,O,a,107,1,548.1999999992549,600470.3000000007,7054,WL,B,4.0
5,6.397000074386597,learn,60000.0,Mon Feb 10 2025 16:39:26 GMT-0600 (Central Standard Time),601218.5,A,gras,O,s,183,1,748.1999999992549,600470.3000000007,7054,WL,B,4.0
5,6.596999883651733,learn,60000.0,Mon Feb 10 2025 16:39:26 GMT-0600 (Central Standard Time),601418.8000000007,A,grass,O,s,184,1,948.5,600470.3000000007,7054,WL,B,4.0
5,7.296999931335449,learn,60000.0,Mon Feb 10 2025 16:39:26 GMT-0600 (Central Standard Time),602118.2000000002,A,grassenter,O,enter,687,1,1647.8999999994412,600470.3000000007,7054,WL,B,4.0
5,8.346999883651733,learn,60000.0,Mon Feb 10 2025 16:39:26 GMT-0600 (Central Standard Time),603167.9000000004,A,a,O,a,1036,1,1049.4000000003725,602118.5,7054,WL,B,5.0
5,8.629999876022339,learn,60000.0,Mon Feb 10 2025 16:39:26 GMT-0600 (Central Standard Time),603451.3000000007,A,ar,O,r,274,1,1332.800000000745,602118.5,7054,WL,B,5.0
5,8.829999923706055,learn,60000.0,Mon Feb 10 2025 16:39:26 GMT-0600 (Central Standard Time),603651.2000000002,A,arm,O,m,191,1,1532.7000000001863,602118.5,7054,WL,B,5.0
5,9.312999963760376,learn,60000.0,Mon Feb 10 2025 16:39:26 GMT-0600 (Central Standard Time),604134.5,A,armenter,O,enter,471,1,2016.0,602118.5,7054,WL,B,5.0
5,9.562999963760376,learn,60000.0,Mon Feb 10 2025 16:39:26 GMT-0600 (Central Standard Time),604384.3000000007,A,s,O,s,236,1,249.6000000005588,604134.7000000002,7054,WL,B,6.0
5,9.645999908447266,learn,60000.0,Mon Feb 10 2025 16:39:26 GMT-0600 (Central Standard Time),604467.5,A,sk,O,k,74,1,332.79999999981374,604134.7000000002,7054,WL,B,6.0
5,9.829999923706055,learn,60000.0,Mon Feb 10 2025 16:39:26 GMT-0600 (Central Standard Time),604650.9000000004,A,ski,O,i,174,1,516.2000000001863,604134.7000000002,7054,WL,B,6.0
5,9.979000091552734,learn,60000.0,Mon Feb 10 2025 16:39:26 GMT-0600 (Central Standard Time),604800.8000000007,A,skin,O,n,135,1,666.1000000005588,604134.7000000002,7054,WL,B,6.0
5,10.411999940872192,learn,60000.0,Mon Feb 10 2025 16:39:26 GMT-0600 (Central Standard Time),605233.8000000007,A,skinenter,O,enter,426,1,1099.1000000005588,604134.7000000002,7054,WL,B,6.0
5,10.845999956130981,learn,60000.0,Mon Feb 10 2025 16:39:26 GMT-0600 (Central Standard Time),605667.2000000002,A,d,O,d,416,1,433.20000000018626,605234.0,7054,WL,B,7.0
5,10.912999868392944,learn,60000.0,Mon Feb 10 2025 16:39:26 GMT-0600 (Central Standard Time),605734.0,A,do,O,o,54,1,500.0,605234.0,7054,WL,B,7.0
5,11.062000036239624,learn,60000.0,Mon Feb 10 2025 16:39:26 GMT-0600 (Central Standard Time),605883.8000000007,A,doo,O,o,140,1,649.8000000007451,605234.0,7054,WL,B,7.0
5,11.19599986076355,learn,60000.0,Mon Feb 10 2025 16:39:26 GMT-0600 (Central Standard Time),606017.2000000002,A,door,O,r,118,1,783.2000000001863,605234.0,7054,WL,B,7.0
5,11.729000091552734,learn,60000.0,Mon Feb 10 2025 16:39:26 GMT-0600 (Central Standard Time),606550.2000000002,A,doorenter,O,enter,520,1,1316.2000000001863,605234.0,7054,WL,B,7.0
5,11.994999885559082,learn,60000.0,Mon Feb 10 2025 16:39:26 GMT-0600 (Central Standard Time),606816.8000000007,A,w,O,w,251,1,266.20000000018626,606550.6000000006,7054,WL,B,8.0
5,12.128999948501587,learn,60000.0,Mon Feb 10 2025 16:39:26 GMT-0600 (Central Standard Time),606950.1000000006,A,wi,O,i,113,1,399.5,606550.6000000006,7054,WL,B,8.0
5,12.295000076293945,learn,60000.0,Mon Feb 10 2025 16:39:26 GMT-0600 (Central Standard Time),607116.8000000007,A,win,O,n,147,1,566.2000000001863,606550.6000000006,7054,WL,B,8.0
5,12.411999940872192,learn,60000.0,Mon Feb 10 2025 16:39:26 GMT-0600 (Central Standard Time),607233.3000000007,A,wind,O,d,94,1,682.7000000001863,606550.6000000006,7054,WL,B,8.0
5,12.562000036239624,learn,60000.0,Mon Feb 10 2025 16:39:26 GMT-0600 (Central Standard Time),607383.5,A,windo,O,o,137,1,832.8999999994412,606550.6000000006,7054,WL,B,8.0
5,13.046000003814697,learn,60000.0,Mon Feb 10 2025 16:39:26 GMT-0600 (Central Standard Time),607867.6000000006,A,window,O,w,475,1,1317.0,606550.6000000006,7054,WL,B,8.0
5,13.861000061035156,learn,60000.0,Mon Feb 10 2025 16:39:26 GMT-0600 (Central Standard Time),608682.8000000007,A,windowenter,O,enter,798,1,2132.2000000001863,606550.6000000006,7054,WL,B,8.0
5,14.361000061035156,learn,60000.0,Mon Feb 10 2025 16:39:26 GMT-0600 (Central Standard Time),609182.8000000007,A,p,O,p,487,1,499.6000000005588,608683.2000000002,7054,WL,B,9.0
5,14.494999885559082,learn,60000.0,Mon Feb 10 2025 16:39:26 GMT-0600 (Central Standard Time),609316.2000000002,A,pi,O,i,123,1,633.0,608683.2000000002,7054,WL,B,9.0
5,14.66100001335144,learn,60000.0,Mon Feb 10 2025 16:39:26 GMT-0600 (Central Standard Time),609482.8000000007,A,pip,O,p,150,1,799.6000000005588,608683.2000000002,7054,WL,B,9.0
5,15.227999925613403,learn,60000.0,Mon Feb 10 2025 16:39:26 GMT-0600 (Central Standard Time),610049.4000000004,A,pipe,O,e,559,1,1366.2000000001863,608683.2000000002,7054,WL,B,9.0
5,15.543999910354614,learn,60000.0,Mon Feb 10 2025 16:39:26 GMT-0600 (Central Standard Time),610365.7000000002,A,pipeenter,O,enter,297,1,1682.5,608683.2000000002,7054,WL,B,9.0
5,16.710999965667725,learn,60000.0,Mon Feb 10 2025 16:39:26 GMT-0600 (Central Standard Time),611532.1000000006,A,p,O,p,1148,1,1166.1000000005588,610366.0,7054,WL,B,10.0
5,16.82699990272522,learn,60000.0,Mon Feb 10 2025 16:39:26 GMT-0600 (Central Standard Time),611648.8000000007,A,pu,O,u,102,1,1282.800000000745,610366.0,7054,WL,B,10.0
5,17.460000038146973,learn,60000.0,Mon Feb 10 2025 16:39:26 GMT-0600 (Central Standard Time),612281.8000000007,A,pui,O,i,617,1,1915.800000000745,610366.0,7054,WL,B,10.0
5,18.592999935150146,learn,60000.0,Mon Feb 10 2025 16:39:26 GMT-0600 (Central Standard Time),613414.7000000002,A,pu,O,backspace,1112,1,3048.7000000001863,610366.0,7054,WL,B,10.0
5,18.927000045776367,learn,60000.0,Mon Feb 10 2025 16:39:26 GMT-0600 (Central Standard Time),613748.1000000006,A,pup,O,p,323,1,3382.100000000559,610366.0,7054,WL,B,10.0
5,19.194000005722046,learn,60000.0,Mon Feb 10 2025 16:39:26 GMT-0600 (Central Standard Time),614015.6000000006,A,pupi,O,i,246,1,3649.600000000559,610366.0,7054,WL,B,10.0
5,19.41000008583069,learn,60000.0,Mon Feb 10 2025 16:39:26 GMT-0600 (Central Standard Time),614231.1000000006,A,pupil,O,l,202,1,3865.100000000559,610366.0,7054,WL,B,10.0
5,19.66000008583069,learn,60000.0,Mon Feb 10 2025 16:39:26 GMT-0600 (Central Standard Time),614481.1000000006,A,pupilenter,O,enter,235,1,4115.100000000559,610366.0,7054,WL,B,10.0
5,20.175999879837036,learn,60000.0,Mon Feb 10 2025 16:39:26 GMT-0600 (Central Standard Time),614997.6000000006,A,c,O,c,496,1,516.2000000001863,614481.4000000004,7054,WL,B,11.0
5,20.276000022888184,learn,60000.0,Mon Feb 10 2025 16:39:26 GMT-0600 (Central Standard Time),615097.7000000002,A,ci,O,i,84,1,616.2999999998137,614481.4000000004,7054,WL,B,11.0
5,20.4760000705719,learn,60000.0,Mon Feb 10 2025 16:39:26 GMT-0600 (Central Standard Time),615297.6000000006,A,cit,O,t,192,1,816.2000000001863,614481.4000000004,7054,WL,B,11.0
5,20.64299988746643,learn,60000.0,Mon Feb 10 2025 16:39:26 GMT-0600 (Central Standard Time),615464.3000000007,A,city,O,y,144,1,982.9000000003725,614481.4000000004,7054,WL,B,11.0
5,21.05999994277954,learn,60000.0,Mon Feb 10 2025 16:39:26 GMT-0600 (Central Standard Time),615880.9000000004,A,cityenter,O,enter,393,1,1399.5,614481.4000000004,7054,WL,B,11.0
5,21.441999912261963,learn,60000.0,Mon Feb 10 2025 16:39:26 GMT-0600 (Central Standard Time),616263.7000000002,A,w,O,w,369,1,382.59999999962747,615881.1000000006,7054,WL,B,12.0
5,21.55900001525879,learn,60000.0,Mon Feb 10 2025 16:39:26 GMT-0600 (Central Standard Time),616380.3000000007,A,wi,O,i,106,1,499.20000000018626,615881.1000000006,7054,WL,B,12.0
5,21.79200005531311,learn,60000.0,Mon Feb 10 2025 16:39:26 GMT-0600 (Central Standard Time),616613.5,A,wif,O,f,214,1,732.3999999994412,615881.1000000006,7054,WL,B,12.0
5,21.941999912261963,learn,60000.0,Mon Feb 10 2025 16:39:26 GMT-0600 (Central Standard Time),616763.8000000007,A,wife,O,e,133,1,882.7000000001863,615881.1000000006,7054,WL,B,12.0
5,22.941999912261963,learn,60000.0,Mon Feb 10 2025 16:39:26 GMT-0600 (Central Standard Time),617763.5,A,wif,O,backspace,983,1,1882.3999999994412,615881.1000000006,7054,WL,B,12.0
5,23.289999961853027,learn,60000.0,Mon Feb 10 2025 16:39:26 GMT-0600 (Central Standard Time),618111.8000000007,A,wifenter,O,enter,324,1,2230.7000000001863,615881.1000000006,7054,WL,B,12.0
5,24.674999952316284,learn,60000.0,Mon Feb 10 2025 16:39:26 GMT-0600 (Central Standard Time),619496.2000000002,A,s,O,s,1371,1,1384.2000000001863,618112.0,7054,WL,B,13.0
5,24.924999952316284,learn,60000.0,Mon Feb 10 2025 16:39:26 GMT-0600 (Central Standard Time),619746.2000000002,A,st,O,t,226,1,1634.2000000001863,618112.0,7054,WL,B,13.0
5,25.10800004005432,learn,60000.0,Mon Feb 10 2025 16:39:26 GMT-0600 (Central Standard Time),619929.3000000007,A,sta,O,a,175,1,1817.300000000745,618112.0,7054,WL,B,13.0
5,25.54099988937378,learn,60000.0,Mon Feb 10 2025 16:39:26 GMT-0600 (Central Standard Time),620362.5,A,star,O,r,417,1,2250.5,618112.0,7054,WL,B,13.0
5,26.04099988937378,learn,60000.0,Mon Feb 10 2025 16:39:26 GMT-0600 (Central Standard Time),620862.4000000004,A,starenter,O,enter,480,1,2750.4000000003725,618112.0,7054,WL,B,13.0
5,40.63700008392334,learn,60000.0,Mon Feb 10 2025 16:39:26 GMT-0600 (Central Standard Time),635458.0,A,s,O,s,14571,1,14595.299999999814,620862.7000000002,7054,WL,B,14.0
5,40.72000002861023,learn,60000.0,Mon Feb 10 2025 16:39:26 GMT-0600 (Central Standard Time),635541.2000000002,A,sk,O,k,71,1,14678.5,620862.7000000002,7054,WL,B,14.0
5,40.93599987030029,learn,60000.0,Mon Feb 10 2025 16:39:26 GMT-0600 (Central Standard Time),635757.5,A,ski,O,i,197,1,14894.799999999814,620862.7000000002,7054,WL,B,14.0
5,41.0699999332428,learn,60000.0,Mon Feb 10 2025 16:39:26 GMT-0600 (Central Standard Time),635891.0,A,skin,O,n,125,1,15028.299999999814,620862.7000000002,7054,WL,B,14.0
5,41.30299997329712,learn,60000.0,Mon Feb 10 2025 16:39:26 GMT-0600 (Central Standard Time),636124.0,A,skinenter,O,enter,224,1,15261.299999999814,620862.7000000002,7054,WL,B,14.0
5,41.585999965667725,learn,60000.0,Mon Feb 10 2025 16:39:26 GMT-0600 (Central Standard Time),636407.2000000002,A,a,O,a,270,1,282.8999999994412,636124.3000000007,7054,WL,B,15.0
5,41.7189998626709,learn,60000.0,Mon Feb 10 2025 16:39:26 GMT-0600 (Central Standard Time),636540.7000000002,A,ar,O,r,121,1,416.3999999994412,636124.3000000007,7054,WL,B,15.0
5,41.88599991798401,learn,60000.0,Mon Feb 10 2025 16:39:26 GMT-0600 (Central Standard Time),636707.6000000006,A,arm,O,m,149,1,583.2999999998137,636124.3000000007,7054,WL,B,15.0
5,42.1029999256134,learn,60000.0,Mon Feb 10 2025 16:39:26 GMT-0600 (Central Standard Time),636924.2000000002,A,armenter,O,enter,198,1,799.8999999994412,636124.3000000007,7054,WL,B,15.0
6,0.6830000877380371,distr,59316.99991226196,Mon Feb 10 2025 16:39:26 GMT-0600 (Central Standard Time),721830.8000000007,B,b,O,b,663,1,682.9000000003725,721147.9000000004,7054,WL,B,1.0
6,0.8330001831054688,distr,59166.99981689453,Mon Feb 10 2025 16:39:26 GMT-0600 (Central Standard Time),721980.7000000002,B,ba,O,a,130,1,832.7999999998137,721147.9000000004,7054,WL,B,1.0
6,0.9660000801086426,distr,59033.99991989136,Mon Feb 10 2025 16:39:26 GMT-0600 (Central Standard Time),722113.9000000004,B,bab,O,b,125,1,966.0,721147.9000000004,7054,WL,B,1.0
6,1.2660000324249268,distr,58733.99996757507,Mon Feb 10 2025 16:39:26 GMT-0600 (Central Standard Time),722414.1000000006,B,baby,O,y,280,1,1266.2000000001863,721147.9000000004,7054,WL,B,1.0
6,2.382000207901001,distr,57617.999792099,Mon Feb 10 2025 16:39:26 GMT-0600 (Central Standard Time),723530.2000000002,B,bab,O,backspace,1107,1,2382.2999999998137,721147.9000000004,7054,WL,B,1.0
6,3.2820000648498535,distr,56717.99993515015,Mon Feb 10 2025 16:39:26 GMT-0600 (Central Standard Time),724430.1000000006,B,baby,O,y,880,1,3282.2000000001863,721147.9000000004,7054,WL,B,1.0
6,3.7320001125335693,distr,56267.99988746643,Mon Feb 10 2025 16:39:26 GMT-0600 (Central Standard Time),724879.9000000004,B,babyenter,O,enter,428,1,3732.0,721147.9000000004,7054,WL,B,1.0
6,4.182000160217285,distr,55817.999839782715,Mon Feb 10 2025 16:39:26 GMT-0600 (Central Standard Time),725329.9000000004,B,o,O,o,442,1,449.70000000018626,724880.2000000002,7054,WL,B,2.0
6,4.366000175476074,distr,55633.999824523926,Mon Feb 10 2025 16:39:26 GMT-0600 (Central Standard Time),725513.3000000007,B,oc,O,c,160,1,633.1000000005588,724880.2000000002,7054,WL,B,2.0
6,4.582000017166138,distr,55417.99998283386,Mon Feb 10 2025 16:39:26 GMT-0600 (Central Standard Time),725729.6000000006,B,oce,O,e,194,1,849.4000000003725,724880.2000000002,7054,WL,B,2.0
6,4.832000017166138,distr,55167.99998283386,Mon Feb 10 2025 16:39:26 GMT-0600 (Central Standard Time),725979.5,B,ocea,O,a,232,1,1099.2999999998137,724880.2000000002,7054,WL,B,2.0
6,5.015000104904175,distr,54984.999895095825,Mon Feb 10 2025 16:39:26 GMT-0600 (Central Standard Time),726162.6000000006,B,ocean,O,n,174,1,1282.4000000003725,724880.2000000002,7054,WL,B,2.0
6,5.39900016784668,distr,54600.99983215332,Mon Feb 10 2025 16:39:26 GMT-0600 (Central Standard Time),726546.9000000004,B,oceanenter,O,enter,375,1,1666.7000000001863,724880.2000000002,7054,WL,B,2.0
6,6.498000144958496,distr,53501.999855041504,Mon Feb 10 2025 16:39:26 GMT-0600 (Central Standard Time),727645.6000000006,B,a,O,a,1088,1,1098.4000000003725,726547.2000000002,7054,WL,B,3.0
6,6.648000001907349,distr,53351.99999809265,Mon Feb 10 2025 16:39:26 GMT-0600 (Central Standard Time),727795.6000000006,B,ar,O,r,132,1,1248.4000000003725,726547.2000000002,7054,WL,B,3.0
6,6.814000129699707,distr,53185.99987030029,Mon Feb 10 2025 16:39:26 GMT-0600 (Central Standard Time),727962.1000000006,B,arm,O,m,151,1,1414.9000000003725,726547.2000000002,7054,WL,B,3.0
6,7.0980000495910645,distr,52901.999950408936,Mon Feb 10 2025 16:39:26 GMT-0600 (Central Standard Time),728245.6000000006,B,army,O,y,264,1,1698.4000000003725,726547.2000000002,7054,WL,B,3.0
6,7.414000034332275,distr,52585.999965667725,Mon Feb 10 2025 16:39:26 GMT-0600 (Central Standard Time),728562.2000000002,B,armyenter,O,enter,300,1,2015.0,726547.2000000002,7054,WL,B,3.0
6,8.031000137329102,distr,51968.9998626709,Mon Feb 10 2025 16:39:26 GMT-0600 (Central Standard Time),729178.3000000007,B,c,O,c,607,1,615.8000000007451,728562.5,7054,WL,B,4.0
6,8.315000057220459,distr,51684.99994277954,Mon Feb 10 2025 16:39:26 GMT-0600 (Central Standard Time),729463.0,B,ce,O,e,263,1,900.5,728562.5,7054,WL,B,4.0
6,8.481000185012817,distr,51518.99981498718,Mon Feb 10 2025 16:39:26 GMT-0600 (Central Standard Time),729628.3000000007,B,cel,O,l,147,1,1065.800000000745,728562.5,7054,WL,B,4.0
6,8.680999994277954,distr,51319.000005722046,Mon Feb 10 2025 16:39:26 GMT-0600 (Central Standard Time),729829.1000000006,B,cell,O,l,190,1,1266.6000000005588,728562.5,7054,WL,B,4.0
6,9.598000049591064,distr,50401.999950408936,Mon Feb 10 2025 16:39:26 GMT-0600 (Central Standard Time),730745.6000000006,B,cellenter,O,enter,901,1,2183.100000000559,728562.5,7054,WL,B,4.0
6,10.963000059127808,distr,49036.99994087219,Mon Feb 10 2025 16:39:26 GMT-0600 (Central Standard Time),732110.8000000007,B,p,O,p,1344,1,1364.800000000745,730746.0,7054,WL,B,5.0
6,11.180000066757202,distr,48819.9999332428,Mon Feb 10 2025 16:39:26 GMT-0600 (Central Standard Time),732327.5,B,pa,O,a,202,1,1581.5,730746.0,7054,WL,B,5.0
6,11.347000122070312,distr,48652.99987792969,Mon Feb 10 2025 16:39:26 GMT-0600 (Central Standard Time),732494.2000000002,B,pal,O,l,155,1,1748.2000000001863,730746.0,7054,WL,B,5.0
6,11.580000162124634,distr,48419.999837875366,Mon Feb 10 2025 16:39:26 GMT-0600 (Central Standard Time),732727.5,B,pala,O,a,212,1,1981.5,730746.0,7054,WL,B,5.0
6,11.913000106811523,distr,48086.99989318848,Mon Feb 10 2025 16:39:26 GMT-0600 (Central Standard Time),733060.5,B,palac,O,c,322,1,2314.5,730746.0,7054,WL,B,5.0
6,12.146000146865845,distr,47853.999853134155,Mon Feb 10 2025 16:39:26 GMT-0600 (Central Standard Time),733293.8000000007,B,palace,O,e,221,1,2547.800000000745,730746.0,7054,WL,B,5.0
6,12.746000051498413,distr,47253.99994850159,Mon Feb 10 2025 16:39:26 GMT-0600 (Central Standard Time),733893.7000000002,B,palaceenter,O,enter,588,1,3147.7000000001863,730746.0,7054,WL,B,5.0
6,24.859000205993652,distr,35140.99979400635,Mon Feb 10 2025 16:39:26 GMT-0600 (Central Standard Time),746006.6000000006,B,enter,O,enter,12101,1,12112.5,733894.1000000006,7054,WL,B,6.0
6,25.176000118255615,distr,34823.999881744385,Mon Feb 10 2025 16:39:26 GMT-0600 (Central Standard Time),746323.2000000002,B,enter,O,enter,299,1,316.29999999981374,746006.9000000004,7054,WL,B,7.0
6,25.45900011062622,distr,34540.99988937378,Mon Feb 10 2025 16:39:26 GMT-0600 (Central Standard Time),746606.4000000004,B,enter,O,enter,271,1,282.90000000037253,746323.5,7054,WL,B,8.0
6,32.60600018501282,distr,27393.999814987183,Mon Feb 10 2025 16:39:26 GMT-0600 (Central Standard Time),753754.1000000006,B,r,O,r,7132,1,7147.4000000003725,746606.7000000002,7054,WL,B,9.0
6,32.69000005722046,distr,27309.99994277954,Mon Feb 10 2025 16:39:26 GMT-0600 (Central Standard Time),753837.3000000007,B,ro,O,o,71,1,7230.600000000559,746606.7000000002,7054,WL,B,9.0
6,32.890000104904175,distr,27109.999895095825,Mon Feb 10 2025 16:39:26 GMT-0600 (Central Standard Time),754037.5,B,roc,O,c,189,1,7430.799999999814,746606.7000000002,7054,WL,B,9.0
6,33.040000200271606,distr,26959.999799728394,Mon Feb 10 2025 16:39:26 GMT-0600 (Central Standard Time),754187.4000000004,B,rock,O,k,141,1,7580.700000000186,746606.7000000002,7054,WL,B,9.0
6,33.94000005722046,distr,26059.99994277954,Mon Feb 10 2025 16:39:26 GMT-0600 (Central Standard Time),755087.2000000002,B,rockenter,O,enter,886,1,8480.5,746606.7000000002,7054,WL,B,9.0
6,41.187000036239624,distr,18812.999963760376,Mon Feb 10 2025 16:39:26 GMT-0600 (Central Standard Time),762334.8000000007,B,enter,O,enter,7235,1,7247.300000000745,755087.5,7054,WL,B,10.0
6,41.854000091552734,distr,18145.999908447266,Mon Feb 10 2025 16:39:26 GMT-0600 (Central Standard Time),763001.3000000007,B,enter,O,enter,651,1,666.2000000001863,762335.1000000006,7054,WL,B,11.0
6,42.23699998855591,distr,17763.00001144409,Mon Feb 10 2025 16:39:26 GMT-0600 (Central Standard Time),763384.6000000006,B,enter,O,enter,369,1,382.90000000037253,763001.7000000002,7054,WL,B,12.0
6,42.63700008392334,distr,17362.99991607666,Mon Feb 10 2025 16:39:26 GMT-0600 (Central Standard Time),763784.5,B,enter,O,enter,378,1,399.59999999962747,763384.9000000004,7054,WL,B,13.0
6,42.98699998855591,distr,17013.00001144409,Mon Feb 10 2025 16:39:26 GMT-0600 (Central Standard Time),764134.3000000007,B,enter,O,enter,338,1,349.5,763784.8000000007,7054,WL,B,14.0
6,43.47000002861023,distr,16529.99997138977,Mon Feb 10 2025 16:39:26 GMT-0600 (Central Standard Time),764617.4000000004,B,enter,O,enter,468,1,482.70000000018626,764134.7000000002,7054,WL,B,15.0
7,10.595999956130981,immed,49404.00004386902,Mon Feb 10 2025 16:39:26 GMT-0600 (Central Standard Time),776797.0,A,s,O,s,10578,1,10596.5,766200.5,7054,WL,B,1.0
7,10.812999963760376,immed,49187.000036239624,Mon Feb 10 2025 16:39:26 GMT-0600 (Central Standard Time),777013.7000000002,A,st,O,t,204,1,10813.200000000186,766200.5,7054,WL,B,1.0
7,11.02999997138977,immed,48970.00002861023,Mon Feb 10 2025 16:39:26 GMT-0600 (Central Standard Time),777230.3000000007,A,str,O,r,204,1,11029.800000000745,766200.5,7054,WL,B,1.0
7,11.11299991607666,immed,48887.00008392334,Mon Feb 10 2025 16:39:26 GMT-0600 (Central Standard Time),777313.5,A,stre,O,e,68,1,11113.0,766200.5,7054,WL,B,1.0
7,11.27899980545044,immed,48721.00019454956,Mon Feb 10 2025 16:39:26 GMT-0600 (Central Standard Time),777480.1000000006,A,stree,O,e,145,1,11279.600000000559,766200.5,7054,WL,B,1.0
7,11.495999813079834,immed,48504.000186920166,Mon Feb 10 2025 16:39:26 GMT-0600 (Central Standard Time),777696.6000000006,A,street,O,t,202,1,11496.100000000559,766200.5,7054,WL,B,1.0
7,12.178999900817871,immed,47821.00009918213,Mon Feb 10 2025 16:39:26 GMT-0600 (Central Standard Time),778379.9000000004,A,streetenter,O,enter,673,1,12179.400000000373,766200.5,7054,WL,B,1.0
7,12.544999837875366,immed,47455.000162124634,Mon Feb 10 2025 16:39:26 GMT-0600 (Central Standard Time),778746.1000000006,A,g,O,g,358,1,365.90000000037253,778380.2000000002,7054,WL,B,2.0
7,12.745999813079834,immed,47254.000186920166,Mon Feb 10 2025 16:39:26 GMT-0600 (Central Standard Time),778946.2000000002,A,gr,O,r,184,1,566.0,778380.2000000002,7054,WL,B,2.0
7,12.911999940872192,immed,47088.00005912781,Mon Feb 10 2025 16:39:26 GMT-0600 (Central Standard Time),779112.8000000007,A,gra,O,a,144,1,732.6000000005588,778380.2000000002,7054,WL,B,2.0
7,13.078999996185303,immed,46921.0000038147,Mon Feb 10 2025 16:39:26 GMT-0600 (Central Standard Time),779279.6000000006,A,gras,O,s,145,1,899.4000000003725,778380.2000000002,7054,WL,B,2.0
7,13.294999837875366,immed,46705.000162124634,Mon Feb 10 2025 16:39:26 GMT-0600 (Central Standard Time),779496.2000000002,A,grass,O,s,194,1,1116.0,778380.2000000002,7054,WL,B,2.0
7,14.609999895095825,immed,45390.000104904175,Mon Feb 10 2025 16:39:26 GMT-0600 (Central Standard Time),780812.3000000007,A,grassenter,O,enter,1298,1,2432.100000000559,778380.2000000002,7054,WL,B,2.0
7,15.276999950408936,immed,44723.000049591064,Mon Feb 10 2025 16:39:26 GMT-0600 (Central Standard Time),781478.7000000002,A,a,O,a,654,1,666.2000000001863,780812.5,7054,WL,B,3.0
7,15.426999807357788,immed,44573.00019264221,Mon Feb 10 2025 16:39:26 GMT-0600 (Central Standard Time),781628.9000000004,A,ar,O,r,139,1,816.4000000003725,780812.5,7054,WL,B,3.0
7,15.609999895095825,immed,44390.000104904175,Mon Feb 10 2025 16:39:26 GMT-0600 (Central Standard Time),781812.1000000006,A,arm,O,m,165,1,999.6000000005588,780812.5,7054,WL,B,3.0
7,15.859999895095825,immed,44140.000104904175,Mon Feb 10 2025 16:39:26 GMT-0600 (Central Standard Time),782062.0,A,armenter,O,enter,238,1,1249.5,780812.5,7054,WL,B,3.0
7,16.07699990272522,immed,43923.00009727478,Mon Feb 10 2025 16:39:26 GMT-0600 (Central Standard Time),782278.4000000004,A,s,O,s,196,1,216.20000000018626,782062.2000000002,7054,WL,B,4.0
7,16.192999839782715,immed,43807.000160217285,Mon Feb 10 2025 16:39:26 GMT-0600 (Central Standard Time),782395.3000000007,A,sk,O,k,108,1,333.1000000005588,782062.2000000002,7054,WL,B,4.0
7,16.63699984550476,immed,43363.00015449524,Mon Feb 10 2025 16:39:26 GMT-0600 (Central Standard Time),782838.9000000004,A,skn,O,n,437,1,776.7000000001863,782062.2000000002,7054,WL,B,4.0
7,17.426999807357788,immed,42573.00019264221,Mon Feb 10 2025 16:39:26 GMT-0600 (Central Standard Time),783628.4000000004,A,sk,O,backspace,776,1,1566.2000000001863,782062.2000000002,7054,WL,B,4.0
7,17.72599983215332,immed,42274.00016784668,Mon Feb 10 2025 16:39:26 GMT-0600 (Central Standard Time),783928.0,A,ski,O,i,278,1,1865.7999999998137,782062.2000000002,7054,WL,B,4.0
7,17.95899987220764,immed,42041.00012779236,Mon Feb 10 2025 16:39:26 GMT-0600 (Central Standard Time),784161.2000000002,A,skin,O,n,210,1,2099.0,782062.2000000002,7054,WL,B,4.0
7,18.991999864578247,immed,41008.00013542175,Mon Feb 10 2025 16:39:26 GMT-0600 (Central Standard Time),785194.0,A,skinenter,O,enter,1024,1,3131.7999999998137,782062.2000000002,7054,WL,B,4.0
7,19.358999967575073,immed,40641.00003242493,Mon Feb 10 2025 16:39:26 GMT-0600 (Central Standard Time),785560.8000000007,A,w,O,w,344,1,366.5,785194.3000000007,7054,WL,B,5.0
7,19.491999864578247,immed,40508.00013542175,Mon Feb 10 2025 16:39:26 GMT-0600 (Central Standard Time),785694.2000000002,A,wi,O,i,113,1,499.8999999994412,785194.3000000007,7054,WL,B,5.0
7,19.625999927520752,immed,40374.00007247925,Mon Feb 10 2025 16:39:26 GMT-0600 (Central Standard Time),785827.4000000004,A,win,O,n,115,1,633.0999999996275,785194.3000000007,7054,WL,B,5.0
7,20.625,immed,39375.0,Mon Feb 10 2025 16:39:26 GMT-0600 (Central Standard Time),786827.2000000002,A,wind,O,d,982,1,1632.8999999994412,785194.3000000007,7054,WL,B,5.0
7,20.79199981689453,immed,39208.00018310547,Mon Feb 10 2025 16:39:26 GMT-0600 (Central Standard Time),786994.0,A,windo,O,o,151,1,1799.699999999255,785194.3000000007,7054,WL,B,5.0
7,20.991999864578247,immed,39008.00013542175,Mon Feb 10 2025 16:39:26 GMT-0600 (Central Standard Time),787193.6000000006,A,window,O,w,177,1,1999.2999999998137,785194.3000000007,7054,WL,B,5.0
7,21.274999856948853,immed,38725.00014305115,Mon Feb 10 2025 16:39:26 GMT-0600 (Central Standard Time),787476.9000000004,A,windowenter,O,enter,264,1,2282.5999999996275,785194.3000000007,7054,WL,B,5.0
7,21.64199995994568,immed,38358.00004005432,Mon Feb 10 2025 16:39:26 GMT-0600 (Central Standard Time),787843.4000000004,A,d,O,d,357,1,366.09999999962747,787477.3000000007,7054,WL,B,6.0
7,21.774999856948853,immed,38225.00014305115,Mon Feb 10 2025 16:39:26 GMT-0600 (Central Standard Time),787976.7000000002,A,do,O,o,111,1,499.3999999994412,787477.3000000007,7054,WL,B,6.0
7,21.924999952316284,immed,38075.000047683716,Mon Feb 10 2025 16:39:26 GMT-0600 (Central Standard Time),788126.6000000006,A,doo,O,o,137,1,649.2999999998137,787477.3000000007,7054,WL,B,6.0
7,22.091999769210815,immed,37908.000230789185,Mon Feb 10 2025 16:39:26 GMT-0600 (Central Standard Time),788293.6000000006,A,door,O,r,155,1,816.2999999998137,787477.3000000007,7054,WL,B,6.0
7,22.45799994468689,immed,37542.00005531311,Mon Feb 10 2025 16:39:26 GMT-0600 (Central Standard Time),788659.9000000004,A,doorf,O,f,356,1,1182.5999999996275,787477.3000000007,7054,WL,B,6.0
7,22.607999801635742,immed,37392.00019836426,Mon Feb 10 2025 16:39:26 GMT-0600 (Central Standard Time),788809.6000000006,A,doorfi,O,i,134,1,1332.2999999998137,787477.3000000007,7054,WL,B,6.0
7,22.72499990463257,immed,37275.00009536743,Mon Feb 10 2025 16:39:26 GMT-0600 (Central Standard Time),788926.5,A,doorfir,O,r,104,1,1449.199999999255,787477.3000000007,7054,WL,B,6.0
7,23.174999952316284,immed,36825.000047683716,Mon Feb 10 2025 16:39:26 GMT-0600 (Central Standard Time),789376.6000000006,A,doorfi,O,backspace,435,1,1899.2999999998137,787477.3000000007,7054,WL,B,6.0
7,23.54099988937378,immed,36459.00011062622,Mon Feb 10 2025 16:39:26 GMT-0600 (Central Standard Time),789742.9000000004,A,doorf,O,backspace,345,1,2265.5999999996275,787477.3000000007,7054,WL,B,6.0
7,23.840999841690063,immed,36159.00015830994,Mon Feb 10 2025 16:39:26 GMT-0600 (Central Standard Time),790042.8000000007,A,door,O,backspace,283,1,2565.5,787477.3000000007,7054,WL,B,6.0
7,24.340999841690063,immed,35659.00015830994,Mon Feb 10 2025 16:39:26 GMT-0600 (Central Standard Time),790542.7000000002,A,doorenter,O,enter,487,1,3065.399999999441,787477.3000000007,7054,WL,B,6.0
7,24.673999786376953,immed,35326.00021362305,Mon Feb 10 2025 16:39:26 GMT-0600 (Central Standard Time),790875.8000000007,A,f,O,f,323,1,332.80000000074506,790543.0,7054,WL,B,7.0
7,24.7739999294281,immed,35226.0000705719,Mon Feb 10 2025 16:39:26 GMT-0600 (Central Standard Time),790975.8000000007,A,fi,O,i,78,1,432.80000000074506,790543.0,7054,WL,B,7.0
7,24.906999826431274,immed,35093.000173568726,Mon Feb 10 2025 16:39:26 GMT-0600 (Central Standard Time),791109.1000000006,A,fir,O,r,122,1,566.1000000005588,790543.0,7054,WL,B,7.0
7,25.0239999294281,immed,34976.0000705719,Mon Feb 10 2025 16:39:26 GMT-0600 (Central Standard Time),791226.0,A,fire,O,e,94,1,683.0,790543.0,7054,WL,B,7.0
7,25.389999866485596,immed,34610.000133514404,Mon Feb 10 2025 16:39:26 GMT-0600 (Central Standard Time),791592.2000000002,A,fireenter,O,enter,343,1,1049.2000000001863,790543.0,7054,WL,B,7.0
7,25.87399983406067,immed,34126.00016593933,Mon Feb 10 2025 16:39:26 GMT-0600 (Central Standard Time),792075.5,A,c,O,c,473,1,483.0,791592.5,7054,WL,B,8.0
7,25.95699977874756,immed,34043.00022125244,Mon Feb 10 2025 16:39:26 GMT-0600 (Central Standard Time),792158.7000000002,A,cl,O,l,71,1,566.2000000001863,791592.5,7054,WL,B,8.0
7,26.1729998588562,immed,33827.0001411438,Mon Feb 10 2025 16:39:26 GMT-0600 (Central Standard Time),792375.3000000007,A,clo,O,o,195,1,782.8000000007451,791592.5,7054,WL,B,8.0
7,26.37399983406067,immed,33626.00016593933,Mon Feb 10 2025 16:39:26 GMT-0600 (Central Standard Time),792575.6000000006,A,cloc,O,c,186,1,983.1000000005588,791592.5,7054,WL,B,8.0
7,26.506999969482422,immed,33493.00003051758,Mon Feb 10 2025 16:39:26 GMT-0600 (Central Standard Time),792708.7000000002,A,clock,O,k,114,1,1116.2000000001863,791592.5,7054,WL,B,8.0
7,26.93999981880188,immed,33060.00018119812,Mon Feb 10 2025 16:39:26 GMT-0600 (Central Standard Time),793141.8000000007,A,clockenter,O,enter,414,1,1549.300000000745,791592.5,7054,WL,B,8.0
7,29.222999811172485,immed,30777.000188827515,Mon Feb 10 2025 16:39:26 GMT-0600 (Central Standard Time),795424.4000000004,A,p,O,p,2260,1,2282.2999999998137,793142.1000000006,7054,WL,B,9.0
7,29.323999881744385,immed,30676.000118255615,Mon Feb 10 2025 16:39:26 GMT-0600 (Central Standard Time),795525.6000000006,A,pi,O,i,89,1,2383.5,793142.1000000006,7054,WL,B,9.0
7,29.621999979019165,immed,30378.000020980835,Mon Feb 10 2025 16:39:26 GMT-0600 (Central Standard Time),795824.1000000006,A,pip,O,p,284,1,2682.0,793142.1000000006,7054,WL,B,9.0
7,30.00599980354309,immed,29994.00019645691,Mon Feb 10 2025 16:39:26 GMT-0600 (Central Standard Time),796207.5,A,pipe,O,e,362,1,3065.399999999441,793142.1000000006,7054,WL,B,9.0
7,30.3219997882843,immed,29678.0002117157,Mon Feb 10 2025 16:39:26 GMT-0600 (Central Standard Time),796524.1000000006,A,pipeenter,O,enter,298,1,3382.0,793142.1000000006,7054,WL,B,9.0
7,30.738999843597412,immed,29261.000156402588,Mon Feb 10 2025 16:39:26 GMT-0600 (Central Standard Time),796940.6000000006,A,p,O,p,398,1,416.20000000018626,796524.4000000004,7054,WL,B,10.0
7,30.938999891281128,immed,29061.000108718872,Mon Feb 10 2025 16:39:26 GMT-0600 (Central Standard Time),797140.5,A,pu,O,u,181,1,616.0999999996275,796524.4000000004,7054,WL,B,10.0
7,31.3219997882843,immed,28678.0002117157,Mon Feb 10 2025 16:39:26 GMT-0600 (Central Standard Time),797523.7000000002,A,pup,O,p,366,1,999.2999999998137,796524.4000000004,7054,WL,B,10.0
7,31.554999828338623,immed,28445.000171661377,Mon Feb 10 2025 16:39:26 GMT-0600 (Central Standard Time),797757.1000000006,A,pupi,O,i,222,1,1232.7000000001863,796524.4000000004,7054,WL,B,10.0
7,31.788999795913696,immed,28211.000204086304,Mon Feb 10 2025 16:39:26 GMT-0600 (Central Standard Time),797990.4000000004,A,pupil,O,l,220,1,1466.0,796524.4000000004,7054,WL,B,10.0
7,32.0719997882843,immed,27928.0002117157,Mon Feb 10 2025 16:39:26 GMT-0600 (Central Standard Time),798273.5,A,pupilenter,O,enter,268,1,1749.0999999996275,796524.4000000004,7054,WL,B,10.0
7,32.72199988365173,immed,27278.000116348267,Mon Feb 10 2025 16:39:26 GMT-0600 (Central Standard Time),798923.3000000007,A,c,O,c,633,1,649.4000000003725,798273.9000000004,7054,WL,B,11.0
7,32.8219997882843,immed,27178.0002117157,Mon Feb 10 2025 16:39:26 GMT-0600 (Central Standard Time),799023.3000000007,A,ci,O,i,86,1,749.4000000003725,798273.9000000004,7054,WL,B,11.0
7,33.038999795913696,immed,26961.000204086304,Mon Feb 10 2025 16:39:26 GMT-0600 (Central Standard Time),799241.2000000002,A,cit,O,t,210,1,967.2999999998137,798273.9000000004,7054,WL,B,11.0
7,33.13799977302551,immed,26862.000226974487,Mon Feb 10 2025 16:39:26 GMT-0600 (Central Standard Time),799340.0,A,city,O,y,89,1,1066.0999999996275,798273.9000000004,7054,WL,B,11.0
7,33.687999963760376,immed,26312.000036239624,Mon Feb 10 2025 16:39:26 GMT-0600 (Central Standard Time),799889.8000000007,A,cityenter,O,enter,527,1,1615.9000000003725,798273.9000000004,7054,WL,B,11.0
7,34.08799982070923,immed,25912.00017929077,Mon Feb 10 2025 16:39:26 GMT-0600 (Central Standard Time),800289.6000000006,A,s,O,s,392,1,399.5,799890.1000000006,7054,WL,B,12.0
7,34.370999813079834,immed,25629.000186920166,Mon Feb 10 2025 16:39:26 GMT-0600 (Central Standard Time),800572.7000000002,A,st,O,t,273,1,682.5999999996275,799890.1000000006,7054,WL,B,12.0
7,34.603999853134155,immed,25396.000146865845,Mon Feb 10 2025 16:39:26 GMT-0600 (Central Standard Time),800806.3000000007,A,sta,O,a,213,1,916.2000000001863,799890.1000000006,7054,WL,B,12.0
7,34.770999908447266,immed,25229.000091552734,Mon Feb 10 2025 16:39:26 GMT-0600 (Central Standard Time),800972.7000000002,A,star,O,r,155,1,1082.5999999996275,799890.1000000006,7054,WL,B,12.0
7,35.08699989318848,immed,24913.000106811523,Mon Feb 10 2025 16:39:26 GMT-0600 (Central Standard Time),801289.0,A,starenter,O,enter,293,1,1398.8999999994412,799890.1000000006,7054,WL,B,12.0
7,35.4539999961853,immed,24546.000003814697,Mon Feb 10 2025 16:39:26 GMT-0600 (Central Standard Time),801655.7000000002,A,w,O,w,346,1,366.5,801289.2000000002,7054,WL,B,13.0
7,35.53699994087219,immed,24463.000059127808,Mon Feb 10 2025 16:39:26 GMT-0600 (Central Standard Time),801739.2000000002,A,wi,O,i,74,1,450.0,801289.2000000002,7054,WL,B,13.0
7,35.7039999961853,immed,24296.000003814697,Mon Feb 10 2025 16:39:26 GMT-0600 (Central Standard Time),801905.8000000007,A,wif,O,f,144,1,616.6000000005588,801289.2000000002,7054,WL,B,13.0
7,35.83699989318848,immed,24163.000106811523,Mon Feb 10 2025 16:39:26 GMT-0600 (Central Standard Time),802039.1000000006,A,wife,O,e,120,1,749.9000000003725,801289.2000000002,7054,WL,B,13.0
7,36.769999980926514,immed,23230.000019073486,Mon Feb 10 2025 16:39:26 GMT-0600 (Central Standard Time),802972.1000000006,A,wifeenter,O,enter,923,1,1682.9000000003725,801289.2000000002,7054,WL,B,13.0
7,41.13599991798401,immed,18864.00008201599,Mon Feb 10 2025 16:39:26 GMT-0600 (Central Standard Time),807337.4000000004,A,f,O,f,4343,1,4364.9000000003725,802972.5,7054,WL,B,14.0
7,41.26899981498718,immed,18731.000185012817,Mon Feb 10 2025 16:39:26 GMT-0600 (Central Standard Time),807470.6000000006,A,fi,O,i,112,1,4498.100000000559,802972.5,7054,WL,B,14.0
7,41.401999950408936,immed,18598.000049591064,Mon Feb 10 2025 16:39:26 GMT-0600 (Central Standard Time),807603.9000000004,A,fir,O,r,123,1,4631.4000000003725,802972.5,7054,WL,B,14.0
7,41.53599977493286,immed,18464.00022506714,Mon Feb 10 2025 16:39:26 GMT-0600 (Central Standard Time),807737.4000000004,A,fire,O,e,118,1,4764.9000000003725,802972.5,7054,WL,B,14.0
7,42.01899981498718,immed,17981.000185012817,Mon Feb 10 2025 16:39:26 GMT-0600 (Central Standard Time),808220.4000000004,A,fireenter,O,enter,465,1,5247.9000000003725,802972.5,7054,WL,B,14.0
7,48.69999980926514,immed,11300.000190734863,Mon Feb 10 2025 16:39:26 GMT-0600 (Central Standard Time),814902.0,A,p,O,p,6661,1,6681.199999999255,808220.8000000007,7054,WL,B,15.0
7,49.01699995994568,immed,10983.000040054321,Mon Feb 10 2025 16:39:26 GMT-0600 (Central Standard Time),815218.3000000007,A,pi,O,i,299,1,6997.5,808220.8000000007,7054,WL,B,15.0
7,49.16599988937378,immed,10834.00011062622,Mon Feb 10 2025 16:39:26 GMT-0600 (Central Standard Time),815368.3000000007,A,pip,O,p,136,1,7147.5,808220.8000000007,7054,WL,B,15.0
7,49.73299980163574,immed,10267.000198364258,Mon Feb 10 2025 16:39:26 GMT-0600 (Central Standard Time),815934.6000000006,A,pipe,O,e,554,1,7713.799999999814,808220.8000000007,7054,WL,B,15.0
7,50.115999937057495,immed,9884.000062942505,Mon Feb 10 2025 16:39:26 GMT-0600 (Central Standard Time),816318.0,A,pipeenter,O,enter,371,1,8097.199999999255,808220.8000000007,7054,WL,B,15.0
