acc_sum,block,block_c,condition,correct,correct_response,datetime,endtime,flanker,jitter,project,response,response_test_buffer_response,response_test_target_response,response_time,response_time_test_buffer_response,response_time_test_target_response,row_sel,session_number,start_end,starttime,subject_id,target,task,task_vers,time_test_buffer,time_test_buffer_response,time_test_constants,time_test_flanker,time_test_jitter,time_test_logger,time_test_target,time_test_target_response,time_test_variables,trial
0,prac,1,con,0,m,Wed Apr 16 2025 17:12:26 GMT-0500 (Central Daylight Time),160119.30000001192,gold,800,I,None,,,1814,,,13,1,4889.800000011921,155229.5,7131,gold,NF,C,,,,,,,,,,1
0,prac,1,inc,0,m,Wed Apr 16 2025 17:12:26 GMT-0500 (Central Daylight Time),162552.0,cherry,900,I,z,,,200,,,10,1,2416.5,160135.5,7131,copper,NF,C,,,,,,,,,,2
1,prac,1,inc,1,m,Wed Apr 16 2025 17:12:26 GMT-0500 (Central Daylight Time),165467.90000003576,pear,900,I,m,,,695,,,14,1,2891.400000035763,162576.5,7131,iron,NF,C,,,,,,,,,,3
2,prac,1,inc,1,m,Wed Apr 16 2025 17:12:26 GMT-0500 (Central Daylight Time),168449.80000001192,plum,1100,I,m,,,564,,,16,1,2957.099999964237,165492.70000004768,7131,lead,NF,C,,,,,,,,,,4
3,prac,1,con,1,m,Wed Apr 16 2025 17:12:26 GMT-0500 (Central Daylight Time),171432.5,zinc,1000,I,m,,,657,,,15,1,2962.599999964237,168469.90000003576,7131,zinc,NF,C,,,,,,,,,,5
4,prac,1,con,1,m,Wed Apr 16 2025 17:12:26 GMT-0500 (Central Daylight Time),174331.5,silver,1000,I,m,,,571,,,11,1,2874.199999988079,171457.30000001192,7131,silver,NF,C,,,,,,,,,,6
5,prac,1,inc,1,z,Wed Apr 16 2025 17:12:26 GMT-0500 (Central Daylight Time),177313.30000001192,cobalt,1100,I,z,,,557,,,4,1,2958.5,174354.80000001192,7131,raisin,NF,C,,,,,,,,,,7
6,prac,1,inc,1,m,Wed Apr 16 2025 17:12:26 GMT-0500 (Central Daylight Time),180296.0,raisin,1100,I,m,,,566,,,12,1,2970.199999988079,177325.80000001192,7131,cobalt,NF,C,,,,,,,,,,8
7,prac,1,inc,1,z,Wed Apr 16 2025 17:12:26 GMT-0500 (Central Daylight Time),182995.60000002384,copper,900,I,z,,,470,,,2,1,2677.399999976158,180318.20000004768,7131,cherry,NF,C,,,,,,,,,,9
8,prac,1,inc,1,z,Wed Apr 16 2025 17:12:26 GMT-0500 (Central Daylight Time),185877.5,iron,900,I,z,,,660,,,6,1,2860.2999999523163,183017.20000004768,7131,pear,NF,C,,,,,,,,,,10
9,prac,1,con,1,z,Wed Apr 16 2025 17:12:26 GMT-0500 (Central Daylight Time),188743.40000003576,orange,1000,I,z,,,533,,,3,1,2844.300000011921,185899.10000002384,7131,orange,NF,C,,,,,,,,,,11
10,prac,1,con,1,z,Wed Apr 16 2025 17:12:26 GMT-0500 (Central Daylight Time),191459.10000002384,banana,800,I,z,,,588,,,1,1,2693.5,188765.60000002384,7131,banana,NF,C,,,,,,,,,,12
11,prac,1,con,1,z,Wed Apr 16 2025 17:12:26 GMT-0500 (Central Daylight Time),194258.10000002384,kiwi,1000,I,z,,,472,,,7,1,2777.100000023842,191481.0,7131,kiwi,NF,C,,,,,,,,,,13
12,prac,1,con,1,m,Wed Apr 16 2025 17:12:26 GMT-0500 (Central Daylight Time),196857.20000004768,bronze,800,I,m,,,465,,,9,1,2576.400000035763,194280.80000001192,7131,bronze,NF,C,,,,,,,,,,14
13,prac,1,inc,1,z,Wed Apr 16 2025 17:12:26 GMT-0500 (Central Daylight Time),199973.30000001192,lead,1100,I,z,,,684,,,8,1,3095.399999976158,196877.90000003576,7131,plum,NF,C,,,,,,,,,,15
14,prac,1,con,1,z,Wed Apr 16 2025 17:12:26 GMT-0500 (Central Daylight Time),202904.80000001192,lime,800,I,z,,,814,,,5,1,2909.699999988079,199995.10000002384,7131,lime,NF,C,,,,,,,,,,16
1,test,1,inc,1,z,Wed Apr 16 2025 17:12:26 GMT-0500 (Central Daylight Time),219966.60000002384,iron,900,I,z,z,None,744,529.0,215.0,54,1,2179.300000011921,217787.30000001192,7131,kiwi,NF,C,213135,213135,211488,212402,211490,213668,212919,212919,213667,1
2,test,1,con,1,m,Wed Apr 16 2025 17:12:26 GMT-0500 (Central Daylight Time),222199.40000003576,iron,1100,I,m,m,None,569,370.0,199.0,108,1,2209.800000011921,219989.60000002384,7131,iron,NF,C,215517,215518,213691,214801,213693,215900,215318,215318,215900,2
3,test,1,inc,1,m,Wed Apr 16 2025 17:12:26 GMT-0500 (Central Daylight Time),224314.80000001192,cherry,900,I,m,m,None,665,466.0,199.0,86,1,2092.699999988079,222222.10000002384,7131,silver,NF,C,217534,217534,215923,216832,215925,218016,217334,217334,218016,3
4,test,1,inc,1,m,Wed Apr 16 2025 17:12:26 GMT-0500 (Central Daylight Time),226414.20000004768,kiwi,1000,I,m,m,None,545,346.0,199.0,103,1,2076.600000023842,224337.60000002384,7131,gold,NF,C,219766,219766,218039,219048,218041,220115,219566,219566,220115,4
5,test,1,inc,1,z,Wed Apr 16 2025 17:12:26 GMT-0500 (Central Daylight Time),228530.10000002384,silver,1000,I,z,z,None,549,334.0,215.0,7,1,2092.0,226438.10000002384,7131,banana,NF,C,221882,221882,220139,221149,220141,222231,221666,221666,222231,5
6,test,1,inc,1,m,Wed Apr 16 2025 17:12:26 GMT-0500 (Central Daylight Time),230629.5,orange,1000,I,m,m,None,545,330.0,215.0,95,1,2077.699999988079,228551.80000001192,7131,cobalt,NF,C,223998,223998,222253,223265,222255,224331,223782,223782,224331,6
7,test,1,con,1,z,Wed Apr 16 2025 17:12:26 GMT-0500 (Central Daylight Time),232462.30000001192,kiwi,800,I,z,z,None,470,271.0,199.0,49,1,1810.800000011921,230651.5,7131,kiwi,NF,C,225881,225881,224353,225165,224355,226163,225681,225681,226163,7
8,test,1,inc,1,z,Wed Apr 16 2025 17:12:26 GMT-0500 (Central Daylight Time),234411.80000001192,gold,800,I,z,z,None,597,382.0,215.0,37,1,1927.0999999642372,232484.70000004768,7131,lime,NF,C,227730,227730,226186,226997,226187,228113,227514,227514,228113,8
9,test,1,inc,1,z,Wed Apr 16 2025 17:12:26 GMT-0500 (Central Daylight Time),236627.5,lead,1100,I,z,z,None,556,357.0,199.0,40,1,2193.099999964237,234434.40000003576,7131,lime,NF,C,229963,229963,228135,229247,228137,230329,229763,229763,230329,9
10,test,1,inc,1,m,Wed Apr 16 2025 17:12:26 GMT-0500 (Central Daylight Time),238692.70000004768,orange,1000,I,m,m,None,510,311.0,199.0,79,1,2042.6000000238419,236650.10000002384,7131,copper,NF,C,232079,232079,230351,231362,230353,232394,231879,231879,232394,10
11,test,1,inc,1,z,Wed Apr 16 2025 17:12:26 GMT-0500 (Central Daylight Time),240692.70000004768,silver,1000,I,z,z,None,455,239.0,216.0,23,1,1992.800000011921,238699.90000003576,7131,orange,NF,C,234143,234143,232401,233411,232401,234394,233927,233927,234394,11
12,test,1,inc,1,m,Wed Apr 16 2025 17:12:26 GMT-0500 (Central Daylight Time),242691.80000001192,lime,800,I,m,m,None,666,466.0,200.0,125,1,1988.5,240703.30000001192,7131,lead,NF,C,235926,235926,234404,235210,234405,236393,235726,235726,236393,12
13,test,1,inc,1,z,Wed Apr 16 2025 17:12:26 GMT-0500 (Central Daylight Time),244924.90000003576,lead,1100,I,z,z,None,571,356.0,215.0,48,1,2211.699999988079,242713.20000004768,7131,pear,NF,C,238260,238260,236414,237527,236416,238626,238044,238044,238626,13
14,test,1,inc,1,z,Wed Apr 16 2025 17:12:26 GMT-0500 (Central Daylight Time),247007.5,bronze,800,I,z,z,None,726,511.0,215.0,13,1,2061.199999988079,244946.30000001192,7131,cherry,NF,C,240193,240193,238647,239460,238650,240709,239976,239977,240708,14
15,test,1,inc,1,z,Wed Apr 16 2025 17:12:26 GMT-0500 (Central Daylight Time),248956.5,copper,900,I,z,z,None,496,297.0,199.0,6,1,1921.5,247035.0,7131,banana,NF,C,242359,242359,240736,241643,240737,242658,242159,242159,242658,15
16,test,1,con,1,z,Wed Apr 16 2025 17:12:26 GMT-0500 (Central Daylight Time),250972.70000004768,kiwi,900,I,z,z,None,562,347.0,215.0,50,1,1992.9000000357628,248979.80000001192,7131,kiwi,NF,C,244325,244325,242681,243592,242683,244674,244109,244109,244674,16
17,test,1,con,1,z,Wed Apr 16 2025 17:12:26 GMT-0500 (Central Daylight Time),252905.5,raisin,900,I,z,z,None,474,259.0,215.0,26,1,1910.5999999642372,250994.90000003576,7131,raisin,NF,C,246341,246341,244696,245608,244697,246607,246125,246125,246607,17
18,test,1,con,1,m,Wed Apr 16 2025 17:12:26 GMT-0500 (Central Daylight Time),254971.80000001192,copper,800,I,m,m,None,713,498.0,215.0,73,1,2048.099999964237,252923.70000004768,7131,copper,NF,C,248173,248174,246625,247440,246626,248673,247958,247958,248673,18
19,test,1,inc,1,z,Wed Apr 16 2025 17:12:26 GMT-0500 (Central Daylight Time),257154.20000004768,copper,900,I,z,z,None,724,525.0,199.0,30,1,2159.300000011921,254994.90000003576,7131,raisin,NF,C,250323,250323,248696,249607,248698,250855,250123,250123,250855,19
20,test,1,con,1,z,Wed Apr 16 2025 17:12:26 GMT-0500 (Central Daylight Time),259286.80000001192,banana,900,I,z,z,None,677,478.0,199.0,2,1,2111.199999988079,257175.60000002384,7131,banana,NF,C,252505,252506,250877,251789,250878,252988,252306,252306,252988,20
21,test,1,con,1,z,Wed Apr 16 2025 17:12:26 GMT-0500 (Central Daylight Time),261385.40000003576,pear,1100,I,z,z,None,434,234.0,200.0,44,1,2079.100000023842,259306.30000001192,7131,pear,NF,C,254837,254837,253007,254122,253008,255086,254637,254637,255086,21
22,test,1,con,1,m,Wed Apr 16 2025 17:12:26 GMT-0500 (Central Daylight Time),263219.5,iron,900,I,m,m,None,399,199.0,200.0,106,1,1822.199999988079,261397.30000001192,7131,iron,NF,C,256721,256721,255098,256005,255099,256921,256520,256520,256921,22
23,test,1,con,1,z,Wed Apr 16 2025 17:12:26 GMT-0500 (Central Daylight Time),265201.90000003576,lime,800,I,z,z,None,617,418.0,199.0,33,1,1964.5,263237.40000003576,7131,lime,NF,C,258470,258470,256938,257754,256939,258903,258270,258270,258903,23
24,test,1,con,1,z,Wed Apr 16 2025 17:12:26 GMT-0500 (Central Daylight Time),267350.90000003576,kiwi,1100,I,z,z,None,487,272.0,215.0,52,1,2127.0,265223.90000003576,7131,kiwi,NF,C,260768,260768,258925,260036,258927,261052,260553,260553,261052,24
25,test,1,inc,1,z,Wed Apr 16 2025 17:12:26 GMT-0500 (Central Daylight Time),269583.5,lead,1100,I,z,z,None,577,378.0,199.0,64,1,2212.199999988079,267371.3000000119,7131,plum,NF,C,262902,262902,261072,262185,261074,263285,262702,262702,263284,25
26,test,1,con,1,z,Wed Apr 16 2025 17:12:26 GMT-0500 (Central Daylight Time),271682.8000000119,kiwi,1000,I,z,z,None,541,342.0,199.0,51,1,2077.599999964237,269605.2000000477,7131,kiwi,NF,C,265034,265034,263306,264318,263308,265384,264835,264835,265384,26
27,test,1,inc,1,z,Wed Apr 16 2025 17:12:26 GMT-0500 (Central Daylight Time),273882.2000000477,silver,1000,I,z,z,None,632,433.0,199.0,31,1,2178.900000035763,271703.3000000119,7131,raisin,NF,C,267134,267134,265404,266418,265406,267583,266934,266934,267583,27
28,test,1,inc,1,z,Wed Apr 16 2025 17:12:26 GMT-0500 (Central Daylight Time),275915.5,iron,900,I,z,z,None,581,366.0,215.0,38,1,2012.7999999523163,273902.7000000477,7131,lime,NF,C,269250,269250,267604,268517,267605,269617,269034,269034,269616,28
29,test,1,con,1,m,Wed Apr 16 2025 17:12:26 GMT-0500 (Central Daylight Time),278297.40000003576,bronze,1100,I,m,m,None,717,518.0,199.0,68,1,2360.800000011921,275936.60000002384,7131,bronze,NF,C,271466,271466,269638,270750,269639,271999,271266,271266,271998,29
30,test,1,con,1,m,Wed Apr 16 2025 17:12:26 GMT-0500 (Central Daylight Time),280329.90000003576,iron,1000,I,m,m,None,467,268.0,199.0,107,1,2011.699999988079,278318.2000000477,7131,iron,NF,C,273748,273748,272019,273032,272021,274031,273549,273549,274031,30
31,test,1,inc,1,m,Wed Apr 16 2025 17:12:26 GMT-0500 (Central Daylight Time),282662.40000003576,raisin,1100,I,m,m,None,678,479.0,199.0,88,1,2312.400000035763,280350.0,7131,silver,NF,C,275881,275881,274051,275165,274053,276364,275681,275681,276363,31
32,test,1,inc,1,m,Wed Apr 16 2025 17:12:26 GMT-0500 (Central Daylight Time),284761.90000003576,kiwi,1000,I,m,m,None,541,342.0,199.0,127,1,2079.199999988079,282682.7000000477,7131,lead,NF,C,278114,278114,276384,277397,276386,278463,277914,277914,278463,32
33,test,1,con,1,m,Wed Apr 16 2025 17:12:26 GMT-0500 (Central Daylight Time),286744.7000000477,zinc,1000,I,m,m,None,418,219.0,199.0,115,1,1961.300000011921,284783.40000003576,7131,zinc,NF,C,280213,280213,278484,279497,278486,280446,280013,280013,280446,33
34,test,1,inc,1,m,Wed Apr 16 2025 17:12:26 GMT-0500 (Central Daylight Time),288710.60000002384,lime,800,I,m,m,None,603,404.0,199.0,101,1,1945.0,286765.60000002384,7131,gold,NF,C,281996,281996,280467,281279,280468,282412,281796,281796,282412,34
35,test,1,con,1,m,Wed Apr 16 2025 17:12:26 GMT-0500 (Central Daylight Time),290743.2000000477,cobalt,900,I,m,m,None,576,362.0,214.0,90,1,2012.800000011921,288730.40000003576,7131,cobalt,NF,C,284078,284078,282431,283346,282433,284444,283863,283863,284444,35
36,test,1,con,1,m,Wed Apr 16 2025 17:12:26 GMT-0500 (Central Daylight Time),292975.8000000119,silver,1100,I,m,m,None,569,370.0,199.0,84,1,2212.199999988079,290763.60000002384,7131,silver,NF,C,286294,286294,284465,285578,284466,286677,286095,286095,286677,36
37,test,1,con,1,m,Wed Apr 16 2025 17:12:26 GMT-0500 (Central Daylight Time),295191.7000000477,gold,1000,I,m,m,None,653,454.0,199.0,99,1,2195.2000000476837,292996.5,7131,gold,NF,C,288426,288426,286698,287711,286698,288893,288227,288227,288893,37
38,test,1,con,1,m,Wed Apr 16 2025 17:12:26 GMT-0500 (Central Daylight Time),297291.0,gold,1100,I,m,m,None,441,241.0,200.0,100,1,2078.5,295212.5,7131,gold,NF,C,290743,290743,288914,290026,288916,290992,290542,290542,290992,38
38,test,1,inc,0,z,Wed Apr 16 2025 17:12:26 GMT-0500 (Central Daylight Time),299257.0,silver,1000,I,m,m,None,409,210.0,199.0,15,1,1944.699999988079,297312.3000000119,7131,cherry,NF,C,292742,292742,291013,292026,291015,292958,292542,292542,292958,39
39,test,1,inc,1,m,Wed Apr 16 2025 17:12:26 GMT-0500 (Central Daylight Time),301472.90000003576,orange,1000,I,m,m,None,657,443.0,214.0,87,1,2193.0,299279.90000003576,7131,silver,NF,C,294725,294725,292981,293992,292983,295174,294510,294510,295174,40
40,test,1,con,1,m,Wed Apr 16 2025 17:12:26 GMT-0500 (Central Daylight Time),303688.60000002384,gold,900,I,m,m,None,758,543.0,215.0,98,1,2192.600000023842,301496.0,7131,gold,NF,C,296841,296841,295197,296108,295199,297390,296625,296625,297390,41
41,test,1,con,1,m,Wed Apr 16 2025 17:12:26 GMT-0500 (Central Daylight Time),305838.2000000477,cobalt,1000,I,m,m,None,595,396.0,199.0,91,1,2131.7000000476837,303706.5,7131,cobalt,NF,C,299140,299140,297408,298424,297408,299539,298940,298940,299539,42
42,test,1,inc,1,m,Wed Apr 16 2025 17:12:26 GMT-0500 (Central Daylight Time),307970.10000002384,cherry,900,I,m,m,None,671,456.0,215.0,70,1,2111.5,305858.60000002384,7131,bronze,NF,C,301206,301206,299560,300472,299561,301671,300990,300990,301671,43
43,test,1,con,1,z,Wed Apr 16 2025 17:12:26 GMT-0500 (Central Daylight Time),309853.5,pear,800,I,z,z,None,545,330.0,215.0,41,1,1877.0,307976.5,7131,pear,NF,C,303222,303222,301678,302489,301678,303555,303006,303006,303554,44
44,test,1,inc,1,z,Wed Apr 16 2025 17:12:26 GMT-0500 (Central Daylight Time),311869.3000000119,copper,900,I,z,z,None,562,363.0,199.0,22,1,1995.5,309873.8000000119,7131,orange,NF,C,305205,305205,303575,304489,303577,305570,305005,305005,305570,45
45,test,1,inc,1,m,Wed Apr 16 2025 17:12:26 GMT-0500 (Central Daylight Time),314085.5,raisin,1100,I,m,m,None,554,355.0,199.0,72,1,2195.099999964237,311890.40000003576,7131,bronze,NF,C,307421,307421,305591,306704,305594,307787,307221,307221,307786,46
46,test,1,inc,1,m,Wed Apr 16 2025 17:12:26 GMT-0500 (Central Daylight Time),316068.2000000477,banana,800,I,m,m,None,622,423.0,199.0,77,1,1961.300000011921,314106.90000003576,7131,copper,NF,C,309337,309337,307808,308620,307810,309769,309137,309137,309769,47
47,test,1,con,1,z,Wed Apr 16 2025 17:12:26 GMT-0500 (Central Daylight Time),318250.7000000477,raisin,1100,I,z,z,None,515,300.0,215.0,28,1,2161.7000000476837,316089.0,7131,raisin,NF,C,311636,311636,309790,310903,309792,311952,311420,311420,311952,48
48,test,1,con,1,m,Wed Apr 16 2025 17:12:26 GMT-0500 (Central Daylight Time),320533.3000000119,silver,1000,I,m,m,None,721,506.0,215.0,83,1,2262.199999988079,318271.10000002384,7131,silver,NF,C,313718,313718,311972,312986,311974,314234,313502,313503,314234,49
49,test,1,con,1,z,Wed Apr 16 2025 17:12:26 GMT-0500 (Central Daylight Time),322649.3000000119,plum,1100,I,z,z,None,450,251.0,199.0,60,1,2095.699999988079,320553.60000002384,7131,plum,NF,C,316084,316085,314255,315368,314256,316350,315885,315885,316350,50
50,test,1,inc,1,z,Wed Apr 16 2025 17:12:26 GMT-0500 (Central Daylight Time),324765.3000000119,zinc,1000,I,z,z,None,563,364.0,199.0,39,1,2095.199999988079,322670.10000002384,7131,lime,NF,C,318100,318100,316371,317384,316373,318466,317901,317901,318466,51
51,test,1,con,1,z,Wed Apr 16 2025 17:12:26 GMT-0500 (Central Daylight Time),326581.0,plum,800,I,z,z,None,462,263.0,199.0,57,1,1794.8999999761581,324786.10000002384,7131,plum,NF,C,320016,320017,318487,319300,318489,320282,319817,319817,320282,52
52,test,1,con,1,m,Wed Apr 16 2025 17:12:26 GMT-0500 (Central Daylight Time),328680.60000002384,cobalt,1100,I,m,m,None,443,244.0,199.0,92,1,2079.800000011921,326600.8000000119,7131,cobalt,NF,C,322132,322132,320302,321416,320303,322382,321933,321933,322382,53
53,test,1,con,1,z,Wed Apr 16 2025 17:12:26 GMT-0500 (Central Daylight Time),330763.60000002384,cherry,1100,I,z,z,None,431,232.0,199.0,12,1,2062.5,328701.10000002384,7131,cherry,NF,C,324232,324232,322402,323516,322404,324465,324032,324032,324465,54
54,test,1,con,1,m,Wed Apr 16 2025 17:12:26 GMT-0500 (Central Daylight Time),332629.40000003576,silver,800,I,m,m,None,504,289.0,215.0,81,1,1844.800000011921,330784.60000002384,7131,silver,NF,C,326031,326031,324486,325298,324487,326331,325815,325815,326330,55
55,test,1,con,1,z,Wed Apr 16 2025 17:12:26 GMT-0500 (Central Daylight Time),334645.3000000119,pear,1000,I,z,z,None,455,256.0,199.0,43,1,1994.5,332650.8000000119,7131,pear,NF,C,328080,328080,326352,327364,326353,328346,327881,327881,328346,56
56,test,1,con,1,m,Wed Apr 16 2025 17:12:26 GMT-0500 (Central Daylight Time),336411.8000000119,zinc,800,I,m,m,None,414,215.0,199.0,113,1,1746.800000011921,334665.0,7131,zinc,NF,C,329897,329897,328366,329180,328367,330113,329697,329697,330113,57
57,test,1,inc,1,z,Wed Apr 16 2025 17:12:26 GMT-0500 (Central Daylight Time),338411.90000003576,iron,900,I,z,z,None,548,349.0,199.0,46,1,1979.199999988079,336432.7000000477,7131,pear,NF,C,331763,331763,330134,331046,330135,332113,331563,331563,332113,58
58,test,1,con,1,m,Wed Apr 16 2025 17:12:26 GMT-0500 (Central Daylight Time),340443.5,silver,900,I,m,m,None,574,359.0,215.0,82,1,2008.7999999523163,338434.7000000477,7131,silver,NF,C,333777,333777,332136,333046,332138,334145,333562,333562,334144,59
59,test,1,inc,1,z,Wed Apr 16 2025 17:12:26 GMT-0500 (Central Daylight Time),342626.10000002384,copper,900,I,z,z,None,716,517.0,199.0,14,1,2161.399999976158,340464.7000000477,7131,cherry,NF,C,335795,335795,334166,335078,334168,336327,335595,335595,336327,60
60,test,1,inc,1,m,Wed Apr 16 2025 17:12:26 GMT-0500 (Central Daylight Time),344775.40000003576,raisin,1100,I,m,m,None,493,278.0,215.0,96,1,2130.100000023842,342645.3000000119,7131,cobalt,NF,C,338194,338194,336346,337460,336347,338477,337977,337978,338476,61
61,test,1,inc,1,z,Wed Apr 16 2025 17:12:26 GMT-0500 (Central Daylight Time),346724.8000000119,gold,800,I,z,z,None,588,389.0,199.0,45,1,1928.300000011921,344796.5,7131,pear,NF,C,340027,340027,338498,339310,338499,340426,339827,339827,340426,62
62,test,1,con,1,z,Wed Apr 16 2025 17:12:26 GMT-0500 (Central Daylight Time),348574.2000000477,cherry,800,I,z,z,None,495,296.0,199.0,9,1,1827.6000000238419,346746.60000002384,7131,cherry,NF,C,341976,341976,340448,341260,340449,342275,341776,341776,342275,63
63,test,1,con,1,z,Wed Apr 16 2025 17:12:26 GMT-0500 (Central Daylight Time),350540.10000002384,lime,1000,I,z,z,None,413,198.0,215.0,35,1,1945.300000011921,348594.8000000119,7131,lime,NF,C,344042,344042,342296,343309,342297,344241,343826,343826,344241,64
64,test,1,con,1,m,Wed Apr 16 2025 17:12:26 GMT-0500 (Central Daylight Time),352307.7000000477,gold,800,I,m,m,None,415,216.0,199.0,97,1,1745.7000000476837,350562.0,7131,gold,NF,C,345791,345792,344263,345075,344265,346009,345592,345592,346009,65
65,test,1,inc,1,z,Wed Apr 16 2025 17:12:26 GMT-0500 (Central Daylight Time),354455.40000003576,zinc,1000,I,z,z,None,593,378.0,215.0,63,1,2127.800000011921,352327.60000002384,7131,plum,NF,C,347774,347774,346029,347041,346030,348157,347558,347558,348156,66
66,test,1,inc,1,m,Wed Apr 16 2025 17:12:26 GMT-0500 (Central Daylight Time),356654.90000003576,pear,900,I,m,m,None,736,537.0,199.0,110,1,2176.800000011921,354478.10000002384,7131,iron,NF,C,349807,349807,348179,349090,348181,350356,349607,349607,350356,67
67,test,1,con,1,m,Wed Apr 16 2025 17:12:26 GMT-0500 (Central Daylight Time),358604.0,cobalt,800,I,m,m,None,597,398.0,199.0,89,1,1929.0,356675.0,7131,cobalt,NF,C,351906,351906,350376,351190,350378,352305,351706,351706,352305,68
68,test,1,con,1,m,Wed Apr 16 2025 17:12:26 GMT-0500 (Central Daylight Time),360803.90000003576,zinc,900,I,m,m,None,747,532.0,215.0,114,1,2179.699999988079,358624.2000000477,7131,zinc,NF,C,353972,353972,352325,353239,352327,354505,353756,353756,354505,69
69,test,1,con,1,z,Wed Apr 16 2025 17:12:26 GMT-0500 (Central Daylight Time),362786.3000000119,orange,1000,I,z,z,None,416,217.0,199.0,19,1,1961.5,360824.8000000119,7131,orange,NF,C,356255,356255,354526,355538,354527,356487,356055,356055,356487,70
70,test,1,inc,1,m,Wed Apr 16 2025 17:12:26 GMT-0500 (Central Daylight Time),364685.60000002384,banana,800,I,m,m,None,544,330.0,214.0,85,1,1880.0,362805.60000002384,7131,silver,NF,C,358054,358054,356507,357321,356507,358387,357839,357839,358387,71
71,test,1,con,1,z,Wed Apr 16 2025 17:12:26 GMT-0500 (Central Daylight Time),366751.60000002384,raisin,1000,I,z,z,None,510,311.0,199.0,27,1,2045.1000000238419,364706.5,7131,raisin,NF,C,360137,360137,358408,359420,358409,360453,359937,359937,360452,72
72,test,1,inc,1,z,Wed Apr 16 2025 17:12:26 GMT-0500 (Central Daylight Time),368934.10000002384,zinc,1000,I,z,z,None,628,429.0,199.0,55,1,2162.600000023842,366771.5,7131,kiwi,NF,C,362203,362203,360473,361486,360474,362635,362003,362003,362635,73
73,test,1,con,1,m,Wed Apr 16 2025 17:12:26 GMT-0500 (Central Daylight Time),371050.10000002384,lead,1100,I,m,m,None,449,234.0,215.0,124,1,2094.100000023842,368956.0,7131,lead,NF,C,364502,364502,362657,363769,362658,364751,364286,364286,364751,74
74,test,1,inc,1,m,Wed Apr 16 2025 17:12:26 GMT-0500 (Central Daylight Time),373182.7000000477,kiwi,1000,I,m,m,None,578,379.0,199.0,111,1,2112.100000023842,371070.60000002384,7131,iron,NF,C,366501,366501,364772,365785,364773,366884,366302,366302,366884,75
75,test,1,inc,1,z,Wed Apr 16 2025 17:12:26 GMT-0500 (Central Daylight Time),375415.40000003576,lead,1100,I,z,z,None,576,361.0,215.0,56,1,2212.300000011921,373203.10000002384,7131,kiwi,NF,C,368750,368750,366904,368018,366906,369116,368534,368535,369116,76
76,test,1,con,1,z,Wed Apr 16 2025 17:12:26 GMT-0500 (Central Daylight Time),377331.40000003576,banana,800,I,z,z,None,557,358.0,199.0,1,1,1895.699999988079,375435.7000000477,7131,banana,NF,C,370666,370666,369137,369950,369138,371033,370467,370467,371032,77
77,test,1,inc,1,m,Wed Apr 16 2025 17:12:26 GMT-0500 (Central Daylight Time),379497.40000003576,plum,1100,I,m,m,None,508,309.0,199.0,128,1,2145.400000035763,377352.0,7131,lead,NF,C,372883,372883,371053,372166,371055,373199,372683,372683,373198,78
78,test,1,con,1,z,Wed Apr 16 2025 17:12:26 GMT-0500 (Central Daylight Time),381413.3000000119,cherry,1000,I,z,z,None,363,164.0,199.0,11,1,1896.300000011921,379517.0,7131,cherry,NF,C,374948,374948,373218,374232,373219,375114,374749,374749,375114,79
79,test,1,con,1,m,Wed Apr 16 2025 17:12:26 GMT-0500 (Central Daylight Time),383196.10000002384,iron,800,I,m,m,None,422,223.0,199.0,105,1,1761.699999988079,381434.40000003576,7131,iron,NF,C,376664,376665,375135,375947,375137,376897,376465,376465,376897,80
79,test,1,con,0,m,Wed Apr 16 2025 17:12:26 GMT-0500 (Central Daylight Time),385295.5,copper,1100,I,z,z,None,443,228.0,215.0,76,1,2078.099999964237,383217.40000003576,7131,copper,NF,C,378764,378764,376918,378031,376920,378997,378547,378548,378996,81
80,test,1,inc,1,z,Wed Apr 16 2025 17:12:26 GMT-0500 (Central Daylight Time),387611.10000002384,cobalt,1100,I,z,z,None,656,457.0,199.0,8,1,2295.399999976158,385315.7000000477,7131,banana,NF,C,380847,380847,379017,380131,379019,381312,380647,380647,381312,82
81,test,1,inc,1,z,Wed Apr 16 2025 17:12:26 GMT-0500 (Central Daylight Time),389760.7000000477,iron,900,I,z,z,None,702,502.0,200.0,62,1,2137.7000000476837,387623.0,7131,plum,NF,C,382946,382946,381324,382230,381325,383462,382745,382745,383462,83
82,test,1,con,1,m,Wed Apr 16 2025 17:12:26 GMT-0500 (Central Daylight Time),391710.2000000477,copper,900,I,m,m,None,487,288.0,199.0,74,1,1927.0,389783.2000000477,7131,copper,NF,C,385112,385112,383484,384394,383486,385411,384912,384912,385411,84
83,test,1,con,1,z,Wed Apr 16 2025 17:12:26 GMT-0500 (Central Daylight Time),393659.3000000119,banana,1000,I,z,z,None,389,174.0,215.0,3,1,1929.0999999642372,391730.2000000477,7131,banana,NF,C,387178,387178,385431,386445,385433,387360,386962,386962,387360,85
84,test,1,con,1,z,Wed Apr 16 2025 17:12:26 GMT-0500 (Central Daylight Time),395542.3000000119,orange,900,I,z,z,None,421,221.0,200.0,18,1,1865.0999999642372,393677.2000000477,7131,orange,NF,C,389011,389011,387378,388293,387379,389243,388810,388810,389243,86
85,test,1,con,1,z,Wed Apr 16 2025 17:12:26 GMT-0500 (Central Daylight Time),397324.7000000477,raisin,800,I,z,z,None,429,214.0,215.0,25,1,1761.1000000238419,395563.60000002384,7131,raisin,NF,C,390810,390810,389265,390077,389266,391026,390594,390594,391026,87
86,test,1,inc,1,m,Wed Apr 16 2025 17:12:26 GMT-0500 (Central Daylight Time),399491.60000002384,plum,1100,I,m,m,None,515,316.0,199.0,120,1,2147.199999988079,397344.40000003576,7131,zinc,NF,C,392876,392876,391045,392160,391047,393193,392676,392676,393193,88
87,test,1,inc,1,m,Wed Apr 16 2025 17:12:26 GMT-0500 (Central Daylight Time),401573.10000002384,lime,800,I,m,m,None,720,521.0,199.0,109,1,2061.800000011921,399511.3000000119,7131,iron,NF,C,394742,394742,393212,394026,393214,395274,394542,394542,395274,89
88,test,1,con,1,z,Wed Apr 16 2025 17:12:26 GMT-0500 (Central Daylight Time),403622.8000000119,banana,1100,I,z,z,None,387,172.0,215.0,4,1,2034.3999999761581,401588.40000003576,7131,banana,NF,C,397140,397140,395289,396407,395291,397324,396925,396925,397324,90
89,test,1,inc,1,z,Wed Apr 16 2025 17:12:26 GMT-0500 (Central Daylight Time),405854.60000002384,cobalt,1100,I,z,z,None,567,368.0,199.0,16,1,2211.800000011921,403642.8000000119,7131,cherry,NF,C,399174,399174,397344,398457,397346,399556,398974,398974,399556,91
90,test,1,con,1,z,Wed Apr 16 2025 17:12:26 GMT-0500 (Central Daylight Time),407771.5,lime,900,I,z,z,None,475,276.0,199.0,34,1,1910.2999999523163,405861.2000000477,7131,lime,NF,C,401190,401190,399562,400474,399563,401473,400990,400990,401472,92
91,test,1,con,1,m,Wed Apr 16 2025 17:12:26 GMT-0500 (Central Daylight Time),409687.40000003576,lead,900,I,m,m,None,460,261.0,199.0,122,1,1896.300000011921,407791.10000002384,7131,lead,NF,C,403122,403123,401492,402406,401494,403389,402923,402923,403388,93
92,test,1,con,1,z,Wed Apr 16 2025 17:12:26 GMT-0500 (Central Daylight Time),411636.8000000119,plum,1000,I,z,z,None,388,189.0,199.0,59,1,1929.3999999761581,409707.40000003576,7131,plum,NF,C,405138,405139,403408,404422,403410,405338,404939,404939,405338,94
93,test,1,inc,1,z,Wed Apr 16 2025 17:12:26 GMT-0500 (Central Daylight Time),413885.60000002384,cobalt,1100,I,z,z,None,596,397.0,199.0,32,1,2227.899999976158,411657.7000000477,7131,raisin,NF,C,407188,407188,405359,406472,405360,407587,406988,406988,407587,95
94,test,1,inc,1,m,Wed Apr 16 2025 17:12:26 GMT-0500 (Central Daylight Time),416036.10000002384,kiwi,1000,I,m,m,None,615,416.0,199.0,119,1,2135.899999976158,413900.2000000477,7131,zinc,NF,C,409320,409320,407601,408604,407602,409737,409121,409121,409737,96
94,test,1,inc,0,m,Wed Apr 16 2025 17:12:26 GMT-0500 (Central Daylight Time),418151.2000000477,pear,900,I,z,z,None,652,453.0,199.0,126,1,2095.800000011921,416055.40000003576,7131,lead,NF,C,411387,411387,409756,410670,409757,411852,411187,411187,411852,97
95,test,1,con,1,m,Wed Apr 16 2025 17:12:26 GMT-0500 (Central Daylight Time),420550.7000000477,zinc,1100,I,m,m,None,737,538.0,199.0,116,1,2379.2000000476837,418171.5,7131,zinc,NF,C,413702,413702,411873,412986,411874,414252,413503,413503,414252,98
96,test,1,inc,1,m,Wed Apr 16 2025 17:12:26 GMT-0500 (Central Daylight Time),422916.3000000119,plum,1100,I,m,m,None,715,516.0,199.0,112,1,2343.199999988079,420573.10000002384,7131,iron,NF,C,416100,416100,414274,415384,414277,416617,415901,415901,416617,99
97,test,1,inc,1,m,Wed Apr 16 2025 17:12:26 GMT-0500 (Central Daylight Time),424965.5,cherry,900,I,m,m,None,596,397.0,199.0,94,1,2029.5999999642372,422935.90000003576,7131,cobalt,NF,C,418267,418267,416637,417551,416640,418667,418068,418068,418667,100
98,test,1,con,1,z,Wed Apr 16 2025 17:12:26 GMT-0500 (Central Daylight Time),427031.8000000119,cherry,900,I,z,z,None,618,403.0,215.0,10,1,2053.399999976158,424978.40000003576,7131,cherry,NF,C,420317,420317,418679,419584,418681,420733,420101,420101,420733,101
99,test,1,inc,1,z,Wed Apr 16 2025 17:12:26 GMT-0500 (Central Daylight Time),429081.0,bronze,800,I,z,z,None,683,468.0,215.0,29,1,2028.199999988079,427052.8000000119,7131,raisin,NF,C,422300,422300,420754,421567,420755,422782,422084,422084,422782,102
100,test,1,con,1,m,Wed Apr 16 2025 17:12:26 GMT-0500 (Central Daylight Time),431097.2000000477,bronze,1000,I,m,m,None,460,261.0,199.0,67,1,1995.9000000357628,429101.3000000119,7131,bronze,NF,C,424531,424531,422802,423816,422804,424798,424332,424332,424798,103
101,test,1,inc,1,m,Wed Apr 16 2025 17:12:26 GMT-0500 (Central Daylight Time),433162.3000000119,banana,800,I,m,m,None,715,516.0,199.0,93,1,2046.300000011921,431116.0,7131,cobalt,NF,C,426347,426347,424817,425631,424818,426863,426148,426148,426863,104
102,test,1,inc,1,m,Wed Apr 16 2025 17:12:26 GMT-0500 (Central Daylight Time),435179.90000003576,lime,800,I,m,m,None,682,483.0,199.0,117,1,2010.5,433169.40000003576,7131,zinc,NF,C,428397,428397,426870,427681,426871,428881,428198,428198,428881,105
103,test,1,con,1,z,Wed Apr 16 2025 17:12:26 GMT-0500 (Central Daylight Time),437477.7000000477,lime,1100,I,z,z,None,645,445.0,200.0,36,1,2279.600000023842,435198.10000002384,7131,lime,NF,C,430730,430730,428899,430014,428900,431179,430529,430529,431179,106
104,test,1,inc,1,z,Wed Apr 16 2025 17:12:26 GMT-0500 (Central Daylight Time),439644.2000000477,zinc,1000,I,z,z,None,622,423.0,199.0,47,1,2155.7000000476837,437488.5,7131,pear,NF,C,432913,432913,431189,432196,431191,433345,432713,432713,433345,107
105,test,1,inc,1,z,Wed Apr 16 2025 17:12:26 GMT-0500 (Central Daylight Time),441593.8000000119,gold,800,I,z,z,None,592,393.0,199.0,61,1,1929.699999988079,439664.10000002384,7131,plum,NF,C,434895,434895,433365,434178,433367,435295,434696,434696,435295,108
106,test,1,con,1,z,Wed Apr 16 2025 17:12:26 GMT-0500 (Central Daylight Time),443443.10000002384,orange,800,I,z,z,None,482,283.0,199.0,17,1,1828.3999999761581,441614.7000000477,7131,orange,NF,C,436845,436845,435316,436128,435317,437144,436645,436645,437144,109
107,test,1,con,1,m,Wed Apr 16 2025 17:12:26 GMT-0500 (Central Daylight Time),445409.2000000477,lead,800,I,m,m,None,608,393.0,215.0,121,1,1944.5,443464.7000000477,7131,lead,NF,C,438711,438711,437166,437978,437168,439110,438495,438495,439110,110
108,test,1,inc,1,z,Wed Apr 16 2025 17:12:26 GMT-0500 (Central Daylight Time),447358.2000000477,bronze,800,I,z,z,None,595,396.0,199.0,21,1,1931.1000000238419,445427.10000002384,7131,orange,NF,C,440660,440660,439128,439944,439129,441059,440461,440461,441059,111
109,test,1,con,1,z,Wed Apr 16 2025 17:12:26 GMT-0500 (Central Daylight Time),449574.40000003576,orange,1100,I,z,z,None,562,363.0,199.0,20,1,2198.100000023842,447376.3000000119,7131,orange,NF,C,442909,442909,441077,442193,441078,443275,442710,442710,443275,112
110,test,1,inc,1,z,Wed Apr 16 2025 17:12:26 GMT-0500 (Central Daylight Time),451507.7000000477,gold,800,I,z,z,None,582,383.0,199.0,53,1,1912.800000011921,449594.90000003576,7131,kiwi,NF,C,444825,444825,443296,444109,443297,445209,444626,444626,445209,113
111,test,1,inc,1,m,Wed Apr 16 2025 17:12:26 GMT-0500 (Central Daylight Time),453606.3000000119,cherry,900,I,m,m,None,636,421.0,215.0,78,1,2078.899999976158,451527.40000003576,7131,copper,NF,C,446875,446875,445228,446142,445230,447307,446659,446659,447307,114
112,test,1,inc,1,z,Wed Apr 16 2025 17:12:26 GMT-0500 (Central Daylight Time),455821.90000003576,cobalt,1100,I,z,z,None,561,362.0,199.0,24,1,2195.0,453626.90000003576,7131,orange,NF,C,449157,449157,447328,448441,447330,449523,448958,448958,449523,115
113,test,1,con,1,m,Wed Apr 16 2025 17:12:26 GMT-0500 (Central Daylight Time),458121.60000002384,copper,1000,I,m,m,None,758,559.0,199.0,75,1,2288.699999988079,455832.90000003576,7131,copper,NF,C,451256,451257,449534,450540,449535,451823,451057,451057,451823,116
114,test,1,inc,1,z,Wed Apr 16 2025 17:12:26 GMT-0500 (Central Daylight Time),460054.0,bronze,800,I,z,z,None,579,380.0,199.0,5,1,1911.0999999642372,458142.90000003576,7131,banana,NF,C,453372,453372,451844,452656,451846,453755,453173,453173,453755,117
115,test,1,con,1,z,Wed Apr 16 2025 17:12:26 GMT-0500 (Central Daylight Time),462187.8000000119,pear,900,I,z,z,None,681,466.0,215.0,42,1,2113.800000011921,460074.0,7131,pear,NF,C,455422,455422,453775,454689,453777,455889,455206,455206,455889,118
116,test,1,con,1,z,Wed Apr 16 2025 17:12:26 GMT-0500 (Central Daylight Time),464119.60000002384,plum,900,I,z,z,None,477,278.0,199.0,58,1,1911.6000000238419,462208.0,7131,plum,NF,C,457538,457538,455909,456822,455911,457821,457338,457338,457821,119
117,test,1,con,1,m,Wed Apr 16 2025 17:12:26 GMT-0500 (Central Daylight Time),466285.5,lead,1000,I,m,m,None,605,406.0,199.0,123,1,2145.0,464140.5,7131,lead,NF,C,459570,459570,457841,458854,457843,459987,459371,459371,459987,120
118,test,1,inc,1,m,Wed Apr 16 2025 17:12:26 GMT-0500 (Central Daylight Time),468501.60000002384,raisin,1100,I,m,m,None,555,356.0,199.0,80,1,2195.399999976158,466306.2000000477,7131,copper,NF,C,461836,461836,460007,461120,460008,462203,461637,461637,462203,121
119,test,1,inc,1,m,Wed Apr 16 2025 17:12:26 GMT-0500 (Central Daylight Time),470534.2000000477,pear,900,I,m,m,None,571,372.0,199.0,118,1,2012.5,468521.7000000477,7131,zinc,NF,C,463852,463852,462223,463136,462225,464235,463653,463653,464235,122
120,test,1,inc,1,m,Wed Apr 16 2025 17:12:26 GMT-0500 (Central Daylight Time),472483.8000000119,banana,800,I,m,m,None,598,399.0,199.0,69,1,1929.300000011921,470554.5,7131,bronze,NF,C,465785,465785,464256,465069,464257,466185,465585,465585,466185,123
121,test,1,con,1,m,Wed Apr 16 2025 17:12:26 GMT-0500 (Central Daylight Time),474500.3000000119,bronze,900,I,m,m,None,565,366.0,199.0,66,1,1995.300000011921,472505.0,7131,bronze,NF,C,467835,467835,466206,467118,466208,468201,467635,467635,468201,124
122,test,1,con,1,m,Wed Apr 16 2025 17:12:26 GMT-0500 (Central Daylight Time),476265.60000002384,bronze,800,I,m,m,None,408,209.0,199.0,65,1,1745.800000011921,474519.8000000119,7131,bronze,NF,C,469750,469751,468221,469034,468222,469967,469551,469551,469967,125
123,test,1,inc,1,m,Wed Apr 16 2025 17:12:26 GMT-0500 (Central Daylight Time),478281.8000000119,orange,1000,I,m,m,None,450,251.0,199.0,71,1,1996.5999999642372,476285.2000000477,7131,bronze,NF,C,471717,471717,469986,471000,469988,471983,471517,471517,471983,126
124,test,1,inc,1,m,Wed Apr 16 2025 17:12:26 GMT-0500 (Central Daylight Time),480531.0,pear,900,I,m,m,None,790,591.0,199.0,102,1,2228.7999999523163,478302.2000000477,7131,gold,NF,C,473632,473633,472003,472916,472005,474232,473433,473433,474232,127
125,test,1,inc,1,m,Wed Apr 16 2025 17:12:26 GMT-0500 (Central Daylight Time),482813.3000000119,plum,1100,I,m,m,None,629,430.0,199.0,104,1,2261.599999964237,480551.7000000477,7131,gold,NF,C,476082,476082,474253,475366,474254,476514,475882,475882,476514,128
