block_c,block_dur,condition,countdown,datetime,endtime,list,multichar_response,project,response,response_time,session_number,start_end,starttime,subject_id,task,task_vers,trial
,,,,Tue Jan 28 2025 18:40:38 GMT-0600 (Central Standard Time),,,,I,space,764,1,,,8021,WL,C,
prac,,0,,Tue Jan 28 2025 18:40:38 GMT-0600 (Central Standard Time),,NA,b,I,b,10365,1,,,8021,WL,C,1.0
prac,,0,,Tue Jan 28 2025 18:40:38 GMT-0600 (Central Standard Time),,NA,bo,I,o,500,1,,,8021,WL,C,1.0
prac,,0,,Tue Jan 28 2025 18:40:38 GMT-0600 (Central Standard Time),,NA,boo,I,o,136,1,,,8021,WL,C,1.0
prac,,0,,Tue Jan 28 2025 18:40:38 GMT-0600 (Central Standard Time),,NA,boos,I,s,138,1,,,8021,WL,C,1.0
prac,,0,,Tue Jan 28 2025 18:40:38 GMT-0600 (Central Standard Time),,NA,boost,I,t,165,1,,,8021,WL,C,1.0
prac,,0,,Tue Jan 28 2025 18:40:38 GMT-0600 (Central Standard Time),,NA,boostenter,I,enter,11245,1,,,8021,WL,C,1.0
1,1.2339999675750732,learn,58766.00003242493,Tue Jan 28 2025 18:40:38 GMT-0600 (Central Standard Time),213130.0,A,b,I,b,1217,1,1232.7000000001863,211897.2999999998,8021,WL,C,1.0
1,1.3840000629425049,learn,58615.999937057495,Tue Jan 28 2025 18:40:38 GMT-0600 (Central Standard Time),213280.0,A,bo,I,o,134,1,1382.7000000001863,211897.2999999998,8021,WL,C,1.0
1,2.0,learn,58000.0,Tue Jan 28 2025 18:40:38 GMT-0600 (Central Standard Time),213896.2999999998,A,bod,I,d,601,1,1999.0,211897.2999999998,8021,WL,C,1.0
1,2.5169999599456787,learn,57483.00004005432,Tue Jan 28 2025 18:40:38 GMT-0600 (Central Standard Time),214412.90000000037,A,body,I,y,506,1,2515.600000000559,211897.2999999998,8021,WL,C,1.0
1,3.2780001163482666,learn,56721.99988365173,Tue Jan 28 2025 18:40:38 GMT-0600 (Central Standard Time),215174.2000000002,A,bodyenter,I,enter,753,1,3276.9000000003725,211897.2999999998,8021,WL,C,1.0
1,3.7990000247955322,learn,56200.99997520447,Tue Jan 28 2025 18:40:38 GMT-0600 (Central Standard Time),215695.60000000056,A,b,I,b,501,1,521.0,215174.60000000056,8021,WL,C,2.0
1,4.216000080108643,learn,55783.99991989136,Tue Jan 28 2025 18:40:38 GMT-0600 (Central Standard Time),216112.2999999998,A,bo,I,o,402,1,937.6999999992549,215174.60000000056,8021,WL,C,2.0
1,4.565999984741211,learn,55434.00001525879,Tue Jan 28 2025 18:40:38 GMT-0600 (Central Standard Time),216462.2000000002,A,boy,I,y,338,1,1287.5999999996275,215174.60000000056,8021,WL,C,2.0
1,5.999000072479248,learn,54000.99992752075,Tue Jan 28 2025 18:40:38 GMT-0600 (Central Standard Time),217895.10000000056,A,boyenter,I,enter,1419,1,2720.5,215174.60000000056,8021,WL,C,2.0
1,7.0320000648498535,learn,52967.99993515015,Tue Jan 28 2025 18:40:38 GMT-0600 (Central Standard Time),218928.40000000037,A,t,I,t,1011,1,1032.7999999998137,217895.60000000056,8021,WL,C,3.0
1,7.2820000648498535,learn,52717.99993515015,Tue Jan 28 2025 18:40:38 GMT-0600 (Central Standard Time),219178.0,A,to,I,o,233,1,1282.3999999994412,217895.60000000056,8021,WL,C,3.0
1,7.5320000648498535,learn,52467.99993515015,Tue Jan 28 2025 18:40:38 GMT-0600 (Central Standard Time),219428.10000000056,A,tow,I,w,232,1,1532.5,217895.60000000056,8021,WL,C,3.0
1,7.697999954223633,learn,52302.00004577637,Tue Jan 28 2025 18:40:38 GMT-0600 (Central Standard Time),219594.2999999998,A,towe,I,e,158,1,1698.699999999255,217895.60000000056,8021,WL,C,3.0
1,7.7820000648498535,learn,52217.99993515015,Tue Jan 28 2025 18:40:38 GMT-0600 (Central Standard Time),219678.0,A,tower,I,r,73,1,1782.3999999994412,217895.60000000056,8021,WL,C,3.0
1,8.514000177383423,learn,51485.99982261658,Tue Jan 28 2025 18:40:38 GMT-0600 (Central Standard Time),220410.7999999998,A,towerenter,I,enter,724,1,2515.199999999255,217895.60000000056,8021,WL,C,3.0
1,8.88100004196167,learn,51118.99995803833,Tue Jan 28 2025 18:40:38 GMT-0600 (Central Standard Time),220777.7000000002,A,w,I,w,343,1,366.59999999962747,220411.10000000056,8021,WL,C,4.0
1,9.148000001907349,learn,50851.99999809265,Tue Jan 28 2025 18:40:38 GMT-0600 (Central Standard Time),221044.2000000002,A,wh,I,h,248,1,633.0999999996275,220411.10000000056,8021,WL,C,4.0
1,9.348000049591064,learn,50651.999950408936,Tue Jan 28 2025 18:40:38 GMT-0600 (Central Standard Time),221244.10000000056,A,whe,I,e,180,1,833.0,220411.10000000056,8021,WL,C,4.0
1,9.430999994277954,learn,50569.000005722046,Tue Jan 28 2025 18:40:38 GMT-0600 (Central Standard Time),221327.5,A,wher,I,r,62,1,916.3999999994412,220411.10000000056,8021,WL,C,4.0
1,10.94700002670288,learn,49052.99997329712,Tue Jan 28 2025 18:40:38 GMT-0600 (Central Standard Time),222843.7000000002,A,whe,I,backspace,1507,1,2432.5999999996275,220411.10000000056,8021,WL,C,4.0
1,11.231000185012817,learn,48768.99981498718,Tue Jan 28 2025 18:40:38 GMT-0600 (Central Standard Time),223127.0,A,whea,I,a,263,1,2715.899999999441,220411.10000000056,8021,WL,C,4.0
1,11.44700002670288,learn,48552.99997329712,Tue Jan 28 2025 18:40:38 GMT-0600 (Central Standard Time),223343.40000000037,A,wheat,I,t,203,1,2932.2999999998137,220411.10000000056,8021,WL,C,4.0
1,12.580000162124634,learn,47419.999837875366,Tue Jan 28 2025 18:40:38 GMT-0600 (Central Standard Time),224476.2999999998,A,wheatenter,I,enter,1116,1,4065.199999999255,220411.10000000056,8021,WL,C,4.0
1,13.02999997138977,learn,46970.00002861023,Tue Jan 28 2025 18:40:38 GMT-0600 (Central Standard Time),224926.2000000002,A,c,I,c,430,1,449.5,224476.7000000002,8021,WL,C,5.0
1,13.345999956130981,learn,46654.00004386902,Tue Jan 28 2025 18:40:38 GMT-0600 (Central Standard Time),225242.60000000056,A,co,I,o,307,1,765.9000000003725,224476.7000000002,8021,WL,C,5.0
1,13.562999963760376,learn,46437.000036239624,Tue Jan 28 2025 18:40:38 GMT-0600 (Central Standard Time),225459.60000000056,A,cor,I,r,199,1,982.9000000003725,224476.7000000002,8021,WL,C,5.0
1,13.930000066757202,learn,46069.9999332428,Tue Jan 28 2025 18:40:38 GMT-0600 (Central Standard Time),225826.0,A,corn,I,n,351,1,1349.2999999998137,224476.7000000002,8021,WL,C,5.0
1,14.86300015449524,learn,45136.99984550476,Tue Jan 28 2025 18:40:38 GMT-0600 (Central Standard Time),226759.2000000002,A,cornenter,I,enter,920,1,2282.5,224476.7000000002,8021,WL,C,5.0
1,15.345999956130981,learn,44654.00004386902,Tue Jan 28 2025 18:40:38 GMT-0600 (Central Standard Time),227242.10000000056,A,c,I,c,458,1,482.5,226759.60000000056,8021,WL,C,6.0
1,15.595999956130981,learn,44404.00004386902,Tue Jan 28 2025 18:40:38 GMT-0600 (Central Standard Time),227492.10000000056,A,ca,I,a,231,1,732.5,226759.60000000056,8021,WL,C,6.0
1,16.361999988555908,learn,43638.00001144409,Tue Jan 28 2025 18:40:38 GMT-0600 (Central Standard Time),228258.5,A,cat,I,t,742,1,1498.8999999994412,226759.60000000056,8021,WL,C,6.0
1,16.51200008392334,learn,43487.99991607666,Tue Jan 28 2025 18:40:38 GMT-0600 (Central Standard Time),228408.60000000056,A,catt,I,t,128,1,1649.0,226759.60000000056,8021,WL,C,6.0
1,16.76200008392334,learn,43237.99991607666,Tue Jan 28 2025 18:40:38 GMT-0600 (Central Standard Time),228658.5,A,cattl,I,l,234,1,1898.8999999994412,226759.60000000056,8021,WL,C,6.0
1,17.01200008392334,learn,42987.99991607666,Tue Jan 28 2025 18:40:38 GMT-0600 (Central Standard Time),228908.2999999998,A,cattle,I,e,240,1,2148.699999999255,226759.60000000056,8021,WL,C,6.0
1,17.91200017929077,learn,42087.99982070923,Tue Jan 28 2025 18:40:38 GMT-0600 (Central Standard Time),229807.90000000037,A,cattleenter,I,enter,885,1,3048.2999999998137,226759.60000000056,8021,WL,C,6.0
1,25.842000007629395,learn,34157.999992370605,Tue Jan 28 2025 18:40:38 GMT-0600 (Central Standard Time),237738.7999999998,A,t,I,t,7922,1,7930.5,229808.2999999998,8021,WL,C,7.0
1,26.026000022888184,learn,33973.99997711182,Tue Jan 28 2025 18:40:38 GMT-0600 (Central Standard Time),237922.2000000002,A,to,I,o,174,1,8113.9000000003725,229808.2999999998,8021,WL,C,7.0
1,26.20900011062622,learn,33790.99988937378,Tue Jan 28 2025 18:40:38 GMT-0600 (Central Standard Time),238105.40000000037,A,tow,I,w,168,1,8297.100000000559,229808.2999999998,8021,WL,C,7.0
1,26.424999952316284,learn,33575.000047683716,Tue Jan 28 2025 18:40:38 GMT-0600 (Central Standard Time),238322.0,A,towe,I,e,210,1,8513.700000000186,229808.2999999998,8021,WL,C,7.0
1,26.52500009536743,learn,33474.99990463257,Tue Jan 28 2025 18:40:38 GMT-0600 (Central Standard Time),238422.10000000056,A,tower,I,r,88,1,8613.800000000745,229808.2999999998,8021,WL,C,7.0
1,27.39199995994568,learn,32608.00004005432,Tue Jan 28 2025 18:40:38 GMT-0600 (Central Standard Time),239288.5,A,towerenter,I,enter,844,1,9480.200000000186,229808.2999999998,8021,WL,C,7.0
1,31.492000102996826,learn,28507.999897003174,Tue Jan 28 2025 18:40:38 GMT-0600 (Central Standard Time),243388.2000000002,A,enter,I,enter,4082,1,4099.299999999814,239288.90000000037,8021,WL,C,8.0
1,34.42300009727478,learn,25576.99990272522,Tue Jan 28 2025 18:40:38 GMT-0600 (Central Standard Time),246319.60000000056,A,enter,I,enter,2910,1,2930.9000000003725,243388.7000000002,8021,WL,C,9.0
1,34.67300009727478,learn,25326.99990272522,Tue Jan 28 2025 18:40:38 GMT-0600 (Central Standard Time),246569.60000000056,A,enter,I,enter,226,1,249.40000000037253,246320.2000000002,8021,WL,C,10.0
1,34.88900017738342,learn,25110.999822616577,Tue Jan 28 2025 18:40:38 GMT-0600 (Central Standard Time),246786.0,A,enter,I,enter,193,1,216.0,246570.0,8021,WL,C,11.0
1,35.08899998664856,learn,24911.00001335144,Tue Jan 28 2025 18:40:38 GMT-0600 (Central Standard Time),246986.0,A,enter,I,enter,177,1,199.70000000018626,246786.2999999998,8021,WL,C,12.0
1,35.307000160217285,learn,24692.999839782715,Tue Jan 28 2025 18:40:38 GMT-0600 (Central Standard Time),247203.7999999998,A,enter,I,enter,209,1,217.3999999994412,246986.40000000037,8021,WL,C,13.0
1,36.18900012969971,learn,23810.999870300293,Tue Jan 28 2025 18:40:38 GMT-0600 (Central Standard Time),248085.7000000002,A,enter,I,enter,871,1,881.5,247204.2000000002,8021,WL,C,14.0
1,37.50500011444092,learn,22494.999885559082,Tue Jan 28 2025 18:40:38 GMT-0600 (Central Standard Time),249402.0,A,enter,I,enter,1309,1,1316.0,248086.0,8021,WL,C,15.0
2,1.6159999370574951,learn,58384.000062942505,Tue Jan 28 2025 18:40:38 GMT-0600 (Central Standard Time),327010.7999999998,A,t,I,t,1599,1,1615.7999999998137,325395.0,8021,WL,C,1.0
2,1.7990000247955322,learn,58200.99997520447,Tue Jan 28 2025 18:40:38 GMT-0600 (Central Standard Time),327194.0,A,to,I,o,159,1,1799.0,325395.0,8021,WL,C,1.0
2,1.9830000400543213,learn,58016.99995994568,Tue Jan 28 2025 18:40:38 GMT-0600 (Central Standard Time),327377.2999999998,A,tow,I,w,168,1,1982.2999999998137,325395.0,8021,WL,C,1.0
2,2.248999834060669,learn,57751.00016593933,Tue Jan 28 2025 18:40:38 GMT-0600 (Central Standard Time),327643.7999999998,A,towe,I,e,247,1,2248.7999999998137,325395.0,8021,WL,C,1.0
2,2.365999937057495,learn,57634.000062942505,Tue Jan 28 2025 18:40:38 GMT-0600 (Central Standard Time),327760.5,A,tower,I,r,101,1,2365.5,325395.0,8021,WL,C,1.0
2,3.2990000247955322,learn,56700.99997520447,Tue Jan 28 2025 18:40:38 GMT-0600 (Central Standard Time),328693.7000000002,A,towerenter,I,enter,921,1,3298.7000000001863,325395.0,8021,WL,C,1.0
2,3.9489998817443848,learn,56051.000118255615,Tue Jan 28 2025 18:40:38 GMT-0600 (Central Standard Time),329343.2999999998,A,w,I,w,627,1,649.1999999992549,328694.10000000056,8021,WL,C,2.0
2,4.148999929428101,learn,55851.0000705719,Tue Jan 28 2025 18:40:38 GMT-0600 (Central Standard Time),329543.5,A,wh,I,h,187,1,849.3999999994412,328694.10000000056,8021,WL,C,2.0
2,4.299000024795532,learn,55700.99997520447,Tue Jan 28 2025 18:40:38 GMT-0600 (Central Standard Time),329693.2000000002,A,whe,I,e,137,1,999.0999999996275,328694.10000000056,8021,WL,C,2.0
2,4.865000009536743,learn,55134.99999046326,Tue Jan 28 2025 18:40:38 GMT-0600 (Central Standard Time),330259.7000000002,A,whea,I,a,548,1,1565.5999999996275,328694.10000000056,8021,WL,C,2.0
2,5.082000017166138,learn,54917.99998283386,Tue Jan 28 2025 18:40:38 GMT-0600 (Central Standard Time),330476.2999999998,A,wheat,I,t,207,1,1782.199999999255,328694.10000000056,8021,WL,C,2.0
2,5.880999803543091,learn,54119.00019645691,Tue Jan 28 2025 18:40:38 GMT-0600 (Central Standard Time),331276.10000000056,A,wheatenter,I,enter,782,1,2582.0,328694.10000000056,8021,WL,C,2.0
2,6.497999906539917,learn,53502.00009346008,Tue Jan 28 2025 18:40:38 GMT-0600 (Central Standard Time),331892.60000000056,A,c,I,c,598,1,616.3000000007451,331276.2999999998,8021,WL,C,3.0
2,6.680999994277954,learn,53319.000005722046,Tue Jan 28 2025 18:40:38 GMT-0600 (Central Standard Time),332075.7000000002,A,co,I,o,172,1,799.4000000003725,331276.2999999998,8021,WL,C,3.0
2,6.880999803543091,learn,53119.00019645691,Tue Jan 28 2025 18:40:38 GMT-0600 (Central Standard Time),332275.7000000002,A,cor,I,r,183,1,999.4000000003725,331276.2999999998,8021,WL,C,3.0
2,7.080999851226807,learn,52919.00014877319,Tue Jan 28 2025 18:40:38 GMT-0600 (Central Standard Time),332475.60000000056,A,corn,I,n,190,1,1199.300000000745,331276.2999999998,8021,WL,C,3.0
2,7.730999946594238,learn,52269.00005340576,Tue Jan 28 2025 18:40:38 GMT-0600 (Central Standard Time),333125.5,A,cornenter,I,enter,639,1,1849.2000000001863,331276.2999999998,8021,WL,C,3.0
2,8.430999994277954,learn,51569.000005722046,Tue Jan 28 2025 18:40:38 GMT-0600 (Central Standard Time),333825.2999999998,A,d,I,d,677,1,699.5999999996275,333125.7000000002,8021,WL,C,4.0
2,8.580999851226807,learn,51419.00014877319,Tue Jan 28 2025 18:40:38 GMT-0600 (Central Standard Time),333975.2999999998,A,do,I,o,129,1,849.5999999996275,333125.7000000002,8021,WL,C,4.0
2,8.746999979019165,learn,51253.000020980835,Tue Jan 28 2025 18:40:38 GMT-0600 (Central Standard Time),334141.7000000002,A,doc,I,c,154,1,1016.0,333125.7000000002,8021,WL,C,4.0
2,8.980000019073486,learn,51019.999980926514,Tue Jan 28 2025 18:40:38 GMT-0600 (Central Standard Time),334375.10000000056,A,doct,I,t,212,1,1249.4000000003725,333125.7000000002,8021,WL,C,4.0
2,9.146999835968018,learn,50853.00016403198,Tue Jan 28 2025 18:40:38 GMT-0600 (Central Standard Time),334541.7000000002,A,docto,I,o,153,1,1416.0,333125.7000000002,8021,WL,C,4.0
2,9.346999883651733,learn,50653.00011634827,Tue Jan 28 2025 18:40:38 GMT-0600 (Central Standard Time),334741.7000000002,A,doctor,I,r,180,1,1616.0,333125.7000000002,8021,WL,C,4.0
2,9.813999891281128,learn,50186.00010871887,Tue Jan 28 2025 18:40:38 GMT-0600 (Central Standard Time),335208.2000000002,A,doctorenter,I,enter,452,1,2082.5,333125.7000000002,8021,WL,C,4.0
2,10.379999876022339,learn,49620.00012397766,Tue Jan 28 2025 18:40:38 GMT-0600 (Central Standard Time),335774.60000000056,A,b,I,b,554,1,566.0,335208.60000000056,8021,WL,C,5.0
2,10.52999997138977,learn,49470.00002861023,Tue Jan 28 2025 18:40:38 GMT-0600 (Central Standard Time),335924.60000000056,A,bo,I,o,132,1,716.0,335208.60000000056,8021,WL,C,5.0
2,10.746999979019165,learn,49253.000020980835,Tue Jan 28 2025 18:40:38 GMT-0600 (Central Standard Time),336141.2000000002,A,boy,I,y,196,1,932.5999999996275,335208.60000000056,8021,WL,C,5.0
2,11.395999908447266,learn,48604.000091552734,Tue Jan 28 2025 18:40:38 GMT-0600 (Central Standard Time),336791.0,A,boyenter,I,enter,628,1,1582.3999999994412,335208.60000000056,8021,WL,C,5.0
2,11.912999868392944,learn,48087.000131607056,Tue Jan 28 2025 18:40:38 GMT-0600 (Central Standard Time),337307.4000000004,A,c,I,c,498,1,516.1000000005588,336791.2999999998,8021,WL,C,6.0
2,12.095999956130981,learn,47904.00004386902,Tue Jan 28 2025 18:40:38 GMT-0600 (Central Standard Time),337490.7000000002,A,ca,I,a,166,1,699.4000000003725,336791.2999999998,8021,WL,C,6.0
2,12.27899980545044,learn,47721.00019454956,Tue Jan 28 2025 18:40:38 GMT-0600 (Central Standard Time),337674.10000000056,A,cal,I,l,167,1,882.8000000007451,336791.2999999998,8021,WL,C,6.0
2,12.44599986076355,learn,47554.00013923645,Tue Jan 28 2025 18:40:38 GMT-0600 (Central Standard Time),337840.7999999998,A,call,I,l,153,1,1049.5,336791.2999999998,8021,WL,C,6.0
2,13.01199984550476,learn,46988.00015449524,Tue Jan 28 2025 18:40:38 GMT-0600 (Central Standard Time),338407.10000000056,A,cal,I,backspace,552,1,1615.800000000745,336791.2999999998,8021,WL,C,6.0
2,13.228999853134155,learn,46771.000146865845,Tue Jan 28 2025 18:40:38 GMT-0600 (Central Standard Time),338623.7000000002,A,ca,I,backspace,193,1,1832.4000000003725,336791.2999999998,8021,WL,C,6.0
2,13.978999853134155,learn,46021.000146865845,Tue Jan 28 2025 18:40:38 GMT-0600 (Central Standard Time),339373.5,A,cat,I,t,730,1,2582.2000000001863,336791.2999999998,8021,WL,C,6.0
2,14.144999980926514,learn,45855.000019073486,Tue Jan 28 2025 18:40:38 GMT-0600 (Central Standard Time),339540.10000000056,A,catt,I,t,149,1,2748.800000000745,336791.2999999998,8021,WL,C,6.0
2,14.312000036239624,learn,45687.999963760376,Tue Jan 28 2025 18:40:38 GMT-0600 (Central Standard Time),339706.60000000056,A,cattl,I,l,158,1,2915.300000000745,336791.2999999998,8021,WL,C,6.0
2,14.478999853134155,learn,45521.000146865845,Tue Jan 28 2025 18:40:38 GMT-0600 (Central Standard Time),339873.4000000004,A,cattle,I,e,151,1,3082.100000000559,336791.2999999998,8021,WL,C,6.0
2,15.09500002861023,learn,44904.99997138977,Tue Jan 28 2025 18:40:38 GMT-0600 (Central Standard Time),340489.9000000004,A,cattleenter,I,enter,601,1,3698.600000000559,336791.2999999998,8021,WL,C,6.0
2,15.861999988555908,learn,44138.00001144409,Tue Jan 28 2025 18:40:38 GMT-0600 (Central Standard Time),341256.2000000002,A,h,I,h,752,1,766.0999999996275,340490.10000000056,8021,WL,C,7.0
2,15.994999885559082,learn,44005.00011444092,Tue Jan 28 2025 18:40:38 GMT-0600 (Central Standard Time),341389.60000000056,A,ho,I,o,121,1,899.5,340490.10000000056,8021,WL,C,7.0
2,16.194999933242798,learn,43805.0000667572,Tue Jan 28 2025 18:40:38 GMT-0600 (Central Standard Time),341589.5,A,hom,I,m,180,1,1099.3999999994412,340490.10000000056,8021,WL,C,7.0
2,16.32799983024597,learn,43672.00016975403,Tue Jan 28 2025 18:40:38 GMT-0600 (Central Standard Time),341722.7999999998,A,home,I,e,124,1,1232.699999999255,340490.10000000056,8021,WL,C,7.0
2,16.84500002861023,learn,43154.99997138977,Tue Jan 28 2025 18:40:38 GMT-0600 (Central Standard Time),342239.4000000004,A,homeenter,I,enter,504,1,1749.2999999998137,340490.10000000056,8021,WL,C,7.0
2,17.378999948501587,learn,42621.00005149841,Tue Jan 28 2025 18:40:38 GMT-0600 (Central Standard Time),342773.5,A,n,I,n,514,1,533.8999999994412,342239.60000000056,8021,WL,C,8.0
2,17.560999870300293,learn,42439.00012969971,Tue Jan 28 2025 18:40:38 GMT-0600 (Central Standard Time),342955.7000000002,A,na,I,a,164,1,716.0999999996275,342239.60000000056,8021,WL,C,8.0
2,18.360999822616577,learn,41639.00017738342,Tue Jan 28 2025 18:40:38 GMT-0600 (Central Standard Time),343755.4000000004,A,nai,I,i,790,1,1515.7999999998137,342239.60000000056,8021,WL,C,8.0
2,18.74399995803833,learn,41256.00004196167,Tue Jan 28 2025 18:40:38 GMT-0600 (Central Standard Time),344138.7000000002,A,nail,I,l,374,1,1899.0999999996275,342239.60000000056,8021,WL,C,8.0
2,19.16100001335144,learn,40838.99998664856,Tue Jan 28 2025 18:40:38 GMT-0600 (Central Standard Time),344555.2999999998,A,nailenter,I,enter,407,1,2315.699999999255,342239.60000000056,8021,WL,C,8.0
2,21.22599983215332,learn,38774.00016784668,Tue Jan 28 2025 18:40:38 GMT-0600 (Central Standard Time),346621.2000000002,A,q,I,q,2055,1,2065.7000000001863,344555.5,8021,WL,C,9.0
2,21.40999984741211,learn,38590.00015258789,Tue Jan 28 2025 18:40:38 GMT-0600 (Central Standard Time),346804.5,A,qu,I,u,172,1,2249.0,344555.5,8021,WL,C,9.0
2,21.65999984741211,learn,38340.00015258789,Tue Jan 28 2025 18:40:38 GMT-0600 (Central Standard Time),347054.4000000004,A,que,I,e,229,1,2498.9000000003725,344555.5,8021,WL,C,9.0
2,21.80999994277954,learn,38190.00005722046,Tue Jan 28 2025 18:40:38 GMT-0600 (Central Standard Time),347204.4000000004,A,quee,I,e,139,1,2648.9000000003725,344555.5,8021,WL,C,9.0
2,21.993000030517578,learn,38006.99996948242,Tue Jan 28 2025 18:40:38 GMT-0600 (Central Standard Time),347387.7999999998,A,queen,I,n,173,1,2832.2999999998137,344555.5,8021,WL,C,9.0
2,22.45899987220764,learn,37541.00012779236,Tue Jan 28 2025 18:40:38 GMT-0600 (Central Standard Time),347854.10000000056,A,queenenter,I,enter,445,1,3298.600000000559,344555.5,8021,WL,C,9.0
2,23.14299988746643,learn,36857.00011253357,Tue Jan 28 2025 18:40:38 GMT-0600 (Central Standard Time),348537.2999999998,A,s,I,s,659,1,682.8999999994412,347854.4000000004,8021,WL,C,10.0
2,23.292999982833862,learn,36707.00001716614,Tue Jan 28 2025 18:40:38 GMT-0600 (Central Standard Time),348687.2999999998,A,su,I,u,137,1,832.8999999994412,347854.4000000004,8021,WL,C,10.0
2,23.508999824523926,learn,36491.000175476074,Tue Jan 28 2025 18:40:38 GMT-0600 (Central Standard Time),348903.7999999998,A,sug,I,g,202,1,1049.3999999994412,347854.4000000004,8021,WL,C,10.0
2,23.692999839782715,learn,36307.000160217285,Tue Jan 28 2025 18:40:38 GMT-0600 (Central Standard Time),349087.2999999998,A,suga,I,a,162,1,1232.8999999994412,347854.4000000004,8021,WL,C,10.0
2,23.842999935150146,learn,36157.00006484985,Tue Jan 28 2025 18:40:38 GMT-0600 (Central Standard Time),349237.2999999998,A,sugar,I,r,141,1,1382.8999999994412,347854.4000000004,8021,WL,C,10.0
2,24.191999912261963,learn,35808.00008773804,Tue Jan 28 2025 18:40:38 GMT-0600 (Central Standard Time),349586.9000000004,A,sugarenter,I,enter,341,1,1732.5,347854.4000000004,8021,WL,C,10.0
2,28.391000032424927,learn,31608.999967575073,Tue Jan 28 2025 18:40:38 GMT-0600 (Central Standard Time),353785.7000000002,A,h,I,h,4191,1,4198.4000000003725,349587.2999999998,8021,WL,C,11.0
2,28.557999849319458,learn,31442.000150680542,Tue Jan 28 2025 18:40:38 GMT-0600 (Central Standard Time),353952.5,A,ho,I,o,151,1,4365.200000000186,349587.2999999998,8021,WL,C,11.0
2,28.757999897003174,learn,31242.000102996826,Tue Jan 28 2025 18:40:38 GMT-0600 (Central Standard Time),354152.4000000004,A,hom,I,m,176,1,4565.100000000559,349587.2999999998,8021,WL,C,11.0
2,28.891000032424927,learn,31108.999967575073,Tue Jan 28 2025 18:40:38 GMT-0600 (Central Standard Time),354285.7000000002,A,home,I,e,113,1,4698.4000000003725,349587.2999999998,8021,WL,C,11.0
2,29.240999937057495,learn,30759.000062942505,Tue Jan 28 2025 18:40:38 GMT-0600 (Central Standard Time),354635.7000000002,A,homeenter,I,enter,333,1,5048.4000000003725,349587.2999999998,8021,WL,C,11.0
2,34.75499987602234,learn,25245.00012397766,Tue Jan 28 2025 18:40:38 GMT-0600 (Central Standard Time),360150.7999999998,A,n,I,n,5495,1,5514.699999999255,354636.10000000056,8021,WL,C,12.0
2,34.954999923706055,learn,25045.000076293945,Tue Jan 28 2025 18:40:38 GMT-0600 (Central Standard Time),360350.5,A,na,I,a,179,1,5714.399999999441,354636.10000000056,8021,WL,C,12.0
2,35.05499982833862,learn,24945.000171661377,Tue Jan 28 2025 18:40:38 GMT-0600 (Central Standard Time),360450.2999999998,A,nai,I,i,92,1,5814.199999999255,354636.10000000056,8021,WL,C,12.0
2,35.23899984359741,learn,24761.000156402588,Tue Jan 28 2025 18:40:38 GMT-0600 (Central Standard Time),360634.60000000056,A,nail,I,l,169,1,5998.5,354636.10000000056,8021,WL,C,12.0
2,35.58799982070923,learn,24412.00017929077,Tue Jan 28 2025 18:40:38 GMT-0600 (Central Standard Time),360983.9000000004,A,nailenter,I,enter,337,1,6347.799999999814,354636.10000000056,8021,WL,C,12.0
2,38.269999980926514,learn,21730.000019073486,Tue Jan 28 2025 18:40:38 GMT-0600 (Central Standard Time),363666.10000000056,A,c,I,c,2668,1,2681.800000000745,360984.2999999998,8021,WL,C,13.0
2,40.3199999332428,learn,19680.000066757202,Tue Jan 28 2025 18:40:38 GMT-0600 (Central Standard Time),365715.60000000056,A,co,I,o,2033,1,4731.300000000745,360984.2999999998,8021,WL,C,13.0
2,40.53699994087219,learn,19463.000059127808,Tue Jan 28 2025 18:40:38 GMT-0600 (Central Standard Time),365933.10000000056,A,cor,I,r,207,1,4948.800000000745,360984.2999999998,8021,WL,C,13.0
2,40.80299997329712,learn,19197.00002670288,Tue Jan 28 2025 18:40:38 GMT-0600 (Central Standard Time),366198.60000000056,A,corn,I,n,244,1,5214.300000000745,360984.2999999998,8021,WL,C,13.0
2,41.20299983024597,learn,18797.00016975403,Tue Jan 28 2025 18:40:38 GMT-0600 (Central Standard Time),366598.7000000002,A,cornenter,I,enter,380,1,5614.4000000003725,360984.2999999998,8021,WL,C,13.0
2,44.319000005722046,learn,15680.999994277954,Tue Jan 28 2025 18:40:38 GMT-0600 (Central Standard Time),369714.2999999998,A,t,I,t,3108,1,3115.2999999998137,366599.0,8021,WL,C,14.0
2,44.51899981498718,learn,15481.000185012817,Tue Jan 28 2025 18:40:38 GMT-0600 (Central Standard Time),369914.2000000002,A,to,I,o,192,1,3315.2000000001863,366599.0,8021,WL,C,14.0
2,44.68499994277954,learn,15315.000057220459,Tue Jan 28 2025 18:40:38 GMT-0600 (Central Standard Time),370081.0,A,tow,I,w,143,1,3482.0,366599.0,8021,WL,C,14.0
2,44.901999950408936,learn,15098.000049591064,Tue Jan 28 2025 18:40:38 GMT-0600 (Central Standard Time),370297.4000000004,A,towe,I,e,202,1,3698.4000000003725,366599.0,8021,WL,C,14.0
2,44.95199990272522,learn,15048.00009727478,Tue Jan 28 2025 18:40:38 GMT-0600 (Central Standard Time),370347.2999999998,A,tower,I,r,33,1,3748.2999999998137,366599.0,8021,WL,C,14.0
2,45.35199999809265,learn,14648.000001907349,Tue Jan 28 2025 18:40:38 GMT-0600 (Central Standard Time),370747.2999999998,A,towerenter,I,enter,391,1,4148.299999999814,366599.0,8021,WL,C,14.0
2,51.93299984931946,learn,8067.000150680542,Tue Jan 28 2025 18:40:38 GMT-0600 (Central Standard Time),377328.7000000002,A,s,I,s,6559,1,6581.0999999996275,370747.60000000056,8021,WL,C,15.0
2,52.08200001716614,learn,7917.999982833862,Tue Jan 28 2025 18:40:38 GMT-0600 (Central Standard Time),377478.2000000002,A,su,I,u,137,1,6730.5999999996275,370747.60000000056,8021,WL,C,15.0
2,52.26600003242493,learn,7733.999967575073,Tue Jan 28 2025 18:40:38 GMT-0600 (Central Standard Time),377662.0,A,sug,I,g,172,1,6914.399999999441,370747.60000000056,8021,WL,C,15.0
2,52.39999985694885,learn,7600.0001430511475,Tue Jan 28 2025 18:40:38 GMT-0600 (Central Standard Time),377796.2000000002,A,suga,I,a,125,1,7048.5999999996275,370747.60000000056,8021,WL,C,15.0
2,52.56599998474121,learn,7434.000015258789,Tue Jan 28 2025 18:40:38 GMT-0600 (Central Standard Time),377961.7999999998,A,sugar,I,r,150,1,7214.199999999255,370747.60000000056,8021,WL,C,15.0
2,52.81599998474121,learn,7184.000015258789,Tue Jan 28 2025 18:40:38 GMT-0600 (Central Standard Time),378211.7999999998,A,sugarenter,I,enter,241,1,7464.199999999255,370747.60000000056,8021,WL,C,15.0
3,1.315999984741211,learn,58684.00001525879,Tue Jan 28 2025 18:40:38 GMT-0600 (Central Standard Time),447290.10000000056,A,t,I,t,1293,1,1316.2000000001863,445973.9000000004,8021,WL,C,1.0
3,1.5160000324249268,learn,58483.99996757507,Tue Jan 28 2025 18:40:38 GMT-0600 (Central Standard Time),447490.0,A,to,I,o,183,1,1516.0999999996275,445973.9000000004,8021,WL,C,1.0
3,1.7160000801086426,learn,58283.99991989136,Tue Jan 28 2025 18:40:38 GMT-0600 (Central Standard Time),447689.9000000004,A,tow,I,w,184,1,1716.0,445973.9000000004,8021,WL,C,1.0
3,1.9830000400543213,learn,58016.99995994568,Tue Jan 28 2025 18:40:38 GMT-0600 (Central Standard Time),447956.5,A,towe,I,e,257,1,1982.5999999996275,445973.9000000004,8021,WL,C,1.0
3,2.131999969482422,learn,57868.00003051758,Tue Jan 28 2025 18:40:38 GMT-0600 (Central Standard Time),448106.4000000004,A,tower,I,r,126,1,2132.5,445973.9000000004,8021,WL,C,1.0
3,2.815999984741211,learn,57184.00001525879,Tue Jan 28 2025 18:40:38 GMT-0600 (Central Standard Time),448789.7000000002,A,towerenter,I,enter,664,1,2815.7999999998137,445973.9000000004,8021,WL,C,1.0
3,3.315000057220459,learn,56684.99994277954,Tue Jan 28 2025 18:40:38 GMT-0600 (Central Standard Time),449289.4000000004,A,w,I,w,485,1,499.5,448789.9000000004,8021,WL,C,2.0
3,3.4820001125335693,learn,56517.99988746643,Tue Jan 28 2025 18:40:38 GMT-0600 (Central Standard Time),449455.7999999998,A,wh,I,h,152,1,665.8999999994412,448789.9000000004,8021,WL,C,2.0
3,3.681999921798706,learn,56318.000078201294,Tue Jan 28 2025 18:40:38 GMT-0600 (Central Standard Time),449656.10000000056,A,whe,I,e,179,1,866.2000000001863,448789.9000000004,8021,WL,C,2.0
3,4.015000104904175,learn,55984.999895095825,Tue Jan 28 2025 18:40:38 GMT-0600 (Central Standard Time),449989.4000000004,A,whea,I,a,314,1,1199.5,448789.9000000004,8021,WL,C,2.0
3,4.2149999141693115,learn,55785.00008583069,Tue Jan 28 2025 18:40:38 GMT-0600 (Central Standard Time),450189.10000000056,A,wheat,I,t,181,1,1399.2000000001863,448789.9000000004,8021,WL,C,2.0
3,5.398000001907349,learn,54601.99999809265,Tue Jan 28 2025 18:40:38 GMT-0600 (Central Standard Time),451372.10000000056,A,wheatenter,I,enter,1174,1,2582.2000000001863,448789.9000000004,8021,WL,C,2.0
3,5.997999906539917,learn,54002.00009346008,Tue Jan 28 2025 18:40:38 GMT-0600 (Central Standard Time),451972.0,A,h,I,h,582,1,599.5,451372.5,8021,WL,C,3.0
3,6.13100004196167,learn,53868.99995803833,Tue Jan 28 2025 18:40:38 GMT-0600 (Central Standard Time),452105.2999999998,A,ho,I,o,118,1,732.7999999998137,451372.5,8021,WL,C,3.0
3,6.331000089645386,learn,53668.999910354614,Tue Jan 28 2025 18:40:38 GMT-0600 (Central Standard Time),452305.2999999998,A,hom,I,m,177,1,932.7999999998137,451372.5,8021,WL,C,3.0
3,6.513999938964844,learn,53486.000061035156,Tue Jan 28 2025 18:40:38 GMT-0600 (Central Standard Time),452488.2999999998,A,home,I,e,161,1,1115.7999999998137,451372.5,8021,WL,C,3.0
3,7.246999979019165,learn,52753.000020980835,Tue Jan 28 2025 18:40:38 GMT-0600 (Central Standard Time),453221.4000000004,A,homeenter,I,enter,714,1,1848.9000000003725,451372.5,8021,WL,C,3.0
3,8.013999938964844,learn,51986.000061035156,Tue Jan 28 2025 18:40:38 GMT-0600 (Central Standard Time),453987.7999999998,A,s,I,s,749,1,766.0999999996275,453221.7000000002,8021,WL,C,4.0
3,8.21399998664856,learn,51786.00001335144,Tue Jan 28 2025 18:40:38 GMT-0600 (Central Standard Time),454188.10000000056,A,su,I,u,183,1,966.4000000003725,453221.7000000002,8021,WL,C,4.0
3,8.746999979019165,learn,51253.000020980835,Tue Jan 28 2025 18:40:38 GMT-0600 (Central Standard Time),454721.10000000056,A,sug,I,g,519,1,1499.4000000003725,453221.7000000002,8021,WL,C,4.0
3,8.947999954223633,learn,51052.00004577637,Tue Jan 28 2025 18:40:38 GMT-0600 (Central Standard Time),454922.10000000056,A,suga,I,a,186,1,1700.4000000003725,453221.7000000002,8021,WL,C,4.0
3,9.097000122070312,learn,50902.99987792969,Tue Jan 28 2025 18:40:38 GMT-0600 (Central Standard Time),455070.9000000004,A,sugar,I,r,129,1,1849.2000000001863,453221.7000000002,8021,WL,C,4.0
3,9.763000011444092,learn,50236.99998855591,Tue Jan 28 2025 18:40:38 GMT-0600 (Central Standard Time),455737.2999999998,A,sugarenter,I,enter,644,1,2515.5999999996275,453221.7000000002,8021,WL,C,4.0
3,10.196000099182129,learn,49803.99990081787,Tue Jan 28 2025 18:40:38 GMT-0600 (Central Standard Time),456170.5,A,q,I,q,425,1,432.8999999994412,455737.60000000056,8021,WL,C,5.0
3,10.395999908447266,learn,49604.000091552734,Tue Jan 28 2025 18:40:38 GMT-0600 (Central Standard Time),456370.2999999998,A,qu,I,u,192,1,632.6999999992549,455737.60000000056,8021,WL,C,5.0
3,10.61299991607666,learn,49387.00008392334,Tue Jan 28 2025 18:40:38 GMT-0600 (Central Standard Time),456587.2000000002,A,que,I,e,200,1,849.5999999996275,455737.60000000056,8021,WL,C,5.0
3,10.77999997138977,learn,49220.00002861023,Tue Jan 28 2025 18:40:38 GMT-0600 (Central Standard Time),456753.7000000002,A,quee,I,e,144,1,1016.0999999996275,455737.60000000056,8021,WL,C,5.0
3,11.046000003814697,learn,48953.9999961853,Tue Jan 28 2025 18:40:38 GMT-0600 (Central Standard Time),457020.2999999998,A,queen,I,n,257,1,1282.699999999255,455737.60000000056,8021,WL,C,5.0
3,11.496000051498413,learn,48503.99994850159,Tue Jan 28 2025 18:40:38 GMT-0600 (Central Standard Time),457470.2000000002,A,queenenter,I,enter,430,1,1732.5999999996275,455737.60000000056,8021,WL,C,5.0
3,12.095999956130981,learn,47904.00004386902,Tue Jan 28 2025 18:40:38 GMT-0600 (Central Standard Time),458069.7999999998,A,b,I,b,580,1,599.2999999998137,457470.5,8021,WL,C,6.0
3,12.230000019073486,learn,47769.999980926514,Tue Jan 28 2025 18:40:38 GMT-0600 (Central Standard Time),458203.60000000056,A,bo,I,o,116,1,733.1000000005588,457470.5,8021,WL,C,6.0
3,12.446000099182129,learn,47553.99990081787,Tue Jan 28 2025 18:40:38 GMT-0600 (Central Standard Time),458419.7999999998,A,boy,I,y,199,1,949.2999999998137,457470.5,8021,WL,C,6.0
3,13.111999988555908,learn,46888.00001144409,Tue Jan 28 2025 18:40:38 GMT-0600 (Central Standard Time),459086.2999999998,A,boyenter,I,enter,655,1,1615.7999999998137,457470.5,8021,WL,C,6.0
3,14.178999900817871,learn,45821.00009918213,Tue Jan 28 2025 18:40:38 GMT-0600 (Central Standard Time),460152.7000000002,A,c,I,c,1044,1,1066.0,459086.7000000002,8021,WL,C,7.0
3,14.394999980926514,learn,45605.000019073486,Tue Jan 28 2025 18:40:38 GMT-0600 (Central Standard Time),460369.10000000056,A,ca,I,a,202,1,1282.4000000003725,459086.7000000002,8021,WL,C,7.0
3,14.59500002861023,learn,45404.99997138977,Tue Jan 28 2025 18:40:38 GMT-0600 (Central Standard Time),460569.2000000002,A,cal,I,l,176,1,1482.5,459086.7000000002,8021,WL,C,7.0
3,15.446000099182129,learn,44553.99990081787,Tue Jan 28 2025 18:40:38 GMT-0600 (Central Standard Time),461420.0,A,ca,I,backspace,841,1,2333.2999999998137,459086.7000000002,8021,WL,C,7.0
3,16.01099991798401,learn,43989.00008201599,Tue Jan 28 2025 18:40:38 GMT-0600 (Central Standard Time),461985.4000000004,A,cat,I,t,550,1,2898.7000000001863,459086.7000000002,8021,WL,C,7.0
3,16.17799997329712,learn,43822.00002670288,Tue Jan 28 2025 18:40:38 GMT-0600 (Central Standard Time),462152.0,A,catt,I,t,145,1,3065.2999999998137,459086.7000000002,8021,WL,C,7.0
3,16.41100001335144,learn,43588.99998664856,Tue Jan 28 2025 18:40:38 GMT-0600 (Central Standard Time),462385.4000000004,A,cattl,I,l,210,1,3298.7000000001863,459086.7000000002,8021,WL,C,7.0
3,16.57800006866455,learn,43421.99993133545,Tue Jan 28 2025 18:40:38 GMT-0600 (Central Standard Time),462551.7999999998,A,cattle,I,e,153,1,3465.0999999996275,459086.7000000002,8021,WL,C,7.0
3,17.07800006866455,learn,42921.99993133545,Tue Jan 28 2025 18:40:38 GMT-0600 (Central Standard Time),463051.9000000004,A,cattleenter,I,enter,482,1,3965.2000000001863,459086.7000000002,8021,WL,C,7.0
3,18.16100001335144,learn,41838.99998664856,Tue Jan 28 2025 18:40:38 GMT-0600 (Central Standard Time),464134.7999999998,A,d,I,d,1062,1,1082.5999999996275,463052.2000000002,8021,WL,C,8.0
3,18.877000093460083,learn,41122.99990653992,Tue Jan 28 2025 18:40:38 GMT-0600 (Central Standard Time),464851.2999999998,A,do,I,o,700,1,1799.0999999996275,463052.2000000002,8021,WL,C,8.0
3,19.210000038146973,learn,40789.99996185303,Tue Jan 28 2025 18:40:38 GMT-0600 (Central Standard Time),465184.2000000002,A,doc,I,c,312,1,2132.0,463052.2000000002,8021,WL,C,8.0
3,19.460000038146973,learn,40539.99996185303,Tue Jan 28 2025 18:40:38 GMT-0600 (Central Standard Time),465434.2999999998,A,doct,I,t,226,1,2382.0999999996275,463052.2000000002,8021,WL,C,8.0
3,19.64400005340576,learn,40355.99994659424,Tue Jan 28 2025 18:40:38 GMT-0600 (Central Standard Time),465617.9000000004,A,docto,I,o,168,1,2565.7000000001863,463052.2000000002,8021,WL,C,8.0
3,19.80999994277954,learn,40190.00005722046,Tue Jan 28 2025 18:40:38 GMT-0600 (Central Standard Time),465784.2999999998,A,doctor,I,r,145,1,2732.0999999996275,463052.2000000002,8021,WL,C,8.0
3,20.259999990463257,learn,39740.00000953674,Tue Jan 28 2025 18:40:38 GMT-0600 (Central Standard Time),466234.2999999998,A,doctorenter,I,enter,442,1,3182.0999999996275,463052.2000000002,8021,WL,C,8.0
3,20.860000133514404,learn,39139.999866485596,Tue Jan 28 2025 18:40:38 GMT-0600 (Central Standard Time),466834.10000000056,A,n,I,n,585,1,599.5,466234.60000000056,8021,WL,C,9.0
3,21.05999994277954,learn,38940.00005722046,Tue Jan 28 2025 18:40:38 GMT-0600 (Central Standard Time),467033.9000000004,A,na,I,a,185,1,799.2999999998137,466234.60000000056,8021,WL,C,9.0
3,21.16000008583069,learn,38839.99991416931,Tue Jan 28 2025 18:40:38 GMT-0600 (Central Standard Time),467133.9000000004,A,nai,I,i,89,1,899.2999999998137,466234.60000000056,8021,WL,C,9.0
3,21.360000133514404,learn,38639.999866485596,Tue Jan 28 2025 18:40:38 GMT-0600 (Central Standard Time),467334.0,A,nail,I,l,182,1,1099.3999999994412,466234.60000000056,8021,WL,C,9.0
3,21.9760000705719,learn,38023.9999294281,Tue Jan 28 2025 18:40:38 GMT-0600 (Central Standard Time),467949.9000000004,A,nailenter,I,enter,605,1,1715.2999999998137,466234.60000000056,8021,WL,C,9.0
3,25.52500009536743,learn,34474.99990463257,Tue Jan 28 2025 18:40:38 GMT-0600 (Central Standard Time),471499.0,A,l,I,l,3541,1,3548.899999999441,467950.10000000056,8021,WL,C,10.0
3,25.691999912261963,learn,34308.00008773804,Tue Jan 28 2025 18:40:38 GMT-0600 (Central Standard Time),471665.60000000056,A,le,I,e,152,1,3715.5,467950.10000000056,8021,WL,C,10.0
3,25.907999992370605,learn,34092.000007629395,Tue Jan 28 2025 18:40:38 GMT-0600 (Central Standard Time),471882.2999999998,A,let,I,t,201,1,3932.199999999255,467950.10000000056,8021,WL,C,10.0
3,26.04200005531311,learn,33957.99994468689,Tue Jan 28 2025 18:40:38 GMT-0600 (Central Standard Time),472015.7000000002,A,lett,I,t,112,1,4065.5999999996275,467950.10000000056,8021,WL,C,10.0
3,26.242000102996826,learn,33757.999897003174,Tue Jan 28 2025 18:40:38 GMT-0600 (Central Standard Time),472215.7000000002,A,lette,I,e,179,1,4265.5999999996275,467950.10000000056,8021,WL,C,10.0
3,26.308000087738037,learn,33691.99991226196,Tue Jan 28 2025 18:40:38 GMT-0600 (Central Standard Time),472282.2000000002,A,letter,I,r,59,1,4332.0999999996275,467950.10000000056,8021,WL,C,10.0
3,26.674999952316284,learn,33325.000047683716,Tue Jan 28 2025 18:40:38 GMT-0600 (Central Standard Time),472648.9000000004,A,letterenter,I,enter,345,1,4698.799999999814,467950.10000000056,8021,WL,C,10.0
3,27.20799994468689,learn,32792.00005531311,Tue Jan 28 2025 18:40:38 GMT-0600 (Central Standard Time),473181.9000000004,A,f,I,f,522,1,532.7000000001863,472649.2000000002,8021,WL,C,11.0
3,27.44099998474121,learn,32559.00001525879,Tue Jan 28 2025 18:40:38 GMT-0600 (Central Standard Time),473415.2999999998,A,fl,I,l,213,1,766.0999999996275,472649.2000000002,8021,WL,C,11.0
3,27.758000135421753,learn,32241.999864578247,Tue Jan 28 2025 18:40:38 GMT-0600 (Central Standard Time),473731.9000000004,A,fla,I,a,307,1,1082.7000000001863,472649.2000000002,8021,WL,C,11.0
3,28.092000007629395,learn,31907.999992370605,Tue Jan 28 2025 18:40:38 GMT-0600 (Central Standard Time),474066.2000000002,A,flag,I,g,327,1,1417.0,472649.2000000002,8021,WL,C,11.0
3,28.641000032424927,learn,31358.999967575073,Tue Jan 28 2025 18:40:38 GMT-0600 (Central Standard Time),474614.9000000004,A,flagenter,I,enter,534,1,1965.7000000001863,472649.2000000002,8021,WL,C,11.0
3,29.758000135421753,learn,30241.999864578247,Tue Jan 28 2025 18:40:38 GMT-0600 (Central Standard Time),475732.2000000002,A,c,I,c,1108,1,1117.0,474615.2000000002,8021,WL,C,12.0
3,29.939000129699707,learn,30060.999870300293,Tue Jan 28 2025 18:40:38 GMT-0600 (Central Standard Time),475914.2999999998,A,ca,I,a,167,1,1299.0999999996275,474615.2000000002,8021,WL,C,12.0
3,30.08899998664856,learn,29911.00001335144,Tue Jan 28 2025 18:40:38 GMT-0600 (Central Standard Time),476064.2999999998,A,cam,I,m,137,1,1449.0999999996275,474615.2000000002,8021,WL,C,12.0
3,30.439000129699707,learn,29560.999870300293,Tue Jan 28 2025 18:40:38 GMT-0600 (Central Standard Time),476414.4000000004,A,camp,I,p,338,1,1799.2000000001863,474615.2000000002,8021,WL,C,12.0
3,31.07200002670288,learn,28927.99997329712,Tue Jan 28 2025 18:40:38 GMT-0600 (Central Standard Time),477047.2999999998,A,campenter,I,enter,612,1,2432.0999999996275,474615.2000000002,8021,WL,C,12.0
3,39.335999965667725,learn,20664.000034332275,Tue Jan 28 2025 18:40:38 GMT-0600 (Central Standard Time),485311.4000000004,A,c,I,c,8243,1,8263.799999999814,477047.60000000056,8021,WL,C,13.0
3,39.55299997329712,learn,20447.00002670288,Tue Jan 28 2025 18:40:38 GMT-0600 (Central Standard Time),485527.7999999998,A,co,I,o,195,1,8480.199999999255,477047.60000000056,8021,WL,C,13.0
3,39.70300006866455,learn,20296.99993133545,Tue Jan 28 2025 18:40:38 GMT-0600 (Central Standard Time),485678.10000000056,A,cor,I,r,131,1,8630.5,477047.60000000056,8021,WL,C,13.0
3,39.90300011634827,learn,20096.999883651733,Tue Jan 28 2025 18:40:38 GMT-0600 (Central Standard Time),485878.2000000002,A,corn,I,n,181,1,8830.599999999627,477047.60000000056,8021,WL,C,13.0
3,40.46900010108948,learn,19530.999898910522,Tue Jan 28 2025 18:40:38 GMT-0600 (Central Standard Time),486444.4000000004,A,cornenter,I,enter,548,1,9396.799999999814,477047.60000000056,8021,WL,C,13.0
3,46.967000007629395,learn,13032.999992370605,Tue Jan 28 2025 18:40:38 GMT-0600 (Central Standard Time),492942.4000000004,A,f,I,f,6486,1,6497.700000000186,486444.7000000002,8021,WL,C,14.0
3,47.16700005531311,learn,12832.99994468689,Tue Jan 28 2025 18:40:38 GMT-0600 (Central Standard Time),493142.2999999998,A,fl,I,l,180,1,6697.5999999996275,486444.7000000002,8021,WL,C,14.0
3,47.31699991226196,learn,12683.000087738037,Tue Jan 28 2025 18:40:38 GMT-0600 (Central Standard Time),493292.2000000002,A,fla,I,a,139,1,6847.5,486444.7000000002,8021,WL,C,14.0
3,47.75,learn,12250.0,Tue Jan 28 2025 18:40:38 GMT-0600 (Central Standard Time),493725.60000000056,A,flag,I,g,422,1,7280.9000000003725,486444.7000000002,8021,WL,C,14.0
3,48.34999990463257,learn,11650.000095367432,Tue Jan 28 2025 18:40:38 GMT-0600 (Central Standard Time),494325.2999999998,A,flagenter,I,enter,580,1,7880.5999999996275,486444.7000000002,8021,WL,C,14.0
3,53.83200001716614,learn,6167.999982833862,Tue Jan 28 2025 18:40:38 GMT-0600 (Central Standard Time),499806.7999999998,A,enter,I,enter,5469,1,5481.0999999996275,494325.7000000002,8021,WL,C,15.0
4,1.2000000476837158,learn,58799.999952316284,Tue Jan 28 2025 18:40:38 GMT-0600 (Central Standard Time),579915.2000000002,A,c,I,c,1183,1,1199.4000000003725,578715.7999999998,8021,WL,C,1.0
4,1.3659999370574951,learn,58634.000062942505,Tue Jan 28 2025 18:40:38 GMT-0600 (Central Standard Time),580081.9000000004,A,co,I,o,151,1,1366.1000000005588,578715.7999999998,8021,WL,C,1.0
4,1.5160000324249268,learn,58483.99996757507,Tue Jan 28 2025 18:40:38 GMT-0600 (Central Standard Time),580231.9000000004,A,cor,I,r,137,1,1516.1000000005588,578715.7999999998,8021,WL,C,1.0
4,1.7330000400543213,learn,58266.99995994568,Tue Jan 28 2025 18:40:38 GMT-0600 (Central Standard Time),580448.2999999998,A,corn,I,n,202,1,1732.5,578715.7999999998,8021,WL,C,1.0
4,2.4659998416900635,learn,57534.00015830994,Tue Jan 28 2025 18:40:38 GMT-0600 (Central Standard Time),581181.5,A,cornenter,I,enter,714,1,2465.7000000001863,578715.7999999998,8021,WL,C,1.0
4,3.0989999771118164,learn,56901.00002288818,Tue Jan 28 2025 18:40:38 GMT-0600 (Central Standard Time),581814.7999999998,A,n,I,n,621,1,632.8999999994412,581181.9000000004,8021,WL,C,2.0
4,3.248999834060669,learn,56751.00016593933,Tue Jan 28 2025 18:40:38 GMT-0600 (Central Standard Time),581964.6000000006,A,na,I,a,132,1,782.7000000001863,581181.9000000004,8021,WL,C,2.0
4,3.3489999771118164,learn,56651.00002288818,Tue Jan 28 2025 18:40:38 GMT-0600 (Central Standard Time),582064.6000000006,A,nai,I,i,77,1,882.7000000001863,581181.9000000004,8021,WL,C,2.0
4,3.5160000324249268,learn,56483.99996757507,Tue Jan 28 2025 18:40:38 GMT-0600 (Central Standard Time),582231.2000000002,A,nail,I,l,145,1,1049.2999999998137,581181.9000000004,8021,WL,C,2.0
4,4.264999866485596,learn,55735.000133514404,Tue Jan 28 2025 18:40:38 GMT-0600 (Central Standard Time),582981.0,A,nailenter,I,enter,739,1,1799.0999999996275,581181.9000000004,8021,WL,C,2.0
4,5.81499981880188,learn,54185.00018119812,Tue Jan 28 2025 18:40:38 GMT-0600 (Central Standard Time),584530.2999999998,A,c,I,c,1533,1,1549.0999999996275,582981.2000000002,8021,WL,C,3.0
4,5.997999906539917,learn,54002.00009346008,Tue Jan 28 2025 18:40:38 GMT-0600 (Central Standard Time),584713.9000000004,A,ca,I,a,168,1,1732.7000000001863,582981.2000000002,8021,WL,C,3.0
4,6.3480000495910645,learn,53651.999950408936,Tue Jan 28 2025 18:40:38 GMT-0600 (Central Standard Time),585063.7999999998,A,cat,I,t,337,1,2082.5999999996275,582981.2000000002,8021,WL,C,3.0
4,6.514999866485596,learn,53485.000133514404,Tue Jan 28 2025 18:40:38 GMT-0600 (Central Standard Time),585230.1000000006,A,catt,I,t,155,1,2248.9000000003725,582981.2000000002,8021,WL,C,3.0
4,6.664999961853027,learn,53335.00003814697,Tue Jan 28 2025 18:40:38 GMT-0600 (Central Standard Time),585380.2999999998,A,cattl,I,l,141,1,2399.0999999996275,582981.2000000002,8021,WL,C,3.0
4,6.8480000495910645,learn,53151.999950408936,Tue Jan 28 2025 18:40:38 GMT-0600 (Central Standard Time),585563.5,A,cattle,I,e,174,1,2582.2999999998137,582981.2000000002,8021,WL,C,3.0
4,7.497999906539917,learn,52502.00009346008,Tue Jan 28 2025 18:40:38 GMT-0600 (Central Standard Time),586213.4000000004,A,cattleenter,I,enter,639,1,3232.2000000001863,582981.2000000002,8021,WL,C,3.0
4,8.113999843597412,learn,51886.00015640259,Tue Jan 28 2025 18:40:38 GMT-0600 (Central Standard Time),586829.6000000006,A,s,I,s,604,1,615.8000000007451,586213.7999999998,8021,WL,C,4.0
4,8.414000034332275,learn,51585.999965667725,Tue Jan 28 2025 18:40:38 GMT-0600 (Central Standard Time),587129.6000000006,A,sh,I,h,277,1,915.8000000007451,586213.7999999998,8021,WL,C,4.0
4,8.598000049591064,learn,51401.999950408936,Tue Jan 28 2025 18:40:38 GMT-0600 (Central Standard Time),587313.9000000004,A,sho,I,o,161,1,1100.1000000005588,586213.7999999998,8021,WL,C,4.0
4,8.830999851226807,learn,51169.00014877319,Tue Jan 28 2025 18:40:38 GMT-0600 (Central Standard Time),587546.1000000006,A,shor,I,r,208,1,1332.300000000745,586213.7999999998,8021,WL,C,4.0
4,9.179999828338623,learn,50820.00017166138,Tue Jan 28 2025 18:40:38 GMT-0600 (Central Standard Time),587895.9000000004,A,shore,I,e,329,1,1682.1000000005588,586213.7999999998,8021,WL,C,4.0
4,9.88100004196167,learn,50118.99995803833,Tue Jan 28 2025 18:40:38 GMT-0600 (Central Standard Time),588596.1000000006,A,shoreenter,I,enter,682,1,2382.300000000745,586213.7999999998,8021,WL,C,4.0
4,10.929999828338623,learn,49070.00017166138,Tue Jan 28 2025 18:40:38 GMT-0600 (Central Standard Time),589645.5,A,b,I,b,1030,1,1049.0,588596.5,8021,WL,C,5.0
4,11.079999923706055,learn,48920.000076293945,Tue Jan 28 2025 18:40:38 GMT-0600 (Central Standard Time),589795.5,A,bo,I,o,141,1,1199.0,588596.5,8021,WL,C,5.0
4,11.379999876022339,learn,48620.00012397766,Tue Jan 28 2025 18:40:38 GMT-0600 (Central Standard Time),590095.2999999998,A,bod,I,d,279,1,1498.7999999998137,588596.5,8021,WL,C,5.0
4,11.579999923706055,learn,48420.000076293945,Tue Jan 28 2025 18:40:38 GMT-0600 (Central Standard Time),590295.1000000006,A,body,I,y,179,1,1698.6000000005588,588596.5,8021,WL,C,5.0
4,12.462999820709229,learn,47537.00017929077,Tue Jan 28 2025 18:40:38 GMT-0600 (Central Standard Time),591178.4000000004,A,bodyenter,I,enter,875,1,2581.9000000003725,588596.5,8021,WL,C,5.0
4,13.428999900817871,learn,46571.00009918213,Tue Jan 28 2025 18:40:38 GMT-0600 (Central Standard Time),592144.7999999998,A,t,I,t,945,1,966.0999999996275,591178.7000000002,8021,WL,C,6.0
4,13.595999956130981,learn,46404.00004386902,Tue Jan 28 2025 18:40:38 GMT-0600 (Central Standard Time),592311.2000000002,A,to,I,o,154,1,1132.5,591178.7000000002,8021,WL,C,6.0
4,13.746000051498413,learn,46253.99994850159,Tue Jan 28 2025 18:40:38 GMT-0600 (Central Standard Time),592461.2000000002,A,tow,I,w,139,1,1282.5,591178.7000000002,8021,WL,C,6.0
4,13.996000051498413,learn,46003.99994850159,Tue Jan 28 2025 18:40:38 GMT-0600 (Central Standard Time),592711.1000000006,A,towe,I,e,238,1,1532.4000000003725,591178.7000000002,8021,WL,C,6.0
4,14.078999996185303,learn,45921.0000038147,Tue Jan 28 2025 18:40:38 GMT-0600 (Central Standard Time),592794.2999999998,A,tower,I,r,75,1,1615.5999999996275,591178.7000000002,8021,WL,C,6.0
4,14.744999885559082,learn,45255.00011444092,Tue Jan 28 2025 18:40:38 GMT-0600 (Central Standard Time),593460.9000000004,A,towerenter,I,enter,648,1,2282.2000000001863,591178.7000000002,8021,WL,C,6.0
4,15.128000020980835,learn,44871.999979019165,Tue Jan 28 2025 18:40:38 GMT-0600 (Central Standard Time),593844.1000000006,A,w,I,w,374,1,382.90000000037253,593461.2000000002,8021,WL,C,7.0
4,15.378999948501587,learn,44621.00005149841,Tue Jan 28 2025 18:40:38 GMT-0600 (Central Standard Time),594094.1000000006,A,wh,I,h,231,1,632.9000000003725,593461.2000000002,8021,WL,C,7.0
4,15.527999877929688,learn,44472.00012207031,Tue Jan 28 2025 18:40:38 GMT-0600 (Central Standard Time),594244.1000000006,A,whe,I,e,141,1,782.9000000003725,593461.2000000002,8021,WL,C,7.0
4,16.144999980926514,learn,43855.000019073486,Tue Jan 28 2025 18:40:38 GMT-0600 (Central Standard Time),594860.7000000002,A,whea,I,a,606,1,1399.5,593461.2000000002,8021,WL,C,7.0
4,16.361999988555908,learn,43638.00001144409,Tue Jan 28 2025 18:40:38 GMT-0600 (Central Standard Time),595077.2000000002,A,wheat,I,t,206,1,1616.0,593461.2000000002,8021,WL,C,7.0
4,17.0939998626709,learn,42906.0001373291,Tue Jan 28 2025 18:40:38 GMT-0600 (Central Standard Time),595810.1000000006,A,wheatenter,I,enter,710,1,2348.9000000003725,593461.2000000002,8021,WL,C,7.0
4,18.15999984741211,learn,41840.00015258789,Tue Jan 28 2025 18:40:38 GMT-0600 (Central Standard Time),596876.7000000002,A,q,I,q,1057,1,1066.2999999998137,595810.4000000004,8021,WL,C,8.0
4,18.342999935150146,learn,41657.00006484985,Tue Jan 28 2025 18:40:38 GMT-0600 (Central Standard Time),597059.9000000004,A,qu,I,u,174,1,1249.5,595810.4000000004,8021,WL,C,8.0
4,18.575999975204468,learn,41424.00002479553,Tue Jan 28 2025 18:40:38 GMT-0600 (Central Standard Time),597293.0,A,que,I,e,215,1,1482.5999999996275,595810.4000000004,8021,WL,C,8.0
4,18.710999965667725,learn,41289.000034332275,Tue Jan 28 2025 18:40:38 GMT-0600 (Central Standard Time),597427.6000000006,A,quee,I,e,118,1,1617.2000000001863,595810.4000000004,8021,WL,C,8.0
4,18.89299988746643,learn,41107.00011253357,Tue Jan 28 2025 18:40:38 GMT-0600 (Central Standard Time),597609.7000000002,A,queen,I,n,167,1,1799.2999999998137,595810.4000000004,8021,WL,C,8.0
4,19.575999975204468,learn,40424.00002479553,Tue Jan 28 2025 18:40:38 GMT-0600 (Central Standard Time),598292.9000000004,A,queenenter,I,enter,673,1,2482.5,595810.4000000004,8021,WL,C,8.0
4,20.292999982833862,learn,39707.00001716614,Tue Jan 28 2025 18:40:38 GMT-0600 (Central Standard Time),599009.6000000006,A,s,I,s,694,1,716.4000000003725,598293.2000000002,8021,WL,C,9.0
4,20.441999912261963,learn,39558.00008773804,Tue Jan 28 2025 18:40:38 GMT-0600 (Central Standard Time),599159.2000000002,A,su,I,u,129,1,866.0,598293.2000000002,8021,WL,C,9.0
4,20.89199995994568,learn,39108.00004005432,Tue Jan 28 2025 18:40:38 GMT-0600 (Central Standard Time),599609.1000000006,A,sur,I,r,427,1,1315.9000000003725,598293.2000000002,8021,WL,C,9.0
4,21.108999967575073,learn,38891.00003242493,Tue Jan 28 2025 18:40:38 GMT-0600 (Central Standard Time),599825.6000000006,A,sura,I,a,202,1,1532.4000000003725,598293.2000000002,8021,WL,C,9.0
4,21.674999952316284,learn,38325.000047683716,Tue Jan 28 2025 18:40:38 GMT-0600 (Central Standard Time),600392.2000000002,A,sur,I,backspace,553,1,2099.0,598293.2000000002,8021,WL,C,9.0
4,21.858999967575073,learn,38141.00003242493,Tue Jan 28 2025 18:40:38 GMT-0600 (Central Standard Time),600575.5,A,su,I,backspace,163,1,2282.2999999998137,598293.2000000002,8021,WL,C,9.0
4,22.257999897003174,learn,37742.000102996826,Tue Jan 28 2025 18:40:38 GMT-0600 (Central Standard Time),600975.2999999998,A,sug,I,g,387,1,2682.0999999996275,598293.2000000002,8021,WL,C,9.0
4,22.491999864578247,learn,37508.00013542175,Tue Jan 28 2025 18:40:38 GMT-0600 (Central Standard Time),601208.5,A,suga,I,a,212,1,2915.2999999998137,598293.2000000002,8021,WL,C,9.0
4,22.64199995994568,learn,37358.00004005432,Tue Jan 28 2025 18:40:38 GMT-0600 (Central Standard Time),601358.6000000006,A,sugar,I,r,130,1,3065.4000000003725,598293.2000000002,8021,WL,C,9.0
4,23.307999849319458,learn,36692.00015068054,Tue Jan 28 2025 18:40:38 GMT-0600 (Central Standard Time),602025.0,A,sugarenter,I,enter,644,1,3731.7999999998137,598293.2000000002,8021,WL,C,9.0
4,23.840999841690063,learn,36159.00015830994,Tue Jan 28 2025 18:40:38 GMT-0600 (Central Standard Time),602558.2999999998,A,h,I,h,522,1,533.0999999996275,602025.2000000002,8021,WL,C,10.0
4,23.97499990463257,learn,36025.00009536743,Tue Jan 28 2025 18:40:38 GMT-0600 (Central Standard Time),602691.4000000004,A,ho,I,o,117,1,666.2000000001863,602025.2000000002,8021,WL,C,10.0
4,24.174000024795532,learn,35825.99997520447,Tue Jan 28 2025 18:40:38 GMT-0600 (Central Standard Time),602891.2999999998,A,hom,I,m,192,1,866.0999999996275,602025.2000000002,8021,WL,C,10.0
4,24.340999841690063,learn,35659.00015830994,Tue Jan 28 2025 18:40:38 GMT-0600 (Central Standard Time),603058.0,A,home,I,e,152,1,1032.7999999998137,602025.2000000002,8021,WL,C,10.0
4,24.740999937057495,learn,35259.000062942505,Tue Jan 28 2025 18:40:38 GMT-0600 (Central Standard Time),603457.7000000002,A,homeenter,I,enter,376,1,1432.5,602025.2000000002,8021,WL,C,10.0
4,25.556999921798706,learn,34443.000078201294,Tue Jan 28 2025 18:40:38 GMT-0600 (Central Standard Time),604274.4000000004,A,b,I,b,801,1,816.2999999998137,603458.1000000006,8021,WL,C,11.0
4,25.70799994468689,learn,34292.00005531311,Tue Jan 28 2025 18:40:38 GMT-0600 (Central Standard Time),604424.4000000004,A,bo,I,o,126,1,966.2999999998137,603458.1000000006,8021,WL,C,11.0
4,25.891000032424927,learn,34108.99996757507,Tue Jan 28 2025 18:40:38 GMT-0600 (Central Standard Time),604607.6000000006,A,boy,I,y,170,1,1149.5,603458.1000000006,8021,WL,C,11.0
4,26.823999881744385,learn,33176.000118255615,Tue Jan 28 2025 18:40:38 GMT-0600 (Central Standard Time),605540.4000000004,A,boyenter,I,enter,923,1,2082.2999999998137,603458.1000000006,8021,WL,C,11.0
4,27.391000032424927,learn,32608.999967575073,Tue Jan 28 2025 18:40:38 GMT-0600 (Central Standard Time),606108.0,A,d,I,d,558,1,567.2000000001863,605540.7999999998,8021,WL,C,12.0
4,27.556999921798706,learn,32443.000078201294,Tue Jan 28 2025 18:40:38 GMT-0600 (Central Standard Time),606273.6000000006,A,do,I,o,142,1,732.8000000007451,605540.7999999998,8021,WL,C,12.0
4,27.740000009536743,learn,32259.999990463257,Tue Jan 28 2025 18:40:38 GMT-0600 (Central Standard Time),606457.0,A,doc,I,c,161,1,916.2000000001863,605540.7999999998,8021,WL,C,12.0
4,28.006999969482422,learn,31993.000030517578,Tue Jan 28 2025 18:40:38 GMT-0600 (Central Standard Time),606723.4000000004,A,doct,I,t,250,1,1182.6000000005588,605540.7999999998,8021,WL,C,12.0
4,28.205999851226807,learn,31794.000148773193,Tue Jan 28 2025 18:40:38 GMT-0600 (Central Standard Time),606923.2000000002,A,docto,I,o,191,1,1382.4000000003725,605540.7999999998,8021,WL,C,12.0
4,28.389999866485596,learn,31610.000133514404,Tue Jan 28 2025 18:40:38 GMT-0600 (Central Standard Time),607106.7999999998,A,doctor,I,r,167,1,1566.0,605540.7999999998,8021,WL,C,12.0
4,29.02300000190735,learn,30976.99999809265,Tue Jan 28 2025 18:40:38 GMT-0600 (Central Standard Time),607739.7999999998,A,doctorenter,I,enter,616,1,2199.0,605540.7999999998,8021,WL,C,12.0
4,30.555999994277954,learn,29444.000005722046,Tue Jan 28 2025 18:40:38 GMT-0600 (Central Standard Time),609272.7000000002,A,f,I,f,1511,1,1532.7000000001863,607740.0,8021,WL,C,13.0
4,30.723000049591064,learn,29276.999950408936,Tue Jan 28 2025 18:40:38 GMT-0600 (Central Standard Time),609439.5,A,fl,I,l,154,1,1699.5,607740.0,8021,WL,C,13.0
4,30.938999891281128,learn,29061.000108718872,Tue Jan 28 2025 18:40:38 GMT-0600 (Central Standard Time),609655.7000000002,A,fla,I,a,195,1,1915.7000000001863,607740.0,8021,WL,C,13.0
4,31.155999898910522,learn,28844.000101089478,Tue Jan 28 2025 18:40:38 GMT-0600 (Central Standard Time),609872.4000000004,A,flag,I,g,195,1,2132.4000000003725,607740.0,8021,WL,C,13.0
4,31.554999828338623,learn,28445.000171661377,Tue Jan 28 2025 18:40:38 GMT-0600 (Central Standard Time),610272.2000000002,A,flagenter,I,enter,378,1,2532.2000000001863,607740.0,8021,WL,C,13.0
4,32.77199983596802,learn,27228.000164031982,Tue Jan 28 2025 18:40:38 GMT-0600 (Central Standard Time),611488.7000000002,A,l,I,l,1195,1,1216.0999999996275,610272.6000000006,8021,WL,C,14.0
4,32.93899989128113,learn,27061.000108718872,Tue Jan 28 2025 18:40:38 GMT-0600 (Central Standard Time),611655.4000000004,A,le,I,e,154,1,1382.7999999998137,610272.6000000006,8021,WL,C,14.0
4,33.204999923706055,learn,26795.000076293945,Tue Jan 28 2025 18:40:38 GMT-0600 (Central Standard Time),611921.9000000004,A,let,I,t,252,1,1649.2999999998137,610272.6000000006,8021,WL,C,14.0
4,33.355000019073486,learn,26644.999980926514,Tue Jan 28 2025 18:40:38 GMT-0600 (Central Standard Time),612071.9000000004,A,lett,I,t,137,1,1799.2999999998137,610272.6000000006,8021,WL,C,14.0
4,33.62100005149841,learn,26378.999948501587,Tue Jan 28 2025 18:40:38 GMT-0600 (Central Standard Time),612338.2000000002,A,lette,I,e,259,1,2065.5999999996275,610272.6000000006,8021,WL,C,14.0
4,33.73799991607666,learn,26262.00008392334,Tue Jan 28 2025 18:40:38 GMT-0600 (Central Standard Time),612455.1000000006,A,letter,I,r,96,1,2182.5,610272.6000000006,8021,WL,C,14.0
4,34.55399990081787,learn,25446.00009918213,Tue Jan 28 2025 18:40:38 GMT-0600 (Central Standard Time),613271.2000000002,A,letterenter,I,enter,796,1,2998.5999999996275,610272.6000000006,8021,WL,C,14.0
4,38.40299987792969,learn,21597.000122070312,Tue Jan 28 2025 18:40:38 GMT-0600 (Central Standard Time),617120.0,A,enter,I,enter,3836,1,3848.5,613271.5,8021,WL,C,15.0
5,0.7829999923706055,learn,60000.0,Tue Jan 28 2025 18:40:38 GMT-0600 (Central Standard Time),687248.4000000004,A,c,I,c,770,1,783.0,686465.4000000004,8021,WL,C,1.0
5,0.999000072479248,learn,60000.0,Tue Jan 28 2025 18:40:38 GMT-0600 (Central Standard Time),687464.9000000004,A,co,I,o,194,1,999.5,686465.4000000004,8021,WL,C,1.0
5,1.1660001277923584,learn,60000.0,Tue Jan 28 2025 18:40:38 GMT-0600 (Central Standard Time),687631.5,A,cor,I,r,145,1,1166.0999999996275,686465.4000000004,8021,WL,C,1.0
5,1.3329999446868896,learn,60000.0,Tue Jan 28 2025 18:40:38 GMT-0600 (Central Standard Time),687798.0,A,corn,I,n,155,1,1332.5999999996275,686465.4000000004,8021,WL,C,1.0
5,1.8819999694824219,learn,60000.0,Tue Jan 28 2025 18:40:38 GMT-0600 (Central Standard Time),688348.1000000006,A,cornenter,I,enter,541,1,1882.7000000001863,686465.4000000004,8021,WL,C,1.0
5,2.5490000247955322,learn,60000.0,Tue Jan 28 2025 18:40:38 GMT-0600 (Central Standard Time),689014.2999999998,A,n,I,n,654,1,666.0,688348.2999999998,8021,WL,C,2.0
5,2.699000120162964,learn,60000.0,Tue Jan 28 2025 18:40:38 GMT-0600 (Central Standard Time),689164.5,A,na,I,a,141,1,816.2000000001863,688348.2999999998,8021,WL,C,2.0
5,2.865999937057495,learn,60000.0,Tue Jan 28 2025 18:40:38 GMT-0600 (Central Standard Time),689331.2000000002,A,nai,I,i,150,1,982.9000000003725,688348.2999999998,8021,WL,C,2.0
5,3.0320000648498535,learn,60000.0,Tue Jan 28 2025 18:40:38 GMT-0600 (Central Standard Time),689497.5,A,nail,I,l,151,1,1149.2000000001863,688348.2999999998,8021,WL,C,2.0
5,3.748000144958496,learn,60000.0,Tue Jan 28 2025 18:40:38 GMT-0600 (Central Standard Time),690214.0,A,nailenter,I,enter,705,1,1865.7000000001863,688348.2999999998,8021,WL,C,2.0
5,4.815000057220459,learn,60000.0,Tue Jan 28 2025 18:40:38 GMT-0600 (Central Standard Time),691280.4000000004,A,c,I,c,1045,1,1066.0,690214.4000000004,8021,WL,C,3.0
5,4.980999946594238,learn,60000.0,Tue Jan 28 2025 18:40:38 GMT-0600 (Central Standard Time),691446.9000000004,A,ca,I,a,146,1,1232.5,690214.4000000004,8021,WL,C,3.0
5,5.54800009727478,learn,60000.0,Tue Jan 28 2025 18:40:38 GMT-0600 (Central Standard Time),692013.5,A,cat,I,t,556,1,1799.0999999996275,690214.4000000004,8021,WL,C,3.0
5,5.697999954223633,learn,60000.0,Tue Jan 28 2025 18:40:38 GMT-0600 (Central Standard Time),692163.2999999998,A,catt,I,t,133,1,1948.8999999994412,690214.4000000004,8021,WL,C,3.0
5,5.88100004196167,learn,60000.0,Tue Jan 28 2025 18:40:38 GMT-0600 (Central Standard Time),692346.7000000002,A,cattl,I,l,176,1,2132.2999999998137,690214.4000000004,8021,WL,C,3.0
5,6.064000129699707,learn,60000.0,Tue Jan 28 2025 18:40:38 GMT-0600 (Central Standard Time),692529.9000000004,A,cattle,I,e,160,1,2315.5,690214.4000000004,8021,WL,C,3.0
5,6.648000001907349,learn,60000.0,Tue Jan 28 2025 18:40:38 GMT-0600 (Central Standard Time),693113.2999999998,A,cattleenter,I,enter,569,1,2898.899999999441,690214.4000000004,8021,WL,C,3.0
5,7.064000129699707,learn,60000.0,Tue Jan 28 2025 18:40:38 GMT-0600 (Central Standard Time),693529.7000000002,A,s,I,s,401,1,416.0,693113.7000000002,8021,WL,C,4.0
5,7.246999979019165,learn,60000.0,Tue Jan 28 2025 18:40:38 GMT-0600 (Central Standard Time),693712.9000000004,A,sh,I,h,160,1,599.2000000001863,693113.7000000002,8021,WL,C,4.0
5,7.3470001220703125,learn,60000.0,Tue Jan 28 2025 18:40:38 GMT-0600 (Central Standard Time),693813.1000000006,A,sho,I,o,82,1,699.4000000003725,693113.7000000002,8021,WL,C,4.0
5,7.513999938964844,learn,60000.0,Tue Jan 28 2025 18:40:38 GMT-0600 (Central Standard Time),693979.5,A,shor,I,r,158,1,865.7999999998137,693113.7000000002,8021,WL,C,4.0
5,7.814000129699707,learn,60000.0,Tue Jan 28 2025 18:40:38 GMT-0600 (Central Standard Time),694279.5,A,shore,I,e,279,1,1165.7999999998137,693113.7000000002,8021,WL,C,4.0
5,8.430000066757202,learn,60000.0,Tue Jan 28 2025 18:40:38 GMT-0600 (Central Standard Time),694896.1000000006,A,shoreenter,I,enter,603,1,1782.4000000003725,693113.7000000002,8021,WL,C,4.0
5,8.96399998664856,learn,60000.0,Tue Jan 28 2025 18:40:38 GMT-0600 (Central Standard Time),695429.1000000006,A,b,I,b,515,1,532.7000000001863,694896.4000000004,8021,WL,C,5.0
5,9.147000074386597,learn,60000.0,Tue Jan 28 2025 18:40:38 GMT-0600 (Central Standard Time),695612.4000000004,A,bo,I,o,173,1,716.0,694896.4000000004,8021,WL,C,5.0
5,9.44700002670288,learn,60000.0,Tue Jan 28 2025 18:40:38 GMT-0600 (Central Standard Time),695912.2999999998,A,boy,I,y,286,1,1015.8999999994412,694896.4000000004,8021,WL,C,5.0
5,10.628999948501587,learn,60000.0,Tue Jan 28 2025 18:40:38 GMT-0600 (Central Standard Time),697095.0,A,bo,I,backspace,1162,1,2198.5999999996275,694896.4000000004,8021,WL,C,5.0
5,11.11299991607666,learn,60000.0,Tue Jan 28 2025 18:40:38 GMT-0600 (Central Standard Time),697578.5,A,bod,I,d,467,1,2682.0999999996275,694896.4000000004,8021,WL,C,5.0
5,11.546000003814697,learn,60000.0,Tue Jan 28 2025 18:40:38 GMT-0600 (Central Standard Time),698011.4000000004,A,body,I,y,416,1,3115.0,694896.4000000004,8021,WL,C,5.0
5,12.328999996185303,learn,60000.0,Tue Jan 28 2025 18:40:38 GMT-0600 (Central Standard Time),698794.4000000004,A,bodyenter,I,enter,775,1,3898.0,694896.4000000004,8021,WL,C,5.0
5,12.911999940872192,learn,60000.0,Tue Jan 28 2025 18:40:38 GMT-0600 (Central Standard Time),699377.7999999998,A,b,I,b,569,1,583.0999999996275,698794.7000000002,8021,WL,C,6.0
5,13.345999956130981,learn,60000.0,Tue Jan 28 2025 18:40:38 GMT-0600 (Central Standard Time),699811.2000000002,A,bo,I,o,417,1,1016.5,698794.7000000002,8021,WL,C,6.0
5,13.828999996185303,learn,60000.0,Tue Jan 28 2025 18:40:38 GMT-0600 (Central Standard Time),700294.4000000004,A,boy,I,y,472,1,1499.7000000001863,698794.7000000002,8021,WL,C,6.0
5,14.84500002861023,learn,60000.0,Tue Jan 28 2025 18:40:38 GMT-0600 (Central Standard Time),701310.4000000004,A,boyenter,I,enter,1004,1,2515.7000000001863,698794.7000000002,8021,WL,C,6.0
5,15.227999925613403,learn,60000.0,Tue Jan 28 2025 18:40:38 GMT-0600 (Central Standard Time),701693.7999999998,A,d,I,d,373,1,383.09999999962747,701310.7000000002,8021,WL,C,7.0
5,15.477999925613403,learn,60000.0,Tue Jan 28 2025 18:40:38 GMT-0600 (Central Standard Time),701943.7999999998,A,do,I,o,238,1,633.0999999996275,701310.7000000002,8021,WL,C,7.0
5,15.67799997329712,learn,60000.0,Tue Jan 28 2025 18:40:38 GMT-0600 (Central Standard Time),702143.5,A,doc,I,c,179,1,832.7999999998137,701310.7000000002,8021,WL,C,7.0
5,16.194000005722046,learn,60000.0,Tue Jan 28 2025 18:40:38 GMT-0600 (Central Standard Time),702660.0,A,doct,I,t,499,1,1349.2999999998137,701310.7000000002,8021,WL,C,7.0
5,16.42799997329712,learn,60000.0,Tue Jan 28 2025 18:40:38 GMT-0600 (Central Standard Time),702893.4000000004,A,docto,I,o,215,1,1582.7000000001863,701310.7000000002,8021,WL,C,7.0
5,16.578999996185303,learn,60000.0,Tue Jan 28 2025 18:40:38 GMT-0600 (Central Standard Time),703044.5,A,doctor,I,r,142,1,1733.7999999998137,701310.7000000002,8021,WL,C,7.0
5,17.227999925613403,learn,60000.0,Tue Jan 28 2025 18:40:38 GMT-0600 (Central Standard Time),703693.2999999998,A,doctorenter,I,enter,630,1,2382.5999999996275,701310.7000000002,8021,WL,C,7.0
5,17.960999965667725,learn,60000.0,Tue Jan 28 2025 18:40:38 GMT-0600 (Central Standard Time),704426.4000000004,A,c,I,c,710,1,732.7999999998137,703693.6000000006,8021,WL,C,8.0
5,18.14400005340576,learn,60000.0,Tue Jan 28 2025 18:40:38 GMT-0600 (Central Standard Time),704609.2999999998,A,ca,I,a,168,1,915.6999999992549,703693.6000000006,8021,WL,C,8.0
5,18.276999950408936,learn,60000.0,Tue Jan 28 2025 18:40:38 GMT-0600 (Central Standard Time),704742.9000000004,A,cam,I,m,121,1,1049.2999999998137,703693.6000000006,8021,WL,C,8.0
5,18.526999950408936,learn,60000.0,Tue Jan 28 2025 18:40:38 GMT-0600 (Central Standard Time),704992.7999999998,A,camp,I,p,228,1,1299.199999999255,703693.6000000006,8021,WL,C,8.0
5,19.16000008583069,learn,60000.0,Tue Jan 28 2025 18:40:38 GMT-0600 (Central Standard Time),705626.1000000006,A,campenter,I,enter,626,1,1932.5,703693.6000000006,8021,WL,C,8.0
5,20.943000078201294,learn,60000.0,Tue Jan 28 2025 18:40:38 GMT-0600 (Central Standard Time),707408.6000000006,A,l,I,l,1769,1,1782.2000000001863,705626.4000000004,8021,WL,C,9.0
5,21.193000078201294,learn,60000.0,Tue Jan 28 2025 18:40:38 GMT-0600 (Central Standard Time),707658.5,A,le,I,e,242,1,2032.0999999996275,705626.4000000004,8021,WL,C,9.0
5,21.4760000705719,learn,60000.0,Tue Jan 28 2025 18:40:38 GMT-0600 (Central Standard Time),707941.7999999998,A,let,I,t,265,1,2315.399999999441,705626.4000000004,8021,WL,C,9.0
5,21.625999927520752,learn,60000.0,Tue Jan 28 2025 18:40:38 GMT-0600 (Central Standard Time),708091.4000000004,A,lett,I,t,141,1,2465.0,705626.4000000004,8021,WL,C,9.0
5,21.89300012588501,learn,60000.0,Tue Jan 28 2025 18:40:38 GMT-0600 (Central Standard Time),708358.4000000004,A,lette,I,e,248,1,2732.0,705626.4000000004,8021,WL,C,9.0
5,21.993000030517578,learn,60000.0,Tue Jan 28 2025 18:40:38 GMT-0600 (Central Standard Time),708458.9000000004,A,letter,I,r,93,1,2832.5,705626.4000000004,8021,WL,C,9.0
5,22.919000148773193,learn,60000.0,Tue Jan 28 2025 18:40:38 GMT-0600 (Central Standard Time),709384.6000000006,A,letterenter,I,enter,770,1,3758.2000000001863,705626.4000000004,8021,WL,C,9.0
5,23.30900001525879,learn,60000.0,Tue Jan 28 2025 18:40:38 GMT-0600 (Central Standard Time),709774.7000000002,A,f,I,f,367,1,389.59999999962747,709385.1000000006,8021,WL,C,10.0
5,23.509000062942505,learn,60000.0,Tue Jan 28 2025 18:40:38 GMT-0600 (Central Standard Time),709974.5,A,fl,I,l,188,1,589.3999999994412,709385.1000000006,8021,WL,C,10.0
5,23.776000022888184,learn,60000.0,Tue Jan 28 2025 18:40:38 GMT-0600 (Central Standard Time),710241.1000000006,A,fla,I,a,244,1,856.0,709385.1000000006,8021,WL,C,10.0
5,24.04200005531311,learn,60000.0,Tue Jan 28 2025 18:40:38 GMT-0600 (Central Standard Time),710507.4000000004,A,flag,I,g,258,1,1122.2999999998137,709385.1000000006,8021,WL,C,10.0
5,24.691999912261963,learn,60000.0,Tue Jan 28 2025 18:40:38 GMT-0600 (Central Standard Time),711157.2000000002,A,flagenter,I,enter,639,1,1772.0999999996275,709385.1000000006,8021,WL,C,10.0
5,26.30900001525879,learn,60000.0,Tue Jan 28 2025 18:40:38 GMT-0600 (Central Standard Time),712774.7999999998,A,t,I,t,1605,1,1617.2999999998137,711157.5,8021,WL,C,11.0
5,26.45799994468689,learn,60000.0,Tue Jan 28 2025 18:40:38 GMT-0600 (Central Standard Time),712923.6000000006,A,to,I,o,132,1,1766.1000000005588,711157.5,8021,WL,C,11.0
5,26.641000032424927,learn,60000.0,Tue Jan 28 2025 18:40:38 GMT-0600 (Central Standard Time),713106.7999999998,A,tow,I,w,175,1,1949.2999999998137,711157.5,8021,WL,C,11.0
5,26.825000047683716,learn,60000.0,Tue Jan 28 2025 18:40:38 GMT-0600 (Central Standard Time),713290.2999999998,A,towe,I,e,169,1,2132.7999999998137,711157.5,8021,WL,C,11.0
5,26.924999952316284,learn,60000.0,Tue Jan 28 2025 18:40:38 GMT-0600 (Central Standard Time),713390.1000000006,A,tower,I,r,80,1,2232.600000000559,711157.5,8021,WL,C,11.0
5,27.341000080108643,learn,60000.0,Tue Jan 28 2025 18:40:38 GMT-0600 (Central Standard Time),713806.5,A,towerenter,I,enter,396,1,2649.0,711157.5,8021,WL,C,11.0
5,27.79100012779236,learn,60000.0,Tue Jan 28 2025 18:40:38 GMT-0600 (Central Standard Time),714256.5,A,w,I,w,437,1,449.79999999981374,713806.7000000002,8021,WL,C,12.0
5,27.990999937057495,learn,60000.0,Tue Jan 28 2025 18:40:38 GMT-0600 (Central Standard Time),714456.5,A,wh,I,h,178,1,649.7999999998137,713806.7000000002,8021,WL,C,12.0
5,28.124000072479248,learn,60000.0,Tue Jan 28 2025 18:40:38 GMT-0600 (Central Standard Time),714589.7999999998,A,whe,I,e,122,1,783.0999999996275,713806.7000000002,8021,WL,C,12.0
5,28.258000135421753,learn,60000.0,Tue Jan 28 2025 18:40:38 GMT-0600 (Central Standard Time),714723.2000000002,A,wher,I,r,117,1,916.5,713806.7000000002,8021,WL,C,12.0
5,29.124000072479248,learn,60000.0,Tue Jan 28 2025 18:40:38 GMT-0600 (Central Standard Time),715589.2999999998,A,whe,I,backspace,855,1,1782.5999999996275,713806.7000000002,8021,WL,C,12.0
5,29.457000017166138,learn,60000.0,Tue Jan 28 2025 18:40:38 GMT-0600 (Central Standard Time),715922.7000000002,A,whea,I,a,317,1,2116.0,713806.7000000002,8021,WL,C,12.0
5,29.723000049591064,learn,60000.0,Tue Jan 28 2025 18:40:38 GMT-0600 (Central Standard Time),716189.4000000004,A,wheat,I,t,257,1,2382.7000000001863,713806.7000000002,8021,WL,C,12.0
5,30.456000089645386,learn,60000.0,Tue Jan 28 2025 18:40:38 GMT-0600 (Central Standard Time),716922.5,A,wheatenter,I,enter,717,1,3115.7999999998137,713806.7000000002,8021,WL,C,12.0
5,30.789999961853027,learn,60000.0,Tue Jan 28 2025 18:40:38 GMT-0600 (Central Standard Time),717255.7000000002,A,q,I,q,312,1,333.0,716922.7000000002,8021,WL,C,13.0
5,31.00600004196167,learn,60000.0,Tue Jan 28 2025 18:40:38 GMT-0600 (Central Standard Time),717472.1000000006,A,qu,I,u,202,1,549.4000000003725,716922.7000000002,8021,WL,C,13.0
5,31.23900008201599,learn,60000.0,Tue Jan 28 2025 18:40:38 GMT-0600 (Central Standard Time),717705.6000000006,A,que,I,e,211,1,782.9000000003725,716922.7000000002,8021,WL,C,13.0
5,31.388999938964844,learn,60000.0,Tue Jan 28 2025 18:40:38 GMT-0600 (Central Standard Time),717855.2999999998,A,quee,I,e,129,1,932.5999999996275,716922.7000000002,8021,WL,C,13.0
5,31.555999994277954,learn,60000.0,Tue Jan 28 2025 18:40:38 GMT-0600 (Central Standard Time),718022.2000000002,A,queen,I,n,147,1,1099.5,716922.7000000002,8021,WL,C,13.0
5,32.18900012969971,learn,60000.0,Tue Jan 28 2025 18:40:38 GMT-0600 (Central Standard Time),718655.2000000002,A,queenenter,I,enter,621,1,1732.5,716922.7000000002,8021,WL,C,13.0
5,33.58899998664856,learn,60000.0,Tue Jan 28 2025 18:40:38 GMT-0600 (Central Standard Time),720054.6000000006,A,s,I,s,1387,1,1399.0,718655.6000000006,8021,WL,C,14.0
5,33.723000049591064,learn,60000.0,Tue Jan 28 2025 18:40:38 GMT-0600 (Central Standard Time),720189.1000000006,A,su,I,u,124,1,1533.5,718655.6000000006,8021,WL,C,14.0
5,34.2720000743866,learn,60000.0,Tue Jan 28 2025 18:40:38 GMT-0600 (Central Standard Time),720737.7000000002,A,sug,I,g,534,1,2082.0999999996275,718655.6000000006,8021,WL,C,14.0
5,34.454999923706055,learn,60000.0,Tue Jan 28 2025 18:40:38 GMT-0600 (Central Standard Time),720921.2999999998,A,suga,I,a,169,1,2265.699999999255,718655.6000000006,8021,WL,C,14.0
5,34.623000144958496,learn,60000.0,Tue Jan 28 2025 18:40:38 GMT-0600 (Central Standard Time),721088.7000000002,A,sugar,I,r,154,1,2433.0999999996275,718655.6000000006,8021,WL,C,14.0
5,34.937999963760376,learn,60000.0,Tue Jan 28 2025 18:40:38 GMT-0600 (Central Standard Time),721404.1000000006,A,sugarenter,I,enter,298,1,2748.5,718655.6000000006,8021,WL,C,14.0
5,35.50399994850159,learn,60000.0,Tue Jan 28 2025 18:40:38 GMT-0600 (Central Standard Time),721970.6000000006,A,h,I,h,559,1,566.1000000005588,721404.5,8021,WL,C,15.0
5,35.65400004386902,learn,60000.0,Tue Jan 28 2025 18:40:38 GMT-0600 (Central Standard Time),722120.5,A,ho,I,o,128,1,716.0,721404.5,8021,WL,C,15.0
5,35.87100005149841,learn,60000.0,Tue Jan 28 2025 18:40:38 GMT-0600 (Central Standard Time),722337.2999999998,A,hom,I,m,194,1,932.7999999998137,721404.5,8021,WL,C,15.0
5,36.03800010681152,learn,60000.0,Tue Jan 28 2025 18:40:38 GMT-0600 (Central Standard Time),722504.0,A,home,I,e,154,1,1099.5,721404.5,8021,WL,C,15.0
5,37.05400013923645,learn,60000.0,Tue Jan 28 2025 18:40:38 GMT-0600 (Central Standard Time),723520.5,A,homeenter,I,enter,994,1,2116.0,721404.5,8021,WL,C,15.0
6,1.6670000553131104,distr,58332.99994468689,Tue Jan 28 2025 18:40:38 GMT-0600 (Central Standard Time),798147.2999999998,B,p,I,p,1650,1,1666.2999999998137,796481.0,8021,WL,C,1.0
6,1.9000000953674316,distr,58099.99990463257,Tue Jan 28 2025 18:40:38 GMT-0600 (Central Standard Time),798380.2999999998,B,pl,I,l,214,1,1899.2999999998137,796481.0,8021,WL,C,1.0
6,2.2660000324249268,distr,57733.99996757507,Tue Jan 28 2025 18:40:38 GMT-0600 (Central Standard Time),798746.9000000004,B,pla,I,a,342,1,2265.9000000003725,796481.0,8021,WL,C,1.0
6,2.5320000648498535,distr,57467.99993515015,Tue Jan 28 2025 18:40:38 GMT-0600 (Central Standard Time),799013.1000000006,B,plan,I,n,256,1,2532.100000000559,796481.0,8021,WL,C,1.0
6,2.815999984741211,distr,57184.00001525879,Tue Jan 28 2025 18:40:38 GMT-0600 (Central Standard Time),799296.7999999998,B,plant,I,t,262,1,2815.7999999998137,796481.0,8021,WL,C,1.0
6,3.182000160217285,distr,56817.999839782715,Tue Jan 28 2025 18:40:38 GMT-0600 (Central Standard Time),799663.1000000006,B,plantenter,I,enter,354,1,3182.100000000559,796481.0,8021,WL,C,1.0
6,3.683000087738037,distr,56316.99991226196,Tue Jan 28 2025 18:40:38 GMT-0600 (Central Standard Time),800164.1000000006,B,m,I,m,492,1,500.70000000018626,799663.4000000004,8021,WL,C,2.0
6,3.8320000171661377,distr,56167.99998283386,Tue Jan 28 2025 18:40:38 GMT-0600 (Central Standard Time),800312.7000000002,B,mo,I,o,127,1,649.2999999998137,799663.4000000004,8021,WL,C,2.0
6,3.999000072479248,distr,56000.99992752075,Tue Jan 28 2025 18:40:38 GMT-0600 (Central Standard Time),800479.7999999998,B,mon,I,n,154,1,816.3999999994412,799663.4000000004,8021,WL,C,2.0
6,4.332000017166138,distr,55667.99998283386,Tue Jan 28 2025 18:40:38 GMT-0600 (Central Standard Time),800812.6000000006,B,mone,I,e,323,1,1149.2000000001863,799663.4000000004,8021,WL,C,2.0
6,4.515000104904175,distr,55484.999895095825,Tue Jan 28 2025 18:40:38 GMT-0600 (Central Standard Time),800996.2000000002,B,money,I,y,174,1,1332.7999999998137,799663.4000000004,8021,WL,C,2.0
6,5.0320000648498535,distr,54967.99993515015,Tue Jan 28 2025 18:40:38 GMT-0600 (Central Standard Time),801512.2999999998,B,moneyenter,I,enter,494,1,1848.8999999994412,799663.4000000004,8021,WL,C,2.0
6,5.615000009536743,distr,54384.99999046326,Tue Jan 28 2025 18:40:38 GMT-0600 (Central Standard Time),802095.7000000002,B,h,I,h,570,1,583.2000000001863,801512.5,8021,WL,C,3.0
6,5.7820000648498535,distr,54217.99993515015,Tue Jan 28 2025 18:40:38 GMT-0600 (Central Standard Time),802262.2999999998,B,ho,I,o,155,1,749.7999999998137,801512.5,8021,WL,C,3.0
6,6.0980000495910645,distr,53901.999950408936,Tue Jan 28 2025 18:40:38 GMT-0600 (Central Standard Time),802578.6000000006,B,hot,I,t,308,1,1066.1000000005588,801512.5,8021,WL,C,3.0
6,6.38100004196167,distr,53618.99995803833,Tue Jan 28 2025 18:40:38 GMT-0600 (Central Standard Time),802861.9000000004,B,hote,I,e,272,1,1349.4000000003725,801512.5,8021,WL,C,3.0
6,6.54800009727478,distr,53451.99990272522,Tue Jan 28 2025 18:40:38 GMT-0600 (Central Standard Time),803028.7000000002,B,hotel,I,l,149,1,1516.2000000001863,801512.5,8021,WL,C,3.0
6,7.059000015258789,distr,52940.99998474121,Tue Jan 28 2025 18:40:38 GMT-0600 (Central Standard Time),803539.7999999998,B,hotelenter,I,enter,487,1,2027.2999999998137,801512.5,8021,WL,C,3.0
6,7.614000082015991,distr,52385.99991798401,Tue Jan 28 2025 18:40:38 GMT-0600 (Central Standard Time),804095.1000000006,B,d,I,d,535,1,555.0,803540.1000000006,8021,WL,C,4.0
6,7.764000177383423,distr,52235.99982261658,Tue Jan 28 2025 18:40:38 GMT-0600 (Central Standard Time),804245.1000000006,B,do,I,o,132,1,705.0,803540.1000000006,8021,WL,C,4.0
6,7.96399998664856,distr,52036.00001335144,Tue Jan 28 2025 18:40:38 GMT-0600 (Central Standard Time),804445.0,B,dol,I,l,190,1,904.8999999994412,803540.1000000006,8021,WL,C,4.0
6,8.114000082015991,distr,51885.99991798401,Tue Jan 28 2025 18:40:38 GMT-0600 (Central Standard Time),804595.1000000006,B,doll,I,l,134,1,1055.0,803540.1000000006,8021,WL,C,4.0
6,8.281000137329102,distr,51718.9998626709,Tue Jan 28 2025 18:40:38 GMT-0600 (Central Standard Time),804761.4000000004,B,dolla,I,a,152,1,1221.2999999998137,803540.1000000006,8021,WL,C,4.0
6,8.498000144958496,distr,51501.999855041504,Tue Jan 28 2025 18:40:38 GMT-0600 (Central Standard Time),804978.9000000004,B,dollar,I,r,201,1,1438.7999999998137,803540.1000000006,8021,WL,C,4.0
6,8.94700002670288,distr,51052.99997329712,Tue Jan 28 2025 18:40:38 GMT-0600 (Central Standard Time),805427.9000000004,B,dollarenter,I,enter,433,1,1887.7999999998137,803540.1000000006,8021,WL,C,4.0
6,9.597000122070312,distr,50402.99987792969,Tue Jan 28 2025 18:40:38 GMT-0600 (Central Standard Time),806077.9000000004,B,m,I,m,631,1,649.7000000001863,805428.2000000002,8021,WL,C,5.0
6,9.746999979019165,distr,50253.000020980835,Tue Jan 28 2025 18:40:38 GMT-0600 (Central Standard Time),806227.6000000006,B,mo,I,o,133,1,799.4000000003725,805428.2000000002,8021,WL,C,5.0
6,9.930000066757202,distr,50069.9999332428,Tue Jan 28 2025 18:40:38 GMT-0600 (Central Standard Time),806411.0,B,mot,I,t,167,1,982.7999999998137,805428.2000000002,8021,WL,C,5.0
6,10.03000020980835,distr,49969.99979019165,Tue Jan 28 2025 18:40:38 GMT-0600 (Central Standard Time),806511.1000000006,B,moth,I,h,80,1,1082.9000000003725,805428.2000000002,8021,WL,C,5.0
6,10.246999979019165,distr,49753.000020980835,Tue Jan 28 2025 18:40:38 GMT-0600 (Central Standard Time),806727.7000000002,B,mothe,I,e,196,1,1299.5,805428.2000000002,8021,WL,C,5.0
6,10.314000129699707,distr,49685.99987030029,Tue Jan 28 2025 18:40:38 GMT-0600 (Central Standard Time),806794.4000000004,B,mother,I,r,43,1,1366.2000000001863,805428.2000000002,8021,WL,C,5.0
6,11.03000020980835,distr,48969.99979019165,Tue Jan 28 2025 18:40:38 GMT-0600 (Central Standard Time),807510.6000000006,B,motherenter,I,enter,704,1,2082.4000000003725,805428.2000000002,8021,WL,C,5.0
6,12.11300015449524,distr,47886.99984550476,Tue Jan 28 2025 18:40:38 GMT-0600 (Central Standard Time),808593.6000000006,B,p,I,p,1061,1,1082.6000000005588,807511.0,8021,WL,C,6.0
6,12.330000162124634,distr,47669.999837875366,Tue Jan 28 2025 18:40:38 GMT-0600 (Central Standard Time),808810.2000000002,B,pl,I,l,193,1,1299.2000000001863,807511.0,8021,WL,C,6.0
6,12.496999979019165,distr,47503.000020980835,Tue Jan 28 2025 18:40:38 GMT-0600 (Central Standard Time),808977.2000000002,B,pla,I,a,144,1,1466.2000000001863,807511.0,8021,WL,C,6.0
6,12.629000186920166,distr,47370.999813079834,Tue Jan 28 2025 18:40:38 GMT-0600 (Central Standard Time),809110.0,B,plan,I,n,111,1,1599.0,807511.0,8021,WL,C,6.0
6,12.78000020980835,distr,47219.99979019165,Tue Jan 28 2025 18:40:38 GMT-0600 (Central Standard Time),809260.2000000002,B,plant,I,t,140,1,1749.2000000001863,807511.0,8021,WL,C,6.0
6,13.229000091552734,distr,46770.999908447266,Tue Jan 28 2025 18:40:38 GMT-0600 (Central Standard Time),809709.9000000004,B,plantenter,I,enter,439,1,2198.9000000003725,807511.0,8021,WL,C,6.0
6,13.879000186920166,distr,46120.999813079834,Tue Jan 28 2025 18:40:38 GMT-0600 (Central Standard Time),810359.7000000002,B,s,I,s,636,1,649.4000000003725,809710.2999999998,8021,WL,C,7.0
6,14.097000122070312,distr,45902.99987792969,Tue Jan 28 2025 18:40:38 GMT-0600 (Central Standard Time),810577.5,B,sh,I,h,202,1,867.2000000001863,809710.2999999998,8021,WL,C,7.0
6,14.662000179290771,distr,45337.99982070923,Tue Jan 28 2025 18:40:38 GMT-0600 (Central Standard Time),811142.7999999998,B,s,I,backspace,553,1,1432.5,809710.2999999998,8021,WL,C,7.0
6,15.34500002861023,distr,44654.99997138977,Tue Jan 28 2025 18:40:38 GMT-0600 (Central Standard Time),811826.1000000006,B,sl,I,l,660,1,2115.800000000745,809710.2999999998,8021,WL,C,7.0
6,15.828999996185303,distr,44171.0000038147,Tue Jan 28 2025 18:40:38 GMT-0600 (Central Standard Time),812309.2999999998,B,s,I,backspace,473,1,2599.0,809710.2999999998,8021,WL,C,7.0
6,16.24500012397766,distr,43754.99987602234,Tue Jan 28 2025 18:40:38 GMT-0600 (Central Standard Time),812725.9000000004,B,sk,I,k,405,1,3015.600000000559,809710.2999999998,8021,WL,C,7.0
6,16.562000036239624,distr,43437.999963760376,Tue Jan 28 2025 18:40:38 GMT-0600 (Central Standard Time),813042.4000000004,B,sky,I,y,293,1,3332.100000000559,809710.2999999998,8021,WL,C,7.0
6,17.028000116348267,distr,42971.99988365173,Tue Jan 28 2025 18:40:38 GMT-0600 (Central Standard Time),813508.7000000002,B,skyenter,I,enter,456,1,3798.4000000003725,809710.2999999998,8021,WL,C,7.0
6,17.544000148773193,distr,42455.99985122681,Tue Jan 28 2025 18:40:38 GMT-0600 (Central Standard Time),814025.1000000006,B,v,I,v,494,1,516.1000000005588,813509.0,8021,WL,C,8.0
6,18.044000148773193,distr,41955.99985122681,Tue Jan 28 2025 18:40:38 GMT-0600 (Central Standard Time),814525.0,B,va,I,a,482,1,1016.0,813509.0,8021,WL,C,8.0
6,18.311000108718872,distr,41688.99989128113,Tue Jan 28 2025 18:40:38 GMT-0600 (Central Standard Time),814791.7000000002,B,val,I,l,246,1,1282.7000000001863,813509.0,8021,WL,C,8.0
6,18.461000204086304,distr,41538.999795913696,Tue Jan 28 2025 18:40:38 GMT-0600 (Central Standard Time),814941.9000000004,B,vall,I,l,139,1,1432.9000000003725,813509.0,8021,WL,C,8.0
6,18.628000020980835,distr,41371.999979019165,Tue Jan 28 2025 18:40:38 GMT-0600 (Central Standard Time),815108.2000000002,B,valle,I,e,149,1,1599.2000000001863,813509.0,8021,WL,C,8.0
6,19.011000156402588,distr,40988.99984359741,Tue Jan 28 2025 18:40:38 GMT-0600 (Central Standard Time),815491.2000000002,B,valley,I,y,374,1,1982.2000000001863,813509.0,8021,WL,C,8.0
6,19.544000148773193,distr,40455.99985122681,Tue Jan 28 2025 18:40:38 GMT-0600 (Central Standard Time),816024.7000000002,B,valleyenter,I,enter,520,1,2515.7000000001863,813509.0,8021,WL,C,8.0
6,20.094000101089478,distr,39905.99989891052,Tue Jan 28 2025 18:40:38 GMT-0600 (Central Standard Time),816574.5,B,s,I,s,530,1,549.5,816025.0,8021,WL,C,9.0
6,20.194000005722046,distr,39805.999994277954,Tue Jan 28 2025 18:40:38 GMT-0600 (Central Standard Time),816674.2999999998,B,su,I,u,93,1,649.2999999998137,816025.0,8021,WL,C,9.0
6,20.47699999809265,distr,39523.00000190735,Tue Jan 28 2025 18:40:38 GMT-0600 (Central Standard Time),816957.7999999998,B,sun,I,n,264,1,932.7999999998137,816025.0,8021,WL,C,9.0
6,21.06000018119812,distr,38939.99981880188,Tue Jan 28 2025 18:40:38 GMT-0600 (Central Standard Time),817541.0,B,sunenter,I,enter,573,1,1516.0,816025.0,8021,WL,C,9.0
6,24.825999975204468,distr,35174.00002479553,Tue Jan 28 2025 18:40:38 GMT-0600 (Central Standard Time),821306.2999999998,B,enter,I,enter,3758,1,3765.0,817541.2999999998,8021,WL,C,10.0
6,25.075999975204468,distr,34924.00002479553,Tue Jan 28 2025 18:40:38 GMT-0600 (Central Standard Time),821556.2000000002,B,enter,I,enter,232,1,249.59999999962747,821306.6000000006,8021,WL,C,11.0
6,25.276000022888184,distr,34723.99997711182,Tue Jan 28 2025 18:40:38 GMT-0600 (Central Standard Time),821756.2999999998,B,enter,I,enter,182,1,199.69999999925494,821556.6000000006,8021,WL,C,12.0
6,25.45900011062622,distr,34540.99988937378,Tue Jan 28 2025 18:40:38 GMT-0600 (Central Standard Time),821939.2999999998,B,enter,I,enter,166,1,182.69999999925494,821756.6000000006,8021,WL,C,13.0
6,25.610000133514404,distr,34389.999866485596,Tue Jan 28 2025 18:40:38 GMT-0600 (Central Standard Time),822090.5,B,enter,I,enter,128,1,150.79999999981374,821939.7000000002,8021,WL,C,14.0
6,25.759000062942505,distr,34240.999937057495,Tue Jan 28 2025 18:40:38 GMT-0600 (Central Standard Time),822239.5,B,enter,I,enter,136,1,148.59999999962747,822090.9000000004,8021,WL,C,15.0
7,11.746000051498413,immed,48253.99994850159,Tue Jan 28 2025 18:40:38 GMT-0600 (Central Standard Time),836318.1000000006,A,t,I,t,11727,1,11745.700000000186,824572.4000000004,8021,WL,C,1.0
7,12.246000051498413,immed,47753.99994850159,Tue Jan 28 2025 18:40:38 GMT-0600 (Central Standard Time),836818.1000000006,A,to,I,o,484,1,12245.700000000186,824572.4000000004,8021,WL,C,1.0
7,12.546000003814697,immed,47453.9999961853,Tue Jan 28 2025 18:40:38 GMT-0600 (Central Standard Time),837118.2000000002,A,tow,I,w,288,1,12545.799999999814,824572.4000000004,8021,WL,C,1.0
7,12.779000043869019,immed,47220.99995613098,Tue Jan 28 2025 18:40:38 GMT-0600 (Central Standard Time),837351.4000000004,A,towe,I,e,213,1,12779.0,824572.4000000004,8021,WL,C,1.0
7,12.878999948501587,immed,47121.00005149841,Tue Jan 28 2025 18:40:38 GMT-0600 (Central Standard Time),837451.1000000006,A,tower,I,r,91,1,12878.700000000186,824572.4000000004,8021,WL,C,1.0
7,13.378999948501587,immed,46621.00005149841,Tue Jan 28 2025 18:40:38 GMT-0600 (Central Standard Time),837951.2000000002,A,towerenter,I,enter,480,1,13378.799999999814,824572.4000000004,8021,WL,C,1.0
7,14.229000091552734,immed,45770.999908447266,Tue Jan 28 2025 18:40:38 GMT-0600 (Central Standard Time),838800.9000000004,A,w,I,w,827,1,849.4000000003725,837951.5,8021,WL,C,2.0
7,14.378999948501587,immed,45621.00005149841,Tue Jan 28 2025 18:40:38 GMT-0600 (Central Standard Time),838950.9000000004,A,wh,I,h,130,1,999.4000000003725,837951.5,8021,WL,C,2.0
7,14.529000043869019,immed,45470.99995613098,Tue Jan 28 2025 18:40:38 GMT-0600 (Central Standard Time),839100.7999999998,A,whe,I,e,140,1,1149.2999999998137,837951.5,8021,WL,C,2.0
7,14.84500002861023,immed,45154.99997138977,Tue Jan 28 2025 18:40:38 GMT-0600 (Central Standard Time),839417.5,A,whea,I,a,301,1,1466.0,837951.5,8021,WL,C,2.0
7,15.045000076293945,immed,44954.999923706055,Tue Jan 28 2025 18:40:38 GMT-0600 (Central Standard Time),839617.4000000004,A,wheat,I,t,185,1,1665.9000000003725,837951.5,8021,WL,C,2.0
7,15.394999980926514,immed,44605.000019073486,Tue Jan 28 2025 18:40:38 GMT-0600 (Central Standard Time),839967.1000000006,A,wheatenter,I,enter,329,1,2015.6000000005588,837951.5,8021,WL,C,2.0
7,15.82800006866455,immed,44171.99993133545,Tue Jan 28 2025 18:40:38 GMT-0600 (Central Standard Time),840400.2999999998,A,s,I,s,419,1,432.8999999994412,839967.4000000004,8021,WL,C,3.0
7,16.01099991798401,immed,43989.00008201599,Tue Jan 28 2025 18:40:38 GMT-0600 (Central Standard Time),840583.7000000002,A,su,I,u,162,1,616.2999999998137,839967.4000000004,8021,WL,C,3.0
7,16.227999925613403,immed,43772.0000743866,Tue Jan 28 2025 18:40:38 GMT-0600 (Central Standard Time),840800.2000000002,A,sug,I,g,203,1,832.7999999998137,839967.4000000004,8021,WL,C,3.0
7,16.394999980926514,immed,43605.000019073486,Tue Jan 28 2025 18:40:38 GMT-0600 (Central Standard Time),840966.9000000004,A,suga,I,a,154,1,999.5,839967.4000000004,8021,WL,C,3.0
7,16.561000108718872,immed,43438.99989128113,Tue Jan 28 2025 18:40:38 GMT-0600 (Central Standard Time),841133.2000000002,A,sugar,I,r,148,1,1165.7999999998137,839967.4000000004,8021,WL,C,3.0
7,17.811000108718872,immed,42188.99989128113,Tue Jan 28 2025 18:40:38 GMT-0600 (Central Standard Time),842382.9000000004,A,sugarenter,I,enter,1239,1,2415.5,839967.4000000004,8021,WL,C,3.0
7,18.39400005340576,immed,41605.99994659424,Tue Jan 28 2025 18:40:38 GMT-0600 (Central Standard Time),842966.2000000002,A,q,I,q,572,1,583.0999999996275,842383.1000000006,8021,WL,C,4.0
7,18.55999994277954,immed,41440.00005722046,Tue Jan 28 2025 18:40:38 GMT-0600 (Central Standard Time),843132.5,A,qu,I,u,157,1,749.3999999994412,842383.1000000006,8021,WL,C,4.0
7,18.795000076293945,immed,41204.999923706055,Tue Jan 28 2025 18:40:38 GMT-0600 (Central Standard Time),843367.2999999998,A,que,I,e,216,1,984.1999999992549,842383.1000000006,8021,WL,C,4.0
7,18.91000008583069,immed,41089.99991416931,Tue Jan 28 2025 18:40:38 GMT-0600 (Central Standard Time),843482.5,A,quee,I,e,107,1,1099.3999999994412,842383.1000000006,8021,WL,C,4.0
7,19.109999895095825,immed,40890.000104904175,Tue Jan 28 2025 18:40:38 GMT-0600 (Central Standard Time),843682.7000000002,A,queen,I,n,184,1,1299.5999999996275,842383.1000000006,8021,WL,C,4.0
7,19.594000101089478,immed,40405.99989891052,Tue Jan 28 2025 18:40:38 GMT-0600 (Central Standard Time),844165.9000000004,A,queenenter,I,enter,464,1,1782.7999999998137,842383.1000000006,8021,WL,C,4.0
7,20.009999990463257,immed,39990.00000953674,Tue Jan 28 2025 18:40:38 GMT-0600 (Central Standard Time),844582.4000000004,A,h,I,h,405,1,416.1000000005588,844166.2999999998,8021,WL,C,5.0
7,20.16000008583069,immed,39839.99991416931,Tue Jan 28 2025 18:40:38 GMT-0600 (Central Standard Time),844732.5,A,ho,I,o,140,1,566.2000000001863,844166.2999999998,8021,WL,C,5.0
7,20.342999935150146,immed,39657.00006484985,Tue Jan 28 2025 18:40:38 GMT-0600 (Central Standard Time),844915.7000000002,A,hom,I,m,166,1,749.4000000003725,844166.2999999998,8021,WL,C,5.0
7,20.509999990463257,immed,39490.00000953674,Tue Jan 28 2025 18:40:38 GMT-0600 (Central Standard Time),845082.2000000002,A,home,I,e,151,1,915.9000000003725,844166.2999999998,8021,WL,C,5.0
7,21.009999990463257,immed,38990.00000953674,Tue Jan 28 2025 18:40:38 GMT-0600 (Central Standard Time),845582.1000000006,A,homeenter,I,enter,481,1,1415.800000000745,844166.2999999998,8021,WL,C,5.0
7,22.193000078201294,immed,37806.999921798706,Tue Jan 28 2025 18:40:38 GMT-0600 (Central Standard Time),846765.0,A,b,I,b,1165,1,1182.5,845582.5,8021,WL,C,6.0
7,22.39300012588501,immed,37606.99987411499,Tue Jan 28 2025 18:40:38 GMT-0600 (Central Standard Time),846965.2000000002,A,bo,I,o,189,1,1382.7000000001863,845582.5,8021,WL,C,6.0
7,22.575999975204468,immed,37424.00002479553,Tue Jan 28 2025 18:40:38 GMT-0600 (Central Standard Time),847148.2999999998,A,boy,I,y,173,1,1565.7999999998137,845582.5,8021,WL,C,6.0
7,23.04200005531311,immed,36957.99994468689,Tue Jan 28 2025 18:40:38 GMT-0600 (Central Standard Time),847614.7000000002,A,boyenter,I,enter,446,1,2032.2000000001863,845582.5,8021,WL,C,6.0
7,23.441999912261963,immed,36558.00008773804,Tue Jan 28 2025 18:40:38 GMT-0600 (Central Standard Time),848014.6000000006,A,d,I,d,380,1,399.70000000018626,847614.9000000004,8021,WL,C,7.0
7,23.575999975204468,immed,36424.00002479553,Tue Jan 28 2025 18:40:38 GMT-0600 (Central Standard Time),848148.0,A,do,I,o,124,1,533.0999999996275,847614.9000000004,8021,WL,C,7.0
7,23.742000102996826,immed,36257.999897003174,Tue Jan 28 2025 18:40:38 GMT-0600 (Central Standard Time),848314.5,A,doc,I,c,159,1,699.5999999996275,847614.9000000004,8021,WL,C,7.0
7,24.02500009536743,immed,35974.99990463257,Tue Jan 28 2025 18:40:38 GMT-0600 (Central Standard Time),848597.7000000002,A,doct,I,t,265,1,982.7999999998137,847614.9000000004,8021,WL,C,7.0
7,24.158999919891357,immed,35841.00008010864,Tue Jan 28 2025 18:40:38 GMT-0600 (Central Standard Time),848730.9000000004,A,docto,I,o,124,1,1116.0,847614.9000000004,8021,WL,C,7.0
7,24.342000007629395,immed,35657.999992370605,Tue Jan 28 2025 18:40:38 GMT-0600 (Central Standard Time),848914.4000000004,A,doctor,I,r,168,1,1299.5,847614.9000000004,8021,WL,C,7.0
7,24.625,immed,35375.0,Tue Jan 28 2025 18:40:38 GMT-0600 (Central Standard Time),849197.5,A,doctorenter,I,enter,265,1,1582.5999999996275,847614.9000000004,8021,WL,C,7.0
7,25.125,immed,34875.0,Tue Jan 28 2025 18:40:38 GMT-0600 (Central Standard Time),849697.4000000004,A,c,I,c,477,1,499.5,849197.9000000004,8021,WL,C,8.0
7,25.259000062942505,immed,34740.999937057495,Tue Jan 28 2025 18:40:38 GMT-0600 (Central Standard Time),849831.2999999998,A,ca,I,a,121,1,633.3999999994412,849197.9000000004,8021,WL,C,8.0
7,25.424999952316284,immed,34575.000047683716,Tue Jan 28 2025 18:40:38 GMT-0600 (Central Standard Time),849997.5,A,cam,I,m,155,1,799.5999999996275,849197.9000000004,8021,WL,C,8.0
7,25.691999912261963,immed,34308.00008773804,Tue Jan 28 2025 18:40:38 GMT-0600 (Central Standard Time),850264.1000000006,A,camp,I,p,246,1,1066.2000000001863,849197.9000000004,8021,WL,C,8.0
7,26.141000032424927,immed,33858.99996757507,Tue Jan 28 2025 18:40:38 GMT-0600 (Central Standard Time),850713.4000000004,A,campenter,I,enter,435,1,1515.5,849197.9000000004,8021,WL,C,8.0
7,26.941999912261963,immed,33058.00008773804,Tue Jan 28 2025 18:40:38 GMT-0600 (Central Standard Time),851513.7999999998,A,l,I,l,778,1,800.0,850713.7999999998,8021,WL,C,9.0
7,27.058000087738037,immed,32941.99991226196,Tue Jan 28 2025 18:40:38 GMT-0600 (Central Standard Time),851630.2000000002,A,le,I,e,97,1,916.4000000003725,850713.7999999998,8021,WL,C,9.0
7,27.257999897003174,immed,32742.000102996826,Tue Jan 28 2025 18:40:38 GMT-0600 (Central Standard Time),851830.2000000002,A,let,I,t,180,1,1116.4000000003725,850713.7999999998,8021,WL,C,9.0
7,27.391000032424927,immed,32608.999967575073,Tue Jan 28 2025 18:40:38 GMT-0600 (Central Standard Time),851963.4000000004,A,lett,I,t,116,1,1249.6000000005588,850713.7999999998,8021,WL,C,9.0
7,27.558000087738037,immed,32441.999912261963,Tue Jan 28 2025 18:40:38 GMT-0600 (Central Standard Time),852130.1000000006,A,lette,I,e,159,1,1416.300000000745,850713.7999999998,8021,WL,C,9.0
7,27.990999937057495,immed,32009.000062942505,Tue Jan 28 2025 18:40:38 GMT-0600 (Central Standard Time),852563.5,A,letteenter,I,enter,417,1,1849.7000000001863,850713.7999999998,8021,WL,C,9.0
7,30.223999977111816,immed,29776.000022888184,Tue Jan 28 2025 18:40:38 GMT-0600 (Central Standard Time),854796.1000000006,A,f,I,f,2223,1,2232.300000000745,852563.7999999998,8021,WL,C,10.0
7,30.407000064849854,immed,29592.999935150146,Tue Jan 28 2025 18:40:38 GMT-0600 (Central Standard Time),854978.9000000004,A,fl,I,l,175,1,2415.100000000559,852563.7999999998,8021,WL,C,10.0
7,30.58999991416931,immed,29410.00008583069,Tue Jan 28 2025 18:40:38 GMT-0600 (Central Standard Time),855162.5,A,fla,I,a,169,1,2598.7000000001863,852563.7999999998,8021,WL,C,10.0
7,30.85700011253357,immed,29142.99988746643,Tue Jan 28 2025 18:40:38 GMT-0600 (Central Standard Time),855429.0,A,flag,I,g,256,1,2865.2000000001863,852563.7999999998,8021,WL,C,10.0
7,31.54100012779236,immed,28458.99987220764,Tue Jan 28 2025 18:40:38 GMT-0600 (Central Standard Time),856113.2000000002,A,flagenter,I,enter,669,1,3549.4000000003725,852563.7999999998,8021,WL,C,10.0
7,33.97200012207031,immed,26027.999877929688,Tue Jan 28 2025 18:40:38 GMT-0600 (Central Standard Time),858544.7000000002,A,b,I,b,2409,1,2431.2000000001863,856113.5,8021,WL,C,11.0
7,34.15599989891052,immed,25844.000101089478,Tue Jan 28 2025 18:40:38 GMT-0600 (Central Standard Time),858727.7999999998,A,bo,I,o,170,1,2614.2999999998137,856113.5,8021,WL,C,11.0
7,34.43900012969971,immed,25560.999870300293,Tue Jan 28 2025 18:40:38 GMT-0600 (Central Standard Time),859011.0,A,boy,I,y,275,1,2897.5,856113.5,8021,WL,C,11.0
7,35.638999938964844,immed,24361.000061035156,Tue Jan 28 2025 18:40:38 GMT-0600 (Central Standard Time),860211.0,A,bo,I,backspace,1184,1,4097.5,856113.5,8021,WL,C,11.0
7,35.90499997138977,immed,24095.00002861023,Tue Jan 28 2025 18:40:38 GMT-0600 (Central Standard Time),860477.4000000004,A,bod,I,d,255,1,4363.9000000003725,856113.5,8021,WL,C,11.0
7,36.28800010681152,immed,23711.999893188477,Tue Jan 28 2025 18:40:38 GMT-0600 (Central Standard Time),860860.6000000006,A,body,I,y,365,1,4747.100000000559,856113.5,8021,WL,C,11.0
7,37.121999979019165,immed,22878.000020980835,Tue Jan 28 2025 18:40:38 GMT-0600 (Central Standard Time),861693.9000000004,A,bodyenter,I,enter,813,1,5580.4000000003725,856113.5,8021,WL,C,11.0
7,38.187999963760376,immed,21812.000036239624,Tue Jan 28 2025 18:40:38 GMT-0600 (Central Standard Time),862760.1000000006,A,s,I,s,1053,1,1065.9000000003725,861694.2000000002,8021,WL,C,12.0
7,38.33800005912781,immed,21661.999940872192,Tue Jan 28 2025 18:40:38 GMT-0600 (Central Standard Time),862910.1000000006,A,sh,I,h,130,1,1215.9000000003725,861694.2000000002,8021,WL,C,12.0
7,38.47099995613098,immed,21529.00004386902,Tue Jan 28 2025 18:40:38 GMT-0600 (Central Standard Time),863043.1000000006,A,sho,I,o,125,1,1348.9000000003725,861694.2000000002,8021,WL,C,12.0
7,38.65400004386902,immed,21345.99995613098,Tue Jan 28 2025 18:40:38 GMT-0600 (Central Standard Time),863226.5,A,shor,I,r,176,1,1532.2999999998137,861694.2000000002,8021,WL,C,12.0
7,39.03800010681152,immed,20961.999893188477,Tue Jan 28 2025 18:40:38 GMT-0600 (Central Standard Time),863610.0,A,shore,I,e,368,1,1915.7999999998137,861694.2000000002,8021,WL,C,12.0
7,39.454999923706055,immed,20545.000076293945,Tue Jan 28 2025 18:40:38 GMT-0600 (Central Standard Time),864027.2000000002,A,shoreenter,I,enter,392,1,2333.0,861694.2000000002,8021,WL,C,12.0
7,40.13700008392334,immed,19862.99991607666,Tue Jan 28 2025 18:40:38 GMT-0600 (Central Standard Time),864709.2999999998,A,c,I,c,672,1,681.7999999998137,864027.5,8021,WL,C,13.0
7,40.269999980926514,immed,19730.000019073486,Tue Jan 28 2025 18:40:38 GMT-0600 (Central Standard Time),864842.7000000002,A,co,I,o,117,1,815.2000000001863,864027.5,8021,WL,C,13.0
7,40.40400004386902,immed,19595.99995613098,Tue Jan 28 2025 18:40:38 GMT-0600 (Central Standard Time),864975.9000000004,A,cor,I,r,120,1,948.4000000003725,864027.5,8021,WL,C,13.0
7,40.65400004386902,immed,19345.99995613098,Tue Jan 28 2025 18:40:38 GMT-0600 (Central Standard Time),865225.7999999998,A,corn,I,n,235,1,1198.2999999998137,864027.5,8021,WL,C,13.0
7,41.187000036239624,immed,18812.999963760376,Tue Jan 28 2025 18:40:38 GMT-0600 (Central Standard Time),865758.9000000004,A,cornenter,I,enter,521,1,1731.4000000003725,864027.5,8021,WL,C,13.0
7,42.187000036239624,immed,17812.999963760376,Tue Jan 28 2025 18:40:38 GMT-0600 (Central Standard Time),866758.9000000004,A,c,I,c,980,1,999.6000000005588,865759.2999999998,8021,WL,C,14.0
7,42.3529999256134,immed,17647.000074386597,Tue Jan 28 2025 18:40:38 GMT-0600 (Central Standard Time),866925.7000000002,A,ca,I,a,156,1,1166.4000000003725,865759.2999999998,8021,WL,C,14.0
7,42.5699999332428,immed,17430.000066757202,Tue Jan 28 2025 18:40:38 GMT-0600 (Central Standard Time),867141.7999999998,A,cal,I,l,197,1,1382.5,865759.2999999998,8021,WL,C,14.0
7,42.753000020980835,immed,17246.999979019165,Tue Jan 28 2025 18:40:38 GMT-0600 (Central Standard Time),867325.5,A,call,I,l,165,1,1566.2000000001863,865759.2999999998,8021,WL,C,14.0
7,43.13599991798401,immed,16864.00008201599,Tue Jan 28 2025 18:40:38 GMT-0600 (Central Standard Time),867708.5,A,cal,I,backspace,365,1,1949.2000000001863,865759.2999999998,8021,WL,C,14.0
7,43.30299997329712,immed,16697.00002670288,Tue Jan 28 2025 18:40:38 GMT-0600 (Central Standard Time),867875.2000000002,A,ca,I,backspace,150,1,2115.9000000003725,865759.2999999998,8021,WL,C,14.0
7,43.670000076293945,immed,16329.999923706055,Tue Jan 28 2025 18:40:38 GMT-0600 (Central Standard Time),868242.2000000002,A,cat,I,t,360,1,2482.9000000003725,865759.2999999998,8021,WL,C,14.0
7,43.819000005722046,immed,16180.999994277954,Tue Jan 28 2025 18:40:38 GMT-0600 (Central Standard Time),868391.6000000006,A,catt,I,t,137,1,2632.300000000745,865759.2999999998,8021,WL,C,14.0
7,44.01900005340576,immed,15980.999946594238,Tue Jan 28 2025 18:40:38 GMT-0600 (Central Standard Time),868591.5,A,cattl,I,l,187,1,2832.2000000001863,865759.2999999998,8021,WL,C,14.0
7,44.20300006866455,immed,15796.99993133545,Tue Jan 28 2025 18:40:38 GMT-0600 (Central Standard Time),868775.0,A,cattle,I,e,163,1,3015.7000000001863,865759.2999999998,8021,WL,C,14.0
7,44.651999950408936,immed,15348.000049591064,Tue Jan 28 2025 18:40:38 GMT-0600 (Central Standard Time),869224.4000000004,A,cattleenter,I,enter,428,1,3465.100000000559,865759.2999999998,8021,WL,C,14.0
7,48.151000022888184,immed,11848.999977111816,Tue Jan 28 2025 18:40:38 GMT-0600 (Central Standard Time),872723.6000000006,A,s,I,s,3490,1,3499.0,869224.6000000006,8021,WL,C,15.0
7,48.318000078201294,immed,11681.999921798706,Tue Jan 28 2025 18:40:38 GMT-0600 (Central Standard Time),872890.1000000006,A,sh,I,h,159,1,3665.5,869224.6000000006,8021,WL,C,15.0
