Q,Q1,Q2,Q3,Q4,acc_sum,block,block_c,correct,correct_response,datetime,endtime,project,response,response_time,row_sel,session_number,squiggle1,squiggle1x,squiggle1y,squiggle2,squiggle2x,squiggle2y,squiggle3,squiggle3x,squiggle3y,squiggle4,squiggle4x,squiggle4y,start_end,starttime,subject_id,target_congruent,task,task_vers,testsquiggle,testsquigglex,testsquiggley,time_practice_delay,time_practice_fixation,time_practice_stimuli,time_practice_study,time_test_delay,time_test_fixation,time_test_stimuli,time_test_study,trial
1,1,0,0,0,0,prac,1,0,z,Wed Mar 05 2025 18:24:34 GMT-0600 (Central Standard Time),166226.29999998212,O,None,2015,1,1,116.bmp,-120,-120,117.bmp,120,-120,118.bmp,-120,120,119.bmp,120,120,10827.199999988079,155399.09999999404,7083,yes,SM,A,116.bmp,-120,-120,158512,152483,160528,154497,,,,,1
3,0,0,1,0,1,prac,1,1,m,Wed Mar 05 2025 18:24:34 GMT-0600 (Central Standard Time),176189.79999998212,O,m,1144,2,1,120.bmp,-120,-120,121.bmp,120,-120,122.bmp,-120,120,123.bmp,120,120,9960.09999999404,166229.69999998808,7083,no,SM,A,123.bmp,-120,120,169342,163314,171358,165327,,,,,2
4,0,0,0,1,2,prac,1,1,m,Wed Mar 05 2025 18:24:34 GMT-0600 (Central Standard Time),185936.79999998212,O,m,925,3,1,124.bmp,-120,-120,125.bmp,120,-120,126.bmp,-120,120,127.bmp,120,120,9743.40000000596,176193.39999997616,7083,no,SM,A,124.bmp,120,120,179306,173278,181322,175290,,,,,3
2,0,1,0,0,2,prac,1,0,z,Wed Mar 05 2025 18:24:34 GMT-0600 (Central Standard Time),195783.59999999404,O,m,1046,4,1,128.bmp,-120,-120,129.bmp,120,-120,130.bmp,-120,120,131.bmp,120,120,9841.09999999404,185942.5,7083,yes,SM,A,129.bmp,120,-120,189052,183027,191069,185037,,,,,4
3,0,0,1,0,3,prac,1,1,z,Wed Mar 05 2025 18:24:34 GMT-0600 (Central Standard Time),206346.89999997616,O,z,1746,5,1,132.bmp,-120,-120,133.bmp,120,-120,134.bmp,-120,120,135.bmp,120,120,10559.399999976158,195787.5,7083,yes,SM,A,134.bmp,-120,120,198899,192872,200915,194884,,,,,5
1,1,0,0,0,4,prac,1,1,m,Wed Mar 05 2025 18:24:34 GMT-0600 (Central Standard Time),216443.89999997616,O,m,1280,6,1,136.bmp,-120,-120,137.bmp,120,-120,138.bmp,-120,120,139.bmp,120,120,10093.59999999404,206350.29999998212,7083,no,SM,A,139.bmp,-120,-120,209462,203435,211479,205447,,,,,6
2,0,1,0,0,5,prac,1,1,m,Wed Mar 05 2025 18:24:34 GMT-0600 (Central Standard Time),226524.09999999404,O,m,1180,7,1,140.bmp,-120,-120,141.bmp,120,-120,142.bmp,-120,120,143.bmp,120,120,10076.59999999404,216447.5,7083,no,SM,A,140.bmp,120,-120,219642,213532,221659,215639,,,,,7
4,0,0,0,1,6,prac,1,1,z,Wed Mar 05 2025 18:24:34 GMT-0600 (Central Standard Time),237170.59999999404,O,z,1831,8,1,144.bmp,-120,-120,145.bmp,120,-120,146.bmp,-120,120,147.bmp,120,120,10643.0,226527.59999999404,7083,yes,SM,A,147.bmp,120,120,229640,223612,231656,225625,,,,,8
4,0,0,0,1,1,test,1,1,m,Wed Mar 05 2025 18:24:34 GMT-0600 (Central Standard Time),263995.2999999821,O,m,1631,1,1,148.bmp,-120,-120,149.bmp,120,-120,150.bmp,-120,120,143.bmp,120,120,9677.799999982119,254317.5,7083,no,SM,A,150.bmp,120,120,229640,223612,231656,225625,257431.0,251402.0,259447.0,253416.0,1
2,0,1,0,0,2,test,1,1,m,Wed Mar 05 2025 18:24:34 GMT-0600 (Central Standard Time),273242.59999999404,O,m,1183,2,1,101.bmp,-120,-120,102.bmp,120,-120,103.bmp,-120,120,104.bmp,120,120,9243.700000017881,263998.89999997616,7083,no,SM,A,103.bmp,120,-120,229640,223612,231656,225625,267111.0,261083.0,269128.0,263096.0,2
1,1,0,0,0,3,test,1,1,z,Wed Mar 05 2025 18:24:34 GMT-0600 (Central Standard Time),282439.59999999404,O,z,1143,3,1,105.bmp,-120,-120,106.bmp,120,-120,107.bmp,-120,120,108.bmp,120,120,9193.59999999404,273246.0,7083,yes,SM,A,105.bmp,-120,-120,229640,223612,231656,225625,276358.0,270330.0,278375.0,272343.0,3
3,0,0,1,0,3,test,1,0,m,Wed Mar 05 2025 18:24:34 GMT-0600 (Central Standard Time),292503.09999999404,O,None,2015,4,1,109.bmp,-120,-120,110.bmp,120,-120,111.bmp,-120,120,112.bmp,120,120,10060.0,282443.09999999404,7083,no,SM,A,109.bmp,-120,120,229640,223612,231656,225625,285555.0,279527.0,287572.0,281540.0,4
2,0,1,0,0,3,test,1,0,z,Wed Mar 05 2025 18:24:34 GMT-0600 (Central Standard Time),302566.5,O,None,2015,5,1,113.bmp,-120,-120,114.bmp,120,-120,115.bmp,-120,120,116.bmp,120,120,10059.800000011921,292506.6999999881,7083,yes,SM,A,114.bmp,120,-120,229640,223612,231656,225625,295619.0,289591.0,297635.0,291604.0,5
3,0,0,1,0,4,test,1,1,z,Wed Mar 05 2025 18:24:34 GMT-0600 (Central Standard Time),312463.5,O,z,1843,6,1,117.bmp,-120,-120,118.bmp,120,-120,119.bmp,-120,120,120.bmp,120,120,9893.90000000596,302569.59999999404,7083,yes,SM,A,119.bmp,-120,120,229640,223612,231656,225625,305683.0,299654.0,307699.0,301668.0,6
4,0,0,0,1,5,test,1,1,z,Wed Mar 05 2025 18:24:34 GMT-0600 (Central Standard Time),321860.7999999821,O,z,1347,7,1,121.bmp,-120,-120,122.bmp,120,-120,123.bmp,-120,120,124.bmp,120,120,9393.90000000596,312466.89999997616,7083,yes,SM,A,124.bmp,120,120,229640,223612,231656,225625,315579.0,309551.0,317596.0,311564.0,7
2,0,1,0,0,6,test,1,1,m,Wed Mar 05 2025 18:24:34 GMT-0600 (Central Standard Time),331324.2999999821,O,m,1414,8,1,125.bmp,-120,-120,126.bmp,120,-120,127.bmp,-120,120,128.bmp,120,120,9460.299999982119,321864.0,7083,no,SM,A,125.bmp,120,-120,229640,223612,231656,225625,324976.0,318948.0,326993.0,320961.0,8
3,0,0,1,0,7,test,1,1,m,Wed Mar 05 2025 18:24:34 GMT-0600 (Central Standard Time),340671.39999997616,O,m,1285,9,1,129.bmp,-120,-120,130.bmp,120,-120,131.bmp,-120,120,132.bmp,120,120,9344.09999999404,331327.2999999821,7083,no,SM,A,130.bmp,-120,120,229640,223612,231656,225625,334440.0,328412.0,336458.0,330425.0,9
4,0,0,0,1,8,test,1,1,z,Wed Mar 05 2025 18:24:34 GMT-0600 (Central Standard Time),349868.59999999404,O,z,1140,10,1,137.bmp,-120,-120,138.bmp,120,-120,139.bmp,-120,120,140.bmp,120,120,9193.700000017881,340674.89999997616,7083,yes,SM,A,140.bmp,120,120,229640,223612,231656,225625,343787.0,337759.0,345803.0,339772.0,10
3,0,0,1,0,8,test,1,0,z,Wed Mar 05 2025 18:24:34 GMT-0600 (Central Standard Time),359928.2999999821,O,None,2012,11,1,133.bmp,-120,-120,134.bmp,120,-120,135.bmp,-120,120,136.bmp,120,120,10056.09999999404,349872.1999999881,7083,yes,SM,A,135.bmp,-120,120,229640,223612,231656,225625,352984.0,346957.0,355000.0,348969.0,11
2,0,1,0,0,9,test,1,1,m,Wed Mar 05 2025 18:24:34 GMT-0600 (Central Standard Time),369079.2999999821,O,m,1094,12,1,141.bmp,-120,-120,142.bmp,120,-120,143.bmp,-120,120,144.bmp,120,120,9147.299999982119,359932.0,7083,no,SM,A,141.bmp,120,-120,229640,223612,231656,225625,363048.0,357016.0,365064.0,359033.0,12
3,0,0,1,0,10,test,1,1,m,Wed Mar 05 2025 18:24:34 GMT-0600 (Central Standard Time),378159.89999997616,O,m,1018,13,1,145.bmp,-120,-120,146.bmp,120,-120,147.bmp,-120,120,148.bmp,120,120,9077.299999982119,369082.59999999404,7083,no,SM,A,146.bmp,-120,120,229640,223612,231656,225625,372195.0,366167.0,374212.0,368180.0,13
1,1,0,0,0,11,test,1,1,z,Wed Mar 05 2025 18:24:34 GMT-0600 (Central Standard Time),387541.0,O,z,1322,14,1,149.bmp,-120,-120,150.bmp,120,-120,104.bmp,-120,120,101.bmp,120,120,9377.800000011921,378163.1999999881,7083,yes,SM,A,149.bmp,-120,-120,229640,223612,231656,225625,381275.0,375247.0,383292.0,377260.0,14
4,0,0,0,1,11,test,1,0,m,Wed Mar 05 2025 18:24:34 GMT-0600 (Central Standard Time),397470.2999999821,O,z,1879,15,1,110.bmp,-120,-120,111.bmp,120,-120,112.bmp,-120,120,113.bmp,120,120,9925.90000000596,387544.39999997616,7083,no,SM,A,111.bmp,120,120,229640,223612,231656,225625,390656.0,384629.0,392672.0,386640.0,15
1,1,0,0,0,12,test,1,1,m,Wed Mar 05 2025 18:24:34 GMT-0600 (Central Standard Time),407233.7999999821,O,m,1701,16,1,102.bmp,-120,-120,103.bmp,120,-120,104.bmp,-120,120,105.bmp,120,120,9759.90000000596,397473.89999997616,7083,no,SM,A,105.bmp,-120,-120,229640,223612,231656,225625,400586.0,394558.0,402602.0,396571.0,16
3,0,0,1,0,13,test,1,1,m,Wed Mar 05 2025 18:24:34 GMT-0600 (Central Standard Time),416164.1999999881,O,m,881,17,1,122.bmp,-120,-120,123.bmp,120,-120,124.bmp,-120,120,125.bmp,120,120,8927.0,407237.1999999881,7083,no,SM,A,122.bmp,-120,120,229640,223612,231656,225625,410350.0,404322.0,412366.0,406334.0,17
1,1,0,0,0,14,test,1,1,z,Wed Mar 05 2025 18:24:34 GMT-0600 (Central Standard Time),425478.1999999881,O,z,1255,18,1,106.bmp,-120,-120,107.bmp,120,-120,108.bmp,-120,120,109.bmp,120,120,9311.199999988079,416167.0,7083,yes,SM,A,106.bmp,-120,-120,229640,223612,231656,225625,419280.0,413251.0,421296.0,415265.0,18
2,0,1,0,0,14,test,1,0,z,Wed Mar 05 2025 18:24:34 GMT-0600 (Central Standard Time),435541.59999999404,O,None,2016,19,1,126.bmp,-120,-120,127.bmp,120,-120,128.bmp,-120,120,129.bmp,120,120,10060.09999999404,425481.5,7083,yes,SM,A,127.bmp,120,-120,229640,223612,231656,225625,428593.0,422566.0,430610.0,424579.0,19
3,0,0,1,0,15,test,1,1,z,Wed Mar 05 2025 18:24:34 GMT-0600 (Central Standard Time),444588.7999999821,O,z,989,20,1,130.bmp,-120,-120,131.bmp,120,-120,132.bmp,-120,120,133.bmp,120,120,9043.40000000596,435545.39999997616,7083,yes,SM,A,132.bmp,-120,120,229640,223612,231656,225625,438657.0,432630.0,440674.0,434642.0,20
1,1,0,0,0,16,test,1,1,m,Wed Mar 05 2025 18:24:34 GMT-0600 (Central Standard Time),454046.2999999821,O,m,1263,21,1,114.bmp,-120,-120,115.bmp,120,-120,116.bmp,-120,120,117.bmp,120,120,9454.199999988079,444592.09999999404,7083,no,SM,A,116.bmp,-120,-120,229640,223612,231656,225625,447705.0,441676.0,449721.0,443689.0,21
4,0,0,0,1,17,test,1,1,z,Wed Mar 05 2025 18:24:34 GMT-0600 (Central Standard Time),463966.2999999821,O,z,1879,22,1,118.bmp,-120,-120,119.bmp,120,-120,120.bmp,-120,120,121.bmp,120,120,9916.799999982119,454049.5,7083,yes,SM,A,121.bmp,120,120,229640,223612,231656,225625,457152.0,451134.0,459168.0,453136.0,22
1,1,0,0,0,18,test,1,1,m,Wed Mar 05 2025 18:24:34 GMT-0600 (Central Standard Time),473696.39999997616,O,m,1677,23,1,134.bmp,-120,-120,135.bmp,120,-120,136.bmp,-120,120,137.bmp,120,120,9726.899999976158,463969.5,7083,no,SM,A,137.bmp,-120,-120,229640,223612,231656,225625,467082.0,461054.0,469098.0,463067.0,23
2,0,1,0,0,19,test,1,1,z,Wed Mar 05 2025 18:24:34 GMT-0600 (Central Standard Time),483643.1999999881,O,z,1899,24,1,142.bmp,-120,-120,143.bmp,120,-120,144.bmp,-120,120,145.bmp,120,120,9943.5,473699.6999999881,7083,yes,SM,A,143.bmp,120,-120,229640,223612,231656,225625,476812.0,470784.0,478828.0,472797.0,24
4,0,0,0,1,20,test,1,1,m,Wed Mar 05 2025 18:24:34 GMT-0600 (Central Standard Time),493340.2999999821,O,m,1640,25,1,146.bmp,-120,-120,147.bmp,120,-120,148.bmp,-120,120,149.bmp,120,120,9694.40000000596,483645.89999997616,7083,no,SM,A,148.bmp,120,120,229640,223612,231656,225625,486759.0,480730.0,488775.0,482744.0,25
1,1,0,0,0,21,test,1,1,z,Wed Mar 05 2025 18:24:34 GMT-0600 (Central Standard Time),502887.2999999821,O,z,1495,26,1,138.bmp,-120,-120,139.bmp,120,-120,140.bmp,-120,120,141.bmp,120,120,9543.59999999404,493343.6999999881,7083,yes,SM,A,138.bmp,-120,-120,229640,223612,231656,225625,496456.0,490428.0,498472.0,492441.0,26
4,0,0,0,1,21,test,1,0,z,Wed Mar 05 2025 18:24:34 GMT-0600 (Central Standard Time),512950.6999999881,O,None,2016,27,1,150.bmp,-120,-120,111.bmp,120,-120,101.bmp,-120,120,102.bmp,120,120,10059.699999988079,502891.0,7083,yes,SM,A,102.bmp,120,120,229640,223612,231656,225625,506003.0,499975.0,508019.0,501988.0,27
3,0,0,1,0,21,test,1,0,m,Wed Mar 05 2025 18:24:34 GMT-0600 (Central Standard Time),522397.7999999821,O,z,1396,28,1,103.bmp,-120,-120,104.bmp,120,-120,105.bmp,-120,120,106.bmp,120,120,9444.199999988079,512953.59999999404,7083,no,SM,A,103.bmp,-120,120,229640,223612,231656,225625,516066.0,510038.0,518083.0,512052.0,28
2,0,1,0,0,22,test,1,1,z,Wed Mar 05 2025 18:24:34 GMT-0600 (Central Standard Time),531978.099999994,O,z,1416,29,1,107.bmp,-120,-120,108.bmp,120,-120,109.bmp,-120,120,110.bmp,120,120,9576.90000000596,522401.1999999881,7083,yes,SM,A,108.bmp,120,-120,229640,223612,231656,225625,525613.0,519485.0,527630.0,521610.0,29
3,0,0,1,0,23,test,1,1,z,Wed Mar 05 2025 18:24:34 GMT-0600 (Central Standard Time),541708.2999999821,O,z,1673,30,1,111.bmp,-120,-120,112.bmp,120,-120,113.bmp,-120,120,114.bmp,120,120,9726.799999982119,531981.5,7083,yes,SM,A,113.bmp,-120,120,229640,223612,231656,225625,535095.0,529066.0,537110.0,531079.0,30
1,1,0,0,0,24,test,1,1,z,Wed Mar 05 2025 18:24:34 GMT-0600 (Central Standard Time),551305.5,O,z,1535,31,1,115.bmp,-120,-120,116.bmp,120,-120,117.bmp,-120,120,118.bmp,120,120,9593.800000011921,541711.6999999881,7083,yes,SM,A,115.bmp,-120,-120,229640,223612,231656,225625,544824.0,538796.0,546840.0,540809.0,31
2,0,1,0,0,25,test,1,1,m,Wed Mar 05 2025 18:24:34 GMT-0600 (Central Standard Time),560385.7999999821,O,m,1017,32,1,119.bmp,-120,-120,120.bmp,120,-120,121.bmp,-120,120,122.bmp,120,120,9077.0,551308.7999999821,7083,no,SM,A,119.bmp,120,-120,229640,223612,231656,225625,554422.0,548393.0,556437.0,550406.0,32
4,0,0,0,1,25,test,1,0,z,Wed Mar 05 2025 18:24:34 GMT-0600 (Central Standard Time),569650.0,O,m,1209,33,1,131.bmp,-120,-120,132.bmp,120,-120,133.bmp,-120,120,134.bmp,120,120,9260.90000000596,560389.099999994,7083,yes,SM,A,134.bmp,120,120,229640,223612,231656,225625,563501.0,557473.0,565518.0,559487.0,33
2,0,1,0,0,26,test,1,1,z,Wed Mar 05 2025 18:24:34 GMT-0600 (Central Standard Time),578946.7999999821,O,z,1140,34,1,123.bmp,-120,-120,124.bmp,120,-120,125.bmp,-120,120,126.bmp,120,120,9293.59999999404,569653.1999999881,7083,yes,SM,A,124.bmp,120,-120,229640,223612,231656,225625,572865.0,566737.0,574882.0,568862.0,34
4,0,0,0,1,27,test,1,1,m,Wed Mar 05 2025 18:24:34 GMT-0600 (Central Standard Time),588093.7999999821,O,m,1088,35,1,127.bmp,-120,-120,128.bmp,120,-120,129.bmp,-120,120,130.bmp,120,120,9143.699999988079,578950.099999994,7083,no,SM,A,129.bmp,120,120,229640,223612,231656,225625,582062.0,576034.0,584079.0,578047.0,35
3,0,0,1,0,28,test,1,1,m,Wed Mar 05 2025 18:24:34 GMT-0600 (Central Standard Time),597890.6999999881,O,m,1733,36,1,135.bmp,-120,-120,136.bmp,120,-120,137.bmp,-120,120,138.bmp,120,120,9793.5,588097.1999999881,7083,no,SM,A,135.bmp,-120,120,229640,223612,231656,225625,591210.0,585181.0,593226.0,587194.0,36
1,1,0,0,0,29,test,1,1,m,Wed Mar 05 2025 18:24:34 GMT-0600 (Central Standard Time),607071.099999994,O,m,1128,37,1,139.bmp,-120,-120,140.bmp,120,-120,141.bmp,-120,120,142.bmp,120,120,9177.59999999404,597893.5,7083,no,SM,A,140.bmp,-120,-120,229640,223612,231656,225625,601006.0,594978.0,603023.0,596991.0,37
2,0,1,0,0,30,test,1,1,m,Wed Mar 05 2025 18:24:34 GMT-0600 (Central Standard Time),616118.7999999821,O,m,996,38,1,143.bmp,-120,-120,144.bmp,120,-120,145.bmp,-120,120,146.bmp,120,120,9044.699999988079,607074.099999994,7083,no,SM,A,145.bmp,120,-120,229640,223612,231656,225625,610187.0,604158.0,612203.0,606172.0,38
4,0,0,0,1,31,test,1,1,z,Wed Mar 05 2025 18:24:34 GMT-0600 (Central Standard Time),625998.6999999881,O,z,1829,39,1,147.bmp,-120,-120,148.bmp,120,-120,149.bmp,-120,120,150.bmp,120,120,9876.699999988079,616122.0,7083,yes,SM,A,150.bmp,120,120,229640,223612,231656,225625,619234.0,613206.0,621250.0,615219.0,39
3,0,0,1,0,32,test,1,1,m,Wed Mar 05 2025 18:24:34 GMT-0600 (Central Standard Time),635345.6999999881,O,m,1293,40,1,104.bmp,-120,-120,105.bmp,120,-120,106.bmp,-120,120,107.bmp,120,120,9343.300000011921,626002.3999999762,7083,no,SM,A,105.bmp,-120,120,229640,223612,231656,225625,629114.0,623087.0,631130.0,625099.0,40
1,1,0,0,0,33,test,1,1,z,Wed Mar 05 2025 18:24:34 GMT-0600 (Central Standard Time),644942.6999999881,O,z,1537,41,1,108.bmp,-120,-120,109.bmp,120,-120,110.bmp,-120,120,111.bmp,120,120,9593.90000000596,635348.7999999821,7083,yes,SM,A,108.bmp,-120,-120,229640,223612,231656,225625,638461.0,632433.0,640478.0,634446.0,41
4,0,0,0,1,34,test,1,1,z,Wed Mar 05 2025 18:24:34 GMT-0600 (Central Standard Time),654973.0,O,z,1979,42,1,112.bmp,-120,-120,113.bmp,120,-120,114.bmp,-120,120,115.bmp,120,120,10027.200000017881,644945.7999999821,7083,yes,SM,A,115.bmp,120,120,229640,223612,231656,225625,648058.0,642030.0,650075.0,644043.0,42
1,1,0,0,0,35,test,1,1,z,Wed Mar 05 2025 18:24:34 GMT-0600 (Central Standard Time),664203.2999999821,O,z,1182,43,1,116.bmp,-120,-120,117.bmp,120,-120,118.bmp,-120,120,119.bmp,120,120,9227.09999999404,654976.1999999881,7083,yes,SM,A,116.bmp,-120,-120,229640,223612,231656,225625,658089.0,652060.0,660105.0,654074.0,43
4,0,0,0,1,36,test,1,1,m,Wed Mar 05 2025 18:24:34 GMT-0600 (Central Standard Time),673567.099999994,O,m,1312,44,1,104.bmp,-120,-120,101.bmp,120,-120,102.bmp,-120,120,103.bmp,120,120,9361.200000017881,664205.8999999762,7083,no,SM,A,104.bmp,120,120,229640,223612,231656,225625,667319.0,661290.0,669335.0,663304.0,44
1,1,0,0,0,37,test,1,1,m,Wed Mar 05 2025 18:24:34 GMT-0600 (Central Standard Time),682964.2999999821,O,m,1340,45,1,128.bmp,-120,-120,129.bmp,120,-120,130.bmp,-120,120,131.bmp,120,120,9393.799999982119,673570.5,7083,no,SM,A,131.bmp,-120,-120,229640,223612,231656,225625,676683.0,670655.0,678699.0,672668.0,45
1,1,0,0,0,38,test,1,1,m,Wed Mar 05 2025 18:24:34 GMT-0600 (Central Standard Time),691994.7999999821,O,m,967,46,1,120.bmp,-120,-120,121.bmp,120,-120,122.bmp,-120,120,123.bmp,120,120,9027.5,682967.2999999821,7083,no,SM,A,121.bmp,-120,-120,229640,223612,231656,225625,686080.0,680052.0,688096.0,682064.0,46
3,0,0,1,0,39,test,1,1,z,Wed Mar 05 2025 18:24:34 GMT-0600 (Central Standard Time),701574.8999999762,O,z,1527,47,1,124.bmp,-120,-120,125.bmp,120,-120,126.bmp,-120,120,127.bmp,120,120,9576.59999999404,691998.2999999821,7083,yes,SM,A,126.bmp,-120,120,229640,223612,231656,225625,695111.0,689083.0,697127.0,691095.0,47
3,0,0,1,0,40,test,1,1,z,Wed Mar 05 2025 18:24:34 GMT-0600 (Central Standard Time),711555.3999999762,O,z,1916,48,1,140.bmp,-120,-120,141.bmp,120,-120,142.bmp,-120,120,143.bmp,120,120,9977.299999982119,701578.099999994,7083,yes,SM,A,142.bmp,-120,120,229640,223612,231656,225625,704691.0,698662.0,706707.0,700675.0,48
2,0,1,0,0,40,test,1,0,z,Wed Mar 05 2025 18:24:34 GMT-0600 (Central Standard Time),721401.8999999762,O,m,1783,49,1,136.bmp,-120,-120,137.bmp,120,-120,138.bmp,-120,120,139.bmp,120,120,9843.09999999404,711558.7999999821,7083,yes,SM,A,137.bmp,120,-120,229640,223612,231656,225625,714671.0,708643.0,716687.0,710656.0,49
3,0,0,1,0,40,test,1,0,m,Wed Mar 05 2025 18:24:34 GMT-0600 (Central Standard Time),731465.599999994,O,None,2016,50,1,132.bmp,-120,-120,133.bmp,120,-120,134.bmp,-120,120,135.bmp,120,120,10060.700000017881,721404.8999999762,7083,no,SM,A,132.bmp,-120,120,229640,223612,231656,225625,724518.0,718489.0,726534.0,720503.0,50
2,0,1,0,0,41,test,1,1,z,Wed Mar 05 2025 18:24:34 GMT-0600 (Central Standard Time),741462.599999994,O,z,1945,51,1,144.bmp,-120,-120,145.bmp,120,-120,146.bmp,-120,120,147.bmp,120,120,9993.90000000596,731468.6999999881,7083,yes,SM,A,145.bmp,120,-120,229640,223612,231656,225625,734581.0,728553.0,736598.0,730566.0,51
4,0,0,0,1,42,test,1,1,m,Wed Mar 05 2025 18:24:34 GMT-0600 (Central Standard Time),751109.5,O,m,1597,52,1,148.bmp,-120,-120,149.bmp,120,-120,150.bmp,-120,120,131.bmp,120,120,9643.100000023842,741466.3999999762,7083,no,SM,A,148.bmp,120,120,229640,223612,231656,225625,744578.0,738551.0,746594.0,740564.0,52
3,0,0,1,0,43,test,1,1,z,Wed Mar 05 2025 18:24:34 GMT-0600 (Central Standard Time),760906.599999994,O,z,1733,53,1,101.bmp,-120,-120,102.bmp,120,-120,103.bmp,-120,120,104.bmp,120,120,9793.90000000596,751112.6999999881,7083,yes,SM,A,103.bmp,-120,120,229640,223612,231656,225625,754225.0,748197.0,756241.0,750210.0,53
1,1,0,0,0,43,test,1,0,m,Wed Mar 05 2025 18:24:34 GMT-0600 (Central Standard Time),770969.7999999821,O,None,2016,54,1,105.bmp,-120,-120,106.bmp,120,-120,107.bmp,-120,120,108.bmp,120,120,10059.699999988079,760910.099999994,7083,no,SM,A,107.bmp,-120,-120,229640,223612,231656,225625,764022.0,757994.0,766038.0,760007.0,54
4,0,0,0,1,44,test,1,1,z,Wed Mar 05 2025 18:24:34 GMT-0600 (Central Standard Time),780300.2999999821,O,z,1281,55,1,109.bmp,-120,-120,110.bmp,120,-120,111.bmp,-120,120,112.bmp,120,120,9326.699999988079,770973.599999994,7083,yes,SM,A,112.bmp,120,120,229640,223612,231656,225625,774086.0,768058.0,776102.0,770070.0,55
2,0,1,0,0,45,test,1,1,m,Wed Mar 05 2025 18:24:34 GMT-0600 (Central Standard Time),789497.3999999762,O,m,1143,56,1,113.bmp,-120,-120,114.bmp,120,-120,115.bmp,-120,120,116.bmp,120,120,9194.09999999404,780303.2999999821,7083,no,SM,A,113.bmp,120,-120,229640,223612,231656,225625,783416.0,777388.0,785432.0,779401.0,56
4,0,0,0,1,46,test,1,1,m,Wed Mar 05 2025 18:24:34 GMT-0600 (Central Standard Time),799211.099999994,O,m,1658,57,1,117.bmp,-120,-120,118.bmp,120,-120,119.bmp,-120,120,120.bmp,120,120,9710.5,789500.599999994,7083,no,SM,A,118.bmp,120,120,229640,223612,231656,225625,792613.0,786585.0,794629.0,788598.0,57
3,0,0,1,0,47,test,1,1,z,Wed Mar 05 2025 18:24:34 GMT-0600 (Central Standard Time),809007.7999999821,O,z,1735,58,1,121.bmp,-120,-120,122.bmp,120,-120,123.bmp,-120,120,124.bmp,120,120,9793.5,799214.2999999821,7083,yes,SM,A,123.bmp,-120,120,229640,223612,231656,225625,802327.0,796299.0,804344.0,798312.0,58
2,0,1,0,0,48,test,1,1,m,Wed Mar 05 2025 18:24:34 GMT-0600 (Central Standard Time),818654.8999999762,O,m,1595,59,1,125.bmp,-120,-120,126.bmp,120,-120,127.bmp,-120,120,128.bmp,120,120,9644.199999988079,809010.6999999881,7083,no,SM,A,128.bmp,120,-120,229640,223612,231656,225625,812124.0,806095.0,814140.0,808109.0,59
1,1,0,0,0,49,test,1,1,z,Wed Mar 05 2025 18:24:34 GMT-0600 (Central Standard Time),828251.8999999762,O,z,1549,60,1,129.bmp,-120,-120,130.bmp,120,-120,131.bmp,-120,120,132.bmp,120,120,9592.799999982119,818659.099999994,7083,yes,SM,A,129.bmp,-120,-120,229640,223612,231656,225625,821770.0,815743.0,823786.0,817756.0,60
2,0,1,0,0,50,test,1,1,z,Wed Mar 05 2025 18:24:34 GMT-0600 (Central Standard Time),837515.6999999881,O,z,1206,61,1,133.bmp,-120,-120,134.bmp,120,-120,135.bmp,-120,120,136.bmp,120,120,9261.09999999404,828254.599999994,7083,yes,SM,A,134.bmp,120,-120,229640,223612,231656,225625,831367.0,825339.0,833384.0,827353.0,61
4,0,0,0,1,50,test,1,0,z,Wed Mar 05 2025 18:24:34 GMT-0600 (Central Standard Time),847579.5,O,None,2015,62,1,141.bmp,-120,-120,142.bmp,120,-120,143.bmp,-120,120,144.bmp,120,120,10060.800000011921,837518.6999999881,7083,yes,SM,A,144.bmp,120,120,229640,223612,231656,225625,840631.0,834603.0,842648.0,836616.0,62
1,1,0,0,0,51,test,1,1,m,Wed Mar 05 2025 18:24:34 GMT-0600 (Central Standard Time),857259.599999994,O,m,1623,63,1,145.bmp,-120,-120,146.bmp,120,-120,147.bmp,-120,120,148.bmp,120,120,9677.09999999404,847582.5,7083,no,SM,A,145.bmp,-120,120,229640,223612,231656,225625,850695.0,844667.0,852711.0,846680.0,63
2,0,1,0,0,51,test,1,0,z,Wed Mar 05 2025 18:24:34 GMT-0600 (Central Standard Time),866523.1999999881,O,m,1215,64,1,149.bmp,-120,-120,150.bmp,120,-120,112.bmp,-120,120,101.bmp,120,120,9260.59999999404,857262.599999994,7083,yes,SM,A,150.bmp,120,-120,229640,223612,231656,225625,860375.0,854347.0,862392.0,856360.0,64
4,0,0,0,1,52,test,1,1,m,Wed Mar 05 2025 18:24:34 GMT-0600 (Central Standard Time),876004.6999999881,O,m,1423,65,1,102.bmp,-120,-120,103.bmp,120,-120,104.bmp,-120,120,105.bmp,120,120,9477.5,866527.1999999881,7083,no,SM,A,104.bmp,120,120,229640,223612,231656,225625,869640.0,863611.0,871655.0,865624.0,65
3,0,0,1,0,53,test,1,1,m,Wed Mar 05 2025 18:24:34 GMT-0600 (Central Standard Time),885384.0,O,m,1320,66,1,106.bmp,-120,-120,107.bmp,120,-120,108.bmp,-120,120,109.bmp,120,120,9375.90000000596,876008.099999994,7083,no,SM,A,109.bmp,-120,120,229640,223612,231656,225625,879119.0,873092.0,881135.0,875104.0,66
2,0,1,0,0,54,test,1,1,m,Wed Mar 05 2025 18:24:34 GMT-0600 (Central Standard Time),894415.599999994,O,m,978,67,1,137.bmp,-120,-120,138.bmp,120,-120,139.bmp,-120,120,140.bmp,120,120,9028.40000000596,885387.1999999881,7083,no,SM,A,139.bmp,120,-120,229640,223612,231656,225625,888500.0,882471.0,890516.0,884485.0,67
3,0,0,1,0,54,test,1,0,z,Wed Mar 05 2025 18:24:34 GMT-0600 (Central Standard Time),904477.8999999762,O,None,2015,68,1,110.bmp,-120,-120,111.bmp,120,-120,112.bmp,-120,120,113.bmp,120,120,10058.799999982119,894419.099999994,7083,yes,SM,A,112.bmp,-120,120,229640,223612,231656,225625,897530.0,891503.0,899547.0,893515.0,68
1,1,0,0,0,55,test,1,1,m,Wed Mar 05 2025 18:24:34 GMT-0600 (Central Standard Time),913541.5,O,m,1004,69,1,114.bmp,-120,-120,115.bmp,120,-120,116.bmp,-120,120,117.bmp,120,120,9060.40000000596,904481.099999994,7083,no,SM,A,115.bmp,-120,-120,229640,223612,231656,225625,907594.0,901565.0,909610.0,903579.0,69
2,0,1,0,0,56,test,1,1,m,Wed Mar 05 2025 18:24:34 GMT-0600 (Central Standard Time),922822.599999994,O,m,1220,70,1,118.bmp,-120,-120,119.bmp,120,-120,120.bmp,-120,120,121.bmp,120,120,9277.09999999404,913545.5,7083,no,SM,A,120.bmp,120,-120,229640,223612,231656,225625,916658.0,910630.0,918674.0,912642.0,70
4,0,0,0,1,57,test,1,1,z,Wed Mar 05 2025 18:24:34 GMT-0600 (Central Standard Time),932685.8999999762,O,z,1804,71,1,122.bmp,-120,-120,123.bmp,120,-120,124.bmp,-120,120,125.bmp,120,120,9859.799999982119,922826.099999994,7083,yes,SM,A,125.bmp,120,120,229640,223612,231656,225625,925938.0,919910.0,927954.0,921933.0,71
1,1,0,0,0,57,test,1,0,z,Wed Mar 05 2025 18:24:34 GMT-0600 (Central Standard Time),942416.2999999821,O,m,1668,72,1,126.bmp,-120,-120,127.bmp,120,-120,128.bmp,-120,120,129.bmp,120,120,9727.40000000596,932688.8999999762,7083,yes,SM,A,126.bmp,-120,-120,229640,223612,231656,225625,935802.0,929773.0,937818.0,931786.0,72
2,0,1,0,0,58,test,1,1,z,Wed Mar 05 2025 18:24:34 GMT-0600 (Central Standard Time),952096.5,O,z,1627,73,1,130.bmp,-120,-120,131.bmp,120,-120,132.bmp,-120,120,133.bmp,120,120,9676.600000023842,942419.8999999762,7083,yes,SM,A,131.bmp,120,-120,229640,223612,231656,225625,945532.0,939504.0,947548.0,941517.0,73
4,0,0,0,1,59,test,1,1,m,Wed Mar 05 2025 18:24:34 GMT-0600 (Central Standard Time),961493.6999999881,O,m,1338,74,1,134.bmp,-120,-120,135.bmp,120,-120,136.bmp,-120,120,137.bmp,120,120,9394.199999988079,952099.5,7083,no,SM,A,136.bmp,120,120,229640,223612,231656,225625,955212.0,949184.0,957228.0,951197.0,74
2,0,1,0,0,60,test,1,1,m,Wed Mar 05 2025 18:24:34 GMT-0600 (Central Standard Time),970957.1999999881,O,m,1412,75,1,138.bmp,-120,-120,139.bmp,120,-120,140.bmp,-120,120,141.bmp,120,120,9460.199999988079,961497.0,7083,no,SM,A,141.bmp,120,-120,229640,223612,231656,225625,964609.0,958581.0,966626.0,960594.0,75
1,1,0,0,0,61,test,1,1,z,Wed Mar 05 2025 18:24:34 GMT-0600 (Central Standard Time),980220.8999999762,O,z,1206,76,1,142.bmp,-120,-120,143.bmp,120,-120,144.bmp,-120,120,145.bmp,120,120,9256.199999988079,970964.6999999881,7083,yes,SM,A,142.bmp,-120,-120,229640,223612,231656,225625,974073.0,968049.0,976089.0,970058.0,76
3,0,0,1,0,62,test,1,1,z,Wed Mar 05 2025 18:24:34 GMT-0600 (Central Standard Time),990017.8999999762,O,z,1742,77,1,150.bmp,-120,-120,111.bmp,120,-120,101.bmp,-120,120,102.bmp,120,120,9793.199999988079,980224.6999999881,7083,yes,SM,A,101.bmp,-120,120,229640,223612,231656,225625,983337.0,977309.0,985353.0,979321.0,77
1,1,0,0,0,63,test,1,1,m,Wed Mar 05 2025 18:24:34 GMT-0600 (Central Standard Time),999164.8999999762,O,m,1096,78,1,146.bmp,-120,-120,147.bmp,120,-120,148.bmp,-120,120,149.bmp,120,120,9143.799999982119,990021.099999994,7083,no,SM,A,147.bmp,-120,-120,229640,223612,231656,225625,993133.0,987105.0,995150.0,989118.0,78
4,0,0,0,1,64,test,1,1,m,Wed Mar 05 2025 18:24:34 GMT-0600 (Central Standard Time),1008128.7999999821,O,m,901,79,1,107.bmp,-120,-120,108.bmp,120,-120,109.bmp,-120,120,110.bmp,120,120,8960.699999988079,999168.099999994,7083,no,SM,A,107.bmp,120,120,229640,223612,231656,225625,1002281.0,996252.0,1004297.0,998266.0,79
3,0,0,1,0,65,test,1,1,m,Wed Mar 05 2025 18:24:34 GMT-0600 (Central Standard Time),1017192.6999999881,O,m,1002,80,1,103.bmp,-120,-120,104.bmp,120,-120,105.bmp,-120,120,106.bmp,120,120,9061.0,1008131.6999999881,7083,no,SM,A,106.bmp,-120,120,229640,223612,231656,225625,1011245.0,1005216.0,1013261.0,1007229.0,80
