block_c,block_dur,condition,countdown,datetime,endtime,list,multichar_response,project,response,response_time,session_number,start_end,starttime,subject_id,task,task_vers,trial
,,,,Thu Apr 03 2025 19:13:05 GMT-0500 (Central Daylight Time),,,,I,space,334,1,,,8037,WL,B,
prac,,0,,Thu Apr 03 2025 19:13:05 GMT-0500 (Central Daylight Time),,NA,b,I,b,7699,1,,,8037,WL,B,1.0
prac,,0,,Thu Apr 03 2025 19:13:05 GMT-0500 (Central Daylight Time),,NA,bo,I,o,732,1,,,8037,WL,B,1.0
prac,,0,,Thu Apr 03 2025 19:13:05 GMT-0500 (Central Daylight Time),,NA,boo,I,o,199,1,,,8037,WL,B,1.0
prac,,0,,Thu Apr 03 2025 19:13:05 GMT-0500 (Central Daylight Time),,NA,boos,I,s,198,1,,,8037,WL,B,1.0
prac,,0,,Thu Apr 03 2025 19:13:05 GMT-0500 (Central Daylight Time),,NA,boost,I,t,254,1,,,8037,WL,B,1.0
prac,,0,,Thu Apr 03 2025 19:13:05 GMT-0500 (Central Daylight Time),,NA,boostenter,I,enter,6307,1,,,8037,WL,B,1.0
1,1.5170001983642578,learn,58482.99980163574,Thu Apr 03 2025 19:13:05 GMT-0500 (Central Daylight Time),162276.40000000596,A,s,I,s,1508,1,1516.2000000029802,160760.20000000298,8037,WL,B,1.0
1,1.9660000801086426,learn,58033.99991989136,Thu Apr 03 2025 19:13:05 GMT-0500 (Central Daylight Time),162726.10000000894,A,st,I,t,439,1,1965.9000000059605,160760.20000000298,8037,WL,B,1.0
1,2.25,learn,57750.0,Thu Apr 03 2025 19:13:05 GMT-0500 (Central Daylight Time),163009.20000000298,A,str,I,r,277,1,2249.0,160760.20000000298,8037,WL,B,1.0
1,2.366000175476074,learn,57633.999824523926,Thu Apr 03 2025 19:13:05 GMT-0500 (Central Daylight Time),163125.70000000298,A,stre,I,e,99,1,2365.5,160760.20000000298,8037,WL,B,1.0
1,2.56600022315979,learn,57433.99977684021,Thu Apr 03 2025 19:13:05 GMT-0500 (Central Daylight Time),163326.0,A,stree,I,e,190,1,2565.7999999970198,160760.20000000298,8037,WL,B,1.0
1,2.883000135421753,learn,57116.99986457825,Thu Apr 03 2025 19:13:05 GMT-0500 (Central Daylight Time),163642.40000000596,A,street,I,t,310,1,2882.2000000029802,160760.20000000298,8037,WL,B,1.0
1,5.0990002155303955,learn,54900.999784469604,Thu Apr 03 2025 19:13:05 GMT-0500 (Central Daylight Time),165858.30000001192,A,streetenter,I,enter,2209,1,5098.100000008941,160760.20000000298,8037,WL,B,1.0
1,5.882000207901001,learn,54117.999792099,Thu Apr 03 2025 19:13:05 GMT-0500 (Central Daylight Time),166641.30000001192,A,g,I,g,769,1,782.5,165858.80000001192,8037,WL,B,2.0
1,6.265000104904175,learn,53734.999895095825,Thu Apr 03 2025 19:13:05 GMT-0500 (Central Daylight Time),167024.70000000298,A,gr,I,r,370,1,1165.8999999910593,165858.80000001192,8037,WL,B,2.0
1,6.332000017166138,learn,53667.99998283386,Thu Apr 03 2025 19:13:05 GMT-0500 (Central Daylight Time),167091.20000000298,A,gre,I,e,51,1,1232.3999999910593,165858.80000001192,8037,WL,B,2.0
1,6.815000057220459,learn,53184.99994277954,Thu Apr 03 2025 19:13:05 GMT-0500 (Central Daylight Time),167574.5,A,gr,I,backspace,464,1,1715.699999988079,165858.80000001192,8037,WL,B,2.0
1,6.998000144958496,learn,53001.999855041504,Thu Apr 03 2025 19:13:05 GMT-0500 (Central Daylight Time),167757.80000001192,A,gra,I,a,173,1,1899.0,165858.80000001192,8037,WL,B,2.0
1,7.265000104904175,learn,52734.999895095825,Thu Apr 03 2025 19:13:05 GMT-0500 (Central Daylight Time),168024.40000000596,A,gras,I,s,254,1,2165.5999999940395,165858.80000001192,8037,WL,B,2.0
1,7.481000185012817,learn,52518.99981498718,Thu Apr 03 2025 19:13:05 GMT-0500 (Central Daylight Time),168241.0,A,grass,I,s,195,1,2382.199999988079,165858.80000001192,8037,WL,B,2.0
1,7.981000185012817,learn,52018.99981498718,Thu Apr 03 2025 19:13:05 GMT-0500 (Central Daylight Time),168740.70000000298,A,grassenter,I,enter,483,1,2881.8999999910593,165858.80000001192,8037,WL,B,2.0
1,8.898000001907349,learn,51101.99999809265,Thu Apr 03 2025 19:13:05 GMT-0500 (Central Daylight Time),169657.30000001192,A,w,I,w,911,1,915.9000000059605,168741.40000000596,8037,WL,B,3.0
1,9.064000129699707,learn,50935.99987030029,Thu Apr 03 2025 19:13:05 GMT-0500 (Central Daylight Time),169823.80000001192,A,wi,I,i,147,1,1082.4000000059605,168741.40000000596,8037,WL,B,3.0
1,9.180999994277954,learn,50819.000005722046,Thu Apr 03 2025 19:13:05 GMT-0500 (Central Daylight Time),169940.40000000596,A,win,I,n,100,1,1199.0,168741.40000000596,8037,WL,B,3.0
1,9.331000089645386,learn,50668.999910354614,Thu Apr 03 2025 19:13:05 GMT-0500 (Central Daylight Time),170090.30000001192,A,wind,I,d,144,1,1348.9000000059605,168741.40000000596,8037,WL,B,3.0
1,9.630000114440918,learn,50369.99988555908,Thu Apr 03 2025 19:13:05 GMT-0500 (Central Daylight Time),170390.0,A,windo,I,o,289,1,1648.5999999940395,168741.40000000596,8037,WL,B,3.0
1,9.764000177383423,learn,50235.99982261658,Thu Apr 03 2025 19:13:05 GMT-0500 (Central Daylight Time),170523.40000000596,A,window,I,w,125,1,1782.0,168741.40000000596,8037,WL,B,3.0
1,10.097000122070312,learn,49902.99987792969,Thu Apr 03 2025 19:13:05 GMT-0500 (Central Daylight Time),170857.10000000894,A,windowenter,I,enter,313,1,2115.7000000029802,168741.40000000596,8037,WL,B,3.0
1,11.03000020980835,learn,48969.99979019165,Thu Apr 03 2025 19:13:05 GMT-0500 (Central Daylight Time),171789.70000000298,A,f,I,f,922,1,932.0999999940395,170857.60000000894,8037,WL,B,4.0
1,11.163000106811523,learn,48836.99989318848,Thu Apr 03 2025 19:13:05 GMT-0500 (Central Daylight Time),171923.20000000298,A,fi,I,i,118,1,1065.5999999940395,170857.60000000894,8037,WL,B,4.0
1,11.413000106811523,learn,48586.99989318848,Thu Apr 03 2025 19:13:05 GMT-0500 (Central Daylight Time),172173.0,A,fir,I,r,233,1,1315.3999999910593,170857.60000000894,8037,WL,B,4.0
1,11.480000019073486,learn,48519.999980926514,Thu Apr 03 2025 19:13:05 GMT-0500 (Central Daylight Time),172239.70000000298,A,fire,I,e,47,1,1382.0999999940395,170857.60000000894,8037,WL,B,4.0
1,11.69700002670288,learn,48302.99997329712,Thu Apr 03 2025 19:13:05 GMT-0500 (Central Daylight Time),172456.30000001192,A,fireenter,I,enter,204,1,1598.7000000029802,170857.60000000894,8037,WL,B,4.0
1,13.413000106811523,learn,46586.99989318848,Thu Apr 03 2025 19:13:05 GMT-0500 (Central Daylight Time),174172.40000000596,A,p,I,p,1699,1,1715.5999999940395,172456.80000001192,8037,WL,B,5.0
1,13.76200008392334,learn,46237.99991607666,Thu Apr 03 2025 19:13:05 GMT-0500 (Central Daylight Time),174522.10000000894,A,pu,I,u,344,1,2065.2999999970198,172456.80000001192,8037,WL,B,5.0
1,13.962000131607056,learn,46037.999868392944,Thu Apr 03 2025 19:13:05 GMT-0500 (Central Daylight Time),174722.20000000298,A,pup,I,p,186,1,2265.3999999910593,172456.80000001192,8037,WL,B,5.0
1,14.34500002861023,learn,45654.99997138977,Thu Apr 03 2025 19:13:05 GMT-0500 (Central Daylight Time),175105.20000000298,A,pupi,I,i,378,1,2648.3999999910593,172456.80000001192,8037,WL,B,5.0
1,14.562000036239624,learn,45437.999963760376,Thu Apr 03 2025 19:13:05 GMT-0500 (Central Daylight Time),175321.80000001192,A,pupil,I,l,211,1,2865.0,172456.80000001192,8037,WL,B,5.0
1,14.862000226974487,learn,45137.99977302551,Thu Apr 03 2025 19:13:05 GMT-0500 (Central Daylight Time),175622.0,A,pupilenter,I,enter,282,1,3165.199999988079,172456.80000001192,8037,WL,B,5.0
1,19.794000148773193,learn,40205.99985122681,Thu Apr 03 2025 19:13:05 GMT-0500 (Central Daylight Time),180553.80000001192,A,a,I,a,4918,1,4931.4000000059605,175622.40000000596,8037,WL,B,6.0
1,20.027000188827515,learn,39972.999811172485,Thu Apr 03 2025 19:13:05 GMT-0500 (Central Daylight Time),180786.90000000596,A,ar,I,r,216,1,5164.5,175622.40000000596,8037,WL,B,6.0
1,20.31000018119812,learn,39689.99981880188,Thu Apr 03 2025 19:13:05 GMT-0500 (Central Daylight Time),181070.20000000298,A,arm,I,m,265,1,5447.79999999702,175622.40000000596,8037,WL,B,6.0
1,20.66000008583069,learn,39339.99991416931,Thu Apr 03 2025 19:13:05 GMT-0500 (Central Daylight Time),181420.0,A,armenter,I,enter,342,1,5797.5999999940395,175622.40000000596,8037,WL,B,6.0
1,26.008000135421753,learn,33991.99986457825,Thu Apr 03 2025 19:13:05 GMT-0500 (Central Daylight Time),186768.40000000596,A,s,I,s,5336,1,5348.0,181420.40000000596,8037,WL,B,7.0
1,26.29100012779236,learn,33708.99987220764,Thu Apr 03 2025 19:13:05 GMT-0500 (Central Daylight Time),187051.70000000298,A,st,I,t,267,1,5631.29999999702,181420.40000000596,8037,WL,B,7.0
1,26.558000087738037,learn,33441.99991226196,Thu Apr 03 2025 19:13:05 GMT-0500 (Central Daylight Time),187318.20000000298,A,sta,I,a,248,1,5897.79999999702,181420.40000000596,8037,WL,B,7.0
1,26.675000190734863,learn,33324.99980926514,Thu Apr 03 2025 19:13:05 GMT-0500 (Central Daylight Time),187435.0,A,star,I,r,101,1,6014.5999999940395,181420.40000000596,8037,WL,B,7.0
1,26.907999992370605,learn,33092.000007629395,Thu Apr 03 2025 19:13:05 GMT-0500 (Central Daylight Time),187668.10000000894,A,start,I,t,217,1,6247.70000000298,181420.40000000596,8037,WL,B,7.0
1,27.52500009536743,learn,32474.99990463257,Thu Apr 03 2025 19:13:05 GMT-0500 (Central Daylight Time),188284.90000000596,A,star,I,backspace,600,1,6864.5,181420.40000000596,8037,WL,B,7.0
1,27.841000080108643,learn,32158.999919891357,Thu Apr 03 2025 19:13:05 GMT-0500 (Central Daylight Time),188601.5,A,starenter,I,enter,295,1,7181.0999999940395,181420.40000000596,8037,WL,B,7.0
1,29.824000120162964,learn,30175.999879837036,Thu Apr 03 2025 19:13:05 GMT-0500 (Central Daylight Time),190584.0,A,c,I,c,1970,1,1982.0999999940395,188601.90000000596,8037,WL,B,8.0
1,29.924000024795532,learn,30075.999975204468,Thu Apr 03 2025 19:13:05 GMT-0500 (Central Daylight Time),190683.90000000596,A,ci,I,i,84,1,2082.0,188601.90000000596,8037,WL,B,8.0
1,30.10700011253357,learn,29892.99988746643,Thu Apr 03 2025 19:13:05 GMT-0500 (Central Daylight Time),190867.0,A,cit,I,t,176,1,2265.0999999940395,188601.90000000596,8037,WL,B,8.0
1,30.240000009536743,learn,29759.999990463257,Thu Apr 03 2025 19:13:05 GMT-0500 (Central Daylight Time),191000.5,A,city,I,y,121,1,2398.5999999940395,188601.90000000596,8037,WL,B,8.0
1,30.59000015258789,learn,29409.99984741211,Thu Apr 03 2025 19:13:05 GMT-0500 (Central Daylight Time),191350.5,A,cityenter,I,enter,340,1,2748.5999999940395,188601.90000000596,8037,WL,B,8.0
1,39.07100009918213,learn,20928.99990081787,Thu Apr 03 2025 19:13:05 GMT-0500 (Central Daylight Time),199831.10000000894,A,w,I,w,8462,1,8480.20000000298,191350.90000000596,8037,WL,B,9.0
1,39.2039999961853,learn,20796.000003814697,Thu Apr 03 2025 19:13:05 GMT-0500 (Central Daylight Time),199964.30000001192,A,wi,I,i,117,1,8613.40000000596,191350.90000000596,8037,WL,B,9.0
1,39.40400004386902,learn,20595.99995613098,Thu Apr 03 2025 19:13:05 GMT-0500 (Central Daylight Time),200164.20000000298,A,wif,I,f,192,1,8813.29999999702,191350.90000000596,8037,WL,B,9.0
1,39.55400013923645,learn,20445.99986076355,Thu Apr 03 2025 19:13:05 GMT-0500 (Central Daylight Time),200314.20000000298,A,wife,I,e,136,1,8963.29999999702,191350.90000000596,8037,WL,B,9.0
1,39.82100009918213,learn,20178.99990081787,Thu Apr 03 2025 19:13:05 GMT-0500 (Central Daylight Time),200580.80000001192,A,wifeenter,I,enter,250,1,9229.90000000596,191350.90000000596,8037,WL,B,9.0
1,53.33300018310547,learn,6666.999816894531,Thu Apr 03 2025 19:13:05 GMT-0500 (Central Daylight Time),214093.20000000298,A,a,I,a,13495,1,13512.09999999404,200581.10000000894,8037,WL,B,10.0
1,53.63300013542175,learn,6366.999864578247,Thu Apr 03 2025 19:13:05 GMT-0500 (Central Daylight Time),214393.20000000298,A,ar,I,r,286,1,13812.09999999404,200581.10000000894,8037,WL,B,10.0
1,53.80000019073486,learn,6199.999809265137,Thu Apr 03 2025 19:13:05 GMT-0500 (Central Daylight Time),214559.80000001192,A,arm,I,m,155,1,13978.70000000298,200581.10000000894,8037,WL,B,10.0
1,54.032999992370605,learn,5967.0000076293945,Thu Apr 03 2025 19:13:05 GMT-0500 (Central Daylight Time),214792.90000000596,A,armenter,I,enter,221,1,14211.79999999702,200581.10000000894,8037,WL,B,10.0
1,60.01400017738342,learn,-14.000177383422852,Thu Apr 03 2025 19:13:05 GMT-0500 (Central Daylight Time),220774.40000000596,A,None,I,None,5976,1,5981.0999999940395,214793.30000001192,8037,WL,B,11.0
2,0.7669999599456787,learn,59233.00004005432,Thu Apr 03 2025 19:13:05 GMT-0500 (Central Daylight Time),292018.90000000596,A,s,I,s,761,1,766.5999999940395,291252.3000000119,8037,WL,B,1.0
2,0.9340000152587891,learn,59065.99998474121,Thu Apr 03 2025 19:13:05 GMT-0500 (Central Daylight Time),292185.5,A,sk,I,k,153,1,933.1999999880791,291252.3000000119,8037,WL,B,1.0
2,1.116999864578247,learn,58883.00013542175,Thu Apr 03 2025 19:13:05 GMT-0500 (Central Daylight Time),292369.0,A,ski,I,i,163,1,1116.699999988079,291252.3000000119,8037,WL,B,1.0
2,1.25,learn,58750.0,Thu Apr 03 2025 19:13:05 GMT-0500 (Central Daylight Time),292502.0,A,skin,I,n,115,1,1249.699999988079,291252.3000000119,8037,WL,B,1.0
2,1.4830000400543213,learn,58516.99995994568,Thu Apr 03 2025 19:13:05 GMT-0500 (Central Daylight Time),292735.10000000894,A,skinenter,I,enter,222,1,1482.7999999970198,291252.3000000119,8037,WL,B,1.0
2,2.299999952316284,learn,57700.000047683716,Thu Apr 03 2025 19:13:05 GMT-0500 (Central Daylight Time),293551.8000000119,A,c,I,c,805,1,816.3000000119209,292735.5,8037,WL,B,2.0
2,2.382999897003174,learn,57617.000102996826,Thu Apr 03 2025 19:13:05 GMT-0500 (Central Daylight Time),293634.90000000596,A,cl,I,l,76,1,899.4000000059605,292735.5,8037,WL,B,2.0
2,2.549999952316284,learn,57450.000047683716,Thu Apr 03 2025 19:13:05 GMT-0500 (Central Daylight Time),293801.5,A,clo,I,o,161,1,1066.0,292735.5,8037,WL,B,2.0
2,2.7159998416900635,learn,57284.00015830994,Thu Apr 03 2025 19:13:05 GMT-0500 (Central Daylight Time),293968.0,A,cloc,I,c,147,1,1232.5,292735.5,8037,WL,B,2.0
2,2.8499999046325684,learn,57150.00009536743,Thu Apr 03 2025 19:13:05 GMT-0500 (Central Daylight Time),294101.3000000119,A,clock,I,k,116,1,1365.800000011921,292735.5,8037,WL,B,2.0
2,3.115999937057495,learn,56884.000062942505,Thu Apr 03 2025 19:13:05 GMT-0500 (Central Daylight Time),294368.10000000894,A,clockenter,I,enter,247,1,1632.6000000089407,292735.5,8037,WL,B,2.0
2,4.733000040054321,learn,55266.99995994568,Thu Apr 03 2025 19:13:05 GMT-0500 (Central Daylight Time),295984.3000000119,A,p,I,p,1604,1,1615.6000000089407,294368.700000003,8037,WL,B,3.0
2,4.98199987411499,learn,55018.00012588501,Thu Apr 03 2025 19:13:05 GMT-0500 (Central Daylight Time),296234.200000003,A,pi,I,i,236,1,1865.5,294368.700000003,8037,WL,B,3.0
2,5.165999889373779,learn,54834.00011062622,Thu Apr 03 2025 19:13:05 GMT-0500 (Central Daylight Time),296417.40000000596,A,pip,I,p,178,1,2048.7000000029802,294368.700000003,8037,WL,B,3.0
2,5.381999969482422,learn,54618.00003051758,Thu Apr 03 2025 19:13:05 GMT-0500 (Central Daylight Time),296634.10000000894,A,pipe,I,e,203,1,2265.4000000059605,294368.700000003,8037,WL,B,3.0
2,5.914999961853027,learn,54085.00003814697,Thu Apr 03 2025 19:13:05 GMT-0500 (Central Daylight Time),297167.0,A,pipeenter,I,enter,514,1,2798.2999999970198,294368.700000003,8037,WL,B,3.0
2,8.615000009536743,learn,51384.99999046326,Thu Apr 03 2025 19:13:05 GMT-0500 (Central Daylight Time),299866.3000000119,A,f,I,f,2685,1,2698.9000000059605,297167.40000000596,8037,WL,B,4.0
2,8.764999866485596,learn,51235.000133514404,Thu Apr 03 2025 19:13:05 GMT-0500 (Central Daylight Time),300016.3000000119,A,fi,I,i,130,1,2848.9000000059605,297167.40000000596,8037,WL,B,4.0
2,8.930999994277954,learn,51069.000005722046,Thu Apr 03 2025 19:13:05 GMT-0500 (Central Daylight Time),300183.0,A,fir,I,r,148,1,3015.5999999940395,297167.40000000596,8037,WL,B,4.0
2,8.996999979019165,learn,51003.000020980835,Thu Apr 03 2025 19:13:05 GMT-0500 (Central Daylight Time),300249.5,A,fire,I,e,61,1,3082.0999999940395,297167.40000000596,8037,WL,B,4.0
2,9.480999946594238,learn,50519.00005340576,Thu Apr 03 2025 19:13:05 GMT-0500 (Central Daylight Time),300732.90000000596,A,fireenter,I,enter,467,1,3565.5,297167.40000000596,8037,WL,B,4.0
2,10.263999938964844,learn,49736.000061035156,Thu Apr 03 2025 19:13:05 GMT-0500 (Central Daylight Time),301515.90000000596,A,w,I,w,775,1,782.7000000029802,300733.200000003,8037,WL,B,5.0
2,10.396999835968018,learn,49603.00016403198,Thu Apr 03 2025 19:13:05 GMT-0500 (Central Daylight Time),301649.200000003,A,wi,I,i,112,1,916.0,300733.200000003,8037,WL,B,5.0
2,10.613999843597412,learn,49386.00015640259,Thu Apr 03 2025 19:13:05 GMT-0500 (Central Daylight Time),301866.0,A,win,I,n,203,1,1132.7999999970198,300733.200000003,8037,WL,B,5.0
2,11.712999820709229,learn,48287.00017929077,Thu Apr 03 2025 19:13:05 GMT-0500 (Central Daylight Time),302965.700000003,A,wind,I,d,1082,1,2232.5,300733.200000003,8037,WL,B,5.0
2,11.86299991607666,learn,48137.00008392334,Thu Apr 03 2025 19:13:05 GMT-0500 (Central Daylight Time),303115.5,A,windo,I,o,135,1,2382.2999999970198,300733.200000003,8037,WL,B,5.0
2,11.962999820709229,learn,48037.00017929077,Thu Apr 03 2025 19:13:05 GMT-0500 (Central Daylight Time),303215.5,A,window,I,w,89,1,2482.2999999970198,300733.200000003,8037,WL,B,5.0
2,12.27999997138977,learn,47720.00002861023,Thu Apr 03 2025 19:13:05 GMT-0500 (Central Daylight Time),303531.90000000596,A,windowenter,I,enter,301,1,2798.7000000029802,300733.200000003,8037,WL,B,5.0
2,13.878999948501587,learn,46121.00005149841,Thu Apr 03 2025 19:13:05 GMT-0500 (Central Daylight Time),305131.40000000596,A,s,I,s,1584,1,1599.0999999940395,303532.3000000119,8037,WL,B,6.0
2,14.095999956130981,learn,45904.00004386902,Thu Apr 03 2025 19:13:05 GMT-0500 (Central Daylight Time),305348.10000000894,A,st,I,t,209,1,1815.7999999970198,303532.3000000119,8037,WL,B,6.0
2,14.328999996185303,learn,45671.0000038147,Thu Apr 03 2025 19:13:05 GMT-0500 (Central Daylight Time),305581.40000000596,A,str,I,r,216,1,2049.0999999940395,303532.3000000119,8037,WL,B,6.0
2,14.395999908447266,learn,45604.000091552734,Thu Apr 03 2025 19:13:05 GMT-0500 (Central Daylight Time),305647.90000000596,A,stre,I,e,55,1,2115.5999999940395,303532.3000000119,8037,WL,B,6.0
2,14.595999956130981,learn,45404.00004386902,Thu Apr 03 2025 19:13:05 GMT-0500 (Central Daylight Time),305847.90000000596,A,stree,I,e,180,1,2315.5999999940395,303532.3000000119,8037,WL,B,6.0
2,14.894999980926514,learn,45105.000019073486,Thu Apr 03 2025 19:13:05 GMT-0500 (Central Daylight Time),306147.700000003,A,street,I,t,284,1,2615.3999999910593,303532.3000000119,8037,WL,B,6.0
2,15.444999933242798,learn,44555.0000667572,Thu Apr 03 2025 19:13:05 GMT-0500 (Central Daylight Time),306697.5,A,streetenter,I,enter,529,1,3165.199999988079,303532.3000000119,8037,WL,B,6.0
2,16.09500002861023,learn,43904.99997138977,Thu Apr 03 2025 19:13:05 GMT-0500 (Central Daylight Time),307347.40000000596,A,g,I,g,635,1,649.4000000059605,306698.0,8037,WL,B,7.0
2,16.34500002861023,learn,43654.99997138977,Thu Apr 03 2025 19:13:05 GMT-0500 (Central Daylight Time),307597.200000003,A,gr,I,r,233,1,899.2000000029802,306698.0,8037,WL,B,7.0
2,16.51199984550476,learn,43488.00015449524,Thu Apr 03 2025 19:13:05 GMT-0500 (Central Daylight Time),307764.0,A,gra,I,a,159,1,1066.0,306698.0,8037,WL,B,7.0
2,16.727999925613403,learn,43272.0000743866,Thu Apr 03 2025 19:13:05 GMT-0500 (Central Daylight Time),307980.5,A,gras,I,s,208,1,1282.5,306698.0,8037,WL,B,7.0
2,16.944999933242798,learn,43055.0000667572,Thu Apr 03 2025 19:13:05 GMT-0500 (Central Daylight Time),308197.0,A,grass,I,s,208,1,1499.0,306698.0,8037,WL,B,7.0
2,17.16100001335144,learn,42838.99998664856,Thu Apr 03 2025 19:13:05 GMT-0500 (Central Daylight Time),308413.60000000894,A,grassenter,I,enter,207,1,1715.6000000089407,306698.0,8037,WL,B,7.0
2,18.89400005340576,learn,41105.99994659424,Thu Apr 03 2025 19:13:05 GMT-0500 (Central Daylight Time),310146.5,A,s,I,s,1727,1,1732.5999999940395,308413.90000000596,8037,WL,B,8.0
2,19.0939998626709,learn,40906.0001373291,Thu Apr 03 2025 19:13:05 GMT-0500 (Central Daylight Time),310346.3000000119,A,st,I,t,193,1,1932.4000000059605,308413.90000000596,8037,WL,B,8.0
2,19.227999925613403,learn,40772.0000743866,Thu Apr 03 2025 19:13:05 GMT-0500 (Central Daylight Time),310480.10000000894,A,sta,I,a,114,1,2066.2000000029802,308413.90000000596,8037,WL,B,8.0
2,19.32699990272522,learn,40673.00009727478,Thu Apr 03 2025 19:13:05 GMT-0500 (Central Daylight Time),310579.60000000894,A,star,I,r,84,1,2165.7000000029802,308413.90000000596,8037,WL,B,8.0
2,19.560999870300293,learn,40439.00012969971,Thu Apr 03 2025 19:13:05 GMT-0500 (Central Daylight Time),310813.10000000894,A,start,I,t,225,1,2399.2000000029802,308413.90000000596,8037,WL,B,8.0
2,19.91100001335144,learn,40088.99998664856,Thu Apr 03 2025 19:13:05 GMT-0500 (Central Daylight Time),311162.90000000596,A,star,I,backspace,335,1,2749.0,308413.90000000596,8037,WL,B,8.0
2,20.16100001335144,learn,39838.99998664856,Thu Apr 03 2025 19:13:05 GMT-0500 (Central Daylight Time),311412.8000000119,A,starenter,I,enter,241,1,2998.9000000059605,308413.90000000596,8037,WL,B,8.0
2,21.493000030517578,learn,38506.99996948242,Thu Apr 03 2025 19:13:05 GMT-0500 (Central Daylight Time),312745.3000000119,A,l,I,l,1325,1,1332.2000000029802,311413.10000000894,8037,WL,B,9.0
2,21.509999990463257,learn,38490.00000953674,Thu Apr 03 2025 19:13:05 GMT-0500 (Central Daylight Time),312761.90000000596,A,la,I,a,3,1,1348.7999999970198,311413.10000000894,8037,WL,B,9.0
2,21.71299982070923,learn,38287.00017929077,Thu Apr 03 2025 19:13:05 GMT-0500 (Central Daylight Time),312965.0,A,lak,I,k,194,1,1551.8999999910593,311413.10000000894,8037,WL,B,9.0
2,21.80999994277954,learn,38190.00005722046,Thu Apr 03 2025 19:13:05 GMT-0500 (Central Daylight Time),313062.0,A,lake,I,e,87,1,1648.8999999910593,311413.10000000894,8037,WL,B,9.0
2,22.276999950408936,learn,37723.000049591064,Thu Apr 03 2025 19:13:05 GMT-0500 (Central Daylight Time),313528.700000003,A,lak,I,backspace,454,1,2115.5999999940395,311413.10000000894,8037,WL,B,9.0
2,22.460000038146973,learn,37539.99996185303,Thu Apr 03 2025 19:13:05 GMT-0500 (Central Daylight Time),313712.0,A,la,I,backspace,163,1,2298.8999999910593,311413.10000000894,8037,WL,B,9.0
2,22.776999950408936,learn,37223.000049591064,Thu Apr 03 2025 19:13:05 GMT-0500 (Central Daylight Time),314028.8000000119,A,l,I,backspace,308,1,2615.7000000029802,311413.10000000894,8037,WL,B,9.0
2,22.97599983215332,learn,37024.00016784668,Thu Apr 03 2025 19:13:05 GMT-0500 (Central Daylight Time),314228.5,A,,I,backspace,184,1,2815.3999999910593,311413.10000000894,8037,WL,B,9.0
2,23.47599983215332,learn,36524.00016784668,Thu Apr 03 2025 19:13:05 GMT-0500 (Central Daylight Time),314728.5,A,l,I,l,480,1,3315.3999999910593,311413.10000000894,8037,WL,B,9.0
2,23.625999927520752,learn,36374.00007247925,Thu Apr 03 2025 19:13:05 GMT-0500 (Central Daylight Time),314878.10000000894,A,la,I,a,132,1,3465.0,311413.10000000894,8037,WL,B,9.0
2,23.758999824523926,learn,36241.000175476074,Thu Apr 03 2025 19:13:05 GMT-0500 (Central Daylight Time),315011.60000000894,A,lak,I,k,118,1,3598.5,311413.10000000894,8037,WL,B,9.0
2,23.842999935150146,learn,36157.00006484985,Thu Apr 03 2025 19:13:05 GMT-0500 (Central Daylight Time),315095.10000000894,A,lake,I,e,72,1,3682.0,311413.10000000894,8037,WL,B,9.0
2,23.993000030517578,learn,36006.99996948242,Thu Apr 03 2025 19:13:05 GMT-0500 (Central Daylight Time),315245.0,A,lakeenter,I,enter,141,1,3831.8999999910593,311413.10000000894,8037,WL,B,9.0
2,26.658999919891357,learn,33341.00008010864,Thu Apr 03 2025 19:13:05 GMT-0500 (Central Daylight Time),317911.40000000596,A,p,I,p,2655,1,2666.0,315245.40000000596,8037,WL,B,10.0
2,26.925999879837036,learn,33074.000120162964,Thu Apr 03 2025 19:13:05 GMT-0500 (Central Daylight Time),318178.5,A,pu,I,u,253,1,2933.0999999940395,315245.40000000596,8037,WL,B,10.0
2,27.157999992370605,learn,32842.000007629395,Thu Apr 03 2025 19:13:05 GMT-0500 (Central Daylight Time),318410.5,A,pup,I,p,218,1,3165.0999999940395,315245.40000000596,8037,WL,B,10.0
2,27.424999952316284,learn,32575.000047683716,Thu Apr 03 2025 19:13:05 GMT-0500 (Central Daylight Time),318677.10000000894,A,pupi,I,i,258,1,3431.7000000029802,315245.40000000596,8037,WL,B,10.0
2,27.625,learn,32375.0,Thu Apr 03 2025 19:13:05 GMT-0500 (Central Daylight Time),318876.90000000596,A,pupil,I,l,191,1,3631.5,315245.40000000596,8037,WL,B,10.0
2,27.842000007629395,learn,32157.999992370605,Thu Apr 03 2025 19:13:05 GMT-0500 (Central Daylight Time),319093.700000003,A,pupilenter,I,enter,208,1,3848.2999999970198,315245.40000000596,8037,WL,B,10.0
2,28.94099998474121,learn,31059.00001525879,Thu Apr 03 2025 19:13:05 GMT-0500 (Central Daylight Time),320193.3000000119,A,d,I,d,1087,1,1099.300000011921,319094.0,8037,WL,B,11.0
2,29.075000047683716,learn,30924.999952316284,Thu Apr 03 2025 19:13:05 GMT-0500 (Central Daylight Time),320326.700000003,A,do,I,o,115,1,1232.7000000029802,319094.0,8037,WL,B,11.0
2,29.19099998474121,learn,30809.00001525879,Thu Apr 03 2025 19:13:05 GMT-0500 (Central Daylight Time),320443.10000000894,A,doo,I,o,110,1,1349.1000000089407,319094.0,8037,WL,B,11.0
2,29.62399983406067,learn,30376.00016593933,Thu Apr 03 2025 19:13:05 GMT-0500 (Central Daylight Time),320876.40000000596,A,door,I,r,425,1,1782.4000000059605,319094.0,8037,WL,B,11.0
2,29.807999849319458,learn,30192.000150680542,Thu Apr 03 2025 19:13:05 GMT-0500 (Central Daylight Time),321059.90000000596,A,doorenter,I,enter,176,1,1965.9000000059605,319094.0,8037,WL,B,11.0
2,34.138999938964844,learn,25861.000061035156,Thu Apr 03 2025 19:13:05 GMT-0500 (Central Daylight Time),325391.60000000894,A,g,I,g,4320,1,4331.4000000059605,321060.200000003,8037,WL,B,12.0
2,34.40599989891052,learn,25594.000101089478,Thu Apr 03 2025 19:13:05 GMT-0500 (Central Daylight Time),325658.3000000119,A,gr,I,r,252,1,4598.100000008941,321060.200000003,8037,WL,B,12.0
2,34.95599985122681,learn,25044.000148773193,Thu Apr 03 2025 19:13:05 GMT-0500 (Central Daylight Time),326208.10000000894,A,gra,I,a,538,1,5147.9000000059605,321060.200000003,8037,WL,B,12.0
2,35.20599985122681,learn,24794.000148773193,Thu Apr 03 2025 19:13:05 GMT-0500 (Central Daylight Time),326458.10000000894,A,gras,I,s,236,1,5397.9000000059605,321060.200000003,8037,WL,B,12.0
2,35.388999938964844,learn,24611.000061035156,Thu Apr 03 2025 19:13:05 GMT-0500 (Central Daylight Time),326641.3000000119,A,grass,I,s,170,1,5581.100000008941,321060.200000003,8037,WL,B,12.0
2,35.58899998664856,learn,24411.00001335144,Thu Apr 03 2025 19:13:05 GMT-0500 (Central Daylight Time),326841.5,A,grassenter,I,enter,179,1,5781.29999999702,321060.200000003,8037,WL,B,12.0
2,38.73799991607666,learn,21262.00008392334,Thu Apr 03 2025 19:13:05 GMT-0500 (Central Daylight Time),329990.10000000894,A,a,I,a,3131,1,3148.2999999970198,326841.8000000119,8037,WL,B,13.0
2,38.88800001144409,learn,21111.99998855591,Thu Apr 03 2025 19:13:05 GMT-0500 (Central Daylight Time),330140.40000000596,A,ar,I,r,142,1,3298.5999999940395,326841.8000000119,8037,WL,B,13.0
2,39.12100005149841,learn,20878.999948501587,Thu Apr 03 2025 19:13:05 GMT-0500 (Central Daylight Time),330373.60000000894,A,arm,I,m,216,1,3531.7999999970198,326841.8000000119,8037,WL,B,13.0
2,39.40499997138977,learn,20595.00002861023,Thu Apr 03 2025 19:13:05 GMT-0500 (Central Daylight Time),330657.0,A,armenter,I,enter,263,1,3815.199999988079,326841.8000000119,8037,WL,B,13.0
2,40.32099986076355,learn,19679.00013923645,Thu Apr 03 2025 19:13:05 GMT-0500 (Central Daylight Time),331573.10000000894,A,w,I,w,900,1,915.7000000029802,330657.40000000596,8037,WL,B,14.0
2,40.4210000038147,learn,19578.999996185303,Thu Apr 03 2025 19:13:05 GMT-0500 (Central Daylight Time),331673.200000003,A,wi,I,i,87,1,1015.7999999970198,330657.40000000596,8037,WL,B,14.0
2,40.770999908447266,learn,19229.000091552734,Thu Apr 03 2025 19:13:05 GMT-0500 (Central Daylight Time),332022.90000000596,A,wif,I,f,331,1,1365.5,330657.40000000596,8037,WL,B,14.0
2,40.853999853134155,learn,19146.000146865845,Thu Apr 03 2025 19:13:05 GMT-0500 (Central Daylight Time),332106.10000000894,A,wife,I,e,77,1,1448.7000000029802,330657.40000000596,8037,WL,B,14.0
2,41.03699994087219,learn,18963.000059127808,Thu Apr 03 2025 19:13:05 GMT-0500 (Central Daylight Time),332289.40000000596,A,wifeenter,I,enter,170,1,1632.0,330657.40000000596,8037,WL,B,14.0
2,55.632999897003174,learn,4367.000102996826,Thu Apr 03 2025 19:13:05 GMT-0500 (Central Daylight Time),346885.200000003,A,p,I,p,14579,1,14595.59999999404,332289.60000000894,8037,WL,B,15.0
2,56.74899983406067,learn,3251.000165939331,Thu Apr 03 2025 19:13:05 GMT-0500 (Central Daylight Time),348001.200000003,A,,I,backspace,1103,1,15711.59999999404,332289.60000000894,8037,WL,B,15.0
2,57.348999977111816,learn,2651.0000228881836,Thu Apr 03 2025 19:13:05 GMT-0500 (Central Daylight Time),348601.200000003,A,p,I,p,579,1,16311.59999999404,332289.60000000894,8037,WL,B,15.0
2,57.56599998474121,learn,2434.000015258789,Thu Apr 03 2025 19:13:05 GMT-0500 (Central Daylight Time),348818.60000000894,A,pi,I,i,211,1,16529.0,332289.60000000894,8037,WL,B,15.0
2,57.764999866485596,learn,2235.0001335144043,Thu Apr 03 2025 19:13:05 GMT-0500 (Central Daylight Time),349017.40000000596,A,pip,I,p,186,1,16727.79999999702,332289.60000000894,8037,WL,B,15.0
2,58.031999826431274,learn,1968.0001735687256,Thu Apr 03 2025 19:13:05 GMT-0500 (Central Daylight Time),349284.5,A,pipe,I,e,251,1,16994.89999999106,332289.60000000894,8037,WL,B,15.0
2,58.181999921798706,learn,1818.000078201294,Thu Apr 03 2025 19:13:05 GMT-0500 (Central Daylight Time),349434.0,A,pipeenter,I,enter,143,1,17144.39999999106,332289.60000000894,8037,WL,B,15.0
3,4.997999906539917,learn,55002.00009346008,Thu Apr 03 2025 19:13:05 GMT-0500 (Central Daylight Time),420795.10000000894,A,p,I,p,4992,1,4998.20000000298,415796.90000000596,8037,WL,B,1.0
3,5.2149999141693115,learn,54785.00008583069,Thu Apr 03 2025 19:13:05 GMT-0500 (Central Daylight Time),421012.0,A,pi,I,i,201,1,5215.0999999940395,415796.90000000596,8037,WL,B,1.0
3,5.331000089645386,learn,54668.999910354614,Thu Apr 03 2025 19:13:05 GMT-0500 (Central Daylight Time),421128.40000000596,A,pip,I,p,96,1,5331.5,415796.90000000596,8037,WL,B,1.0
3,5.5980000495910645,learn,54401.999950408936,Thu Apr 03 2025 19:13:05 GMT-0500 (Central Daylight Time),421394.90000000596,A,pipe,I,e,260,1,5598.0,415796.90000000596,8037,WL,B,1.0
3,6.148000001907349,learn,53851.99999809265,Thu Apr 03 2025 19:13:05 GMT-0500 (Central Daylight Time),421945.0,A,pipeenter,I,enter,529,1,6148.0999999940395,415796.90000000596,8037,WL,B,1.0
3,6.5980000495910645,learn,53401.999950408936,Thu Apr 03 2025 19:13:05 GMT-0500 (Central Daylight Time),422394.60000000894,A,f,I,f,443,1,449.20000000298023,421945.40000000596,8037,WL,B,2.0
3,6.730999946594238,learn,53269.00005340576,Thu Apr 03 2025 19:13:05 GMT-0500 (Central Daylight Time),422527.90000000596,A,fi,I,i,122,1,582.5,421945.40000000596,8037,WL,B,2.0
3,6.831000089645386,learn,53168.999910354614,Thu Apr 03 2025 19:13:05 GMT-0500 (Central Daylight Time),422628.0,A,fil,I,l,93,1,682.5999999940395,421945.40000000596,8037,WL,B,2.0
3,7.246999979019165,learn,52753.000020980835,Thu Apr 03 2025 19:13:05 GMT-0500 (Central Daylight Time),423044.40000000596,A,fi,I,backspace,400,1,1099.0,421945.40000000596,8037,WL,B,2.0
3,7.414000034332275,learn,52585.999965667725,Thu Apr 03 2025 19:13:05 GMT-0500 (Central Daylight Time),423211.3000000119,A,fir,I,r,160,1,1265.9000000059605,421945.40000000596,8037,WL,B,2.0
3,7.480999946594238,learn,52519.00005340576,Thu Apr 03 2025 19:13:05 GMT-0500 (Central Daylight Time),423277.700000003,A,fire,I,e,49,1,1332.2999999970198,421945.40000000596,8037,WL,B,2.0
3,7.71399998664856,learn,52286.00001335144,Thu Apr 03 2025 19:13:05 GMT-0500 (Central Daylight Time),423511.0,A,fireenter,I,enter,223,1,1565.5999999940395,421945.40000000596,8037,WL,B,2.0
3,9.380000114440918,learn,50619.99988555908,Thu Apr 03 2025 19:13:05 GMT-0500 (Central Daylight Time),425177.10000000894,A,c,I,c,1653,1,1665.7999999970198,423511.3000000119,8037,WL,B,3.0
3,9.54699993133545,learn,50453.00006866455,Thu Apr 03 2025 19:13:05 GMT-0500 (Central Daylight Time),425343.700000003,A,ca,I,a,155,1,1832.3999999910593,423511.3000000119,8037,WL,B,3.0
3,9.763000011444092,learn,50236.99998855591,Thu Apr 03 2025 19:13:05 GMT-0500 (Central Daylight Time),425560.3000000119,A,cab,I,b,205,1,2049.0,423511.3000000119,8037,WL,B,3.0
3,9.914000034332275,learn,50085.999965667725,Thu Apr 03 2025 19:13:05 GMT-0500 (Central Daylight Time),425711.3000000119,A,cabi,I,i,132,1,2200.0,423511.3000000119,8037,WL,B,3.0
3,10.02999997138977,learn,49970.00002861023,Thu Apr 03 2025 19:13:05 GMT-0500 (Central Daylight Time),425826.90000000596,A,cabin,I,n,109,1,2315.5999999940395,423511.3000000119,8037,WL,B,3.0
3,10.296000003814697,learn,49703.9999961853,Thu Apr 03 2025 19:13:05 GMT-0500 (Central Daylight Time),426093.40000000596,A,cabinenter,I,enter,258,1,2582.0999999940395,423511.3000000119,8037,WL,B,3.0
3,10.628999948501587,learn,49371.00005149841,Thu Apr 03 2025 19:13:05 GMT-0500 (Central Daylight Time),426426.5,A,l,I,l,327,1,332.69999998807907,426093.8000000119,8037,WL,B,4.0
3,10.763000011444092,learn,49236.99998855591,Thu Apr 03 2025 19:13:05 GMT-0500 (Central Daylight Time),426560.10000000894,A,la,I,a,114,1,466.29999999701977,426093.8000000119,8037,WL,B,4.0
3,10.930000066757202,learn,49069.9999332428,Thu Apr 03 2025 19:13:05 GMT-0500 (Central Daylight Time),426726.700000003,A,lak,I,k,148,1,632.8999999910593,426093.8000000119,8037,WL,B,4.0
3,11.062999963760376,learn,48937.000036239624,Thu Apr 03 2025 19:13:05 GMT-0500 (Central Daylight Time),426859.90000000596,A,lake,I,e,117,1,766.0999999940395,426093.8000000119,8037,WL,B,4.0
3,11.296000003814697,learn,48703.9999961853,Thu Apr 03 2025 19:13:05 GMT-0500 (Central Daylight Time),427093.10000000894,A,lakeenter,I,enter,224,1,999.2999999970198,426093.8000000119,8037,WL,B,4.0
3,14.378999948501587,learn,45621.00005149841,Thu Apr 03 2025 19:13:05 GMT-0500 (Central Daylight Time),430175.5,A,c,I,c,3063,1,3082.0999999940395,427093.40000000596,8037,WL,B,5.0
3,14.462000131607056,learn,45537.999868392944,Thu Apr 03 2025 19:13:05 GMT-0500 (Central Daylight Time),430259.0,A,cl,I,l,69,1,3165.5999999940395,427093.40000000596,8037,WL,B,5.0
3,14.70900011062622,learn,45290.99988937378,Thu Apr 03 2025 19:13:05 GMT-0500 (Central Daylight Time),430506.3000000119,A,clo,I,o,242,1,3412.9000000059605,427093.40000000596,8037,WL,B,5.0
3,14.85700011253357,learn,45142.99988746643,Thu Apr 03 2025 19:13:05 GMT-0500 (Central Daylight Time),430653.90000000596,A,cloc,I,c,143,1,3560.5,427093.40000000596,8037,WL,B,5.0
3,14.977999925613403,learn,45022.0000743866,Thu Apr 03 2025 19:13:05 GMT-0500 (Central Daylight Time),430775.200000003,A,clock,I,k,102,1,3681.7999999970198,427093.40000000596,8037,WL,B,5.0
3,15.212000131607056,learn,44787.999868392944,Thu Apr 03 2025 19:13:05 GMT-0500 (Central Daylight Time),431008.8000000119,A,clockenter,I,enter,213,1,3915.4000000059605,427093.40000000596,8037,WL,B,5.0
3,15.628000020980835,learn,44371.999979019165,Thu Apr 03 2025 19:13:05 GMT-0500 (Central Daylight Time),431425.10000000894,A,s,I,s,395,1,416.1000000089407,431009.0,8037,WL,B,6.0
3,15.745000123977661,learn,44254.99987602234,Thu Apr 03 2025 19:13:05 GMT-0500 (Central Daylight Time),431541.8000000119,A,sk,I,k,107,1,532.8000000119209,431009.0,8037,WL,B,6.0
3,15.92799997329712,learn,44072.00002670288,Thu Apr 03 2025 19:13:05 GMT-0500 (Central Daylight Time),431725.10000000894,A,ski,I,i,167,1,716.1000000089407,431009.0,8037,WL,B,6.0
3,16.045000076293945,learn,43954.999923706055,Thu Apr 03 2025 19:13:05 GMT-0500 (Central Daylight Time),431841.5,A,skin,I,n,111,1,832.5,431009.0,8037,WL,B,6.0
3,16.295000076293945,learn,43704.999923706055,Thu Apr 03 2025 19:13:05 GMT-0500 (Central Daylight Time),432091.60000000894,A,skinenter,I,enter,243,1,1082.6000000089407,431009.0,8037,WL,B,6.0
3,21.14300012588501,learn,38856.99987411499,Thu Apr 03 2025 19:13:05 GMT-0500 (Central Daylight Time),436940.0,A,s,I,s,4841,1,4848.0999999940395,432091.90000000596,8037,WL,B,7.0
3,21.39300012588501,learn,38606.99987411499,Thu Apr 03 2025 19:13:05 GMT-0500 (Central Daylight Time),437190.0,A,st,I,t,240,1,5098.0999999940395,432091.90000000596,8037,WL,B,7.0
3,21.625999927520752,learn,38374.00007247925,Thu Apr 03 2025 19:13:05 GMT-0500 (Central Daylight Time),437423.10000000894,A,str,I,r,222,1,5331.20000000298,432091.90000000596,8037,WL,B,7.0
3,21.710000038146973,learn,38289.99996185303,Thu Apr 03 2025 19:13:05 GMT-0500 (Central Daylight Time),437506.60000000894,A,stre,I,e,69,1,5414.70000000298,432091.90000000596,8037,WL,B,7.0
3,21.89300012588501,learn,38106.99987411499,Thu Apr 03 2025 19:13:05 GMT-0500 (Central Daylight Time),437689.90000000596,A,stree,I,e,170,1,5598.0,432091.90000000596,8037,WL,B,7.0
3,22.108999967575073,learn,37891.00003242493,Thu Apr 03 2025 19:13:05 GMT-0500 (Central Daylight Time),437906.40000000596,A,street,I,t,202,1,5814.5,432091.90000000596,8037,WL,B,7.0
3,22.89199995994568,learn,37108.00004005432,Thu Apr 03 2025 19:13:05 GMT-0500 (Central Daylight Time),438689.5,A,streetenter,I,enter,770,1,6597.5999999940395,432091.90000000596,8037,WL,B,7.0
3,24.259000062942505,learn,35740.999937057495,Thu Apr 03 2025 19:13:05 GMT-0500 (Central Daylight Time),440055.8000000119,A,g,I,g,1347,1,1366.0,438689.8000000119,8037,WL,B,8.0
3,24.941999912261963,learn,35058.00008773804,Thu Apr 03 2025 19:13:05 GMT-0500 (Central Daylight Time),440739.0,A,gr,I,r,677,1,2049.199999988079,438689.8000000119,8037,WL,B,8.0
3,25.10800004005432,learn,34891.99995994568,Thu Apr 03 2025 19:13:05 GMT-0500 (Central Daylight Time),440905.3000000119,A,gra,I,a,161,1,2215.5,438689.8000000119,8037,WL,B,8.0
3,25.342000007629395,learn,34657.999992370605,Thu Apr 03 2025 19:13:05 GMT-0500 (Central Daylight Time),441138.8000000119,A,gras,I,s,227,1,2449.0,438689.8000000119,8037,WL,B,8.0
3,25.558000087738037,learn,34441.99991226196,Thu Apr 03 2025 19:13:05 GMT-0500 (Central Daylight Time),441355.40000000596,A,grass,I,s,201,1,2665.5999999940395,438689.8000000119,8037,WL,B,8.0
3,26.02500009536743,learn,33974.99990463257,Thu Apr 03 2025 19:13:05 GMT-0500 (Central Daylight Time),441822.0,A,grassenter,I,enter,456,1,3132.199999988079,438689.8000000119,8037,WL,B,8.0
3,26.825000047683716,learn,33174.999952316284,Thu Apr 03 2025 19:13:05 GMT-0500 (Central Daylight Time),442621.8000000119,A,w,I,w,791,1,799.5,441822.3000000119,8037,WL,B,9.0
3,26.95799994468689,learn,33042.00005531311,Thu Apr 03 2025 19:13:05 GMT-0500 (Central Daylight Time),442755.0,A,wi,I,i,127,1,932.6999999880791,441822.3000000119,8037,WL,B,9.0
3,27.29100012779236,learn,32708.99987220764,Thu Apr 03 2025 19:13:05 GMT-0500 (Central Daylight Time),443088.10000000894,A,wif,I,f,313,1,1265.7999999970198,441822.3000000119,8037,WL,B,9.0
3,27.424000024795532,learn,32575.999975204468,Thu Apr 03 2025 19:13:05 GMT-0500 (Central Daylight Time),443221.40000000596,A,wife,I,e,124,1,1399.0999999940395,441822.3000000119,8037,WL,B,9.0
3,27.60800004005432,learn,32391.99995994568,Thu Apr 03 2025 19:13:05 GMT-0500 (Central Daylight Time),443404.8000000119,A,wifeenter,I,enter,167,1,1582.5,441822.3000000119,8037,WL,B,9.0
3,29.256999969482422,learn,30743.000030517578,Thu Apr 03 2025 19:13:05 GMT-0500 (Central Daylight Time),445054.10000000894,A,a,I,a,1632,1,1648.9000000059605,443405.200000003,8037,WL,B,10.0
3,29.407000064849854,learn,30592.999935150146,Thu Apr 03 2025 19:13:05 GMT-0500 (Central Daylight Time),445204.10000000894,A,ar,I,r,142,1,1798.9000000059605,443405.200000003,8037,WL,B,10.0
3,29.624000072479248,learn,30375.999927520752,Thu Apr 03 2025 19:13:05 GMT-0500 (Central Daylight Time),445420.8000000119,A,arm,I,m,200,1,2015.6000000089407,443405.200000003,8037,WL,B,10.0
3,29.890000104904175,learn,30109.999895095825,Thu Apr 03 2025 19:13:05 GMT-0500 (Central Daylight Time),445687.200000003,A,armenter,I,enter,248,1,2282.0,443405.200000003,8037,WL,B,10.0
3,30.657000064849854,learn,29342.999935150146,Thu Apr 03 2025 19:13:05 GMT-0500 (Central Daylight Time),446453.8000000119,A,w,I,w,757,1,766.4000000059605,445687.40000000596,8037,WL,B,11.0
3,30.789999961853027,learn,29210.000038146973,Thu Apr 03 2025 19:13:05 GMT-0500 (Central Daylight Time),446587.10000000894,A,wi,I,i,119,1,899.7000000029802,445687.40000000596,8037,WL,B,11.0
3,30.957000017166138,learn,29042.999982833862,Thu Apr 03 2025 19:13:05 GMT-0500 (Central Daylight Time),446753.8000000119,A,win,I,n,145,1,1066.4000000059605,445687.40000000596,8037,WL,B,11.0
3,31.091000080108643,learn,28908.999919891357,Thu Apr 03 2025 19:13:05 GMT-0500 (Central Daylight Time),446888.10000000894,A,wind,I,d,115,1,1200.7000000029802,445687.40000000596,8037,WL,B,11.0
3,31.240000009536743,learn,28759.999990463257,Thu Apr 03 2025 19:13:05 GMT-0500 (Central Daylight Time),447037.0,A,windo,I,o,140,1,1349.5999999940395,445687.40000000596,8037,WL,B,11.0
3,31.390000104904175,learn,28609.999895095825,Thu Apr 03 2025 19:13:05 GMT-0500 (Central Daylight Time),447186.90000000596,A,window,I,w,135,1,1499.5,445687.40000000596,8037,WL,B,11.0
3,31.789999961853027,learn,28210.000038146973,Thu Apr 03 2025 19:13:05 GMT-0500 (Central Daylight Time),447586.90000000596,A,windowenter,I,enter,393,1,1899.5,445687.40000000596,8037,WL,B,11.0
3,35.454999923706055,learn,24545.000076293945,Thu Apr 03 2025 19:13:05 GMT-0500 (Central Daylight Time),451252.200000003,A,s,I,s,3657,1,3665.0,447587.200000003,8037,WL,B,12.0
3,35.72200012207031,learn,24277.999877929688,Thu Apr 03 2025 19:13:05 GMT-0500 (Central Daylight Time),451518.90000000596,A,st,I,t,256,1,3931.7000000029802,447587.200000003,8037,WL,B,12.0
3,35.855000019073486,learn,24144.999980926514,Thu Apr 03 2025 19:13:05 GMT-0500 (Central Daylight Time),451652.0,A,sta,I,a,125,1,4064.7999999970198,447587.200000003,8037,WL,B,12.0
3,35.98799991607666,learn,24012.00008392334,Thu Apr 03 2025 19:13:05 GMT-0500 (Central Daylight Time),451785.5,A,star,I,r,128,1,4198.29999999702,447587.200000003,8037,WL,B,12.0
3,36.5550000667572,learn,23444.999933242798,Thu Apr 03 2025 19:13:05 GMT-0500 (Central Daylight Time),452351.90000000596,A,starenter,I,enter,555,1,4764.70000000298,447587.200000003,8037,WL,B,12.0
3,37.4210000038147,learn,22578.999996185303,Thu Apr 03 2025 19:13:05 GMT-0500 (Central Daylight Time),453218.10000000894,A,c,I,c,860,1,865.7999999970198,452352.3000000119,8037,WL,B,13.0
3,37.520999908447266,learn,22479.000091552734,Thu Apr 03 2025 19:13:05 GMT-0500 (Central Daylight Time),453318.200000003,A,ci,I,i,82,1,965.8999999910593,452352.3000000119,8037,WL,B,13.0
3,37.687999963760376,learn,22312.000036239624,Thu Apr 03 2025 19:13:05 GMT-0500 (Central Daylight Time),453485.10000000894,A,cit,I,t,150,1,1132.7999999970198,452352.3000000119,8037,WL,B,13.0
3,37.805999994277954,learn,22194.000005722046,Thu Apr 03 2025 19:13:05 GMT-0500 (Central Daylight Time),453602.60000000894,A,city,I,y,103,1,1250.2999999970198,452352.3000000119,8037,WL,B,13.0
3,38.24900007247925,learn,21750.999927520752,Thu Apr 03 2025 19:13:05 GMT-0500 (Central Daylight Time),454046.40000000596,A,cityenter,I,enter,439,1,1694.0999999940395,452352.3000000119,8037,WL,B,13.0
3,56.11500000953674,learn,3884.999990463257,Thu Apr 03 2025 19:13:05 GMT-0500 (Central Daylight Time),471912.5,A,p,I,p,17854,1,17865.79999999702,454046.700000003,8037,WL,B,14.0
3,56.63199996948242,learn,3368.000030517578,Thu Apr 03 2025 19:13:05 GMT-0500 (Central Daylight Time),472428.90000000596,A,,I,backspace,507,1,18382.20000000298,454046.700000003,8037,WL,B,14.0
3,60.013999938964844,learn,-13.99993896484375,Thu Apr 03 2025 19:13:05 GMT-0500 (Central Daylight Time),475811.200000003,A,None,I,None,3378,1,21764.5,454046.700000003,8037,WL,B,14.0
4,2.7820000648498535,learn,57217.99993515015,Thu Apr 03 2025 19:13:05 GMT-0500 (Central Daylight Time),543623.3000000119,A,c,I,c,2764,1,2782.2000000029802,540841.1000000089,8037,WL,B,1.0
4,2.8489999771118164,learn,57151.00002288818,Thu Apr 03 2025 19:13:05 GMT-0500 (Central Daylight Time),543689.900000006,A,cl,I,l,52,1,2848.7999999970198,540841.1000000089,8037,WL,B,1.0
4,3.065999984741211,learn,56934.00001525879,Thu Apr 03 2025 19:13:05 GMT-0500 (Central Daylight Time),543906.5,A,clo,I,o,202,1,3065.3999999910593,540841.1000000089,8037,WL,B,1.0
4,3.3320000171661377,learn,56667.99998283386,Thu Apr 03 2025 19:13:05 GMT-0500 (Central Daylight Time),544173.200000003,A,cloc,I,c,250,1,3332.0999999940395,540841.1000000089,8037,WL,B,1.0
4,3.432000160217285,learn,56567.999839782715,Thu Apr 03 2025 19:13:05 GMT-0500 (Central Daylight Time),544273.3000000119,A,clock,I,k,95,1,3432.2000000029802,540841.1000000089,8037,WL,B,1.0
4,4.648999929428101,learn,55351.0000705719,Thu Apr 03 2025 19:13:05 GMT-0500 (Central Daylight Time),545489.6000000089,A,clockenter,I,enter,1195,1,4648.5,540841.1000000089,8037,WL,B,1.0
4,5.04800009727478,learn,54951.99990272522,Thu Apr 03 2025 19:13:05 GMT-0500 (Central Daylight Time),545889.200000003,A,s,I,s,379,1,399.29999999701977,545489.900000006,8037,WL,B,2.0
4,5.215000152587891,learn,54784.99984741211,Thu Apr 03 2025 19:13:05 GMT-0500 (Central Daylight Time),546056.1000000089,A,sk,I,k,155,1,566.2000000029802,545489.900000006,8037,WL,B,2.0
4,5.414999961853027,learn,54585.00003814697,Thu Apr 03 2025 19:13:05 GMT-0500 (Central Daylight Time),546255.900000006,A,ski,I,i,188,1,766.0,545489.900000006,8037,WL,B,2.0
4,5.582000017166138,learn,54417.99998283386,Thu Apr 03 2025 19:13:05 GMT-0500 (Central Daylight Time),546422.400000006,A,skin,I,n,149,1,932.5,545489.900000006,8037,WL,B,2.0
4,5.79800009727478,learn,54201.99990272522,Thu Apr 03 2025 19:13:05 GMT-0500 (Central Daylight Time),546639.0,A,skinenter,I,enter,206,1,1149.0999999940395,545489.900000006,8037,WL,B,2.0
4,6.430999994277954,learn,53569.000005722046,Thu Apr 03 2025 19:13:05 GMT-0500 (Central Daylight Time),547272.1000000089,A,p,I,p,621,1,632.7000000029802,546639.400000006,8037,WL,B,3.0
4,6.648000001907349,learn,53351.99999809265,Thu Apr 03 2025 19:13:05 GMT-0500 (Central Daylight Time),547488.900000006,A,pi,I,i,204,1,849.5,546639.400000006,8037,WL,B,3.0
4,6.79800009727478,learn,53201.99990272522,Thu Apr 03 2025 19:13:05 GMT-0500 (Central Daylight Time),547638.8000000119,A,pip,I,p,131,1,999.4000000059605,546639.400000006,8037,WL,B,3.0
4,7.064000129699707,learn,52935.99987030029,Thu Apr 03 2025 19:13:05 GMT-0500 (Central Daylight Time),547905.200000003,A,pipe,I,e,261,1,1265.7999999970198,546639.400000006,8037,WL,B,3.0
4,7.248000144958496,learn,52751.999855041504,Thu Apr 03 2025 19:13:05 GMT-0500 (Central Daylight Time),548088.6000000089,A,pipeenter,I,enter,171,1,1449.2000000029802,546639.400000006,8037,WL,B,3.0
4,8.19700002670288,learn,51802.99997329712,Thu Apr 03 2025 19:13:05 GMT-0500 (Central Daylight Time),549038.3000000119,A,c,I,c,932,1,949.4000000059605,548088.900000006,8037,WL,B,4.0
4,8.397000074386597,learn,51602.9999256134,Thu Apr 03 2025 19:13:05 GMT-0500 (Central Daylight Time),549238.1000000089,A,ca,I,a,190,1,1149.2000000029802,548088.900000006,8037,WL,B,4.0
4,8.564000129699707,learn,51435.99987030029,Thu Apr 03 2025 19:13:05 GMT-0500 (Central Daylight Time),549404.900000006,A,cab,I,b,150,1,1316.0,548088.900000006,8037,WL,B,4.0
4,8.71399998664856,learn,51286.00001335144,Thu Apr 03 2025 19:13:05 GMT-0500 (Central Daylight Time),549554.900000006,A,cabi,I,i,136,1,1466.0,548088.900000006,8037,WL,B,4.0
4,8.847000122070312,learn,51152.99987792969,Thu Apr 03 2025 19:13:05 GMT-0500 (Central Daylight Time),549688.1000000089,A,cabin,I,n,122,1,1599.2000000029802,548088.900000006,8037,WL,B,4.0
4,9.097000122070312,learn,50902.99987792969,Thu Apr 03 2025 19:13:05 GMT-0500 (Central Daylight Time),549938.1000000089,A,cabinenter,I,enter,236,1,1849.2000000029802,548088.900000006,8037,WL,B,4.0
4,9.46399998664856,learn,50536.00001335144,Thu Apr 03 2025 19:13:05 GMT-0500 (Central Daylight Time),550304.6000000089,A,f,I,f,347,1,366.1000000089407,549938.5,8037,WL,B,5.0
4,9.564000129699707,learn,50435.99987030029,Thu Apr 03 2025 19:13:05 GMT-0500 (Central Daylight Time),550404.5,A,fi,I,i,92,1,466.0,549938.5,8037,WL,B,5.0
4,9.814000129699707,learn,50185.99987030029,Thu Apr 03 2025 19:13:05 GMT-0500 (Central Daylight Time),550654.6000000089,A,fir,I,r,240,1,716.1000000089407,549938.5,8037,WL,B,5.0
4,9.914000034332275,learn,50085.999965667725,Thu Apr 03 2025 19:13:05 GMT-0500 (Central Daylight Time),550754.5,A,fire,I,e,86,1,816.0,549938.5,8037,WL,B,5.0
4,10.246999979019165,learn,49753.000020980835,Thu Apr 03 2025 19:13:05 GMT-0500 (Central Daylight Time),551087.700000003,A,fireenter,I,enter,322,1,1149.2000000029802,549938.5,8037,WL,B,5.0
4,11.230000019073486,learn,48769.999980926514,Thu Apr 03 2025 19:13:05 GMT-0500 (Central Daylight Time),552070.8000000119,A,l,I,l,973,1,982.8000000119209,551088.0,8037,WL,B,6.0
4,11.347000122070312,learn,48652.99987792969,Thu Apr 03 2025 19:13:05 GMT-0500 (Central Daylight Time),552187.400000006,A,la,I,a,110,1,1099.4000000059605,551088.0,8037,WL,B,6.0
4,11.496000051498413,learn,48503.99994850159,Thu Apr 03 2025 19:13:05 GMT-0500 (Central Daylight Time),552337.1000000089,A,lak,I,k,137,1,1249.1000000089407,551088.0,8037,WL,B,6.0
4,11.630000114440918,learn,48369.99988555908,Thu Apr 03 2025 19:13:05 GMT-0500 (Central Daylight Time),552470.5,A,lake,I,e,115,1,1382.5,551088.0,8037,WL,B,6.0
4,11.77999997138977,learn,48220.00002861023,Thu Apr 03 2025 19:13:05 GMT-0500 (Central Daylight Time),552620.6000000089,A,lakeenter,I,enter,142,1,1532.6000000089407,551088.0,8037,WL,B,6.0
4,16.99500012397766,learn,43004.99987602234,Thu Apr 03 2025 19:13:05 GMT-0500 (Central Daylight Time),557835.5,A,w,I,w,5199,1,5214.5999999940395,552620.900000006,8037,WL,B,7.0
4,17.16100001335144,learn,42838.99998664856,Thu Apr 03 2025 19:13:05 GMT-0500 (Central Daylight Time),558002.200000003,A,wi,I,i,152,1,5381.29999999702,552620.900000006,8037,WL,B,7.0
4,17.39400005340576,learn,42605.99994659424,Thu Apr 03 2025 19:13:05 GMT-0500 (Central Daylight Time),558235.3000000119,A,wif,I,f,218,1,5614.4000000059605,552620.900000006,8037,WL,B,7.0
4,17.477999925613403,learn,42522.0000743866,Thu Apr 03 2025 19:13:05 GMT-0500 (Central Daylight Time),558318.700000003,A,wife,I,e,73,1,5697.79999999702,552620.900000006,8037,WL,B,7.0
4,17.710999965667725,learn,42289.000034332275,Thu Apr 03 2025 19:13:05 GMT-0500 (Central Daylight Time),558552.1000000089,A,wifeenter,I,enter,214,1,5931.20000000298,552620.900000006,8037,WL,B,7.0
4,18.194000005722046,learn,41805.999994277954,Thu Apr 03 2025 19:13:05 GMT-0500 (Central Daylight Time),559035.1000000089,A,s,I,s,468,1,482.5,558552.6000000089,8037,WL,B,8.0
4,18.460999965667725,learn,41539.000034332275,Thu Apr 03 2025 19:13:05 GMT-0500 (Central Daylight Time),559301.8000000119,A,st,I,t,257,1,749.2000000029802,558552.6000000089,8037,WL,B,8.0
4,18.710999965667725,learn,41289.000034332275,Thu Apr 03 2025 19:13:05 GMT-0500 (Central Daylight Time),559551.8000000119,A,str,I,r,231,1,999.2000000029802,558552.6000000089,8037,WL,B,8.0
4,18.811000108718872,learn,41188.99989128113,Thu Apr 03 2025 19:13:05 GMT-0500 (Central Daylight Time),559651.700000003,A,stre,I,e,85,1,1099.0999999940395,558552.6000000089,8037,WL,B,8.0
4,18.97699999809265,learn,41023.00000190735,Thu Apr 03 2025 19:13:05 GMT-0500 (Central Daylight Time),559818.200000003,A,stree,I,e,161,1,1265.5999999940395,558552.6000000089,8037,WL,B,8.0
4,19.177000045776367,learn,40822.99995422363,Thu Apr 03 2025 19:13:05 GMT-0500 (Central Daylight Time),560018.200000003,A,streeenter,I,enter,194,1,1465.5999999940395,558552.6000000089,8037,WL,B,8.0
4,23.692000150680542,learn,36307.99984931946,Thu Apr 03 2025 19:13:05 GMT-0500 (Central Daylight Time),564533.3000000119,A,g,I,g,4506,1,4514.9000000059605,560018.400000006,8037,WL,B,9.0
4,23.9760000705719,learn,36023.9999294281,Thu Apr 03 2025 19:13:05 GMT-0500 (Central Daylight Time),564817.0,A,gr,I,r,263,1,4798.5999999940395,560018.400000006,8037,WL,B,9.0
4,24.325999975204468,learn,35674.00002479553,Thu Apr 03 2025 19:13:05 GMT-0500 (Central Daylight Time),565166.6000000089,A,gra,I,a,339,1,5148.20000000298,560018.400000006,8037,WL,B,9.0
4,24.575999975204468,learn,35424.00002479553,Thu Apr 03 2025 19:13:05 GMT-0500 (Central Daylight Time),565416.400000006,A,gras,I,s,238,1,5398.0,560018.400000006,8037,WL,B,9.0
4,24.759000062942505,learn,35240.999937057495,Thu Apr 03 2025 19:13:05 GMT-0500 (Central Daylight Time),565599.900000006,A,grass,I,s,172,1,5581.5,560018.400000006,8037,WL,B,9.0
4,25.64199995994568,learn,34358.00004005432,Thu Apr 03 2025 19:13:05 GMT-0500 (Central Daylight Time),566483.0,A,grassenter,I,enter,868,1,6464.5999999940395,560018.400000006,8037,WL,B,9.0
4,28.19099998474121,learn,31809.00001525879,Thu Apr 03 2025 19:13:05 GMT-0500 (Central Daylight Time),569032.0,A,d,I,d,2529,1,2548.7999999970198,566483.200000003,8037,WL,B,10.0
4,28.324000120162964,learn,31675.999879837036,Thu Apr 03 2025 19:13:05 GMT-0500 (Central Daylight Time),569165.3000000119,A,do,I,o,116,1,2682.1000000089407,566483.200000003,8037,WL,B,10.0
4,28.508000135421753,learn,31491.999864578247,Thu Apr 03 2025 19:13:05 GMT-0500 (Central Daylight Time),569348.6000000089,A,doo,I,o,167,1,2865.4000000059605,566483.200000003,8037,WL,B,10.0
4,28.674000024795532,learn,31325.999975204468,Thu Apr 03 2025 19:13:05 GMT-0500 (Central Daylight Time),569515.1000000089,A,door,I,r,152,1,3031.9000000059605,566483.200000003,8037,WL,B,10.0
4,28.94099998474121,learn,31059.00001525879,Thu Apr 03 2025 19:13:05 GMT-0500 (Central Daylight Time),569781.6000000089,A,doorenter,I,enter,249,1,3298.4000000059605,566483.200000003,8037,WL,B,10.0
4,29.223999977111816,learn,30776.000022888184,Thu Apr 03 2025 19:13:05 GMT-0500 (Central Daylight Time),570065.3000000119,A,a,I,a,270,1,283.40000000596046,569781.900000006,8037,WL,B,11.0
4,29.391000032424927,learn,30608.999967575073,Thu Apr 03 2025 19:13:05 GMT-0500 (Central Daylight Time),570231.6000000089,A,ar,I,r,155,1,449.70000000298023,569781.900000006,8037,WL,B,11.0
4,29.591000080108643,learn,30408.999919891357,Thu Apr 03 2025 19:13:05 GMT-0500 (Central Daylight Time),570431.6000000089,A,arm,I,m,189,1,649.7000000029802,569781.900000006,8037,WL,B,11.0
4,29.94099998474121,learn,30059.00001525879,Thu Apr 03 2025 19:13:05 GMT-0500 (Central Daylight Time),570781.700000003,A,armenter,I,enter,333,1,999.7999999970198,569781.900000006,8037,WL,B,11.0
4,30.7739999294281,learn,29226.0000705719,Thu Apr 03 2025 19:13:05 GMT-0500 (Central Daylight Time),571614.5,A,w,I,w,815,1,832.3999999910593,570782.1000000089,8037,WL,B,12.0
4,31.003999948501587,learn,28996.000051498413,Thu Apr 03 2025 19:13:05 GMT-0500 (Central Daylight Time),571845.200000003,A,wi,I,i,226,1,1063.0999999940395,570782.1000000089,8037,WL,B,12.0
4,31.151999950408936,learn,28848.000049591064,Thu Apr 03 2025 19:13:05 GMT-0500 (Central Daylight Time),571993.200000003,A,win,I,n,143,1,1211.0999999940395,570782.1000000089,8037,WL,B,12.0
4,31.42300009727478,learn,28576.99990272522,Thu Apr 03 2025 19:13:05 GMT-0500 (Central Daylight Time),572264.3000000119,A,wind,I,d,259,1,1482.2000000029802,570782.1000000089,8037,WL,B,12.0
4,31.873000144958496,learn,28126.999855041504,Thu Apr 03 2025 19:13:05 GMT-0500 (Central Daylight Time),572714.200000003,A,windo,I,o,436,1,1932.0999999940395,570782.1000000089,8037,WL,B,12.0
4,32.03999996185303,learn,27960.000038146973,Thu Apr 03 2025 19:13:05 GMT-0500 (Central Daylight Time),572880.900000006,A,window,I,w,154,1,2098.7999999970198,570782.1000000089,8037,WL,B,12.0
4,32.27300000190735,learn,27726.99999809265,Thu Apr 03 2025 19:13:05 GMT-0500 (Central Daylight Time),573114.400000006,A,windowenter,I,enter,220,1,2332.2999999970198,570782.1000000089,8037,WL,B,12.0
4,32.52300000190735,learn,27476.99999809265,Thu Apr 03 2025 19:13:05 GMT-0500 (Central Daylight Time),573364.1000000089,A,s,I,s,242,1,249.40000000596046,573114.700000003,8037,WL,B,13.0
4,32.74000000953674,learn,27259.999990463257,Thu Apr 03 2025 19:13:05 GMT-0500 (Central Daylight Time),573580.8000000119,A,st,I,t,208,1,466.1000000089407,573114.700000003,8037,WL,B,13.0
4,32.9060001373291,learn,27093.9998626709,Thu Apr 03 2025 19:13:05 GMT-0500 (Central Daylight Time),573747.1000000089,A,sta,I,a,152,1,632.4000000059605,573114.700000003,8037,WL,B,13.0
4,33.055999994277954,learn,26944.000005722046,Thu Apr 03 2025 19:13:05 GMT-0500 (Central Daylight Time),573897.1000000089,A,star,I,r,137,1,782.4000000059605,573114.700000003,8037,WL,B,13.0
4,33.75600004196167,learn,26243.99995803833,Thu Apr 03 2025 19:13:05 GMT-0500 (Central Daylight Time),574597.0,A,starenter,I,enter,691,1,1482.2999999970198,573114.700000003,8037,WL,B,13.0
4,35.02300000190735,learn,24976.99999809265,Thu Apr 03 2025 19:13:05 GMT-0500 (Central Daylight Time),575863.3000000119,A,c,I,c,1255,1,1266.0,574597.3000000119,8037,WL,B,14.0
4,35.138999938964844,learn,24861.000061035156,Thu Apr 03 2025 19:13:05 GMT-0500 (Central Daylight Time),575979.900000006,A,ci,I,i,101,1,1382.5999999940395,574597.3000000119,8037,WL,B,14.0
4,35.33899998664856,learn,24661.00001335144,Thu Apr 03 2025 19:13:05 GMT-0500 (Central Daylight Time),576180.0,A,cit,I,t,185,1,1582.699999988079,574597.3000000119,8037,WL,B,14.0
4,35.456000089645386,learn,24543.999910354614,Thu Apr 03 2025 19:13:05 GMT-0500 (Central Daylight Time),576296.400000006,A,city,I,y,104,1,1699.0999999940395,574597.3000000119,8037,WL,B,14.0
4,35.855000019073486,learn,24144.999980926514,Thu Apr 03 2025 19:13:05 GMT-0500 (Central Daylight Time),576696.200000003,A,cityenter,I,enter,388,1,2098.8999999910593,574597.3000000119,8037,WL,B,14.0
4,45.05299997329712,learn,14947.00002670288,Thu Apr 03 2025 19:13:05 GMT-0500 (Central Daylight Time),585893.6000000089,A,p,I,p,9180,1,9197.10000000894,576696.5,8037,WL,B,15.0
4,45.51900005340576,learn,14480.999946594238,Thu Apr 03 2025 19:13:05 GMT-0500 (Central Daylight Time),586359.900000006,A,pu,I,u,447,1,9663.40000000596,576696.5,8037,WL,B,15.0
4,45.9520001411438,learn,14047.999858856201,Thu Apr 03 2025 19:13:05 GMT-0500 (Central Daylight Time),586793.1000000089,A,pup,I,p,420,1,10096.60000000894,576696.5,8037,WL,B,15.0
4,46.235000133514404,learn,13764.999866485596,Thu Apr 03 2025 19:13:05 GMT-0500 (Central Daylight Time),587076.400000006,A,pupi,I,i,268,1,10379.90000000596,576696.5,8037,WL,B,15.0
4,46.50200009346008,learn,13497.999906539917,Thu Apr 03 2025 19:13:05 GMT-0500 (Central Daylight Time),587343.0,A,pupil,I,l,248,1,10646.5,576696.5,8037,WL,B,15.0
4,46.80200004577637,learn,13197.999954223633,Thu Apr 03 2025 19:13:05 GMT-0500 (Central Daylight Time),587643.0,A,pupilenter,I,enter,293,1,10946.5,576696.5,8037,WL,B,15.0
5,0.40000009536743164,learn,60000.0,Thu Apr 03 2025 19:13:05 GMT-0500 (Central Daylight Time),655121.8000000119,A,c,I,c,395,1,399.70000000298023,654722.1000000089,8037,WL,B,1.0
5,0.5160000324249268,learn,60000.0,Thu Apr 03 2025 19:13:05 GMT-0500 (Central Daylight Time),655238.700000003,A,cl,I,l,98,1,516.5999999940395,654722.1000000089,8037,WL,B,1.0
5,0.7160000801086426,learn,60000.0,Thu Apr 03 2025 19:13:05 GMT-0500 (Central Daylight Time),655438.5,A,clo,I,o,190,1,716.3999999910593,654722.1000000089,8037,WL,B,1.0
5,1.0160000324249268,learn,60000.0,Thu Apr 03 2025 19:13:05 GMT-0500 (Central Daylight Time),655738.1000000089,A,cloc,I,c,286,1,1016.0,654722.1000000089,8037,WL,B,1.0
5,1.1329998970031738,learn,60000.0,Thu Apr 03 2025 19:13:05 GMT-0500 (Central Daylight Time),655854.900000006,A,clock,I,k,98,1,1132.7999999970198,654722.1000000089,8037,WL,B,1.0
5,1.315999984741211,learn,60000.0,Thu Apr 03 2025 19:13:05 GMT-0500 (Central Daylight Time),656038.1000000089,A,clockenter,I,enter,166,1,1316.0,654722.1000000089,8037,WL,B,1.0
5,1.6159999370574951,learn,60000.0,Thu Apr 03 2025 19:13:05 GMT-0500 (Central Daylight Time),656338.0,A,s,I,s,287,1,299.5,656038.5,8037,WL,B,2.0
5,1.7660000324249268,learn,60000.0,Thu Apr 03 2025 19:13:05 GMT-0500 (Central Daylight Time),656487.900000006,A,sk,I,k,130,1,449.40000000596046,656038.5,8037,WL,B,2.0
5,1.9660000801086426,learn,60000.0,Thu Apr 03 2025 19:13:05 GMT-0500 (Central Daylight Time),656688.1000000089,A,ski,I,i,181,1,649.6000000089407,656038.5,8037,WL,B,2.0
5,2.115999937057495,learn,60000.0,Thu Apr 03 2025 19:13:05 GMT-0500 (Central Daylight Time),656837.900000006,A,skin,I,n,132,1,799.4000000059605,656038.5,8037,WL,B,2.0
5,2.4660000801086426,learn,60000.0,Thu Apr 03 2025 19:13:05 GMT-0500 (Central Daylight Time),657187.8000000119,A,skinenter,I,enter,342,1,1149.300000011921,656038.5,8037,WL,B,2.0
5,2.9489998817443848,learn,60000.0,Thu Apr 03 2025 19:13:05 GMT-0500 (Central Daylight Time),657671.0,A,p,I,p,473,1,482.8999999910593,657188.1000000089,8037,WL,B,3.0
5,3.1489999294281006,learn,60000.0,Thu Apr 03 2025 19:13:05 GMT-0500 (Central Daylight Time),657870.900000006,A,pi,I,i,189,1,682.7999999970198,657188.1000000089,8037,WL,B,3.0
5,3.265000104904175,learn,60000.0,Thu Apr 03 2025 19:13:05 GMT-0500 (Central Daylight Time),657987.400000006,A,pip,I,p,109,1,799.2999999970198,657188.1000000089,8037,WL,B,3.0
5,3.615000009536743,learn,60000.0,Thu Apr 03 2025 19:13:05 GMT-0500 (Central Daylight Time),658337.5,A,pipe,I,e,345,1,1149.3999999910593,657188.1000000089,8037,WL,B,3.0
5,3.947999954223633,learn,60000.0,Thu Apr 03 2025 19:13:05 GMT-0500 (Central Daylight Time),658670.6000000089,A,pipeenter,I,enter,315,1,1482.5,657188.1000000089,8037,WL,B,3.0
5,4.3480000495910645,learn,60000.0,Thu Apr 03 2025 19:13:05 GMT-0500 (Central Daylight Time),659070.6000000089,A,f,I,f,390,1,399.6000000089407,658671.0,8037,WL,B,4.0
5,4.482000112533569,learn,60000.0,Thu Apr 03 2025 19:13:05 GMT-0500 (Central Daylight Time),659203.700000003,A,fi,I,i,118,1,532.7000000029802,658671.0,8037,WL,B,4.0
5,4.7809998989105225,learn,60000.0,Thu Apr 03 2025 19:13:05 GMT-0500 (Central Daylight Time),659503.5,A,fir,I,r,281,1,832.5,658671.0,8037,WL,B,4.0
5,4.881999969482422,learn,60000.0,Thu Apr 03 2025 19:13:05 GMT-0500 (Central Daylight Time),659603.8000000119,A,fire,I,e,85,1,932.8000000119209,658671.0,8037,WL,B,4.0
5,5.13100004196167,learn,60000.0,Thu Apr 03 2025 19:13:05 GMT-0500 (Central Daylight Time),659853.6000000089,A,fireenter,I,enter,233,1,1182.6000000089407,658671.0,8037,WL,B,4.0
5,6.63100004196167,learn,60000.0,Thu Apr 03 2025 19:13:05 GMT-0500 (Central Daylight Time),661353.1000000089,A,c,I,c,1479,1,1499.2000000029802,659853.900000006,8037,WL,B,5.0
5,6.831000089645386,learn,60000.0,Thu Apr 03 2025 19:13:05 GMT-0500 (Central Daylight Time),661553.1000000089,A,ca,I,a,187,1,1699.2000000029802,659853.900000006,8037,WL,B,5.0
5,7.046999931335449,learn,60000.0,Thu Apr 03 2025 19:13:05 GMT-0500 (Central Daylight Time),661770.0,A,cab,I,b,195,1,1916.0999999940395,659853.900000006,8037,WL,B,5.0
5,7.21399998664856,learn,60000.0,Thu Apr 03 2025 19:13:05 GMT-0500 (Central Daylight Time),661936.200000003,A,cabi,I,i,155,1,2082.2999999970198,659853.900000006,8037,WL,B,5.0
5,7.346999883651733,learn,60000.0,Thu Apr 03 2025 19:13:05 GMT-0500 (Central Daylight Time),662069.5,A,cabin,I,n,116,1,2215.5999999940395,659853.900000006,8037,WL,B,5.0
5,7.596999883651733,learn,60000.0,Thu Apr 03 2025 19:13:05 GMT-0500 (Central Daylight Time),662319.400000006,A,cabinenter,I,enter,239,1,2465.5,659853.900000006,8037,WL,B,5.0
5,7.96399998664856,learn,60000.0,Thu Apr 03 2025 19:13:05 GMT-0500 (Central Daylight Time),662686.0,A,l,I,l,357,1,366.19999998807907,662319.8000000119,8037,WL,B,6.0
5,8.164000034332275,learn,60000.0,Thu Apr 03 2025 19:13:05 GMT-0500 (Central Daylight Time),662886.1000000089,A,la,I,a,182,1,566.2999999970198,662319.8000000119,8037,WL,B,6.0
5,8.263000011444092,learn,60000.0,Thu Apr 03 2025 19:13:05 GMT-0500 (Central Daylight Time),662985.8000000119,A,lak,I,k,94,1,666.0,662319.8000000119,8037,WL,B,6.0
5,8.380000114440918,learn,60000.0,Thu Apr 03 2025 19:13:05 GMT-0500 (Central Daylight Time),663102.5,A,lake,I,e,107,1,782.6999999880791,662319.8000000119,8037,WL,B,6.0
5,8.596999883651733,learn,60000.0,Thu Apr 03 2025 19:13:05 GMT-0500 (Central Daylight Time),663319.0,A,lakeenter,I,enter,206,1,999.1999999880791,662319.8000000119,8037,WL,B,6.0
5,13.477999925613403,learn,60000.0,Thu Apr 03 2025 19:13:05 GMT-0500 (Central Daylight Time),668200.900000006,A,s,I,s,4870,1,4881.5999999940395,663319.3000000119,8037,WL,B,7.0
5,13.59500002861023,learn,60000.0,Thu Apr 03 2025 19:13:05 GMT-0500 (Central Daylight Time),668317.700000003,A,sk,I,k,99,1,4998.399999991059,663319.3000000119,8037,WL,B,7.0
5,13.778000116348267,learn,60000.0,Thu Apr 03 2025 19:13:05 GMT-0500 (Central Daylight Time),668500.900000006,A,ski,I,i,175,1,5181.5999999940395,663319.3000000119,8037,WL,B,7.0
5,13.92799997329712,learn,60000.0,Thu Apr 03 2025 19:13:05 GMT-0500 (Central Daylight Time),668650.900000006,A,skin,I,n,135,1,5331.5999999940395,663319.3000000119,8037,WL,B,7.0
5,14.17799997329712,learn,60000.0,Thu Apr 03 2025 19:13:05 GMT-0500 (Central Daylight Time),668900.900000006,A,skinenter,I,enter,234,1,5581.5999999940395,663319.3000000119,8037,WL,B,7.0
5,16.128000020980835,learn,60000.0,Thu Apr 03 2025 19:13:05 GMT-0500 (Central Daylight Time),670850.3000000119,A,s,I,s,1936,1,1949.1000000089407,668901.200000003,8037,WL,B,8.0
5,16.378000020980835,learn,60000.0,Thu Apr 03 2025 19:13:05 GMT-0500 (Central Daylight Time),671100.200000003,A,st,I,t,242,1,2199.0,668901.200000003,8037,WL,B,8.0
5,16.611000061035156,learn,60000.0,Thu Apr 03 2025 19:13:05 GMT-0500 (Central Daylight Time),671333.200000003,A,str,I,r,224,1,2432.0,668901.200000003,8037,WL,B,8.0
5,16.710999965667725,learn,60000.0,Thu Apr 03 2025 19:13:05 GMT-0500 (Central Daylight Time),671433.400000006,A,stre,I,e,87,1,2532.2000000029802,668901.200000003,8037,WL,B,8.0
5,16.89400005340576,learn,60000.0,Thu Apr 03 2025 19:13:05 GMT-0500 (Central Daylight Time),671616.200000003,A,stree,I,e,171,1,2715.0,668901.200000003,8037,WL,B,8.0
5,17.14400005340576,learn,60000.0,Thu Apr 03 2025 19:13:05 GMT-0500 (Central Daylight Time),671866.200000003,A,street,I,t,244,1,2965.0,668901.200000003,8037,WL,B,8.0
5,17.811000108718872,learn,60000.0,Thu Apr 03 2025 19:13:05 GMT-0500 (Central Daylight Time),672533.1000000089,A,streetenter,I,enter,649,1,3631.9000000059605,668901.200000003,8037,WL,B,8.0
5,18.759999990463257,learn,60000.0,Thu Apr 03 2025 19:13:05 GMT-0500 (Central Daylight Time),673482.700000003,A,w,I,w,936,1,949.2999999970198,672533.400000006,8037,WL,B,9.0
5,18.927000045776367,learn,60000.0,Thu Apr 03 2025 19:13:05 GMT-0500 (Central Daylight Time),673649.3000000119,A,wi,I,i,162,1,1115.9000000059605,672533.400000006,8037,WL,B,9.0
5,19.292999982833862,learn,60000.0,Thu Apr 03 2025 19:13:05 GMT-0500 (Central Daylight Time),674015.900000006,A,wif,I,f,347,1,1482.5,672533.400000006,8037,WL,B,9.0
5,19.375999927520752,learn,60000.0,Thu Apr 03 2025 19:13:05 GMT-0500 (Central Daylight Time),674098.900000006,A,wife,I,e,77,1,1565.5,672533.400000006,8037,WL,B,9.0
5,19.64299988746643,learn,60000.0,Thu Apr 03 2025 19:13:05 GMT-0500 (Central Daylight Time),674365.8000000119,A,wifeenter,I,enter,250,1,1832.4000000059605,672533.400000006,8037,WL,B,9.0
5,20.109999895095825,learn,60000.0,Thu Apr 03 2025 19:13:05 GMT-0500 (Central Daylight Time),674832.400000006,A,a,I,a,455,1,466.20000000298023,674366.200000003,8037,WL,B,10.0
5,20.259999990463257,learn,60000.0,Thu Apr 03 2025 19:13:05 GMT-0500 (Central Daylight Time),674982.1000000089,A,ar,I,r,132,1,615.9000000059605,674366.200000003,8037,WL,B,10.0
5,20.443000078201294,learn,60000.0,Thu Apr 03 2025 19:13:05 GMT-0500 (Central Daylight Time),675165.6000000089,A,arm,I,m,166,1,799.4000000059605,674366.200000003,8037,WL,B,10.0
5,20.676000118255615,learn,60000.0,Thu Apr 03 2025 19:13:05 GMT-0500 (Central Daylight Time),675398.8000000119,A,armenter,I,enter,223,1,1032.6000000089407,674366.200000003,8037,WL,B,10.0
5,21.109999895095825,learn,60000.0,Thu Apr 03 2025 19:13:05 GMT-0500 (Central Daylight Time),675832.0,A,g,I,g,414,1,432.69999998807907,675399.3000000119,8037,WL,B,11.0
5,21.342999935150146,learn,60000.0,Thu Apr 03 2025 19:13:05 GMT-0500 (Central Daylight Time),676065.400000006,A,gr,I,r,229,1,666.0999999940395,675399.3000000119,8037,WL,B,11.0
5,21.526000022888184,learn,60000.0,Thu Apr 03 2025 19:13:05 GMT-0500 (Central Daylight Time),676248.5,A,gra,I,a,171,1,849.1999999880791,675399.3000000119,8037,WL,B,11.0
5,21.825999975204468,learn,60000.0,Thu Apr 03 2025 19:13:05 GMT-0500 (Central Daylight Time),676548.200000003,A,gras,I,s,284,1,1148.8999999910593,675399.3000000119,8037,WL,B,11.0
5,22.009000062942505,learn,60000.0,Thu Apr 03 2025 19:13:05 GMT-0500 (Central Daylight Time),676731.900000006,A,grass,I,s,168,1,1332.5999999940395,675399.3000000119,8037,WL,B,11.0
5,22.242000102996826,learn,60000.0,Thu Apr 03 2025 19:13:05 GMT-0500 (Central Daylight Time),676964.900000006,A,grassenter,I,enter,217,1,1565.5999999940395,675399.3000000119,8037,WL,B,11.0
5,23.29200005531311,learn,60000.0,Thu Apr 03 2025 19:13:05 GMT-0500 (Central Daylight Time),678014.5,A,d,I,d,1039,1,1049.199999988079,676965.3000000119,8037,WL,B,12.0
5,23.41000008583069,learn,60000.0,Thu Apr 03 2025 19:13:05 GMT-0500 (Central Daylight Time),678132.5,A,do,I,o,110,1,1167.199999988079,676965.3000000119,8037,WL,B,12.0
5,23.592000007629395,learn,60000.0,Thu Apr 03 2025 19:13:05 GMT-0500 (Central Daylight Time),678314.400000006,A,doo,I,o,176,1,1349.0999999940395,676965.3000000119,8037,WL,B,12.0
5,23.674999952316284,learn,60000.0,Thu Apr 03 2025 19:13:05 GMT-0500 (Central Daylight Time),678397.8000000119,A,door,I,r,66,1,1432.5,676965.3000000119,8037,WL,B,12.0
5,23.960000038146973,learn,60000.0,Thu Apr 03 2025 19:13:05 GMT-0500 (Central Daylight Time),678682.200000003,A,doorenter,I,enter,271,1,1716.8999999910593,676965.3000000119,8037,WL,B,12.0
5,24.39199995994568,learn,60000.0,Thu Apr 03 2025 19:13:05 GMT-0500 (Central Daylight Time),679114.200000003,A,w,I,w,418,1,431.70000000298023,678682.5,8037,WL,B,13.0
5,24.45799994468689,learn,60000.0,Thu Apr 03 2025 19:13:05 GMT-0500 (Central Daylight Time),679181.0,A,wi,I,i,58,1,498.5,678682.5,8037,WL,B,13.0
5,24.625,learn,60000.0,Thu Apr 03 2025 19:13:05 GMT-0500 (Central Daylight Time),679347.900000006,A,win,I,n,153,1,665.4000000059605,678682.5,8037,WL,B,13.0
5,24.825000047683716,learn,60000.0,Thu Apr 03 2025 19:13:05 GMT-0500 (Central Daylight Time),679547.5,A,wind,I,d,193,1,865.0,678682.5,8037,WL,B,13.0
5,25.02500009536743,learn,60000.0,Thu Apr 03 2025 19:13:05 GMT-0500 (Central Daylight Time),679747.3000000119,A,windo,I,o,185,1,1064.800000011921,678682.5,8037,WL,B,13.0
5,25.191999912261963,learn,60000.0,Thu Apr 03 2025 19:13:05 GMT-0500 (Central Daylight Time),679914.200000003,A,window,I,w,153,1,1231.7000000029802,678682.5,8037,WL,B,13.0
5,25.44099998474121,learn,60000.0,Thu Apr 03 2025 19:13:05 GMT-0500 (Central Daylight Time),680163.8000000119,A,windowenter,I,enter,234,1,1481.300000011921,678682.5,8037,WL,B,13.0
5,26.907999992370605,learn,60000.0,Thu Apr 03 2025 19:13:05 GMT-0500 (Central Daylight Time),681630.0,A,s,I,s,1449,1,1465.7999999970198,680164.200000003,8037,WL,B,14.0
5,27.907000064849854,learn,60000.0,Thu Apr 03 2025 19:13:05 GMT-0500 (Central Daylight Time),682630.0,A,st,I,t,990,1,2465.7999999970198,680164.200000003,8037,WL,B,14.0
5,28.174000024795532,learn,60000.0,Thu Apr 03 2025 19:13:05 GMT-0500 (Central Daylight Time),682896.3000000119,A,sta,I,a,246,1,2732.1000000089407,680164.200000003,8037,WL,B,14.0
5,28.341000080108643,learn,60000.0,Thu Apr 03 2025 19:13:05 GMT-0500 (Central Daylight Time),683063.400000006,A,star,I,r,156,1,2899.2000000029802,680164.200000003,8037,WL,B,14.0
5,29.091000080108643,learn,60000.0,Thu Apr 03 2025 19:13:05 GMT-0500 (Central Daylight Time),683813.1000000089,A,starenter,I,enter,733,1,3648.9000000059605,680164.200000003,8037,WL,B,14.0
5,29.407000064849854,learn,60000.0,Thu Apr 03 2025 19:13:05 GMT-0500 (Central Daylight Time),684129.3000000119,A,p,I,p,304,1,316.0,683813.3000000119,8037,WL,B,15.0
5,29.657000064849854,learn,60000.0,Thu Apr 03 2025 19:13:05 GMT-0500 (Central Daylight Time),684379.3000000119,A,pu,I,u,243,1,566.0,683813.3000000119,8037,WL,B,15.0
5,29.841000080108643,learn,60000.0,Thu Apr 03 2025 19:13:05 GMT-0500 (Central Daylight Time),684563.6000000089,A,pup,I,p,177,1,750.2999999970198,683813.3000000119,8037,WL,B,15.0
5,30.155999898910522,learn,60000.0,Thu Apr 03 2025 19:13:05 GMT-0500 (Central Daylight Time),684879.0,A,pupi,I,i,305,1,1065.699999988079,683813.3000000119,8037,WL,B,15.0
5,30.42300009727478,learn,60000.0,Thu Apr 03 2025 19:13:05 GMT-0500 (Central Daylight Time),685145.6000000089,A,pupil,I,l,253,1,1332.2999999970198,683813.3000000119,8037,WL,B,15.0
5,30.640000104904175,learn,60000.0,Thu Apr 03 2025 19:13:05 GMT-0500 (Central Daylight Time),685362.3000000119,A,pupilenter,I,enter,203,1,1549.0,683813.3000000119,8037,WL,B,15.0
6,0.6159999370574951,distr,59384.000062942505,Thu Apr 03 2025 19:13:05 GMT-0500 (Central Daylight Time),755740.1000000089,B,b,I,b,609,1,616.2999999970198,755123.8000000119,8037,WL,B,1.0
6,0.8680000305175781,distr,59131.99996948242,Thu Apr 03 2025 19:13:05 GMT-0500 (Central Daylight Time),755991.400000006,B,ba,I,a,232,1,867.5999999940395,755123.8000000119,8037,WL,B,1.0
6,1.066999912261963,distr,58933.00008773804,Thu Apr 03 2025 19:13:05 GMT-0500 (Central Daylight Time),756190.3000000119,B,bab,I,b,181,1,1066.5,755123.8000000119,8037,WL,B,1.0
6,1.3329999446868896,distr,58667.00005531311,Thu Apr 03 2025 19:13:05 GMT-0500 (Central Daylight Time),756456.900000006,B,baby,I,y,246,1,1333.0999999940395,755123.8000000119,8037,WL,B,1.0
6,1.6989998817443848,distr,58301.000118255615,Thu Apr 03 2025 19:13:05 GMT-0500 (Central Daylight Time),756823.3000000119,B,babyenter,I,enter,356,1,1699.5,755123.8000000119,8037,WL,B,1.0
6,2.0989999771118164,distr,57901.00002288818,Thu Apr 03 2025 19:13:05 GMT-0500 (Central Daylight Time),757223.200000003,B,o,I,o,389,1,399.59999999403954,756823.6000000089,8037,WL,B,2.0
6,2.2990000247955322,distr,57700.99997520447,Thu Apr 03 2025 19:13:05 GMT-0500 (Central Daylight Time),757423.3000000119,B,oc,I,c,189,1,599.7000000029802,756823.6000000089,8037,WL,B,2.0
6,2.5160000324249268,distr,57483.99996757507,Thu Apr 03 2025 19:13:05 GMT-0500 (Central Daylight Time),757639.6000000089,B,oce,I,e,205,1,816.0,756823.6000000089,8037,WL,B,2.0
6,2.6489999294281006,distr,57351.0000705719,Thu Apr 03 2025 19:13:05 GMT-0500 (Central Daylight Time),757772.900000006,B,ocea,I,a,117,1,949.2999999970198,756823.6000000089,8037,WL,B,2.0
6,2.7820000648498535,distr,57217.99993515015,Thu Apr 03 2025 19:13:05 GMT-0500 (Central Daylight Time),757906.200000003,B,ocean,I,n,119,1,1082.5999999940395,756823.6000000089,8037,WL,B,2.0
6,4.264999866485596,distr,55735.000133514404,Thu Apr 03 2025 19:13:05 GMT-0500 (Central Daylight Time),759389.200000003,B,ocea,I,backspace,1466,1,2565.5999999940395,756823.6000000089,8037,WL,B,2.0
6,4.514999866485596,distr,55485.000133514404,Thu Apr 03 2025 19:13:05 GMT-0500 (Central Daylight Time),759639.0,B,oceaenter,I,enter,231,1,2815.3999999910593,756823.6000000089,8037,WL,B,2.0
6,31.973000049591064,distr,28026.999950408936,Thu Apr 03 2025 19:13:05 GMT-0500 (Central Daylight Time),787097.200000003,B,enter,I,enter,27438,1,27457.89999999106,759639.3000000119,8037,WL,B,3.0
6,33.621999979019165,distr,26378.000020980835,Thu Apr 03 2025 19:13:05 GMT-0500 (Central Daylight Time),788746.5,B,enter,I,enter,1635,1,1649.0,787097.5,8037,WL,B,4.0
6,33.98900008201599,distr,26010.99991798401,Thu Apr 03 2025 19:13:05 GMT-0500 (Central Daylight Time),789113.200000003,B,enter,I,enter,354,1,366.29999999701977,788746.900000006,8037,WL,B,5.0
6,34.47199988365173,distr,25528.000116348267,Thu Apr 03 2025 19:13:05 GMT-0500 (Central Daylight Time),789596.200000003,B,enter,I,enter,467,1,482.59999999403954,789113.6000000089,8037,WL,B,6.0
6,34.871999979019165,distr,25128.000020980835,Thu Apr 03 2025 19:13:05 GMT-0500 (Central Daylight Time),789996.200000003,B,enter,I,enter,392,1,399.59999999403954,789596.6000000089,8037,WL,B,7.0
6,35.15499997138977,distr,24845.00002861023,Thu Apr 03 2025 19:13:05 GMT-0500 (Central Daylight Time),790279.3000000119,B,enter,I,enter,264,1,282.90000000596046,789996.400000006,8037,WL,B,8.0
6,35.42199993133545,distr,24578.00006866455,Thu Apr 03 2025 19:13:05 GMT-0500 (Central Daylight Time),790545.700000003,B,enter,I,enter,261,1,266.09999999403954,790279.6000000089,8037,WL,B,9.0
6,35.73900008201599,distr,24260.99991798401,Thu Apr 03 2025 19:13:05 GMT-0500 (Central Daylight Time),790862.6000000089,B,enter,I,enter,299,1,316.6000000089407,790546.0,8037,WL,B,10.0
6,36.0220000743866,distr,23977.999925613403,Thu Apr 03 2025 19:13:05 GMT-0500 (Central Daylight Time),791145.8000000119,B,enter,I,enter,278,1,282.90000000596046,790862.900000006,8037,WL,B,11.0
6,36.355000019073486,distr,23644.999980926514,Thu Apr 03 2025 19:13:05 GMT-0500 (Central Daylight Time),791478.900000006,B,enter,I,enter,315,1,332.79999999701977,791146.1000000089,8037,WL,B,12.0
6,36.97099995613098,distr,23029.00004386902,Thu Apr 03 2025 19:13:05 GMT-0500 (Central Daylight Time),792095.5,B,enter,I,enter,598,1,616.1999999880791,791479.3000000119,8037,WL,B,13.0
6,37.23799991607666,distr,22762.00008392334,Thu Apr 03 2025 19:13:05 GMT-0500 (Central Daylight Time),792361.900000006,B,enter,I,enter,261,1,266.09999999403954,792095.8000000119,8037,WL,B,14.0
6,37.7039999961853,distr,22296.000003814697,Thu Apr 03 2025 19:13:05 GMT-0500 (Central Daylight Time),792828.6000000089,B,enter,I,enter,459,1,466.40000000596046,792362.200000003,8037,WL,B,15.0
7,1.433000087738037,immed,58566.99991226196,Thu Apr 03 2025 19:13:05 GMT-0500 (Central Daylight Time),809390.1000000089,A,s,I,s,1424,1,1432.7999999970198,807957.3000000119,8037,WL,B,1.0
7,2.1660001277923584,immed,57833.99987220764,Thu Apr 03 2025 19:13:05 GMT-0500 (Central Daylight Time),810123.1000000089,A,,I,backspace,726,1,2165.7999999970198,807957.3000000119,8037,WL,B,1.0
7,2.565999984741211,immed,57434.00001525879,Thu Apr 03 2025 19:13:05 GMT-0500 (Central Daylight Time),810522.900000006,A,w,I,w,386,1,2565.5999999940395,807957.3000000119,8037,WL,B,1.0
7,2.881999969482422,immed,57118.00003051758,Thu Apr 03 2025 19:13:05 GMT-0500 (Central Daylight Time),810839.5,A,wi,I,i,306,1,2882.199999988079,807957.3000000119,8037,WL,B,1.0
7,3.0320000648498535,immed,56967.99993515015,Thu Apr 03 2025 19:13:05 GMT-0500 (Central Daylight Time),810989.6000000089,A,wif,I,f,141,1,3032.2999999970198,807957.3000000119,8037,WL,B,1.0
7,3.1489999294281006,immed,56851.0000705719,Thu Apr 03 2025 19:13:05 GMT-0500 (Central Daylight Time),811106.0,A,wife,I,e,111,1,3148.699999988079,807957.3000000119,8037,WL,B,1.0
7,3.6489999294281006,immed,56351.0000705719,Thu Apr 03 2025 19:13:05 GMT-0500 (Central Daylight Time),811606.200000003,A,wifeenter,I,enter,491,1,3648.8999999910593,807957.3000000119,8037,WL,B,1.0
7,4.082000017166138,immed,55917.99998283386,Thu Apr 03 2025 19:13:05 GMT-0500 (Central Daylight Time),812039.200000003,A,s,I,s,422,1,432.59999999403954,811606.6000000089,8037,WL,B,2.0
7,4.315000057220459,immed,55684.99994277954,Thu Apr 03 2025 19:13:05 GMT-0500 (Central Daylight Time),812272.400000006,A,st,I,t,213,1,665.7999999970198,811606.6000000089,8037,WL,B,2.0
7,4.515000104904175,immed,55484.999895095825,Thu Apr 03 2025 19:13:05 GMT-0500 (Central Daylight Time),812472.3000000119,A,str,I,r,188,1,865.7000000029802,811606.6000000089,8037,WL,B,2.0
7,4.615999937057495,immed,55384.000062942505,Thu Apr 03 2025 19:13:05 GMT-0500 (Central Daylight Time),812572.8000000119,A,stre,I,e,84,1,966.2000000029802,811606.6000000089,8037,WL,B,2.0
7,4.815000057220459,immed,55184.99994277954,Thu Apr 03 2025 19:13:05 GMT-0500 (Central Daylight Time),812772.3000000119,A,stree,I,e,184,1,1165.7000000029802,811606.6000000089,8037,WL,B,2.0
7,4.998000144958496,immed,55001.999855041504,Thu Apr 03 2025 19:13:05 GMT-0500 (Central Daylight Time),812955.6000000089,A,street,I,t,176,1,1349.0,811606.6000000089,8037,WL,B,2.0
7,5.197999954223633,immed,54802.00004577637,Thu Apr 03 2025 19:13:05 GMT-0500 (Central Daylight Time),813155.5,A,streetenter,I,enter,185,1,1548.8999999910593,811606.6000000089,8037,WL,B,2.0
7,6.498000144958496,immed,53501.999855041504,Thu Apr 03 2025 19:13:05 GMT-0500 (Central Daylight Time),814455.200000003,A,g,I,g,1288,1,1299.2999999970198,813155.900000006,8037,WL,B,3.0
7,6.748000144958496,immed,53251.999855041504,Thu Apr 03 2025 19:13:05 GMT-0500 (Central Daylight Time),814705.200000003,A,gr,I,r,246,1,1549.2999999970198,813155.900000006,8037,WL,B,3.0
7,6.947999954223633,immed,53052.00004577637,Thu Apr 03 2025 19:13:05 GMT-0500 (Central Daylight Time),814905.1000000089,A,gra,I,a,179,1,1749.2000000029802,813155.900000006,8037,WL,B,3.0
7,7.13100004196167,immed,52868.99995803833,Thu Apr 03 2025 19:13:05 GMT-0500 (Central Daylight Time),815088.5,A,gras,I,s,171,1,1932.5999999940395,813155.900000006,8037,WL,B,3.0
7,7.331000089645386,immed,52668.999910354614,Thu Apr 03 2025 19:13:05 GMT-0500 (Central Daylight Time),815288.3000000119,A,grass,I,s,188,1,2132.4000000059605,813155.900000006,8037,WL,B,3.0
7,7.748000144958496,immed,52251.999855041504,Thu Apr 03 2025 19:13:05 GMT-0500 (Central Daylight Time),815704.900000006,A,grassenter,I,enter,396,1,2549.0,813155.900000006,8037,WL,B,3.0
7,8.980999946594238,immed,51019.00005340576,Thu Apr 03 2025 19:13:05 GMT-0500 (Central Daylight Time),816937.8000000119,A,a,I,a,1212,1,1232.6000000089407,815705.200000003,8037,WL,B,4.0
7,9.147000074386597,immed,50852.9999256134,Thu Apr 03 2025 19:13:05 GMT-0500 (Central Daylight Time),817104.3000000119,A,ar,I,r,155,1,1399.1000000089407,815705.200000003,8037,WL,B,4.0
7,9.364000082015991,immed,50635.99991798401,Thu Apr 03 2025 19:13:05 GMT-0500 (Central Daylight Time),817321.0,A,arm,I,m,196,1,1615.7999999970198,815705.200000003,8037,WL,B,4.0
7,9.597000122070312,immed,50402.99987792969,Thu Apr 03 2025 19:13:05 GMT-0500 (Central Daylight Time),817554.0,A,armenter,I,enter,228,1,1848.7999999970198,815705.200000003,8037,WL,B,4.0
7,10.19700002670288,immed,49802.99997329712,Thu Apr 03 2025 19:13:05 GMT-0500 (Central Daylight Time),818154.200000003,A,w,I,w,587,1,600.0,817554.200000003,8037,WL,B,5.0
7,10.312999963760376,immed,49687.000036239624,Thu Apr 03 2025 19:13:05 GMT-0500 (Central Daylight Time),818270.6000000089,A,wi,I,i,98,1,716.4000000059605,817554.200000003,8037,WL,B,5.0
7,10.44700002670288,immed,49552.99997329712,Thu Apr 03 2025 19:13:05 GMT-0500 (Central Daylight Time),818404.0,A,win,I,n,126,1,849.7999999970198,817554.200000003,8037,WL,B,5.0
7,10.597000122070312,immed,49402.99987792969,Thu Apr 03 2025 19:13:05 GMT-0500 (Central Daylight Time),818554.1000000089,A,wind,I,d,136,1,999.9000000059605,817554.200000003,8037,WL,B,5.0
7,10.746999979019165,immed,49253.000020980835,Thu Apr 03 2025 19:13:05 GMT-0500 (Central Daylight Time),818703.900000006,A,windo,I,o,138,1,1149.7000000029802,817554.200000003,8037,WL,B,5.0
7,10.913000106811523,immed,49086.99989318848,Thu Apr 03 2025 19:13:05 GMT-0500 (Central Daylight Time),818870.200000003,A,window,I,w,149,1,1316.0,817554.200000003,8037,WL,B,5.0
7,11.163000106811523,immed,48836.99989318848,Thu Apr 03 2025 19:13:05 GMT-0500 (Central Daylight Time),819120.3000000119,A,windowenter,I,enter,230,1,1566.1000000089407,817554.200000003,8037,WL,B,5.0
7,12.67900013923645,immed,47320.99986076355,Thu Apr 03 2025 19:13:05 GMT-0500 (Central Daylight Time),820636.5,A,s,I,s,1500,1,1515.8999999910593,819120.6000000089,8037,WL,B,6.0
7,12.92900013923645,immed,47070.99986076355,Thu Apr 03 2025 19:13:05 GMT-0500 (Central Daylight Time),820886.5,A,st,I,t,232,1,1765.8999999910593,819120.6000000089,8037,WL,B,6.0
7,13.212000131607056,immed,46787.999868392944,Thu Apr 03 2025 19:13:05 GMT-0500 (Central Daylight Time),821169.6000000089,A,sta,I,a,278,1,2049.0,819120.6000000089,8037,WL,B,6.0
7,13.396000146865845,immed,46603.999853134155,Thu Apr 03 2025 19:13:05 GMT-0500 (Central Daylight Time),821353.0,A,star,I,r,171,1,2232.3999999910593,819120.6000000089,8037,WL,B,6.0
7,13.628999948501587,immed,46371.00005149841,Thu Apr 03 2025 19:13:05 GMT-0500 (Central Daylight Time),821586.3000000119,A,start,I,t,219,1,2465.7000000029802,819120.6000000089,8037,WL,B,6.0
7,14.095999956130981,immed,45904.00004386902,Thu Apr 03 2025 19:13:05 GMT-0500 (Central Daylight Time),822052.700000003,A,star,I,backspace,450,1,2932.0999999940395,819120.6000000089,8037,WL,B,6.0
7,14.36299991607666,immed,45637.00008392334,Thu Apr 03 2025 19:13:05 GMT-0500 (Central Daylight Time),822319.6000000089,A,starenter,I,enter,256,1,3199.0,819120.6000000089,8037,WL,B,6.0
7,14.911999940872192,immed,45088.00005912781,Thu Apr 03 2025 19:13:05 GMT-0500 (Central Daylight Time),822869.200000003,A,p,I,p,533,1,549.2999999970198,822319.900000006,8037,WL,B,7.0
7,15.111999988555908,immed,44888.00001144409,Thu Apr 03 2025 19:13:05 GMT-0500 (Central Daylight Time),823069.1000000089,A,pu,I,u,183,1,749.2000000029802,822319.900000006,8037,WL,B,7.0
7,15.245000123977661,immed,44754.99987602234,Thu Apr 03 2025 19:13:05 GMT-0500 (Central Daylight Time),823202.3000000119,A,pup,I,p,127,1,882.4000000059605,822319.900000006,8037,WL,B,7.0
7,15.51200008392334,immed,44487.99991607666,Thu Apr 03 2025 19:13:05 GMT-0500 (Central Daylight Time),823469.1000000089,A,pupi,I,i,258,1,1149.2000000029802,822319.900000006,8037,WL,B,7.0
7,15.76200008392334,immed,44237.99991607666,Thu Apr 03 2025 19:13:05 GMT-0500 (Central Daylight Time),823719.0,A,pupil,I,l,231,1,1399.0999999940395,822319.900000006,8037,WL,B,7.0
7,16.028000116348267,immed,43971.99988365173,Thu Apr 03 2025 19:13:05 GMT-0500 (Central Daylight Time),823985.400000006,A,pupilenter,I,enter,261,1,1665.5,822319.900000006,8037,WL,B,7.0
7,17.32800006866455,immed,42671.99993133545,Thu Apr 03 2025 19:13:05 GMT-0500 (Central Daylight Time),825284.900000006,A,c,I,c,1291,1,1299.2000000029802,823985.700000003,8037,WL,B,8.0
7,17.444999933242798,immed,42555.0000667572,Thu Apr 03 2025 19:13:05 GMT-0500 (Central Daylight Time),825401.700000003,A,ci,I,i,104,1,1416.0,823985.700000003,8037,WL,B,8.0
7,17.611000061035156,immed,42388.999938964844,Thu Apr 03 2025 19:13:05 GMT-0500 (Central Daylight Time),825568.6000000089,A,cit,I,t,155,1,1582.9000000059605,823985.700000003,8037,WL,B,8.0
7,17.74399995803833,immed,42256.00004196167,Thu Apr 03 2025 19:13:05 GMT-0500 (Central Daylight Time),825701.5,A,city,I,y,124,1,1715.7999999970198,823985.700000003,8037,WL,B,8.0
7,18.128000020980835,immed,41871.999979019165,Thu Apr 03 2025 19:13:05 GMT-0500 (Central Daylight Time),826084.8000000119,A,cityenter,I,enter,367,1,2099.1000000089407,823985.700000003,8037,WL,B,8.0
7,18.778000116348267,immed,41221.99988365173,Thu Apr 03 2025 19:13:05 GMT-0500 (Central Daylight Time),826734.700000003,A,s,I,s,631,1,649.3999999910593,826085.3000000119,8037,WL,B,9.0
7,18.91100001335144,immed,41088.99998664856,Thu Apr 03 2025 19:13:05 GMT-0500 (Central Daylight Time),826868.0,A,sk,I,k,126,1,782.6999999880791,826085.3000000119,8037,WL,B,9.0
7,19.0770001411438,immed,40922.9998588562,Thu Apr 03 2025 19:13:05 GMT-0500 (Central Daylight Time),827034.5,A,ski,I,i,153,1,949.1999999880791,826085.3000000119,8037,WL,B,9.0
7,19.210999965667725,immed,40789.000034332275,Thu Apr 03 2025 19:13:05 GMT-0500 (Central Daylight Time),827167.900000006,A,skin,I,n,114,1,1082.5999999940395,826085.3000000119,8037,WL,B,9.0
7,19.444000005722046,immed,40555.999994277954,Thu Apr 03 2025 19:13:05 GMT-0500 (Central Daylight Time),827401.1000000089,A,skinenter,I,enter,221,1,1315.7999999970198,826085.3000000119,8037,WL,B,9.0
7,19.860000133514404,immed,40139.999866485596,Thu Apr 03 2025 19:13:05 GMT-0500 (Central Daylight Time),827817.6000000089,A,c,I,c,403,1,416.1000000089407,827401.5,8037,WL,B,10.0
7,19.960000038146973,immed,40039.99996185303,Thu Apr 03 2025 19:13:05 GMT-0500 (Central Daylight Time),827917.5,A,cl,I,l,91,1,516.0,827401.5,8037,WL,B,10.0
7,20.161999940872192,immed,39838.00005912781,Thu Apr 03 2025 19:13:05 GMT-0500 (Central Daylight Time),828118.8000000119,A,clo,I,o,183,1,717.3000000119209,827401.5,8037,WL,B,10.0
7,20.3270001411438,immed,39672.9998588562,Thu Apr 03 2025 19:13:05 GMT-0500 (Central Daylight Time),828284.1000000089,A,cloc,I,c,150,1,882.6000000089407,827401.5,8037,WL,B,10.0
7,20.427000045776367,immed,39572.99995422363,Thu Apr 03 2025 19:13:05 GMT-0500 (Central Daylight Time),828384.3000000119,A,clock,I,k,88,1,982.8000000119209,827401.5,8037,WL,B,10.0
7,20.66000008583069,immed,39339.99991416931,Thu Apr 03 2025 19:13:05 GMT-0500 (Central Daylight Time),828617.400000006,A,clockenter,I,enter,228,1,1215.9000000059605,827401.5,8037,WL,B,10.0
7,21.710000038146973,immed,38289.99996185303,Thu Apr 03 2025 19:13:05 GMT-0500 (Central Daylight Time),829666.8000000119,A,p,I,p,1043,1,1049.2000000029802,828617.6000000089,8037,WL,B,11.0
7,21.878000020980835,immed,38121.999979019165,Thu Apr 03 2025 19:13:05 GMT-0500 (Central Daylight Time),829834.900000006,A,pi,I,i,161,1,1217.2999999970198,828617.6000000089,8037,WL,B,11.0
7,22.026999950408936,immed,37973.000049591064,Thu Apr 03 2025 19:13:05 GMT-0500 (Central Daylight Time),829983.6000000089,A,pip,I,p,137,1,1366.0,828617.6000000089,8037,WL,B,11.0
7,22.292999982833862,immed,37707.00001716614,Thu Apr 03 2025 19:13:05 GMT-0500 (Central Daylight Time),830250.1000000089,A,pipe,I,e,253,1,1632.5,828617.6000000089,8037,WL,B,11.0
7,22.460000038146973,immed,37539.99996185303,Thu Apr 03 2025 19:13:05 GMT-0500 (Central Daylight Time),830417.0,A,pipeenter,I,enter,154,1,1799.3999999910593,828617.6000000089,8037,WL,B,11.0
7,25.225000143051147,immed,34774.99985694885,Thu Apr 03 2025 19:13:05 GMT-0500 (Central Daylight Time),833182.5,A,c,I,c,2748,1,2765.0999999940395,830417.400000006,8037,WL,B,12.0
7,25.39199995994568,immed,34608.00004005432,Thu Apr 03 2025 19:13:05 GMT-0500 (Central Daylight Time),833349.200000003,A,ca,I,a,149,1,2931.7999999970198,830417.400000006,8037,WL,B,12.0
7,25.858999967575073,immed,34141.00003242493,Thu Apr 03 2025 19:13:05 GMT-0500 (Central Daylight Time),833815.8000000119,A,cab,I,b,447,1,3398.4000000059605,830417.400000006,8037,WL,B,12.0
7,26.009000062942505,immed,33990.999937057495,Thu Apr 03 2025 19:13:05 GMT-0500 (Central Daylight Time),833965.700000003,A,cabi,I,i,141,1,3548.2999999970198,830417.400000006,8037,WL,B,12.0
7,26.174999952316284,immed,33825.000047683716,Thu Apr 03 2025 19:13:05 GMT-0500 (Central Daylight Time),834132.3000000119,A,cabin,I,n,151,1,3714.9000000059605,830417.400000006,8037,WL,B,12.0
7,26.442000150680542,immed,33557.99984931946,Thu Apr 03 2025 19:13:05 GMT-0500 (Central Daylight Time),834399.0,A,cabinenter,I,enter,256,1,3981.5999999940395,830417.400000006,8037,WL,B,12.0
7,27.29200005531311,immed,32707.99994468689,Thu Apr 03 2025 19:13:05 GMT-0500 (Central Daylight Time),835248.900000006,A,f,I,f,829,1,849.5,834399.400000006,8037,WL,B,13.0
7,27.375,immed,32625.0,Thu Apr 03 2025 19:13:05 GMT-0500 (Central Daylight Time),835332.0,A,fi,I,i,76,1,932.5999999940395,834399.400000006,8037,WL,B,13.0
7,27.558000087738037,immed,32441.999912261963,Thu Apr 03 2025 19:13:05 GMT-0500 (Central Daylight Time),835515.3000000119,A,fir,I,r,176,1,1115.9000000059605,834399.400000006,8037,WL,B,13.0
7,27.657999992370605,immed,32342.000007629395,Thu Apr 03 2025 19:13:05 GMT-0500 (Central Daylight Time),835615.1000000089,A,fire,I,e,89,1,1215.7000000029802,834399.400000006,8037,WL,B,13.0
7,29.157000064849854,immed,30842.999935150146,Thu Apr 03 2025 19:13:05 GMT-0500 (Central Daylight Time),837114.6000000089,A,fireenter,I,enter,1493,1,2715.2000000029802,834399.400000006,8037,WL,B,13.0
7,29.824000120162964,immed,30175.999879837036,Thu Apr 03 2025 19:13:05 GMT-0500 (Central Daylight Time),837781.3000000119,A,c,I,c,658,1,666.5,837114.8000000119,8037,WL,B,14.0
7,29.924000024795532,immed,30075.999975204468,Thu Apr 03 2025 19:13:05 GMT-0500 (Central Daylight Time),837881.1000000089,A,cl,I,l,79,1,766.2999999970198,837114.8000000119,8037,WL,B,14.0
7,30.141000032424927,immed,29858.999967575073,Thu Apr 03 2025 19:13:05 GMT-0500 (Central Daylight Time),838097.8000000119,A,clo,I,o,203,1,983.0,837114.8000000119,8037,WL,B,14.0
7,30.306999921798706,immed,29693.000078201294,Thu Apr 03 2025 19:13:05 GMT-0500 (Central Daylight Time),838264.3000000119,A,cloc,I,c,147,1,1149.5,837114.8000000119,8037,WL,B,14.0
7,30.506999969482422,immed,29493.000030517578,Thu Apr 03 2025 19:13:05 GMT-0500 (Central Daylight Time),838464.3000000119,A,clock,I,k,180,1,1349.5,837114.8000000119,8037,WL,B,14.0
7,31.240000009536743,immed,28759.999990463257,Thu Apr 03 2025 19:13:05 GMT-0500 (Central Daylight Time),839197.3000000119,A,clockenter,I,enter,716,1,2082.5,837114.8000000119,8037,WL,B,14.0
7,35.605000019073486,immed,24394.999980926514,Thu Apr 03 2025 19:13:05 GMT-0500 (Central Daylight Time),843562.8000000119,A,p,I,p,4351,1,4365.20000000298,839197.6000000089,8037,WL,B,15.0
7,35.855000019073486,immed,24144.999980926514,Thu Apr 03 2025 19:13:05 GMT-0500 (Central Daylight Time),843812.6000000089,A,pu,I,u,233,1,4615.0,839197.6000000089,8037,WL,B,15.0
7,36.138999938964844,immed,23861.000061035156,Thu Apr 03 2025 19:13:05 GMT-0500 (Central Daylight Time),844095.900000006,A,pup,I,p,264,1,4898.29999999702,839197.6000000089,8037,WL,B,15.0
7,37.371999979019165,immed,22628.000020980835,Thu Apr 03 2025 19:13:05 GMT-0500 (Central Daylight Time),845328.900000006,A,pu,I,backspace,1220,1,6131.29999999702,839197.6000000089,8037,WL,B,15.0
7,37.65499997138977,immed,22345.00002861023,Thu Apr 03 2025 19:13:05 GMT-0500 (Central Daylight Time),845612.400000006,A,p,I,backspace,267,1,6414.79999999702,839197.6000000089,8037,WL,B,15.0
7,37.855000019073486,immed,22144.999980926514,Thu Apr 03 2025 19:13:05 GMT-0500 (Central Daylight Time),845812.1000000089,A,,I,backspace,192,1,6614.5,839197.6000000089,8037,WL,B,15.0
7,47.401999950408936,immed,12598.000049591064,Thu Apr 03 2025 19:13:05 GMT-0500 (Central Daylight Time),855359.1000000089,A,c,I,c,9537,1,16161.5,839197.6000000089,8037,WL,B,15.0
7,47.485000133514404,immed,12514.999866485596,Thu Apr 03 2025 19:13:05 GMT-0500 (Central Daylight Time),855442.0,A,cl,I,l,77,1,16244.39999999106,839197.6000000089,8037,WL,B,15.0
7,47.68499994277954,immed,12315.000057220459,Thu Apr 03 2025 19:13:05 GMT-0500 (Central Daylight Time),855642.400000006,A,clo,I,o,187,1,16444.79999999702,839197.6000000089,8037,WL,B,15.0
7,48.068000078201294,immed,11931.999921798706,Thu Apr 03 2025 19:13:05 GMT-0500 (Central Daylight Time),856025.400000006,A,cloc,I,c,378,1,16827.79999999702,839197.6000000089,8037,WL,B,15.0
7,48.25099992752075,immed,11749.000072479248,Thu Apr 03 2025 19:13:05 GMT-0500 (Central Daylight Time),856208.900000006,A,clock,I,k,163,1,17011.29999999702,839197.6000000089,8037,WL,B,15.0
7,48.48399996757507,immed,11516.000032424927,Thu Apr 03 2025 19:13:05 GMT-0500 (Central Daylight Time),856441.700000003,A,clockenter,I,enter,228,1,17244.09999999404,839197.6000000089,8037,WL,B,15.0
