acc_sum,block,block_c,change,condition,correct,correct_response,datetime,endtime,face,project,response,response_time,row_sel,session_number,start_end,starttime,subject_id,task,task_vers,trial
0,prac,1,,1-Back,,,Fri Mar 28 2025 10:56:43 GMT-0500 (Central Daylight Time),,124_o_f_d_a.png,O,space,20254,1,1,,,7096,VNB,A,0
1,prac,1,0.0,1-Back,1,m,Fri Mar 28 2025 10:56:43 GMT-0500 (Central Daylight Time),201716.20000000298,071_y_f_n_a.png,O,m,1369,2,1,2158.7000000029802,199557.5,7096,VNB,A,1
2,prac,1,0.0,1-Back,1,m,Fri Mar 28 2025 10:56:43 GMT-0500 (Central Daylight Time),203848.0,165_m_m_h_a.png,O,m,1327,3,1,2120.2999999970198,201727.70000000298,7096,VNB,A,2
3,prac,1,0.0,1-Back,1,m,Fri Mar 28 2025 10:56:43 GMT-0500 (Central Daylight Time),205996.40000000596,109_y_m_d_a.png,O,m,1343,4,1,2138.2000000029802,203858.20000000298,7096,VNB,A,3
3,prac,1,0.0,1-Back,0,m,Fri Mar 28 2025 10:56:43 GMT-0500 (Central Daylight Time),208829.0,124_o_f_n_a.png,O,None,2005,5,1,2820.7999999970198,206008.20000000298,7096,VNB,A,4
4,prac,1,1.0,1-Back,1,z,Fri Mar 28 2025 10:56:43 GMT-0500 (Central Daylight Time),210780.79999999702,109_y_m_n_a.png,O,z,1128,6,1,1940.0999999940395,208840.70000000298,7096,VNB,A,5
5,prac,1,0.0,1-Back,1,m,Fri Mar 28 2025 10:56:43 GMT-0500 (Central Daylight Time),212895.90000000596,039_o_m_h_a.png,O,m,1326,7,1,2103.7000000029802,210792.20000000298,7096,VNB,A,6
6,prac,1,0.0,1-Back,1,m,Fri Mar 28 2025 10:56:43 GMT-0500 (Central Daylight Time),214827.20000000298,139_m_f_d_a.png,O,m,1122,8,1,1921.0,212906.20000000298,7096,VNB,A,7
7,prac,1,1.0,1-Back,1,z,Fri Mar 28 2025 10:56:43 GMT-0500 (Central Daylight Time),216693.70000000298,071_y_f_d_a.png,O,z,1064,9,1,1854.4000000059605,214839.29999999702,7096,VNB,A,8
8,prac,1,0.0,1-Back,1,m,Fri Mar 28 2025 10:56:43 GMT-0500 (Central Daylight Time),219161.70000000298,165_m_m_n_a.png,O,m,1660,10,1,2457.2999999970198,216704.40000000596,7096,VNB,A,9
9,prac,1,0.0,1-Back,1,m,Fri Mar 28 2025 10:56:43 GMT-0500 (Central Daylight Time),220909.09999999404,124_o_f_h_a.png,O,m,931,11,1,1736.7999999970198,219172.29999999702,7096,VNB,A,10
10,prac,1,0.0,1-Back,1,m,Fri Mar 28 2025 10:56:43 GMT-0500 (Central Daylight Time),222990.70000000298,109_y_m_d_a.png,O,m,1290,12,1,2071.0,220919.70000000298,7096,VNB,A,11
0,test,1,0.0,1-Back,,,Fri Mar 28 2025 10:56:43 GMT-0500 (Central Daylight Time),222990.70000000298,071_y_f_d_a.png,O,space,12839,1,1,2071.0,220919.70000000298,7096,VNB,A,0
1,test,1,0.0,1-Back,1,m,Fri Mar 28 2025 10:56:43 GMT-0500 (Central Daylight Time),248551.90000000596,139_m_f_n_a.png,O,m,719,2,1,1739.6000000089407,246812.29999999702,7096,VNB,A,1
2,test,1,0.0,1-Back,1,m,Fri Mar 28 2025 10:56:43 GMT-0500 (Central Daylight Time),250600.20000000298,039_o_m_h_a.png,O,m,1029,3,1,2039.0,248561.20000000298,7096,VNB,A,2
3,test,1,1.0,1-Back,1,z,Fri Mar 28 2025 10:56:43 GMT-0500 (Central Daylight Time),252749.20000000298,165_m_m_h_a.png,O,z,1115,4,1,2140.0,250609.20000000298,7096,VNB,A,3
4,test,1,0.0,1-Back,1,m,Fri Mar 28 2025 10:56:43 GMT-0500 (Central Daylight Time),254681.79999999702,124_o_f_n_a.png,O,m,901,5,1,1923.5,252758.29999999702,7096,VNB,A,4
5,test,1,0.0,1-Back,1,m,Fri Mar 28 2025 10:56:43 GMT-0500 (Central Daylight Time),256814.20000000298,109_y_m_d_a.png,O,m,1103,6,1,2123.7999999970198,254690.40000000596,7096,VNB,A,5
6,test,1,1.0,1-Back,1,z,Fri Mar 28 2025 10:56:43 GMT-0500 (Central Daylight Time),258932.29999999702,139_m_f_d_a.png,O,z,1103,7,1,2108.8999999910593,256823.40000000596,7096,VNB,A,6
7,test,1,0.0,1-Back,1,m,Fri Mar 28 2025 10:56:43 GMT-0500 (Central Daylight Time),261280.40000000596,071_y_f_h_a.png,O,m,1320,8,1,2336.7000000029802,258943.70000000298,7096,VNB,A,7
8,test,1,0.0,1-Back,1,m,Fri Mar 28 2025 10:56:43 GMT-0500 (Central Daylight Time),263095.40000000596,039_o_m_n_a.png,O,m,794,9,1,1805.5,261289.90000000596,7096,VNB,A,8
9,test,1,0.0,1-Back,1,m,Fri Mar 28 2025 10:56:43 GMT-0500 (Central Daylight Time),265311.299999997,109_y_m_h_a.png,O,m,1187,10,1,2206.0999999940395,263105.200000003,7096,VNB,A,9
10,test,1,0.0,1-Back,1,m,Fri Mar 28 2025 10:56:43 GMT-0500 (Central Daylight Time),267210.700000003,039_o_m_d_a.png,O,m,872,11,1,1891.9000000059605,265318.799999997,7096,VNB,A,10
11,test,1,1.0,1-Back,1,z,Fri Mar 28 2025 10:56:43 GMT-0500 (Central Daylight Time),269212.0,124_o_f_d_a.png,O,z,985,12,1,1992.5,267219.5,7096,VNB,A,11
12,test,1,0.0,1-Back,1,m,Fri Mar 28 2025 10:56:43 GMT-0500 (Central Daylight Time),271393.799999997,165_m_m_n_a.png,O,m,1149,13,1,2171.8999999910593,269221.90000000596,7096,VNB,A,12
13,test,1,1.0,1-Back,1,z,Fri Mar 28 2025 10:56:43 GMT-0500 (Central Daylight Time),273575.09999999404,071_y_f_n_a.png,O,z,1153,14,1,2171.2999999970198,271403.799999997,7096,VNB,A,13
14,test,1,0.0,1-Back,1,m,Fri Mar 28 2025 10:56:43 GMT-0500 (Central Daylight Time),275758.09999999404,139_m_f_h_a.png,O,m,1163,15,1,2174.0,273584.09999999404,7096,VNB,A,14
15,test,1,0.0,1-Back,1,m,Fri Mar 28 2025 10:56:43 GMT-0500 (Central Daylight Time),277741.200000003,165_m_m_d_a.png,O,m,956,16,1,1972.4000000059605,275768.799999997,7096,VNB,A,15
16,test,1,0.0,1-Back,1,m,Fri Mar 28 2025 10:56:43 GMT-0500 (Central Daylight Time),279774.5,109_y_m_n_a.png,O,m,1016,17,1,2023.5,277751.0,7096,VNB,A,16
17,test,1,0.0,1-Back,1,m,Fri Mar 28 2025 10:56:43 GMT-0500 (Central Daylight Time),281556.700000003,124_o_f_h_a.png,O,m,757,18,1,1772.9000000059605,279783.799999997,7096,VNB,A,17
0,test,2,0.0,1-Back,,,Fri Mar 28 2025 10:56:43 GMT-0500 (Central Daylight Time),281556.700000003,109_y_m_n_a.png,O,space,1374,1,1,1772.9000000059605,279783.799999997,7096,VNB,A,0
1,test,2,0.0,1-Back,1,m,Fri Mar 28 2025 10:56:43 GMT-0500 (Central Daylight Time),286872.299999997,071_y_f_h_a.png,O,m,894,2,1,1905.7000000029802,284966.59999999404,7096,VNB,A,1
1,test,2,1.0,1-Back,0,m,Fri Mar 28 2025 10:56:43 GMT-0500 (Central Daylight Time),288920.5,039_o_m_n_a.png,O,z,1027,3,1,2043.0999999940395,286877.40000000596,7096,VNB,A,2
2,test,2,0.0,1-Back,1,m,Fri Mar 28 2025 10:56:43 GMT-0500 (Central Daylight Time),290820.5,139_m_f_d_a.png,O,m,882,4,1,1890.9000000059605,288929.59999999404,7096,VNB,A,3
3,test,2,0.0,1-Back,1,z,Fri Mar 28 2025 10:56:43 GMT-0500 (Central Daylight Time),293067.799999997,165_m_m_d_a.png,O,z,1221,5,1,2237.5,290830.299999997,7096,VNB,A,4
4,test,2,0.0,1-Back,1,m,Fri Mar 28 2025 10:56:43 GMT-0500 (Central Daylight Time),295270.0,109_y_m_h_a.png,O,m,1182,6,1,2193.7000000029802,293076.299999997,7096,VNB,A,5
5,test,2,1.0,1-Back,1,z,Fri Mar 28 2025 10:56:43 GMT-0500 (Central Daylight Time),297368.0,124_o_f_h_a.png,O,z,1068,7,1,2090.5,295277.5,7096,VNB,A,6
6,test,2,0.0,1-Back,1,m,Fri Mar 28 2025 10:56:43 GMT-0500 (Central Daylight Time),299485.5,139_m_f_n_a.png,O,m,1083,8,1,2108.2999999970198,297377.200000003,7096,VNB,A,7
7,test,2,0.0,1-Back,1,m,Fri Mar 28 2025 10:56:43 GMT-0500 (Central Daylight Time),301484.799999997,071_y_f_d_a.png,O,m,982,9,1,1991.0999999940395,299493.700000003,7096,VNB,A,8
7,test,2,0.0,1-Back,0,m,Fri Mar 28 2025 10:56:43 GMT-0500 (Central Daylight Time),303616.09999999404,165_m_m_n_a.png,O,z,1110,10,1,2122.699999988079,301493.40000000596,7096,VNB,A,9
7,test,2,1.0,1-Back,0,m,Fri Mar 28 2025 10:56:43 GMT-0500 (Central Daylight Time),305932.90000000596,139_m_f_h_a.png,O,z,1300,11,1,2310.7000000029802,303622.200000003,7096,VNB,A,10
8,test,2,0.0,1-Back,1,z,Fri Mar 28 2025 10:56:43 GMT-0500 (Central Daylight Time),308662.90000000596,039_o_m_h_a.png,O,z,1711,12,1,2720.2000000029802,305942.700000003,7096,VNB,A,11
9,test,2,0.0,1-Back,1,m,Fri Mar 28 2025 10:56:43 GMT-0500 (Central Daylight Time),310546.5,109_y_m_d_a.png,O,m,858,13,1,1875.0999999940395,308671.40000000596,7096,VNB,A,12
10,test,2,0.0,1-Back,1,m,Fri Mar 28 2025 10:56:43 GMT-0500 (Central Daylight Time),312896.200000003,124_o_f_n_a.png,O,m,1327,14,1,2341.1000000089407,310555.09999999404,7096,VNB,A,13
11,test,2,0.0,1-Back,1,z,Fri Mar 28 2025 10:56:43 GMT-0500 (Central Daylight Time),315045.59999999404,071_y_f_n_a.png,O,z,1122,15,1,2141.0,312904.59999999404,7096,VNB,A,14
12,test,2,1.0,1-Back,1,m,Fri Mar 28 2025 10:56:43 GMT-0500 (Central Daylight Time),317144.5,165_m_m_h_a.png,O,m,1076,16,1,2090.0,315054.5,7096,VNB,A,15
13,test,2,0.0,1-Back,1,m,Fri Mar 28 2025 10:56:43 GMT-0500 (Central Daylight Time),319028.40000000596,124_o_f_d_a.png,O,m,857,17,1,1873.2000000029802,317155.200000003,7096,VNB,A,16
14,test,2,1.0,1-Back,1,z,Fri Mar 28 2025 10:56:43 GMT-0500 (Central Daylight Time),321111.09999999404,039_o_m_d_a.png,O,z,1066,18,1,2074.2999999970198,319036.799999997,7096,VNB,A,17
0,test,3,1.0,1-Back,,,Fri Mar 28 2025 10:56:43 GMT-0500 (Central Daylight Time),321111.09999999404,124_o_f_h_a.png,O,space,1214,1,1,2074.2999999970198,319036.799999997,7096,VNB,A,0
1,test,3,0.0,1-Back,1,m,Fri Mar 28 2025 10:56:43 GMT-0500 (Central Daylight Time),326292.0,139_m_f_d_a.png,O,m,897,2,1,1905.2000000029802,324386.799999997,7096,VNB,A,1
2,test,3,1.0,1-Back,1,m,Fri Mar 28 2025 10:56:43 GMT-0500 (Central Daylight Time),329157.40000000596,165_m_m_n_a.png,O,m,1837,3,1,2858.2000000029802,326299.200000003,7096,VNB,A,2
3,test,3,0.0,1-Back,1,z,Fri Mar 28 2025 10:56:43 GMT-0500 (Central Daylight Time),330990.90000000596,124_o_f_n_a.png,O,z,806,4,1,1824.5,329166.40000000596,7096,VNB,A,3
4,test,3,1.0,1-Back,1,m,Fri Mar 28 2025 10:56:43 GMT-0500 (Central Daylight Time),333124.299999997,039_o_m_d_a.png,O,m,1101,5,1,2123.7999999970198,331000.5,7096,VNB,A,4
5,test,3,0.0,1-Back,1,m,Fri Mar 28 2025 10:56:43 GMT-0500 (Central Daylight Time),335539.799999997,071_y_f_h_a.png,O,m,1390,6,1,2405.2999999970198,333134.5,7096,VNB,A,5
6,test,3,0.0,1-Back,1,z,Fri Mar 28 2025 10:56:43 GMT-0500 (Central Daylight Time),337355.90000000596,109_y_m_h_a.png,O,z,800,7,1,1806.1000000089407,335549.799999997,7096,VNB,A,6
7,test,3,0.0,1-Back,1,m,Fri Mar 28 2025 10:56:43 GMT-0500 (Central Daylight Time),339304.700000003,139_m_f_n_a.png,O,m,917,8,1,1940.6000000089407,337364.09999999404,7096,VNB,A,7
8,test,3,0.0,1-Back,1,m,Fri Mar 28 2025 10:56:43 GMT-0500 (Central Daylight Time),341952.90000000596,071_y_f_d_a.png,O,m,1616,9,1,2639.0,339313.90000000596,7096,VNB,A,8
9,test,3,1.0,1-Back,1,m,Fri Mar 28 2025 10:56:43 GMT-0500 (Central Daylight Time),344135.5,039_o_m_n_a.png,O,m,1159,10,1,2171.7000000029802,341963.799999997,7096,VNB,A,9
10,test,3,0.0,1-Back,1,m,Fri Mar 28 2025 10:56:43 GMT-0500 (Central Daylight Time),346502.59999999404,165_m_m_h_a.png,O,m,1337,11,1,2360.699999988079,344141.90000000596,7096,VNB,A,10
11,test,3,0.0,1-Back,1,z,Fri Mar 28 2025 10:56:43 GMT-0500 (Central Daylight Time),348552.09999999404,139_m_f_h_a.png,O,z,1020,12,1,2040.7999999970198,346511.299999997,7096,VNB,A,11
12,test,3,1.0,1-Back,1,m,Fri Mar 28 2025 10:56:43 GMT-0500 (Central Daylight Time),350417.90000000596,124_o_f_d_a.png,O,m,833,13,1,1856.300000011921,348561.59999999404,7096,VNB,A,12
13,test,3,0.0,1-Back,1,z,Fri Mar 28 2025 10:56:43 GMT-0500 (Central Daylight Time),352366.59999999404,165_m_m_d_a.png,O,z,928,14,1,1939.3999999910593,350427.200000003,7096,VNB,A,13
14,test,3,0.0,1-Back,1,m,Fri Mar 28 2025 10:56:43 GMT-0500 (Central Daylight Time),354502.0,109_y_m_n_a.png,O,m,1117,15,1,2125.0,352377.0,7096,VNB,A,14
15,test,3,1.0,1-Back,1,m,Fri Mar 28 2025 10:56:43 GMT-0500 (Central Daylight Time),356317.5,039_o_m_h_a.png,O,m,801,16,1,1806.7000000029802,354510.799999997,7096,VNB,A,15
16,test,3,0.0,1-Back,1,m,Fri Mar 28 2025 10:56:43 GMT-0500 (Central Daylight Time),358248.09999999404,109_y_m_d_a.png,O,m,900,17,1,1923.2999999970198,356324.799999997,7096,VNB,A,16
16,test,3,1.0,1-Back,0,m,Fri Mar 28 2025 10:56:43 GMT-0500 (Central Daylight Time),360481.799999997,071_y_f_n_a.png,O,z,1200,18,1,2223.0999999940395,358258.700000003,7096,VNB,A,17
0,test,4,1.0,1-Back,,,Fri Mar 28 2025 10:56:43 GMT-0500 (Central Daylight Time),360481.799999997,165_m_m_d_a.png,O,space,1040,1,1,2223.0999999940395,358258.700000003,7096,VNB,A,0
0,test,4,0.0,1-Back,0,z,Fri Mar 28 2025 10:56:43 GMT-0500 (Central Daylight Time),365981.59999999404,039_o_m_d_a.png,O,m,1418,2,1,2424.2999999970198,363557.299999997,7096,VNB,A,1
0,test,4,0.0,1-Back,0,m,Fri Mar 28 2025 10:56:43 GMT-0500 (Central Daylight Time),369012.09999999404,109_y_m_h_a.png,O,None,2015,3,1,3021.199999988079,365990.90000000596,7096,VNB,A,2
1,test,4,0.0,1-Back,1,m,Fri Mar 28 2025 10:56:43 GMT-0500 (Central Daylight Time),371345.59999999404,139_m_f_n_a.png,O,m,1301,4,1,2322.199999988079,369023.40000000596,7096,VNB,A,3
1,test,4,1.0,1-Back,0,m,Fri Mar 28 2025 10:56:43 GMT-0500 (Central Daylight Time),373393.90000000596,124_o_f_h_a.png,O,z,1017,5,1,2038.2000000029802,371355.700000003,7096,VNB,A,4
2,test,4,0.0,1-Back,1,m,Fri Mar 28 2025 10:56:43 GMT-0500 (Central Daylight Time),375210.40000000596,165_m_m_n_a.png,O,m,791,6,1,1805.0,373405.40000000596,7096,VNB,A,5
3,test,4,0.0,1-Back,1,m,Fri Mar 28 2025 10:56:43 GMT-0500 (Central Daylight Time),377208.799999997,109_y_m_d_a.png,O,m,976,7,1,1989.2000000029802,375219.59999999404,7096,VNB,A,6
4,test,4,1.0,1-Back,1,z,Fri Mar 28 2025 10:56:43 GMT-0500 (Central Daylight Time),379158.700000003,071_y_f_d_a.png,O,z,928,8,1,1940.7999999970198,377217.90000000596,7096,VNB,A,7
5,test,4,0.0,1-Back,1,m,Fri Mar 28 2025 10:56:43 GMT-0500 (Central Daylight Time),381224.700000003,139_m_f_h_a.png,O,m,1034,9,1,2053.2000000029802,379171.5,7096,VNB,A,8
6,test,4,0.0,1-Back,1,z,Fri Mar 28 2025 10:56:43 GMT-0500 (Central Daylight Time),383106.799999997,039_o_m_h_a.png,O,z,858,10,1,1871.7999999970198,381235.0,7096,VNB,A,9
7,test,4,1.0,1-Back,1,m,Fri Mar 28 2025 10:56:43 GMT-0500 (Central Daylight Time),384941.09999999404,124_o_f_n_a.png,O,m,816,11,1,1823.5999999940395,383117.5,7096,VNB,A,10
8,test,4,0.0,1-Back,1,m,Fri Mar 28 2025 10:56:43 GMT-0500 (Central Daylight Time),386889.700000003,139_m_f_d_a.png,O,m,926,12,1,1938.7999999970198,384950.90000000596,7096,VNB,A,11
9,test,4,0.0,1-Back,1,m,Fri Mar 28 2025 10:56:43 GMT-0500 (Central Daylight Time),389205.299999997,071_y_f_n_a.png,O,m,1297,13,1,2305.5999999940395,386899.700000003,7096,VNB,A,12
9,test,4,0.0,1-Back,0,m,Fri Mar 28 2025 10:56:43 GMT-0500 (Central Daylight Time),391654.700000003,124_o_f_d_a.png,O,z,1420,14,1,2441.4000000059605,389213.299999997,7096,VNB,A,13
10,test,4,0.0,1-Back,1,m,Fri Mar 28 2025 10:56:43 GMT-0500 (Central Daylight Time),394621.299999997,071_y_f_h_a.png,O,m,1949,15,1,2956.5,391664.799999997,7096,VNB,A,14
11,test,4,1.0,1-Back,1,z,Fri Mar 28 2025 10:56:43 GMT-0500 (Central Daylight Time),396603.700000003,165_m_m_h_a.png,O,z,957,16,1,1972.7000000029802,394631.0,7096,VNB,A,15
12,test,4,0.0,1-Back,1,m,Fri Mar 28 2025 10:56:43 GMT-0500 (Central Daylight Time),398535.59999999404,039_o_m_n_a.png,O,m,911,17,1,1921.699999988079,396613.90000000596,7096,VNB,A,16
13,test,4,1.0,1-Back,1,z,Fri Mar 28 2025 10:56:43 GMT-0500 (Central Daylight Time),400570.299999997,109_y_m_n_a.png,O,z,1000,18,1,2024.2000000029802,398546.09999999404,7096,VNB,A,17
0,test,5,1.0,1-Back,,,Fri Mar 28 2025 10:56:43 GMT-0500 (Central Daylight Time),400570.299999997,039_o_m_n_a.png,O,space,1297,1,1,2024.2000000029802,398546.09999999404,7096,VNB,A,0
1,test,5,1.0,1-Back,1,m,Fri Mar 28 2025 10:56:43 GMT-0500 (Central Daylight Time),405868.5,124_o_f_h_a.png,O,m,965,2,1,1973.2000000029802,403895.299999997,7096,VNB,A,1
2,test,5,0.0,1-Back,1,m,Fri Mar 28 2025 10:56:43 GMT-0500 (Central Daylight Time),407783.299999997,109_y_m_d_a.png,O,m,887,3,1,1904.2000000029802,405879.09999999404,7096,VNB,A,2
2,test,5,0.0,1-Back,0,z,Fri Mar 28 2025 10:56:43 GMT-0500 (Central Daylight Time),409615.799999997,039_o_m_d_a.png,O,m,813,4,1,1822.3999999910593,407793.40000000596,7096,VNB,A,3
3,test,5,0.0,1-Back,1,m,Fri Mar 28 2025 10:56:43 GMT-0500 (Central Daylight Time),411748.700000003,139_m_f_h_a.png,O,m,1106,5,1,2123.1000000089407,409625.59999999404,7096,VNB,A,4
4,test,5,0.0,1-Back,1,m,Fri Mar 28 2025 10:56:43 GMT-0500 (Central Daylight Time),414132.299999997,071_y_f_n_a.png,O,m,1365,6,1,2373.2000000029802,411759.09999999404,7096,VNB,A,5
4,test,5,1.0,1-Back,0,z,Fri Mar 28 2025 10:56:43 GMT-0500 (Central Daylight Time),415996.700000003,124_o_f_n_a.png,O,m,838,7,1,1857.0,414139.700000003,7096,VNB,A,6
5,test,5,0.0,1-Back,1,m,Fri Mar 28 2025 10:56:43 GMT-0500 (Central Daylight Time),418079.59999999404,139_m_f_d_a.png,O,m,1053,8,1,2072.3999999910593,416007.200000003,7096,VNB,A,7
6,test,5,0.0,1-Back,1,m,Fri Mar 28 2025 10:56:43 GMT-0500 (Central Daylight Time),419894.200000003,109_y_m_h_a.png,O,m,787,9,1,1805.2000000029802,418089.0,7096,VNB,A,8
6,test,5,0.0,1-Back,0,m,Fri Mar 28 2025 10:56:43 GMT-0500 (Central Daylight Time),422744.5,071_y_f_d_a.png,O,z,1826,10,1,2840.5,419904.0,7096,VNB,A,9
6,test,5,0.0,1-Back,0,m,Fri Mar 28 2025 10:56:43 GMT-0500 (Central Daylight Time),425244.799999997,165_m_m_n_a.png,O,z,1483,11,1,2490.5,422754.299999997,7096,VNB,A,10
7,test,5,1.0,1-Back,1,z,Fri Mar 28 2025 10:56:43 GMT-0500 (Central Daylight Time),427210.200000003,139_m_f_n_a.png,O,z,933,12,1,1956.2999999970198,425253.90000000596,7096,VNB,A,11
8,test,5,0.0,1-Back,1,m,Fri Mar 28 2025 10:56:43 GMT-0500 (Central Daylight Time),429325.5,039_o_m_h_a.png,O,m,1088,13,1,2106.5,427219.0,7096,VNB,A,12
8,test,5,0.0,1-Back,0,z,Fri Mar 28 2025 10:56:43 GMT-0500 (Central Daylight Time),431076.09999999404,165_m_m_h_a.png,O,m,724,14,1,1741.2999999970198,429334.799999997,7096,VNB,A,13
9,test,5,1.0,1-Back,1,m,Fri Mar 28 2025 10:56:43 GMT-0500 (Central Daylight Time),433292.5,124_o_f_d_a.png,O,m,1198,15,1,2206.7000000029802,431085.799999997,7096,VNB,A,14
10,test,5,0.0,1-Back,1,m,Fri Mar 28 2025 10:56:43 GMT-0500 (Central Daylight Time),435806.59999999404,109_y_m_n_a.png,O,m,1496,16,1,2504.7999999970198,433301.799999997,7096,VNB,A,15
10,test,5,0.0,1-Back,0,m,Fri Mar 28 2025 10:56:43 GMT-0500 (Central Daylight Time),438622.700000003,071_y_f_h_a.png,O,z,1787,17,1,2806.2999999970198,435816.40000000596,7096,VNB,A,16
10,test,5,0.0,1-Back,0,m,Fri Mar 28 2025 10:56:43 GMT-0500 (Central Daylight Time),440988.90000000596,165_m_m_d_a.png,O,z,1339,18,1,2357.2000000029802,438631.700000003,7096,VNB,A,17
0,prac,1,0.0,2-Back,,,Fri Mar 28 2025 10:56:43 GMT-0500 (Central Daylight Time),440988.90000000596,139_m_f_n_a.png,O,space,11461,1,1,2357.2000000029802,438631.700000003,7096,VNB,A,0
0,prac,1,0.0,2-Back,,,Fri Mar 28 2025 10:56:43 GMT-0500 (Central Daylight Time),440988.90000000596,124_o_f_h_a.png,O,space,11461,2,1,2357.2000000029802,438631.700000003,7096,VNB,A,0
1,prac,1,0.0,2-Back,1,m,Fri Mar 28 2025 10:56:43 GMT-0500 (Central Daylight Time),558969.0,039_o_m_d_a.png,O,m,1246,3,1,2039.4000000059605,556929.599999994,7096,VNB,A,1
1,prac,1,1.0,2-Back,0,z,Fri Mar 28 2025 10:56:43 GMT-0500 (Central Daylight Time),561768.599999994,165_m_m_h_a.png,O,None,2013,4,1,2787.699999988079,558980.900000006,7096,VNB,A,2
1,prac,1,0.0,2-Back,0,m,Fri Mar 28 2025 10:56:43 GMT-0500 (Central Daylight Time),564582.700000003,071_y_f_n_a.png,O,None,2016,5,1,2803.2999999970198,561779.400000006,7096,VNB,A,3
1,prac,1,1.0,2-Back,0,z,Fri Mar 28 2025 10:56:43 GMT-0500 (Central Daylight Time),566981.599999994,039_o_m_h_a.png,O,m,1619,6,1,2389.0,564592.599999994,7096,VNB,A,4
1,prac,1,1.0,2-Back,0,z,Fri Mar 28 2025 10:56:43 GMT-0500 (Central Daylight Time),568997.700000003,109_y_m_n_a.png,O,m,1206,7,1,2004.2999999970198,566993.400000006,7096,VNB,A,5
2,prac,1,0.0,2-Back,1,m,Fri Mar 28 2025 10:56:43 GMT-0500 (Central Daylight Time),571596.599999994,139_m_f_d_a.png,O,m,1783,8,1,2586.199999988079,569010.400000006,7096,VNB,A,6
2,prac,1,0.0,2-Back,0,m,Fri Mar 28 2025 10:56:43 GMT-0500 (Central Daylight Time),573813.799999997,124_o_f_d_a.png,O,z,1390,9,1,2207.7000000029802,571606.099999994,7096,VNB,A,7
3,prac,1,0.0,2-Back,1,m,Fri Mar 28 2025 10:56:43 GMT-0500 (Central Daylight Time),575914.0,165_m_m_h_a.png,O,m,1332,10,1,2090.2000000029802,573823.799999997,7096,VNB,A,8
3,prac,1,1.0,2-Back,0,z,Fri Mar 28 2025 10:56:43 GMT-0500 (Central Daylight Time),578296.799999997,071_y_f_d_a.png,O,m,1587,11,1,2374.7000000029802,575922.099999994,7096,VNB,A,9
4,prac,1,0.0,2-Back,1,m,Fri Mar 28 2025 10:56:43 GMT-0500 (Central Daylight Time),580627.599999994,039_o_m_n_a.png,O,m,1521,12,1,2317.699999988079,578309.900000006,7096,VNB,A,10
0,prac,2,0.0,2-Back,,,Fri Mar 28 2025 10:56:43 GMT-0500 (Central Daylight Time),580627.599999994,139_m_f_n_a.png,O,a,3493,1,1,2317.699999988079,578309.900000006,7096,VNB,A,0
0,prac,2,0.0,2-Back,,,Fri Mar 28 2025 10:56:43 GMT-0500 (Central Daylight Time),580627.599999994,124_o_f_h_a.png,O,a,3493,2,1,2317.699999988079,578309.900000006,7096,VNB,A,0
1,prac,2,0.0,2-Back,1,m,Fri Mar 28 2025 10:56:43 GMT-0500 (Central Daylight Time),591141.799999997,039_o_m_d_a.png,O,m,1130,3,1,1905.5999999940395,589236.200000003,7096,VNB,A,1
2,prac,2,1.0,2-Back,1,z,Fri Mar 28 2025 10:56:43 GMT-0500 (Central Daylight Time),593840.400000006,165_m_m_h_a.png,O,z,1908,4,1,2688.7000000029802,591151.700000003,7096,VNB,A,2
3,prac,2,0.0,2-Back,1,m,Fri Mar 28 2025 10:56:43 GMT-0500 (Central Daylight Time),596340.799999997,071_y_f_n_a.png,O,m,1707,5,1,2491.2000000029802,593849.599999994,7096,VNB,A,3
4,prac,2,1.0,2-Back,1,z,Fri Mar 28 2025 10:56:43 GMT-0500 (Central Daylight Time),598956.0,039_o_m_h_a.png,O,z,1816,6,1,2603.4000000059605,596352.599999994,7096,VNB,A,4
4,prac,2,1.0,2-Back,0,z,Fri Mar 28 2025 10:56:43 GMT-0500 (Central Daylight Time),600890.0,109_y_m_n_a.png,O,m,1109,7,1,1923.5,598966.5,7096,VNB,A,5
5,prac,2,0.0,2-Back,1,m,Fri Mar 28 2025 10:56:43 GMT-0500 (Central Daylight Time),603121.0,139_m_f_d_a.png,O,m,1416,8,1,2220.7000000029802,600900.299999997,7096,VNB,A,6
5,prac,2,0.0,2-Back,0,m,Fri Mar 28 2025 10:56:43 GMT-0500 (Central Daylight Time),605270.900000006,124_o_f_d_a.png,O,z,1318,9,1,2138.300000011921,603132.599999994,7096,VNB,A,7
6,prac,2,0.0,2-Back,1,m,Fri Mar 28 2025 10:56:43 GMT-0500 (Central Daylight Time),607471.900000006,165_m_m_h_a.png,O,m,1431,10,1,2188.5,605283.400000006,7096,VNB,A,8
6,prac,2,1.0,2-Back,0,z,Fri Mar 28 2025 10:56:43 GMT-0500 (Central Daylight Time),610236.299999997,071_y_f_d_a.png,O,m,1957,11,1,2754.5,607481.799999997,7096,VNB,A,9
7,prac,2,0.0,2-Back,1,m,Fri Mar 28 2025 10:56:43 GMT-0500 (Central Daylight Time),612468.299999997,039_o_m_n_a.png,O,m,1424,12,1,2222.7999999970198,610245.5,7096,VNB,A,10
0,test,1,0.0,2-Back,,,Fri Mar 28 2025 10:56:43 GMT-0500 (Central Daylight Time),612468.299999997,109_y_m_h_a.png,O,space,18672,1,1,2222.7999999970198,610245.5,7096,VNB,A,0
0,test,1,0.0,2-Back,,,Fri Mar 28 2025 10:56:43 GMT-0500 (Central Daylight Time),612468.299999997,124_o_f_n_a.png,O,space,18672,2,1,2222.7999999970198,610245.5,7096,VNB,A,0
1,test,1,0.0,2-Back,1,z,Fri Mar 28 2025 10:56:43 GMT-0500 (Central Daylight Time),644173.700000003,039_o_m_h_a.png,O,z,845,3,1,1854.7999999970198,642318.900000006,7096,VNB,A,1
2,test,1,0.0,2-Back,1,m,Fri Mar 28 2025 10:56:43 GMT-0500 (Central Daylight Time),646342.099999994,139_m_f_d_a.png,O,m,1151,4,1,2158.0999999940395,644184.0,7096,VNB,A,2
3,test,1,1.0,2-Back,1,m,Fri Mar 28 2025 10:56:43 GMT-0500 (Central Daylight Time),648440.099999994,109_y_m_n_a.png,O,m,1079,5,1,2087.7999999970198,646352.299999997,7096,VNB,A,3
3,test,1,0.0,2-Back,0,z,Fri Mar 28 2025 10:56:43 GMT-0500 (Central Daylight Time),650453.900000006,071_y_f_d_a.png,O,m,984,6,1,2003.800000011921,648450.099999994,7096,VNB,A,4
4,test,1,0.0,2-Back,1,m,Fri Mar 28 2025 10:56:43 GMT-0500 (Central Daylight Time),652572.0,165_m_m_h_a.png,O,m,1088,7,1,2110.0999999940395,650461.900000006,7096,VNB,A,5
5,test,1,1.0,2-Back,1,m,Fri Mar 28 2025 10:56:43 GMT-0500 (Central Daylight Time),654686.099999994,071_y_f_n_a.png,O,m,1085,8,1,2104.7999999970198,652581.299999997,7096,VNB,A,6
6,test,1,0.0,2-Back,1,z,Fri Mar 28 2025 10:56:43 GMT-0500 (Central Daylight Time),656737.5,124_o_f_h_a.png,O,z,1017,9,1,2042.5,654695.0,7096,VNB,A,7
7,test,1,0.0,2-Back,1,m,Fri Mar 28 2025 10:56:43 GMT-0500 (Central Daylight Time),659284.700000003,039_o_m_d_a.png,O,m,1517,10,1,2537.2000000029802,656747.5,7096,VNB,A,8
8,test,1,1.0,2-Back,1,m,Fri Mar 28 2025 10:56:43 GMT-0500 (Central Daylight Time),661252.400000006,165_m_m_d_a.png,O,m,949,11,1,1958.1000000089407,659294.299999997,7096,VNB,A,9
9,test,1,0.0,2-Back,1,m,Fri Mar 28 2025 10:56:43 GMT-0500 (Central Daylight Time),663285.799999997,139_m_f_n_a.png,O,m,1018,12,1,2024.8999999910593,661260.900000006,7096,VNB,A,10
10,test,1,0.0,2-Back,1,m,Fri Mar 28 2025 10:56:43 GMT-0500 (Central Daylight Time),665384.200000003,071_y_f_h_a.png,O,m,1066,13,1,2089.9000000059605,663294.299999997,7096,VNB,A,11
11,test,1,0.0,2-Back,1,z,Fri Mar 28 2025 10:56:43 GMT-0500 (Central Daylight Time),667566.700000003,165_m_m_n_a.png,O,z,1161,14,1,2173.2999999970198,665393.400000006,7096,VNB,A,12
12,test,1,0.0,2-Back,1,m,Fri Mar 28 2025 10:56:43 GMT-0500 (Central Daylight Time),669667.099999994,109_y_m_d_a.png,O,m,1075,15,1,2091.199999988079,667575.900000006,7096,VNB,A,13
12,test,1,1.0,2-Back,0,m,Fri Mar 28 2025 10:56:43 GMT-0500 (Central Daylight Time),672698.099999994,139_m_f_h_a.png,O,None,2016,16,1,3021.5,669676.599999994,7096,VNB,A,14
12,test,1,0.0,2-Back,0,z,Fri Mar 28 2025 10:56:43 GMT-0500 (Central Daylight Time),674881.200000003,124_o_f_d_a.png,O,m,1151,17,1,2172.2999999970198,672708.900000006,7096,VNB,A,15
12,test,1,0.0,2-Back,0,m,Fri Mar 28 2025 10:56:43 GMT-0500 (Central Daylight Time),677914.599999994,039_o_m_n_a.png,O,None,2017,18,1,3025.0999999940395,674889.5,7096,VNB,A,16
0,test,2,0.0,2-Back,,,Fri Mar 28 2025 10:56:43 GMT-0500 (Central Daylight Time),677914.599999994,165_m_m_h_a.png,O,space,2384,1,1,3025.0999999940395,674889.5,7096,VNB,A,0
0,test,2,0.0,2-Back,,,Fri Mar 28 2025 10:56:43 GMT-0500 (Central Daylight Time),677914.599999994,071_y_f_n_a.png,O,space,2384,2,1,3025.0999999940395,674889.5,7096,VNB,A,0
1,test,2,1.0,2-Back,1,z,Fri Mar 28 2025 10:56:43 GMT-0500 (Central Daylight Time),687593.099999994,124_o_f_h_a.png,O,z,1192,3,1,2204.699999988079,685388.400000006,7096,VNB,A,1
2,test,2,0.0,2-Back,1,m,Fri Mar 28 2025 10:56:43 GMT-0500 (Central Daylight Time),689692.099999994,039_o_m_d_a.png,O,m,1071,4,1,2088.7999999970198,687603.299999997,7096,VNB,A,2
2,test,2,0.0,2-Back,0,m,Fri Mar 28 2025 10:56:43 GMT-0500 (Central Daylight Time),692243.599999994,139_m_f_d_a.png,O,z,1517,5,1,2541.5999999940395,689702.0,7096,VNB,A,3
3,test,2,0.0,2-Back,1,m,Fri Mar 28 2025 10:56:43 GMT-0500 (Central Daylight Time),694758.900000006,109_y_m_h_a.png,O,m,1488,6,1,2504.1000000089407,692254.799999997,7096,VNB,A,4
3,test,2,0.0,2-Back,0,m,Fri Mar 28 2025 10:56:43 GMT-0500 (Central Daylight Time),697057.299999997,124_o_f_n_a.png,O,z,1276,7,1,2288.2000000029802,694769.099999994,7096,VNB,A,5
4,test,2,1.0,2-Back,1,z,Fri Mar 28 2025 10:56:43 GMT-0500 (Central Daylight Time),699822.400000006,039_o_m_h_a.png,O,z,1735,8,1,2756.2000000029802,697066.200000003,7096,VNB,A,6
5,test,2,0.0,2-Back,1,m,Fri Mar 28 2025 10:56:43 GMT-0500 (Central Daylight Time),701857.599999994,071_y_f_d_a.png,O,m,1002,9,1,2025.199999988079,699832.400000006,7096,VNB,A,7
6,test,2,0.0,2-Back,1,m,Fri Mar 28 2025 10:56:43 GMT-0500 (Central Daylight Time),704070.599999994,109_y_m_d_a.png,O,m,1184,10,1,2203.8999999910593,701866.700000003,7096,VNB,A,8
6,test,2,0.0,2-Back,0,m,Fri Mar 28 2025 10:56:43 GMT-0500 (Central Daylight Time),706670.700000003,165_m_m_n_a.png,O,z,1577,11,1,2589.0,704081.700000003,7096,VNB,A,9
7,test,2,0.0,2-Back,1,m,Fri Mar 28 2025 10:56:43 GMT-0500 (Central Daylight Time),708985.799999997,139_m_f_h_a.png,O,m,1284,12,1,2305.8999999910593,706679.900000006,7096,VNB,A,10
7,test,2,1.0,2-Back,0,z,Fri Mar 28 2025 10:56:43 GMT-0500 (Central Daylight Time),710987.400000006,039_o_m_n_a.png,O,m,983,13,1,1990.4000000059605,708997.0,7096,VNB,A,11
8,test,2,0.0,2-Back,1,m,Fri Mar 28 2025 10:56:43 GMT-0500 (Central Daylight Time),713037.299999997,124_o_f_d_a.png,O,m,1022,14,1,2043.5,710993.799999997,7096,VNB,A,12
8,test,2,0.0,2-Back,0,m,Fri Mar 28 2025 10:56:43 GMT-0500 (Central Daylight Time),715235.299999997,071_y_f_h_a.png,O,z,1166,15,1,2188.3999999910593,713046.900000006,7096,VNB,A,13
8,test,2,0.0,2-Back,0,z,Fri Mar 28 2025 10:56:43 GMT-0500 (Central Daylight Time),717168.700000003,165_m_m_d_a.png,O,m,901,16,1,1924.0,715244.700000003,7096,VNB,A,14
9,test,2,0.0,2-Back,1,m,Fri Mar 28 2025 10:56:43 GMT-0500 (Central Daylight Time),718984.099999994,109_y_m_n_a.png,O,m,796,17,1,1807.5,717176.599999994,7096,VNB,A,15
10,test,2,1.0,2-Back,1,m,Fri Mar 28 2025 10:56:43 GMT-0500 (Central Daylight Time),720849.5,139_m_f_n_a.png,O,m,842,18,1,1853.7999999970198,718995.700000003,7096,VNB,A,16
0,test,3,1.0,2-Back,,,Fri Mar 28 2025 10:56:43 GMT-0500 (Central Daylight Time),720849.5,039_o_m_n_a.png,O,space,1282,1,1,1853.7999999970198,718995.700000003,7096,VNB,A,0
0,test,3,1.0,2-Back,,,Fri Mar 28 2025 10:56:43 GMT-0500 (Central Daylight Time),720849.5,124_o_f_d_a.png,O,space,1282,2,1,1853.7999999970198,718995.700000003,7096,VNB,A,0
1,test,3,0.0,2-Back,1,m,Fri Mar 28 2025 10:56:43 GMT-0500 (Central Daylight Time),730079.900000006,071_y_f_h_a.png,O,m,1878,3,1,2890.2000000029802,727189.700000003,7096,VNB,A,1
2,test,3,0.0,2-Back,1,z,Fri Mar 28 2025 10:56:43 GMT-0500 (Central Daylight Time),732363.099999994,139_m_f_d_a.png,O,z,1257,4,1,2273.699999988079,730089.400000006,7096,VNB,A,2
3,test,3,1.0,2-Back,1,m,Fri Mar 28 2025 10:56:43 GMT-0500 (Central Daylight Time),734580.5,109_y_m_n_a.png,O,m,1182,5,1,2208.9000000059605,732371.599999994,7096,VNB,A,3
3,test,3,0.0,2-Back,0,m,Fri Mar 28 2025 10:56:43 GMT-0500 (Central Daylight Time),736644.200000003,039_o_m_h_a.png,O,z,1036,6,1,2053.7000000029802,734590.5,7096,VNB,A,4
3,test,3,0.0,2-Back,0,z,Fri Mar 28 2025 10:56:43 GMT-0500 (Central Daylight Time),738711.5,071_y_f_n_a.png,O,m,1037,7,1,2059.7000000029802,736651.799999997,7096,VNB,A,5
4,test,3,1.0,2-Back,1,m,Fri Mar 28 2025 10:56:43 GMT-0500 (Central Daylight Time),740760.799999997,165_m_m_d_a.png,O,m,1018,8,1,2036.8999999910593,738723.900000006,7096,VNB,A,6
5,test,3,0.0,2-Back,1,m,Fri Mar 28 2025 10:56:43 GMT-0500 (Central Daylight Time),742543.599999994,109_y_m_d_a.png,O,m,761,9,1,1776.199999988079,740767.400000006,7096,VNB,A,7
6,test,3,0.0,2-Back,1,m,Fri Mar 28 2025 10:56:43 GMT-0500 (Central Daylight Time),744826.299999997,124_o_f_h_a.png,O,m,1251,10,1,2271.7000000029802,742554.599999994,7096,VNB,A,8
7,test,3,1.0,2-Back,1,m,Fri Mar 28 2025 10:56:43 GMT-0500 (Central Daylight Time),746941.700000003,139_m_f_n_a.png,O,m,1096,11,1,2105.9000000059605,744835.799999997,7096,VNB,A,9
7,test,3,1.0,2-Back,0,z,Fri Mar 28 2025 10:56:43 GMT-0500 (Central Daylight Time),749340.299999997,165_m_m_h_a.png,O,m,1372,12,1,2388.5,746951.799999997,7096,VNB,A,10
8,test,3,0.0,2-Back,1,m,Fri Mar 28 2025 10:56:43 GMT-0500 (Central Daylight Time),751189.5,071_y_f_d_a.png,O,m,821,13,1,1839.2000000029802,749350.299999997,7096,VNB,A,11
8,test,3,0.0,2-Back,0,m,Fri Mar 28 2025 10:56:43 GMT-0500 (Central Daylight Time),753340.299999997,124_o_f_n_a.png,O,z,1124,14,1,2140.7000000029802,751199.599999994,7096,VNB,A,12
8,test,3,0.0,2-Back,0,z,Fri Mar 28 2025 10:56:43 GMT-0500 (Central Daylight Time),755573.700000003,039_o_m_d_a.png,O,m,1214,15,1,2223.5,753350.200000003,7096,VNB,A,13
9,test,3,1.0,2-Back,1,m,Fri Mar 28 2025 10:56:43 GMT-0500 (Central Daylight Time),758103.299999997,139_m_f_h_a.png,O,m,1512,16,1,2519.5,755583.799999997,7096,VNB,A,14
9,test,3,0.0,2-Back,0,m,Fri Mar 28 2025 10:56:43 GMT-0500 (Central Daylight Time),760404.200000003,165_m_m_n_a.png,O,z,1269,17,1,2290.6000000089407,758113.599999994,7096,VNB,A,15
9,test,3,0.0,2-Back,0,z,Fri Mar 28 2025 10:56:43 GMT-0500 (Central Daylight Time),762737.5,109_y_m_h_a.png,O,m,1302,18,1,2325.2000000029802,760412.299999997,7096,VNB,A,16
0,test,4,0.0,2-Back,,,Fri Mar 28 2025 10:56:43 GMT-0500 (Central Daylight Time),762737.5,139_m_f_n_a.png,O,space,1976,1,1,2325.2000000029802,760412.299999997,7096,VNB,A,0
0,test,4,0.0,2-Back,,,Fri Mar 28 2025 10:56:43 GMT-0500 (Central Daylight Time),762737.5,039_o_m_n_a.png,O,space,1976,2,1,2325.2000000029802,760412.299999997,7096,VNB,A,0
1,test,4,1.0,2-Back,1,m,Fri Mar 28 2025 10:56:43 GMT-0500 (Central Daylight Time),771900.400000006,109_y_m_h_a.png,O,m,1099,3,1,2109.1000000089407,769791.299999997,7096,VNB,A,1
2,test,4,1.0,2-Back,1,m,Fri Mar 28 2025 10:56:43 GMT-0500 (Central Daylight Time),773932.799999997,124_o_f_d_a.png,O,m,1006,4,1,2024.5,771908.299999997,7096,VNB,A,2
3,test,4,0.0,2-Back,1,z,Fri Mar 28 2025 10:56:43 GMT-0500 (Central Daylight Time),776648.400000006,039_o_m_h_a.png,O,z,1693,5,1,2706.0,773942.400000006,7096,VNB,A,3
4,test,4,0.0,2-Back,1,m,Fri Mar 28 2025 10:56:43 GMT-0500 (Central Daylight Time),778998.0,165_m_m_n_a.png,O,m,1329,6,1,2340.5,776657.5,7096,VNB,A,4
4,test,4,0.0,2-Back,0,m,Fri Mar 28 2025 10:56:43 GMT-0500 (Central Daylight Time),782030.5,139_m_f_d_a.png,O,None,2014,7,1,3021.7999999970198,779008.700000003,7096,VNB,A,5
5,test,4,0.0,2-Back,1,z,Fri Mar 28 2025 10:56:43 GMT-0500 (Central Daylight Time),784046.400000006,071_y_f_n_a.png,O,z,988,8,1,2004.1000000089407,782042.299999997,7096,VNB,A,6
6,test,4,1.0,2-Back,1,m,Fri Mar 28 2025 10:56:43 GMT-0500 (Central Daylight Time),786329.0,124_o_f_h_a.png,O,m,1250,9,1,2272.2999999970198,784056.700000003,7096,VNB,A,7
6,test,4,0.0,2-Back,0,m,Fri Mar 28 2025 10:56:43 GMT-0500 (Central Daylight Time),788444.0,165_m_m_h_a.png,O,z,1088,10,1,2105.9000000059605,786338.099999994,7096,VNB,A,8
7,test,4,0.0,2-Back,1,m,Fri Mar 28 2025 10:56:43 GMT-0500 (Central Daylight Time),790609.900000006,071_y_f_d_a.png,O,m,1140,11,1,2155.4000000059605,788454.5,7096,VNB,A,9
8,test,4,0.0,2-Back,1,m,Fri Mar 28 2025 10:56:43 GMT-0500 (Central Daylight Time),793059.900000006,109_y_m_n_a.png,O,m,1431,12,1,2440.1000000089407,790619.799999997,7096,VNB,A,10
9,test,4,0.0,2-Back,1,z,Fri Mar 28 2025 10:56:43 GMT-0500 (Central Daylight Time),795393.0,039_o_m_d_a.png,O,z,1301,13,1,2324.7000000029802,793068.299999997,7096,VNB,A,11
10,test,4,1.0,2-Back,1,m,Fri Mar 28 2025 10:56:43 GMT-0500 (Central Daylight Time),797692.099999994,139_m_f_h_a.png,O,m,1273,14,1,2289.699999988079,795402.400000006,7096,VNB,A,12
10,test,4,1.0,2-Back,0,m,Fri Mar 28 2025 10:56:43 GMT-0500 (Central Daylight Time),799674.5,071_y_f_h_a.png,O,z,964,15,1,1972.2000000029802,797702.299999997,7096,VNB,A,13
11,test,4,0.0,2-Back,1,m,Fri Mar 28 2025 10:56:43 GMT-0500 (Central Daylight Time),801689.599999994,124_o_f_n_a.png,O,m,982,16,1,2006.199999988079,799683.400000006,7096,VNB,A,14
11,test,4,0.0,2-Back,0,m,Fri Mar 28 2025 10:56:43 GMT-0500 (Central Daylight Time),803957.599999994,109_y_m_d_a.png,O,z,1249,17,1,2258.2999999970198,801699.299999997,7096,VNB,A,15
12,test,4,1.0,2-Back,1,m,Fri Mar 28 2025 10:56:43 GMT-0500 (Central Daylight Time),805990.200000003,165_m_m_d_a.png,O,m,1006,18,1,2022.7999999970198,803967.400000006,7096,VNB,A,16
0,test,5,1.0,2-Back,,,Fri Mar 28 2025 10:56:43 GMT-0500 (Central Daylight Time),805990.200000003,071_y_f_d_a.png,O,space,1524,1,1,2022.7999999970198,803967.400000006,7096,VNB,A,0
0,test,5,1.0,2-Back,,,Fri Mar 28 2025 10:56:43 GMT-0500 (Central Daylight Time),805990.200000003,124_o_f_h_a.png,O,space,1524,2,1,2022.7999999970198,803967.400000006,7096,VNB,A,0
1,test,5,1.0,2-Back,1,z,Fri Mar 28 2025 10:56:43 GMT-0500 (Central Daylight Time),815437.5,039_o_m_d_a.png,O,z,1817,3,1,2822.2000000029802,812615.299999997,7096,VNB,A,1
2,test,5,1.0,2-Back,1,m,Fri Mar 28 2025 10:56:43 GMT-0500 (Central Daylight Time),817702.700000003,139_m_f_n_a.png,O,m,1238,4,1,2257.7000000029802,815445.0,7096,VNB,A,2
3,test,5,0.0,2-Back,1,m,Fri Mar 28 2025 10:56:43 GMT-0500 (Central Daylight Time),820351.299999997,165_m_m_h_a.png,O,m,1628,5,1,2637.8999999910593,817713.400000006,7096,VNB,A,3
4,test,5,0.0,2-Back,1,z,Fri Mar 28 2025 10:56:43 GMT-0500 (Central Daylight Time),822468.5,071_y_f_n_a.png,O,z,1100,6,1,2107.2000000029802,820361.299999997,7096,VNB,A,4
5,test,5,0.0,2-Back,1,m,Fri Mar 28 2025 10:56:43 GMT-0500 (Central Daylight Time),824501.200000003,124_o_f_d_a.png,O,m,1015,7,1,2021.9000000059605,822479.299999997,7096,VNB,A,5
6,test,5,0.0,2-Back,1,m,Fri Mar 28 2025 10:56:43 GMT-0500 (Central Daylight Time),826999.5,039_o_m_h_a.png,O,m,1477,8,1,2487.5999999940395,824511.900000006,7096,VNB,A,6
6,test,5,1.0,2-Back,0,z,Fri Mar 28 2025 10:56:43 GMT-0500 (Central Daylight Time),829632.900000006,139_m_f_d_a.png,O,m,1604,9,1,2622.4000000059605,827010.5,7096,VNB,A,7
6,test,5,0.0,2-Back,0,m,Fri Mar 28 2025 10:56:43 GMT-0500 (Central Daylight Time),831664.900000006,109_y_m_n_a.png,O,z,1009,10,1,2023.1000000089407,829641.799999997,7096,VNB,A,8
6,test,5,0.0,2-Back,0,m,Fri Mar 28 2025 10:56:43 GMT-0500 (Central Daylight Time),833329.400000006,165_m_m_n_a.png,O,z,640,11,1,1657.300000011921,831672.099999994,7096,VNB,A,9
7,test,5,0.0,2-Back,1,m,Fri Mar 28 2025 10:56:43 GMT-0500 (Central Daylight Time),835181.5,071_y_f_h_a.png,O,m,832,12,1,1842.2000000029802,833339.299999997,7096,VNB,A,10
8,test,5,0.0,2-Back,1,m,Fri Mar 28 2025 10:56:43 GMT-0500 (Central Daylight Time),837111.5,109_y_m_d_a.png,O,m,910,13,1,1921.2000000029802,835190.299999997,7096,VNB,A,11
9,test,5,1.0,2-Back,1,z,Fri Mar 28 2025 10:56:43 GMT-0500 (Central Daylight Time),839162.5,139_m_f_h_a.png,O,z,1025,14,1,2041.2000000029802,837121.299999997,7096,VNB,A,12
10,test,5,0.0,2-Back,1,m,Fri Mar 28 2025 10:56:43 GMT-0500 (Central Daylight Time),841678.200000003,039_o_m_n_a.png,O,m,1487,15,1,2505.7000000029802,839172.5,7096,VNB,A,13
11,test,5,0.0,2-Back,1,m,Fri Mar 28 2025 10:56:43 GMT-0500 (Central Daylight Time),843710.900000006,165_m_m_d_a.png,O,m,1013,16,1,2022.2000000029802,841688.700000003,7096,VNB,A,14
11,test,5,0.0,2-Back,0,z,Fri Mar 28 2025 10:56:43 GMT-0500 (Central Daylight Time),845893.099999994,124_o_f_n_a.png,O,m,1166,17,1,2171.199999988079,843721.900000006,7096,VNB,A,15
11,test,5,1.0,2-Back,0,m,Fri Mar 28 2025 10:56:43 GMT-0500 (Central Daylight Time),847859.900000006,109_y_m_h_a.png,O,z,933,18,1,1956.1000000089407,845903.799999997,7096,VNB,A,16
