block_c,block_dur,condition,countdown,datetime,endtime,list,multichar_response,project,response,response_time,session_number,start_end,starttime,subject_id,task,task_vers,trial
,,,,Mon Mar 10 2025 17:55:53 GMT-0500 (Central Daylight Time),,,,O,space,831,1,,,7048,WL,C,
prac,,0,,Mon Mar 10 2025 17:55:53 GMT-0500 (Central Daylight Time),,NA,b,O,b,5289,1,,,7048,WL,C,1.0
prac,,0,,Mon Mar 10 2025 17:55:53 GMT-0500 (Central Daylight Time),,NA,bo,O,o,127,1,,,7048,WL,C,1.0
prac,,0,,Mon Mar 10 2025 17:55:53 GMT-0500 (Central Daylight Time),,NA,boo,O,o,109,1,,,7048,WL,C,1.0
prac,,0,,Mon Mar 10 2025 17:55:53 GMT-0500 (Central Daylight Time),,NA,boos,O,s,58,1,,,7048,WL,C,1.0
prac,,0,,Mon Mar 10 2025 17:55:53 GMT-0500 (Central Daylight Time),,NA,boost,O,t,74,1,,,7048,WL,C,1.0
prac,,0,,Mon Mar 10 2025 17:55:53 GMT-0500 (Central Daylight Time),,NA,boostenter,O,enter,2342,1,,,7048,WL,C,1.0
1,1.4689998626708984,learn,58531.0001373291,Mon Mar 10 2025 17:55:53 GMT-0500 (Central Daylight Time),154570.09999996424,A,t,O,t,1460,1,1468.7999999523163,153101.30000001192,7048,WL,C,1.0
1,2.0160000324249268,learn,57983.99996757507,Mon Mar 10 2025 17:55:53 GMT-0500 (Central Daylight Time),155117.80000001192,A,to,O,o,526,1,2016.5,153101.30000001192,7048,WL,C,1.0
1,2.1010000705718994,learn,57898.9999294281,Mon Mar 10 2025 17:55:53 GMT-0500 (Central Daylight Time),155201.89999997616,A,tow,O,w,77,1,2100.599999964237,153101.30000001192,7048,WL,C,1.0
1,2.1470000743865967,learn,57852.9999256134,Mon Mar 10 2025 17:55:53 GMT-0500 (Central Daylight Time),155248.5,A,towe,O,e,29,1,2147.199999988079,153101.30000001192,7048,WL,C,1.0
1,2.197000026702881,learn,57802.99997329712,Mon Mar 10 2025 17:55:53 GMT-0500 (Central Daylight Time),155298.59999996424,A,tower,O,r,33,1,2197.2999999523163,153101.30000001192,7048,WL,C,1.0
1,2.2300000190734863,learn,57769.999980926514,Mon Mar 10 2025 17:55:53 GMT-0500 (Central Daylight Time),155331.5,A,towerr,O,r,13,1,2230.199999988079,153101.30000001192,7048,WL,C,1.0
1,3.066999912261963,learn,56933.00008773804,Mon Mar 10 2025 17:55:53 GMT-0500 (Central Daylight Time),156168.39999997616,A,towerrenter,O,enter,823,1,3067.099999964237,153101.30000001192,7048,WL,C,1.0
1,4.0320000648498535,learn,55967.99993515015,Mon Mar 10 2025 17:55:53 GMT-0500 (Central Daylight Time),157133.30000001192,A,w,O,w,953,1,964.4000000357628,156168.89999997616,7048,WL,C,2.0
1,4.83299994468689,learn,55167.00005531311,Mon Mar 10 2025 17:55:53 GMT-0500 (Central Daylight Time),157933.89999997616,A,wh,O,h,789,1,1765.0,156168.89999997616,7048,WL,C,2.0
1,5.131999969482422,learn,54868.00003051758,Mon Mar 10 2025 17:55:53 GMT-0500 (Central Daylight Time),158233.39999997616,A,whe,O,e,285,1,2064.5,156168.89999997616,7048,WL,C,2.0
1,5.348999977111816,learn,54651.00002288818,Mon Mar 10 2025 17:55:53 GMT-0500 (Central Daylight Time),158450.19999998808,A,whea,O,a,210,1,2281.300000011921,156168.89999997616,7048,WL,C,2.0
1,5.447999954223633,learn,54552.00004577637,Mon Mar 10 2025 17:55:53 GMT-0500 (Central Daylight Time),158548.89999997616,A,wheat,O,t,77,1,2380.0,156168.89999997616,7048,WL,C,2.0
1,5.698999881744385,learn,54301.000118255615,Mon Mar 10 2025 17:55:53 GMT-0500 (Central Daylight Time),158800.19999998808,A,wheatenter,O,enter,236,1,2631.300000011921,156168.89999997616,7048,WL,C,2.0
1,5.898999929428101,learn,54101.0000705719,Mon Mar 10 2025 17:55:53 GMT-0500 (Central Daylight Time),159000.09999996424,A,q,O,q,194,1,199.5,158800.59999996424,7048,WL,C,3.0
1,6.047999858856201,learn,53952.0001411438,Mon Mar 10 2025 17:55:53 GMT-0500 (Central Daylight Time),159149.30000001192,A,qu,O,u,129,1,348.7000000476837,158800.59999996424,7048,WL,C,3.0
1,6.230999946594238,learn,53769.00005340576,Mon Mar 10 2025 17:55:53 GMT-0500 (Central Daylight Time),159332.59999996424,A,que,O,e,171,1,532.0,158800.59999996424,7048,WL,C,3.0
1,6.430000066757202,learn,53569.9999332428,Mon Mar 10 2025 17:55:53 GMT-0500 (Central Daylight Time),159531.80000001192,A,quee,O,e,181,1,731.2000000476837,158800.59999996424,7048,WL,C,3.0
1,6.703000068664551,learn,53296.99993133545,Mon Mar 10 2025 17:55:53 GMT-0500 (Central Daylight Time),159804.0,A,queen,O,n,265,1,1003.4000000357628,158800.59999996424,7048,WL,C,3.0
1,7.3480000495910645,learn,52651.999950408936,Mon Mar 10 2025 17:55:53 GMT-0500 (Central Daylight Time),160449.39999997616,A,queenenter,O,enter,631,1,1648.800000011921,158800.59999996424,7048,WL,C,3.0
1,7.879999876022339,learn,52120.00012397766,Mon Mar 10 2025 17:55:53 GMT-0500 (Central Daylight Time),160981.80000001192,A,c,O,c,520,1,532.0,160449.80000001192,7048,WL,C,4.0
1,7.94599986076355,learn,52054.00013923645,Mon Mar 10 2025 17:55:53 GMT-0500 (Central Daylight Time),161047.5,A,co,O,o,50,1,597.6999999880791,160449.80000001192,7048,WL,C,4.0
1,8.065000057220459,learn,51934.99994277954,Mon Mar 10 2025 17:55:53 GMT-0500 (Central Daylight Time),161166.09999996424,A,cow,O,w,96,1,716.2999999523163,160449.80000001192,7048,WL,C,4.0
1,8.230999946594238,learn,51769.00005340576,Mon Mar 10 2025 17:55:53 GMT-0500 (Central Daylight Time),161332.19999998808,A,cowenter,O,enter,155,1,882.3999999761581,160449.80000001192,7048,WL,C,4.0
1,9.52999997138977,learn,50470.00002861023,Mon Mar 10 2025 17:55:53 GMT-0500 (Central Daylight Time),162631.39999997616,A,c,O,c,1286,1,1298.8999999761581,161332.5,7048,WL,C,5.0
1,9.613999843597412,learn,50386.00015640259,Mon Mar 10 2025 17:55:53 GMT-0500 (Central Daylight Time),162715.59999996424,A,co,O,o,60,1,1383.0999999642372,161332.5,7048,WL,C,5.0
1,9.713000059127808,learn,50286.99994087219,Mon Mar 10 2025 17:55:53 GMT-0500 (Central Daylight Time),162814.59999996424,A,cor,O,r,76,1,1482.0999999642372,161332.5,7048,WL,C,5.0
1,9.796000003814697,learn,50203.9999961853,Mon Mar 10 2025 17:55:53 GMT-0500 (Central Daylight Time),162897.30000001192,A,corn,O,n,65,1,1564.800000011921,161332.5,7048,WL,C,5.0
1,10.1489999294281,learn,49851.0000705719,Mon Mar 10 2025 17:55:53 GMT-0500 (Central Daylight Time),163250.80000001192,A,cornenter,O,enter,336,1,1918.300000011921,161332.5,7048,WL,C,5.0
1,11.079999923706055,learn,48920.000076293945,Mon Mar 10 2025 17:55:53 GMT-0500 (Central Daylight Time),164181.5,A,q,O,q,919,1,930.4000000357628,163251.09999996424,7048,WL,C,6.0
1,11.19599986076355,learn,48804.00013923645,Mon Mar 10 2025 17:55:53 GMT-0500 (Central Daylight Time),164296.89999997616,A,qu,O,u,101,1,1045.800000011921,163251.09999996424,7048,WL,C,6.0
1,11.315000057220459,learn,48684.99994277954,Mon Mar 10 2025 17:55:53 GMT-0500 (Central Daylight Time),164415.89999997616,A,que,O,e,104,1,1164.800000011921,163251.09999996424,7048,WL,C,6.0
1,11.44700002670288,learn,48552.99997329712,Mon Mar 10 2025 17:55:53 GMT-0500 (Central Daylight Time),164548.19999998808,A,quee,O,e,127,1,1297.1000000238419,163251.09999996424,7048,WL,C,6.0
1,11.51199984550476,learn,48488.00015449524,Mon Mar 10 2025 17:55:53 GMT-0500 (Central Daylight Time),164613.5,A,queen,O,n,52,1,1362.4000000357628,163251.09999996424,7048,WL,C,6.0
1,11.680000066757202,learn,48319.9999332428,Mon Mar 10 2025 17:55:53 GMT-0500 (Central Daylight Time),164781.09999996424,A,queenenter,O,enter,147,1,1530.0,163251.09999996424,7048,WL,C,6.0
1,14.244999885559082,learn,45755.00011444092,Mon Mar 10 2025 17:55:53 GMT-0500 (Central Daylight Time),167346.69999998808,A,d,O,d,2558,1,2565.300000011921,164781.39999997616,7048,WL,C,7.0
1,14.34500002861023,learn,45654.99997138977,Mon Mar 10 2025 17:55:53 GMT-0500 (Central Daylight Time),167446.09999996424,A,do,O,o,77,1,2664.699999988079,164781.39999997616,7048,WL,C,7.0
1,14.563999891281128,learn,45436.00010871887,Mon Mar 10 2025 17:55:53 GMT-0500 (Central Daylight Time),167665.09999996424,A,dot,O,t,212,1,2883.699999988079,164781.39999997616,7048,WL,C,7.0
1,14.694999933242798,learn,45305.0000667572,Mon Mar 10 2025 17:55:53 GMT-0500 (Central Daylight Time),167795.89999997616,A,doto,O,o,111,1,3014.5,164781.39999997616,7048,WL,C,7.0
1,14.928999900817871,learn,45071.00009918213,Mon Mar 10 2025 17:55:53 GMT-0500 (Central Daylight Time),168030.0,A,dotor,O,r,221,1,3248.600000023842,164781.39999997616,7048,WL,C,7.0
1,15.043999910354614,learn,44956.000089645386,Mon Mar 10 2025 17:55:53 GMT-0500 (Central Daylight Time),168145.89999997616,A,dotorenter,O,enter,107,1,3364.5,164781.39999997616,7048,WL,C,7.0
1,19.509999990463257,learn,40490.00000953674,Mon Mar 10 2025 17:55:53 GMT-0500 (Central Daylight Time),172612.0,A,f,O,f,4447,1,4465.800000011921,168146.19999998808,7048,WL,C,8.0
1,19.609999895095825,learn,40390.000104904175,Mon Mar 10 2025 17:55:53 GMT-0500 (Central Daylight Time),172711.09999996424,A,fl,O,l,73,1,4564.899999976158,168146.19999998808,7048,WL,C,8.0
1,19.710000038146973,learn,40289.99996185303,Mon Mar 10 2025 17:55:53 GMT-0500 (Central Daylight Time),172811.5,A,fla,O,a,78,1,4665.300000011921,168146.19999998808,7048,WL,C,8.0
1,20.013000011444092,learn,39986.99998855591,Mon Mar 10 2025 17:55:53 GMT-0500 (Central Daylight Time),173114.19999998808,A,flag,O,g,297,1,4968.0,168146.19999998808,7048,WL,C,8.0
1,20.177000045776367,learn,39822.99995422363,Mon Mar 10 2025 17:55:53 GMT-0500 (Central Daylight Time),173278.59999996424,A,flagenter,O,enter,152,1,5132.399999976158,168146.19999998808,7048,WL,C,8.0
1,42.83800005912781,learn,17161.999940872192,Mon Mar 10 2025 17:55:53 GMT-0500 (Central Daylight Time),195939.39999997616,A,enter,O,enter,22643,1,22660.399999976158,173279.0,7048,WL,C,9.0
1,44.236000061035156,learn,15763.999938964844,Mon Mar 10 2025 17:55:53 GMT-0500 (Central Daylight Time),197337.59999996424,A,enter,O,enter,1384,1,1397.8999999761581,195939.69999998808,7048,WL,C,10.0
1,44.8529999256134,learn,15147.000074386597,Mon Mar 10 2025 17:55:53 GMT-0500 (Central Daylight Time),197954.69999998808,A,enter,O,enter,601,1,616.8000000119209,197337.89999997616,7048,WL,C,11.0
1,45.35199999809265,learn,14648.000001907349,Mon Mar 10 2025 17:55:53 GMT-0500 (Central Daylight Time),198453.59999996424,A,enter,O,enter,487,1,498.5999999642372,197955.0,7048,WL,C,12.0
1,45.85199999809265,learn,14148.000001907349,Mon Mar 10 2025 17:55:53 GMT-0500 (Central Daylight Time),198953.59999996424,A,enter,O,enter,493,1,499.69999998807907,198453.89999997616,7048,WL,C,13.0
1,46.38499999046326,learn,13615.000009536743,Mon Mar 10 2025 17:55:53 GMT-0500 (Central Daylight Time),199486.5,A,enter,O,enter,512,1,532.6000000238419,198953.89999997616,7048,WL,C,14.0
1,47.234999895095825,learn,12765.000104904175,Mon Mar 10 2025 17:55:53 GMT-0500 (Central Daylight Time),200336.80000001192,A,enter,O,enter,836,1,849.9000000357628,199486.89999997616,7048,WL,C,15.0
2,1.1650002002716064,learn,58834.99979972839,Mon Mar 10 2025 17:55:53 GMT-0500 (Central Daylight Time),268347.89999997616,A,d,O,d,1147,1,1164.5,267183.39999997616,7048,WL,C,1.0
2,1.3980000019073486,learn,58601.99999809265,Mon Mar 10 2025 17:55:53 GMT-0500 (Central Daylight Time),268580.39999997616,A,do,O,o,214,1,1397.0,267183.39999997616,7048,WL,C,1.0
2,1.4660000801086426,learn,58533.99991989136,Mon Mar 10 2025 17:55:53 GMT-0500 (Central Daylight Time),268648.6999999881,A,doc,O,c,60,1,1465.300000011921,267183.39999997616,7048,WL,C,1.0
2,1.633000135421753,learn,58366.99986457825,Mon Mar 10 2025 17:55:53 GMT-0500 (Central Daylight Time),268816.09999996424,A,doct,O,t,143,1,1632.699999988079,267183.39999997616,7048,WL,C,1.0
2,1.7650001049041748,learn,58234.999895095825,Mon Mar 10 2025 17:55:53 GMT-0500 (Central Daylight Time),268948.0,A,docto,O,o,115,1,1764.6000000238419,267183.39999997616,7048,WL,C,1.0
2,1.8300001621246338,learn,58169.999837875366,Mon Mar 10 2025 17:55:53 GMT-0500 (Central Daylight Time),269012.8000000119,A,doctor,O,r,52,1,1829.4000000357628,267183.39999997616,7048,WL,C,1.0
2,2.564000129699707,learn,57435.99987030029,Mon Mar 10 2025 17:55:53 GMT-0500 (Central Daylight Time),269746.59999996424,A,doctorenter,O,enter,716,1,2563.199999988079,267183.39999997616,7048,WL,C,1.0
2,3.0470001697540283,learn,56952.99983024597,Mon Mar 10 2025 17:55:53 GMT-0500 (Central Daylight Time),270230.1999999881,A,l,O,l,472,1,483.19999998807907,269747.0,7048,WL,C,2.0
2,3.1650002002716064,learn,56834.99979972839,Mon Mar 10 2025 17:55:53 GMT-0500 (Central Daylight Time),270347.5,A,le,O,e,99,1,600.5,269747.0,7048,WL,C,2.0
2,3.2820000648498535,learn,56717.99993515015,Mon Mar 10 2025 17:55:53 GMT-0500 (Central Daylight Time),270465.09999996424,A,let,O,t,110,1,718.0999999642372,269747.0,7048,WL,C,2.0
2,3.4150002002716064,learn,56584.99979972839,Mon Mar 10 2025 17:55:53 GMT-0500 (Central Daylight Time),270597.5,A,lett,O,t,120,1,850.5,269747.0,7048,WL,C,2.0
2,3.5480000972747803,learn,56451.99990272522,Mon Mar 10 2025 17:55:53 GMT-0500 (Central Daylight Time),270730.59999996424,A,lette,O,e,116,1,983.5999999642372,269747.0,7048,WL,C,2.0
2,3.5960001945495605,learn,56403.99980545044,Mon Mar 10 2025 17:55:53 GMT-0500 (Central Daylight Time),270778.8000000119,A,letter,O,r,39,1,1031.800000011921,269747.0,7048,WL,C,2.0
2,3.765000104904175,learn,56234.999895095825,Mon Mar 10 2025 17:55:53 GMT-0500 (Central Daylight Time),270947.6999999881,A,letterenter,O,enter,160,1,1200.699999988079,269747.0,7048,WL,C,2.0
2,3.8980000019073486,learn,56101.99999809265,Mon Mar 10 2025 17:55:53 GMT-0500 (Central Daylight Time),271080.5,A,c,O,c,118,1,132.5,270948.0,7048,WL,C,3.0
2,3.9810001850128174,learn,56018.99981498718,Mon Mar 10 2025 17:55:53 GMT-0500 (Central Daylight Time),271164.0,A,ca,O,a,65,1,216.0,270948.0,7048,WL,C,3.0
2,4.064000129699707,learn,55935.99987030029,Mon Mar 10 2025 17:55:53 GMT-0500 (Central Daylight Time),271246.5,A,cam,O,m,68,1,298.5,270948.0,7048,WL,C,3.0
2,4.130000114440918,learn,55869.99988555908,Mon Mar 10 2025 17:55:53 GMT-0500 (Central Daylight Time),271312.59999996424,A,camp,O,p,58,1,364.5999999642372,270948.0,7048,WL,C,3.0
2,4.430999994277954,learn,55569.000005722046,Mon Mar 10 2025 17:55:53 GMT-0500 (Central Daylight Time),271613.39999997616,A,campenter,O,enter,279,1,665.3999999761581,270948.0,7048,WL,C,3.0
2,5.13100004196167,learn,54868.99995803833,Mon Mar 10 2025 17:55:53 GMT-0500 (Central Daylight Time),272313.59999996424,A,n,O,n,685,1,700.0,271613.59999996424,7048,WL,C,4.0
2,5.17900013923645,learn,54820.99986076355,Mon Mar 10 2025 17:55:53 GMT-0500 (Central Daylight Time),272361.8000000119,A,na,O,a,40,1,748.2000000476837,271613.59999996424,7048,WL,C,4.0
2,5.29800009727478,learn,54701.99990272522,Mon Mar 10 2025 17:55:53 GMT-0500 (Central Daylight Time),272480.8000000119,A,nai,O,i,97,1,867.2000000476837,271613.59999996424,7048,WL,C,4.0
2,5.364000082015991,learn,54635.99991798401,Mon Mar 10 2025 17:55:53 GMT-0500 (Central Daylight Time),272546.8000000119,A,nail,O,l,47,1,933.2000000476837,271613.59999996424,7048,WL,C,4.0
2,5.5970001220703125,learn,54402.99987792969,Mon Mar 10 2025 17:55:53 GMT-0500 (Central Daylight Time),272779.89999997616,A,nailenter,O,enter,224,1,1166.300000011921,271613.59999996424,7048,WL,C,4.0
2,5.814000129699707,learn,54185.99987030029,Mon Mar 10 2025 17:55:53 GMT-0500 (Central Daylight Time),272996.3000000119,A,s,O,s,198,1,216.10000002384186,272780.1999999881,7048,WL,C,5.0
2,5.898000001907349,learn,54101.99999809265,Mon Mar 10 2025 17:55:53 GMT-0500 (Central Daylight Time),273081.1999999881,A,sh,O,h,79,1,301.0,272780.1999999881,7048,WL,C,5.0
2,5.963000059127808,learn,54036.99994087219,Mon Mar 10 2025 17:55:53 GMT-0500 (Central Daylight Time),273146.0,A,sho,O,o,47,1,365.80000001192093,272780.1999999881,7048,WL,C,5.0
2,6.03000020980835,learn,53969.99979019165,Mon Mar 10 2025 17:55:53 GMT-0500 (Central Daylight Time),273212.59999996424,A,shor,O,r,56,1,432.39999997615814,272780.1999999881,7048,WL,C,5.0
2,6.0970001220703125,learn,53902.99987792969,Mon Mar 10 2025 17:55:53 GMT-0500 (Central Daylight Time),273279.6999999881,A,shore,O,e,53,1,499.5,272780.1999999881,7048,WL,C,5.0
2,6.247000217437744,learn,53752.999782562256,Mon Mar 10 2025 17:55:53 GMT-0500 (Central Daylight Time),273429.59999996424,A,shoreenter,O,enter,130,1,649.3999999761581,272780.1999999881,7048,WL,C,5.0
2,6.380000114440918,learn,53619.99988555908,Mon Mar 10 2025 17:55:53 GMT-0500 (Central Daylight Time),273562.8000000119,A,b,O,b,116,1,133.0,273429.8000000119,7048,WL,C,6.0
2,6.497000217437744,learn,53502.999782562256,Mon Mar 10 2025 17:55:53 GMT-0500 (Central Daylight Time),273680.09999996424,A,bo,O,o,103,1,250.29999995231628,273429.8000000119,7048,WL,C,6.0
2,6.5980000495910645,learn,53401.999950408936,Mon Mar 10 2025 17:55:53 GMT-0500 (Central Daylight Time),273780.8000000119,A,bod,O,d,79,1,351.0,273429.8000000119,7048,WL,C,6.0
2,6.714000225067139,learn,53285.99977493286,Mon Mar 10 2025 17:55:53 GMT-0500 (Central Daylight Time),273896.5,A,body,O,y,101,1,466.69999998807907,273429.8000000119,7048,WL,C,6.0
2,6.947000026702881,learn,53052.99997329712,Mon Mar 10 2025 17:55:53 GMT-0500 (Central Daylight Time),274129.6999999881,A,bodyenter,O,enter,217,1,699.8999999761581,273429.8000000119,7048,WL,C,6.0
2,8.480000019073486,learn,51519.999980926514,Mon Mar 10 2025 17:55:53 GMT-0500 (Central Daylight Time),275662.89999997616,A,t,O,t,1511,1,1532.800000011921,274130.09999996424,7048,WL,C,7.0
2,8.578999996185303,learn,51421.0000038147,Mon Mar 10 2025 17:55:53 GMT-0500 (Central Daylight Time),275761.8000000119,A,to,O,o,90,1,1631.7000000476837,274130.09999996424,7048,WL,C,7.0
2,8.645000219345093,learn,51354.99978065491,Mon Mar 10 2025 17:55:53 GMT-0500 (Central Daylight Time),275827.59999996424,A,tow,O,w,53,1,1697.5,274130.09999996424,7048,WL,C,7.0
2,8.747000217437744,learn,51252.999782562256,Mon Mar 10 2025 17:55:53 GMT-0500 (Central Daylight Time),275929.39999997616,A,towe,O,e,95,1,1799.300000011921,274130.09999996424,7048,WL,C,7.0
2,8.796000003814697,learn,51203.9999961853,Mon Mar 10 2025 17:55:53 GMT-0500 (Central Daylight Time),275979.09999996424,A,tower,O,r,41,1,1849.0,274130.09999996424,7048,WL,C,7.0
2,9.063000202178955,learn,50936.999797821045,Mon Mar 10 2025 17:55:53 GMT-0500 (Central Daylight Time),276245.8000000119,A,towerenter,O,enter,255,1,2115.7000000476837,274130.09999996424,7048,WL,C,7.0
2,9.331000089645386,learn,50668.999910354614,Mon Mar 10 2025 17:55:53 GMT-0500 (Central Daylight Time),276513.8000000119,A,q,O,q,262,1,267.80000001192093,276246.0,7048,WL,C,8.0
2,9.446000099182129,learn,50553.99990081787,Mon Mar 10 2025 17:55:53 GMT-0500 (Central Daylight Time),276629.1999999881,A,qu,O,u,96,1,383.19999998807907,276246.0,7048,WL,C,8.0
2,9.53000020980835,learn,50469.99979019165,Mon Mar 10 2025 17:55:53 GMT-0500 (Central Daylight Time),276712.8000000119,A,que,O,e,77,1,466.80000001192093,276246.0,7048,WL,C,8.0
2,9.67900013923645,learn,50320.99986076355,Mon Mar 10 2025 17:55:53 GMT-0500 (Central Daylight Time),276862.0,A,quee,O,e,137,1,616.0,276246.0,7048,WL,C,8.0
2,9.778000116348267,learn,50221.99988365173,Mon Mar 10 2025 17:55:53 GMT-0500 (Central Daylight Time),276961.0,A,queen,O,n,92,1,715.0,276246.0,7048,WL,C,8.0
2,10.031000137329102,learn,49968.9998626709,Mon Mar 10 2025 17:55:53 GMT-0500 (Central Daylight Time),277214.09999996424,A,queenenter,O,enter,238,1,968.0999999642372,276246.0,7048,WL,C,8.0
2,10.879000186920166,learn,49120.999813079834,Mon Mar 10 2025 17:55:53 GMT-0500 (Central Daylight Time),278061.39999997616,A,h,O,h,835,1,843.8999999761581,277217.5,7048,WL,C,9.0
2,10.995000123977661,learn,49004.99987602234,Mon Mar 10 2025 17:55:53 GMT-0500 (Central Daylight Time),278177.59999996424,A,ho,O,o,108,1,960.0999999642372,277217.5,7048,WL,C,9.0
2,11.07800006866455,learn,48921.99993133545,Mon Mar 10 2025 17:55:53 GMT-0500 (Central Daylight Time),278260.59999996424,A,hom,O,m,61,1,1043.0999999642372,277217.5,7048,WL,C,9.0
2,11.194000005722046,learn,48805.999994277954,Mon Mar 10 2025 17:55:53 GMT-0500 (Central Daylight Time),278377.0,A,home,O,e,99,1,1159.5,277217.5,7048,WL,C,9.0
2,11.295000076293945,learn,48704.999923706055,Mon Mar 10 2025 17:55:53 GMT-0500 (Central Daylight Time),278477.6999999881,A,homeenter,O,enter,87,1,1260.199999988079,277217.5,7048,WL,C,9.0
2,11.412000179290771,learn,48587.99982070923,Mon Mar 10 2025 17:55:53 GMT-0500 (Central Daylight Time),278594.59999996424,A,b,O,b,109,1,116.69999998807907,278477.89999997616,7048,WL,C,10.0
2,11.546000003814697,learn,48453.9999961853,Mon Mar 10 2025 17:55:53 GMT-0500 (Central Daylight Time),278728.5,A,bo,O,o,119,1,250.60000002384186,278477.89999997616,7048,WL,C,10.0
2,11.662000179290771,learn,48337.99982070923,Mon Mar 10 2025 17:55:53 GMT-0500 (Central Daylight Time),278845.0,A,boy,O,y,96,1,367.10000002384186,278477.89999997616,7048,WL,C,10.0
2,12.111000061035156,learn,47888.999938964844,Mon Mar 10 2025 17:55:53 GMT-0500 (Central Daylight Time),279293.5,A,boyenter,O,enter,437,1,815.6000000238419,278477.89999997616,7048,WL,C,10.0
2,13.362000226974487,learn,46637.99977302551,Mon Mar 10 2025 17:55:53 GMT-0500 (Central Daylight Time),280544.1999999881,A,f,O,f,1237,1,1250.300000011921,279293.89999997616,7048,WL,C,11.0
2,13.428000211715698,learn,46571.9997882843,Mon Mar 10 2025 17:55:53 GMT-0500 (Central Daylight Time),280610.6999999881,A,fl,O,l,59,1,1316.800000011921,279293.89999997616,7048,WL,C,11.0
2,13.49400019645691,learn,46505.99980354309,Mon Mar 10 2025 17:55:53 GMT-0500 (Central Daylight Time),280676.6999999881,A,fla,O,a,54,1,1382.800000011921,279293.89999997616,7048,WL,C,11.0
2,13.728000164031982,learn,46271.99983596802,Mon Mar 10 2025 17:55:53 GMT-0500 (Central Daylight Time),280911.1999999881,A,flag,O,g,222,1,1617.300000011921,279293.89999997616,7048,WL,C,11.0
2,13.793000221252441,learn,46206.99977874756,Mon Mar 10 2025 17:55:53 GMT-0500 (Central Daylight Time),280975.6999999881,A,flagenter,O,enter,58,1,1681.800000011921,279293.89999997616,7048,WL,C,11.0
2,24.341000080108643,learn,35658.99991989136,Mon Mar 10 2025 17:55:53 GMT-0500 (Central Daylight Time),291523.59999996424,A,enter,O,enter,10530,1,10547.699999988079,280975.89999997616,7048,WL,C,12.0
2,25.074000120162964,learn,34925.999879837036,Mon Mar 10 2025 17:55:53 GMT-0500 (Central Daylight Time),292256.6999999881,A,enter,O,enter,719,1,732.6999999880791,291524.0,7048,WL,C,13.0
2,25.424000024795532,learn,34575.99997520447,Mon Mar 10 2025 17:55:53 GMT-0500 (Central Daylight Time),292606.59999996424,A,enter,O,enter,337,1,349.5999999642372,292257.0,7048,WL,C,14.0
2,26.057000160217285,learn,33942.999839782715,Mon Mar 10 2025 17:55:53 GMT-0500 (Central Daylight Time),293239.8000000119,A,enter,O,enter,619,1,632.9000000357628,292606.89999997616,7048,WL,C,15.0
3,0.6840000152587891,learn,59315.99998474121,Mon Mar 10 2025 17:55:53 GMT-0500 (Central Daylight Time),360052.09999996424,A,s,O,s,666,1,683.8999999761581,359368.1999999881,7048,WL,C,1.0
3,0.9679999351501465,learn,59032.00006484985,Mon Mar 10 2025 17:55:53 GMT-0500 (Central Daylight Time),360336.09999996424,A,sh,O,h,268,1,967.8999999761581,359368.1999999881,7048,WL,C,1.0
3,1.0339999198913574,learn,58966.00008010864,Mon Mar 10 2025 17:55:53 GMT-0500 (Central Daylight Time),360402.0,A,sho,O,o,49,1,1033.800000011921,359368.1999999881,7048,WL,C,1.0
3,1.184999942779541,learn,58815.00005722046,Mon Mar 10 2025 17:55:53 GMT-0500 (Central Daylight Time),360553.5,A,shor,O,r,144,1,1185.300000011921,359368.1999999881,7048,WL,C,1.0
3,1.2669999599456787,learn,58733.00004005432,Mon Mar 10 2025 17:55:53 GMT-0500 (Central Daylight Time),360634.89999997616,A,shore,O,e,62,1,1266.699999988079,359368.1999999881,7048,WL,C,1.0
3,1.4839999675750732,learn,58516.00003242493,Mon Mar 10 2025 17:55:53 GMT-0500 (Central Daylight Time),360851.6999999881,A,shoreenter,O,enter,197,1,1483.5,359368.1999999881,7048,WL,C,1.0
3,1.7849998474121094,learn,58215.00015258789,Mon Mar 10 2025 17:55:53 GMT-0500 (Central Daylight Time),361153.5,A,b,O,b,281,1,301.4000000357628,360852.09999996424,7048,WL,C,2.0
3,1.934999942779541,learn,58065.00005722046,Mon Mar 10 2025 17:55:53 GMT-0500 (Central Daylight Time),361303.5,A,bo,O,o,144,1,451.4000000357628,360852.09999996424,7048,WL,C,2.0
3,2.132999897003174,learn,57867.000102996826,Mon Mar 10 2025 17:55:53 GMT-0500 (Central Daylight Time),361500.89999997616,A,bod,O,d,185,1,648.8000000119209,360852.09999996424,7048,WL,C,2.0
3,2.632999897003174,learn,57367.000102996826,Mon Mar 10 2025 17:55:53 GMT-0500 (Central Daylight Time),362001.09999996424,A,bodenter,O,enter,486,1,1149.0,360852.09999996424,7048,WL,C,2.0
3,3.7829999923706055,learn,56217.000007629395,Mon Mar 10 2025 17:55:53 GMT-0500 (Central Daylight Time),363151.6999999881,A,n,O,n,1129,1,1150.3999999761581,362001.3000000119,7048,WL,C,3.0
3,3.88100004196167,learn,56118.99995803833,Mon Mar 10 2025 17:55:53 GMT-0500 (Central Daylight Time),363248.8000000119,A,na,O,a,81,1,1247.5,362001.3000000119,7048,WL,C,3.0
3,4.016000032424927,learn,55983.99996757507,Mon Mar 10 2025 17:55:53 GMT-0500 (Central Daylight Time),363384.09999996424,A,nai,O,i,123,1,1382.7999999523163,362001.3000000119,7048,WL,C,3.0
3,4.063999891281128,learn,55936.00010871887,Mon Mar 10 2025 17:55:53 GMT-0500 (Central Daylight Time),363432.39999997616,A,nail,O,l,31,1,1431.0999999642372,362001.3000000119,7048,WL,C,3.0
3,4.366999864578247,learn,55633.00013542175,Mon Mar 10 2025 17:55:53 GMT-0500 (Central Daylight Time),363734.89999997616,A,nailenter,O,enter,282,1,1733.5999999642372,362001.3000000119,7048,WL,C,3.0
3,4.948999881744385,learn,55051.000118255615,Mon Mar 10 2025 17:55:53 GMT-0500 (Central Daylight Time),364317.1999999881,A,c,O,c,563,1,582.0,363735.1999999881,7048,WL,C,4.0
3,5.014999866485596,learn,54985.000133514404,Mon Mar 10 2025 17:55:53 GMT-0500 (Central Daylight Time),364383.09999996424,A,ca,O,a,42,1,647.8999999761581,363735.1999999881,7048,WL,C,4.0
3,5.06499981880188,learn,54935.00018119812,Mon Mar 10 2025 17:55:53 GMT-0500 (Central Daylight Time),364432.89999997616,A,cam,O,m,31,1,697.6999999880791,363735.1999999881,7048,WL,C,4.0
3,5.131999969482422,learn,54868.00003051758,Mon Mar 10 2025 17:55:53 GMT-0500 (Central Daylight Time),364499.8000000119,A,camp,O,p,58,1,764.6000000238419,363735.1999999881,7048,WL,C,4.0
3,5.382999897003174,learn,54617.000102996826,Mon Mar 10 2025 17:55:53 GMT-0500 (Central Daylight Time),364750.89999997616,A,campenter,O,enter,231,1,1015.6999999880791,363735.1999999881,7048,WL,C,4.0
3,5.599999904632568,learn,54400.00009536743,Mon Mar 10 2025 17:55:53 GMT-0500 (Central Daylight Time),364968.5,A,q,O,q,212,1,217.4000000357628,364751.09999996424,7048,WL,C,5.0
3,5.733000040054321,learn,54266.99995994568,Mon Mar 10 2025 17:55:53 GMT-0500 (Central Daylight Time),365101.0,A,qu,O,u,119,1,349.9000000357628,364751.09999996424,7048,WL,C,5.0
3,6.599999904632568,learn,53400.00009536743,Mon Mar 10 2025 17:55:53 GMT-0500 (Central Daylight Time),365968.39999997616,A,q,O,backspace,859,1,1217.300000011921,364751.09999996424,7048,WL,C,5.0
3,6.747999906539917,learn,53252.00009346008,Mon Mar 10 2025 17:55:53 GMT-0500 (Central Daylight Time),366116.59999996424,A,,O,backspace,137,1,1365.5,364751.09999996424,7048,WL,C,5.0
3,6.98199987411499,learn,53018.00012588501,Mon Mar 10 2025 17:55:53 GMT-0500 (Central Daylight Time),366350.59999996424,A,t,O,t,222,1,1599.5,364751.09999996424,7048,WL,C,5.0
3,7.082000017166138,learn,52917.99998283386,Mon Mar 10 2025 17:55:53 GMT-0500 (Central Daylight Time),366450.5,A,tw,O,w,94,1,1699.4000000357628,364751.09999996424,7048,WL,C,5.0
3,7.129999876022339,learn,52870.00012397766,Mon Mar 10 2025 17:55:53 GMT-0500 (Central Daylight Time),366498.5,A,two,O,o,27,1,1747.4000000357628,364751.09999996424,7048,WL,C,5.0
3,7.332000017166138,learn,52667.99998283386,Mon Mar 10 2025 17:55:53 GMT-0500 (Central Daylight Time),366699.89999997616,A,twoe,O,e,193,1,1948.800000011921,364751.09999996424,7048,WL,C,5.0
3,7.414999961853027,learn,52585.00003814697,Mon Mar 10 2025 17:55:53 GMT-0500 (Central Daylight Time),366783.39999997616,A,twoer,O,r,70,1,2032.300000011921,364751.09999996424,7048,WL,C,5.0
3,7.996999979019165,learn,52003.000020980835,Mon Mar 10 2025 17:55:53 GMT-0500 (Central Daylight Time),367365.5,A,twoe,O,backspace,568,1,2614.400000035763,364751.09999996424,7048,WL,C,5.0
3,8.146999835968018,learn,51853.00016403198,Mon Mar 10 2025 17:55:53 GMT-0500 (Central Daylight Time),367514.6999999881,A,two,O,backspace,141,1,2763.600000023842,364751.09999996424,7048,WL,C,5.0
3,8.29699993133545,learn,51703.00006866455,Mon Mar 10 2025 17:55:53 GMT-0500 (Central Daylight Time),367665.1999999881,A,tw,O,backspace,143,1,2914.100000023842,364751.09999996424,7048,WL,C,5.0
3,8.430999994277954,learn,51569.000005722046,Mon Mar 10 2025 17:55:53 GMT-0500 (Central Daylight Time),367799.5,A,t,O,backspace,122,1,3048.400000035763,364751.09999996424,7048,WL,C,5.0
3,8.780999898910522,learn,51219.00010108948,Mon Mar 10 2025 17:55:53 GMT-0500 (Central Daylight Time),368149.09999996424,A,tp,O,p,330,1,3398.0,364751.09999996424,7048,WL,C,5.0
3,8.914999961853027,learn,51085.00003814697,Mon Mar 10 2025 17:55:53 GMT-0500 (Central Daylight Time),368282.8000000119,A,tpw,O,w,116,1,3531.7000000476837,364751.09999996424,7048,WL,C,5.0
3,8.962999820709229,learn,51037.00017929077,Mon Mar 10 2025 17:55:53 GMT-0500 (Central Daylight Time),368331.39999997616,A,tpwe,O,e,31,1,3580.300000011921,364751.09999996424,7048,WL,C,5.0
3,9.180999994277954,learn,50819.000005722046,Mon Mar 10 2025 17:55:53 GMT-0500 (Central Daylight Time),368549.6999999881,A,tpweenter,O,enter,205,1,3798.600000023842,364751.09999996424,7048,WL,C,5.0
3,12.297999858856201,learn,47702.0001411438,Mon Mar 10 2025 17:55:53 GMT-0500 (Central Daylight Time),371666.1999999881,A,q,O,q,3101,1,3116.199999988079,368550.0,7048,WL,C,6.0
3,12.496999979019165,learn,47503.000020980835,Mon Mar 10 2025 17:55:53 GMT-0500 (Central Daylight Time),371865.5,A,qu,O,u,183,1,3315.5,368550.0,7048,WL,C,6.0
3,12.780999898910522,learn,47219.00010108948,Mon Mar 10 2025 17:55:53 GMT-0500 (Central Daylight Time),372149.0,A,que,O,e,263,1,3599.0,368550.0,7048,WL,C,6.0
3,12.898000001907349,learn,47101.99999809265,Mon Mar 10 2025 17:55:53 GMT-0500 (Central Daylight Time),372265.8000000119,A,quee,O,e,109,1,3715.800000011921,368550.0,7048,WL,C,6.0
3,13.02999997138977,learn,46970.00002861023,Mon Mar 10 2025 17:55:53 GMT-0500 (Central Daylight Time),372398.1999999881,A,queen,O,n,110,1,3848.199999988079,368550.0,7048,WL,C,6.0
3,13.29699993133545,learn,46703.00006866455,Mon Mar 10 2025 17:55:53 GMT-0500 (Central Daylight Time),372664.6999999881,A,queenenter,O,enter,260,1,4114.699999988079,368550.0,7048,WL,C,6.0
3,16.29699993133545,learn,43703.00006866455,Mon Mar 10 2025 17:55:53 GMT-0500 (Central Daylight Time),375665.09999996424,A,b,O,b,2986,1,3000.199999988079,372664.89999997616,7048,WL,C,7.0
3,16.513000011444092,learn,43486.99998855591,Mon Mar 10 2025 17:55:53 GMT-0500 (Central Daylight Time),375881.39999997616,A,be,O,e,201,1,3216.5,372664.89999997616,7048,WL,C,7.0
3,16.643999814987183,learn,43356.00018501282,Mon Mar 10 2025 17:55:53 GMT-0500 (Central Daylight Time),376012.3000000119,A,bee,O,e,118,1,3347.400000035763,372664.89999997616,7048,WL,C,7.0
3,16.863999843597412,learn,43136.00015640259,Mon Mar 10 2025 17:55:53 GMT-0500 (Central Daylight Time),376231.89999997616,A,beeenter,O,enter,215,1,3567.0,372664.89999997616,7048,WL,C,7.0
3,17.92899990081787,learn,42071.00009918213,Mon Mar 10 2025 17:55:53 GMT-0500 (Central Daylight Time),377297.09999996424,A,d,O,d,1051,1,1064.7999999523163,376232.3000000119,7048,WL,C,8.0
3,18.044999837875366,learn,41955.000162124634,Mon Mar 10 2025 17:55:53 GMT-0500 (Central Daylight Time),377413.39999997616,A,do,O,o,105,1,1181.0999999642372,376232.3000000119,7048,WL,C,8.0
3,18.144999980926514,learn,41855.000019073486,Mon Mar 10 2025 17:55:53 GMT-0500 (Central Daylight Time),377512.8000000119,A,doc,O,c,83,1,1280.5,376232.3000000119,7048,WL,C,8.0
3,18.26099991798401,learn,41739.00008201599,Mon Mar 10 2025 17:55:53 GMT-0500 (Central Daylight Time),377629.5,A,doct,O,t,102,1,1397.199999988079,376232.3000000119,7048,WL,C,8.0
3,18.361999988555908,learn,41638.00001144409,Mon Mar 10 2025 17:55:53 GMT-0500 (Central Daylight Time),377730.5,A,docto,O,o,83,1,1498.199999988079,376232.3000000119,7048,WL,C,8.0
3,18.478999853134155,learn,41521.000146865845,Mon Mar 10 2025 17:55:53 GMT-0500 (Central Daylight Time),377847.09999996424,A,doctor,O,r,94,1,1614.7999999523163,376232.3000000119,7048,WL,C,8.0
3,18.57799983024597,learn,41422.00016975403,Mon Mar 10 2025 17:55:53 GMT-0500 (Central Daylight Time),377946.0,A,doctorenter,O,enter,87,1,1713.699999988079,376232.3000000119,7048,WL,C,8.0
3,22.527999877929688,learn,37472.00012207031,Mon Mar 10 2025 17:55:53 GMT-0500 (Central Daylight Time),381896.1999999881,A,c,O,c,3930,1,3949.800000011921,377946.39999997616,7048,WL,C,9.0
3,22.728999853134155,learn,37271.000146865845,Mon Mar 10 2025 17:55:53 GMT-0500 (Central Daylight Time),382097.39999997616,A,co,O,o,194,1,4151.0,377946.39999997616,7048,WL,C,9.0
3,22.8439998626709,learn,37156.0001373291,Mon Mar 10 2025 17:55:53 GMT-0500 (Central Daylight Time),382212.3000000119,A,cow,O,w,107,1,4265.900000035763,377946.39999997616,7048,WL,C,9.0
3,23.042999982833862,learn,36957.00001716614,Mon Mar 10 2025 17:55:53 GMT-0500 (Central Daylight Time),382411.1999999881,A,cowenter,O,enter,188,1,4464.800000011921,377946.39999997616,7048,WL,C,9.0
3,27.258999824523926,learn,32741.000175476074,Mon Mar 10 2025 17:55:53 GMT-0500 (Central Daylight Time),386627.5,A,f,O,f,4199,1,4216.100000023842,382411.39999997616,7048,WL,C,10.0
3,27.340999841690063,learn,32659.000158309937,Mon Mar 10 2025 17:55:53 GMT-0500 (Central Daylight Time),386709.6999999881,A,fl,O,l,61,1,4298.300000011921,382411.39999997616,7048,WL,C,10.0
3,27.424999952316284,learn,32575.000047683716,Mon Mar 10 2025 17:55:53 GMT-0500 (Central Daylight Time),386793.09999996424,A,fla,O,a,68,1,4381.699999988079,382411.39999997616,7048,WL,C,10.0
3,27.575999975204468,learn,32424.000024795532,Mon Mar 10 2025 17:55:53 GMT-0500 (Central Daylight Time),386944.5,A,flag,O,g,136,1,4533.100000023842,382411.39999997616,7048,WL,C,10.0
3,27.657999992370605,learn,32342.000007629395,Mon Mar 10 2025 17:55:53 GMT-0500 (Central Daylight Time),387026.09999996424,A,flagenter,O,enter,71,1,4614.699999988079,382411.39999997616,7048,WL,C,10.0
3,31.807999849319458,learn,28192.000150680542,Mon Mar 10 2025 17:55:53 GMT-0500 (Central Daylight Time),391175.6999999881,A,c,O,c,4136,1,4149.300000011921,387026.39999997616,7048,WL,C,11.0
3,32.026000022888184,learn,27973.999977111816,Mon Mar 10 2025 17:55:53 GMT-0500 (Central Daylight Time),391394.0,A,ca,O,a,214,1,4367.600000023842,387026.39999997616,7048,WL,C,11.0
3,32.18999981880188,learn,27810.00018119812,Mon Mar 10 2025 17:55:53 GMT-0500 (Central Daylight Time),391558.1999999881,A,cat,O,t,144,1,4531.800000011921,387026.39999997616,7048,WL,C,11.0
3,32.323999881744385,learn,27676.000118255615,Mon Mar 10 2025 17:55:53 GMT-0500 (Central Daylight Time),391691.8000000119,A,catt,O,t,115,1,4665.400000035763,387026.39999997616,7048,WL,C,11.0
3,32.425999879837036,learn,27574.000120162964,Mon Mar 10 2025 17:55:53 GMT-0500 (Central Daylight Time),391793.89999997616,A,cattl,O,l,95,1,4767.5,387026.39999997616,7048,WL,C,11.0
3,32.556999921798706,learn,27443.000078201294,Mon Mar 10 2025 17:55:53 GMT-0500 (Central Daylight Time),391925.5,A,cattle,O,e,110,1,4899.100000023842,387026.39999997616,7048,WL,C,11.0
3,32.656999826431274,learn,27343.000173568726,Mon Mar 10 2025 17:55:53 GMT-0500 (Central Daylight Time),392025.5,A,cattleenter,O,enter,93,1,4999.100000023842,387026.39999997616,7048,WL,C,11.0
3,39.98699998855591,learn,20013.00001144409,Mon Mar 10 2025 17:55:53 GMT-0500 (Central Daylight Time),399355.59999996424,A,h,O,h,7321,1,7329.599999964237,392026.0,7048,WL,C,12.0
3,40.22199988365173,learn,19778.000116348267,Mon Mar 10 2025 17:55:53 GMT-0500 (Central Daylight Time),399590.09999996424,A,ho,O,o,223,1,7564.099999964237,392026.0,7048,WL,C,12.0
3,40.287999868392944,learn,19712.000131607056,Mon Mar 10 2025 17:55:53 GMT-0500 (Central Daylight Time),399656.0,A,hom,O,m,45,1,7630.0,392026.0,7048,WL,C,12.0
3,40.40400004386902,learn,19595.99995613098,Mon Mar 10 2025 17:55:53 GMT-0500 (Central Daylight Time),399772.5,A,home,O,e,97,1,7746.5,392026.0,7048,WL,C,12.0
3,40.75499987602234,learn,19245.00012397766,Mon Mar 10 2025 17:55:53 GMT-0500 (Central Daylight Time),400123.5,A,homeb,O,b,333,1,8097.5,392026.0,7048,WL,C,12.0
3,40.870999813079834,learn,19129.000186920166,Mon Mar 10 2025 17:55:53 GMT-0500 (Central Daylight Time),400239.59999996424,A,homebo,O,o,102,1,8213.599999964237,392026.0,7048,WL,C,12.0
3,41.08799982070923,learn,18912.00017929077,Mon Mar 10 2025 17:55:53 GMT-0500 (Central Daylight Time),400456.1999999881,A,homeboy,O,y,196,1,8430.199999988079,392026.0,7048,WL,C,12.0
3,41.871999979019165,learn,18128.000020980835,Mon Mar 10 2025 17:55:53 GMT-0500 (Central Daylight Time),401239.8000000119,A,homebo,O,backspace,778,1,9213.800000011921,392026.0,7048,WL,C,12.0
3,42.0699999332428,learn,17930.000066757202,Mon Mar 10 2025 17:55:53 GMT-0500 (Central Daylight Time),401438.5,A,homeb,O,backspace,186,1,9412.5,392026.0,7048,WL,C,12.0
3,42.30499982833862,learn,17695.000171661377,Mon Mar 10 2025 17:55:53 GMT-0500 (Central Daylight Time),401672.8000000119,A,home,O,backspace,211,1,9646.800000011921,392026.0,7048,WL,C,12.0
3,43.00399994850159,learn,16996.000051498413,Mon Mar 10 2025 17:55:53 GMT-0500 (Central Daylight Time),402372.3000000119,A,homeenter,O,enter,689,1,10346.300000011921,392026.0,7048,WL,C,12.0
3,43.52199983596802,learn,16478.000164031982,Mon Mar 10 2025 17:55:53 GMT-0500 (Central Daylight Time),402890.39999997616,A,b,O,b,513,1,517.8000000119209,402372.59999996424,7048,WL,C,13.0
3,44.83799982070923,learn,15162.000179290771,Mon Mar 10 2025 17:55:53 GMT-0500 (Central Daylight Time),404206.09999996424,A,bo,O,o,1303,1,1833.5,402372.59999996424,7048,WL,C,13.0
3,45.28699994087219,learn,14713.000059127808,Mon Mar 10 2025 17:55:53 GMT-0500 (Central Daylight Time),404654.6999999881,A,boy,O,y,436,1,2282.100000023842,402372.59999996424,7048,WL,C,13.0
3,45.78499984741211,learn,14215.00015258789,Mon Mar 10 2025 17:55:53 GMT-0500 (Central Daylight Time),405152.89999997616,A,boyenter,O,enter,493,1,2780.300000011921,402372.59999996424,7048,WL,C,13.0
3,46.85199999809265,learn,13148.000001907349,Mon Mar 10 2025 17:55:53 GMT-0500 (Central Daylight Time),406220.0,A,enter,O,enter,1057,1,1066.9000000357628,405153.09999996424,7048,WL,C,14.0
3,47.23699998855591,learn,12763.000011444092,Mon Mar 10 2025 17:55:53 GMT-0500 (Central Daylight Time),406604.8000000119,A,enter,O,enter,375,1,384.60000002384186,406220.1999999881,7048,WL,C,15.0
4,1.6340000629425049,learn,58365.999937057495,Mon Mar 10 2025 17:55:53 GMT-0500 (Central Daylight Time),476349.39999997616,A,t,O,t,1608,1,1633.5,474715.89999997616,7048,WL,C,1.0
4,2.2160000801086426,learn,57783.99991989136,Mon Mar 10 2025 17:55:53 GMT-0500 (Central Daylight Time),476931.8000000119,A,to,O,o,569,1,2215.900000035763,474715.89999997616,7048,WL,C,1.0
4,2.318000078201294,learn,57681.999921798706,Mon Mar 10 2025 17:55:53 GMT-0500 (Central Daylight Time),477034.09999996424,A,tow,O,w,95,1,2318.199999988079,474715.89999997616,7048,WL,C,1.0
4,2.364000082015991,learn,57635.99991798401,Mon Mar 10 2025 17:55:53 GMT-0500 (Central Daylight Time),477079.59999996424,A,towe,O,e,38,1,2363.699999988079,474715.89999997616,7048,WL,C,1.0
4,2.4149999618530273,learn,57585.00003814697,Mon Mar 10 2025 17:55:53 GMT-0500 (Central Daylight Time),477130.3000000119,A,tower,O,r,41,1,2414.400000035763,474715.89999997616,7048,WL,C,1.0
4,2.999000072479248,learn,57000.99992752075,Mon Mar 10 2025 17:55:53 GMT-0500 (Central Daylight Time),477714.59999996424,A,towerenter,O,enter,565,1,2998.699999988079,474715.89999997616,7048,WL,C,1.0
4,3.683000087738037,learn,56316.99991226196,Mon Mar 10 2025 17:55:53 GMT-0500 (Central Daylight Time),478398.39999997616,A,q,O,q,673,1,683.5,477714.89999997616,7048,WL,C,2.0
4,3.933000087738037,learn,56066.99991226196,Mon Mar 10 2025 17:55:53 GMT-0500 (Central Daylight Time),478648.09999996424,A,qu,O,u,235,1,933.1999999880791,477714.89999997616,7048,WL,C,2.0
4,4.148999929428101,learn,55851.0000705719,Mon Mar 10 2025 17:55:53 GMT-0500 (Central Daylight Time),478864.8000000119,A,que,O,e,201,1,1149.9000000357628,477714.89999997616,7048,WL,C,2.0
4,4.281000137329102,learn,55718.9998626709,Mon Mar 10 2025 17:55:53 GMT-0500 (Central Daylight Time),478997.09999996424,A,quee,O,e,121,1,1282.199999988079,477714.89999997616,7048,WL,C,2.0
4,4.365000009536743,learn,55634.99999046326,Mon Mar 10 2025 17:55:53 GMT-0500 (Central Daylight Time),479080.1999999881,A,queen,O,n,67,1,1365.300000011921,477714.89999997616,7048,WL,C,2.0
4,4.648999929428101,learn,55351.0000705719,Mon Mar 10 2025 17:55:53 GMT-0500 (Central Daylight Time),479364.89999997616,A,queenenter,O,enter,274,1,1650.0,477714.89999997616,7048,WL,C,2.0
4,5.315999984741211,learn,54684.00001525879,Mon Mar 10 2025 17:55:53 GMT-0500 (Central Daylight Time),480031.39999997616,A,s,O,s,645,1,666.3000000119209,479365.09999996424,7048,WL,C,3.0
4,5.414999961853027,learn,54585.00003814697,Mon Mar 10 2025 17:55:53 GMT-0500 (Central Daylight Time),480130.39999997616,A,su,O,u,76,1,765.3000000119209,479365.09999996424,7048,WL,C,3.0
4,5.998000144958496,learn,54001.999855041504,Mon Mar 10 2025 17:55:53 GMT-0500 (Central Daylight Time),480713.1999999881,A,sug,O,g,567,1,1348.1000000238419,479365.09999996424,7048,WL,C,3.0
4,6.263999938964844,learn,53736.000061035156,Mon Mar 10 2025 17:55:53 GMT-0500 (Central Daylight Time),480979.89999997616,A,suga,O,a,258,1,1614.800000011921,479365.09999996424,7048,WL,C,3.0
4,6.330000162124634,learn,53669.999837875366,Mon Mar 10 2025 17:55:53 GMT-0500 (Central Daylight Time),481045.5,A,sugar,O,r,44,1,1680.4000000357628,479365.09999996424,7048,WL,C,3.0
4,6.581000089645386,learn,53418.999910354614,Mon Mar 10 2025 17:55:53 GMT-0500 (Central Daylight Time),481296.8000000119,A,sugarenter,O,enter,235,1,1931.7000000476837,479365.09999996424,7048,WL,C,3.0
4,7.0980000495910645,learn,52901.999950408936,Mon Mar 10 2025 17:55:53 GMT-0500 (Central Daylight Time),481813.59999996424,A,h,O,h,505,1,516.5999999642372,481297.0,7048,WL,C,4.0
4,7.249000072479248,learn,52750.99992752075,Mon Mar 10 2025 17:55:53 GMT-0500 (Central Daylight Time),481964.3000000119,A,ho,O,o,144,1,667.3000000119209,481297.0,7048,WL,C,4.0
4,7.314000129699707,learn,52685.99987030029,Mon Mar 10 2025 17:55:53 GMT-0500 (Central Daylight Time),482029.3000000119,A,hom,O,m,40,1,732.3000000119209,481297.0,7048,WL,C,4.0
4,7.397000074386597,learn,52602.9999256134,Mon Mar 10 2025 17:55:53 GMT-0500 (Central Daylight Time),482112.5,A,home,O,e,68,1,815.5,481297.0,7048,WL,C,4.0
4,8.065000057220459,learn,51934.99994277954,Mon Mar 10 2025 17:55:53 GMT-0500 (Central Daylight Time),482780.5,A,homeenter,O,enter,656,1,1483.5,481297.0,7048,WL,C,4.0
4,8.447999954223633,learn,51552.00004577637,Mon Mar 10 2025 17:55:53 GMT-0500 (Central Daylight Time),483163.39999997616,A,b,O,b,366,1,382.69999998807907,482780.6999999881,7048,WL,C,5.0
4,8.581000089645386,learn,51418.999910354614,Mon Mar 10 2025 17:55:53 GMT-0500 (Central Daylight Time),483296.59999996424,A,bo,O,o,118,1,515.8999999761581,482780.6999999881,7048,WL,C,5.0
4,8.69700002670288,learn,51302.99997329712,Mon Mar 10 2025 17:55:53 GMT-0500 (Central Daylight Time),483413.09999996424,A,boy,O,y,97,1,632.3999999761581,482780.6999999881,7048,WL,C,5.0
4,9.064000129699707,learn,50935.99987030029,Mon Mar 10 2025 17:55:53 GMT-0500 (Central Daylight Time),483779.89999997616,A,boyenter,O,enter,347,1,999.1999999880791,482780.6999999881,7048,WL,C,5.0
4,12.496999979019165,learn,47503.000020980835,Mon Mar 10 2025 17:55:53 GMT-0500 (Central Daylight Time),487212.59999996424,A,d,O,d,3415,1,3432.5,483780.09999996424,7048,WL,C,6.0
4,12.646000146865845,learn,47353.999853134155,Mon Mar 10 2025 17:55:53 GMT-0500 (Central Daylight Time),487361.6999999881,A,do,O,o,133,1,3581.600000023842,483780.09999996424,7048,WL,C,6.0
4,12.746000051498413,learn,47253.99994850159,Mon Mar 10 2025 17:55:53 GMT-0500 (Central Daylight Time),487461.89999997616,A,doc,O,c,87,1,3681.800000011921,483780.09999996424,7048,WL,C,6.0
4,12.814000129699707,learn,47185.99987030029,Mon Mar 10 2025 17:55:53 GMT-0500 (Central Daylight Time),487529.39999997616,A,docc,O,c,61,1,3749.300000011921,483780.09999996424,7048,WL,C,6.0
4,12.844000101089478,learn,47155.99989891052,Mon Mar 10 2025 17:55:53 GMT-0500 (Central Daylight Time),487559.89999997616,A,docct,O,t,19,1,3779.800000011921,483780.09999996424,7048,WL,C,6.0
4,12.963000059127808,learn,47036.99994087219,Mon Mar 10 2025 17:55:53 GMT-0500 (Central Daylight Time),487678.6999999881,A,doccto,O,o,108,1,3898.600000023842,483780.09999996424,7048,WL,C,6.0
4,13.062999963760376,learn,46937.000036239624,Mon Mar 10 2025 17:55:53 GMT-0500 (Central Daylight Time),487778.3000000119,A,docctor,O,r,91,1,3998.2000000476837,483780.09999996424,7048,WL,C,6.0
4,13.580000162124634,learn,46419.999837875366,Mon Mar 10 2025 17:55:53 GMT-0500 (Central Daylight Time),488295.89999997616,A,doccto,O,backspace,494,1,4515.800000011921,483780.09999996424,7048,WL,C,6.0
4,13.745000123977661,learn,46254.99987602234,Mon Mar 10 2025 17:55:53 GMT-0500 (Central Daylight Time),488461.0,A,docct,O,backspace,145,1,4680.900000035763,483780.09999996424,7048,WL,C,6.0
4,13.884000062942505,learn,46115.999937057495,Mon Mar 10 2025 17:55:53 GMT-0500 (Central Daylight Time),488599.6999999881,A,docc,O,backspace,122,1,4819.600000023842,483780.09999996424,7048,WL,C,6.0
4,14.032000064849854,learn,45967.99993515015,Mon Mar 10 2025 17:55:53 GMT-0500 (Central Daylight Time),488747.89999997616,A,doc,O,backspace,132,1,4967.800000011921,483780.09999996424,7048,WL,C,6.0
4,14.34500002861023,learn,45654.99997138977,Mon Mar 10 2025 17:55:53 GMT-0500 (Central Daylight Time),489060.59999996424,A,doct,O,t,295,1,5280.5,483780.09999996424,7048,WL,C,6.0
4,14.444999933242798,learn,45555.0000667572,Mon Mar 10 2025 17:55:53 GMT-0500 (Central Daylight Time),489160.09999996424,A,docto,O,o,94,1,5380.0,483780.09999996424,7048,WL,C,6.0
4,14.595999956130981,learn,45404.00004386902,Mon Mar 10 2025 17:55:53 GMT-0500 (Central Daylight Time),489311.39999997616,A,doctor,O,r,138,1,5531.300000011921,483780.09999996424,7048,WL,C,6.0
4,14.76200008392334,learn,45237.99991607666,Mon Mar 10 2025 17:55:53 GMT-0500 (Central Daylight Time),489477.39999997616,A,doctorenter,O,enter,154,1,5697.300000011921,483780.09999996424,7048,WL,C,6.0
4,14.960999965667725,learn,45039.000034332275,Mon Mar 10 2025 17:55:53 GMT-0500 (Central Daylight Time),489676.8000000119,A,c,O,c,180,1,199.20000004768372,489477.59999996424,7048,WL,C,7.0
4,15.07800006866455,learn,44921.99993133545,Mon Mar 10 2025 17:55:53 GMT-0500 (Central Daylight Time),489793.89999997616,A,ca,O,a,94,1,316.30000001192093,489477.59999996424,7048,WL,C,7.0
4,15.696000099182129,learn,44303.99990081787,Mon Mar 10 2025 17:55:53 GMT-0500 (Central Daylight Time),490411.1999999881,A,cam,O,m,596,1,933.6000000238419,489477.59999996424,7048,WL,C,7.0
4,15.996000051498413,learn,44003.99994850159,Mon Mar 10 2025 17:55:53 GMT-0500 (Central Daylight Time),490711.1999999881,A,camp,O,p,287,1,1233.6000000238419,489477.59999996424,7048,WL,C,7.0
4,16.49399995803833,learn,43506.00004196167,Mon Mar 10 2025 17:55:53 GMT-0500 (Central Daylight Time),491209.89999997616,A,campenter,O,enter,490,1,1732.300000011921,489477.59999996424,7048,WL,C,7.0
4,16.795000076293945,learn,43204.999923706055,Mon Mar 10 2025 17:55:53 GMT-0500 (Central Daylight Time),491510.1999999881,A,n,O,n,280,1,300.10000002384186,491210.09999996424,7048,WL,C,8.0
4,16.960999965667725,learn,43039.000034332275,Mon Mar 10 2025 17:55:53 GMT-0500 (Central Daylight Time),491676.3000000119,A,na,O,a,147,1,466.2000000476837,491210.09999996424,7048,WL,C,8.0
4,17.078999996185303,learn,42921.0000038147,Mon Mar 10 2025 17:55:53 GMT-0500 (Central Daylight Time),491794.59999996424,A,nai,O,i,94,1,584.5,491210.09999996424,7048,WL,C,8.0
4,17.17900013923645,learn,42820.99986076355,Mon Mar 10 2025 17:55:53 GMT-0500 (Central Daylight Time),491894.39999997616,A,nail,O,l,76,1,684.3000000119209,491210.09999996424,7048,WL,C,8.0
4,17.59500002861023,learn,42404.99997138977,Mon Mar 10 2025 17:55:53 GMT-0500 (Central Daylight Time),492310.39999997616,A,nailenter,O,enter,389,1,1100.300000011921,491210.09999996424,7048,WL,C,8.0
4,19.66000008583069,learn,40339.99991416931,Mon Mar 10 2025 17:55:53 GMT-0500 (Central Daylight Time),494376.09999996424,A,s,O,s,2044,1,2065.5,492310.59999996424,7048,WL,C,9.0
4,19.743000030517578,learn,40256.99996948242,Mon Mar 10 2025 17:55:53 GMT-0500 (Central Daylight Time),494458.8000000119,A,sh,O,h,72,1,2148.2000000476837,492310.59999996424,7048,WL,C,9.0
4,19.860000133514404,learn,40139.999866485596,Mon Mar 10 2025 17:55:53 GMT-0500 (Central Daylight Time),494575.6999999881,A,sho,O,o,103,1,2265.100000023842,492310.59999996424,7048,WL,C,9.0
4,19.978000164031982,learn,40021.99983596802,Mon Mar 10 2025 17:55:53 GMT-0500 (Central Daylight Time),494693.5,A,shor,O,r,99,1,2382.900000035763,492310.59999996424,7048,WL,C,9.0
4,20.042999982833862,learn,39957.00001716614,Mon Mar 10 2025 17:55:53 GMT-0500 (Central Daylight Time),494758.5,A,shore,O,e,51,1,2447.900000035763,492310.59999996424,7048,WL,C,9.0
4,20.193000078201294,learn,39806.999921798706,Mon Mar 10 2025 17:55:53 GMT-0500 (Central Daylight Time),494908.59999996424,A,shoreenter,O,enter,139,1,2598.0,492310.59999996424,7048,WL,C,9.0
4,21.39300012588501,learn,38606.99987411499,Mon Mar 10 2025 17:55:53 GMT-0500 (Central Daylight Time),496108.5,A,c,O,c,1181,1,1199.699999988079,494908.8000000119,7048,WL,C,10.0
4,21.475000143051147,learn,38524.99985694885,Mon Mar 10 2025 17:55:53 GMT-0500 (Central Daylight Time),496191.0,A,co,O,o,69,1,1282.199999988079,494908.8000000119,7048,WL,C,10.0
4,21.594000101089478,learn,38405.99989891052,Mon Mar 10 2025 17:55:53 GMT-0500 (Central Daylight Time),496309.3000000119,A,cor,O,r,97,1,1400.5,494908.8000000119,7048,WL,C,10.0
4,21.694000005722046,learn,38305.999994277954,Mon Mar 10 2025 17:55:53 GMT-0500 (Central Daylight Time),496410.0,A,corn,O,n,93,1,1501.199999988079,494908.8000000119,7048,WL,C,10.0
4,21.960000038146973,learn,38039.99996185303,Mon Mar 10 2025 17:55:53 GMT-0500 (Central Daylight Time),496675.09999996424,A,cornenter,O,enter,255,1,1766.2999999523163,494908.8000000119,7048,WL,C,10.0
4,24.575000047683716,learn,35424.999952316284,Mon Mar 10 2025 17:55:53 GMT-0500 (Central Daylight Time),499291.09999996424,A,f,O,f,2595,1,2615.699999988079,496675.39999997616,7048,WL,C,11.0
4,24.64199995994568,learn,35358.00004005432,Mon Mar 10 2025 17:55:53 GMT-0500 (Central Daylight Time),499357.1999999881,A,fl,O,l,53,1,2681.800000011921,496675.39999997616,7048,WL,C,11.0
4,24.759000062942505,learn,35240.999937057495,Mon Mar 10 2025 17:55:53 GMT-0500 (Central Daylight Time),499474.59999996424,A,fla,O,a,104,1,2799.199999988079,496675.39999997616,7048,WL,C,11.0
4,24.875999927520752,learn,35124.00007247925,Mon Mar 10 2025 17:55:53 GMT-0500 (Central Daylight Time),499591.3000000119,A,flag,O,g,100,1,2915.900000035763,496675.39999997616,7048,WL,C,11.0
4,24.924999952316284,learn,35075.000047683716,Mon Mar 10 2025 17:55:53 GMT-0500 (Central Daylight Time),499640.5,A,flagenter,O,enter,41,1,2965.100000023842,496675.39999997616,7048,WL,C,11.0
4,30.907999992370605,learn,29092.000007629395,Mon Mar 10 2025 17:55:53 GMT-0500 (Central Daylight Time),505623.09999996424,A,s,O,s,5970,1,5982.299999952316,499640.8000000119,7048,WL,C,12.0
4,31.125,learn,28875.0,Mon Mar 10 2025 17:55:53 GMT-0500 (Central Daylight Time),505840.39999997616,A,su,O,u,194,1,6199.599999964237,499640.8000000119,7048,WL,C,12.0
4,31.374000072479248,learn,28625.999927520752,Mon Mar 10 2025 17:55:53 GMT-0500 (Central Daylight Time),506089.8000000119,A,sug,O,g,240,1,6449.0,499640.8000000119,7048,WL,C,12.0
4,31.67300009727478,learn,28326.99990272522,Mon Mar 10 2025 17:55:53 GMT-0500 (Central Daylight Time),506388.89999997616,A,suga,O,a,277,1,6748.099999964237,499640.8000000119,7048,WL,C,12.0
4,31.722000122070312,learn,28277.999877929688,Mon Mar 10 2025 17:55:53 GMT-0500 (Central Daylight Time),506437.09999996424,A,sugar,O,r,27,1,6796.299999952316,499640.8000000119,7048,WL,C,12.0
4,32.307000160217285,learn,27692.999839782715,Mon Mar 10 2025 17:55:53 GMT-0500 (Central Daylight Time),507022.6999999881,A,sugarenter,O,enter,563,1,7381.899999976158,499640.8000000119,7048,WL,C,12.0
4,37.371999979019165,learn,22628.000020980835,Mon Mar 10 2025 17:55:53 GMT-0500 (Central Daylight Time),512087.59999996424,A,b,O,b,5059,1,5064.699999988079,507022.89999997616,7048,WL,C,13.0
4,37.46000003814697,learn,22539.999961853027,Mon Mar 10 2025 17:55:53 GMT-0500 (Central Daylight Time),512175.8000000119,A,bo,O,o,85,1,5152.900000035763,507022.89999997616,7048,WL,C,13.0
4,37.60800004005432,learn,22391.99995994568,Mon Mar 10 2025 17:55:53 GMT-0500 (Central Daylight Time),512323.6999999881,A,bod,O,d,131,1,5300.800000011921,507022.89999997616,7048,WL,C,13.0
4,37.693000078201294,learn,22306.999921798706,Mon Mar 10 2025 17:55:53 GMT-0500 (Central Daylight Time),512408.09999996424,A,body,O,y,71,1,5385.199999988079,507022.89999997616,7048,WL,C,13.0
4,37.956000089645386,learn,22043.999910354614,Mon Mar 10 2025 17:55:53 GMT-0500 (Central Daylight Time),512671.1999999881,A,bodyenter,O,enter,252,1,5648.300000011921,507022.89999997616,7048,WL,C,13.0
4,40.021000146865845,learn,19978.999853134155,Mon Mar 10 2025 17:55:53 GMT-0500 (Central Daylight Time),514736.8000000119,A,enter,O,enter,2058,1,2065.300000011921,512671.5,7048,WL,C,14.0
4,41.354000091552734,learn,18645.999908447266,Mon Mar 10 2025 17:55:53 GMT-0500 (Central Daylight Time),516069.8000000119,A,enter,O,enter,1313,1,1332.7000000476837,514737.09999996424,7048,WL,C,15.0
5,0.6189999580383301,learn,60000.0,Mon Mar 10 2025 17:55:53 GMT-0500 (Central Daylight Time),582932.5999999642,A,l,O,l,596,1,618.0,582314.5999999642,7048,WL,C,1.0
5,0.7339999675750732,learn,60000.0,Mon Mar 10 2025 17:55:53 GMT-0500 (Central Daylight Time),583047.8999999762,A,le,O,e,111,1,733.3000000119209,582314.5999999642,7048,WL,C,1.0
5,0.9340000152587891,learn,60000.0,Mon Mar 10 2025 17:55:53 GMT-0500 (Central Daylight Time),583248.3000000119,A,let,O,t,196,1,933.7000000476837,582314.5999999642,7048,WL,C,1.0
5,1.0850000381469727,learn,60000.0,Mon Mar 10 2025 17:55:53 GMT-0500 (Central Daylight Time),583399.1999999881,A,lett,O,t,144,1,1084.6000000238419,582314.5999999642,7048,WL,C,1.0
5,1.252000093460083,learn,60000.0,Mon Mar 10 2025 17:55:53 GMT-0500 (Central Daylight Time),583566.3000000119,A,lette,O,e,147,1,1251.7000000476837,582314.5999999642,7048,WL,C,1.0
5,1.3340001106262207,learn,60000.0,Mon Mar 10 2025 17:55:53 GMT-0500 (Central Daylight Time),583648.0,A,letter,O,r,56,1,1333.4000000357628,582314.5999999642,7048,WL,C,1.0
5,1.5,learn,60000.0,Mon Mar 10 2025 17:55:53 GMT-0500 (Central Daylight Time),583814.0,A,letterenter,O,enter,144,1,1499.4000000357628,582314.5999999642,7048,WL,C,1.0
5,1.7669999599456787,learn,60000.0,Mon Mar 10 2025 17:55:53 GMT-0500 (Central Daylight Time),584080.5999999642,A,n,O,n,261,1,266.2999999523163,583814.3000000119,7048,WL,C,2.0
5,1.8340001106262207,learn,60000.0,Mon Mar 10 2025 17:55:53 GMT-0500 (Central Daylight Time),584147.3999999762,A,na,O,a,58,1,333.0999999642372,583814.3000000119,7048,WL,C,2.0
5,1.9839999675750732,learn,60000.0,Mon Mar 10 2025 17:55:53 GMT-0500 (Central Daylight Time),584298.1999999881,A,nai,O,i,133,1,483.89999997615814,583814.3000000119,7048,WL,C,2.0
5,2.0840001106262207,learn,60000.0,Mon Mar 10 2025 17:55:53 GMT-0500 (Central Daylight Time),584398.0,A,nail,O,l,79,1,583.6999999880791,583814.3000000119,7048,WL,C,2.0
5,2.3340001106262207,learn,60000.0,Mon Mar 10 2025 17:55:53 GMT-0500 (Central Daylight Time),584648.0999999642,A,nailenter,O,enter,243,1,833.7999999523163,583814.3000000119,7048,WL,C,2.0
5,2.5169999599456787,learn,60000.0,Mon Mar 10 2025 17:55:53 GMT-0500 (Central Daylight Time),584831.1999999881,A,c,O,c,171,1,182.89999997615814,584648.3000000119,7048,WL,C,3.0
5,2.6519999504089355,learn,60000.0,Mon Mar 10 2025 17:55:53 GMT-0500 (Central Daylight Time),584965.5,A,co,O,o,114,1,317.19999998807907,584648.3000000119,7048,WL,C,3.0
5,2.7170000076293945,learn,60000.0,Mon Mar 10 2025 17:55:53 GMT-0500 (Central Daylight Time),585031.3000000119,A,cow,O,w,58,1,383.0,584648.3000000119,7048,WL,C,3.0
5,2.9839999675750732,learn,60000.0,Mon Mar 10 2025 17:55:53 GMT-0500 (Central Daylight Time),585297.3999999762,A,cowenter,O,enter,251,1,649.0999999642372,584648.3000000119,7048,WL,C,3.0
5,3.234999895095825,learn,60000.0,Mon Mar 10 2025 17:55:53 GMT-0500 (Central Daylight Time),585548.5,A,s,O,s,233,1,250.80000001192093,585297.6999999881,7048,WL,C,4.0
5,3.3340001106262207,learn,60000.0,Mon Mar 10 2025 17:55:53 GMT-0500 (Central Daylight Time),585647.8999999762,A,sh,O,h,76,1,350.19999998807907,585297.6999999881,7048,WL,C,4.0
5,3.365000009536743,learn,60000.0,Mon Mar 10 2025 17:55:53 GMT-0500 (Central Daylight Time),585678.8999999762,A,sho,O,o,24,1,381.19999998807907,585297.6999999881,7048,WL,C,4.0
5,3.5350000858306885,learn,60000.0,Mon Mar 10 2025 17:55:53 GMT-0500 (Central Daylight Time),585848.3999999762,A,shor,O,r,165,1,550.6999999880791,585297.6999999881,7048,WL,C,4.0
5,3.5820000171661377,learn,60000.0,Mon Mar 10 2025 17:55:53 GMT-0500 (Central Daylight Time),585895.6999999881,A,shore,O,e,41,1,598.0,585297.6999999881,7048,WL,C,4.0
5,3.7179999351501465,learn,60000.0,Mon Mar 10 2025 17:55:53 GMT-0500 (Central Daylight Time),586031.8000000119,A,shoreenter,O,enter,130,1,734.1000000238419,585297.6999999881,7048,WL,C,4.0
5,3.9000000953674316,learn,60000.0,Mon Mar 10 2025 17:55:53 GMT-0500 (Central Daylight Time),586214.0999999642,A,b,O,b,170,1,182.0,586032.0999999642,7048,WL,C,5.0
5,4.049999952316284,learn,60000.0,Mon Mar 10 2025 17:55:53 GMT-0500 (Central Daylight Time),586363.8000000119,A,bo,O,o,140,1,331.7000000476837,586032.0999999642,7048,WL,C,5.0
5,4.115999937057495,learn,60000.0,Mon Mar 10 2025 17:55:53 GMT-0500 (Central Daylight Time),586430.1999999881,A,bod,O,d,54,1,398.10000002384186,586032.0999999642,7048,WL,C,5.0
5,4.316999912261963,learn,60000.0,Mon Mar 10 2025 17:55:53 GMT-0500 (Central Daylight Time),586631.0999999642,A,body,O,y,179,1,599.0,586032.0999999642,7048,WL,C,5.0
5,4.58299994468689,learn,60000.0,Mon Mar 10 2025 17:55:53 GMT-0500 (Central Daylight Time),586897.0,A,bodyenter,O,enter,250,1,864.9000000357628,586032.0999999642,7048,WL,C,5.0
5,5.914999961853027,learn,60000.0,Mon Mar 10 2025 17:55:53 GMT-0500 (Central Daylight Time),588229.3999999762,A,t,O,t,1313,1,1332.199999988079,586897.1999999881,7048,WL,C,6.0
5,6.016000032424927,learn,60000.0,Mon Mar 10 2025 17:55:53 GMT-0500 (Central Daylight Time),588330.0999999642,A,to,O,o,82,1,1432.8999999761581,586897.1999999881,7048,WL,C,6.0
5,6.098999977111816,learn,60000.0,Mon Mar 10 2025 17:55:53 GMT-0500 (Central Daylight Time),588412.8000000119,A,tow,O,w,70,1,1515.6000000238419,586897.1999999881,7048,WL,C,6.0
5,6.183000087738037,learn,60000.0,Mon Mar 10 2025 17:55:53 GMT-0500 (Central Daylight Time),588496.8999999762,A,towe,O,e,67,1,1599.699999988079,586897.1999999881,7048,WL,C,6.0
5,6.213000059127808,learn,60000.0,Mon Mar 10 2025 17:55:53 GMT-0500 (Central Daylight Time),588527.3999999762,A,tower,O,r,25,1,1630.199999988079,586897.1999999881,7048,WL,C,6.0
5,6.367000102996826,learn,60000.0,Mon Mar 10 2025 17:55:53 GMT-0500 (Central Daylight Time),588680.5999999642,A,towerenter,O,enter,150,1,1783.3999999761581,586897.1999999881,7048,WL,C,6.0
5,6.5329999923706055,learn,60000.0,Mon Mar 10 2025 17:55:53 GMT-0500 (Central Daylight Time),588847.0999999642,A,w,O,w,154,1,166.19999998807907,588680.8999999762,7048,WL,C,7.0
5,6.734999895095825,learn,60000.0,Mon Mar 10 2025 17:55:53 GMT-0500 (Central Daylight Time),589048.8999999762,A,wh,O,h,197,1,368.0,588680.8999999762,7048,WL,C,7.0
5,6.83299994468689,learn,60000.0,Mon Mar 10 2025 17:55:53 GMT-0500 (Central Daylight Time),589146.6999999881,A,whe,O,e,80,1,465.80000001192093,588680.8999999762,7048,WL,C,7.0
5,6.947999954223633,learn,60000.0,Mon Mar 10 2025 17:55:53 GMT-0500 (Central Daylight Time),589262.0999999642,A,whea,O,a,93,1,581.1999999880791,588680.8999999762,7048,WL,C,7.0
5,7.065000057220459,learn,60000.0,Mon Mar 10 2025 17:55:53 GMT-0500 (Central Daylight Time),589379.3999999762,A,wheat,O,t,107,1,698.5,588680.8999999762,7048,WL,C,7.0
5,7.198999881744385,learn,60000.0,Mon Mar 10 2025 17:55:53 GMT-0500 (Central Daylight Time),589512.5999999642,A,wheatenter,O,enter,115,1,831.6999999880791,588680.8999999762,7048,WL,C,7.0
5,7.431999921798706,learn,60000.0,Mon Mar 10 2025 17:55:53 GMT-0500 (Central Daylight Time),589745.6999999881,A,q,O,q,226,1,232.89999997615814,589512.8000000119,7048,WL,C,8.0
5,7.565999984741211,learn,60000.0,Mon Mar 10 2025 17:55:53 GMT-0500 (Central Daylight Time),589880.3000000119,A,qu,O,u,120,1,367.5,589512.8000000119,7048,WL,C,8.0
5,7.7170000076293945,learn,60000.0,Mon Mar 10 2025 17:55:53 GMT-0500 (Central Daylight Time),590031.3999999762,A,que,O,e,128,1,518.5999999642372,589512.8000000119,7048,WL,C,8.0
5,7.849999904632568,learn,60000.0,Mon Mar 10 2025 17:55:53 GMT-0500 (Central Daylight Time),590163.6999999881,A,quee,O,e,109,1,650.8999999761581,589512.8000000119,7048,WL,C,8.0
5,7.933000087738037,learn,60000.0,Mon Mar 10 2025 17:55:53 GMT-0500 (Central Daylight Time),590246.8000000119,A,queen,O,n,69,1,734.0,589512.8000000119,7048,WL,C,8.0
5,8.38100004196167,learn,60000.0,Mon Mar 10 2025 17:55:53 GMT-0500 (Central Daylight Time),590695.0,A,queenenter,O,enter,426,1,1182.199999988079,589512.8000000119,7048,WL,C,8.0
5,9.098999977111816,learn,60000.0,Mon Mar 10 2025 17:55:53 GMT-0500 (Central Daylight Time),591412.5999999642,A,h,O,h,699,1,717.2999999523163,590695.3000000119,7048,WL,C,9.0
5,9.23200011253357,learn,60000.0,Mon Mar 10 2025 17:55:53 GMT-0500 (Central Daylight Time),591545.5999999642,A,ho,O,o,118,1,850.2999999523163,590695.3000000119,7048,WL,C,9.0
5,9.29800009727478,learn,60000.0,Mon Mar 10 2025 17:55:53 GMT-0500 (Central Daylight Time),591611.8000000119,A,hom,O,m,49,1,916.5,590695.3000000119,7048,WL,C,9.0
5,9.447999954223633,learn,60000.0,Mon Mar 10 2025 17:55:53 GMT-0500 (Central Daylight Time),591761.8000000119,A,home,O,e,144,1,1066.5,590695.3000000119,7048,WL,C,9.0
5,9.747999906539917,learn,60000.0,Mon Mar 10 2025 17:55:53 GMT-0500 (Central Daylight Time),592062.1999999881,A,homeenter,O,enter,287,1,1366.8999999761581,590695.3000000119,7048,WL,C,9.0
5,10.016000032424927,learn,60000.0,Mon Mar 10 2025 17:55:53 GMT-0500 (Central Daylight Time),592329.8999999762,A,b,O,b,263,1,267.5,592062.3999999762,7048,WL,C,10.0
5,10.131999969482422,learn,60000.0,Mon Mar 10 2025 17:55:53 GMT-0500 (Central Daylight Time),592446.3000000119,A,bo,O,o,95,1,383.9000000357628,592062.3999999762,7048,WL,C,10.0
5,10.282000064849854,learn,60000.0,Mon Mar 10 2025 17:55:53 GMT-0500 (Central Daylight Time),592595.8999999762,A,boy,O,y,129,1,533.5,592062.3999999762,7048,WL,C,10.0
5,10.61299991607666,learn,60000.0,Mon Mar 10 2025 17:55:53 GMT-0500 (Central Daylight Time),592927.0999999642,A,boyenter,O,enter,317,1,864.6999999880791,592062.3999999762,7048,WL,C,10.0
5,10.895999908447266,learn,60000.0,Mon Mar 10 2025 17:55:53 GMT-0500 (Central Daylight Time),593210.3999999762,A,d,O,d,269,1,283.0999999642372,592927.3000000119,7048,WL,C,11.0
5,10.997999906539917,learn,60000.0,Mon Mar 10 2025 17:55:53 GMT-0500 (Central Daylight Time),593311.5999999642,A,do,O,o,87,1,384.2999999523163,592927.3000000119,7048,WL,C,11.0
5,11.114000082015991,learn,60000.0,Mon Mar 10 2025 17:55:53 GMT-0500 (Central Daylight Time),593428.1999999881,A,doc,O,c,98,1,500.89999997615814,592927.3000000119,7048,WL,C,11.0
5,11.161999940872192,learn,60000.0,Mon Mar 10 2025 17:55:53 GMT-0500 (Central Daylight Time),593476.1999999881,A,doct,O,t,36,1,548.8999999761581,592927.3000000119,7048,WL,C,11.0
5,11.263999938964844,learn,60000.0,Mon Mar 10 2025 17:55:53 GMT-0500 (Central Daylight Time),593578.5,A,docto,O,o,84,1,651.1999999880791,592927.3000000119,7048,WL,C,11.0
5,11.380000114440918,learn,60000.0,Mon Mar 10 2025 17:55:53 GMT-0500 (Central Daylight Time),593693.8999999762,A,doctor,O,r,103,1,766.5999999642372,592927.3000000119,7048,WL,C,11.0
5,11.563999891281128,learn,60000.0,Mon Mar 10 2025 17:55:53 GMT-0500 (Central Daylight Time),593877.5,A,doctorenter,O,enter,173,1,950.1999999880791,592927.3000000119,7048,WL,C,11.0
5,12.397000074386597,learn,60000.0,Mon Mar 10 2025 17:55:53 GMT-0500 (Central Daylight Time),594710.5999999642,A,c,O,c,820,1,832.7999999523163,593877.8000000119,7048,WL,C,12.0
5,12.444999933242798,learn,60000.0,Mon Mar 10 2025 17:55:53 GMT-0500 (Central Daylight Time),594759.1999999881,A,ca,O,a,34,1,881.3999999761581,593877.8000000119,7048,WL,C,12.0
5,12.530999898910522,learn,60000.0,Mon Mar 10 2025 17:55:53 GMT-0500 (Central Daylight Time),594845.0999999642,A,cam,O,m,75,1,967.2999999523163,593877.8000000119,7048,WL,C,12.0
5,12.614000082015991,learn,60000.0,Mon Mar 10 2025 17:55:53 GMT-0500 (Central Daylight Time),594927.5999999642,A,camp,O,p,66,1,1049.7999999523163,593877.8000000119,7048,WL,C,12.0
5,12.864000082015991,learn,60000.0,Mon Mar 10 2025 17:55:53 GMT-0500 (Central Daylight Time),595177.5999999642,A,campenter,O,enter,232,1,1299.7999999523163,593877.8000000119,7048,WL,C,12.0
5,13.180999994277954,learn,60000.0,Mon Mar 10 2025 17:55:53 GMT-0500 (Central Daylight Time),595494.5,A,n,O,n,305,1,316.5,595178.0,7048,WL,C,13.0
5,13.27999997138977,learn,60000.0,Mon Mar 10 2025 17:55:53 GMT-0500 (Central Daylight Time),595594.3000000119,A,na,O,a,83,1,416.30000001192093,595178.0,7048,WL,C,13.0
5,13.381999969482422,learn,60000.0,Mon Mar 10 2025 17:55:53 GMT-0500 (Central Daylight Time),595696.0,A,nai,O,i,94,1,518.0,595178.0,7048,WL,C,13.0
5,13.430000066757202,learn,60000.0,Mon Mar 10 2025 17:55:53 GMT-0500 (Central Daylight Time),595743.8999999762,A,nail,O,l,22,1,565.8999999761581,595178.0,7048,WL,C,13.0
5,13.730000019073486,learn,60000.0,Mon Mar 10 2025 17:55:53 GMT-0500 (Central Daylight Time),596044.0999999642,A,nailenter,O,enter,290,1,866.0999999642372,595178.0,7048,WL,C,13.0
5,16.880000114440918,learn,60000.0,Mon Mar 10 2025 17:55:53 GMT-0500 (Central Daylight Time),599194.3999999762,A,s,O,s,3145,1,3150.0,596044.3999999762,7048,WL,C,14.0
5,16.994999885559082,learn,60000.0,Mon Mar 10 2025 17:55:53 GMT-0500 (Central Daylight Time),599309.0,A,su,O,u,95,1,3264.600000023842,596044.3999999762,7048,WL,C,14.0
5,17.144999980926514,learn,60000.0,Mon Mar 10 2025 17:55:53 GMT-0500 (Central Daylight Time),599459.5,A,sug,O,g,139,1,3415.100000023842,596044.3999999762,7048,WL,C,14.0
5,17.312000036239624,learn,60000.0,Mon Mar 10 2025 17:55:53 GMT-0500 (Central Daylight Time),599625.8999999762,A,suga,O,a,149,1,3581.5,596044.3999999762,7048,WL,C,14.0
5,17.378000020980835,learn,60000.0,Mon Mar 10 2025 17:55:53 GMT-0500 (Central Daylight Time),599691.8999999762,A,sugar,O,r,46,1,3647.5,596044.3999999762,7048,WL,C,14.0
5,17.461999893188477,learn,60000.0,Mon Mar 10 2025 17:55:53 GMT-0500 (Central Daylight Time),599775.5,A,sugarenter,O,enter,69,1,3731.100000023842,596044.3999999762,7048,WL,C,14.0
5,18.861999988555908,learn,60000.0,Mon Mar 10 2025 17:55:53 GMT-0500 (Central Daylight Time),601176.0999999642,A,l,O,l,1387,1,1400.2999999523163,599775.8000000119,7048,WL,C,15.0
5,18.961999893188477,learn,60000.0,Mon Mar 10 2025 17:55:53 GMT-0500 (Central Daylight Time),601275.5999999642,A,le,O,e,82,1,1499.7999999523163,599775.8000000119,7048,WL,C,15.0
5,19.194999933242798,learn,60000.0,Mon Mar 10 2025 17:55:53 GMT-0500 (Central Daylight Time),601509.1999999881,A,let,O,t,213,1,1733.3999999761581,599775.8000000119,7048,WL,C,15.0
5,19.311000108718872,learn,60000.0,Mon Mar 10 2025 17:55:53 GMT-0500 (Central Daylight Time),601624.5999999642,A,lett,O,t,101,1,1848.7999999523163,599775.8000000119,7048,WL,C,15.0
5,19.460000038146973,learn,60000.0,Mon Mar 10 2025 17:55:53 GMT-0500 (Central Daylight Time),601774.5,A,lette,O,e,137,1,1998.699999988079,599775.8000000119,7048,WL,C,15.0
5,19.51099991798401,learn,60000.0,Mon Mar 10 2025 17:55:53 GMT-0500 (Central Daylight Time),601824.6999999881,A,letter,O,r,36,1,2048.899999976158,599775.8000000119,7048,WL,C,15.0
5,19.609999895095825,learn,60000.0,Mon Mar 10 2025 17:55:53 GMT-0500 (Central Daylight Time),601924.1999999881,A,letterenter,O,enter,83,1,2148.399999976158,599775.8000000119,7048,WL,C,15.0
6,1.0160000324249268,distr,58983.99996757507,Mon Mar 10 2025 17:55:53 GMT-0500 (Central Daylight Time),667671.3000000119,B,s,O,s,1005,1,1016.2000000476837,666655.0999999642,7048,WL,C,1.0
6,1.1150000095367432,distr,58884.99999046326,Mon Mar 10 2025 17:55:53 GMT-0500 (Central Daylight Time),667770.5999999642,B,sk,O,k,88,1,1115.5,666655.0999999642,7048,WL,C,1.0
6,1.3849999904632568,distr,58615.00000953674,Mon Mar 10 2025 17:55:53 GMT-0500 (Central Daylight Time),668040.1999999881,B,sky,O,y,261,1,1385.1000000238419,666655.0999999642,7048,WL,C,1.0
6,1.6329998970031738,distr,58367.000102996826,Mon Mar 10 2025 17:55:53 GMT-0500 (Central Daylight Time),668288.5999999642,B,skyenter,O,enter,235,1,1633.5,666655.0999999642,7048,WL,C,1.0
6,1.931999921798706,distr,58068.000078201294,Mon Mar 10 2025 17:55:53 GMT-0500 (Central Daylight Time),668587.3999999762,B,v,O,v,282,1,298.5,668288.8999999762,7048,WL,C,2.0
6,1.998999834060669,distr,58001.00016593933,Mon Mar 10 2025 17:55:53 GMT-0500 (Central Daylight Time),668654.3000000119,B,va,O,a,46,1,365.4000000357628,668288.8999999762,7048,WL,C,2.0
6,2.116999864578247,distr,57883.00013542175,Mon Mar 10 2025 17:55:53 GMT-0500 (Central Daylight Time),668772.5,B,val,O,l,110,1,483.60000002384186,668288.8999999762,7048,WL,C,2.0
6,2.248999834060669,distr,57751.00016593933,Mon Mar 10 2025 17:55:53 GMT-0500 (Central Daylight Time),668904.6999999881,B,vall,O,l,118,1,615.8000000119209,668288.8999999762,7048,WL,C,2.0
6,2.3479998111724854,distr,57652.000188827515,Mon Mar 10 2025 17:55:53 GMT-0500 (Central Daylight Time),669003.5999999642,B,valle,O,e,79,1,714.6999999880791,668288.8999999762,7048,WL,C,2.0
6,2.496999979019165,distr,57503.000020980835,Mon Mar 10 2025 17:55:53 GMT-0500 (Central Daylight Time),669152.3999999762,B,valley,O,y,140,1,863.5,668288.8999999762,7048,WL,C,2.0
6,2.7149999141693115,distr,57285.00008583069,Mon Mar 10 2025 17:55:53 GMT-0500 (Central Daylight Time),669370.1999999881,B,valleyenter,O,enter,208,1,1081.300000011921,668288.8999999762,7048,WL,C,2.0
6,2.9819998741149902,distr,57018.00012588501,Mon Mar 10 2025 17:55:53 GMT-0500 (Central Daylight Time),669637.3999999762,B,m,O,m,247,1,266.89999997615814,669370.5,7048,WL,C,3.0
6,3.2170000076293945,distr,56782.999992370605,Mon Mar 10 2025 17:55:53 GMT-0500 (Central Daylight Time),669872.3999999762,B,mo,O,o,228,1,501.89999997615814,669370.5,7048,WL,C,3.0
6,3.363999843597412,distr,56636.00015640259,Mon Mar 10 2025 17:55:53 GMT-0500 (Central Daylight Time),670019.8000000119,B,mon,O,n,138,1,649.3000000119209,669370.5,7048,WL,C,3.0
6,3.4140000343322754,distr,56585.999965667725,Mon Mar 10 2025 17:55:53 GMT-0500 (Central Daylight Time),670068.8000000119,B,mone,O,e,28,1,698.3000000119209,669370.5,7048,WL,C,3.0
6,4.115000009536743,distr,55884.99999046326,Mon Mar 10 2025 17:55:53 GMT-0500 (Central Daylight Time),670770.0,B,money,O,y,694,1,1399.5,669370.5,7048,WL,C,3.0
6,4.633999824523926,distr,55366.000175476074,Mon Mar 10 2025 17:55:53 GMT-0500 (Central Daylight Time),671289.1999999881,B,moneyenter,O,enter,503,1,1918.699999988079,669370.5,7048,WL,C,3.0
6,5.863999843597412,distr,54136.00015640259,Mon Mar 10 2025 17:55:53 GMT-0500 (Central Daylight Time),672518.8000000119,B,t,O,t,1210,1,1229.300000011921,671289.5,7048,WL,C,4.0
6,6.096999883651733,distr,53903.00011634827,Mon Mar 10 2025 17:55:53 GMT-0500 (Central Daylight Time),672752.1999999881,B,to,O,o,220,1,1462.699999988079,671289.5,7048,WL,C,4.0
6,6.246999979019165,distr,53753.000020980835,Mon Mar 10 2025 17:55:53 GMT-0500 (Central Daylight Time),672902.0999999642,B,too,O,o,136,1,1612.5999999642372,671289.5,7048,WL,C,4.0
6,6.830999851226807,distr,53169.00014877319,Mon Mar 10 2025 17:55:53 GMT-0500 (Central Daylight Time),673486.3000000119,B,tool,O,l,564,1,2196.800000011921,671289.5,7048,WL,C,4.0
6,7.5959999561309814,distr,52404.00004386902,Mon Mar 10 2025 17:55:53 GMT-0500 (Central Daylight Time),674251.1999999881,B,toolenter,O,enter,747,1,2961.699999988079,671289.5,7048,WL,C,4.0
6,10.527999877929688,distr,49472.00012207031,Mon Mar 10 2025 17:55:53 GMT-0500 (Central Daylight Time),677182.8000000119,B,s,O,s,2926,1,2931.400000035763,674251.3999999762,7048,WL,C,5.0
6,10.69700002670288,distr,49302.99997329712,Mon Mar 10 2025 17:55:53 GMT-0500 (Central Daylight Time),677352.0999999642,B,sk,O,k,157,1,3100.699999988079,674251.3999999762,7048,WL,C,5.0
6,10.94700002670288,distr,49052.99997329712,Mon Mar 10 2025 17:55:53 GMT-0500 (Central Daylight Time),677602.0999999642,B,sky,O,y,244,1,3350.699999988079,674251.3999999762,7048,WL,C,5.0
6,11.245999813079834,distr,48754.000186920166,Mon Mar 10 2025 17:55:53 GMT-0500 (Central Daylight Time),677900.8000000119,B,skyenter,O,enter,277,1,3649.400000035763,674251.3999999762,7048,WL,C,5.0
6,14.477999925613403,distr,45522.0000743866,Mon Mar 10 2025 17:55:53 GMT-0500 (Central Daylight Time),681133.3000000119,B,b,O,b,3221,1,3232.100000023842,677901.1999999881,7048,WL,C,6.0
6,14.728999853134155,distr,45271.000146865845,Mon Mar 10 2025 17:55:53 GMT-0500 (Central Daylight Time),681384.5,B,bu,O,u,236,1,3483.300000011921,677901.1999999881,7048,WL,C,6.0
6,14.91100001335144,distr,45088.99998664856,Mon Mar 10 2025 17:55:53 GMT-0500 (Central Daylight Time),681566.1999999881,B,but,O,t,160,1,3665.0,677901.1999999881,7048,WL,C,6.0
6,15.044999837875366,distr,44955.000162124634,Mon Mar 10 2025 17:55:53 GMT-0500 (Central Daylight Time),681700.3999999762,B,butt,O,t,112,1,3799.199999988079,677901.1999999881,7048,WL,C,6.0
6,15.227999925613403,distr,44772.0000743866,Mon Mar 10 2025 17:55:53 GMT-0500 (Central Daylight Time),681883.5,B,butte,O,e,163,1,3982.300000011921,677901.1999999881,7048,WL,C,6.0
6,15.276000022888184,distr,44723.99997711182,Mon Mar 10 2025 17:55:53 GMT-0500 (Central Daylight Time),681931.5,B,butter,O,r,36,1,4030.300000011921,677901.1999999881,7048,WL,C,6.0
6,15.426999807357788,distr,44573.00019264221,Mon Mar 10 2025 17:55:53 GMT-0500 (Central Daylight Time),682082.6999999881,B,butterenter,O,enter,144,1,4181.5,677901.1999999881,7048,WL,C,6.0
6,21.32699990272522,distr,38673.00009727478,Mon Mar 10 2025 17:55:53 GMT-0500 (Central Daylight Time),687982.3000000119,B,w,O,w,5879,1,5899.300000011921,682083.0,7048,WL,C,7.0
6,21.40999984741211,distr,38590.00015258789,Mon Mar 10 2025 17:55:53 GMT-0500 (Central Daylight Time),688065.0999999642,B,wi,O,i,77,1,5982.099999964237,682083.0,7048,WL,C,7.0
6,21.47499990463257,distr,38525.00009536743,Mon Mar 10 2025 17:55:53 GMT-0500 (Central Daylight Time),688130.0999999642,B,win,O,n,56,1,6047.099999964237,682083.0,7048,WL,C,7.0
6,21.574999809265137,distr,38425.00019073486,Mon Mar 10 2025 17:55:53 GMT-0500 (Central Daylight Time),688230.6999999881,B,wint,O,t,80,1,6147.699999988079,682083.0,7048,WL,C,7.0
6,21.692999839782715,distr,38307.000160217285,Mon Mar 10 2025 17:55:53 GMT-0500 (Central Daylight Time),688348.0,B,winte,O,e,95,1,6265.0,682083.0,7048,WL,C,7.0
6,21.76099991798401,distr,38239.00008201599,Mon Mar 10 2025 17:55:53 GMT-0500 (Central Daylight Time),688416.3000000119,B,winter,O,r,59,1,6333.300000011921,682083.0,7048,WL,C,7.0
6,21.858999967575073,distr,38141.00003242493,Mon Mar 10 2025 17:55:53 GMT-0500 (Central Daylight Time),688514.5999999642,B,winterenter,O,enter,70,1,6431.599999964237,682083.0,7048,WL,C,7.0
6,36.57200002670288,distr,23427.99997329712,Mon Mar 10 2025 17:55:53 GMT-0500 (Central Daylight Time),703227.3000000119,B,enter,O,enter,14695,1,14712.400000035763,688514.8999999762,7048,WL,C,8.0
6,37.48799991607666,distr,22512.00008392334,Mon Mar 10 2025 17:55:53 GMT-0500 (Central Daylight Time),704143.3999999762,B,enter,O,enter,902,1,915.8000000119209,703227.5999999642,7048,WL,C,9.0
6,37.63699984550476,distr,22363.00015449524,Mon Mar 10 2025 17:55:53 GMT-0500 (Central Daylight Time),704292.0999999642,B,enter,O,enter,131,1,148.39999997615814,704143.6999999881,7048,WL,C,10.0
6,37.78600001335144,distr,22213.99998664856,Mon Mar 10 2025 17:55:53 GMT-0500 (Central Daylight Time),704441.5999999642,B,enter,O,enter,135,1,149.0999999642372,704292.5,7048,WL,C,11.0
6,37.9210000038147,distr,22078.999996185303,Mon Mar 10 2025 17:55:53 GMT-0500 (Central Daylight Time),704576.1999999881,B,enter,O,enter,120,1,134.30000001192093,704441.8999999762,7048,WL,C,12.0
6,38.05399990081787,distr,21946.00009918213,Mon Mar 10 2025 17:55:53 GMT-0500 (Central Daylight Time),704708.8000000119,B,enter,O,enter,122,1,132.30000001192093,704576.5,7048,WL,C,13.0
6,38.18599987030029,distr,21814.000129699707,Mon Mar 10 2025 17:55:53 GMT-0500 (Central Daylight Time),704841.5999999642,B,enter,O,enter,127,1,132.5999999642372,704709.0,7048,WL,C,14.0
6,39.23599982261658,distr,20764.000177383423,Mon Mar 10 2025 17:55:53 GMT-0500 (Central Daylight Time),705891.1999999881,B,enter,O,enter,1032,1,1049.3999999761581,704841.8000000119,7048,WL,C,15.0
7,19.161999940872192,immed,40838.00005912781,Mon Mar 10 2025 17:55:53 GMT-0500 (Central Daylight Time),726137.5999999642,A,t,O,t,19158,1,19162.399999976158,706975.1999999881,7048,WL,C,1.0
7,19.32800006866455,immed,40671.99993133545,Mon Mar 10 2025 17:55:53 GMT-0500 (Central Daylight Time),726303.3999999762,A,to,O,o,143,1,19328.19999998808,706975.1999999881,7048,WL,C,1.0
7,19.408999919891357,immed,40591.00008010864,Mon Mar 10 2025 17:55:53 GMT-0500 (Central Daylight Time),726384.3999999762,A,tow,O,w,65,1,19409.19999998808,706975.1999999881,7048,WL,C,1.0
7,19.45799994468689,immed,40542.00005531311,Mon Mar 10 2025 17:55:53 GMT-0500 (Central Daylight Time),726433.6999999881,A,towe,O,e,31,1,19458.5,706975.1999999881,7048,WL,C,1.0
7,20.30999994277954,immed,39690.00005722046,Mon Mar 10 2025 17:55:53 GMT-0500 (Central Daylight Time),727285.3999999762,A,tower,O,r,839,1,20310.19999998808,706975.1999999881,7048,WL,C,1.0
7,20.7260000705719,immed,39273.9999294281,Mon Mar 10 2025 17:55:53 GMT-0500 (Central Daylight Time),727701.3000000119,A,towerenter,O,enter,403,1,20726.100000023842,706975.1999999881,7048,WL,C,1.0
7,20.875999927520752,immed,39124.00007247925,Mon Mar 10 2025 17:55:53 GMT-0500 (Central Daylight Time),727851.1999999881,A,w,O,w,141,1,149.69999998807907,727701.5,7048,WL,C,2.0
7,20.97699999809265,immed,39023.00000190735,Mon Mar 10 2025 17:55:53 GMT-0500 (Central Daylight Time),727952.0999999642,A,wh,O,h,94,1,250.5999999642372,727701.5,7048,WL,C,2.0
7,21.058000087738037,immed,38941.99991226196,Mon Mar 10 2025 17:55:53 GMT-0500 (Central Daylight Time),728034.0,A,whe,O,e,63,1,332.5,727701.5,7048,WL,C,2.0
7,21.16100001335144,immed,38838.99998664856,Mon Mar 10 2025 17:55:53 GMT-0500 (Central Daylight Time),728136.3000000119,A,whea,O,a,93,1,434.80000001192093,727701.5,7048,WL,C,2.0
7,21.259999990463257,immed,38740.00000953674,Mon Mar 10 2025 17:55:53 GMT-0500 (Central Daylight Time),728235.3000000119,A,wheat,O,t,81,1,533.8000000119209,727701.5,7048,WL,C,2.0
7,21.359999895095825,immed,38640.000104904175,Mon Mar 10 2025 17:55:53 GMT-0500 (Central Daylight Time),728335.5999999642,A,wheatenter,O,enter,93,1,634.0999999642372,727701.5,7048,WL,C,2.0
7,22.441999912261963,immed,37558.00008773804,Mon Mar 10 2025 17:55:53 GMT-0500 (Central Daylight Time),729417.8999999762,A,q,O,q,1067,1,1082.0999999642372,728335.8000000119,7048,WL,C,3.0
7,22.542999982833862,immed,37457.00001716614,Mon Mar 10 2025 17:55:53 GMT-0500 (Central Daylight Time),729518.1999999881,A,qu,O,u,87,1,1182.3999999761581,728335.8000000119,7048,WL,C,3.0
7,22.64199995994568,immed,37358.00004005432,Mon Mar 10 2025 17:55:53 GMT-0500 (Central Daylight Time),729617.5999999642,A,que,O,e,82,1,1281.7999999523163,728335.8000000119,7048,WL,C,3.0
7,22.776999950408936,immed,37223.000049591064,Mon Mar 10 2025 17:55:53 GMT-0500 (Central Daylight Time),729752.8999999762,A,quee,O,e,128,1,1417.0999999642372,728335.8000000119,7048,WL,C,3.0
7,22.858999967575073,immed,37141.00003242493,Mon Mar 10 2025 17:55:53 GMT-0500 (Central Daylight Time),729834.0999999642,A,queen,O,n,72,1,1498.2999999523163,728335.8000000119,7048,WL,C,3.0
7,23.10800004005432,immed,36891.99995994568,Mon Mar 10 2025 17:55:53 GMT-0500 (Central Daylight Time),730083.5,A,queenenter,O,enter,239,1,1747.699999988079,728335.8000000119,7048,WL,C,3.0
7,26.858999967575073,immed,33141.00003242493,Mon Mar 10 2025 17:55:53 GMT-0500 (Central Daylight Time),733834.1999999881,A,s,O,s,3744,1,3750.399999976158,730083.8000000119,7048,WL,C,4.0
7,27.091000080108643,immed,32908.99991989136,Mon Mar 10 2025 17:55:53 GMT-0500 (Central Daylight Time),734066.8000000119,A,su,O,u,214,1,3983.0,730083.8000000119,7048,WL,C,4.0
7,27.17300009727478,immed,32826.99990272522,Mon Mar 10 2025 17:55:53 GMT-0500 (Central Daylight Time),734148.6999999881,A,sug,O,g,60,1,4064.899999976158,730083.8000000119,7048,WL,C,4.0
7,27.325000047683716,immed,32674.999952316284,Mon Mar 10 2025 17:55:53 GMT-0500 (Central Daylight Time),734299.8999999762,A,suga,O,a,132,1,4216.099999964237,730083.8000000119,7048,WL,C,4.0
7,27.391000032424927,immed,32608.999967575073,Mon Mar 10 2025 17:55:53 GMT-0500 (Central Daylight Time),734366.5999999642,A,sugar,O,r,44,1,4282.799999952316,730083.8000000119,7048,WL,C,4.0
7,27.506999969482422,immed,32493.000030517578,Mon Mar 10 2025 17:55:53 GMT-0500 (Central Daylight Time),734482.3999999762,A,sugarenter,O,enter,106,1,4398.599999964237,730083.8000000119,7048,WL,C,4.0
7,28.0239999294281,immed,31976.0000705719,Mon Mar 10 2025 17:55:53 GMT-0500 (Central Daylight Time),734999.8000000119,A,h,O,h,504,1,517.1000000238419,734482.6999999881,7048,WL,C,5.0
7,28.19099998474121,immed,31809.00001525879,Mon Mar 10 2025 17:55:53 GMT-0500 (Central Daylight Time),735166.5,A,ho,O,o,145,1,683.8000000119209,734482.6999999881,7048,WL,C,5.0
7,28.23900008201599,immed,31760.99991798401,Mon Mar 10 2025 17:55:53 GMT-0500 (Central Daylight Time),735214.0999999642,A,hom,O,m,24,1,731.3999999761581,734482.6999999881,7048,WL,C,5.0
7,28.33999991416931,immed,31660.00008583069,Mon Mar 10 2025 17:55:53 GMT-0500 (Central Daylight Time),735315.5,A,home,O,e,93,1,832.8000000119209,734482.6999999881,7048,WL,C,5.0
7,28.707000017166138,immed,31292.999982833862,Mon Mar 10 2025 17:55:53 GMT-0500 (Central Daylight Time),735682.0999999642,A,homeenter,O,enter,359,1,1199.3999999761581,734482.6999999881,7048,WL,C,5.0
7,28.957000017166138,immed,31042.999982833862,Mon Mar 10 2025 17:55:53 GMT-0500 (Central Daylight Time),735932.8999999762,A,b,O,b,232,1,250.5999999642372,735682.3000000119,7048,WL,C,6.0
7,29.04200005531311,immed,30957.99994468689,Mon Mar 10 2025 17:55:53 GMT-0500 (Central Daylight Time),736017.3000000119,A,bo,O,o,60,1,335.0,735682.3000000119,7048,WL,C,6.0
7,29.141000032424927,immed,30858.999967575073,Mon Mar 10 2025 17:55:53 GMT-0500 (Central Daylight Time),736116.3999999762,A,boy,O,y,88,1,434.0999999642372,735682.3000000119,7048,WL,C,6.0
7,29.391000032424927,immed,30608.999967575073,Mon Mar 10 2025 17:55:53 GMT-0500 (Central Daylight Time),736366.1999999881,A,boyenter,O,enter,236,1,683.8999999761581,735682.3000000119,7048,WL,C,6.0
7,30.92300009727478,immed,29076.99990272522,Mon Mar 10 2025 17:55:53 GMT-0500 (Central Daylight Time),737898.5,A,d,O,d,1517,1,1532.0,736366.5,7048,WL,C,7.0
7,31.039999961853027,immed,28960.000038146973,Mon Mar 10 2025 17:55:53 GMT-0500 (Central Daylight Time),738015.0999999642,A,do,O,o,102,1,1648.5999999642372,736366.5,7048,WL,C,7.0
7,31.139999866485596,immed,28860.000133514404,Mon Mar 10 2025 17:55:53 GMT-0500 (Central Daylight Time),738115.3999999762,A,doc,O,c,93,1,1748.8999999761581,736366.5,7048,WL,C,7.0
7,31.289000034332275,immed,28710.999965667725,Mon Mar 10 2025 17:55:53 GMT-0500 (Central Daylight Time),738264.8999999762,A,doct,O,t,133,1,1898.3999999761581,736366.5,7048,WL,C,7.0
7,31.405999898910522,immed,28594.000101089478,Mon Mar 10 2025 17:55:53 GMT-0500 (Central Daylight Time),738381.8999999762,A,docto,O,o,103,1,2015.3999999761581,736366.5,7048,WL,C,7.0
7,31.555999994277954,immed,28444.000005722046,Mon Mar 10 2025 17:55:53 GMT-0500 (Central Daylight Time),738531.3000000119,A,doctor,O,r,130,1,2164.800000011921,736366.5,7048,WL,C,7.0
7,32.206000089645386,immed,27793.999910354614,Mon Mar 10 2025 17:55:53 GMT-0500 (Central Daylight Time),739181.0,A,doctorenter,O,enter,628,1,2814.5,736366.5,7048,WL,C,7.0
7,33.33999991416931,immed,26660.00008583069,Mon Mar 10 2025 17:55:53 GMT-0500 (Central Daylight Time),740315.5999999642,A,c,O,c,1113,1,1134.2999999523163,739181.3000000119,7048,WL,C,8.0
7,33.3529999256134,immed,26647.000074386597,Mon Mar 10 2025 17:55:53 GMT-0500 (Central Daylight Time),740328.1999999881,A,ca,O,a,4,1,1146.8999999761581,739181.3000000119,7048,WL,C,8.0
7,33.473000049591064,immed,26526.999950408936,Mon Mar 10 2025 17:55:53 GMT-0500 (Central Daylight Time),740448.1999999881,A,cam,O,m,107,1,1266.8999999761581,739181.3000000119,7048,WL,C,8.0
7,33.67199993133545,immed,26328.00006866455,Mon Mar 10 2025 17:55:53 GMT-0500 (Central Daylight Time),740647.8999999762,A,camp,O,p,186,1,1466.5999999642372,739181.3000000119,7048,WL,C,8.0
7,34.121999979019165,immed,25878.000020980835,Mon Mar 10 2025 17:55:53 GMT-0500 (Central Daylight Time),741097.5999999642,A,campenter,O,enter,434,1,1916.2999999523163,739181.3000000119,7048,WL,C,8.0
7,34.5550000667572,immed,25444.999933242798,Mon Mar 10 2025 17:55:53 GMT-0500 (Central Daylight Time),741530.3000000119,A,n,O,n,424,1,432.5,741097.8000000119,7048,WL,C,9.0
7,34.65599989891052,immed,25344.000101089478,Mon Mar 10 2025 17:55:53 GMT-0500 (Central Daylight Time),741631.5999999642,A,na,O,a,94,1,533.7999999523163,741097.8000000119,7048,WL,C,9.0
7,34.75399994850159,immed,25246.000051498413,Mon Mar 10 2025 17:55:53 GMT-0500 (Central Daylight Time),741729.8999999762,A,nai,O,i,89,1,632.0999999642372,741097.8000000119,7048,WL,C,9.0
7,34.83899998664856,immed,25161.00001335144,Mon Mar 10 2025 17:55:53 GMT-0500 (Central Daylight Time),741814.1999999881,A,nail,O,l,72,1,716.3999999761581,741097.8000000119,7048,WL,C,9.0
7,35.104000091552734,immed,24895.999908447266,Mon Mar 10 2025 17:55:53 GMT-0500 (Central Daylight Time),742079.5999999642,A,nailenter,O,enter,259,1,981.7999999523163,741097.8000000119,7048,WL,C,9.0
7,39.48699998855591,immed,20513.00001144409,Mon Mar 10 2025 17:55:53 GMT-0500 (Central Daylight Time),746462.5999999642,A,s,O,s,4371,1,4382.799999952316,742079.8000000119,7048,WL,C,10.0
7,39.6029999256134,immed,20397.000074386597,Mon Mar 10 2025 17:55:53 GMT-0500 (Central Daylight Time),746578.8000000119,A,sh,O,h,109,1,4499.0,742079.8000000119,7048,WL,C,10.0
7,39.67199993133545,immed,20328.00006866455,Mon Mar 10 2025 17:55:53 GMT-0500 (Central Daylight Time),746647.8999999762,A,sho,O,o,62,1,4568.099999964237,742079.8000000119,7048,WL,C,10.0
7,39.769999980926514,immed,20230.000019073486,Mon Mar 10 2025 17:55:53 GMT-0500 (Central Daylight Time),746745.3000000119,A,shor,O,r,90,1,4665.5,742079.8000000119,7048,WL,C,10.0
7,39.83699989318848,immed,20163.000106811523,Mon Mar 10 2025 17:55:53 GMT-0500 (Central Daylight Time),746812.0999999642,A,shore,O,e,46,1,4732.299999952316,742079.8000000119,7048,WL,C,10.0
7,40.00200009346008,immed,19997.999906539917,Mon Mar 10 2025 17:55:53 GMT-0500 (Central Daylight Time),746977.0999999642,A,shoreenter,O,enter,149,1,4897.299999952316,742079.8000000119,7048,WL,C,10.0
7,40.55399990081787,immed,19446.00009918213,Mon Mar 10 2025 17:55:53 GMT-0500 (Central Daylight Time),747529.5999999642,A,b,O,b,528,1,552.1999999880791,746977.3999999762,7048,WL,C,11.0
7,40.63800001144409,immed,19361.99998855591,Mon Mar 10 2025 17:55:53 GMT-0500 (Central Daylight Time),747613.8999999762,A,bo,O,o,73,1,636.5,746977.3999999762,7048,WL,C,11.0
7,40.75499987602234,immed,19245.00012397766,Mon Mar 10 2025 17:55:53 GMT-0500 (Central Daylight Time),747730.1999999881,A,bod,O,d,112,1,752.8000000119209,746977.3999999762,7048,WL,C,11.0
7,40.854000091552734,immed,19145.999908447266,Mon Mar 10 2025 17:55:53 GMT-0500 (Central Daylight Time),747829.3999999762,A,body,O,y,79,1,852.0,746977.3999999762,7048,WL,C,11.0
7,41.08699989318848,immed,18913.000106811523,Mon Mar 10 2025 17:55:53 GMT-0500 (Central Daylight Time),748062.0999999642,A,bodyenter,O,enter,212,1,1084.699999988079,746977.3999999762,7048,WL,C,11.0
7,43.13599991798401,immed,16864.00008201599,Mon Mar 10 2025 17:55:53 GMT-0500 (Central Daylight Time),750111.5999999642,A,l,O,l,2037,1,2049.199999988079,748062.3999999762,7048,WL,C,12.0
7,43.28600001335144,immed,16713.99998664856,Mon Mar 10 2025 17:55:53 GMT-0500 (Central Daylight Time),750261.8000000119,A,le,O,e,130,1,2199.400000035763,748062.3999999762,7048,WL,C,12.0
7,43.484999895095825,immed,16515.000104904175,Mon Mar 10 2025 17:55:53 GMT-0500 (Central Daylight Time),750460.6999999881,A,let,O,t,179,1,2398.300000011921,748062.3999999762,7048,WL,C,12.0
7,43.63499999046326,immed,16365.000009536743,Mon Mar 10 2025 17:55:53 GMT-0500 (Central Daylight Time),750610.3999999762,A,lett,O,t,132,1,2548.0,748062.3999999762,7048,WL,C,12.0
7,43.73799991607666,immed,16262.00008392334,Mon Mar 10 2025 17:55:53 GMT-0500 (Central Daylight Time),750713.5999999642,A,lette,O,e,97,1,2651.199999988079,748062.3999999762,7048,WL,C,12.0
7,43.80200004577637,immed,16197.999954223633,Mon Mar 10 2025 17:55:53 GMT-0500 (Central Daylight Time),750777.8000000119,A,letter,O,r,56,1,2715.400000035763,748062.3999999762,7048,WL,C,12.0
7,43.918999910354614,immed,16081.000089645386,Mon Mar 10 2025 17:55:53 GMT-0500 (Central Daylight Time),750894.0,A,letterenter,O,enter,103,1,2831.600000023842,748062.3999999762,7048,WL,C,12.0
7,48.170000076293945,immed,11829.999923706055,Mon Mar 10 2025 17:55:53 GMT-0500 (Central Daylight Time),755145.3000000119,A,c,O,c,4246,1,4251.100000023842,750894.1999999881,7048,WL,C,13.0
7,48.318000078201294,immed,11681.999921798706,Mon Mar 10 2025 17:55:53 GMT-0500 (Central Daylight Time),755293.3000000119,A,co,O,o,138,1,4399.100000023842,750894.1999999881,7048,WL,C,13.0
7,48.418999910354614,immed,11581.000089645386,Mon Mar 10 2025 17:55:53 GMT-0500 (Central Daylight Time),755394.5,A,cor,O,r,77,1,4500.300000011921,750894.1999999881,7048,WL,C,13.0
7,48.50200009346008,immed,11497.999906539917,Mon Mar 10 2025 17:55:53 GMT-0500 (Central Daylight Time),755477.1999999881,A,corn,O,n,68,1,4583.0,750894.1999999881,7048,WL,C,13.0
7,48.66700005531311,immed,11332.99994468689,Mon Mar 10 2025 17:55:53 GMT-0500 (Central Daylight Time),755642.5999999642,A,cornenter,O,enter,149,1,4748.399999976158,750894.1999999881,7048,WL,C,13.0
7,49.45199990272522,immed,10548.00009727478,Mon Mar 10 2025 17:55:53 GMT-0500 (Central Daylight Time),756427.0999999642,A,c,O,c,780,1,784.1999999880791,755642.8999999762,7048,WL,C,14.0
7,49.634000062942505,immed,10365.999937057495,Mon Mar 10 2025 17:55:53 GMT-0500 (Central Daylight Time),756609.0999999642,A,ca,O,a,166,1,966.1999999880791,755642.8999999762,7048,WL,C,14.0
7,49.78399991989136,immed,10216.000080108643,Mon Mar 10 2025 17:55:53 GMT-0500 (Central Daylight Time),756759.5,A,cat,O,t,138,1,1116.6000000238419,755642.8999999762,7048,WL,C,14.0
7,49.91700005531311,immed,10082.99994468689,Mon Mar 10 2025 17:55:53 GMT-0500 (Central Daylight Time),756892.0,A,catt,O,t,114,1,1249.1000000238419,755642.8999999762,7048,WL,C,14.0
7,50.01900005340576,immed,9980.999946594238,Mon Mar 10 2025 17:55:53 GMT-0500 (Central Daylight Time),756994.1999999881,A,cattl,O,l,95,1,1351.300000011921,755642.8999999762,7048,WL,C,14.0
7,50.18400001525879,immed,9815.999984741211,Mon Mar 10 2025 17:55:53 GMT-0500 (Central Daylight Time),757159.0,A,cattle,O,e,151,1,1516.1000000238419,755642.8999999762,7048,WL,C,14.0
7,50.26699995994568,immed,9733.000040054321,Mon Mar 10 2025 17:55:53 GMT-0500 (Central Daylight Time),757242.0,A,cattleenter,O,enter,67,1,1599.1000000238419,755642.8999999762,7048,WL,C,14.0
7,52.89800000190735,immed,7101.999998092651,Mon Mar 10 2025 17:55:53 GMT-0500 (Central Daylight Time),759873.6999999881,A,enter,O,enter,2617,1,2631.5,757242.1999999881,7048,WL,C,15.0
