acc_sum,block,block_c,change,condition,correct,correct_response,datetime,endtime,face,project,response,response_time,row_sel,session_number,start_end,starttime,subject_id,task,task_vers,trial
0,prac,1,,1-Back,,,Wed Apr 02 2025 08:50:50 GMT-0500 (Central Daylight Time),,050_m_f_n_a.png,O,space,10613,1,1,,,7088,NNB,A,0
1,prac,1,0.0,1-Back,1,m,Wed Apr 02 2025 08:50:50 GMT-0500 (Central Daylight Time),146747.90000009537,063_y_f_n_a.png,O,m,1612,2,1,2417.7000000476837,144330.20000004768,7088,NNB,A,1
2,prac,1,1.0,1-Back,1,z,Wed Apr 02 2025 08:50:50 GMT-0500 (Central Daylight Time),149046.90000009537,063_y_f_n_a.png,O,z,1515,3,1,2287.100000023842,146759.80000007153,7088,NNB,A,2
3,prac,1,0.0,1-Back,1,m,Wed Apr 02 2025 08:50:50 GMT-0500 (Central Daylight Time),150931.30000007153,053_o_m_n_a.png,O,m,1083,4,1,1873.6000000238419,149057.70000004768,7088,NNB,A,3
4,prac,1,0.0,1-Back,1,m,Wed Apr 02 2025 08:50:50 GMT-0500 (Central Daylight Time),153312.10000002384,058_m_m_n_a.png,O,m,1575,5,1,2371.1999999284744,150940.90000009537,7088,NNB,A,4
5,prac,1,1.0,1-Back,1,z,Wed Apr 02 2025 08:50:50 GMT-0500 (Central Daylight Time),154862.0,058_m_m_n_a.png,O,z,767,6,1,1539.2999999523163,153322.70000004768,7088,NNB,A,5
6,prac,1,0.0,1-Back,1,m,Wed Apr 02 2025 08:50:50 GMT-0500 (Central Daylight Time),156910.40000009537,047_o_f_n_a.png,O,m,1208,7,1,2037.7000000476837,154872.70000004768,7088,NNB,A,6
7,prac,1,0.0,1-Back,1,m,Wed Apr 02 2025 08:50:50 GMT-0500 (Central Daylight Time),158878.5,045_m_m_n_a.png,O,m,1166,8,1,1959.1999999284744,156919.30000007153,7088,NNB,A,7
8,prac,1,0.0,1-Back,1,m,Wed Apr 02 2025 08:50:50 GMT-0500 (Central Daylight Time),160544.90000009537,050_m_f_n_a.png,O,m,880,9,1,1655.3000000715256,158889.60000002384,7088,NNB,A,8
9,prac,1,1.0,1-Back,1,z,Wed Apr 02 2025 08:50:50 GMT-0500 (Central Daylight Time),162177.20000004768,050_m_f_n_a.png,O,z,837,10,1,1620.8999999761581,160556.30000007153,7088,NNB,A,9
10,prac,1,0.0,1-Back,1,m,Wed Apr 02 2025 08:50:50 GMT-0500 (Central Daylight Time),163962.30000007153,053_o_m_n_a.png,O,m,1013,11,1,1773.8999999761581,162188.40000009537,7088,NNB,A,10
11,prac,1,0.0,1-Back,1,m,Wed Apr 02 2025 08:50:50 GMT-0500 (Central Daylight Time),165826.0,010_y_f_n_a.png,O,m,1047,12,1,1852.0,163974.0,7088,NNB,A,11
0,test,1,0.0,1-Back,,,Wed Apr 02 2025 08:50:50 GMT-0500 (Central Daylight Time),165826.0,063_y_f_n_a.png,O,space,7511,1,1,1852.0,163974.0,7088,NNB,A,0
1,test,1,0.0,1-Back,1,m,Wed Apr 02 2025 08:50:50 GMT-0500 (Central Daylight Time),184602.90000009537,043_m_f_n_a.png,O,m,951,2,1,1970.5,182632.40000009537,7088,NNB,A,1
2,test,1,0.0,1-Back,1,m,Wed Apr 02 2025 08:50:50 GMT-0500 (Central Daylight Time),186586.80000007153,010_y_f_n_a.png,O,m,958,3,1,1975.6000000238419,184611.20000004768,7088,NNB,A,2
3,test,1,1.0,1-Back,1,z,Wed Apr 02 2025 08:50:50 GMT-0500 (Central Daylight Time),188486.10000002384,010_y_f_n_a.png,O,z,884,4,1,1891.7999999523163,186594.30000007153,7088,NNB,A,3
4,test,1,0.0,1-Back,1,m,Wed Apr 02 2025 08:50:50 GMT-0500 (Central Daylight Time),190335.20000004768,043_m_f_n_a.png,O,m,830,5,1,1842.0,188493.20000004768,7088,NNB,A,4
5,test,1,0.0,1-Back,1,m,Wed Apr 02 2025 08:50:50 GMT-0500 (Central Daylight Time),192516.70000004768,053_o_m_n_a.png,O,m,1155,6,1,2171.899999976158,190344.80000007153,7088,NNB,A,5
6,test,1,1.0,1-Back,1,z,Wed Apr 02 2025 08:50:50 GMT-0500 (Central Daylight Time),194417.10000002384,053_o_m_n_a.png,O,z,877,7,1,1893.0,192524.10000002384,7088,NNB,A,6
7,test,1,0.0,1-Back,1,m,Wed Apr 02 2025 08:50:50 GMT-0500 (Central Daylight Time),196349.5,058_m_m_n_a.png,O,m,916,8,1,1923.3999999761581,194426.10000002384,7088,NNB,A,7
8,test,1,0.0,1-Back,1,m,Wed Apr 02 2025 08:50:50 GMT-0500 (Central Daylight Time),198299.5,047_o_f_n_a.png,O,m,933,9,1,1940.1999999284744,196359.30000007153,7088,NNB,A,8
9,test,1,0.0,1-Back,1,m,Wed Apr 02 2025 08:50:50 GMT-0500 (Central Daylight Time),200230.30000007153,058_m_m_n_a.png,O,m,910,10,1,1921.3000000715256,198309.0,7088,NNB,A,9
10,test,1,0.0,1-Back,1,m,Wed Apr 02 2025 08:50:50 GMT-0500 (Central Daylight Time),202148.80000007153,041_y_m_n_a.png,O,m,899,11,1,1909.3999999761581,200239.40000009537,7088,NNB,A,10
11,test,1,1.0,1-Back,1,z,Wed Apr 02 2025 08:50:50 GMT-0500 (Central Daylight Time),203946.70000004768,041_y_m_n_a.png,O,z,766,12,1,1788.7000000476837,202158.0,7088,NNB,A,11
12,test,1,0.0,1-Back,1,m,Wed Apr 02 2025 08:50:50 GMT-0500 (Central Daylight Time),205845.60000002384,044_o_f_n_a.png,O,m,881,13,1,1888.6999999284744,203956.90000009537,7088,NNB,A,12
13,test,1,1.0,1-Back,1,z,Wed Apr 02 2025 08:50:50 GMT-0500 (Central Daylight Time),207828.0,044_o_f_n_a.png,O,z,953,14,1,1972.2999999523163,205855.70000004768,7088,NNB,A,13
14,test,1,0.0,1-Back,1,m,Wed Apr 02 2025 08:50:50 GMT-0500 (Central Daylight Time),209643.70000004768,008_y_m_n_a.png,O,m,789,15,1,1806.8999999761581,207836.80000007153,7088,NNB,A,14
15,test,1,0.0,1-Back,1,m,Wed Apr 02 2025 08:50:50 GMT-0500 (Central Daylight Time),211477.30000007153,050_m_f_n_a.png,O,m,812,16,1,1823.5,209653.80000007153,7088,NNB,A,15
16,test,1,0.0,1-Back,1,m,Wed Apr 02 2025 08:50:50 GMT-0500 (Central Daylight Time),213258.90000009537,046_o_m_n_a.png,O,m,755,17,1,1771.5,211487.40000009537,7088,NNB,A,16
17,test,1,0.0,1-Back,1,m,Wed Apr 02 2025 08:50:50 GMT-0500 (Central Daylight Time),215444.70000004768,050_m_f_n_a.png,O,m,1157,18,1,2175.899999976158,213268.80000007153,7088,NNB,A,17
0,test,2,0.0,1-Back,,,Wed Apr 02 2025 08:50:50 GMT-0500 (Central Daylight Time),215444.70000004768,058_m_m_n_a.png,O,space,2764,1,1,2175.899999976158,213268.80000007153,7088,NNB,A,0
1,test,2,0.0,1-Back,1,m,Wed Apr 02 2025 08:50:50 GMT-0500 (Central Daylight Time),222190.30000007153,043_m_f_n_a.png,O,m,919,2,1,1938.1000000238419,220252.20000004768,7088,NNB,A,1
2,test,2,1.0,1-Back,1,z,Wed Apr 02 2025 08:50:50 GMT-0500 (Central Daylight Time),224791.20000004768,043_m_f_n_a.png,O,z,1564,3,1,2591.2999999523163,222199.90000009537,7088,NNB,A,2
3,test,2,0.0,1-Back,1,m,Wed Apr 02 2025 08:50:50 GMT-0500 (Central Daylight Time),226605.5,058_m_m_n_a.png,O,m,787,4,1,1804.5999999046326,224800.90000009537,7088,NNB,A,3
4,test,2,0.0,1-Back,1,m,Wed Apr 02 2025 08:50:50 GMT-0500 (Central Daylight Time),228572.20000004768,041_y_m_n_a.png,O,m,933,5,1,1957.2999999523163,226614.90000009537,7088,NNB,A,4
5,test,2,0.0,1-Back,1,m,Wed Apr 02 2025 08:50:50 GMT-0500 (Central Daylight Time),230438.10000002384,063_y_f_n_a.png,O,m,833,6,1,1855.8999999761581,228582.20000004768,7088,NNB,A,5
6,test,2,1.0,1-Back,1,z,Wed Apr 02 2025 08:50:50 GMT-0500 (Central Daylight Time),232337.10000002384,063_y_f_n_a.png,O,z,875,7,1,1889.8999999761581,230447.20000004768,7088,NNB,A,6
7,test,2,0.0,1-Back,1,m,Wed Apr 02 2025 08:50:50 GMT-0500 (Central Daylight Time),234404.80000007153,041_y_m_n_a.png,O,m,1049,8,1,2059.0,232345.80000007153,7088,NNB,A,7
8,test,2,0.0,1-Back,1,m,Wed Apr 02 2025 08:50:50 GMT-0500 (Central Daylight Time),236353.0,044_o_f_n_a.png,O,m,927,9,1,1938.5999999046326,234414.40000009537,7088,NNB,A,8
9,test,2,0.0,1-Back,1,m,Wed Apr 02 2025 08:50:50 GMT-0500 (Central Daylight Time),238402.80000007153,045_m_m_n_a.png,O,m,1025,10,1,2041.3999999761581,236361.40000009537,7088,NNB,A,9
10,test,2,1.0,1-Back,1,z,Wed Apr 02 2025 08:50:50 GMT-0500 (Central Daylight Time),240301.40000009537,045_m_m_n_a.png,O,z,871,11,1,1888.6000000238419,238412.80000007153,7088,NNB,A,10
11,test,2,0.0,1-Back,1,m,Wed Apr 02 2025 08:50:50 GMT-0500 (Central Daylight Time),242200.80000007153,044_o_f_n_a.png,O,m,866,12,1,1890.8999999761581,240309.90000009537,7088,NNB,A,11
12,test,2,0.0,1-Back,1,m,Wed Apr 02 2025 08:50:50 GMT-0500 (Central Daylight Time),244300.80000007153,047_o_f_n_a.png,O,m,1073,13,1,2090.899999976158,242209.90000009537,7088,NNB,A,12
13,test,2,0.0,1-Back,1,m,Wed Apr 02 2025 08:50:50 GMT-0500 (Central Daylight Time),246250.70000004768,053_o_m_n_a.png,O,m,932,14,1,1939.1000000238419,244311.60000002384,7088,NNB,A,13
14,test,2,0.0,1-Back,1,m,Wed Apr 02 2025 08:50:50 GMT-0500 (Central Daylight Time),248032.5,046_o_m_n_a.png,O,m,759,15,1,1772.2999999523163,246260.20000004768,7088,NNB,A,14
15,test,2,1.0,1-Back,1,z,Wed Apr 02 2025 08:50:50 GMT-0500 (Central Daylight Time),249964.40000009537,046_o_m_n_a.png,O,z,913,16,1,1921.7000000476837,248042.70000004768,7088,NNB,A,15
16,test,2,0.0,1-Back,1,m,Wed Apr 02 2025 08:50:50 GMT-0500 (Central Daylight Time),251847.20000004768,008_y_m_n_a.png,O,m,861,17,1,1873.6000000238419,249973.60000002384,7088,NNB,A,16
17,test,2,1.0,1-Back,1,z,Wed Apr 02 2025 08:50:50 GMT-0500 (Central Daylight Time),253613.90000009537,008_y_m_n_a.png,O,z,745,18,1,1756.9000000953674,251857.0,7088,NNB,A,17
0,test,3,1.0,1-Back,,,Wed Apr 02 2025 08:50:50 GMT-0500 (Central Daylight Time),253613.90000009537,010_y_f_n_a.png,O,space,2900,1,1,1756.9000000953674,251857.0,7088,NNB,A,0
1,test,3,0.0,1-Back,1,m,Wed Apr 02 2025 08:50:50 GMT-0500 (Central Daylight Time),260411.40000009537,046_o_m_n_a.png,O,m,805,2,1,1822.9000000953674,258588.5,7088,NNB,A,1
2,test,3,1.0,1-Back,1,z,Wed Apr 02 2025 08:50:50 GMT-0500 (Central Daylight Time),262111.80000007153,046_o_m_n_a.png,O,z,677,3,1,1690.8000000715256,260421.0,7088,NNB,A,2
3,test,3,0.0,1-Back,1,m,Wed Apr 02 2025 08:50:50 GMT-0500 (Central Daylight Time),263993.2000000477,050_m_f_n_a.png,O,m,848,4,1,1871.8999999761581,262121.30000007153,7088,NNB,A,3
4,test,3,1.0,1-Back,1,z,Wed Apr 02 2025 08:50:50 GMT-0500 (Central Daylight Time),265795.10000002384,050_m_f_n_a.png,O,z,783,5,1,1791.1999999284744,264003.90000009537,7088,NNB,A,4
5,test,3,0.0,1-Back,1,m,Wed Apr 02 2025 08:50:50 GMT-0500 (Central Daylight Time),267759.40000009537,044_o_f_n_a.png,O,m,933,6,1,1954.6000000238419,265804.8000000715,7088,NNB,A,5
6,test,3,0.0,1-Back,1,m,Wed Apr 02 2025 08:50:50 GMT-0500 (Central Daylight Time),269458.7000000477,041_y_m_n_a.png,O,m,672,7,1,1689.5,267769.2000000477,7088,NNB,A,6
7,test,3,0.0,1-Back,1,m,Wed Apr 02 2025 08:50:50 GMT-0500 (Central Daylight Time),271508.7000000477,044_o_f_n_a.png,O,m,1021,8,1,2040.6000000238419,269468.10000002384,7088,NNB,A,7
8,test,3,0.0,1-Back,1,m,Wed Apr 02 2025 08:50:50 GMT-0500 (Central Daylight Time),273341.40000009537,008_y_m_n_a.png,O,m,805,9,1,1823.8000000715256,271517.60000002384,7088,NNB,A,8
9,test,3,1.0,1-Back,1,z,Wed Apr 02 2025 08:50:50 GMT-0500 (Central Daylight Time),275191.90000009537,008_y_m_n_a.png,O,z,819,10,1,1841.5,273350.40000009537,7088,NNB,A,9
10,test,3,0.0,1-Back,1,m,Wed Apr 02 2025 08:50:50 GMT-0500 (Central Daylight Time),277038.60000002384,043_m_f_n_a.png,O,m,818,11,1,1838.0,275200.60000002384,7088,NNB,A,10
11,test,3,0.0,1-Back,1,m,Wed Apr 02 2025 08:50:50 GMT-0500 (Central Daylight Time),278887.90000009537,063_y_f_n_a.png,O,m,824,12,1,1839.8000000715256,277048.10000002384,7088,NNB,A,11
12,test,3,1.0,1-Back,1,z,Wed Apr 02 2025 08:50:50 GMT-0500 (Central Daylight Time),280972.60000002384,063_y_f_n_a.png,O,z,1054,13,1,2074.2999999523163,278898.3000000715,7088,NNB,A,12
13,test,3,0.0,1-Back,1,m,Wed Apr 02 2025 08:50:50 GMT-0500 (Central Daylight Time),282670.7000000477,043_m_f_n_a.png,O,m,677,14,1,1690.5,280980.2000000477,7088,NNB,A,13
14,test,3,0.0,1-Back,1,m,Wed Apr 02 2025 08:50:50 GMT-0500 (Central Daylight Time),284704.0,058_m_m_n_a.png,O,m,1001,15,1,2028.0999999046326,282675.90000009537,7088,NNB,A,14
15,test,3,1.0,1-Back,1,z,Wed Apr 02 2025 08:50:50 GMT-0500 (Central Daylight Time),286638.60000002384,058_m_m_n_a.png,O,z,916,16,1,1925.1000000238419,284713.5,7088,NNB,A,15
16,test,3,0.0,1-Back,1,m,Wed Apr 02 2025 08:50:50 GMT-0500 (Central Daylight Time),288470.0,047_o_f_n_a.png,O,m,799,17,1,1822.5999999046326,286647.40000009537,7088,NNB,A,16
17,test,3,1.0,1-Back,1,z,Wed Apr 02 2025 08:50:50 GMT-0500 (Central Daylight Time),290252.0,047_o_f_n_a.png,O,z,765,18,1,1773.6999999284744,288478.3000000715,7088,NNB,A,17
0,test,4,1.0,1-Back,,,Wed Apr 02 2025 08:50:50 GMT-0500 (Central Daylight Time),290252.0,050_m_f_n_a.png,O,space,1637,1,1,1773.6999999284744,288478.3000000715,7088,NNB,A,0
1,test,4,0.0,1-Back,1,m,Wed Apr 02 2025 08:50:50 GMT-0500 (Central Daylight Time),295584.0,046_o_m_n_a.png,O,m,636,2,1,1655.5999999046326,293928.40000009537,7088,NNB,A,1
2,test,4,0.0,1-Back,1,m,Wed Apr 02 2025 08:50:50 GMT-0500 (Central Daylight Time),297534.0,050_m_f_n_a.png,O,m,932,3,1,1940.5999999046326,295593.40000009537,7088,NNB,A,2
3,test,4,0.0,1-Back,1,m,Wed Apr 02 2025 08:50:50 GMT-0500 (Central Daylight Time),299416.10000002384,044_o_f_n_a.png,O,m,852,4,1,1873.0,297543.10000002384,7088,NNB,A,3
4,test,4,1.0,1-Back,1,z,Wed Apr 02 2025 08:50:50 GMT-0500 (Central Daylight Time),301231.2000000477,044_o_f_n_a.png,O,z,791,5,1,1805.5,299425.7000000477,7088,NNB,A,4
5,test,4,0.0,1-Back,1,m,Wed Apr 02 2025 08:50:50 GMT-0500 (Central Daylight Time),303414.0,063_y_f_n_a.png,O,m,1161,6,1,2174.5999999046326,301239.40000009537,7088,NNB,A,5
6,test,4,0.0,1-Back,1,m,Wed Apr 02 2025 08:50:50 GMT-0500 (Central Daylight Time),305098.0,041_y_m_n_a.png,O,m,651,7,1,1676.0999999046326,303421.90000009537,7088,NNB,A,6
7,test,4,1.0,1-Back,1,z,Wed Apr 02 2025 08:50:50 GMT-0500 (Central Daylight Time),306931.7000000477,041_y_m_n_a.png,O,z,799,8,1,1824.0,305107.7000000477,7088,NNB,A,7
8,test,4,0.0,1-Back,1,m,Wed Apr 02 2025 08:50:50 GMT-0500 (Central Daylight Time),308779.8000000715,063_y_f_n_a.png,O,m,832,9,1,1839.3999999761581,306940.40000009537,7088,NNB,A,8
9,test,4,0.0,1-Back,1,m,Wed Apr 02 2025 08:50:50 GMT-0500 (Central Daylight Time),310761.5,045_m_m_n_a.png,O,m,957,10,1,1972.7999999523163,308788.7000000477,7088,NNB,A,9
10,test,4,1.0,1-Back,1,z,Wed Apr 02 2025 08:50:50 GMT-0500 (Central Daylight Time),312512.60000002384,045_m_m_n_a.png,O,z,718,11,1,1741.1999999284744,310771.40000009537,7088,NNB,A,10
11,test,4,0.0,1-Back,1,m,Wed Apr 02 2025 08:50:50 GMT-0500 (Central Daylight Time),314213.10000002384,047_o_f_n_a.png,O,m,682,12,1,1691.8999999761581,312521.2000000477,7088,NNB,A,11
12,test,4,0.0,1-Back,1,m,Wed Apr 02 2025 08:50:50 GMT-0500 (Central Daylight Time),315909.40000009537,053_o_m_n_a.png,O,m,670,13,1,1688.5,314220.90000009537,7088,NNB,A,12
13,test,4,0.0,1-Back,1,m,Wed Apr 02 2025 08:50:50 GMT-0500 (Central Daylight Time),318192.8000000715,047_o_f_n_a.png,O,m,1260,14,1,2273.100000023842,315919.7000000477,7088,NNB,A,13
14,test,4,0.0,1-Back,1,m,Wed Apr 02 2025 08:50:50 GMT-0500 (Central Daylight Time),320076.3000000715,010_y_f_n_a.png,O,m,855,15,1,1873.8000000715256,318202.5,7088,NNB,A,14
15,test,4,1.0,1-Back,1,z,Wed Apr 02 2025 08:50:50 GMT-0500 (Central Daylight Time),321925.60000002384,010_y_f_n_a.png,O,z,821,16,1,1839.6000000238419,320086.0,7088,NNB,A,15
16,test,4,0.0,1-Back,1,m,Wed Apr 02 2025 08:50:50 GMT-0500 (Central Daylight Time),323640.8000000715,043_m_f_n_a.png,O,m,692,17,1,1706.3999999761581,321934.40000009537,7088,NNB,A,16
16,test,4,1.0,1-Back,0,z,Wed Apr 02 2025 08:50:50 GMT-0500 (Central Daylight Time),325940.60000002384,043_m_f_n_a.png,O,m,1272,18,1,2291.0,323649.60000002384,7088,NNB,A,17
0,test,5,1.0,1-Back,,,Wed Apr 02 2025 08:50:50 GMT-0500 (Central Daylight Time),325940.60000002384,053_o_m_n_a.png,O,space,2230,1,1,2291.0,323649.60000002384,7088,NNB,A,0
1,test,5,1.0,1-Back,1,z,Wed Apr 02 2025 08:50:50 GMT-0500 (Central Daylight Time),332087.60000002384,053_o_m_n_a.png,O,z,868,2,1,1888.5,330199.10000002384,7088,NNB,A,1
2,test,5,0.0,1-Back,1,m,Wed Apr 02 2025 08:50:50 GMT-0500 (Central Daylight Time),333955.2000000477,063_y_f_n_a.png,O,m,840,3,1,1862.8999999761581,332092.3000000715,7088,NNB,A,2
3,test,5,0.0,1-Back,1,m,Wed Apr 02 2025 08:50:50 GMT-0500 (Central Daylight Time),335739.90000009537,041_y_m_n_a.png,O,m,761,4,1,1775.6000000238419,333964.3000000715,7088,NNB,A,3
4,test,5,0.0,1-Back,1,m,Wed Apr 02 2025 08:50:50 GMT-0500 (Central Daylight Time),337487.5,063_y_f_n_a.png,O,m,727,5,1,1738.6999999284744,335748.8000000715,7088,NNB,A,4
5,test,5,0.0,1-Back,1,m,Wed Apr 02 2025 08:50:50 GMT-0500 (Central Daylight Time),339204.3000000715,058_m_m_n_a.png,O,m,700,6,1,1707.3999999761581,337496.90000009537,7088,NNB,A,5
6,test,5,1.0,1-Back,1,z,Wed Apr 02 2025 08:50:50 GMT-0500 (Central Daylight Time),341153.40000009537,058_m_m_n_a.png,O,z,926,7,1,1939.1000000238419,339214.3000000715,7088,NNB,A,6
7,test,5,0.0,1-Back,1,m,Wed Apr 02 2025 08:50:50 GMT-0500 (Central Daylight Time),342803.0,010_y_f_n_a.png,O,m,632,8,1,1638.2999999523163,341164.7000000477,7088,NNB,A,7
8,test,5,0.0,1-Back,1,m,Wed Apr 02 2025 08:50:50 GMT-0500 (Central Daylight Time),344602.60000002384,008_y_m_n_a.png,O,m,765,9,1,1791.1999999284744,342811.40000009537,7088,NNB,A,8
9,test,5,0.0,1-Back,1,m,Wed Apr 02 2025 08:50:50 GMT-0500 (Central Daylight Time),346468.8000000715,010_y_f_n_a.png,O,m,848,10,1,1856.6000000238419,344612.2000000477,7088,NNB,A,9
10,test,5,0.0,1-Back,1,m,Wed Apr 02 2025 08:50:50 GMT-0500 (Central Daylight Time),348184.0,047_o_f_n_a.png,O,m,685,11,1,1706.6999999284744,346477.3000000715,7088,NNB,A,10
11,test,5,1.0,1-Back,1,z,Wed Apr 02 2025 08:50:50 GMT-0500 (Central Daylight Time),349982.90000009537,047_o_f_n_a.png,O,z,777,12,1,1787.7000000476837,348195.2000000477,7088,NNB,A,11
12,test,5,0.0,1-Back,1,m,Wed Apr 02 2025 08:50:50 GMT-0500 (Central Daylight Time),351616.0,046_o_m_n_a.png,O,m,609,13,1,1623.1999999284744,349992.8000000715,7088,NNB,A,12
13,test,5,0.0,1-Back,1,m,Wed Apr 02 2025 08:50:50 GMT-0500 (Central Daylight Time),353331.60000002384,050_m_f_n_a.png,O,m,696,14,1,1710.3999999761581,351621.2000000477,7088,NNB,A,13
14,test,5,1.0,1-Back,1,z,Wed Apr 02 2025 08:50:50 GMT-0500 (Central Daylight Time),355098.7000000477,050_m_f_n_a.png,O,z,742,15,1,1755.8999999761581,353342.8000000715,7088,NNB,A,14
15,test,5,0.0,1-Back,1,m,Wed Apr 02 2025 08:50:50 GMT-0500 (Central Daylight Time),356765.3000000715,046_o_m_n_a.png,O,m,638,16,1,1657.3000000715256,355108.0,7088,NNB,A,15
16,test,5,0.0,1-Back,1,m,Wed Apr 02 2025 08:50:50 GMT-0500 (Central Daylight Time),358551.90000009537,043_m_f_n_a.png,O,m,771,17,1,1774.6000000238419,356777.3000000715,7088,NNB,A,16
17,test,5,0.0,1-Back,1,m,Wed Apr 02 2025 08:50:50 GMT-0500 (Central Daylight Time),360312.60000002384,045_m_m_n_a.png,O,m,740,18,1,1755.7999999523163,358556.8000000715,7088,NNB,A,17
0,prac,1,0.0,2-Back,,,Wed Apr 02 2025 08:50:50 GMT-0500 (Central Daylight Time),360312.60000002384,008_y_m_n_a.png,O,space,9711,1,1,1755.7999999523163,358556.8000000715,7088,NNB,A,0
0,prac,1,0.0,2-Back,,,Wed Apr 02 2025 08:50:50 GMT-0500 (Central Daylight Time),360312.60000002384,043_m_f_n_a.png,O,space,9711,2,1,1755.7999999523163,358556.8000000715,7088,NNB,A,0
1,prac,1,1.0,2-Back,1,m,Wed Apr 02 2025 08:50:50 GMT-0500 (Central Daylight Time),483491.5,046_o_m_n_a.png,O,m,1268,3,1,2050.7999999523163,481440.7000000477,7088,NNB,A,1
1,prac,1,0.0,2-Back,0,m,Wed Apr 02 2025 08:50:50 GMT-0500 (Central Daylight Time),486324.90000009537,047_o_f_n_a.png,O,None,2007,4,1,2823.8000000715256,483501.10000002384,7088,NNB,A,2
1,prac,1,0.0,2-Back,0,z,Wed Apr 02 2025 08:50:50 GMT-0500 (Central Daylight Time),489105.8000000715,046_o_m_n_a.png,O,None,2007,5,1,2773.899999976158,486331.90000009537,7088,NNB,A,3
1,prac,1,1.0,2-Back,0,z,Wed Apr 02 2025 08:50:50 GMT-0500 (Central Daylight Time),491205.90000009537,047_o_f_n_a.png,O,m,1318,6,1,2090.3000000715256,489115.60000002384,7088,NNB,A,4
2,prac,1,0.0,2-Back,1,m,Wed Apr 02 2025 08:50:50 GMT-0500 (Central Daylight Time),493337.2000000477,045_m_m_n_a.png,O,m,1325,7,1,2119.899999976158,491217.3000000715,7088,NNB,A,5
3,prac,1,0.0,2-Back,1,m,Wed Apr 02 2025 08:50:50 GMT-0500 (Central Daylight Time),495238.40000009537,053_o_m_n_a.png,O,m,1099,8,1,1891.9000000953674,493346.5,7088,NNB,A,6
4,prac,1,0.0,2-Back,1,m,Wed Apr 02 2025 08:50:50 GMT-0500 (Central Daylight Time),497253.60000002384,010_y_f_n_a.png,O,m,1187,9,1,2005.3999999761581,495248.2000000477,7088,NNB,A,7
5,prac,1,1.0,2-Back,1,z,Wed Apr 02 2025 08:50:50 GMT-0500 (Central Daylight Time),498986.90000009537,053_o_m_n_a.png,O,z,962,10,1,1723.0,497263.90000009537,7088,NNB,A,8
6,prac,1,0.0,2-Back,1,m,Wed Apr 02 2025 08:50:50 GMT-0500 (Central Daylight Time),501285.8000000715,063_y_f_n_a.png,O,m,1482,11,1,2289.0,498996.8000000715,7088,NNB,A,9
6,prac,1,0.0,2-Back,0,m,Wed Apr 02 2025 08:50:50 GMT-0500 (Central Daylight Time),503436.10000002384,045_m_m_n_a.png,O,z,1385,12,1,2140.899999976158,501295.2000000477,7088,NNB,A,10
0,prac,2,0.0,2-Back,,,Wed Apr 02 2025 08:50:50 GMT-0500 (Central Daylight Time),503436.10000002384,008_y_m_n_a.png,O,a,4546,1,1,2140.899999976158,501295.2000000477,7088,NNB,A,0
0,prac,2,0.0,2-Back,,,Wed Apr 02 2025 08:50:50 GMT-0500 (Central Daylight Time),503436.10000002384,043_m_f_n_a.png,O,a,4546,2,1,2140.899999976158,501295.2000000477,7088,NNB,A,0
1,prac,2,1.0,2-Back,1,m,Wed Apr 02 2025 08:50:50 GMT-0500 (Central Daylight Time),514814.5,046_o_m_n_a.png,O,m,921,3,1,1701.5,513113.0,7088,NNB,A,1
2,prac,2,0.0,2-Back,1,m,Wed Apr 02 2025 08:50:50 GMT-0500 (Central Daylight Time),516996.0,047_o_f_n_a.png,O,m,1401,4,1,2171.1999999284744,514824.8000000715,7088,NNB,A,2
3,prac,2,0.0,2-Back,1,z,Wed Apr 02 2025 08:50:50 GMT-0500 (Central Daylight Time),518846.5,046_o_m_n_a.png,O,z,1060,5,1,1840.3999999761581,517006.10000002384,7088,NNB,A,3
4,prac,2,1.0,2-Back,1,z,Wed Apr 02 2025 08:50:50 GMT-0500 (Central Daylight Time),521110.8000000715,047_o_f_n_a.png,O,z,1482,6,1,2253.899999976158,518856.90000009537,7088,NNB,A,4
5,prac,2,0.0,2-Back,1,m,Wed Apr 02 2025 08:50:50 GMT-0500 (Central Daylight Time),523128.40000009537,045_m_m_n_a.png,O,m,1239,7,1,2006.0,521122.40000009537,7088,NNB,A,5
6,prac,2,0.0,2-Back,1,m,Wed Apr 02 2025 08:50:50 GMT-0500 (Central Daylight Time),525343.6000000238,053_o_m_n_a.png,O,m,1424,8,1,2206.399999976158,523137.2000000477,7088,NNB,A,6
7,prac,2,0.0,2-Back,1,m,Wed Apr 02 2025 08:50:50 GMT-0500 (Central Daylight Time),527360.6000000238,010_y_f_n_a.png,O,m,1248,9,1,2007.5,525353.1000000238,7088,NNB,A,7
8,prac,2,1.0,2-Back,1,z,Wed Apr 02 2025 08:50:50 GMT-0500 (Central Daylight Time),529209.9000000954,053_o_m_n_a.png,O,z,1072,10,1,1838.3000000715256,527371.6000000238,7088,NNB,A,8
8,prac,2,0.0,2-Back,0,m,Wed Apr 02 2025 08:50:50 GMT-0500 (Central Daylight Time),531492.8000000715,063_y_f_n_a.png,O,z,1494,11,1,2273.0,529219.8000000715,7088,NNB,A,9
9,prac,2,0.0,2-Back,1,m,Wed Apr 02 2025 08:50:50 GMT-0500 (Central Daylight Time),533507.4000000954,045_m_m_n_a.png,O,m,1227,12,1,2004.6000000238419,531502.8000000715,7088,NNB,A,10
0,test,1,0.0,2-Back,,,Wed Apr 02 2025 08:50:50 GMT-0500 (Central Daylight Time),533507.4000000954,041_y_m_n_a.png,O,space,5767,1,1,2004.6000000238419,531502.8000000715,7088,NNB,A,0
0,test,1,0.0,2-Back,,,Wed Apr 02 2025 08:50:50 GMT-0500 (Central Daylight Time),533507.4000000954,041_y_m_n_a.png,O,space,5767,2,1,2004.6000000238419,531502.8000000715,7088,NNB,A,0
1,test,1,0.0,2-Back,1,m,Wed Apr 02 2025 08:50:50 GMT-0500 (Central Daylight Time),552269.4000000954,047_o_f_n_a.png,O,m,1003,3,1,2022.0,550247.4000000954,7088,NNB,A,1
2,test,1,0.0,2-Back,1,m,Wed Apr 02 2025 08:50:50 GMT-0500 (Central Daylight Time),554218.7000000477,058_m_m_n_a.png,O,m,925,4,1,1940.2999999523163,552278.4000000954,7088,NNB,A,2
3,test,1,1.0,2-Back,1,z,Wed Apr 02 2025 08:50:50 GMT-0500 (Central Daylight Time),556251.3000000715,047_o_f_n_a.png,O,z,1006,5,1,2021.0,554230.3000000715,7088,NNB,A,3
4,test,1,0.0,2-Back,1,m,Wed Apr 02 2025 08:50:50 GMT-0500 (Central Daylight Time),558435.0,063_y_f_n_a.png,O,m,1167,6,1,2173.1999999284744,556261.8000000715,7088,NNB,A,4
4,test,1,0.0,2-Back,0,m,Wed Apr 02 2025 08:50:50 GMT-0500 (Central Daylight Time),560599.2000000477,058_m_m_n_a.png,O,z,1142,7,1,2153.0,558446.2000000477,7088,NNB,A,5
5,test,1,1.0,2-Back,1,z,Wed Apr 02 2025 08:50:50 GMT-0500 (Central Daylight Time),562848.9000000954,063_y_f_n_a.png,O,z,1225,8,1,2239.4000000953674,560609.5,7088,NNB,A,6
6,test,1,0.0,2-Back,1,m,Wed Apr 02 2025 08:50:50 GMT-0500 (Central Daylight Time),564881.9000000954,008_y_m_n_a.png,O,m,1015,9,1,2023.4000000953674,562858.5,7088,NNB,A,7
7,test,1,0.0,2-Back,1,m,Wed Apr 02 2025 08:50:50 GMT-0500 (Central Daylight Time),567281.5,044_o_f_n_a.png,O,m,1365,10,1,2390.5,564891.0,7088,NNB,A,8
8,test,1,1.0,2-Back,1,z,Wed Apr 02 2025 08:50:50 GMT-0500 (Central Daylight Time),569163.6000000238,008_y_m_n_a.png,O,z,856,11,1,1872.6999999284744,567290.9000000954,7088,NNB,A,9
9,test,1,0.0,2-Back,1,m,Wed Apr 02 2025 08:50:50 GMT-0500 (Central Daylight Time),571245.1000000238,043_m_f_n_a.png,O,m,1058,12,1,2071.0,569174.1000000238,7088,NNB,A,10
9,test,1,0.0,2-Back,0,m,Wed Apr 02 2025 08:50:50 GMT-0500 (Central Daylight Time),574278.7000000477,043_m_f_n_a.png,O,None,2014,13,1,3024.2999999523163,571254.4000000954,7088,NNB,A,11
10,test,1,0.0,2-Back,1,m,Wed Apr 02 2025 08:50:50 GMT-0500 (Central Daylight Time),576094.5,046_o_m_n_a.png,O,m,785,14,1,1805.5,574289.0,7088,NNB,A,12
11,test,1,0.0,2-Back,1,m,Wed Apr 02 2025 08:50:50 GMT-0500 (Central Daylight Time),578028.2000000477,044_o_f_n_a.png,O,m,917,15,1,1923.5,576104.7000000477,7088,NNB,A,13
12,test,1,1.0,2-Back,1,z,Wed Apr 02 2025 08:50:50 GMT-0500 (Central Daylight Time),580210.3000000715,046_o_m_n_a.png,O,z,1159,16,1,2170.399999976158,578039.9000000954,7088,NNB,A,14
13,test,1,0.0,2-Back,1,m,Wed Apr 02 2025 08:50:50 GMT-0500 (Central Daylight Time),582292.1000000238,050_m_f_n_a.png,O,m,1064,17,1,2071.899999976158,580220.2000000477,7088,NNB,A,15
14,test,1,0.0,2-Back,1,m,Wed Apr 02 2025 08:50:50 GMT-0500 (Central Daylight Time),584208.0,045_m_m_n_a.png,O,m,893,18,1,1905.2999999523163,582302.7000000477,7088,NNB,A,16
0,test,2,0.0,2-Back,,,Wed Apr 02 2025 08:50:50 GMT-0500 (Central Daylight Time),584208.0,045_m_m_n_a.png,O,space,2506,1,1,1905.2999999523163,582302.7000000477,7088,NNB,A,0
0,test,2,0.0,2-Back,,,Wed Apr 02 2025 08:50:50 GMT-0500 (Central Daylight Time),584208.0,010_y_f_n_a.png,O,space,2506,2,1,1905.2999999523163,582302.7000000477,7088,NNB,A,0
1,test,2,1.0,2-Back,1,z,Wed Apr 02 2025 08:50:50 GMT-0500 (Central Daylight Time),593742.4000000954,045_m_m_n_a.png,O,z,902,3,1,1908.0,591834.4000000954,7088,NNB,A,1
2,test,2,0.0,2-Back,1,m,Wed Apr 02 2025 08:50:50 GMT-0500 (Central Daylight Time),595638.6000000238,050_m_f_n_a.png,O,m,877,4,1,1891.3999999761581,593747.2000000477,7088,NNB,A,2
2,test,2,0.0,2-Back,0,m,Wed Apr 02 2025 08:50:50 GMT-0500 (Central Daylight Time),597921.1000000238,010_y_f_n_a.png,O,z,1259,5,1,2272.399999976158,595648.7000000477,7088,NNB,A,3
3,test,2,0.0,2-Back,1,m,Wed Apr 02 2025 08:50:50 GMT-0500 (Central Daylight Time),599670.9000000954,046_o_m_n_a.png,O,m,720,6,1,1740.2000000476837,597930.7000000477,7088,NNB,A,4
4,test,2,0.0,2-Back,1,m,Wed Apr 02 2025 08:50:50 GMT-0500 (Central Daylight Time),602402.5,063_y_f_n_a.png,O,m,1708,7,1,2721.6999999284744,599680.8000000715,7088,NNB,A,5
5,test,2,1.0,2-Back,1,z,Wed Apr 02 2025 08:50:50 GMT-0500 (Central Daylight Time),604402.4000000954,046_o_m_n_a.png,O,z,975,8,1,1989.8000000715256,602412.6000000238,7088,NNB,A,6
6,test,2,0.0,2-Back,1,m,Wed Apr 02 2025 08:50:50 GMT-0500 (Central Daylight Time),606299.8000000715,008_y_m_n_a.png,O,m,878,9,1,1887.3999999761581,604412.4000000954,7088,NNB,A,7
7,test,2,0.0,2-Back,1,m,Wed Apr 02 2025 08:50:50 GMT-0500 (Central Daylight Time),608683.7000000477,008_y_m_n_a.png,O,m,1355,10,1,2374.899999976158,606308.8000000715,7088,NNB,A,8
8,test,2,0.0,2-Back,1,m,Wed Apr 02 2025 08:50:50 GMT-0500 (Central Daylight Time),610883.6000000238,043_m_f_n_a.png,O,m,1174,11,1,2190.0,608693.6000000238,7088,NNB,A,9
8,test,2,0.0,2-Back,0,m,Wed Apr 02 2025 08:50:50 GMT-0500 (Central Daylight Time),612933.9000000954,010_y_f_n_a.png,O,z,1033,12,1,2040.3000000715256,610893.6000000238,7088,NNB,A,10
9,test,2,1.0,2-Back,1,z,Wed Apr 02 2025 08:50:50 GMT-0500 (Central Daylight Time),615666.5,043_m_f_n_a.png,O,z,1715,13,1,2722.2999999523163,612944.2000000477,7088,NNB,A,11
10,test,2,0.0,2-Back,1,m,Wed Apr 02 2025 08:50:50 GMT-0500 (Central Daylight Time),617451.1000000238,053_o_m_n_a.png,O,m,769,14,1,1774.2999999523163,615676.8000000715,7088,NNB,A,12
11,test,2,0.0,2-Back,1,m,Wed Apr 02 2025 08:50:50 GMT-0500 (Central Daylight Time),619831.2000000477,053_o_m_n_a.png,O,m,1351,15,1,2374.7000000476837,617456.5,7088,NNB,A,13
12,test,2,0.0,2-Back,1,m,Wed Apr 02 2025 08:50:50 GMT-0500 (Central Daylight Time),621997.0,044_o_f_n_a.png,O,m,1149,16,1,2156.6999999284744,619840.3000000715,7088,NNB,A,14
13,test,2,0.0,2-Back,1,m,Wed Apr 02 2025 08:50:50 GMT-0500 (Central Daylight Time),623780.7000000477,058_m_m_n_a.png,O,m,766,17,1,1774.6000000238419,622006.1000000238,7088,NNB,A,15
14,test,2,1.0,2-Back,1,z,Wed Apr 02 2025 08:50:50 GMT-0500 (Central Daylight Time),626027.1000000238,044_o_f_n_a.png,O,z,1230,18,1,2238.2999999523163,623788.8000000715,7088,NNB,A,16
0,test,3,1.0,2-Back,,,Wed Apr 02 2025 08:50:50 GMT-0500 (Central Daylight Time),626027.1000000238,041_y_m_n_a.png,O,space,1926,1,1,2238.2999999523163,623788.8000000715,7088,NNB,A,0
0,test,3,1.0,2-Back,,,Wed Apr 02 2025 08:50:50 GMT-0500 (Central Daylight Time),626027.1000000238,041_y_m_n_a.png,O,space,1926,2,1,2238.2999999523163,623788.8000000715,7088,NNB,A,0
1,test,3,0.0,2-Back,1,m,Wed Apr 02 2025 08:50:50 GMT-0500 (Central Daylight Time),634974.8000000715,044_o_f_n_a.png,O,m,902,3,1,1920.5,633054.3000000715,7088,NNB,A,1
2,test,3,0.0,2-Back,1,m,Wed Apr 02 2025 08:50:50 GMT-0500 (Central Daylight Time),636810.6000000238,045_m_m_n_a.png,O,m,816,4,1,1825.3999999761581,634985.2000000477,7088,NNB,A,2
3,test,3,1.0,2-Back,1,z,Wed Apr 02 2025 08:50:50 GMT-0500 (Central Daylight Time),638642.6000000238,044_o_f_n_a.png,O,z,816,5,1,1821.7999999523163,636820.8000000715,7088,NNB,A,3
4,test,3,0.0,2-Back,1,m,Wed Apr 02 2025 08:50:50 GMT-0500 (Central Daylight Time),640556.7000000477,008_y_m_n_a.png,O,m,883,6,1,1906.7000000476837,638650.0,7088,NNB,A,4
4,test,3,0.0,2-Back,0,m,Wed Apr 02 2025 08:50:50 GMT-0500 (Central Daylight Time),642638.5,045_m_m_n_a.png,O,z,1050,7,1,2073.2999999523163,640565.2000000477,7088,NNB,A,5
4,test,3,1.0,2-Back,0,z,Wed Apr 02 2025 08:50:50 GMT-0500 (Central Daylight Time),644955.5,008_y_m_n_a.png,O,m,1287,8,1,2307.5999999046326,642647.9000000954,7088,NNB,A,6
5,test,3,0.0,2-Back,1,m,Wed Apr 02 2025 08:50:50 GMT-0500 (Central Daylight Time),646871.5,010_y_f_n_a.png,O,m,884,9,1,1906.6999999284744,644964.8000000715,7088,NNB,A,7
6,test,3,0.0,2-Back,1,m,Wed Apr 02 2025 08:50:50 GMT-0500 (Central Daylight Time),648821.4000000954,058_m_m_n_a.png,O,m,928,10,1,1941.3000000715256,646880.1000000238,7088,NNB,A,8
7,test,3,1.0,2-Back,1,z,Wed Apr 02 2025 08:50:50 GMT-0500 (Central Daylight Time),650721.5,010_y_f_n_a.png,O,z,875,11,1,1891.0,648830.5,7088,NNB,A,9
8,test,3,1.0,2-Back,1,z,Wed Apr 02 2025 08:50:50 GMT-0500 (Central Daylight Time),653136.1000000238,058_m_m_n_a.png,O,z,1391,12,1,2405.0,650731.1000000238,7088,NNB,A,10
9,test,3,0.0,2-Back,1,m,Wed Apr 02 2025 08:50:50 GMT-0500 (Central Daylight Time),655086.3000000715,044_o_f_n_a.png,O,m,926,13,1,1941.7000000476837,653144.6000000238,7088,NNB,A,11
10,test,3,0.0,2-Back,1,m,Wed Apr 02 2025 08:50:50 GMT-0500 (Central Daylight Time),657019.8000000715,050_m_f_n_a.png,O,m,917,14,1,1924.8999999761581,655094.9000000954,7088,NNB,A,12
11,test,3,0.0,2-Back,1,m,Wed Apr 02 2025 08:50:50 GMT-0500 (Central Daylight Time),658951.2000000477,046_o_m_n_a.png,O,m,901,15,1,1922.3999999761581,657028.8000000715,7088,NNB,A,13
12,test,3,1.0,2-Back,1,z,Wed Apr 02 2025 08:50:50 GMT-0500 (Central Daylight Time),660918.1000000238,050_m_f_n_a.png,O,z,948,16,1,1957.6000000238419,658960.5,7088,NNB,A,14
13,test,3,0.0,2-Back,1,m,Wed Apr 02 2025 08:50:50 GMT-0500 (Central Daylight Time),662934.3000000715,047_o_f_n_a.png,O,m,987,17,1,2006.8000000715256,660927.5,7088,NNB,A,15
14,test,3,0.0,2-Back,1,m,Wed Apr 02 2025 08:50:50 GMT-0500 (Central Daylight Time),665232.9000000954,047_o_f_n_a.png,O,m,1266,18,1,2290.8000000715256,662942.1000000238,7088,NNB,A,16
0,test,4,0.0,2-Back,,,Wed Apr 02 2025 08:50:50 GMT-0500 (Central Daylight Time),665232.9000000954,053_o_m_n_a.png,O,space,1641,1,1,2290.8000000715256,662942.1000000238,7088,NNB,A,0
0,test,4,0.0,2-Back,,,Wed Apr 02 2025 08:50:50 GMT-0500 (Central Daylight Time),665232.9000000954,063_y_f_n_a.png,O,space,1641,2,1,2290.8000000715256,662942.1000000238,7088,NNB,A,0
1,test,4,1.0,2-Back,1,z,Wed Apr 02 2025 08:50:50 GMT-0500 (Central Daylight Time),674013.7000000477,053_o_m_n_a.png,O,z,1004,3,1,2022.1000000238419,671991.6000000238,7088,NNB,A,1
2,test,4,1.0,2-Back,1,z,Wed Apr 02 2025 08:50:50 GMT-0500 (Central Daylight Time),676262.9000000954,063_y_f_n_a.png,O,z,1220,4,1,2240.2000000476837,674022.7000000477,7088,NNB,A,2
3,test,4,0.0,2-Back,1,m,Wed Apr 02 2025 08:50:50 GMT-0500 (Central Daylight Time),678361.9000000954,044_o_f_n_a.png,O,m,1083,5,1,2089.8000000715256,676272.1000000238,7088,NNB,A,3
4,test,4,0.0,2-Back,1,m,Wed Apr 02 2025 08:50:50 GMT-0500 (Central Daylight Time),680677.8000000715,044_o_f_n_a.png,O,m,1294,6,1,2306.899999976158,678370.9000000954,7088,NNB,A,4
5,test,4,0.0,2-Back,1,m,Wed Apr 02 2025 08:50:50 GMT-0500 (Central Daylight Time),682726.4000000954,043_m_f_n_a.png,O,m,1026,7,1,2039.5,680686.9000000954,7088,NNB,A,5
6,test,4,0.0,2-Back,1,m,Wed Apr 02 2025 08:50:50 GMT-0500 (Central Daylight Time),684659.5,008_y_m_n_a.png,O,m,907,8,1,1922.7999999523163,682736.7000000477,7088,NNB,A,6
7,test,4,1.0,2-Back,1,z,Wed Apr 02 2025 08:50:50 GMT-0500 (Central Daylight Time),686642.7000000477,043_m_f_n_a.png,O,z,965,9,1,1974.0,684668.7000000477,7088,NNB,A,7
8,test,4,0.0,2-Back,1,m,Wed Apr 02 2025 08:50:50 GMT-0500 (Central Daylight Time),688575.5,058_m_m_n_a.png,O,m,903,10,1,1923.2999999523163,686652.2000000477,7088,NNB,A,8
8,test,4,0.0,2-Back,0,m,Wed Apr 02 2025 08:50:50 GMT-0500 (Central Daylight Time),690675.6000000238,008_y_m_n_a.png,O,z,1083,11,1,2089.899999976158,688585.7000000477,7088,NNB,A,9
9,test,4,0.0,2-Back,1,m,Wed Apr 02 2025 08:50:50 GMT-0500 (Central Daylight Time),692925.1000000238,047_o_f_n_a.png,O,m,1233,12,1,2241.1999999284744,690683.9000000954,7088,NNB,A,10
10,test,4,0.0,2-Back,1,m,Wed Apr 02 2025 08:50:50 GMT-0500 (Central Daylight Time),695106.9000000954,041_y_m_n_a.png,O,m,1149,13,1,2172.0,692934.9000000954,7088,NNB,A,11
11,test,4,1.0,2-Back,1,z,Wed Apr 02 2025 08:50:50 GMT-0500 (Central Daylight Time),697056.3000000715,047_o_f_n_a.png,O,z,927,14,1,1939.8999999761581,695116.4000000954,7088,NNB,A,12
12,test,4,1.0,2-Back,1,z,Wed Apr 02 2025 08:50:50 GMT-0500 (Central Daylight Time),699639.0,041_y_m_n_a.png,O,z,1553,15,1,2574.2999999523163,697064.7000000477,7088,NNB,A,13
13,test,4,0.0,2-Back,1,m,Wed Apr 02 2025 08:50:50 GMT-0500 (Central Daylight Time),701554.4000000954,045_m_m_n_a.png,O,m,882,16,1,1905.4000000953674,699649.0,7088,NNB,A,14
14,test,4,0.0,2-Back,1,m,Wed Apr 02 2025 08:50:50 GMT-0500 (Central Daylight Time),703837.1000000238,050_m_f_n_a.png,O,m,1255,17,1,2271.1999999284744,701565.9000000954,7088,NNB,A,15
15,test,4,1.0,2-Back,1,z,Wed Apr 02 2025 08:50:50 GMT-0500 (Central Daylight Time),705769.8000000715,045_m_m_n_a.png,O,z,908,18,1,1922.7000000476837,703847.1000000238,7088,NNB,A,16
0,test,5,1.0,2-Back,,,Wed Apr 02 2025 08:50:50 GMT-0500 (Central Daylight Time),705769.8000000715,041_y_m_n_a.png,O,space,1327,1,1,1922.7000000476837,703847.1000000238,7088,NNB,A,0
0,test,5,1.0,2-Back,,,Wed Apr 02 2025 08:50:50 GMT-0500 (Central Daylight Time),705769.8000000715,050_m_f_n_a.png,O,space,1327,2,1,1922.7000000476837,703847.1000000238,7088,NNB,A,0
1,test,5,1.0,2-Back,1,z,Wed Apr 02 2025 08:50:50 GMT-0500 (Central Daylight Time),714067.0,041_y_m_n_a.png,O,z,898,3,1,1906.0999999046326,712160.9000000954,7088,NNB,A,1
1,test,5,1.0,2-Back,0,z,Wed Apr 02 2025 08:50:50 GMT-0500 (Central Daylight Time),715885.2000000477,050_m_f_n_a.png,O,m,800,4,1,1806.5,714078.7000000477,7088,NNB,A,2
2,test,5,0.0,2-Back,1,m,Wed Apr 02 2025 08:50:50 GMT-0500 (Central Daylight Time),717781.6000000238,047_o_f_n_a.png,O,m,877,5,1,1890.3999999761581,715891.2000000477,7088,NNB,A,3
3,test,5,0.0,2-Back,1,m,Wed Apr 02 2025 08:50:50 GMT-0500 (Central Daylight Time),720099.8000000715,041_y_m_n_a.png,O,m,1300,6,1,2306.600000023842,717793.2000000477,7088,NNB,A,4
4,test,5,0.0,2-Back,1,m,Wed Apr 02 2025 08:50:50 GMT-0500 (Central Daylight Time),722114.6000000238,010_y_f_n_a.png,O,m,999,7,1,2005.3999999761581,720109.2000000477,7088,NNB,A,5
4,test,5,0.0,2-Back,0,m,Wed Apr 02 2025 08:50:50 GMT-0500 (Central Daylight Time),724179.0,047_o_f_n_a.png,O,z,1037,8,1,2056.899999976158,722122.1000000238,7088,NNB,A,6
5,test,5,1.0,2-Back,1,z,Wed Apr 02 2025 08:50:50 GMT-0500 (Central Daylight Time),726379.4000000954,010_y_f_n_a.png,O,z,1179,9,1,2195.5,724183.9000000954,7088,NNB,A,7
6,test,5,0.0,2-Back,1,m,Wed Apr 02 2025 08:50:50 GMT-0500 (Central Daylight Time),728331.8000000715,046_o_m_n_a.png,O,m,934,10,1,1944.8000000715256,726387.0,7088,NNB,A,8
7,test,5,0.0,2-Back,1,m,Wed Apr 02 2025 08:50:50 GMT-0500 (Central Daylight Time),730475.9000000954,043_m_f_n_a.png,O,m,1119,11,1,2134.9000000953674,728341.0,7088,NNB,A,9
8,test,5,0.0,2-Back,1,m,Wed Apr 02 2025 08:50:50 GMT-0500 (Central Daylight Time),732412.5,058_m_m_n_a.png,O,m,918,12,1,1930.3999999761581,730482.1000000238,7088,NNB,A,10
9,test,5,0.0,2-Back,1,m,Wed Apr 02 2025 08:50:50 GMT-0500 (Central Daylight Time),735008.4000000954,046_o_m_n_a.png,O,m,1571,13,1,2586.600000023842,732421.8000000715,7088,NNB,A,11
10,test,5,1.0,2-Back,1,z,Wed Apr 02 2025 08:50:50 GMT-0500 (Central Daylight Time),737109.3000000715,058_m_m_n_a.png,O,z,1079,14,1,2091.2000000476837,735018.1000000238,7088,NNB,A,12
11,test,5,0.0,2-Back,1,m,Wed Apr 02 2025 08:50:50 GMT-0500 (Central Daylight Time),739375.8000000715,063_y_f_n_a.png,O,m,1243,15,1,2257.2000000476837,737118.6000000238,7088,NNB,A,13
12,test,5,0.0,2-Back,1,m,Wed Apr 02 2025 08:50:50 GMT-0500 (Central Daylight Time),741475.2000000477,053_o_m_n_a.png,O,m,1072,16,1,2089.100000023842,739386.1000000238,7088,NNB,A,14
13,test,5,0.0,2-Back,1,m,Wed Apr 02 2025 08:50:50 GMT-0500 (Central Daylight Time),743340.9000000954,043_m_f_n_a.png,O,m,845,17,1,1855.7000000476837,741485.2000000477,7088,NNB,A,15
14,test,5,1.0,2-Back,1,z,Wed Apr 02 2025 08:50:50 GMT-0500 (Central Daylight Time),746174.4000000954,053_o_m_n_a.png,O,z,1800,18,1,2825.100000023842,743349.3000000715,7088,NNB,A,16
