acc_sum,block,block_c,change,condition,correct,correct_response,datetime,endtime,face,project,response,response_time,row_sel,session_number,start_end,starttime,subject_id,task,task_vers,trial
0,prac,1,,1-Back,,,Thu Feb 20 2025 13:26:52 GMT-0600 (Central Standard Time),,093_m_f_n_a.png,O,space,15020,1,1,,,7067,NNB,C,0
1,prac,1,0.0,1-Back,1,m,Thu Feb 20 2025 13:26:52 GMT-0600 (Central Standard Time),198258.29999995232,098_y_f_n_a.png,O,m,1474,2,1,2376.199999988079,195882.09999996424,7067,NNB,C,1
2,prac,1,1.0,1-Back,1,z,Thu Feb 20 2025 13:26:52 GMT-0600 (Central Standard Time),200540.39999997616,098_y_f_n_a.png,O,z,1466,3,1,2243.800000011921,198296.59999996424,7067,NNB,C,2
3,prac,1,0.0,1-Back,1,m,Thu Feb 20 2025 13:26:52 GMT-0600 (Central Standard Time),203122.89999997616,059_o_m_n_a.png,O,m,1616,4,1,2545.5,200577.39999997616,7067,NNB,C,3
4,prac,1,0.0,1-Back,1,m,Thu Feb 20 2025 13:26:52 GMT-0600 (Central Standard Time),205055.39999997616,092_m_m_n_a.png,O,m,975,5,1,1899.699999988079,203155.69999998808,7067,NNB,C,4
5,prac,1,1.0,1-Back,1,z,Thu Feb 20 2025 13:26:52 GMT-0600 (Central Standard Time),206771.89999997616,092_m_m_n_a.png,O,z,910,6,1,1687.800000011921,205084.09999996424,7067,NNB,C,5
6,prac,1,0.0,1-Back,1,m,Thu Feb 20 2025 13:26:52 GMT-0600 (Central Standard Time),209121.19999998808,130_o_f_n_a.png,O,m,1356,7,1,2308.300000011921,206812.89999997616,7067,NNB,C,6
7,prac,1,0.0,1-Back,1,m,Thu Feb 20 2025 13:26:52 GMT-0600 (Central Standard Time),211137.09999996424,082_m_m_n_a.png,O,m,1054,8,1,1979.199999988079,209157.89999997616,7067,NNB,C,7
7,prac,1,0.0,1-Back,0,m,Thu Feb 20 2025 13:26:52 GMT-0600 (Central Standard Time),213220.0,093_m_f_n_a.png,O,z,1159,9,1,2047.1000000238419,211172.89999997616,7067,NNB,C,8
7,prac,1,1.0,1-Back,0,z,Thu Feb 20 2025 13:26:52 GMT-0600 (Central Standard Time),216034.89999997616,093_m_f_n_a.png,O,None,2005,10,1,2775.100000023842,213259.79999995232,7067,NNB,C,9
8,prac,1,0.0,1-Back,1,m,Thu Feb 20 2025 13:26:52 GMT-0600 (Central Standard Time),218217.89999997616,059_o_m_n_a.png,O,m,1253,11,1,2157.899999976158,216060.0,7067,NNB,C,10
9,prac,1,0.0,1-Back,1,m,Thu Feb 20 2025 13:26:52 GMT-0600 (Central Standard Time),220034.0,028_y_f_n_a.png,O,m,853,12,1,1782.9000000357628,218251.09999996424,7067,NNB,C,11
0,test,1,0.0,1-Back,,,Thu Feb 20 2025 13:26:52 GMT-0600 (Central Standard Time),220034.0,098_y_f_n_a.png,O,space,19233,1,1,1782.9000000357628,218251.09999996424,7067,NNB,C,0
1,test,1,0.0,1-Back,1,m,Thu Feb 20 2025 13:26:52 GMT-0600 (Central Standard Time),252255.79999995232,006_m_f_n_a.png,O,m,1827,2,1,2844.599999964237,249411.19999998808,7067,NNB,C,1
2,test,1,0.0,1-Back,1,m,Thu Feb 20 2025 13:26:52 GMT-0600 (Central Standard Time),254238.79999995232,028_y_f_n_a.png,O,m,954,3,1,1979.0999999642372,252259.69999998808,7067,NNB,C,2
3,test,1,1.0,1-Back,1,z,Thu Feb 20 2025 13:26:52 GMT-0600 (Central Standard Time),255837.89999997616,028_y_f_n_a.png,O,z,580,4,1,1594.800000011921,254243.09999996424,7067,NNB,C,3
4,test,1,0.0,1-Back,1,m,Thu Feb 20 2025 13:26:52 GMT-0600 (Central Standard Time),258054.0,006_m_f_n_a.png,O,m,1196,5,1,2212.400000035763,255841.59999996424,7067,NNB,C,4
5,test,1,0.0,1-Back,1,m,Thu Feb 20 2025 13:26:52 GMT-0600 (Central Standard Time),259886.69999998808,059_o_m_n_a.png,O,m,812,6,1,1828.6000000238419,258058.09999996424,7067,NNB,C,5
6,test,1,1.0,1-Back,1,z,Thu Feb 20 2025 13:26:52 GMT-0600 (Central Standard Time),261636.0,059_o_m_n_a.png,O,z,732,7,1,1745.1000000238419,259890.89999997616,7067,NNB,C,6
7,test,1,0.0,1-Back,1,m,Thu Feb 20 2025 13:26:52 GMT-0600 (Central Standard Time),263552.09999996424,092_m_m_n_a.png,O,m,886,8,1,1912.0999999642372,261640.0,7067,NNB,C,7
8,test,1,0.0,1-Back,1,m,Thu Feb 20 2025 13:26:52 GMT-0600 (Central Standard Time),265384.7999999523,130_o_f_n_a.png,O,m,802,9,1,1828.3999999761581,263556.39999997616,7067,NNB,C,8
9,test,1,0.0,1-Back,1,m,Thu Feb 20 2025 13:26:52 GMT-0600 (Central Standard Time),267584.6999999881,092_m_m_n_a.png,O,m,1170,10,1,2195.900000035763,265388.7999999523,7067,NNB,C,9
10,test,1,0.0,1-Back,1,m,Thu Feb 20 2025 13:26:52 GMT-0600 (Central Standard Time),269483.39999997616,057_y_m_n_a.png,O,m,866,11,1,1885.6000000238419,267597.7999999523,7067,NNB,C,10
11,test,1,1.0,1-Back,1,z,Thu Feb 20 2025 13:26:52 GMT-0600 (Central Standard Time),271083.1999999881,057_y_m_n_a.png,O,z,583,12,1,1596.0,269487.1999999881,7067,NNB,C,11
12,test,1,0.0,1-Back,1,m,Thu Feb 20 2025 13:26:52 GMT-0600 (Central Standard Time),273165.59999996424,030_o_f_n_a.png,O,m,1055,13,1,2078.5,271087.09999996424,7067,NNB,C,12
12,test,1,1.0,1-Back,0,z,Thu Feb 20 2025 13:26:52 GMT-0600 (Central Standard Time),275931.1999999881,030_o_f_n_a.png,O,m,1732,14,1,2761.699999988079,273169.5,7067,NNB,C,13
13,test,1,0.0,1-Back,1,m,Thu Feb 20 2025 13:26:52 GMT-0600 (Central Standard Time),278363.89999997616,031_y_m_n_a.png,O,m,1407,15,1,2428.600000023842,275935.2999999523,7067,NNB,C,14
14,test,1,0.0,1-Back,1,m,Thu Feb 20 2025 13:26:52 GMT-0600 (Central Standard Time),280096.6999999881,093_m_f_n_a.png,O,m,710,16,1,1728.699999988079,278368.0,7067,NNB,C,15
15,test,1,0.0,1-Back,1,m,Thu Feb 20 2025 13:26:52 GMT-0600 (Central Standard Time),282029.2999999523,146_o_m_n_a.png,O,m,914,17,1,1928.8999999761581,280100.39999997616,7067,NNB,C,16
16,test,1,0.0,1-Back,1,m,Thu Feb 20 2025 13:26:52 GMT-0600 (Central Standard Time),284145.2999999523,093_m_f_n_a.png,O,m,1083,18,1,2112.0,282033.2999999523,7067,NNB,C,17
0,test,2,0.0,1-Back,,,Thu Feb 20 2025 13:26:52 GMT-0600 (Central Standard Time),284145.2999999523,092_m_m_n_a.png,O,space,3273,1,1,2112.0,282033.2999999523,7067,NNB,C,0
1,test,2,0.0,1-Back,1,m,Thu Feb 20 2025 13:26:52 GMT-0600 (Central Standard Time),291726.09999996424,006_m_f_n_a.png,O,m,1146,2,1,2160.800000011921,289565.2999999523,7067,NNB,C,1
2,test,2,1.0,1-Back,1,z,Thu Feb 20 2025 13:26:52 GMT-0600 (Central Standard Time),293759.0,006_m_f_n_a.png,O,z,1004,3,1,2028.6000000238419,291730.39999997616,7067,NNB,C,2
3,test,2,0.0,1-Back,1,m,Thu Feb 20 2025 13:26:52 GMT-0600 (Central Standard Time),295741.39999997616,092_m_m_n_a.png,O,m,963,4,1,1978.6000000238419,293762.7999999523,7067,NNB,C,3
4,test,2,0.0,1-Back,1,m,Thu Feb 20 2025 13:26:52 GMT-0600 (Central Standard Time),297540.89999997616,057_y_m_n_a.png,O,m,781,5,1,1795.6000000238419,295745.2999999523,7067,NNB,C,4
5,test,2,0.0,1-Back,1,m,Thu Feb 20 2025 13:26:52 GMT-0600 (Central Standard Time),299373.6999999881,098_y_f_n_a.png,O,m,816,6,1,1828.699999988079,297545.0,7067,NNB,C,5
6,test,2,1.0,1-Back,1,z,Thu Feb 20 2025 13:26:52 GMT-0600 (Central Standard Time),301139.59999996424,098_y_f_n_a.png,O,z,740,7,1,1761.5999999642372,299378.0,7067,NNB,C,6
7,test,2,0.0,1-Back,1,m,Thu Feb 20 2025 13:26:52 GMT-0600 (Central Standard Time),303090.39999997616,057_y_m_n_a.png,O,m,926,8,1,1946.199999988079,301144.1999999881,7067,NNB,C,7
8,test,2,0.0,1-Back,1,m,Thu Feb 20 2025 13:26:52 GMT-0600 (Central Standard Time),305289.2999999523,030_o_f_n_a.png,O,m,1159,9,1,2174.5,303114.7999999523,7067,NNB,C,8
9,test,2,0.0,1-Back,1,m,Thu Feb 20 2025 13:26:52 GMT-0600 (Central Standard Time),307105.09999996424,082_m_m_n_a.png,O,m,777,10,1,1788.0,305317.09999996424,7067,NNB,C,9
10,test,2,1.0,1-Back,1,z,Thu Feb 20 2025 13:26:52 GMT-0600 (Central Standard Time),308754.5,082_m_m_n_a.png,O,z,608,11,1,1625.2000000476837,307129.2999999523,7067,NNB,C,10
11,test,2,0.0,1-Back,1,m,Thu Feb 20 2025 13:26:52 GMT-0600 (Central Standard Time),310787.6999999881,030_o_f_n_a.png,O,m,974,12,1,2001.0,308786.6999999881,7067,NNB,C,11
12,test,2,0.0,1-Back,1,m,Thu Feb 20 2025 13:26:52 GMT-0600 (Central Standard Time),312753.5,130_o_f_n_a.png,O,m,918,13,1,1942.0,310811.5,7067,NNB,C,12
13,test,2,0.0,1-Back,1,m,Thu Feb 20 2025 13:26:52 GMT-0600 (Central Standard Time),314803.0,059_o_m_n_a.png,O,m,1000,14,1,2027.300000011921,312775.6999999881,7067,NNB,C,13
14,test,2,0.0,1-Back,1,m,Thu Feb 20 2025 13:26:52 GMT-0600 (Central Standard Time),316618.7999999523,146_o_m_n_a.png,O,m,750,15,1,1790.7999999523163,314828.0,7067,NNB,C,14
15,test,2,1.0,1-Back,1,z,Thu Feb 20 2025 13:26:52 GMT-0600 (Central Standard Time),318518.0,146_o_m_n_a.png,O,z,864,16,1,1873.300000011921,316644.6999999881,7067,NNB,C,15
16,test,2,0.0,1-Back,1,m,Thu Feb 20 2025 13:26:52 GMT-0600 (Central Standard Time),320584.59999996424,031_y_m_n_a.png,O,m,1019,17,1,2045.8999999761581,318538.6999999881,7067,NNB,C,16
17,test,2,1.0,1-Back,1,z,Thu Feb 20 2025 13:26:52 GMT-0600 (Central Standard Time),322517.39999997616,031_y_m_n_a.png,O,z,898,18,1,1912.1000000238419,320605.2999999523,7067,NNB,C,17
0,test,3,1.0,1-Back,,,Thu Feb 20 2025 13:26:52 GMT-0600 (Central Standard Time),322517.39999997616,028_y_f_n_a.png,O,space,3629,1,1,1912.1000000238419,320605.2999999523,7067,NNB,C,0
1,test,3,0.0,1-Back,1,m,Thu Feb 20 2025 13:26:52 GMT-0600 (Central Standard Time),330181.2999999523,146_o_m_n_a.png,O,m,832,1,1,1841.2999999523163,328340.0,7067,NNB,C,1
2,test,3,1.0,1-Back,1,z,Thu Feb 20 2025 13:26:52 GMT-0600 (Central Standard Time),332830.1999999881,146_o_m_n_a.png,O,z,1607,1,1,2628.699999988079,330201.5,7067,NNB,C,2
3,test,3,0.0,1-Back,1,m,Thu Feb 20 2025 13:26:52 GMT-0600 (Central Standard Time),334779.2999999523,093_m_f_n_a.png,O,m,907,1,1,1929.699999988079,332849.59999996424,7067,NNB,C,3
4,test,3,1.0,1-Back,1,z,Thu Feb 20 2025 13:26:52 GMT-0600 (Central Standard Time),336912.1999999881,093_m_f_n_a.png,O,z,1079,1,1,2086.5,334825.6999999881,7067,NNB,C,4
5,test,3,0.0,1-Back,1,m,Thu Feb 20 2025 13:26:52 GMT-0600 (Central Standard Time),338948.5,030_o_f_n_a.png,O,m,985,1,1,2019.1000000238419,336929.39999997616,7067,NNB,C,5
6,test,3,0.0,1-Back,1,m,Thu Feb 20 2025 13:26:52 GMT-0600 (Central Standard Time),341227.5,057_y_m_n_a.png,O,m,1242,1,1,2256.5,338971.0,7067,NNB,C,6
7,test,3,0.0,1-Back,1,m,Thu Feb 20 2025 13:26:52 GMT-0600 (Central Standard Time),343443.59999996424,030_o_f_n_a.png,O,m,1166,1,1,2197.199999988079,341246.39999997616,7067,NNB,C,7
8,test,3,0.0,1-Back,1,m,Thu Feb 20 2025 13:26:52 GMT-0600 (Central Standard Time),345277.2999999523,031_y_m_n_a.png,O,m,799,1,1,1813.3999999761581,343463.89999997616,7067,NNB,C,8
9,test,3,1.0,1-Back,1,z,Thu Feb 20 2025 13:26:52 GMT-0600 (Central Standard Time),347058.39999997616,031_y_m_n_a.png,O,z,741,1,1,1761.1000000238419,345297.2999999523,7067,NNB,C,9
10,test,3,0.0,1-Back,1,m,Thu Feb 20 2025 13:26:52 GMT-0600 (Central Standard Time),349691.1999999881,006_m_f_n_a.png,O,m,1607,1,1,2621.199999988079,347070.0,7067,NNB,C,10
11,test,3,0.0,1-Back,1,m,Thu Feb 20 2025 13:26:52 GMT-0600 (Central Standard Time),351657.39999997616,098_y_f_n_a.png,O,m,918,1,1,1949.0,349708.39999997616,7067,NNB,C,11
12,test,3,1.0,1-Back,1,z,Thu Feb 20 2025 13:26:52 GMT-0600 (Central Standard Time),353573.09999996424,098_y_f_n_a.png,O,z,872,1,1,1892.5,351680.59999996424,7067,NNB,C,12
13,test,3,0.0,1-Back,1,m,Thu Feb 20 2025 13:26:52 GMT-0600 (Central Standard Time),355689.39999997616,006_m_f_n_a.png,O,m,1075,1,1,2092.699999988079,353596.6999999881,7067,NNB,C,13
14,test,3,0.0,1-Back,1,m,Thu Feb 20 2025 13:26:52 GMT-0600 (Central Standard Time),357438.5,092_m_m_n_a.png,O,m,705,1,1,1732.6000000238419,355705.89999997616,7067,NNB,C,14
15,test,3,1.0,1-Back,1,z,Thu Feb 20 2025 13:26:52 GMT-0600 (Central Standard Time),359389.2999999523,092_m_m_n_a.png,O,z,932,1,1,1938.0999999642372,357451.1999999881,7067,NNB,C,15
16,test,3,0.0,1-Back,1,m,Thu Feb 20 2025 13:26:52 GMT-0600 (Central Standard Time),361337.39999997616,130_o_f_n_a.png,O,m,901,1,1,1922.5,359414.89999997616,7067,NNB,C,16
16,test,3,1.0,1-Back,0,z,Thu Feb 20 2025 13:26:52 GMT-0600 (Central Standard Time),363719.89999997616,130_o_f_n_a.png,O,m,1345,1,1,2360.800000011921,361359.09999996424,7067,NNB,C,17
0,test,4,1.0,1-Back,,,Thu Feb 20 2025 13:26:52 GMT-0600 (Central Standard Time),363719.89999997616,093_m_f_n_a.png,O,space,1476,1,1,2360.800000011921,361359.09999996424,7067,NNB,C,0
1,test,4,0.0,1-Back,1,m,Thu Feb 20 2025 13:26:52 GMT-0600 (Central Standard Time),369284.7999999523,146_o_m_n_a.png,O,m,815,2,1,1849.0,367435.7999999523,7067,NNB,C,1
2,test,4,0.0,1-Back,1,m,Thu Feb 20 2025 13:26:52 GMT-0600 (Central Standard Time),371456.6999999881,093_m_f_n_a.png,O,m,1136,3,1,2152.5,369304.1999999881,7067,NNB,C,2
3,test,4,0.0,1-Back,1,m,Thu Feb 20 2025 13:26:52 GMT-0600 (Central Standard Time),374167.7999999523,030_o_f_n_a.png,O,m,1697,4,1,2704.0,371463.7999999523,7067,NNB,C,3
4,test,4,1.0,1-Back,1,z,Thu Feb 20 2025 13:26:52 GMT-0600 (Central Standard Time),376133.1999999881,030_o_f_n_a.png,O,z,931,5,1,1946.800000011921,374186.39999997616,7067,NNB,C,4
5,test,4,0.0,1-Back,1,m,Thu Feb 20 2025 13:26:52 GMT-0600 (Central Standard Time),378297.7999999523,098_y_f_n_a.png,O,m,1115,6,1,2135.5,376162.2999999523,7067,NNB,C,5
6,test,4,0.0,1-Back,1,m,Thu Feb 20 2025 13:26:52 GMT-0600 (Central Standard Time),380047.7999999523,057_y_m_n_a.png,O,m,728,7,1,1745.5999999642372,378302.1999999881,7067,NNB,C,6
7,test,4,1.0,1-Back,1,z,Thu Feb 20 2025 13:26:52 GMT-0600 (Central Standard Time),381631.09999996424,057_y_m_n_a.png,O,z,537,8,1,1564.0999999642372,380067.0,7067,NNB,C,7
8,test,4,0.0,1-Back,1,m,Thu Feb 20 2025 13:26:52 GMT-0600 (Central Standard Time),383414.0,098_y_f_n_a.png,O,m,749,9,1,1760.5,381653.5,7067,NNB,C,8
9,test,4,0.0,1-Back,1,m,Thu Feb 20 2025 13:26:52 GMT-0600 (Central Standard Time),385196.1999999881,082_m_m_n_a.png,O,m,737,10,1,1761.800000011921,383434.39999997616,7067,NNB,C,9
9,test,4,1.0,1-Back,0,z,Thu Feb 20 2025 13:26:52 GMT-0600 (Central Standard Time),387329.39999997616,082_m_m_n_a.png,O,m,1094,11,1,2105.699999988079,385223.6999999881,7067,NNB,C,10
10,test,4,0.0,1-Back,1,m,Thu Feb 20 2025 13:26:52 GMT-0600 (Central Standard Time),389094.89999997616,130_o_f_n_a.png,O,m,721,12,1,1743.5,387351.39999997616,7067,NNB,C,11
11,test,4,0.0,1-Back,1,m,Thu Feb 20 2025 13:26:52 GMT-0600 (Central Standard Time),391161.1999999881,059_o_m_n_a.png,O,m,1028,13,1,2046.6000000238419,389114.59999996424,7067,NNB,C,12
12,test,4,0.0,1-Back,1,m,Thu Feb 20 2025 13:26:52 GMT-0600 (Central Standard Time),393026.89999997616,130_o_f_n_a.png,O,m,816,14,1,1843.6000000238419,391183.2999999523,7067,NNB,C,13
13,test,4,0.0,1-Back,1,m,Thu Feb 20 2025 13:26:52 GMT-0600 (Central Standard Time),394776.39999997616,028_y_f_n_a.png,O,m,710,15,1,1725.199999988079,393051.1999999881,7067,NNB,C,14
14,test,4,1.0,1-Back,1,z,Thu Feb 20 2025 13:26:52 GMT-0600 (Central Standard Time),396510.0,028_y_f_n_a.png,O,z,698,16,1,1716.4000000357628,394793.59999996424,7067,NNB,C,15
15,test,4,0.0,1-Back,1,m,Thu Feb 20 2025 13:26:52 GMT-0600 (Central Standard Time),398492.09999996424,006_m_f_n_a.png,O,m,932,17,1,1962.8999999761581,396529.1999999881,7067,NNB,C,16
16,test,4,1.0,1-Back,1,z,Thu Feb 20 2025 13:26:52 GMT-0600 (Central Standard Time),400275.0,006_m_f_n_a.png,O,z,743,18,1,1760.300000011921,398514.6999999881,7067,NNB,C,17
0,test,5,1.0,1-Back,,,Thu Feb 20 2025 13:26:52 GMT-0600 (Central Standard Time),400275.0,059_o_m_n_a.png,O,space,1664,1,1,1760.300000011921,398514.6999999881,7067,NNB,C,0
1,test,5,1.0,1-Back,1,z,Thu Feb 20 2025 13:26:52 GMT-0600 (Central Standard Time),406072.0,059_o_m_n_a.png,O,z,926,2,1,1944.0,404128.0,7067,NNB,C,1
2,test,5,0.0,1-Back,1,m,Thu Feb 20 2025 13:26:52 GMT-0600 (Central Standard Time),407922.09999996424,098_y_f_n_a.png,O,m,818,3,1,1845.199999988079,406076.89999997616,7067,NNB,C,2
3,test,5,0.0,1-Back,1,m,Thu Feb 20 2025 13:26:52 GMT-0600 (Central Standard Time),410121.1999999881,057_y_m_n_a.png,O,m,1159,4,1,2180.600000023842,407940.59999996424,7067,NNB,C,3
4,test,5,0.0,1-Back,1,m,Thu Feb 20 2025 13:26:52 GMT-0600 (Central Standard Time),412204.0,098_y_f_n_a.png,O,m,1042,5,1,2061.600000023842,410142.39999997616,7067,NNB,C,4
5,test,5,0.0,1-Back,1,m,Thu Feb 20 2025 13:26:52 GMT-0600 (Central Standard Time),414053.2999999523,092_m_m_n_a.png,O,m,814,6,1,1825.3999999761581,412227.89999997616,7067,NNB,C,5
6,test,5,1.0,1-Back,1,z,Thu Feb 20 2025 13:26:52 GMT-0600 (Central Standard Time),415753.2999999523,092_m_m_n_a.png,O,z,670,7,1,1688.8999999761581,414064.39999997616,7067,NNB,C,6
7,test,5,0.0,1-Back,1,m,Thu Feb 20 2025 13:26:52 GMT-0600 (Central Standard Time),417735.89999997616,028_y_f_n_a.png,O,m,937,8,1,1957.199999988079,415778.6999999881,7067,NNB,C,7
8,test,5,0.0,1-Back,1,m,Thu Feb 20 2025 13:26:52 GMT-0600 (Central Standard Time),419734.7999999523,031_y_m_n_a.png,O,m,963,9,1,1976.5,417758.2999999523,7067,NNB,C,8
9,test,5,0.0,1-Back,1,m,Thu Feb 20 2025 13:26:52 GMT-0600 (Central Standard Time),421517.5,028_y_f_n_a.png,O,m,739,10,1,1761.5,419756.0,7067,NNB,C,9
10,test,5,0.0,1-Back,1,m,Thu Feb 20 2025 13:26:52 GMT-0600 (Central Standard Time),423366.89999997616,130_o_f_n_a.png,O,m,813,11,1,1831.300000011921,421535.59999996424,7067,NNB,C,10
10,test,5,1.0,1-Back,0,z,Thu Feb 20 2025 13:26:52 GMT-0600 (Central Standard Time),425099.6999999881,130_o_f_n_a.png,O,m,691,12,1,1715.300000011921,423384.39999997616,7067,NNB,C,11
11,test,5,0.0,1-Back,1,m,Thu Feb 20 2025 13:26:52 GMT-0600 (Central Standard Time),426949.7999999523,146_o_m_n_a.png,O,m,815,13,1,1831.7999999523163,425118.0,7067,NNB,C,12
12,test,5,0.0,1-Back,1,m,Thu Feb 20 2025 13:26:52 GMT-0600 (Central Standard Time),428698.5,093_m_f_n_a.png,O,m,709,14,1,1723.2000000476837,426975.2999999523,7067,NNB,C,13
13,test,5,1.0,1-Back,1,z,Thu Feb 20 2025 13:26:52 GMT-0600 (Central Standard Time),430498.0,093_m_f_n_a.png,O,z,762,15,1,1779.7000000476837,428718.2999999523,7067,NNB,C,14
14,test,5,0.0,1-Back,1,m,Thu Feb 20 2025 13:26:52 GMT-0600 (Central Standard Time),432281.2999999523,146_o_m_n_a.png,O,m,744,16,1,1763.2999999523163,430518.0,7067,NNB,C,15
14,test,5,0.0,1-Back,0,m,Thu Feb 20 2025 13:26:52 GMT-0600 (Central Standard Time),434280.09999996424,006_m_f_n_a.png,O,z,953,17,1,1979.800000011921,432300.2999999523,7067,NNB,C,16
15,test,5,0.0,1-Back,1,m,Thu Feb 20 2025 13:26:52 GMT-0600 (Central Standard Time),436579.89999997616,082_m_m_n_a.png,O,m,1249,18,1,2281.0,434298.89999997616,7067,NNB,C,17
0,prac,1,0.0,2-Back,,,Thu Feb 20 2025 13:26:52 GMT-0600 (Central Standard Time),436579.89999997616,031_y_m_n_a.png,O,space,23083,1,1,2281.0,434298.89999997616,7067,NNB,C,0
0,prac,1,0.0,2-Back,,,Thu Feb 20 2025 13:26:52 GMT-0600 (Central Standard Time),436579.89999997616,006_m_f_n_a.png,O,space,23083,2,1,2281.0,434298.89999997616,7067,NNB,C,0
1,prac,1,1.0,2-Back,1,m,Thu Feb 20 2025 13:26:52 GMT-0600 (Central Standard Time),568473.2999999523,146_o_m_n_a.png,O,m,1262,3,1,2197.7999999523163,566275.5,7067,NNB,C,1
2,prac,1,0.0,2-Back,1,m,Thu Feb 20 2025 13:26:52 GMT-0600 (Central Standard Time),570286.0,130_o_f_n_a.png,O,m,822,4,1,1778.800000011921,568507.1999999881,7067,NNB,C,2
3,prac,1,0.0,2-Back,1,z,Thu Feb 20 2025 13:26:52 GMT-0600 (Central Standard Time),572117.5999999642,146_o_m_n_a.png,O,z,897,5,1,1812.199999988079,570305.3999999762,7067,NNB,C,3
4,prac,1,1.0,2-Back,1,z,Thu Feb 20 2025 13:26:52 GMT-0600 (Central Standard Time),574251.5,130_o_f_n_a.png,O,z,1343,6,1,2126.300000011921,572125.1999999881,7067,NNB,C,4
5,prac,1,0.0,2-Back,1,m,Thu Feb 20 2025 13:26:52 GMT-0600 (Central Standard Time),576283.6999999881,082_m_m_n_a.png,O,m,1059,7,1,1997.300000011921,574286.3999999762,7067,NNB,C,5
6,prac,1,0.0,2-Back,1,m,Thu Feb 20 2025 13:26:52 GMT-0600 (Central Standard Time),578183.1999999881,059_o_m_n_a.png,O,m,936,8,1,1861.9000000357628,576321.2999999523,7067,NNB,C,6
7,prac,1,0.0,2-Back,1,m,Thu Feb 20 2025 13:26:52 GMT-0600 (Central Standard Time),579982.5,028_y_f_n_a.png,O,m,843,9,1,1762.5,578220.0,7067,NNB,C,7
8,prac,1,1.0,2-Back,1,z,Thu Feb 20 2025 13:26:52 GMT-0600 (Central Standard Time),581598.5999999642,059_o_m_n_a.png,O,z,679,10,1,1589.3999999761581,580009.1999999881,7067,NNB,C,8
9,prac,1,0.0,2-Back,1,m,Thu Feb 20 2025 13:26:52 GMT-0600 (Central Standard Time),583747.0999999642,098_y_f_n_a.png,O,m,1214,11,1,2118.599999964237,581628.5,7067,NNB,C,9
10,prac,1,0.0,2-Back,1,m,Thu Feb 20 2025 13:26:52 GMT-0600 (Central Standard Time),585746.5,082_m_m_n_a.png,O,m,1092,12,1,1991.7000000476837,583754.7999999523,7067,NNB,C,10
0,test,1,0.0,2-Back,,,Thu Feb 20 2025 13:26:52 GMT-0600 (Central Standard Time),585746.5,057_y_m_n_a.png,O,space,14050,1,1,1991.7000000476837,583754.7999999523,7067,NNB,C,0
0,test,1,0.0,2-Back,,,Thu Feb 20 2025 13:26:52 GMT-0600 (Central Standard Time),585746.5,057_y_m_n_a.png,O,space,14050,2,1,1991.7000000476837,583754.7999999523,7067,NNB,C,0
0,test,1,0.0,2-Back,0,m,Thu Feb 20 2025 13:26:52 GMT-0600 (Central Standard Time),615021.7999999523,130_o_f_n_a.png,O,None,2013,3,1,3025.099999964237,611996.6999999881,7067,NNB,C,1
1,test,1,0.0,2-Back,1,m,Thu Feb 20 2025 13:26:52 GMT-0600 (Central Standard Time),617069.5999999642,092_m_m_n_a.png,O,m,1023,4,1,2043.800000011921,615025.7999999523,7067,NNB,C,2
2,test,1,1.0,2-Back,1,z,Thu Feb 20 2025 13:26:52 GMT-0600 (Central Standard Time),619119.5,130_o_f_n_a.png,O,z,1029,5,1,2045.0,617074.5,7067,NNB,C,3
3,test,1,0.0,2-Back,1,m,Thu Feb 20 2025 13:26:52 GMT-0600 (Central Standard Time),621051.7999999523,098_y_f_n_a.png,O,m,882,6,1,1914.7999999523163,619137.0,7067,NNB,C,4
3,test,1,0.0,2-Back,0,m,Thu Feb 20 2025 13:26:52 GMT-0600 (Central Standard Time),622868.6999999881,092_m_m_n_a.png,O,z,763,7,1,1792.6000000238419,621076.0999999642,7067,NNB,C,5
3,test,1,1.0,2-Back,0,z,Thu Feb 20 2025 13:26:52 GMT-0600 (Central Standard Time),624817.6999999881,098_y_f_n_a.png,O,m,904,8,1,1928.699999988079,622889.0,7067,NNB,C,6
4,test,1,0.0,2-Back,1,m,Thu Feb 20 2025 13:26:52 GMT-0600 (Central Standard Time),627333.2999999523,031_y_m_n_a.png,O,m,1472,9,1,2497.099999964237,624836.1999999881,7067,NNB,C,7
5,test,1,0.0,2-Back,1,m,Thu Feb 20 2025 13:26:52 GMT-0600 (Central Standard Time),629616.0999999642,030_o_f_n_a.png,O,m,1237,10,1,2262.699999988079,627353.3999999762,7067,NNB,C,8
6,test,1,1.0,2-Back,1,z,Thu Feb 20 2025 13:26:52 GMT-0600 (Central Standard Time),631465.3999999762,031_y_m_n_a.png,O,z,802,11,1,1830.699999988079,629634.6999999881,7067,NNB,C,9
7,test,1,0.0,2-Back,1,m,Thu Feb 20 2025 13:26:52 GMT-0600 (Central Standard Time),633598.0999999642,006_m_f_n_a.png,O,m,1089,12,1,2102.699999988079,631495.3999999762,7067,NNB,C,10
8,test,1,0.0,2-Back,1,m,Thu Feb 20 2025 13:26:52 GMT-0600 (Central Standard Time),635997.2999999523,006_m_f_n_a.png,O,m,1356,13,1,2376.2999999523163,633621.0,7067,NNB,C,11
9,test,1,0.0,2-Back,1,m,Thu Feb 20 2025 13:26:52 GMT-0600 (Central Standard Time),638147.0999999642,146_o_m_n_a.png,O,m,1101,14,1,2130.599999964237,636016.5,7067,NNB,C,12
10,test,1,0.0,2-Back,1,m,Thu Feb 20 2025 13:26:52 GMT-0600 (Central Standard Time),640912.2999999523,030_o_f_n_a.png,O,m,1703,15,1,2733.599999964237,638178.6999999881,7067,NNB,C,13
11,test,1,1.0,2-Back,1,z,Thu Feb 20 2025 13:26:52 GMT-0600 (Central Standard Time),643644.1999999881,146_o_m_n_a.png,O,z,1681,16,1,2705.400000035763,640938.7999999523,7067,NNB,C,14
12,test,1,0.0,2-Back,1,m,Thu Feb 20 2025 13:26:52 GMT-0600 (Central Standard Time),645661.2999999523,093_m_f_n_a.png,O,m,983,17,1,2009.199999988079,643652.0999999642,7067,NNB,C,15
13,test,1,0.0,2-Back,1,m,Thu Feb 20 2025 13:26:52 GMT-0600 (Central Standard Time),647760.0999999642,082_m_m_n_a.png,O,m,1061,18,1,2073.899999976158,645686.1999999881,7067,NNB,C,16
0,test,2,0.0,2-Back,,,Thu Feb 20 2025 13:26:52 GMT-0600 (Central Standard Time),647760.0999999642,082_m_m_n_a.png,O,space,2666,1,1,2073.899999976158,645686.1999999881,7067,NNB,C,0
0,test,2,0.0,2-Back,,,Thu Feb 20 2025 13:26:52 GMT-0600 (Central Standard Time),647760.0999999642,028_y_f_n_a.png,O,space,2666,2,1,2073.899999976158,645686.1999999881,7067,NNB,C,0
1,test,2,1.0,2-Back,1,z,Thu Feb 20 2025 13:26:52 GMT-0600 (Central Standard Time),657423.5999999642,082_m_m_n_a.png,O,z,787,3,1,1805.5,655618.0999999642,7067,NNB,C,1
2,test,2,0.0,2-Back,1,m,Thu Feb 20 2025 13:26:52 GMT-0600 (Central Standard Time),659789.0999999642,093_m_f_n_a.png,O,m,1322,4,1,2344.599999964237,657444.5,7067,NNB,C,2
2,test,2,0.0,2-Back,0,m,Thu Feb 20 2025 13:26:52 GMT-0600 (Central Standard Time),662206.0999999642,028_y_f_n_a.png,O,z,1398,5,1,2411.5,659794.5999999642,7067,NNB,C,3
3,test,2,0.0,2-Back,1,m,Thu Feb 20 2025 13:26:52 GMT-0600 (Central Standard Time),664405.7999999523,146_o_m_n_a.png,O,m,1182,6,1,2186.0,662219.7999999523,7067,NNB,C,4
4,test,2,0.0,2-Back,1,m,Thu Feb 20 2025 13:26:52 GMT-0600 (Central Standard Time),666537.3999999762,098_y_f_n_a.png,O,m,1093,7,1,2110.699999988079,664426.6999999881,7067,NNB,C,5
5,test,2,1.0,2-Back,1,z,Thu Feb 20 2025 13:26:52 GMT-0600 (Central Standard Time),668686.3999999762,146_o_m_n_a.png,O,z,1113,8,1,2127.800000011921,666558.5999999642,7067,NNB,C,6
6,test,2,0.0,2-Back,1,m,Thu Feb 20 2025 13:26:52 GMT-0600 (Central Standard Time),670653.5,031_y_m_n_a.png,O,m,915,9,1,1939.5,668714.0,7067,NNB,C,7
7,test,2,0.0,2-Back,1,m,Thu Feb 20 2025 13:26:52 GMT-0600 (Central Standard Time),672718.6999999881,031_y_m_n_a.png,O,m,1030,10,1,2046.5,670672.1999999881,7067,NNB,C,8
8,test,2,0.0,2-Back,1,m,Thu Feb 20 2025 13:26:52 GMT-0600 (Central Standard Time),674751.1999999881,006_m_f_n_a.png,O,m,996,11,1,2010.6000000238419,672740.5999999642,7067,NNB,C,9
9,test,2,0.0,2-Back,1,m,Thu Feb 20 2025 13:26:52 GMT-0600 (Central Standard Time),676983.7999999523,028_y_f_n_a.png,O,m,1212,12,1,2223.399999976158,674760.3999999762,7067,NNB,C,10
10,test,2,1.0,2-Back,1,z,Thu Feb 20 2025 13:26:52 GMT-0600 (Central Standard Time),678949.5,006_m_f_n_a.png,O,z,921,13,1,1945.1000000238419,677004.3999999762,7067,NNB,C,11
11,test,2,0.0,2-Back,1,m,Thu Feb 20 2025 13:26:52 GMT-0600 (Central Standard Time),680915.8999999762,059_o_m_n_a.png,O,m,943,14,1,1960.800000011921,678955.0999999642,7067,NNB,C,12
12,test,2,0.0,2-Back,1,m,Thu Feb 20 2025 13:26:52 GMT-0600 (Central Standard Time),682931.8999999762,059_o_m_n_a.png,O,m,974,15,1,1997.8999999761581,680934.0,7067,NNB,C,13
13,test,2,0.0,2-Back,1,m,Thu Feb 20 2025 13:26:52 GMT-0600 (Central Standard Time),685247.7999999523,030_o_f_n_a.png,O,m,1279,16,1,2300.599999964237,682947.1999999881,7067,NNB,C,14
14,test,2,0.0,2-Back,1,m,Thu Feb 20 2025 13:26:52 GMT-0600 (Central Standard Time),687330.5,092_m_m_n_a.png,O,m,1043,17,1,2055.900000035763,685274.5999999642,7067,NNB,C,15
14,test,2,1.0,2-Back,0,z,Thu Feb 20 2025 13:26:52 GMT-0600 (Central Standard Time),689613.5,030_o_f_n_a.png,O,m,1232,18,1,2258.400000035763,687355.0999999642,7067,NNB,C,16
0,test,3,1.0,2-Back,,,Thu Feb 20 2025 13:26:52 GMT-0600 (Central Standard Time),689613.5,057_y_m_n_a.png,O,space,1970,1,1,2258.400000035763,687355.0999999642,7067,NNB,C,0
0,test,3,1.0,2-Back,,,Thu Feb 20 2025 13:26:52 GMT-0600 (Central Standard Time),689613.5,057_y_m_n_a.png,O,space,1970,2,1,2258.400000035763,687355.0999999642,7067,NNB,C,0
1,test,3,0.0,2-Back,1,m,Thu Feb 20 2025 13:26:52 GMT-0600 (Central Standard Time),698860.0,030_o_f_n_a.png,O,m,1024,3,1,2042.2000000476837,696817.7999999523,7067,NNB,C,1
2,test,3,0.0,2-Back,1,m,Thu Feb 20 2025 13:26:52 GMT-0600 (Central Standard Time),701242.5999999642,082_m_m_n_a.png,O,m,1342,4,1,2366.0,698876.5999999642,7067,NNB,C,2
3,test,3,1.0,2-Back,1,z,Thu Feb 20 2025 13:26:52 GMT-0600 (Central Standard Time),703292.6999999881,030_o_f_n_a.png,O,z,1002,5,1,2025.800000011921,701266.8999999762,7067,NNB,C,3
4,test,3,0.0,2-Back,1,m,Thu Feb 20 2025 13:26:52 GMT-0600 (Central Standard Time),705241.2999999523,031_y_m_n_a.png,O,m,901,6,1,1924.2999999523163,703317.0,7067,NNB,C,4
4,test,3,0.0,2-Back,0,m,Thu Feb 20 2025 13:26:52 GMT-0600 (Central Standard Time),707390.5999999642,082_m_m_n_a.png,O,z,1113,7,1,2128.0,705262.5999999642,7067,NNB,C,5
4,test,3,1.0,2-Back,0,z,Thu Feb 20 2025 13:26:52 GMT-0600 (Central Standard Time),709290.0999999642,031_y_m_n_a.png,O,m,852,8,1,1871.800000011921,707418.2999999523,7067,NNB,C,6
5,test,3,0.0,2-Back,1,m,Thu Feb 20 2025 13:26:52 GMT-0600 (Central Standard Time),711506.0999999642,028_y_f_n_a.png,O,m,1169,9,1,2188.800000011921,709317.2999999523,7067,NNB,C,7
6,test,3,0.0,2-Back,1,m,Thu Feb 20 2025 13:26:52 GMT-0600 (Central Standard Time),713505.1999999881,092_m_m_n_a.png,O,m,961,10,1,1978.0,711527.1999999881,7067,NNB,C,8
7,test,3,1.0,2-Back,1,z,Thu Feb 20 2025 13:26:52 GMT-0600 (Central Standard Time),715438.2999999523,028_y_f_n_a.png,O,z,906,11,1,1919.3999999761581,713518.8999999762,7067,NNB,C,9
8,test,3,1.0,2-Back,1,z,Thu Feb 20 2025 13:26:52 GMT-0600 (Central Standard Time),717737.1999999881,092_m_m_n_a.png,O,z,1260,12,1,2279.699999988079,715457.5,7067,NNB,C,10
9,test,3,0.0,2-Back,1,m,Thu Feb 20 2025 13:26:52 GMT-0600 (Central Standard Time),719620.2999999523,030_o_f_n_a.png,O,m,816,13,1,1849.699999988079,717770.5999999642,7067,NNB,C,11
10,test,3,0.0,2-Back,1,m,Thu Feb 20 2025 13:26:52 GMT-0600 (Central Standard Time),721651.7999999523,093_m_f_n_a.png,O,m,972,14,1,2001.0,719650.7999999523,7067,NNB,C,12
11,test,3,0.0,2-Back,1,m,Thu Feb 20 2025 13:26:52 GMT-0600 (Central Standard Time),723785.3999999762,146_o_m_n_a.png,O,m,1109,15,1,2130.0,721655.3999999762,7067,NNB,C,13
12,test,3,1.0,2-Back,1,z,Thu Feb 20 2025 13:26:52 GMT-0600 (Central Standard Time),726101.8999999762,093_m_f_n_a.png,O,z,1281,16,1,2295.0,723806.8999999762,7067,NNB,C,14
13,test,3,0.0,2-Back,1,m,Thu Feb 20 2025 13:26:52 GMT-0600 (Central Standard Time),728350.1999999881,130_o_f_n_a.png,O,m,1213,17,1,2225.5,726124.6999999881,7067,NNB,C,15
14,test,3,0.0,2-Back,1,m,Thu Feb 20 2025 13:26:52 GMT-0600 (Central Standard Time),730499.5999999642,130_o_f_n_a.png,O,m,1108,18,1,2126.199999988079,728373.3999999762,7067,NNB,C,16
0,test,4,0.0,2-Back,,,Thu Feb 20 2025 13:26:52 GMT-0600 (Central Standard Time),730499.5999999642,059_o_m_n_a.png,O,space,3364,1,1,2126.199999988079,728373.3999999762,7067,NNB,C,0
0,test,4,0.0,2-Back,,,Thu Feb 20 2025 13:26:52 GMT-0600 (Central Standard Time),730499.5999999642,098_y_f_n_a.png,O,space,3364,2,1,2126.199999988079,728373.3999999762,7067,NNB,C,0
1,test,4,1.0,2-Back,1,z,Thu Feb 20 2025 13:26:52 GMT-0600 (Central Standard Time),741329.7999999523,059_o_m_n_a.png,O,z,1054,3,1,2070.199999988079,739259.5999999642,7067,NNB,C,1
2,test,4,1.0,2-Back,1,z,Thu Feb 20 2025 13:26:52 GMT-0600 (Central Standard Time),743829.5,098_y_f_n_a.png,O,z,1465,4,1,2476.600000023842,741352.8999999762,7067,NNB,C,2
3,test,4,0.0,2-Back,1,m,Thu Feb 20 2025 13:26:52 GMT-0600 (Central Standard Time),745744.8999999762,030_o_f_n_a.png,O,m,878,5,1,1899.800000011921,743845.0999999642,7067,NNB,C,3
4,test,4,0.0,2-Back,1,m,Thu Feb 20 2025 13:26:52 GMT-0600 (Central Standard Time),747744.5,030_o_f_n_a.png,O,m,954,6,1,1979.9000000357628,745764.5999999642,7067,NNB,C,4
5,test,4,0.0,2-Back,1,m,Thu Feb 20 2025 13:26:52 GMT-0600 (Central Standard Time),750110.1999999881,006_m_f_n_a.png,O,m,1322,7,1,2343.800000011921,747766.3999999762,7067,NNB,C,5
6,test,4,0.0,2-Back,1,m,Thu Feb 20 2025 13:26:52 GMT-0600 (Central Standard Time),751875.8999999762,031_y_m_n_a.png,O,m,725,8,1,1738.8999999761581,750137.0,7067,NNB,C,6
7,test,4,1.0,2-Back,1,z,Thu Feb 20 2025 13:26:52 GMT-0600 (Central Standard Time),753624.7999999523,006_m_f_n_a.png,O,z,709,9,1,1735.0,751889.7999999523,7067,NNB,C,7
8,test,4,0.0,2-Back,1,m,Thu Feb 20 2025 13:26:52 GMT-0600 (Central Standard Time),755675.0999999642,092_m_m_n_a.png,O,m,1018,10,1,2046.5999999642372,753628.5,7067,NNB,C,8
9,test,4,0.0,2-Back,1,m,Thu Feb 20 2025 13:26:52 GMT-0600 (Central Standard Time),757990.8999999762,031_y_m_n_a.png,O,m,1272,11,1,2292.600000023842,755698.2999999523,7067,NNB,C,9
10,test,4,0.0,2-Back,1,m,Thu Feb 20 2025 13:26:52 GMT-0600 (Central Standard Time),759956.7999999523,130_o_f_n_a.png,O,m,925,12,1,1948.0999999642372,758008.6999999881,7067,NNB,C,10
11,test,4,0.0,2-Back,1,m,Thu Feb 20 2025 13:26:52 GMT-0600 (Central Standard Time),762306.0999999642,057_y_m_n_a.png,O,m,1310,13,1,2322.599999964237,759983.5,7067,NNB,C,11
11,test,4,1.0,2-Back,0,z,Thu Feb 20 2025 13:26:52 GMT-0600 (Central Standard Time),764505.5999999642,130_o_f_n_a.png,O,m,1153,14,1,2177.899999976158,762327.6999999881,7067,NNB,C,12
11,test,4,1.0,2-Back,0,z,Thu Feb 20 2025 13:26:52 GMT-0600 (Central Standard Time),766571.0,057_y_m_n_a.png,O,m,1025,15,1,2040.0,764531.0,7067,NNB,C,13
12,test,4,0.0,2-Back,1,m,Thu Feb 20 2025 13:26:52 GMT-0600 (Central Standard Time),768520.5999999642,082_m_m_n_a.png,O,m,911,16,1,1932.300000011921,766588.2999999523,7067,NNB,C,14
13,test,4,0.0,2-Back,1,m,Thu Feb 20 2025 13:26:52 GMT-0600 (Central Standard Time),770570.2999999523,093_m_f_n_a.png,O,m,985,17,1,2022.199999988079,768548.0999999642,7067,NNB,C,15
13,test,4,1.0,2-Back,0,z,Thu Feb 20 2025 13:26:52 GMT-0600 (Central Standard Time),772769.0999999642,082_m_m_n_a.png,O,m,1161,18,1,2173.899999976158,770595.1999999881,7067,NNB,C,16
0,test,5,1.0,2-Back,,,Thu Feb 20 2025 13:26:52 GMT-0600 (Central Standard Time),772769.0999999642,057_y_m_n_a.png,O,space,2089,1,1,2173.899999976158,770595.1999999881,7067,NNB,C,0
0,test,5,1.0,2-Back,,,Thu Feb 20 2025 13:26:52 GMT-0600 (Central Standard Time),772769.0999999642,093_m_f_n_a.png,O,space,2089,2,1,2173.899999976158,770595.1999999881,7067,NNB,C,0
1,test,5,1.0,2-Back,1,z,Thu Feb 20 2025 13:26:52 GMT-0600 (Central Standard Time),782116.3999999762,057_y_m_n_a.png,O,z,874,3,1,1893.8999999761581,780222.5,7067,NNB,C,1
2,test,5,1.0,2-Back,1,z,Thu Feb 20 2025 13:26:52 GMT-0600 (Central Standard Time),784349.0,093_m_f_n_a.png,O,z,1165,4,1,2202.900000035763,782146.0999999642,7067,NNB,C,2
3,test,5,0.0,2-Back,1,m,Thu Feb 20 2025 13:26:52 GMT-0600 (Central Standard Time),786215.1999999881,130_o_f_n_a.png,O,m,822,5,1,1843.0,784372.1999999881,7067,NNB,C,3
3,test,5,0.0,2-Back,0,m,Thu Feb 20 2025 13:26:52 GMT-0600 (Central Standard Time),788746.5999999642,057_y_m_n_a.png,O,z,1489,6,1,2513.099999964237,786233.5,7067,NNB,C,4
4,test,5,0.0,2-Back,1,m,Thu Feb 20 2025 13:26:52 GMT-0600 (Central Standard Time),790596.2999999523,028_y_f_n_a.png,O,m,832,7,1,1845.5,788750.7999999523,7067,NNB,C,5
5,test,5,0.0,2-Back,1,m,Thu Feb 20 2025 13:26:52 GMT-0600 (Central Standard Time),792512.5,130_o_f_n_a.png,O,m,887,8,1,1910.4000000357628,790602.0999999642,7067,NNB,C,6
6,test,5,1.0,2-Back,1,z,Thu Feb 20 2025 13:26:52 GMT-0600 (Central Standard Time),794612.0999999642,028_y_f_n_a.png,O,z,1075,9,1,2092.199999988079,792519.8999999762,7067,NNB,C,7
7,test,5,0.0,2-Back,1,m,Thu Feb 20 2025 13:26:52 GMT-0600 (Central Standard Time),796727.7999999523,146_o_m_n_a.png,O,m,1071,10,1,2090.7999999523163,794637.0,7067,NNB,C,8
8,test,5,0.0,2-Back,1,m,Thu Feb 20 2025 13:26:52 GMT-0600 (Central Standard Time),798893.3999999762,006_m_f_n_a.png,O,m,1138,11,1,2153.0,796740.3999999762,7067,NNB,C,9
9,test,5,0.0,2-Back,1,m,Thu Feb 20 2025 13:26:52 GMT-0600 (Central Standard Time),800876.6999999881,092_m_m_n_a.png,O,m,959,12,1,1978.4000000357628,798898.2999999523,7067,NNB,C,10
9,test,5,0.0,2-Back,0,m,Thu Feb 20 2025 13:26:52 GMT-0600 (Central Standard Time),803559.3999999762,146_o_m_n_a.png,O,z,1638,13,1,2662.300000011921,800897.0999999642,7067,NNB,C,11
9,test,5,1.0,2-Back,0,z,Thu Feb 20 2025 13:26:52 GMT-0600 (Central Standard Time),805425.0999999642,092_m_m_n_a.png,O,m,827,14,1,1848.5999999642372,803576.5,7067,NNB,C,12
10,test,5,0.0,2-Back,1,m,Thu Feb 20 2025 13:26:52 GMT-0600 (Central Standard Time),807407.7999999523,098_y_f_n_a.png,O,m,945,15,1,1968.7999999523163,805439.0,7067,NNB,C,13
11,test,5,0.0,2-Back,1,m,Thu Feb 20 2025 13:26:52 GMT-0600 (Central Standard Time),809457.0,059_o_m_n_a.png,O,m,1010,16,1,2030.4000000357628,807426.5999999642,7067,NNB,C,14
12,test,5,0.0,2-Back,1,m,Thu Feb 20 2025 13:26:52 GMT-0600 (Central Standard Time),811523.3999999762,006_m_f_n_a.png,O,m,1025,17,1,2036.800000011921,809486.5999999642,7067,NNB,C,15
13,test,5,1.0,2-Back,1,z,Thu Feb 20 2025 13:26:52 GMT-0600 (Central Standard Time),813289.1999999881,059_o_m_n_a.png,O,z,703,18,1,1731.800000011921,811557.3999999762,7067,NNB,C,16
