block_c,block_dur,condition,countdown,datetime,endtime,list,multichar_response,project,response,response_time,session_number,start_end,starttime,subject_id,task,task_vers,trial
,,,,Fri Apr 11 2025 16:02:57 GMT-0500 (Central Daylight Time),,,,O,space,505,1,,,7107,WL,A,
prac,,0,,Fri Apr 11 2025 16:02:57 GMT-0500 (Central Daylight Time),,NA,b,O,b,1837,1,,,7107,WL,A,1.0
prac,,0,,Fri Apr 11 2025 16:02:57 GMT-0500 (Central Daylight Time),,NA,bo,O,o,176,1,,,7107,WL,A,1.0
prac,,0,,Fri Apr 11 2025 16:02:57 GMT-0500 (Central Daylight Time),,NA,boo,O,o,97,1,,,7107,WL,A,1.0
prac,,0,,Fri Apr 11 2025 16:02:57 GMT-0500 (Central Daylight Time),,NA,boos,O,s,457,1,,,7107,WL,A,1.0
prac,,0,,Fri Apr 11 2025 16:02:57 GMT-0500 (Central Daylight Time),,NA,boost,O,t,52,1,,,7107,WL,A,1.0
prac,,0,,Fri Apr 11 2025 16:02:57 GMT-0500 (Central Daylight Time),,NA,boostenter,O,enter,396,1,,,7107,WL,A,1.0
1,1.0,learn,59000.0,Fri Apr 11 2025 16:02:57 GMT-0500 (Central Daylight Time),114813.5,A,b,O,b,963,1,998.7999999523163,113814.70000004768,7107,WL,A,1.0
1,1.4160001277923584,learn,58583.99987220764,Fri Apr 11 2025 16:02:57 GMT-0500 (Central Daylight Time),115229.70000004768,A,bo,O,o,380,1,1415.0,113814.70000004768,7107,WL,A,1.0
1,1.6000001430511475,learn,58399.99985694885,Fri Apr 11 2025 16:02:57 GMT-0500 (Central Daylight Time),115412.79999995232,A,boo,O,o,155,1,1598.0999999046326,113814.70000004768,7107,WL,A,1.0
1,1.8330001831054688,learn,58166.99981689453,Fri Apr 11 2025 16:02:57 GMT-0500 (Central Daylight Time),115646.20000004768,A,book,O,k,199,1,1831.5,113814.70000004768,7107,WL,A,1.0
1,2.0820000171661377,learn,57917.99998283386,Fri Apr 11 2025 16:02:57 GMT-0500 (Central Daylight Time),115895.10000002384,A,bookenter,O,enter,210,1,2080.399999976158,113814.70000004768,7107,WL,A,1.0
1,2.449000120162964,learn,57550.999879837036,Fri Apr 11 2025 16:02:57 GMT-0500 (Central Daylight Time),116262.5,A,f,O,f,348,1,366.7999999523163,115895.70000004768,7107,WL,A,2.0
1,2.5320000648498535,learn,57467.99993515015,Fri Apr 11 2025 16:02:57 GMT-0500 (Central Daylight Time),116344.89999997616,A,fl,O,l,37,1,449.1999999284744,115895.70000004768,7107,WL,A,2.0
1,2.699000120162964,learn,57300.999879837036,Fri Apr 11 2025 16:02:57 GMT-0500 (Central Daylight Time),116512.39999997616,A,flo,O,o,151,1,616.6999999284744,115895.70000004768,7107,WL,A,2.0
1,2.8330001831054688,learn,57166.99981689453,Fri Apr 11 2025 16:02:57 GMT-0500 (Central Daylight Time),116646.0,A,floq,O,q,109,1,750.2999999523163,115895.70000004768,7107,WL,A,2.0
1,2.873000144958496,learn,57126.999855041504,Fri Apr 11 2025 16:02:57 GMT-0500 (Central Daylight Time),116686.20000004768,A,floqe,O,e,3,1,790.5,115895.70000004768,7107,WL,A,2.0
1,2.948000192642212,learn,57051.99980735779,Fri Apr 11 2025 16:02:57 GMT-0500 (Central Daylight Time),116761.29999995232,A,floqer,O,r,40,1,865.5999999046326,115895.70000004768,7107,WL,A,2.0
1,3.383000135421753,learn,56616.99986457825,Fri Apr 11 2025 16:02:57 GMT-0500 (Central Daylight Time),117195.79999995232,A,floqe,O,backspace,411,1,1300.0999999046326,115895.70000004768,7107,WL,A,2.0
1,3.565999984741211,learn,56434.00001525879,Fri Apr 11 2025 16:02:57 GMT-0500 (Central Daylight Time),117379.0,A,floq,O,backspace,137,1,1483.2999999523163,115895.70000004768,7107,WL,A,2.0
1,3.7160000801086426,learn,56283.99991989136,Fri Apr 11 2025 16:02:57 GMT-0500 (Central Daylight Time),117528.70000004768,A,flo,O,backspace,117,1,1633.0,115895.70000004768,7107,WL,A,2.0
1,4.5320000648498535,learn,55467.99993515015,Fri Apr 11 2025 16:02:57 GMT-0500 (Central Daylight Time),118345.10000002384,A,flow,O,w,780,1,2449.399999976158,115895.70000004768,7107,WL,A,2.0
1,5.0320000648498535,learn,54967.99993515015,Fri Apr 11 2025 16:02:57 GMT-0500 (Central Daylight Time),118845.10000002384,A,flowe,O,e,466,1,2949.399999976158,115895.70000004768,7107,WL,A,2.0
1,5.2820000648498535,learn,54717.99993515015,Fri Apr 11 2025 16:02:57 GMT-0500 (Central Daylight Time),119094.89999997616,A,flower,O,r,209,1,3199.1999999284744,115895.70000004768,7107,WL,A,2.0
1,5.731000185012817,learn,54268.99981498718,Fri Apr 11 2025 16:02:57 GMT-0500 (Central Daylight Time),119543.89999997616,A,flowerenter,O,enter,404,1,3648.1999999284744,115895.70000004768,7107,WL,A,2.0
1,6.449000120162964,learn,53550.999879837036,Fri Apr 11 2025 16:02:57 GMT-0500 (Central Daylight Time),120261.29999995232,A,m,O,m,700,1,717.0,119544.29999995232,7107,WL,A,3.0
1,6.531000137329102,learn,53468.9998626709,Fri Apr 11 2025 16:02:57 GMT-0500 (Central Daylight Time),120343.79999995232,A,me,O,e,43,1,799.5,119544.29999995232,7107,WL,A,3.0
1,6.5980000495910645,learn,53401.999950408936,Fri Apr 11 2025 16:02:57 GMT-0500 (Central Daylight Time),120410.5,A,mea,O,a,41,1,866.2000000476837,119544.29999995232,7107,WL,A,3.0
1,6.948000192642212,learn,53051.99980735779,Fri Apr 11 2025 16:02:57 GMT-0500 (Central Daylight Time),120761.0,A,mead,O,d,327,1,1216.7000000476837,119544.29999995232,7107,WL,A,3.0
1,7.082000017166138,learn,52917.99998283386,Fri Apr 11 2025 16:02:57 GMT-0500 (Central Daylight Time),120894.39999997616,A,meado,O,o,92,1,1350.1000000238419,119544.29999995232,7107,WL,A,3.0
1,7.215000152587891,learn,52784.99984741211,Fri Apr 11 2025 16:02:57 GMT-0500 (Central Daylight Time),121027.29999995232,A,meadow,O,w,88,1,1483.0,119544.29999995232,7107,WL,A,3.0
1,7.447000026702881,learn,52552.99997329712,Fri Apr 11 2025 16:02:57 GMT-0500 (Central Daylight Time),121260.0,A,meadowenter,O,enter,196,1,1715.7000000476837,119544.29999995232,7107,WL,A,3.0
1,7.715000152587891,learn,52284.99984741211,Fri Apr 11 2025 16:02:57 GMT-0500 (Central Daylight Time),121527.70000004768,A,c,O,c,248,1,267.40000009536743,121260.29999995232,7107,WL,A,4.0
1,7.797000169754028,learn,52202.99983024597,Fri Apr 11 2025 16:02:57 GMT-0500 (Central Daylight Time),121610.10000002384,A,ch,O,h,41,1,349.8000000715256,121260.29999995232,7107,WL,A,4.0
1,7.948000192642212,learn,52051.99980735779,Fri Apr 11 2025 16:02:57 GMT-0500 (Central Daylight Time),121760.5,A,chi,O,i,128,1,500.2000000476837,121260.29999995232,7107,WL,A,4.0
1,8.148000001907349,learn,51851.99999809265,Fri Apr 11 2025 16:02:57 GMT-0500 (Central Daylight Time),121960.79999995232,A,chim,O,m,171,1,700.5,121260.29999995232,7107,WL,A,4.0
1,8.365000009536743,learn,51634.99999046326,Fri Apr 11 2025 16:02:57 GMT-0500 (Central Daylight Time),122177.5,A,chimn,O,n,182,1,917.2000000476837,121260.29999995232,7107,WL,A,4.0
1,8.498000144958496,learn,51501.999855041504,Fri Apr 11 2025 16:02:57 GMT-0500 (Central Daylight Time),122310.39999997616,A,chimne,O,e,94,1,1050.1000000238419,121260.29999995232,7107,WL,A,4.0
1,9.04800009727478,learn,50951.99990272522,Fri Apr 11 2025 16:02:57 GMT-0500 (Central Daylight Time),122860.39999997616,A,chimney,O,y,513,1,1600.1000000238419,121260.29999995232,7107,WL,A,4.0
1,9.562999963760376,learn,50437.000036239624,Fri Apr 11 2025 16:02:57 GMT-0500 (Central Daylight Time),123376.0,A,chimneyenter,O,enter,480,1,2115.7000000476837,121260.29999995232,7107,WL,A,4.0
1,9.831000089645386,learn,50168.999910354614,Fri Apr 11 2025 16:02:57 GMT-0500 (Central Daylight Time),123643.20000004768,A,g,O,g,252,1,266.8000000715256,123376.39999997616,7107,WL,A,5.0
1,9.96399998664856,learn,50036.00001335144,Fri Apr 11 2025 16:02:57 GMT-0500 (Central Daylight Time),123776.89999997616,A,go,O,o,86,1,400.5,123376.39999997616,7107,WL,A,5.0
1,10.180999994277954,learn,49819.000005722046,Fri Apr 11 2025 16:02:57 GMT-0500 (Central Daylight Time),123993.39999997616,A,gol,O,l,188,1,617.0,123376.39999997616,7107,WL,A,5.0
1,10.46399998664856,learn,49536.00001335144,Fri Apr 11 2025 16:02:57 GMT-0500 (Central Daylight Time),124276.70000004768,A,gold,O,d,255,1,900.3000000715256,123376.39999997616,7107,WL,A,5.0
1,10.646000146865845,learn,49353.999853134155,Fri Apr 11 2025 16:02:57 GMT-0500 (Central Daylight Time),124459.0,A,goldenter,O,enter,139,1,1082.6000000238419,123376.39999997616,7107,WL,A,5.0
1,11.013000011444092,learn,48986.99998855591,Fri Apr 11 2025 16:02:57 GMT-0500 (Central Daylight Time),124825.39999997616,A,k,O,k,344,1,366.10000002384186,124459.29999995232,7107,WL,A,6.0
1,11.147000074386597,learn,48852.9999256134,Fri Apr 11 2025 16:02:57 GMT-0500 (Central Daylight Time),124959.79999995232,A,ke,O,e,115,1,500.5,124459.29999995232,7107,WL,A,6.0
1,11.263000011444092,learn,48736.99998855591,Fri Apr 11 2025 16:02:57 GMT-0500 (Central Daylight Time),125076.0,A,key,O,y,82,1,616.7000000476837,124459.29999995232,7107,WL,A,6.0
1,11.595999956130981,learn,48404.00004386902,Fri Apr 11 2025 16:02:57 GMT-0500 (Central Daylight Time),125408.70000004768,A,keyenter,O,enter,298,1,949.4000000953674,124459.29999995232,7107,WL,A,6.0
1,12.230000019073486,learn,47769.999980926514,Fri Apr 11 2025 16:02:57 GMT-0500 (Central Daylight Time),126042.60000002384,A,h,O,h,620,1,633.5,125409.10000002384,7107,WL,A,7.0
1,12.296000003814697,learn,47703.9999961853,Fri Apr 11 2025 16:02:57 GMT-0500 (Central Daylight Time),126108.39999997616,A,ha,O,a,31,1,699.2999999523163,125409.10000002384,7107,WL,A,7.0
1,12.413000106811523,learn,47586.99989318848,Fri Apr 11 2025 16:02:57 GMT-0500 (Central Daylight Time),126225.70000004768,A,har,O,r,95,1,816.6000000238419,125409.10000002384,7107,WL,A,7.0
1,12.513000011444092,learn,47486.99998855591,Fri Apr 11 2025 16:02:57 GMT-0500 (Central Daylight Time),126325.89999997616,A,harp,O,p,77,1,916.7999999523163,125409.10000002384,7107,WL,A,7.0
1,12.796000003814697,learn,47203.9999961853,Fri Apr 11 2025 16:02:57 GMT-0500 (Central Daylight Time),126608.29999995232,A,harpenter,O,enter,253,1,1199.1999999284744,125409.10000002384,7107,WL,A,7.0
1,14.413000106811523,learn,45586.99989318848,Fri Apr 11 2025 16:02:57 GMT-0500 (Central Daylight Time),128225.20000004768,A,t,O,t,1596,1,1616.6000000238419,126608.60000002384,7107,WL,A,8.0
1,14.61300015449524,learn,45386.99984550476,Fri Apr 11 2025 16:02:57 GMT-0500 (Central Daylight Time),128425.39999997616,A,tr,O,r,167,1,1816.7999999523163,126608.60000002384,7107,WL,A,8.0
1,14.696000099182129,learn,45303.99990081787,Fri Apr 11 2025 16:02:57 GMT-0500 (Central Daylight Time),128508.60000002384,A,tra,O,a,55,1,1900.0,126608.60000002384,7107,WL,A,8.0
1,14.778000116348267,learn,45221.99988365173,Fri Apr 11 2025 16:02:57 GMT-0500 (Central Daylight Time),128590.89999997616,A,trai,O,i,43,1,1982.2999999523163,126608.60000002384,7107,WL,A,8.0
1,14.861999988555908,learn,45138.00001144409,Fri Apr 11 2025 16:02:57 GMT-0500 (Central Daylight Time),128674.79999995232,A,train,O,n,60,1,2066.1999999284744,126608.60000002384,7107,WL,A,8.0
1,15.111999988555908,learn,44888.00001144409,Fri Apr 11 2025 16:02:57 GMT-0500 (Central Daylight Time),128925.10000002384,A,trainenter,O,enter,230,1,2316.5,126608.60000002384,7107,WL,A,8.0
1,18.24500012397766,learn,41754.99987602234,Fri Apr 11 2025 16:02:57 GMT-0500 (Central Daylight Time),132057.20000004768,A,f,O,f,3121,1,3131.8000000715256,128925.39999997616,7107,WL,A,9.0
1,18.344000101089478,learn,41655.99989891052,Fri Apr 11 2025 16:02:57 GMT-0500 (Central Daylight Time),132156.70000004768,A,fi,O,i,68,1,3231.3000000715256,128925.39999997616,7107,WL,A,9.0
1,18.394999980926514,learn,41605.000019073486,Fri Apr 11 2025 16:02:57 GMT-0500 (Central Daylight Time),132207.70000004768,A,fin,O,n,31,1,3282.3000000715256,128925.39999997616,7107,WL,A,9.0
1,18.460999965667725,learn,41539.000034332275,Fri Apr 11 2025 16:02:57 GMT-0500 (Central Daylight Time),132273.39999997616,A,fing,O,g,52,1,3348.0,128925.39999997616,7107,WL,A,9.0
1,18.64400005340576,learn,41355.99994659424,Fri Apr 11 2025 16:02:57 GMT-0500 (Central Daylight Time),132456.89999997616,A,finge,O,e,159,1,3531.5,128925.39999997616,7107,WL,A,9.0
1,18.710999965667725,learn,41289.000034332275,Fri Apr 11 2025 16:02:57 GMT-0500 (Central Daylight Time),132523.20000004768,A,finger,O,r,33,1,3597.8000000715256,128925.39999997616,7107,WL,A,9.0
1,18.877000093460083,learn,41122.99990653992,Fri Apr 11 2025 16:02:57 GMT-0500 (Central Daylight Time),132689.60000002384,A,fingerenter,O,enter,136,1,3764.2000000476837,128925.39999997616,7107,WL,A,9.0
1,33.6560001373291,learn,26343.9998626709,Fri Apr 11 2025 16:02:57 GMT-0500 (Central Daylight Time),147468.10000002384,A,enter,O,enter,14771,1,14778.300000071526,132689.79999995232,7107,WL,A,10.0
1,33.855000019073486,learn,26144.999980926514,Fri Apr 11 2025 16:02:57 GMT-0500 (Central Daylight Time),147668.0,A,enter,O,enter,183,1,199.39999997615814,147468.60000002384,7107,WL,A,11.0
1,33.98900008201599,learn,26010.99991798401,Fri Apr 11 2025 16:02:57 GMT-0500 (Central Daylight Time),147801.29999995232,A,enter,O,enter,120,1,132.89999997615814,147668.39999997616,7107,WL,A,12.0
1,34.371999979019165,learn,25628.000020980835,Fri Apr 11 2025 16:02:57 GMT-0500 (Central Daylight Time),148184.5,A,enter,O,enter,371,1,382.89999997615814,147801.60000002384,7107,WL,A,13.0
1,34.57200002670288,learn,25427.99997329712,Fri Apr 11 2025 16:02:57 GMT-0500 (Central Daylight Time),148384.5,A,enter,O,enter,187,1,199.60000002384186,148184.89999997616,7107,WL,A,14.0
1,34.7720000743866,learn,25227.999925613403,Fri Apr 11 2025 16:02:57 GMT-0500 (Central Daylight Time),148584.39999997616,A,enter,O,enter,179,1,199.60000002384186,148384.79999995232,7107,WL,A,15.0
2,0.7990000247955322,learn,59200.99997520447,Fri Apr 11 2025 16:02:57 GMT-0500 (Central Daylight Time),216196.5,A,b,O,b,767,1,798.7000000476837,215397.79999995232,7107,WL,A,1.0
2,0.999000072479248,learn,59000.99992752075,Fri Apr 11 2025 16:02:57 GMT-0500 (Central Daylight Time),216396.39999997616,A,bo,O,o,163,1,998.6000000238419,215397.79999995232,7107,WL,A,1.0
2,1.1660001277923584,learn,58833.99987220764,Fri Apr 11 2025 16:02:57 GMT-0500 (Central Daylight Time),216563.20000004768,A,boo,O,o,127,1,1165.4000000953674,215397.79999995232,7107,WL,A,1.0
2,1.3329999446868896,learn,58667.00005531311,Fri Apr 11 2025 16:02:57 GMT-0500 (Central Daylight Time),216729.79999995232,A,book,O,k,128,1,1332.0,215397.79999995232,7107,WL,A,1.0
2,1.6150000095367432,learn,58384.99999046326,Fri Apr 11 2025 16:02:57 GMT-0500 (Central Daylight Time),217012.0,A,bookenter,O,enter,245,1,1614.2000000476837,215397.79999995232,7107,WL,A,1.0
2,1.8819999694824219,learn,58118.00003051758,Fri Apr 11 2025 16:02:57 GMT-0500 (Central Daylight Time),217279.0,A,f,O,f,249,1,266.7000000476837,217012.29999995232,7107,WL,A,2.0
2,1.9479999542236328,learn,58052.00004577637,Fri Apr 11 2025 16:02:57 GMT-0500 (Central Daylight Time),217345.29999995232,A,fl,O,l,34,1,333.0,217012.29999995232,7107,WL,A,2.0
2,2.131999969482422,learn,57868.00003051758,Fri Apr 11 2025 16:02:57 GMT-0500 (Central Daylight Time),217529.29999995232,A,flo,O,o,168,1,517.0,217012.29999995232,7107,WL,A,2.0
2,2.248000144958496,learn,57751.999855041504,Fri Apr 11 2025 16:02:57 GMT-0500 (Central Daylight Time),217645.60000002384,A,flow,O,w,92,1,633.3000000715256,217012.29999995232,7107,WL,A,2.0
2,2.2810001373291016,learn,57718.9998626709,Fri Apr 11 2025 16:02:57 GMT-0500 (Central Daylight Time),217678.39999997616,A,flowe,O,e,3,1,666.1000000238419,217012.29999995232,7107,WL,A,2.0
2,2.365000009536743,learn,57634.99999046326,Fri Apr 11 2025 16:02:57 GMT-0500 (Central Daylight Time),217761.79999995232,A,flower,O,r,68,1,749.5,217012.29999995232,7107,WL,A,2.0
2,2.680999994277954,learn,57319.000005722046,Fri Apr 11 2025 16:02:57 GMT-0500 (Central Daylight Time),218078.20000004768,A,flowerenter,O,enter,306,1,1065.9000000953674,217012.29999995232,7107,WL,A,2.0
2,3.315000057220459,learn,56684.99994277954,Fri Apr 11 2025 16:02:57 GMT-0500 (Central Daylight Time),218712.5,A,c,O,c,614,1,634.0,218078.5,7107,WL,A,3.0
2,3.38100004196167,learn,56618.99995803833,Fri Apr 11 2025 16:02:57 GMT-0500 (Central Daylight Time),218778.10000002384,A,ch,O,h,33,1,699.6000000238419,218078.5,7107,WL,A,3.0
2,3.498000144958496,learn,56501.999855041504,Fri Apr 11 2025 16:02:57 GMT-0500 (Central Daylight Time),218895.39999997616,A,chi,O,i,98,1,816.8999999761581,218078.5,7107,WL,A,3.0
2,3.7150001525878906,learn,56284.99984741211,Fri Apr 11 2025 16:02:57 GMT-0500 (Central Daylight Time),219112.39999997616,A,chim,O,m,180,1,1033.8999999761581,218078.5,7107,WL,A,3.0
2,3.947999954223633,learn,56052.00004577637,Fri Apr 11 2025 16:02:57 GMT-0500 (Central Daylight Time),219345.70000004768,A,chimn,O,n,193,1,1267.2000000476837,218078.5,7107,WL,A,3.0
2,4.416000127792358,learn,55583.99987220764,Fri Apr 11 2025 16:02:57 GMT-0500 (Central Daylight Time),219812.79999995232,A,chimne,O,e,439,1,1734.2999999523163,218078.5,7107,WL,A,3.0
2,4.5980000495910645,learn,55401.999950408936,Fri Apr 11 2025 16:02:57 GMT-0500 (Central Daylight Time),219995.29999995232,A,chimney,O,y,140,1,1916.7999999523163,218078.5,7107,WL,A,3.0
2,4.880000114440918,learn,55119.99988555908,Fri Apr 11 2025 16:02:57 GMT-0500 (Central Daylight Time),220277.5,A,chimneyenter,O,enter,252,1,2199.0,218078.5,7107,WL,A,3.0
2,5.5980000495910645,learn,54401.999950408936,Fri Apr 11 2025 16:02:57 GMT-0500 (Central Daylight Time),220994.89999997616,A,g,O,g,695,1,717.1000000238419,220277.79999995232,7107,WL,A,4.0
2,5.680000066757202,learn,54319.9999332428,Fri Apr 11 2025 16:02:57 GMT-0500 (Central Daylight Time),221077.39999997616,A,go,O,o,52,1,799.6000000238419,220277.79999995232,7107,WL,A,4.0
2,6.21399998664856,learn,53786.00001335144,Fri Apr 11 2025 16:02:57 GMT-0500 (Central Daylight Time),221611.39999997616,A,gol,O,l,514,1,1333.6000000238419,220277.79999995232,7107,WL,A,4.0
2,6.3470001220703125,learn,53652.99987792969,Fri Apr 11 2025 16:02:57 GMT-0500 (Central Daylight Time),221744.10000002384,A,gold,O,d,94,1,1466.3000000715256,220277.79999995232,7107,WL,A,4.0
2,6.5970001220703125,learn,53402.99987792969,Fri Apr 11 2025 16:02:57 GMT-0500 (Central Daylight Time),221993.70000004768,A,goldenter,O,enter,228,1,1715.9000000953674,220277.79999995232,7107,WL,A,4.0
2,6.996999979019165,learn,53003.000020980835,Fri Apr 11 2025 16:02:57 GMT-0500 (Central Daylight Time),222394.29999995232,A,l,O,l,380,1,400.39999997615814,221993.89999997616,7107,WL,A,5.0
2,7.197000026702881,learn,52802.99997329712,Fri Apr 11 2025 16:02:57 GMT-0500 (Central Daylight Time),222593.79999995232,A,lo,O,o,166,1,599.8999999761581,221993.89999997616,7107,WL,A,5.0
2,7.314000129699707,learn,52685.99987030029,Fri Apr 11 2025 16:02:57 GMT-0500 (Central Daylight Time),222711.10000002384,A,log,O,g,91,1,717.2000000476837,221993.89999997616,7107,WL,A,5.0
2,7.513000011444092,learn,52486.99998855591,Fri Apr 11 2025 16:02:57 GMT-0500 (Central Daylight Time),222910.0,A,logenter,O,enter,170,1,916.1000000238419,221993.89999997616,7107,WL,A,5.0
2,7.796999931335449,learn,52203.00006866455,Fri Apr 11 2025 16:02:57 GMT-0500 (Central Daylight Time),223194.10000002384,A,s,O,s,272,1,283.7000000476837,222910.39999997616,7107,WL,A,6.0
2,7.963000059127808,learn,52036.99994087219,Fri Apr 11 2025 16:02:57 GMT-0500 (Central Daylight Time),223360.60000002384,A,sa,O,a,138,1,450.2000000476837,222910.39999997616,7107,WL,A,6.0
2,8.097000122070312,learn,51902.99987792969,Fri Apr 11 2025 16:02:57 GMT-0500 (Central Daylight Time),223494.0,A,sal,O,l,97,1,583.6000000238419,222910.39999997616,7107,WL,A,6.0
2,8.229000091552734,learn,51770.999908447266,Fri Apr 11 2025 16:02:57 GMT-0500 (Central Daylight Time),223626.5,A,salt,O,t,97,1,716.1000000238419,222910.39999997616,7107,WL,A,6.0
2,8.378999948501587,learn,51621.00005149841,Fri Apr 11 2025 16:02:57 GMT-0500 (Central Daylight Time),223776.29999995232,A,saltenter,O,enter,136,1,865.8999999761581,222910.39999997616,7107,WL,A,6.0
2,8.696000099182129,learn,51303.99990081787,Fri Apr 11 2025 16:02:57 GMT-0500 (Central Daylight Time),224093.39999997616,A,b,O,b,300,1,316.6999999284744,223776.70000004768,7107,WL,A,7.0
2,8.828999996185303,learn,51171.0000038147,Fri Apr 11 2025 16:02:57 GMT-0500 (Central Daylight Time),224226.20000004768,A,bu,O,u,98,1,449.5,223776.70000004768,7107,WL,A,7.0
2,8.980000019073486,learn,51019.999980926514,Fri Apr 11 2025 16:02:57 GMT-0500 (Central Daylight Time),224376.79999995232,A,but,O,t,136,1,600.0999999046326,223776.70000004768,7107,WL,A,7.0
2,9.146000146865845,learn,50853.999853134155,Fri Apr 11 2025 16:02:57 GMT-0500 (Central Daylight Time),224543.60000002384,A,butt,O,t,142,1,766.8999999761581,223776.70000004768,7107,WL,A,7.0
2,9.27999997138977,learn,50720.00002861023,Fri Apr 11 2025 16:02:57 GMT-0500 (Central Daylight Time),224676.70000004768,A,butto,O,o,100,1,900.0,223776.70000004768,7107,WL,A,7.0
2,9.345999956130981,learn,50654.00004386902,Fri Apr 11 2025 16:02:57 GMT-0500 (Central Daylight Time),224742.89999997616,A,button,O,n,32,1,966.1999999284744,223776.70000004768,7107,WL,A,7.0
2,9.595999956130981,learn,50404.00004386902,Fri Apr 11 2025 16:02:57 GMT-0500 (Central Daylight Time),224992.70000004768,A,buttonenter,O,enter,230,1,1216.0,223776.70000004768,7107,WL,A,7.0
2,10.52999997138977,learn,49470.00002861023,Fri Apr 11 2025 16:02:57 GMT-0500 (Central Daylight Time),225926.60000002384,A,t,O,t,917,1,933.7000000476837,224992.89999997616,7107,WL,A,8.0
2,11.095999956130981,learn,48904.00004386902,Fri Apr 11 2025 16:02:57 GMT-0500 (Central Daylight Time),226493.0,A,tr,O,r,540,1,1500.1000000238419,224992.89999997616,7107,WL,A,8.0
2,11.263000011444092,learn,48736.99998855591,Fri Apr 11 2025 16:02:57 GMT-0500 (Central Daylight Time),226659.70000004768,A,tra,O,a,135,1,1666.8000000715256,224992.89999997616,7107,WL,A,8.0
2,11.378999948501587,learn,48621.00005149841,Fri Apr 11 2025 16:02:57 GMT-0500 (Central Daylight Time),226776.29999995232,A,trai,O,i,78,1,1783.3999999761581,224992.89999997616,7107,WL,A,8.0
2,11.437000036239624,learn,48562.999963760376,Fri Apr 11 2025 16:02:57 GMT-0500 (Central Daylight Time),226834.20000004768,A,train,O,n,23,1,1841.3000000715256,224992.89999997616,7107,WL,A,8.0
2,11.67799997329712,learn,48322.00002670288,Fri Apr 11 2025 16:02:57 GMT-0500 (Central Daylight Time),227075.20000004768,A,trainenter,O,enter,225,1,2082.3000000715256,224992.89999997616,7107,WL,A,8.0
2,12.51200008392334,learn,47487.99991607666,Fri Apr 11 2025 16:02:57 GMT-0500 (Central Daylight Time),227909.29999995232,A,r,O,r,818,1,833.7999999523163,227075.5,7107,WL,A,9.0
2,12.760999917984009,learn,47239.00008201599,Fri Apr 11 2025 16:02:57 GMT-0500 (Central Daylight Time),228158.20000004768,A,ru,O,u,219,1,1082.7000000476837,227075.5,7107,WL,A,9.0
2,12.960999965667725,learn,47039.000034332275,Fri Apr 11 2025 16:02:57 GMT-0500 (Central Daylight Time),228358.29999995232,A,rug,O,g,181,1,1282.7999999523163,227075.5,7107,WL,A,9.0
2,13.16100001335144,learn,46838.99998664856,Fri Apr 11 2025 16:02:57 GMT-0500 (Central Daylight Time),228558.10000002384,A,rugenter,O,enter,188,1,1482.6000000238419,227075.5,7107,WL,A,9.0
2,15.927000045776367,learn,44072.99995422363,Fri Apr 11 2025 16:02:57 GMT-0500 (Central Daylight Time),231324.20000004768,A,f,O,f,2750,1,2765.7000000476837,228558.5,7107,WL,A,10.0
2,16.044000148773193,learn,43955.99985122681,Fri Apr 11 2025 16:02:57 GMT-0500 (Central Daylight Time),231440.89999997616,A,fl,O,l,88,1,2882.399999976158,228558.5,7107,WL,A,10.0
2,16.210999965667725,learn,43789.000034332275,Fri Apr 11 2025 16:02:57 GMT-0500 (Central Daylight Time),231607.79999995232,A,flo,O,o,140,1,3049.2999999523163,228558.5,7107,WL,A,10.0
2,16.242000102996826,learn,43757.999897003174,Fri Apr 11 2025 16:02:57 GMT-0500 (Central Daylight Time),231638.79999995232,A,flow,O,w,3,1,3080.2999999523163,228558.5,7107,WL,A,10.0
2,16.292999982833862,learn,43707.00001716614,Fri Apr 11 2025 16:02:57 GMT-0500 (Central Daylight Time),231690.29999995232,A,flowe,O,e,27,1,3131.7999999523163,228558.5,7107,WL,A,10.0
2,16.41100001335144,learn,43588.99998664856,Fri Apr 11 2025 16:02:57 GMT-0500 (Central Daylight Time),231807.89999997616,A,flower,O,r,104,1,3249.399999976158,228558.5,7107,WL,A,10.0
2,16.80999994277954,learn,43190.00005722046,Fri Apr 11 2025 16:02:57 GMT-0500 (Central Daylight Time),232207.0,A,flowerenter,O,enter,364,1,3648.5,228558.5,7107,WL,A,10.0
2,19.30999994277954,learn,40690.00005722046,Fri Apr 11 2025 16:02:57 GMT-0500 (Central Daylight Time),234707.20000004768,A,m,O,m,2479,1,2499.9000000953674,232207.29999995232,7107,WL,A,11.0
2,19.33899998664856,learn,40661.00001335144,Fri Apr 11 2025 16:02:57 GMT-0500 (Central Daylight Time),234736.60000002384,A,me,O,e,2,1,2529.3000000715256,232207.29999995232,7107,WL,A,11.0
2,19.443000078201294,learn,40556.999921798706,Fri Apr 11 2025 16:02:57 GMT-0500 (Central Daylight Time),234840.0,A,mea,O,a,73,1,2632.7000000476837,232207.29999995232,7107,WL,A,11.0
2,19.526000022888184,learn,40473.99997711182,Fri Apr 11 2025 16:02:57 GMT-0500 (Central Daylight Time),234923.10000002384,A,mead,O,d,57,1,2715.8000000715256,232207.29999995232,7107,WL,A,11.0
2,19.943000078201294,learn,40056.999921798706,Fri Apr 11 2025 16:02:57 GMT-0500 (Central Daylight Time),235340.10000002384,A,meado,O,o,384,1,3132.8000000715256,232207.29999995232,7107,WL,A,11.0
2,20.125999927520752,learn,39874.00007247925,Fri Apr 11 2025 16:02:57 GMT-0500 (Central Daylight Time),235523.39999997616,A,meadow,O,w,142,1,3316.100000023842,232207.29999995232,7107,WL,A,11.0
2,20.39199995994568,learn,39608.00004005432,Fri Apr 11 2025 16:02:57 GMT-0500 (Central Daylight Time),235789.10000002384,A,meadowenter,O,enter,230,1,3581.8000000715256,232207.29999995232,7107,WL,A,11.0
2,30.223999977111816,learn,29776.000022888184,Fri Apr 11 2025 16:02:57 GMT-0500 (Central Daylight Time),245620.29999995232,A,h,O,h,9809,1,9830.799999952316,235789.5,7107,WL,A,12.0
2,30.32100009918213,learn,29678.99990081787,Fri Apr 11 2025 16:02:57 GMT-0500 (Central Daylight Time),245718.0,A,ha,O,a,37,1,9928.5,235789.5,7107,WL,A,12.0
2,30.388999938964844,learn,29611.000061035156,Fri Apr 11 2025 16:02:57 GMT-0500 (Central Daylight Time),245785.79999995232,A,har,O,r,39,1,9996.299999952316,235789.5,7107,WL,A,12.0
2,30.539999961853027,learn,29460.000038146973,Fri Apr 11 2025 16:02:57 GMT-0500 (Central Daylight Time),245936.39999997616,A,harp,O,p,137,1,10146.899999976158,235789.5,7107,WL,A,12.0
2,30.871999979019165,learn,29128.000020980835,Fri Apr 11 2025 16:02:57 GMT-0500 (Central Daylight Time),246269.10000002384,A,harpenter,O,enter,309,1,10479.600000023842,235789.5,7107,WL,A,12.0
2,31.954999923706055,learn,28045.000076293945,Fri Apr 11 2025 16:02:57 GMT-0500 (Central Daylight Time),247352.0,A,enter,O,enter,1071,1,1082.7000000476837,246269.29999995232,7107,WL,A,13.0
2,32.10599994659424,learn,27894.00005340576,Fri Apr 11 2025 16:02:57 GMT-0500 (Central Daylight Time),247503.10000002384,A,enter,O,enter,133,1,150.80000007152557,247352.29999995232,7107,WL,A,14.0
2,32.82200002670288,learn,27177.99997329712,Fri Apr 11 2025 16:02:57 GMT-0500 (Central Daylight Time),248218.60000002384,A,enter,O,enter,708,1,715.2000000476837,247503.39999997616,7107,WL,A,15.0
3,0.5500001907348633,learn,59449.99980926514,Fri Apr 11 2025 16:02:57 GMT-0500 (Central Daylight Time),313131.2999999523,A,l,O,l,513,1,549.5,312581.7999999523,7107,WL,A,1.0
3,0.7330000400543213,learn,59266.99995994568,Fri Apr 11 2025 16:02:57 GMT-0500 (Central Daylight Time),313313.89999997616,A,lo,O,o,148,1,732.1000000238419,312581.7999999523,7107,WL,A,1.0
3,0.7829999923706055,learn,59217.000007629395,Fri Apr 11 2025 16:02:57 GMT-0500 (Central Daylight Time),313363.7999999523,A,log,O,g,30,1,782.0,312581.7999999523,7107,WL,A,1.0
3,0.9820001125335693,learn,59017.99988746643,Fri Apr 11 2025 16:02:57 GMT-0500 (Central Daylight Time),313563.5,A,logenter,O,enter,179,1,981.7000000476837,312581.7999999523,7107,WL,A,1.0
3,1.2160000801086426,learn,58783.99991989136,Fri Apr 11 2025 16:02:57 GMT-0500 (Central Daylight Time),313796.7999999523,A,k,O,k,216,1,232.89999997615814,313563.89999997616,7107,WL,A,2.0
3,1.3489999771118164,learn,58651.00002288818,Fri Apr 11 2025 16:02:57 GMT-0500 (Central Daylight Time),313930.10000002384,A,ke,O,e,110,1,366.2000000476837,313563.89999997616,7107,WL,A,2.0
3,1.3990001678466797,learn,58600.99983215332,Fri Apr 11 2025 16:02:57 GMT-0500 (Central Daylight Time),313980.0,A,key,O,y,42,1,416.10000002384186,313563.89999997616,7107,WL,A,2.0
3,1.6650002002716064,learn,58334.99979972839,Fri Apr 11 2025 16:02:57 GMT-0500 (Central Daylight Time),314246.60000002384,A,keyenter,O,enter,247,1,682.7000000476837,313563.89999997616,7107,WL,A,2.0
3,1.882000207901001,learn,58117.999792099,Fri Apr 11 2025 16:02:57 GMT-0500 (Central Daylight Time),314463.2000000477,A,r,O,r,197,1,216.40000009536743,314246.7999999523,7107,WL,A,3.0
3,1.999000072479248,learn,58000.99992752075,Fri Apr 11 2025 16:02:57 GMT-0500 (Central Daylight Time),314579.7999999523,A,ra,O,a,108,1,333.0,314246.7999999523,7107,WL,A,3.0
3,2.132000207901001,learn,57867.999792099,Fri Apr 11 2025 16:02:57 GMT-0500 (Central Daylight Time),314713.10000002384,A,rat,O,t,119,1,466.3000000715256,314246.7999999523,7107,WL,A,3.0
3,2.315000057220459,learn,57684.99994277954,Fri Apr 11 2025 16:02:57 GMT-0500 (Central Daylight Time),314896.39999997616,A,ratt,O,t,170,1,649.6000000238419,314246.7999999523,7107,WL,A,3.0
3,2.449000120162964,learn,57550.999879837036,Fri Apr 11 2025 16:02:57 GMT-0500 (Central Daylight Time),315029.7999999523,A,rattl,O,l,115,1,783.0,314246.7999999523,7107,WL,A,3.0
3,2.5980000495910645,learn,57401.999950408936,Fri Apr 11 2025 16:02:57 GMT-0500 (Central Daylight Time),315179.60000002384,A,rattle,O,e,141,1,932.8000000715256,314246.7999999523,7107,WL,A,3.0
3,2.682000160217285,learn,57317.999839782715,Fri Apr 11 2025 16:02:57 GMT-0500 (Central Daylight Time),315263.0,A,rattleenter,O,enter,63,1,1016.2000000476837,314246.7999999523,7107,WL,A,3.0
3,2.8990001678466797,learn,57100.99983215332,Fri Apr 11 2025 16:02:57 GMT-0500 (Central Daylight Time),315480.5,A,g,O,g,198,1,217.10000002384186,315263.39999997616,7107,WL,A,4.0
3,2.999000072479248,learn,57000.99992752075,Fri Apr 11 2025 16:02:57 GMT-0500 (Central Daylight Time),315580.0,A,go,O,o,72,1,316.60000002384186,315263.39999997616,7107,WL,A,4.0
3,3.2160000801086426,learn,56783.99991989136,Fri Apr 11 2025 16:02:57 GMT-0500 (Central Daylight Time),315797.10000002384,A,gol,O,l,193,1,533.7000000476837,315263.39999997616,7107,WL,A,4.0
3,3.315000057220459,learn,56684.99994277954,Fri Apr 11 2025 16:02:57 GMT-0500 (Central Daylight Time),315896.60000002384,A,gold,O,d,69,1,633.2000000476837,315263.39999997616,7107,WL,A,4.0
3,3.499000072479248,learn,56500.99992752075,Fri Apr 11 2025 16:02:57 GMT-0500 (Central Daylight Time),316080.2999999523,A,goldenter,O,enter,154,1,816.8999999761581,315263.39999997616,7107,WL,A,4.0
3,3.8320000171661377,learn,56167.99998283386,Fri Apr 11 2025 16:02:57 GMT-0500 (Central Daylight Time),316413.39999997616,A,b,O,b,317,1,332.7999999523163,316080.60000002384,7107,WL,A,5.0
3,3.932000160217285,learn,56067.999839782715,Fri Apr 11 2025 16:02:57 GMT-0500 (Central Daylight Time),316513.5,A,bo,O,o,61,1,432.89999997615814,316080.60000002384,7107,WL,A,5.0
3,4.082000017166138,learn,55917.99998283386,Fri Apr 11 2025 16:02:57 GMT-0500 (Central Daylight Time),316663.10000002384,A,boo,O,o,109,1,582.5,316080.60000002384,7107,WL,A,5.0
3,4.182000160217285,learn,55817.999839782715,Fri Apr 11 2025 16:02:57 GMT-0500 (Central Daylight Time),316763.10000002384,A,book,O,k,76,1,682.5,316080.60000002384,7107,WL,A,5.0
3,4.4150002002716064,learn,55584.99979972839,Fri Apr 11 2025 16:02:57 GMT-0500 (Central Daylight Time),316995.7999999523,A,bookenter,O,enter,203,1,915.1999999284744,316080.60000002384,7107,WL,A,5.0
3,4.632000207901001,learn,55367.999792099,Fri Apr 11 2025 16:02:57 GMT-0500 (Central Daylight Time),317212.7000000477,A,f,O,f,208,1,216.60000002384186,316996.10000002384,7107,WL,A,6.0
3,4.732000112533569,learn,55267.99988746643,Fri Apr 11 2025 16:02:57 GMT-0500 (Central Daylight Time),317312.89999997616,A,fl,O,l,68,1,316.7999999523163,316996.10000002384,7107,WL,A,6.0
3,4.89900016784668,learn,55100.99983215332,Fri Apr 11 2025 16:02:57 GMT-0500 (Central Daylight Time),317479.7999999523,A,flo,O,o,129,1,483.6999999284744,316996.10000002384,7107,WL,A,6.0
3,4.950000047683716,learn,55049.999952316284,Fri Apr 11 2025 16:02:57 GMT-0500 (Central Daylight Time),317531.5,A,flow,O,w,26,1,535.3999999761581,316996.10000002384,7107,WL,A,6.0
3,5.014000177383423,learn,54985.99982261658,Fri Apr 11 2025 16:02:57 GMT-0500 (Central Daylight Time),317595.5,A,flowe,O,e,41,1,599.3999999761581,316996.10000002384,7107,WL,A,6.0
3,5.0980000495910645,learn,54901.999950408936,Fri Apr 11 2025 16:02:57 GMT-0500 (Central Daylight Time),317678.89999997616,A,flower,O,r,64,1,682.7999999523163,316996.10000002384,7107,WL,A,6.0
3,5.231000185012817,learn,54768.99981498718,Fri Apr 11 2025 16:02:57 GMT-0500 (Central Daylight Time),317812.0,A,flowerenter,O,enter,116,1,815.8999999761581,316996.10000002384,7107,WL,A,6.0
3,5.46399998664856,learn,54536.00001335144,Fri Apr 11 2025 16:02:57 GMT-0500 (Central Daylight Time),318045.39999997616,A,c,O,c,215,1,233.0,317812.39999997616,7107,WL,A,7.0
3,5.581000089645386,learn,54418.999910354614,Fri Apr 11 2025 16:02:57 GMT-0500 (Central Daylight Time),318161.89999997616,A,ch,O,h,101,1,349.5,317812.39999997616,7107,WL,A,7.0
3,5.71399998664856,learn,54286.00001335144,Fri Apr 11 2025 16:02:57 GMT-0500 (Central Daylight Time),318295.39999997616,A,chi,O,i,121,1,483.0,317812.39999997616,7107,WL,A,7.0
3,5.96399998664856,learn,54036.00001335144,Fri Apr 11 2025 16:02:57 GMT-0500 (Central Daylight Time),318545.10000002384,A,chim,O,m,236,1,732.7000000476837,317812.39999997616,7107,WL,A,7.0
3,6.246999979019165,learn,53753.000020980835,Fri Apr 11 2025 16:02:57 GMT-0500 (Central Daylight Time),318828.5,A,chimn,O,n,273,1,1016.1000000238419,317812.39999997616,7107,WL,A,7.0
3,6.581000089645386,learn,53418.999910354614,Fri Apr 11 2025 16:02:57 GMT-0500 (Central Daylight Time),319161.7000000477,A,chimne,O,e,311,1,1349.3000000715256,317812.39999997616,7107,WL,A,7.0
3,6.71399998664856,learn,53286.00001335144,Fri Apr 11 2025 16:02:57 GMT-0500 (Central Daylight Time),319295.0,A,chimney,O,y,114,1,1482.6000000238419,317812.39999997616,7107,WL,A,7.0
3,6.980000019073486,learn,53019.999980926514,Fri Apr 11 2025 16:02:57 GMT-0500 (Central Daylight Time),319561.60000002384,A,chimneyenter,O,enter,244,1,1749.2000000476837,317812.39999997616,7107,WL,A,7.0
3,8.098000049591064,learn,51901.999950408936,Fri Apr 11 2025 16:02:57 GMT-0500 (Central Daylight Time),320678.7999999523,A,t,O,t,1100,1,1117.0,319561.7999999523,7107,WL,A,8.0
3,8.264000177383423,learn,51735.99982261658,Fri Apr 11 2025 16:02:57 GMT-0500 (Central Daylight Time),320845.2999999523,A,tr,O,r,133,1,1283.5,319561.7999999523,7107,WL,A,8.0
3,8.347000122070312,learn,51652.99987792969,Fri Apr 11 2025 16:02:57 GMT-0500 (Central Daylight Time),320927.89999997616,A,tra,O,a,52,1,1366.1000000238419,319561.7999999523,7107,WL,A,8.0
3,8.430000066757202,learn,51569.9999332428,Fri Apr 11 2025 16:02:57 GMT-0500 (Central Daylight Time),321011.10000002384,A,trai,O,i,62,1,1449.3000000715256,319561.7999999523,7107,WL,A,8.0
3,8.496999979019165,learn,51503.000020980835,Fri Apr 11 2025 16:02:57 GMT-0500 (Central Daylight Time),321077.7000000477,A,train,O,n,48,1,1515.9000000953674,319561.7999999523,7107,WL,A,8.0
3,8.696000099182129,learn,51303.99990081787,Fri Apr 11 2025 16:02:57 GMT-0500 (Central Daylight Time),321277.7000000477,A,trainenter,O,enter,189,1,1715.9000000953674,319561.7999999523,7107,WL,A,8.0
3,8.831000089645386,learn,51168.999910354614,Fri Apr 11 2025 16:02:57 GMT-0500 (Central Daylight Time),321412.60000002384,A,r,O,r,128,1,134.70000004768372,321277.89999997616,7107,WL,A,9.0
3,8.930000066757202,learn,51069.9999332428,Fri Apr 11 2025 16:02:57 GMT-0500 (Central Daylight Time),321511.2000000477,A,ru,O,u,69,1,233.30000007152557,321277.89999997616,7107,WL,A,9.0
3,9.04800009727478,learn,50951.99990272522,Fri Apr 11 2025 16:02:57 GMT-0500 (Central Daylight Time),321628.7999999523,A,rug,O,g,105,1,350.89999997615814,321277.89999997616,7107,WL,A,9.0
3,9.230000019073486,learn,50769.999980926514,Fri Apr 11 2025 16:02:57 GMT-0500 (Central Daylight Time),321810.89999997616,A,rugenter,O,enter,156,1,533.0,321277.89999997616,7107,WL,A,9.0
3,9.996999979019165,learn,50003.000020980835,Fri Apr 11 2025 16:02:57 GMT-0500 (Central Daylight Time),322578.2999999523,A,f,O,f,746,1,767.0999999046326,321811.2000000477,7107,WL,A,10.0
3,10.09600019454956,learn,49903.99980545044,Fri Apr 11 2025 16:02:57 GMT-0500 (Central Daylight Time),322677.39999997616,A,fl,O,l,71,1,866.1999999284744,321811.2000000477,7107,WL,A,10.0
3,10.263000011444092,learn,49736.99998855591,Fri Apr 11 2025 16:02:57 GMT-0500 (Central Daylight Time),322844.5,A,flo,O,o,147,1,1033.2999999523163,321811.2000000477,7107,WL,A,10.0
3,10.318000078201294,learn,49681.999921798706,Fri Apr 11 2025 16:02:57 GMT-0500 (Central Daylight Time),322899.2999999523,A,flow,O,w,23,1,1088.0999999046326,321811.2000000477,7107,WL,A,10.0
3,10.34600019454956,learn,49653.99980545044,Fri Apr 11 2025 16:02:57 GMT-0500 (Central Daylight Time),322927.39999997616,A,flowe,O,e,10,1,1116.1999999284744,321811.2000000477,7107,WL,A,10.0
3,10.463000059127808,learn,49536.99994087219,Fri Apr 11 2025 16:02:57 GMT-0500 (Central Daylight Time),323044.10000002384,A,flower,O,r,100,1,1232.8999999761581,321811.2000000477,7107,WL,A,10.0
3,10.713000059127808,learn,49286.99994087219,Fri Apr 11 2025 16:02:57 GMT-0500 (Central Daylight Time),323293.7000000477,A,flowerenter,O,enter,225,1,1482.5,321811.2000000477,7107,WL,A,10.0
3,10.913000106811523,learn,49086.99989318848,Fri Apr 11 2025 16:02:57 GMT-0500 (Central Daylight Time),323494.5,A,g,O,g,184,1,200.5,323294.0,7107,WL,A,11.0
3,11.013000011444092,learn,48986.99998855591,Fri Apr 11 2025 16:02:57 GMT-0500 (Central Daylight Time),323594.10000002384,A,go,O,o,58,1,300.10000002384186,323294.0,7107,WL,A,11.0
3,11.17900013923645,learn,48820.99986076355,Fri Apr 11 2025 16:02:57 GMT-0500 (Central Daylight Time),323760.5,A,gol,O,l,135,1,466.5,323294.0,7107,WL,A,11.0
3,11.246000051498413,learn,48753.99994850159,Fri Apr 11 2025 16:02:57 GMT-0500 (Central Daylight Time),323826.89999997616,A,gold,O,d,43,1,532.8999999761581,323294.0,7107,WL,A,11.0
3,11.412000179290771,learn,48587.99982070923,Fri Apr 11 2025 16:02:57 GMT-0500 (Central Daylight Time),323993.5,A,goldenter,O,enter,151,1,699.5,323294.0,7107,WL,A,11.0
3,17.82800006866455,learn,42171.99993133545,Fri Apr 11 2025 16:02:57 GMT-0500 (Central Daylight Time),330409.10000002384,A,c,O,c,6404,1,6415.300000071526,323993.7999999523,7107,WL,A,12.0
3,17.913000106811523,learn,42086.99989318848,Fri Apr 11 2025 16:02:57 GMT-0500 (Central Daylight Time),330494.10000002384,A,ch,O,h,40,1,6500.300000071526,323993.7999999523,7107,WL,A,12.0
3,17.99400019645691,learn,42005.99980354309,Fri Apr 11 2025 16:02:57 GMT-0500 (Central Daylight Time),330575.10000002384,A,chi,O,i,62,1,6581.300000071526,323993.7999999523,7107,WL,A,12.0
3,18.511000156402588,learn,41488.99984359741,Fri Apr 11 2025 16:02:57 GMT-0500 (Central Daylight Time),331092.0,A,chim,O,m,487,1,7098.200000047684,323993.7999999523,7107,WL,A,12.0
3,18.710000038146973,learn,41289.99996185303,Fri Apr 11 2025 16:02:57 GMT-0500 (Central Daylight Time),331291.10000002384,A,chimn,O,n,167,1,7297.300000071526,323993.7999999523,7107,WL,A,12.0
3,18.877000093460083,learn,41122.99990653992,Fri Apr 11 2025 16:02:57 GMT-0500 (Central Daylight Time),331458.2000000477,A,chimne,O,e,152,1,7464.400000095367,323993.7999999523,7107,WL,A,12.0
3,18.99400019645691,learn,41005.99980354309,Fri Apr 11 2025 16:02:57 GMT-0500 (Central Daylight Time),331574.89999997616,A,chimney,O,y,87,1,7581.100000023842,323993.7999999523,7107,WL,A,12.0
3,19.292999982833862,learn,40707.00001716614,Fri Apr 11 2025 16:02:57 GMT-0500 (Central Daylight Time),331874.2999999523,A,chimneyenter,O,enter,275,1,7880.5,323993.7999999523,7107,WL,A,12.0
3,27.341000080108643,learn,32658.999919891357,Fri Apr 11 2025 16:02:57 GMT-0500 (Central Daylight Time),339922.7999999523,A,k,O,k,8028,1,8048.199999928474,331874.60000002384,7107,WL,A,13.0
3,27.491000175476074,learn,32508.999824523926,Fri Apr 11 2025 16:02:57 GMT-0500 (Central Daylight Time),340071.89999997616,A,ke,O,e,115,1,8197.299999952316,331874.60000002384,7107,WL,A,13.0
3,27.624000072479248,learn,32375.999927520752,Fri Apr 11 2025 16:02:57 GMT-0500 (Central Daylight Time),340205.7999999523,A,key,O,y,118,1,8331.199999928474,331874.60000002384,7107,WL,A,13.0
3,28.09000015258789,learn,31909.99984741211,Fri Apr 11 2025 16:02:57 GMT-0500 (Central Daylight Time),340671.2999999523,A,keyenter,O,enter,428,1,8796.699999928474,331874.60000002384,7107,WL,A,13.0
3,32.206000089645386,learn,27793.999910354614,Fri Apr 11 2025 16:02:57 GMT-0500 (Central Daylight Time),344788.0,A,m,O,m,4094,1,4116.399999976158,340671.60000002384,7107,WL,A,14.0
3,32.276000022888184,learn,27723.999977111816,Fri Apr 11 2025 16:02:57 GMT-0500 (Central Daylight Time),344857.2999999523,A,me,O,e,13,1,4185.699999928474,340671.60000002384,7107,WL,A,14.0
3,32.355000019073486,learn,27644.999980926514,Fri Apr 11 2025 16:02:57 GMT-0500 (Central Daylight Time),344936.5,A,mea,O,a,53,1,4264.899999976158,340671.60000002384,7107,WL,A,14.0
3,32.47200012207031,learn,27527.999877929688,Fri Apr 11 2025 16:02:57 GMT-0500 (Central Daylight Time),345053.7000000477,A,mead,O,d,108,1,4382.100000023842,340671.60000002384,7107,WL,A,14.0
3,32.623000144958496,learn,27376.999855041504,Fri Apr 11 2025 16:02:57 GMT-0500 (Central Daylight Time),345204.10000002384,A,meado,O,o,125,1,4532.5,340671.60000002384,7107,WL,A,14.0
3,32.73900008201599,learn,27260.99991798401,Fri Apr 11 2025 16:02:57 GMT-0500 (Central Daylight Time),345320.2999999523,A,meadow,O,w,83,1,4648.699999928474,340671.60000002384,7107,WL,A,14.0
3,32.92200016975403,learn,27077.99983024597,Fri Apr 11 2025 16:02:57 GMT-0500 (Central Daylight Time),345503.2000000477,A,meadowenter,O,enter,166,1,4831.600000023842,340671.60000002384,7107,WL,A,14.0
3,36.03800010681152,learn,23961.999893188477,Fri Apr 11 2025 16:02:57 GMT-0500 (Central Daylight Time),348618.7000000477,A,enter,O,enter,3100,1,3115.2000000476837,345503.5,7107,WL,A,15.0
4,0.5329999923706055,learn,59467.000007629395,Fri Apr 11 2025 16:02:57 GMT-0500 (Central Daylight Time),414014.89999997616,A,l,O,l,507,1,532.6999999284744,413482.2000000477,7107,WL,A,1.0
4,0.6660001277923584,learn,59333.99987220764,Fri Apr 11 2025 16:02:57 GMT-0500 (Central Daylight Time),414147.7000000477,A,lo,O,o,111,1,665.5,413482.2000000477,7107,WL,A,1.0
4,0.749000072479248,learn,59250.99992752075,Fri Apr 11 2025 16:02:57 GMT-0500 (Central Daylight Time),414230.60000002384,A,log,O,g,65,1,748.3999999761581,413482.2000000477,7107,WL,A,1.0
4,1.0490000247955322,learn,58950.99997520447,Fri Apr 11 2025 16:02:57 GMT-0500 (Central Daylight Time),414530.39999997616,A,logenter,O,enter,275,1,1048.1999999284744,413482.2000000477,7107,WL,A,1.0
4,1.2829999923706055,learn,58717.000007629395,Fri Apr 11 2025 16:02:57 GMT-0500 (Central Daylight Time),414764.60000002384,A,k,O,k,220,1,233.89999997615814,414530.7000000477,7107,WL,A,2.0
4,1.383000135421753,learn,58616.99986457825,Fri Apr 11 2025 16:02:57 GMT-0500 (Central Daylight Time),414864.7000000477,A,ke,O,e,73,1,334.0,414530.7000000477,7107,WL,A,2.0
4,1.4830000400543213,learn,58516.99995994568,Fri Apr 11 2025 16:02:57 GMT-0500 (Central Daylight Time),414964.2999999523,A,key,O,y,75,1,433.59999990463257,414530.7000000477,7107,WL,A,2.0
4,1.7650001049041748,learn,58234.999895095825,Fri Apr 11 2025 16:02:57 GMT-0500 (Central Daylight Time),415246.89999997616,A,keyenter,O,enter,255,1,716.1999999284744,414530.7000000477,7107,WL,A,2.0
4,1.9490001201629639,learn,58050.999879837036,Fri Apr 11 2025 16:02:57 GMT-0500 (Central Daylight Time),415430.60000002384,A,r,O,r,174,1,183.39999997615814,415247.2000000477,7107,WL,A,3.0
4,2.0830001831054688,learn,57916.99981689453,Fri Apr 11 2025 16:02:57 GMT-0500 (Central Daylight Time),415564.39999997616,A,ra,O,a,109,1,317.1999999284744,415247.2000000477,7107,WL,A,3.0
4,2.2320001125335693,learn,57767.99988746643,Fri Apr 11 2025 16:02:57 GMT-0500 (Central Daylight Time),415714.10000002384,A,rat,O,t,111,1,466.89999997615814,415247.2000000477,7107,WL,A,3.0
4,2.383000135421753,learn,57616.99986457825,Fri Apr 11 2025 16:02:57 GMT-0500 (Central Daylight Time),415864.2999999523,A,ratt,O,t,126,1,617.0999999046326,415247.2000000477,7107,WL,A,3.0
4,2.5160000324249268,learn,57483.99996757507,Fri Apr 11 2025 16:02:57 GMT-0500 (Central Daylight Time),415997.39999997616,A,rattl,O,l,105,1,750.1999999284744,415247.2000000477,7107,WL,A,3.0
4,2.615000009536743,learn,57384.99999046326,Fri Apr 11 2025 16:02:57 GMT-0500 (Central Daylight Time),416096.60000002384,A,rattle,O,e,56,1,849.3999999761581,415247.2000000477,7107,WL,A,3.0
4,2.748000144958496,learn,57251.999855041504,Fri Apr 11 2025 16:02:57 GMT-0500 (Central Daylight Time),416229.89999997616,A,rattleenter,O,enter,117,1,982.6999999284744,415247.2000000477,7107,WL,A,3.0
4,2.932000160217285,learn,57067.999839782715,Fri Apr 11 2025 16:02:57 GMT-0500 (Central Daylight Time),416414.0,A,g,O,g,168,1,183.89999997615814,416230.10000002384,7107,WL,A,4.0
4,3.0490000247955322,learn,56950.99997520447,Fri Apr 11 2025 16:02:57 GMT-0500 (Central Daylight Time),416530.2999999523,A,go,O,o,87,1,300.1999999284744,416230.10000002384,7107,WL,A,4.0
4,3.2320001125335693,learn,56767.99988746643,Fri Apr 11 2025 16:02:57 GMT-0500 (Central Daylight Time),416713.7000000477,A,gol,O,l,148,1,483.60000002384186,416230.10000002384,7107,WL,A,4.0
4,3.4830000400543213,learn,56516.99995994568,Fri Apr 11 2025 16:02:57 GMT-0500 (Central Daylight Time),416964.60000002384,A,gold,O,d,230,1,734.5,416230.10000002384,7107,WL,A,4.0
4,3.680999994277954,learn,56319.000005722046,Fri Apr 11 2025 16:02:57 GMT-0500 (Central Daylight Time),417163.0,A,goldenter,O,enter,173,1,932.8999999761581,416230.10000002384,7107,WL,A,4.0
4,3.8320000171661377,learn,56167.99998283386,Fri Apr 11 2025 16:02:57 GMT-0500 (Central Daylight Time),417313.7999999523,A,s,O,s,129,1,150.59999990463257,417163.2000000477,7107,WL,A,5.0
4,3.949000120162964,learn,56050.999879837036,Fri Apr 11 2025 16:02:57 GMT-0500 (Central Daylight Time),417430.5,A,sa,O,a,93,1,267.2999999523163,417163.2000000477,7107,WL,A,5.0
4,4.082000017166138,learn,55917.99998283386,Fri Apr 11 2025 16:02:57 GMT-0500 (Central Daylight Time),417563.7000000477,A,sal,O,l,103,1,400.5,417163.2000000477,7107,WL,A,5.0
4,4.197999954223633,learn,55802.00004577637,Fri Apr 11 2025 16:02:57 GMT-0500 (Central Daylight Time),417680.10000002384,A,salt,O,t,80,1,516.8999999761581,417163.2000000477,7107,WL,A,5.0
4,4.38100004196167,learn,55618.99995803833,Fri Apr 11 2025 16:02:57 GMT-0500 (Central Daylight Time),417862.7999999523,A,saltenter,O,enter,145,1,699.5999999046326,417163.2000000477,7107,WL,A,5.0
4,4.615000009536743,learn,55384.99999046326,Fri Apr 11 2025 16:02:57 GMT-0500 (Central Daylight Time),418096.60000002384,A,f,O,f,222,1,233.5,417863.10000002384,7107,WL,A,6.0
4,4.732000112533569,learn,55267.99988746643,Fri Apr 11 2025 16:02:57 GMT-0500 (Central Daylight Time),418213.39999997616,A,fi,O,i,92,1,350.2999999523163,417863.10000002384,7107,WL,A,6.0
4,4.814000129699707,learn,55185.99987030029,Fri Apr 11 2025 16:02:57 GMT-0500 (Central Daylight Time),418296.10000002384,A,fin,O,n,57,1,433.0,417863.10000002384,7107,WL,A,6.0
4,4.88100004196167,learn,55118.99995803833,Fri Apr 11 2025 16:02:57 GMT-0500 (Central Daylight Time),418362.60000002384,A,fing,O,g,55,1,499.5,417863.10000002384,7107,WL,A,6.0
4,5.04800009727478,learn,54951.99990272522,Fri Apr 11 2025 16:02:57 GMT-0500 (Central Daylight Time),418529.7000000477,A,finge,O,e,154,1,666.6000000238419,417863.10000002384,7107,WL,A,6.0
4,5.13100004196167,learn,54868.99995803833,Fri Apr 11 2025 16:02:57 GMT-0500 (Central Daylight Time),418612.89999997616,A,finger,O,r,57,1,749.7999999523163,417863.10000002384,7107,WL,A,6.0
4,5.264000177383423,learn,54735.99982261658,Fri Apr 11 2025 16:02:57 GMT-0500 (Central Daylight Time),418745.7000000477,A,fingerenter,O,enter,104,1,882.6000000238419,417863.10000002384,7107,WL,A,6.0
4,5.981000185012817,learn,54018.99981498718,Fri Apr 11 2025 16:02:57 GMT-0500 (Central Daylight Time),419463.0,A,b,O,b,708,1,717.0,418746.0,7107,WL,A,7.0
4,6.0980000495910645,learn,53901.999950408936,Fri Apr 11 2025 16:02:57 GMT-0500 (Central Daylight Time),419579.60000002384,A,bo,O,o,84,1,833.6000000238419,418746.0,7107,WL,A,7.0
4,6.231000185012817,learn,53768.99981498718,Fri Apr 11 2025 16:02:57 GMT-0500 (Central Daylight Time),419713.0,A,boo,O,o,94,1,967.0,418746.0,7107,WL,A,7.0
4,6.3480000495910645,learn,53651.999950408936,Fri Apr 11 2025 16:02:57 GMT-0500 (Central Daylight Time),419829.2000000477,A,book,O,k,84,1,1083.2000000476837,418746.0,7107,WL,A,7.0
4,6.5970001220703125,learn,53402.99987792969,Fri Apr 11 2025 16:02:57 GMT-0500 (Central Daylight Time),420078.60000002384,A,bookenter,O,enter,228,1,1332.6000000238419,418746.0,7107,WL,A,7.0
4,6.748000144958496,learn,53251.999855041504,Fri Apr 11 2025 16:02:57 GMT-0500 (Central Daylight Time),420229.10000002384,A,t,O,t,142,1,150.20000004768372,420078.89999997616,7107,WL,A,8.0
4,6.965000152587891,learn,53034.99984741211,Fri Apr 11 2025 16:02:57 GMT-0500 (Central Daylight Time),420446.10000002384,A,tr,O,r,197,1,367.2000000476837,420078.89999997616,7107,WL,A,8.0
4,7.047000169754028,learn,52952.99983024597,Fri Apr 11 2025 16:02:57 GMT-0500 (Central Daylight Time),420528.60000002384,A,tra,O,a,51,1,449.7000000476837,420078.89999997616,7107,WL,A,8.0
4,7.114000082015991,learn,52885.99991798401,Fri Apr 11 2025 16:02:57 GMT-0500 (Central Daylight Time),420595.60000002384,A,trai,O,i,45,1,516.7000000476837,420078.89999997616,7107,WL,A,8.0
4,7.180999994277954,learn,52819.000005722046,Fri Apr 11 2025 16:02:57 GMT-0500 (Central Daylight Time),420662.7000000477,A,train,O,n,42,1,583.8000000715256,420078.89999997616,7107,WL,A,8.0
4,7.38100004196167,learn,52618.99995803833,Fri Apr 11 2025 16:02:57 GMT-0500 (Central Daylight Time),420861.7000000477,A,trainenter,O,enter,172,1,782.8000000715256,420078.89999997616,7107,WL,A,8.0
4,7.480000019073486,learn,52519.999980926514,Fri Apr 11 2025 16:02:57 GMT-0500 (Central Daylight Time),420961.60000002384,A,r,O,r,87,1,99.60000002384186,420862.0,7107,WL,A,9.0
4,7.614000082015991,learn,52385.99991798401,Fri Apr 11 2025 16:02:57 GMT-0500 (Central Daylight Time),421095.2999999523,A,ru,O,u,123,1,233.29999995231628,420862.0,7107,WL,A,9.0
4,7.748000144958496,learn,52251.999855041504,Fri Apr 11 2025 16:02:57 GMT-0500 (Central Daylight Time),421229.10000002384,A,rug,O,g,107,1,367.10000002384186,420862.0,7107,WL,A,9.0
4,7.914000034332275,learn,52085.999965667725,Fri Apr 11 2025 16:02:57 GMT-0500 (Central Daylight Time),421394.89999997616,A,rugenter,O,enter,133,1,532.8999999761581,420862.0,7107,WL,A,9.0
4,10.880000114440918,learn,49119.99988555908,Fri Apr 11 2025 16:02:57 GMT-0500 (Central Daylight Time),424361.2999999523,A,m,O,m,2955,1,2966.1999999284744,421395.10000002384,7107,WL,A,10.0
4,10.963000059127808,learn,49036.99994087219,Fri Apr 11 2025 16:02:57 GMT-0500 (Central Daylight Time),424444.10000002384,A,me,O,e,40,1,3049.0,421395.10000002384,7107,WL,A,10.0
4,11.046000003814697,learn,48953.9999961853,Fri Apr 11 2025 16:02:57 GMT-0500 (Central Daylight Time),424527.2999999523,A,mea,O,a,65,1,3132.1999999284744,421395.10000002384,7107,WL,A,10.0
4,11.312999963760376,learn,48687.000036239624,Fri Apr 11 2025 16:02:57 GMT-0500 (Central Daylight Time),424793.7000000477,A,mead,O,d,242,1,3398.600000023842,421395.10000002384,7107,WL,A,10.0
4,11.547000169754028,learn,48452.99983024597,Fri Apr 11 2025 16:02:57 GMT-0500 (Central Daylight Time),425027.89999997616,A,meado,O,o,218,1,3632.7999999523163,421395.10000002384,7107,WL,A,10.0
4,11.67900013923645,learn,48320.99986076355,Fri Apr 11 2025 16:02:57 GMT-0500 (Central Daylight Time),425160.7000000477,A,meadow,O,w,94,1,3765.600000023842,421395.10000002384,7107,WL,A,10.0
4,11.845999956130981,learn,48154.00004386902,Fri Apr 11 2025 16:02:57 GMT-0500 (Central Daylight Time),425326.7999999523,A,meadowenter,O,enter,136,1,3931.6999999284744,421395.10000002384,7107,WL,A,10.0
4,12.02999997138977,learn,47970.00002861023,Fri Apr 11 2025 16:02:57 GMT-0500 (Central Daylight Time),425510.89999997616,A,h,O,h,175,1,183.89999997615814,425327.0,7107,WL,A,11.0
4,12.111999988555908,learn,47888.00001144409,Fri Apr 11 2025 16:02:57 GMT-0500 (Central Daylight Time),425593.60000002384,A,ha,O,a,45,1,266.60000002384186,425327.0,7107,WL,A,11.0
4,12.17900013923645,learn,47820.99986076355,Fri Apr 11 2025 16:02:57 GMT-0500 (Central Daylight Time),425660.2999999523,A,har,O,r,48,1,333.2999999523163,425327.0,7107,WL,A,11.0
4,12.380000114440918,learn,47619.99988555908,Fri Apr 11 2025 16:02:57 GMT-0500 (Central Daylight Time),425861.0,A,harp,O,p,190,1,534.0,425327.0,7107,WL,A,11.0
4,12.662000179290771,learn,47337.99982070923,Fri Apr 11 2025 16:02:57 GMT-0500 (Central Daylight Time),426143.2999999523,A,harpenter,O,enter,253,1,816.2999999523163,425327.0,7107,WL,A,11.0
4,14.26200008392334,learn,45737.99991607666,Fri Apr 11 2025 16:02:57 GMT-0500 (Central Daylight Time),427743.7000000477,A,f,O,f,1583,1,1600.1000000238419,426143.60000002384,7107,WL,A,12.0
4,14.36300015449524,learn,45636.99984550476,Fri Apr 11 2025 16:02:57 GMT-0500 (Central Daylight Time),427844.0,A,fi,O,i,67,1,1700.3999999761581,426143.60000002384,7107,WL,A,12.0
4,14.41100001335144,learn,45588.99998664856,Fri Apr 11 2025 16:02:57 GMT-0500 (Central Daylight Time),427892.7999999523,A,fin,O,n,26,1,1749.1999999284744,426143.60000002384,7107,WL,A,12.0
4,14.445000171661377,learn,45554.99982833862,Fri Apr 11 2025 16:02:57 GMT-0500 (Central Daylight Time),427926.10000002384,A,fing,O,g,22,1,1782.5,426143.60000002384,7107,WL,A,12.0
4,14.595999956130981,learn,45404.00004386902,Fri Apr 11 2025 16:02:57 GMT-0500 (Central Daylight Time),428077.10000002384,A,finge,O,e,141,1,1933.5,426143.60000002384,7107,WL,A,12.0
4,14.67799997329712,learn,45322.00002670288,Fri Apr 11 2025 16:02:57 GMT-0500 (Central Daylight Time),428159.10000002384,A,finger,O,r,52,1,2015.5,426143.60000002384,7107,WL,A,12.0
4,14.878000020980835,learn,45121.999979019165,Fri Apr 11 2025 16:02:57 GMT-0500 (Central Daylight Time),428359.39999997616,A,fingerenter,O,enter,189,1,2215.7999999523163,426143.60000002384,7107,WL,A,12.0
4,15.412000179290771,learn,44587.99982070923,Fri Apr 11 2025 16:02:57 GMT-0500 (Central Daylight Time),428893.2000000477,A,c,O,c,526,1,533.6000000238419,428359.60000002384,7107,WL,A,13.0
4,15.495000123977661,learn,44504.99987602234,Fri Apr 11 2025 16:02:57 GMT-0500 (Central Daylight Time),428975.7999999523,A,ch,O,h,48,1,616.1999999284744,428359.60000002384,7107,WL,A,13.0
4,15.57800006866455,learn,44421.99993133545,Fri Apr 11 2025 16:02:57 GMT-0500 (Central Daylight Time),429059.10000002384,A,chi,O,i,59,1,699.5,428359.60000002384,7107,WL,A,13.0
4,15.710999965667725,learn,44289.000034332275,Fri Apr 11 2025 16:02:57 GMT-0500 (Central Daylight Time),429192.5,A,chim,O,m,106,1,832.8999999761581,428359.60000002384,7107,WL,A,13.0
4,15.894999980926514,learn,44105.000019073486,Fri Apr 11 2025 16:02:57 GMT-0500 (Central Daylight Time),429376.60000002384,A,chimn,O,n,165,1,1017.0,428359.60000002384,7107,WL,A,13.0
4,16.062000036239624,learn,43937.999963760376,Fri Apr 11 2025 16:02:57 GMT-0500 (Central Daylight Time),429542.7999999523,A,chimne,O,e,130,1,1183.1999999284744,428359.60000002384,7107,WL,A,13.0
4,16.128000020980835,learn,43871.999979019165,Fri Apr 11 2025 16:02:57 GMT-0500 (Central Daylight Time),429609.0,A,chimney,O,y,28,1,1249.3999999761581,428359.60000002384,7107,WL,A,13.0
4,16.444000005722046,learn,43555.999994277954,Fri Apr 11 2025 16:02:57 GMT-0500 (Central Daylight Time),429925.39999997616,A,chimneyenter,O,enter,307,1,1565.7999999523163,428359.60000002384,7107,WL,A,13.0
4,27.174999952316284,learn,32825.000047683716,Fri Apr 11 2025 16:02:57 GMT-0500 (Central Daylight Time),440656.0,A,a,O,a,10721,1,10730.299999952316,429925.7000000477,7107,WL,A,14.0
4,27.308000087738037,learn,32691.999912261963,Fri Apr 11 2025 16:02:57 GMT-0500 (Central Daylight Time),440789.10000002384,A,ap,O,p,102,1,10863.399999976158,429925.7000000477,7107,WL,A,14.0
4,27.45800018310547,learn,32541.99981689453,Fri Apr 11 2025 16:02:57 GMT-0500 (Central Daylight Time),440939.2999999523,A,app,O,p,110,1,11013.599999904633,429925.7000000477,7107,WL,A,14.0
4,27.625,learn,32375.0,Fri Apr 11 2025 16:02:57 GMT-0500 (Central Daylight Time),441105.7999999523,A,appl,O,l,134,1,11180.099999904633,429925.7000000477,7107,WL,A,14.0
4,27.741000175476074,learn,32258.999824523926,Fri Apr 11 2025 16:02:57 GMT-0500 (Central Daylight Time),441222.0,A,apple,O,e,86,1,11296.299999952316,429925.7000000477,7107,WL,A,14.0
4,27.874000072479248,learn,32125.999927520752,Fri Apr 11 2025 16:02:57 GMT-0500 (Central Daylight Time),441354.7999999523,A,appleenter,O,enter,119,1,11429.099999904633,429925.7000000477,7107,WL,A,14.0
4,29.457000017166138,learn,30542.999982833862,Fri Apr 11 2025 16:02:57 GMT-0500 (Central Daylight Time),442938.7000000477,A,enter,O,enter,1561,1,1583.6000000238419,441355.10000002384,7107,WL,A,15.0
5,0.4849998950958252,learn,60000.0,Fri Apr 11 2025 16:02:57 GMT-0500 (Central Daylight Time),507085.39999997616,A,l,O,l,468,1,484.39999997615814,506601.0,7107,WL,A,1.0
5,0.6670000553131104,learn,60000.0,Fri Apr 11 2025 16:02:57 GMT-0500 (Central Daylight Time),507267.7999999523,A,lo,O,o,140,1,666.7999999523163,506601.0,7107,WL,A,1.0
5,0.8169999122619629,learn,60000.0,Fri Apr 11 2025 16:02:57 GMT-0500 (Central Daylight Time),507417.5,A,log,O,g,112,1,816.5,506601.0,7107,WL,A,1.0
5,1.0829999446868896,learn,60000.0,Fri Apr 11 2025 16:02:57 GMT-0500 (Central Daylight Time),507683.2999999523,A,logenter,O,enter,224,1,1082.2999999523163,506601.0,7107,WL,A,1.0
5,1.3329999446868896,learn,60000.0,Fri Apr 11 2025 16:02:57 GMT-0500 (Central Daylight Time),507934.0,A,k,O,k,243,1,250.5,507683.5,7107,WL,A,2.0
5,1.4500000476837158,learn,60000.0,Fri Apr 11 2025 16:02:57 GMT-0500 (Central Daylight Time),508051.10000002384,A,ke,O,e,86,1,367.60000002384186,507683.5,7107,WL,A,2.0
5,1.565999984741211,learn,60000.0,Fri Apr 11 2025 16:02:57 GMT-0500 (Central Daylight Time),508167.0,A,key,O,y,87,1,483.5,507683.5,7107,WL,A,2.0
5,1.8819999694824219,learn,60000.0,Fri Apr 11 2025 16:02:57 GMT-0500 (Central Daylight Time),508483.10000002384,A,keyenter,O,enter,282,1,799.6000000238419,507683.5,7107,WL,A,2.0
5,1.998999834060669,learn,60000.0,Fri Apr 11 2025 16:02:57 GMT-0500 (Central Daylight Time),508599.89999997616,A,r,O,r,106,1,116.60000002384186,508483.2999999523,7107,WL,A,3.0
5,2.0999999046325684,learn,60000.0,Fri Apr 11 2025 16:02:57 GMT-0500 (Central Daylight Time),508701.0,A,ra,O,a,87,1,217.70000004768372,508483.2999999523,7107,WL,A,3.0
5,2.2330000400543213,learn,60000.0,Fri Apr 11 2025 16:02:57 GMT-0500 (Central Daylight Time),508833.7000000477,A,rat,O,t,92,1,350.40000009536743,508483.2999999523,7107,WL,A,3.0
5,2.4159998893737793,learn,60000.0,Fri Apr 11 2025 16:02:57 GMT-0500 (Central Daylight Time),509016.7000000477,A,ratt,O,t,150,1,533.4000000953674,508483.2999999523,7107,WL,A,3.0
5,2.5490000247955322,learn,60000.0,Fri Apr 11 2025 16:02:57 GMT-0500 (Central Daylight Time),509150.10000002384,A,rattl,O,l,108,1,666.8000000715256,508483.2999999523,7107,WL,A,3.0
5,2.6659998893737793,learn,60000.0,Fri Apr 11 2025 16:02:57 GMT-0500 (Central Daylight Time),509266.39999997616,A,rattle,O,e,82,1,783.1000000238419,508483.2999999523,7107,WL,A,3.0
5,2.7990000247955322,learn,60000.0,Fri Apr 11 2025 16:02:57 GMT-0500 (Central Daylight Time),509399.2999999523,A,rattleenter,O,enter,114,1,916.0,508483.2999999523,7107,WL,A,3.0
5,2.9819998741149902,learn,60000.0,Fri Apr 11 2025 16:02:57 GMT-0500 (Central Daylight Time),509582.89999997616,A,g,O,g,174,1,183.29999995231628,509399.60000002384,7107,WL,A,4.0
5,3.0820000171661377,learn,60000.0,Fri Apr 11 2025 16:02:57 GMT-0500 (Central Daylight Time),509682.60000002384,A,go,O,o,70,1,283.0,509399.60000002384,7107,WL,A,4.0
5,3.5149998664855957,learn,60000.0,Fri Apr 11 2025 16:02:57 GMT-0500 (Central Daylight Time),510115.7999999523,A,gol,O,l,416,1,716.1999999284744,509399.60000002384,7107,WL,A,4.0
5,3.631999969482422,learn,60000.0,Fri Apr 11 2025 16:02:57 GMT-0500 (Central Daylight Time),510232.2999999523,A,gold,O,d,96,1,832.6999999284744,509399.60000002384,7107,WL,A,4.0
5,3.8309998512268066,learn,60000.0,Fri Apr 11 2025 16:02:57 GMT-0500 (Central Daylight Time),510432.2000000477,A,goldenter,O,enter,188,1,1032.6000000238419,509399.60000002384,7107,WL,A,4.0
5,4.898999929428101,learn,60000.0,Fri Apr 11 2025 16:02:57 GMT-0500 (Central Daylight Time),511499.5,A,b,O,b,1046,1,1067.1000000238419,510432.39999997616,7107,WL,A,5.0
5,5.21399998664856,learn,60000.0,Fri Apr 11 2025 16:02:57 GMT-0500 (Central Daylight Time),511815.2000000477,A,bt,O,t,278,1,1382.8000000715256,510432.39999997616,7107,WL,A,5.0
5,5.549000024795532,learn,60000.0,Fri Apr 11 2025 16:02:57 GMT-0500 (Central Daylight Time),512149.5,A,b,O,backspace,314,1,1717.1000000238419,510432.39999997616,7107,WL,A,5.0
5,5.7159998416900635,learn,60000.0,Fri Apr 11 2025 16:02:57 GMT-0500 (Central Daylight Time),512316.60000002384,A,bu,O,u,141,1,1884.2000000476837,510432.39999997616,7107,WL,A,5.0
5,5.832000017166138,learn,60000.0,Fri Apr 11 2025 16:02:57 GMT-0500 (Central Daylight Time),512432.60000002384,A,but,O,t,87,1,2000.2000000476837,510432.39999997616,7107,WL,A,5.0
5,6.014999866485596,learn,60000.0,Fri Apr 11 2025 16:02:57 GMT-0500 (Central Daylight Time),512615.89999997616,A,butt,O,t,145,1,2183.5,510432.39999997616,7107,WL,A,5.0
5,6.113999843597412,learn,60000.0,Fri Apr 11 2025 16:02:57 GMT-0500 (Central Daylight Time),512715.2999999523,A,butto,O,o,72,1,2282.899999976158,510432.39999997616,7107,WL,A,5.0
5,6.180999994277954,learn,60000.0,Fri Apr 11 2025 16:02:57 GMT-0500 (Central Daylight Time),512781.39999997616,A,button,O,n,44,1,2349.0,510432.39999997616,7107,WL,A,5.0
5,6.414000034332275,learn,60000.0,Fri Apr 11 2025 16:02:57 GMT-0500 (Central Daylight Time),513014.7999999523,A,buttonenter,O,enter,223,1,2582.399999976158,510432.39999997616,7107,WL,A,5.0
5,7.180999994277954,learn,60000.0,Fri Apr 11 2025 16:02:57 GMT-0500 (Central Daylight Time),513781.7999999523,A,c,O,c,759,1,766.6999999284744,513015.10000002384,7107,WL,A,6.0
5,7.297999858856201,learn,60000.0,Fri Apr 11 2025 16:02:57 GMT-0500 (Central Daylight Time),513898.5,A,ch,O,h,84,1,883.3999999761581,513015.10000002384,7107,WL,A,6.0
5,7.379999876022339,learn,60000.0,Fri Apr 11 2025 16:02:57 GMT-0500 (Central Daylight Time),513981.0,A,chi,O,i,52,1,965.8999999761581,513015.10000002384,7107,WL,A,6.0
5,7.5980000495910645,learn,60000.0,Fri Apr 11 2025 16:02:57 GMT-0500 (Central Daylight Time),514198.7000000477,A,chim,O,m,208,1,1183.6000000238419,513015.10000002384,7107,WL,A,6.0
5,7.7809998989105225,learn,60000.0,Fri Apr 11 2025 16:02:57 GMT-0500 (Central Daylight Time),514381.7999999523,A,chimn,O,n,147,1,1366.6999999284744,513015.10000002384,7107,WL,A,6.0
5,7.930999994277954,learn,60000.0,Fri Apr 11 2025 16:02:57 GMT-0500 (Central Daylight Time),514531.89999997616,A,chimne,O,e,118,1,1516.7999999523163,513015.10000002384,7107,WL,A,6.0
5,8.563999891281128,learn,60000.0,Fri Apr 11 2025 16:02:57 GMT-0500 (Central Daylight Time),515164.7000000477,A,chimney,O,y,597,1,2149.600000023842,513015.10000002384,7107,WL,A,6.0
5,8.929999828338623,learn,60000.0,Fri Apr 11 2025 16:02:57 GMT-0500 (Central Daylight Time),515530.7000000477,A,chimneyenter,O,enter,323,1,2515.600000023842,513015.10000002384,7107,WL,A,6.0
5,9.146999835968018,learn,60000.0,Fri Apr 11 2025 16:02:57 GMT-0500 (Central Daylight Time),515748.10000002384,A,f,O,f,195,1,217.10000002384186,515531.0,7107,WL,A,7.0
5,9.263999938964844,learn,60000.0,Fri Apr 11 2025 16:02:57 GMT-0500 (Central Daylight Time),515864.60000002384,A,fi,O,i,86,1,333.60000002384186,515531.0,7107,WL,A,7.0
5,9.345999956130981,learn,60000.0,Fri Apr 11 2025 16:02:57 GMT-0500 (Central Daylight Time),515947.10000002384,A,fin,O,n,52,1,416.10000002384186,515531.0,7107,WL,A,7.0
5,9.429999828338623,learn,60000.0,Fri Apr 11 2025 16:02:57 GMT-0500 (Central Daylight Time),516030.5,A,fing,O,g,65,1,499.5,515531.0,7107,WL,A,7.0
5,9.596999883651733,learn,60000.0,Fri Apr 11 2025 16:02:57 GMT-0500 (Central Daylight Time),516197.60000002384,A,finge,O,e,150,1,666.6000000238419,515531.0,7107,WL,A,7.0
5,9.69599986076355,learn,60000.0,Fri Apr 11 2025 16:02:57 GMT-0500 (Central Daylight Time),516296.89999997616,A,finger,O,r,64,1,765.8999999761581,515531.0,7107,WL,A,7.0
5,9.812999963760376,learn,60000.0,Fri Apr 11 2025 16:02:57 GMT-0500 (Central Daylight Time),516413.60000002384,A,fingerenter,O,enter,103,1,882.6000000238419,515531.0,7107,WL,A,7.0
5,10.179999828338623,learn,60000.0,Fri Apr 11 2025 16:02:57 GMT-0500 (Central Daylight Time),516781.10000002384,A,t,O,t,352,1,367.2000000476837,516413.89999997616,7107,WL,A,8.0
5,10.44700002670288,learn,60000.0,Fri Apr 11 2025 16:02:57 GMT-0500 (Central Daylight Time),517047.7999999523,A,tr,O,r,229,1,633.8999999761581,516413.89999997616,7107,WL,A,8.0
5,10.529000043869019,learn,60000.0,Fri Apr 11 2025 16:02:57 GMT-0500 (Central Daylight Time),517130.2000000477,A,tra,O,a,51,1,716.3000000715256,516413.89999997616,7107,WL,A,8.0
5,10.595999956130981,learn,60000.0,Fri Apr 11 2025 16:02:57 GMT-0500 (Central Daylight Time),517196.60000002384,A,trai,O,i,54,1,782.7000000476837,516413.89999997616,7107,WL,A,8.0
5,10.662999868392944,learn,60000.0,Fri Apr 11 2025 16:02:57 GMT-0500 (Central Daylight Time),517263.7000000477,A,train,O,n,47,1,849.8000000715256,516413.89999997616,7107,WL,A,8.0
5,10.912999868392944,learn,60000.0,Fri Apr 11 2025 16:02:57 GMT-0500 (Central Daylight Time),517513.2999999523,A,trainenter,O,enter,225,1,1099.3999999761581,516413.89999997616,7107,WL,A,8.0
5,12.179999828338623,learn,60000.0,Fri Apr 11 2025 16:02:57 GMT-0500 (Central Daylight Time),518780.39999997616,A,m,O,m,1244,1,1266.8999999761581,517513.5,7107,WL,A,9.0
5,12.230000019073486,learn,60000.0,Fri Apr 11 2025 16:02:57 GMT-0500 (Central Daylight Time),518830.7000000477,A,me,O,e,13,1,1317.2000000476837,517513.5,7107,WL,A,9.0
5,12.328999996185303,learn,60000.0,Fri Apr 11 2025 16:02:57 GMT-0500 (Central Daylight Time),518929.89999997616,A,mea,O,a,80,1,1416.3999999761581,517513.5,7107,WL,A,9.0
5,12.411999940872192,learn,60000.0,Fri Apr 11 2025 16:02:57 GMT-0500 (Central Daylight Time),519013.0,A,mead,O,d,64,1,1499.5,517513.5,7107,WL,A,9.0
5,12.595999956130981,learn,60000.0,Fri Apr 11 2025 16:02:57 GMT-0500 (Central Daylight Time),519197.0,A,meado,O,o,175,1,1683.5,517513.5,7107,WL,A,9.0
5,12.728999853134155,learn,60000.0,Fri Apr 11 2025 16:02:57 GMT-0500 (Central Daylight Time),519329.89999997616,A,meadow,O,w,93,1,1816.3999999761581,517513.5,7107,WL,A,9.0
5,12.912999868392944,learn,60000.0,Fri Apr 11 2025 16:02:57 GMT-0500 (Central Daylight Time),519513.2000000477,A,meadowenter,O,enter,160,1,1999.7000000476837,517513.5,7107,WL,A,9.0
5,13.211999893188477,learn,60000.0,Fri Apr 11 2025 16:02:57 GMT-0500 (Central Daylight Time),519813.0,A,h,O,h,284,1,299.5,519513.5,7107,WL,A,10.0
5,13.312999963760376,learn,60000.0,Fri Apr 11 2025 16:02:57 GMT-0500 (Central Daylight Time),519913.60000002384,A,ha,O,a,70,1,400.10000002384186,519513.5,7107,WL,A,10.0
5,13.378000020980835,learn,60000.0,Fri Apr 11 2025 16:02:57 GMT-0500 (Central Daylight Time),519979.10000002384,A,har,O,r,36,1,465.60000002384186,519513.5,7107,WL,A,10.0
5,13.51199984550476,learn,60000.0,Fri Apr 11 2025 16:02:57 GMT-0500 (Central Daylight Time),520113.10000002384,A,harp,O,p,122,1,599.6000000238419,519513.5,7107,WL,A,10.0
5,13.76199984550476,learn,60000.0,Fri Apr 11 2025 16:02:57 GMT-0500 (Central Daylight Time),520362.39999997616,A,harpenter,O,enter,207,1,848.8999999761581,519513.5,7107,WL,A,10.0
5,14.279000043869019,learn,60000.0,Fri Apr 11 2025 16:02:57 GMT-0500 (Central Daylight Time),520879.89999997616,A,s,O,s,508,1,517.2999999523163,520362.60000002384,7107,WL,A,11.0
5,14.444999933242798,learn,60000.0,Fri Apr 11 2025 16:02:57 GMT-0500 (Central Daylight Time),521046.2999999523,A,sa,O,a,131,1,683.6999999284744,520362.60000002384,7107,WL,A,11.0
5,14.578999996185303,learn,60000.0,Fri Apr 11 2025 16:02:57 GMT-0500 (Central Daylight Time),521179.5,A,sal,O,l,100,1,816.8999999761581,520362.60000002384,7107,WL,A,11.0
5,14.66100001335144,learn,60000.0,Fri Apr 11 2025 16:02:57 GMT-0500 (Central Daylight Time),521262.2000000477,A,salt,O,t,53,1,899.6000000238419,520362.60000002384,7107,WL,A,11.0
5,14.828999996185303,learn,60000.0,Fri Apr 11 2025 16:02:57 GMT-0500 (Central Daylight Time),521429.39999997616,A,saltenter,O,enter,146,1,1066.7999999523163,520362.60000002384,7107,WL,A,11.0
5,16.07799983024597,learn,60000.0,Fri Apr 11 2025 16:02:57 GMT-0500 (Central Daylight Time),522679.2000000477,A,k,O,k,1241,1,1249.5,521429.7000000477,7107,WL,A,12.0
5,16.477999925613403,learn,60000.0,Fri Apr 11 2025 16:02:57 GMT-0500 (Central Daylight Time),523079.0,A,ke,O,e,363,1,1649.2999999523163,521429.7000000477,7107,WL,A,12.0
5,17.26099991798401,learn,60000.0,Fri Apr 11 2025 16:02:57 GMT-0500 (Central Daylight Time),523862.2000000477,A,k,O,backspace,756,1,2432.5,521429.7000000477,7107,WL,A,12.0
5,17.41100001335144,learn,60000.0,Fri Apr 11 2025 16:02:57 GMT-0500 (Central Daylight Time),524012.10000002384,A,,O,backspace,117,1,2582.399999976158,521429.7000000477,7107,WL,A,12.0
5,17.727999925613403,learn,60000.0,Fri Apr 11 2025 16:02:57 GMT-0500 (Central Daylight Time),524328.7000000477,A,k,O,k,281,1,2899.0,521429.7000000477,7107,WL,A,12.0
5,18.0939998626709,learn,60000.0,Fri Apr 11 2025 16:02:57 GMT-0500 (Central Daylight Time),524695.2000000477,A,ke,O,e,330,1,3265.5,521429.7000000477,7107,WL,A,12.0
5,18.310999870300293,learn,60000.0,Fri Apr 11 2025 16:02:57 GMT-0500 (Central Daylight Time),524911.8999999762,A,key,O,y,188,1,3482.1999999284744,521429.7000000477,7107,WL,A,12.0
5,18.64299988746643,learn,60000.0,Fri Apr 11 2025 16:02:57 GMT-0500 (Central Daylight Time),525244.2000000477,A,keyenter,O,enter,299,1,3814.5,521429.7000000477,7107,WL,A,12.0
5,19.626999855041504,learn,60000.0,Fri Apr 11 2025 16:02:57 GMT-0500 (Central Daylight Time),526228.1000000238,A,t,O,t,970,1,983.7000000476837,525244.3999999762,7107,WL,A,13.0
5,20.15999984741211,learn,60000.0,Fri Apr 11 2025 16:02:57 GMT-0500 (Central Daylight Time),526761.2000000477,A,,O,backspace,501,1,1516.8000000715256,525244.3999999762,7107,WL,A,13.0
5,21.009999990463257,learn,60000.0,Fri Apr 11 2025 16:02:57 GMT-0500 (Central Daylight Time),527610.8999999762,A,f,O,f,820,1,2366.5,525244.3999999762,7107,WL,A,13.0
5,21.05900001525879,learn,60000.0,Fri Apr 11 2025 16:02:57 GMT-0500 (Central Daylight Time),527660.3999999762,A,fl,O,l,21,1,2416.0,525244.3999999762,7107,WL,A,13.0
5,21.243000030517578,learn,60000.0,Fri Apr 11 2025 16:02:57 GMT-0500 (Central Daylight Time),527844.2000000477,A,flo,O,o,157,1,2599.8000000715256,525244.3999999762,7107,WL,A,13.0
5,21.299999952316284,learn,60000.0,Fri Apr 11 2025 16:02:57 GMT-0500 (Central Daylight Time),527900.7000000477,A,flow,O,w,20,1,2656.3000000715256,525244.3999999762,7107,WL,A,13.0
5,21.31500005722046,learn,60000.0,Fri Apr 11 2025 16:02:57 GMT-0500 (Central Daylight Time),527915.7000000477,A,flowe,O,e,1,1,2671.3000000715256,525244.3999999762,7107,WL,A,13.0
5,21.408999919891357,learn,60000.0,Fri Apr 11 2025 16:02:57 GMT-0500 (Central Daylight Time),528010.2000000477,A,flower,O,r,78,1,2765.8000000715256,525244.3999999762,7107,WL,A,13.0
5,21.65999984741211,learn,60000.0,Fri Apr 11 2025 16:02:57 GMT-0500 (Central Daylight Time),528260.2999999523,A,flowerenter,O,enter,223,1,3015.899999976158,525244.3999999762,7107,WL,A,13.0
5,32.27300000190735,learn,60000.0,Fri Apr 11 2025 16:02:57 GMT-0500 (Central Daylight Time),538873.8999999762,A,r,O,r,10593,1,10613.399999976158,528260.5,7107,WL,A,14.0
5,32.34299993515015,learn,60000.0,Fri Apr 11 2025 16:02:57 GMT-0500 (Central Daylight Time),538943.2999999523,A,ru,O,u,18,1,10682.799999952316,528260.5,7107,WL,A,14.0
5,32.49000000953674,learn,60000.0,Fri Apr 11 2025 16:02:57 GMT-0500 (Central Daylight Time),539090.5,A,rug,O,g,129,1,10830.0,528260.5,7107,WL,A,14.0
5,32.82299995422363,learn,60000.0,Fri Apr 11 2025 16:02:57 GMT-0500 (Central Daylight Time),539423.5,A,rugenter,O,enter,294,1,11163.0,528260.5,7107,WL,A,14.0
5,33.9229998588562,learn,60000.0,Fri Apr 11 2025 16:02:57 GMT-0500 (Central Daylight Time),540523.6000000238,A,t,O,t,1086,1,1099.8999999761581,539423.7000000477,7107,WL,A,15.0
5,34.139999866485596,learn,60000.0,Fri Apr 11 2025 16:02:57 GMT-0500 (Central Daylight Time),540739.8999999762,A,tr,O,r,175,1,1316.1999999284744,539423.7000000477,7107,WL,A,15.0
5,34.210999965667725,learn,60000.0,Fri Apr 11 2025 16:02:57 GMT-0500 (Central Daylight Time),540811.5,A,tra,O,a,23,1,1387.7999999523163,539423.7000000477,7107,WL,A,15.0
5,34.22599983215332,learn,60000.0,Fri Apr 11 2025 16:02:57 GMT-0500 (Central Daylight Time),540825.8999999762,A,trai,O,i,1,1,1402.1999999284744,539423.7000000477,7107,WL,A,15.0
5,34.35599994659424,learn,60000.0,Fri Apr 11 2025 16:02:57 GMT-0500 (Central Daylight Time),540956.1000000238,A,train,O,n,99,1,1532.3999999761581,539423.7000000477,7107,WL,A,15.0
5,34.98899984359741,learn,60000.0,Fri Apr 11 2025 16:02:57 GMT-0500 (Central Daylight Time),541588.7999999523,A,trainenter,O,enter,617,1,2165.0999999046326,539423.7000000477,7107,WL,A,15.0
6,0.5,distr,59500.0,Fri Apr 11 2025 16:02:57 GMT-0500 (Central Daylight Time),611000.2999999523,B,b,O,b,465,1,499.59999990463257,610500.7000000477,7107,WL,A,1.0
6,0.7000000476837158,distr,59299.999952316284,Fri Apr 11 2025 16:02:57 GMT-0500 (Central Daylight Time),611200.1000000238,B,bo,O,o,169,1,699.3999999761581,610500.7000000477,7107,WL,A,1.0
6,0.8010001182556152,distr,59198.999881744385,Fri Apr 11 2025 16:02:57 GMT-0500 (Central Daylight Time),611300.7999999523,B,bow,O,w,77,1,800.0999999046326,610500.7000000477,7107,WL,A,1.0
6,0.9340000152587891,distr,59065.99998474121,Fri Apr 11 2025 16:02:57 GMT-0500 (Central Daylight Time),611433.3999999762,B,bowl,O,l,102,1,932.6999999284744,610500.7000000477,7107,WL,A,1.0
6,1.183000087738037,distr,58816.99991226196,Fri Apr 11 2025 16:02:57 GMT-0500 (Central Daylight Time),611682.5,B,bowlenter,O,enter,209,1,1181.7999999523163,610500.7000000477,7107,WL,A,1.0
6,1.317000150680542,distr,58682.99984931946,Fri Apr 11 2025 16:02:57 GMT-0500 (Central Daylight Time),611816.7999999523,B,d,O,d,123,1,134.09999990463257,611682.7000000477,7107,WL,A,2.0
6,1.5160000324249268,distr,58483.99996757507,Fri Apr 11 2025 16:02:57 GMT-0500 (Central Daylight Time),612015.7999999523,B,da,O,a,168,1,333.09999990463257,611682.7000000477,7107,WL,A,2.0
6,1.683000087738037,distr,58316.99991226196,Fri Apr 11 2025 16:02:57 GMT-0500 (Central Daylight Time),612183.1000000238,B,dan,O,n,157,1,500.39999997615814,611682.7000000477,7107,WL,A,2.0
6,2.3330001831054688,distr,57666.99981689453,Fri Apr 11 2025 16:02:57 GMT-0500 (Central Daylight Time),612833.0,B,da,O,backspace,620,1,1150.2999999523163,611682.7000000477,7107,WL,A,2.0
6,2.4660000801086426,distr,57533.99991989136,Fri Apr 11 2025 16:02:57 GMT-0500 (Central Daylight Time),612965.6000000238,B,daw,O,w,104,1,1282.8999999761581,611682.7000000477,7107,WL,A,2.0
6,2.6000001430511475,distr,57399.99985694885,Fri Apr 11 2025 16:02:57 GMT-0500 (Central Daylight Time),613099.6000000238,B,dawn,O,n,108,1,1416.8999999761581,611682.7000000477,7107,WL,A,2.0
6,2.9000000953674316,distr,57099.99990463257,Fri Apr 11 2025 16:02:57 GMT-0500 (Central Daylight Time),613399.5,B,dawnenter,O,enter,267,1,1716.7999999523163,611682.7000000477,7107,WL,A,2.0
6,3.2829999923706055,distr,56717.000007629395,Fri Apr 11 2025 16:02:57 GMT-0500 (Central Daylight Time),613782.6000000238,B,j,O,j,374,1,382.89999997615814,613399.7000000477,7107,WL,A,3.0
6,3.699000120162964,distr,56300.999879837036,Fri Apr 11 2025 16:02:57 GMT-0500 (Central Daylight Time),614199.1000000238,B,ju,O,u,384,1,799.3999999761581,613399.7000000477,7107,WL,A,3.0
6,3.8990001678466797,distr,56100.99983215332,Fri Apr 11 2025 16:02:57 GMT-0500 (Central Daylight Time),614398.8999999762,B,jud,O,d,172,1,999.1999999284744,613399.7000000477,7107,WL,A,3.0
6,4.116000175476074,distr,55883.999824523926,Fri Apr 11 2025 16:02:57 GMT-0500 (Central Daylight Time),614615.7000000477,B,judg,O,g,188,1,1216.0,613399.7000000477,7107,WL,A,3.0
6,4.232000112533569,distr,55767.99988746643,Fri Apr 11 2025 16:02:57 GMT-0500 (Central Daylight Time),614732.2000000477,B,judge,O,e,81,1,1332.5,613399.7000000477,7107,WL,A,3.0
6,4.499000072479248,distr,55500.99992752075,Fri Apr 11 2025 16:02:57 GMT-0500 (Central Daylight Time),614999.2000000477,B,judgeenter,O,enter,238,1,1599.5,613399.7000000477,7107,WL,A,3.0
6,4.615000009536743,distr,55384.99999046326,Fri Apr 11 2025 16:02:57 GMT-0500 (Central Daylight Time),615115.2000000477,B,s,O,s,94,1,115.80000007152557,614999.3999999762,7107,WL,A,4.0
6,4.7820000648498535,distr,55217.99993515015,Fri Apr 11 2025 16:02:57 GMT-0500 (Central Daylight Time),615282.0,B,se,O,e,136,1,282.60000002384186,614999.3999999762,7107,WL,A,4.0
6,4.949000120162964,distr,55050.999879837036,Fri Apr 11 2025 16:02:57 GMT-0500 (Central Daylight Time),615448.7000000477,B,see,O,e,137,1,449.3000000715256,614999.3999999762,7107,WL,A,4.0
6,5.166000127792358,distr,54833.99987220764,Fri Apr 11 2025 16:02:57 GMT-0500 (Central Daylight Time),615665.3999999762,B,seed,O,d,179,1,666.0,614999.3999999762,7107,WL,A,4.0
6,5.4150002002716064,distr,54584.99979972839,Fri Apr 11 2025 16:02:57 GMT-0500 (Central Daylight Time),615914.3999999762,B,seedenter,O,enter,209,1,915.0,614999.3999999762,7107,WL,A,4.0
6,5.615000009536743,distr,54384.99999046326,Fri Apr 11 2025 16:02:57 GMT-0500 (Central Daylight Time),616115.2000000477,B,s,O,s,179,1,200.60000002384186,615914.6000000238,7107,WL,A,5.0
6,5.749000072479248,distr,54250.99992752075,Fri Apr 11 2025 16:02:57 GMT-0500 (Central Daylight Time),616248.3999999762,B,sh,O,h,96,1,333.7999999523163,615914.6000000238,7107,WL,A,5.0
6,5.831000089645386,distr,54168.999910354614,Fri Apr 11 2025 16:02:57 GMT-0500 (Central Daylight Time),616331.2000000477,B,she,O,e,57,1,416.60000002384186,615914.6000000238,7107,WL,A,5.0
6,5.999000072479248,distr,54000.99992752075,Fri Apr 11 2025 16:02:57 GMT-0500 (Central Daylight Time),616498.3999999762,B,shee,O,e,142,1,583.7999999523163,615914.6000000238,7107,WL,A,5.0
6,6.148000001907349,distr,53851.99999809265,Fri Apr 11 2025 16:02:57 GMT-0500 (Central Daylight Time),616648.1000000238,B,sheep,O,p,112,1,733.5,615914.6000000238,7107,WL,A,5.0
6,6.46399998664856,distr,53536.00001335144,Fri Apr 11 2025 16:02:57 GMT-0500 (Central Daylight Time),616964.0,B,sheepenter,O,enter,283,1,1049.3999999761581,615914.6000000238,7107,WL,A,5.0
6,10.164000034332275,distr,49835.999965667725,Fri Apr 11 2025 16:02:57 GMT-0500 (Central Daylight Time),620663.7000000477,B,p,O,p,3682,1,3699.4000000953674,616964.2999999523,7107,WL,A,6.0
6,10.364000082015991,distr,49635.99991798401,Fri Apr 11 2025 16:02:57 GMT-0500 (Central Daylight Time),620863.5,B,pl,O,l,162,1,3899.2000000476837,616964.2999999523,7107,WL,A,6.0
6,10.420000076293945,distr,49579.999923706055,Fri Apr 11 2025 16:02:57 GMT-0500 (Central Daylight Time),620919.7999999523,B,pla,O,a,26,1,3955.5,616964.2999999523,7107,WL,A,6.0
6,10.61300015449524,distr,49386.99984550476,Fri Apr 11 2025 16:02:57 GMT-0500 (Central Daylight Time),621113.2000000477,B,plan,O,n,165,1,4148.900000095367,616964.2999999523,7107,WL,A,6.0
6,10.763000011444092,distr,49236.99998855591,Fri Apr 11 2025 16:02:57 GMT-0500 (Central Daylight Time),621262.8999999762,B,plane,O,e,122,1,4298.600000023842,616964.2999999523,7107,WL,A,6.0
6,10.996000051498413,distr,49003.99994850159,Fri Apr 11 2025 16:02:57 GMT-0500 (Central Daylight Time),621495.7999999523,B,planeenter,O,enter,209,1,4531.5,616964.2999999523,7107,WL,A,6.0
6,13.379000186920166,distr,46620.999813079834,Fri Apr 11 2025 16:02:57 GMT-0500 (Central Daylight Time),623879.2999999523,B,c,O,c,2366,1,2383.1999999284744,621496.1000000238,7107,WL,A,7.0
6,13.462000131607056,distr,46537.999868392944,Fri Apr 11 2025 16:02:57 GMT-0500 (Central Daylight Time),623962.3999999762,B,ch,O,h,43,1,2466.2999999523163,621496.1000000238,7107,WL,A,7.0
6,13.562000036239624,distr,46437.999963760376,Fri Apr 11 2025 16:02:57 GMT-0500 (Central Daylight Time),624061.7999999523,B,cha,O,a,77,1,2565.6999999284744,621496.1000000238,7107,WL,A,7.0
6,13.696000099182129,distr,46303.99990081787,Fri Apr 11 2025 16:02:57 GMT-0500 (Central Daylight Time),624195.6000000238,B,chai,O,i,111,1,2699.5,621496.1000000238,7107,WL,A,7.0
6,13.812000036239624,distr,46187.999963760376,Fri Apr 11 2025 16:02:57 GMT-0500 (Central Daylight Time),624311.8999999762,B,chair,O,r,79,1,2815.7999999523163,621496.1000000238,7107,WL,A,7.0
6,13.995000123977661,distr,46004.99987602234,Fri Apr 11 2025 16:02:57 GMT-0500 (Central Daylight Time),624494.8999999762,B,chairenter,O,enter,156,1,2998.7999999523163,621496.1000000238,7107,WL,A,7.0
6,26.02500009536743,distr,33974.99990463257,Fri Apr 11 2025 16:02:57 GMT-0500 (Central Daylight Time),636524.2999999523,B,enter,O,enter,12022,1,12029.199999928474,624495.1000000238,7107,WL,A,8.0
6,26.241000175476074,distr,33758.999824523926,Fri Apr 11 2025 16:02:57 GMT-0500 (Central Daylight Time),636740.7999999523,B,enter,O,enter,200,1,216.19999992847443,636524.6000000238,7107,WL,A,9.0
6,26.424000024795532,distr,33575.99997520447,Fri Apr 11 2025 16:02:57 GMT-0500 (Central Daylight Time),636924.2000000477,B,enter,O,enter,168,1,183.10000002384186,636741.1000000238,7107,WL,A,10.0
6,26.574000120162964,distr,33425.999879837036,Fri Apr 11 2025 16:02:57 GMT-0500 (Central Daylight Time),637074.1000000238,B,enter,O,enter,137,1,149.60000002384186,636924.5,7107,WL,A,11.0
6,26.70800018310547,distr,33291.99981689453,Fri Apr 11 2025 16:02:57 GMT-0500 (Central Daylight Time),637207.3999999762,B,enter,O,enter,115,1,133.10000002384186,637074.2999999523,7107,WL,A,12.0
6,26.907999992370605,distr,33092.000007629395,Fri Apr 11 2025 16:02:57 GMT-0500 (Central Daylight Time),637407.3999999762,B,enter,O,enter,182,1,199.69999992847443,637207.7000000477,7107,WL,A,13.0
6,27.19099998474121,distr,32809.00001525879,Fri Apr 11 2025 16:02:57 GMT-0500 (Central Daylight Time),637690.5,B,enter,O,enter,270,1,282.7999999523163,637407.7000000477,7107,WL,A,14.0
6,27.625,distr,32375.0,Fri Apr 11 2025 16:02:57 GMT-0500 (Central Daylight Time),638124.5,B,enter,O,enter,419,1,433.60000002384186,637690.8999999762,7107,WL,A,15.0
7,2.0829999446868896,immed,57917.00005531311,Fri Apr 11 2025 16:02:57 GMT-0500 (Central Daylight Time),644372.6000000238,A,t,O,t,2043,1,2082.0,642290.6000000238,7107,WL,A,1.0
7,2.298999786376953,immed,57701.00021362305,Fri Apr 11 2025 16:02:57 GMT-0500 (Central Daylight Time),644589.2000000477,A,tr,O,r,189,1,2298.600000023842,642290.6000000238,7107,WL,A,1.0
7,2.3989999294281006,immed,57601.0000705719,Fri Apr 11 2025 16:02:57 GMT-0500 (Central Daylight Time),644688.8999999762,A,tra,O,a,64,1,2398.2999999523163,642290.6000000238,7107,WL,A,1.0
7,2.5149998664855957,immed,57485.000133514404,Fri Apr 11 2025 16:02:57 GMT-0500 (Central Daylight Time),644805.0,A,trai,O,i,82,1,2514.399999976158,642290.6000000238,7107,WL,A,1.0
7,2.5989999771118164,immed,57401.00002288818,Fri Apr 11 2025 16:02:57 GMT-0500 (Central Daylight Time),644888.5,A,train,O,n,64,1,2597.899999976158,642290.6000000238,7107,WL,A,1.0
7,2.881999969482422,immed,57118.00003051758,Fri Apr 11 2025 16:02:57 GMT-0500 (Central Daylight Time),645171.2999999523,A,trainenter,O,enter,250,1,2880.6999999284744,642290.6000000238,7107,WL,A,1.0
7,4.048999786376953,immed,55951.00021362305,Fri Apr 11 2025 16:02:57 GMT-0500 (Central Daylight Time),646338.5,A,f,O,f,1155,1,1166.8999999761581,645171.6000000238,7107,WL,A,2.0
7,4.164999961853027,immed,55835.00003814697,Fri Apr 11 2025 16:02:57 GMT-0500 (Central Daylight Time),646454.8999999762,A,fl,O,l,80,1,1283.2999999523163,645171.6000000238,7107,WL,A,2.0
7,4.347999811172485,immed,55652.000188827515,Fri Apr 11 2025 16:02:57 GMT-0500 (Central Daylight Time),646638.2999999523,A,flo,O,o,145,1,1466.6999999284744,645171.6000000238,7107,WL,A,2.0
7,4.4009997844696045,immed,55599.000215530396,Fri Apr 11 2025 16:02:57 GMT-0500 (Central Daylight Time),646690.7000000477,A,flow,O,w,20,1,1519.1000000238419,645171.6000000238,7107,WL,A,2.0
7,4.4649999141693115,immed,55535.00008583069,Fri Apr 11 2025 16:02:57 GMT-0500 (Central Daylight Time),646754.3999999762,A,flowe,O,e,41,1,1582.7999999523163,645171.6000000238,7107,WL,A,2.0
7,4.56499981880188,immed,55435.00018119812,Fri Apr 11 2025 16:02:57 GMT-0500 (Central Daylight Time),646854.2999999523,A,flower,O,r,81,1,1682.6999999284744,645171.6000000238,7107,WL,A,2.0
7,4.680999994277954,immed,55319.000005722046,Fri Apr 11 2025 16:02:57 GMT-0500 (Central Daylight Time),646970.7999999523,A,flowerenter,O,enter,105,1,1799.1999999284744,645171.6000000238,7107,WL,A,2.0
7,4.98199987411499,immed,55018.00012588501,Fri Apr 11 2025 16:02:57 GMT-0500 (Central Daylight Time),647271.7000000477,A,s,O,s,291,1,300.7000000476837,646971.0,7107,WL,A,3.0
7,5.148000001907349,immed,54851.99999809265,Fri Apr 11 2025 16:02:57 GMT-0500 (Central Daylight Time),647438.0,A,sa,O,a,130,1,467.0,646971.0,7107,WL,A,3.0
7,5.247999906539917,immed,54752.00009346008,Fri Apr 11 2025 16:02:57 GMT-0500 (Central Daylight Time),647538.1000000238,A,sal,O,l,61,1,567.1000000238419,646971.0,7107,WL,A,3.0
7,5.381999969482422,immed,54618.00003051758,Fri Apr 11 2025 16:02:57 GMT-0500 (Central Daylight Time),647671.6000000238,A,salt,O,t,96,1,700.6000000238419,646971.0,7107,WL,A,3.0
7,5.496999979019165,immed,54503.000020980835,Fri Apr 11 2025 16:02:57 GMT-0500 (Central Daylight Time),647787.2999999523,A,saltenter,O,enter,71,1,816.2999999523163,646971.0,7107,WL,A,3.0
7,7.146999835968018,immed,52853.00016403198,Fri Apr 11 2025 16:02:57 GMT-0500 (Central Daylight Time),649436.6000000238,A,r,O,r,1642,1,1649.1000000238419,647787.5,7107,WL,A,4.0
7,7.2799999713897705,immed,52720.00002861023,Fri Apr 11 2025 16:02:57 GMT-0500 (Central Daylight Time),649570.0,A,ru,O,u,112,1,1782.5,647787.5,7107,WL,A,4.0
7,7.446999788284302,immed,52553.0002117157,Fri Apr 11 2025 16:02:57 GMT-0500 (Central Daylight Time),649737.0,A,rug,O,g,146,1,1949.5,647787.5,7107,WL,A,4.0
7,7.846999883651733,immed,52153.00011634827,Fri Apr 11 2025 16:02:57 GMT-0500 (Central Daylight Time),650136.6000000238,A,rugenter,O,enter,376,1,2349.100000023842,647787.5,7107,WL,A,4.0
7,9.746999979019165,immed,50253.000020980835,Fri Apr 11 2025 16:02:57 GMT-0500 (Central Daylight Time),652036.8999999762,A,g,O,g,1893,1,1900.0,650136.8999999762,7107,WL,A,5.0
7,9.929999828338623,immed,50070.00017166138,Fri Apr 11 2025 16:02:57 GMT-0500 (Central Daylight Time),652219.7000000477,A,go,O,o,163,1,2082.8000000715256,650136.8999999762,7107,WL,A,5.0
7,10.179999828338623,immed,49820.00017166138,Fri Apr 11 2025 16:02:57 GMT-0500 (Central Daylight Time),652469.8999999762,A,gol,O,l,235,1,2333.0,650136.8999999762,7107,WL,A,5.0
7,10.296000003814697,immed,49703.9999961853,Fri Apr 11 2025 16:02:57 GMT-0500 (Central Daylight Time),652586.0,A,gold,O,d,84,1,2449.100000023842,650136.8999999762,7107,WL,A,5.0
7,10.52899980545044,immed,49471.00019454956,Fri Apr 11 2025 16:02:57 GMT-0500 (Central Daylight Time),652818.8999999762,A,goldenter,O,enter,203,1,2682.0,650136.8999999762,7107,WL,A,5.0
7,10.679999828338623,immed,49320.00017166138,Fri Apr 11 2025 16:02:57 GMT-0500 (Central Daylight Time),652969.5,A,r,O,r,130,1,150.29999995231628,652819.2000000477,7107,WL,A,6.0
7,10.77899980545044,immed,49221.00019454956,Fri Apr 11 2025 16:02:57 GMT-0500 (Central Daylight Time),653068.8999999762,A,ra,O,a,73,1,249.69999992847443,652819.2000000477,7107,WL,A,6.0
7,10.895999908447266,immed,49104.000091552734,Fri Apr 11 2025 16:02:57 GMT-0500 (Central Daylight Time),653186.2999999523,A,rat,O,t,104,1,367.09999990463257,652819.2000000477,7107,WL,A,6.0
7,11.095999956130981,immed,48904.00004386902,Fri Apr 11 2025 16:02:57 GMT-0500 (Central Daylight Time),653386.0,A,ratt,O,t,161,1,566.7999999523163,652819.2000000477,7107,WL,A,6.0
7,11.212999820709229,immed,48787.00017929077,Fri Apr 11 2025 16:02:57 GMT-0500 (Central Daylight Time),653502.5,A,rattl,O,l,88,1,683.2999999523163,652819.2000000477,7107,WL,A,6.0
7,11.345999956130981,immed,48654.00004386902,Fri Apr 11 2025 16:02:57 GMT-0500 (Central Daylight Time),653636.0,A,rattle,O,e,107,1,816.7999999523163,652819.2000000477,7107,WL,A,6.0
7,11.461999893188477,immed,48538.00010681152,Fri Apr 11 2025 16:02:57 GMT-0500 (Central Daylight Time),653751.8999999762,A,rattleenter,O,enter,87,1,932.6999999284744,652819.2000000477,7107,WL,A,6.0
7,15.127999782562256,immed,44872.000217437744,Fri Apr 11 2025 16:02:57 GMT-0500 (Central Daylight Time),657418.2999999523,A,k,O,k,3654,1,3666.0999999046326,653752.2000000477,7107,WL,A,7.0
7,15.377999782562256,immed,44622.000217437744,Fri Apr 11 2025 16:02:57 GMT-0500 (Central Daylight Time),657668.2999999523,A,ke,O,e,206,1,3916.0999999046326,653752.2000000477,7107,WL,A,7.0
7,15.544999837875366,immed,44455.000162124634,Fri Apr 11 2025 16:02:57 GMT-0500 (Central Daylight Time),657834.7999999523,A,key,O,y,136,1,4082.5999999046326,653752.2000000477,7107,WL,A,7.0
7,16.01099991798401,immed,43989.00008201599,Fri Apr 11 2025 16:02:57 GMT-0500 (Central Daylight Time),658300.5,A,keyenter,O,enter,431,1,4548.299999952316,653752.2000000477,7107,WL,A,7.0
7,17.194999933242798,immed,42805.0000667572,Fri Apr 11 2025 16:02:57 GMT-0500 (Central Daylight Time),659484.7999999523,A,h,O,h,1178,1,1184.0999999046326,658300.7000000477,7107,WL,A,8.0
7,17.276999950408936,immed,42723.000049591064,Fri Apr 11 2025 16:02:57 GMT-0500 (Central Daylight Time),659566.7999999523,A,ha,O,a,61,1,1266.0999999046326,658300.7000000477,7107,WL,A,8.0
7,17.444000005722046,immed,42555.999994277954,Fri Apr 11 2025 16:02:57 GMT-0500 (Central Daylight Time),659734.2000000477,A,har,O,r,150,1,1433.5,658300.7000000477,7107,WL,A,8.0
7,17.560999870300293,immed,42439.00012969971,Fri Apr 11 2025 16:02:57 GMT-0500 (Central Daylight Time),659850.6000000238,A,harp,O,p,84,1,1549.8999999761581,658300.7000000477,7107,WL,A,8.0
7,17.91099977493286,immed,42089.00022506714,Fri Apr 11 2025 16:02:57 GMT-0500 (Central Daylight Time),660199.8999999762,A,harpenter,O,enter,318,1,1899.1999999284744,658300.7000000477,7107,WL,A,8.0
7,18.294999837875366,immed,41705.000162124634,Fri Apr 11 2025 16:02:57 GMT-0500 (Central Daylight Time),660584.2999999523,A,m,O,m,366,1,384.09999990463257,660200.2000000477,7107,WL,A,9.0
7,18.34999990463257,immed,41650.00009536743,Fri Apr 11 2025 16:02:57 GMT-0500 (Central Daylight Time),660639.2000000477,A,me,O,e,18,1,439.0,660200.2000000477,7107,WL,A,9.0
7,18.444000005722046,immed,41555.999994277954,Fri Apr 11 2025 16:02:57 GMT-0500 (Central Daylight Time),660733.7000000477,A,mea,O,a,81,1,533.5,660200.2000000477,7107,WL,A,9.0
7,18.543999910354614,immed,41456.000089645386,Fri Apr 11 2025 16:02:57 GMT-0500 (Central Daylight Time),660833.2000000477,A,mead,O,d,75,1,633.0,660200.2000000477,7107,WL,A,9.0
7,18.744999885559082,immed,41255.00011444092,Fri Apr 11 2025 16:02:57 GMT-0500 (Central Daylight Time),661033.8999999762,A,meado,O,o,176,1,833.6999999284744,660200.2000000477,7107,WL,A,9.0
7,18.877999782562256,immed,41122.000217437744,Fri Apr 11 2025 16:02:57 GMT-0500 (Central Daylight Time),661167.0,A,meadow,O,w,95,1,966.7999999523163,660200.2000000477,7107,WL,A,9.0
7,19.109999895095825,immed,40890.000104904175,Fri Apr 11 2025 16:02:57 GMT-0500 (Central Daylight Time),661399.5,A,meadowenter,O,enter,194,1,1199.2999999523163,660200.2000000477,7107,WL,A,9.0
7,21.0939998626709,immed,38906.0001373291,Fri Apr 11 2025 16:02:57 GMT-0500 (Central Daylight Time),663383.0,A,f,O,f,1975,1,1983.2999999523163,661399.7000000477,7107,WL,A,10.0
7,21.192999839782715,immed,38807.000160217285,Fri Apr 11 2025 16:02:57 GMT-0500 (Central Daylight Time),663482.5,A,fi,O,i,64,1,2082.7999999523163,661399.7000000477,7107,WL,A,10.0
7,21.258999824523926,immed,38741.000175476074,Fri Apr 11 2025 16:02:57 GMT-0500 (Central Daylight Time),663548.7000000477,A,fin,O,n,53,1,2149.0,661399.7000000477,7107,WL,A,10.0
7,21.325999975204468,immed,38674.00002479553,Fri Apr 11 2025 16:02:57 GMT-0500 (Central Daylight Time),663615.2999999523,A,fing,O,g,47,1,2215.5999999046326,661399.7000000477,7107,WL,A,10.0
7,21.459999799728394,immed,38540.00020027161,Fri Apr 11 2025 16:02:57 GMT-0500 (Central Daylight Time),663749.3999999762,A,finge,O,e,117,1,2349.6999999284744,661399.7000000477,7107,WL,A,10.0
7,21.542999982833862,immed,38457.00001716614,Fri Apr 11 2025 16:02:57 GMT-0500 (Central Daylight Time),663832.1000000238,A,finger,O,r,53,1,2432.399999976158,661399.7000000477,7107,WL,A,10.0
7,21.64299988746643,immed,38357.00011253357,Fri Apr 11 2025 16:02:57 GMT-0500 (Central Daylight Time),663931.8999999762,A,fingerenter,O,enter,90,1,2532.1999999284744,661399.7000000477,7107,WL,A,10.0
7,21.80999994277954,immed,38190.00005722046,Fri Apr 11 2025 16:02:57 GMT-0500 (Central Daylight Time),664099.5,A,c,O,c,146,1,167.29999995231628,663932.2000000477,7107,WL,A,11.0
7,21.908999919891357,immed,38091.00008010864,Fri Apr 11 2025 16:02:57 GMT-0500 (Central Daylight Time),664198.6000000238,A,ch,O,h,61,1,266.39999997615814,663932.2000000477,7107,WL,A,11.0
7,21.97599983215332,immed,38024.00016784668,Fri Apr 11 2025 16:02:57 GMT-0500 (Central Daylight Time),664265.1000000238,A,chi,O,i,38,1,332.89999997615814,663932.2000000477,7107,WL,A,11.0
7,22.32699990272522,immed,37673.00009727478,Fri Apr 11 2025 16:02:57 GMT-0500 (Central Daylight Time),664616.0,A,chim,O,m,339,1,683.7999999523163,663932.2000000477,7107,WL,A,11.0
7,22.592000007629395,immed,37407.999992370605,Fri Apr 11 2025 16:02:57 GMT-0500 (Central Daylight Time),664881.6000000238,A,chimn,O,n,234,1,949.3999999761581,663932.2000000477,7107,WL,A,11.0
7,22.758999824523926,immed,37241.000175476074,Fri Apr 11 2025 16:02:57 GMT-0500 (Central Daylight Time),665048.2000000477,A,chimne,O,e,154,1,1116.0,663932.2000000477,7107,WL,A,11.0
7,22.89199995994568,immed,37108.00004005432,Fri Apr 11 2025 16:02:57 GMT-0500 (Central Daylight Time),665181.5,A,chimney,O,y,116,1,1249.2999999523163,663932.2000000477,7107,WL,A,11.0
7,23.22599983215332,immed,36774.00016784668,Fri Apr 11 2025 16:02:57 GMT-0500 (Central Daylight Time),665515.7000000477,A,chimneyenter,O,enter,310,1,1583.5,663932.2000000477,7107,WL,A,11.0
7,26.97499990463257,immed,33025.00009536743,Fri Apr 11 2025 16:02:57 GMT-0500 (Central Daylight Time),669264.7000000477,A,a,O,a,3738,1,3748.8000000715256,665515.8999999762,7107,WL,A,12.0
7,27.05299997329712,immed,32947.00002670288,Fri Apr 11 2025 16:02:57 GMT-0500 (Central Daylight Time),669342.3999999762,A,ap,O,p,48,1,3826.5,665515.8999999762,7107,WL,A,12.0
7,27.19099998474121,immed,32809.00001525879,Fri Apr 11 2025 16:02:57 GMT-0500 (Central Daylight Time),669480.6000000238,A,app,O,p,118,1,3964.7000000476837,665515.8999999762,7107,WL,A,12.0
7,27.407999992370605,immed,32592.000007629395,Fri Apr 11 2025 16:02:57 GMT-0500 (Central Daylight Time),669697.7000000477,A,appl,O,l,189,1,4181.800000071526,665515.8999999762,7107,WL,A,12.0
7,27.473999977111816,immed,32526.000022888184,Fri Apr 11 2025 16:02:57 GMT-0500 (Central Daylight Time),669763.3999999762,A,apple,O,e,41,1,4247.5,665515.8999999762,7107,WL,A,12.0
7,27.625,immed,32375.0,Fri Apr 11 2025 16:02:57 GMT-0500 (Central Daylight Time),669914.3999999762,A,appleenter,O,enter,136,1,4398.5,665515.8999999762,7107,WL,A,12.0
7,39.23799991607666,immed,20762.00008392334,Fri Apr 11 2025 16:02:57 GMT-0500 (Central Daylight Time),681527.2999999523,A,enter,O,enter,11595,1,11612.5,669914.7999999523,7107,WL,A,13.0
7,39.36999988555908,immed,20630.000114440918,Fri Apr 11 2025 16:02:57 GMT-0500 (Central Daylight Time),681659.5,A,enter,O,enter,118,1,132.0,681527.5,7107,WL,A,14.0
7,39.78699994087219,immed,20213.000059127808,Fri Apr 11 2025 16:02:57 GMT-0500 (Central Daylight Time),682076.0,A,enter,O,enter,402,1,416.2000000476837,681659.7999999523,7107,WL,A,15.0
