acc_sum,block,block_c,block_cond,con_img,correct,correct_response,datetime,endtime,face,jitter,line,project,response,response_time,row_sel,session_number,start_end,starttime,subject_id,task,task_vers,trial
0,prac,1,A,haborder.png,0,z,Thu Apr 03 2025 15:46:44 GMT-0500 (Central Daylight Time),57782.89999999851,CFD-BF-031-020-A.jpg,1000,solid,O,None,1514,4,1,3283.2999999970198,54499.60000000149,7110,ATS,C,1
0,prac,1,A,haborder.png,0,z,Thu Apr 03 2025 15:46:44 GMT-0500 (Central Daylight Time),61681.39999999851,CFD-BM-043-014-A.jpg,1600,solid,O,None,1514,2,1,7181.79999999702,54499.60000000149,7110,ATS,C,2
1,prac,1,A,haborder.png,1,m,Thu Apr 03 2025 15:46:44 GMT-0500 (Central Daylight Time),64529.70000000298,CFD-BM-022-004-HC.jpg,1500,solid,O,m,555,3,1,10030.10000000149,54499.60000000149,7110,ATS,C,3
2,prac,1,A,haborder.png,1,m,Thu Apr 03 2025 15:46:44 GMT-0500 (Central Daylight Time),67528.0,CFD-WF-013-009-HC.jpg,1500,solid,O,m,716,11,1,13028.39999999851,54499.60000000149,7110,ATS,C,4
3,prac,1,A,haborder.png,1,z,Thu Apr 03 2025 15:46:44 GMT-0500 (Central Daylight Time),69980.0,CFD-BF-002-018-A.jpg,1200,solid,O,z,462,6,1,15480.39999999851,54499.60000000149,7110,ATS,C,5
4,prac,1,A,haborder.png,1,z,Thu Apr 03 2025 15:46:44 GMT-0500 (Central Daylight Time),72395.39999999851,CFD-WF-023-013-A.jpg,1000,solid,O,z,634,12,1,17895.79999999702,54499.60000000149,7110,ATS,C,6
5,prac,1,A,haborder.png,1,m,Thu Apr 03 2025 15:46:44 GMT-0500 (Central Daylight Time),75109.70000000298,CFD-WM-028-005-HC.jpg,1400,solid,O,m,517,7,1,20610.10000000149,54499.60000000149,7110,ATS,C,7
6,prac,1,A,haborder.png,1,m,Thu Apr 03 2025 15:46:44 GMT-0500 (Central Daylight Time),78275.29999999702,CFD-WM-035-036-HC.jpg,1700,solid,O,m,665,9,1,23775.69999999553,54499.60000000149,7110,ATS,C,8
7,prac,1,A,haborder.png,1,z,Thu Apr 03 2025 15:46:44 GMT-0500 (Central Daylight Time),81775.60000000149,CFD-WM-036-018-A.jpg,1900,solid,O,z,810,8,1,27276.0,54499.60000000149,7110,ATS,C,9
8,prac,1,A,haborder.png,1,m,Thu Apr 03 2025 15:46:44 GMT-0500 (Central Daylight Time),85039.29999999702,CFD-BM-034-035-HC.jpg,1700,solid,O,m,775,1,1,30539.69999999553,54499.60000000149,7110,ATS,C,10
9,prac,1,A,haborder.png,1,m,Thu Apr 03 2025 15:46:44 GMT-0500 (Central Daylight Time),88624.60000000149,CFD-BF-019-004-HC.jpg,2000,solid,O,m,809,5,1,34125.0,54499.60000000149,7110,ATS,C,11
10,prac,1,A,haborder.png,1,z,Thu Apr 03 2025 15:46:44 GMT-0500 (Central Daylight Time),91673.39999999851,CFD-WF-037-016-A.jpg,1600,solid,O,z,659,10,1,37173.79999999702,54499.60000000149,7110,ATS,C,12
1,prac,1,B,mfborder.png,1,m,Thu Apr 03 2025 15:46:44 GMT-0500 (Central Daylight Time),117760.79999999702,CFD-WM-034-040-A.jpg,1200,6,O,m,565,dash,1,2547.0,115213.79999999702,7110,ATS,C,1
2,prac,1,B,mfborder.png,1,z,Thu Apr 03 2025 15:46:44 GMT-0500 (Central Daylight Time),120531.60000000149,CFD-BF-019-004-HC.jpg,1400,7,O,z,551,dash,1,5317.80000000447,115213.79999999702,7110,ATS,C,2
3,prac,1,B,mfborder.png,1,z,Thu Apr 03 2025 15:46:44 GMT-0500 (Central Daylight Time),123546.70000000298,CFD-WF-037-016-A.jpg,1500,11,O,z,722,dash,1,8332.90000000596,115213.79999999702,7110,ATS,C,3
4,prac,1,B,mfborder.png,1,m,Thu Apr 03 2025 15:46:44 GMT-0500 (Central Daylight Time),127027.89999999851,CFD-BM-022-004-HC.jpg,1700,1,O,m,1013,dash,1,11814.10000000149,115213.79999999702,7110,ATS,C,4
5,prac,1,B,mfborder.png,1,z,Thu Apr 03 2025 15:46:44 GMT-0500 (Central Daylight Time),130309.0,CFD-WF-001-010-HC.jpg,1900,8,O,z,592,dash,1,15095.20000000298,115213.79999999702,7110,ATS,C,5
6,prac,1,B,mfborder.png,1,z,Thu Apr 03 2025 15:46:44 GMT-0500 (Central Daylight Time),133358.3999999985,CFD-BF-042-031-HC.jpg,1500,3,O,z,774,dash,1,18144.60000000149,115213.79999999702,7110,ATS,C,6
7,prac,1,B,mfborder.png,1,m,Thu Apr 03 2025 15:46:44 GMT-0500 (Central Daylight Time),137024.0,CFD-BM-043-014-A.jpg,2000,5,O,m,865,dash,1,21810.20000000298,115213.79999999702,7110,ATS,C,7
8,prac,1,B,mfborder.png,1,z,Thu Apr 03 2025 15:46:44 GMT-0500 (Central Daylight Time),139906.70000000298,CFD-WF-013-009-HC.jpg,1000,12,O,z,1095,dash,1,24692.90000000596,115213.79999999702,7110,ATS,C,8
9,prac,1,B,mfborder.png,1,z,Thu Apr 03 2025 15:46:44 GMT-0500 (Central Daylight Time),142390.0,CFD-BF-031-020-A.jpg,1000,4,O,z,711,dash,1,27176.20000000298,115213.79999999702,7110,ATS,C,9
10,prac,1,B,mfborder.png,1,m,Thu Apr 03 2025 15:46:44 GMT-0500 (Central Daylight Time),145422.79999999702,CFD-WM-035-036-HC.jpg,1600,10,O,m,634,dash,1,30209.0,115213.79999999702,7110,ATS,C,10
11,prac,1,B,mfborder.png,1,m,Thu Apr 03 2025 15:46:44 GMT-0500 (Central Daylight Time),149004.70000000298,CFD-BM-021-026-A.jpg,1600,2,O,m,1212,dash,1,33790.90000000596,115213.79999999702,7110,ATS,C,11
12,prac,1,B,mfborder.png,1,m,Thu Apr 03 2025 15:46:44 GMT-0500 (Central Daylight Time),152451.8999999985,CFD-WM-036-018-A.jpg,1700,9,O,m,947,dash,1,37238.10000000149,115213.79999999702,7110,ATS,C,12
1,test,1,A,haborder.png,1,m,Thu Apr 03 2025 15:46:44 GMT-0500 (Central Daylight Time),170113.29999999702,CFD-WF-013-009-HC.jpg,1500,solid,O,m,1077,11,1,2616.5999999940395,167496.70000000298,7110,ATS,C,1
2,test,1,A,haborder.png,1,z,Thu Apr 03 2025 15:46:44 GMT-0500 (Central Daylight Time),172094.29999999702,CFD-BF-031-020-A.jpg,1000,solid,O,z,950,4,1,4597.5999999940395,167496.70000000298,7110,ATS,C,2
3,test,1,A,haborder.png,1,m,Thu Apr 03 2025 15:46:44 GMT-0500 (Central Daylight Time),174413.5,CFD-BM-034-035-HC.jpg,1700,solid,O,m,600,1,1,6916.79999999702,167496.70000000298,7110,ATS,C,3
4,test,1,A,haborder.png,1,m,Thu Apr 03 2025 15:46:44 GMT-0500 (Central Daylight Time),177227.6000000015,CFD-BF-019-004-HC.jpg,2000,solid,O,m,798,5,1,9730.89999999851,167496.70000000298,7110,ATS,C,4
5,test,1,A,haborder.png,1,m,Thu Apr 03 2025 15:46:44 GMT-0500 (Central Daylight Time),179592.1000000015,CFD-WM-035-036-HC.jpg,1700,solid,O,m,639,9,1,12095.39999999851,167496.70000000298,7110,ATS,C,5
6,test,1,A,haborder.png,1,z,Thu Apr 03 2025 15:46:44 GMT-0500 (Central Daylight Time),181156.8999999985,CFD-WF-023-013-A.jpg,1000,solid,O,z,533,12,1,13660.19999999553,167496.70000000298,7110,ATS,C,6
7,test,1,A,haborder.png,1,m,Thu Apr 03 2025 15:46:44 GMT-0500 (Central Daylight Time),183658.70000000298,CFD-WF-013-009-HC.jpg,1500,solid,O,m,973,11,1,16162.0,167496.70000000298,7110,ATS,C,7
8,test,1,A,haborder.png,1,z,Thu Apr 03 2025 15:46:44 GMT-0500 (Central Daylight Time),185442.6000000015,CFD-BF-002-018-A.jpg,1200,solid,O,z,566,6,1,17945.89999999851,167496.70000000298,7110,ATS,C,8
9,test,1,A,haborder.png,1,m,Thu Apr 03 2025 15:46:44 GMT-0500 (Central Daylight Time),187490.1000000015,CFD-BM-022-004-HC.jpg,1500,solid,O,m,522,3,1,19993.39999999851,167496.70000000298,7110,ATS,C,9
10,test,1,A,haborder.png,1,z,Thu Apr 03 2025 15:46:44 GMT-0500 (Central Daylight Time),189672.1000000015,CFD-BM-043-014-A.jpg,1600,solid,O,z,549,2,1,22175.39999999851,167496.70000000298,7110,ATS,C,10
11,test,1,A,haborder.png,1,m,Thu Apr 03 2025 15:46:44 GMT-0500 (Central Daylight Time),191838.8999999985,CFD-WM-028-005-HC.jpg,1400,solid,O,m,734,7,1,24342.19999999553,167496.70000000298,7110,ATS,C,11
12,test,1,A,haborder.png,1,z,Thu Apr 03 2025 15:46:44 GMT-0500 (Central Daylight Time),194204.8999999985,CFD-WF-037-016-A.jpg,1600,solid,O,z,737,10,1,26708.19999999553,167496.70000000298,7110,ATS,C,12
13,test,1,A,haborder.png,1,m,Thu Apr 03 2025 15:46:44 GMT-0500 (Central Daylight Time),196452.5,CFD-BM-022-004-HC.jpg,1500,solid,O,m,717,3,1,28955.79999999702,167496.70000000298,7110,ATS,C,13
14,test,1,A,haborder.png,1,z,Thu Apr 03 2025 15:46:44 GMT-0500 (Central Daylight Time),198672.20000000298,CFD-BF-031-020-A.jpg,1000,solid,O,z,1185,4,1,31175.5,167496.70000000298,7110,ATS,C,14
15,test,1,A,haborder.png,1,m,Thu Apr 03 2025 15:46:44 GMT-0500 (Central Daylight Time),201052.29999999702,CFD-BM-034-035-HC.jpg,1700,solid,O,m,652,1,1,33555.59999999404,167496.70000000298,7110,ATS,C,15
16,test,1,A,haborder.png,1,z,Thu Apr 03 2025 15:46:44 GMT-0500 (Central Daylight Time),203369.5,CFD-WF-037-016-A.jpg,1600,solid,O,z,685,10,1,35872.79999999702,167496.70000000298,7110,ATS,C,16
16,test,1,A,haborder.png,0,z,Thu Apr 03 2025 15:46:44 GMT-0500 (Central Daylight Time),206235.20000000298,CFD-WM-036-018-A.jpg,1900,solid,O,m,949,8,1,38738.5,167496.70000000298,7110,ATS,C,17
17,test,1,A,haborder.png,1,z,Thu Apr 03 2025 15:46:44 GMT-0500 (Central Daylight Time),208783.3999999985,CFD-BM-043-014-A.jpg,1600,solid,O,z,927,2,1,41286.69999999553,167496.70000000298,7110,ATS,C,18
18,test,1,A,haborder.png,1,z,Thu Apr 03 2025 15:46:44 GMT-0500 (Central Daylight Time),210933.1000000015,CFD-BF-002-018-A.jpg,1200,solid,O,z,930,6,1,43436.39999999851,167496.70000000298,7110,ATS,C,19
18,test,1,A,haborder.png,0,z,Thu Apr 03 2025 15:46:44 GMT-0500 (Central Daylight Time),213831.6000000015,CFD-WM-036-018-A.jpg,1900,solid,O,m,975,8,1,46334.89999999851,167496.70000000298,7110,ATS,C,20
19,test,1,A,haborder.png,1,m,Thu Apr 03 2025 15:46:44 GMT-0500 (Central Daylight Time),216082.79999999702,CFD-WM-028-005-HC.jpg,1400,solid,O,m,832,7,1,48586.09999999404,167496.70000000298,7110,ATS,C,21
20,test,1,A,haborder.png,1,m,Thu Apr 03 2025 15:46:44 GMT-0500 (Central Daylight Time),218996.70000000298,CFD-BF-019-004-HC.jpg,2000,solid,O,m,897,5,1,51500.0,167496.70000000298,7110,ATS,C,22
21,test,1,A,haborder.png,1,z,Thu Apr 03 2025 15:46:44 GMT-0500 (Central Daylight Time),220681.0,CFD-WF-023-013-A.jpg,1000,solid,O,z,651,12,1,53184.29999999702,167496.70000000298,7110,ATS,C,23
22,test,1,A,haborder.png,1,m,Thu Apr 03 2025 15:46:44 GMT-0500 (Central Daylight Time),223096.29999999702,CFD-WM-035-036-HC.jpg,1700,solid,O,m,685,9,1,55599.59999999404,167496.70000000298,7110,ATS,C,24
1,test,1,B,mfborder.png,1,z,Thu Apr 03 2025 15:46:44 GMT-0500 (Central Daylight Time),233226.1000000015,CFD-BF-031-020-A.jpg,1000,dash,O,z,484,4,1,1517.0,231709.1000000015,7110,ATS,C,1
2,test,1,B,mfborder.png,1,m,Thu Apr 03 2025 15:46:44 GMT-0500 (Central Daylight Time),235377.1000000015,CFD-WM-035-036-HC.jpg,1600,dash,O,m,525,10,1,3668.0,231709.1000000015,7110,ATS,C,2
3,test,1,B,mfborder.png,1,z,Thu Apr 03 2025 15:46:44 GMT-0500 (Central Daylight Time),237408.29999999702,CFD-WF-037-016-A.jpg,1500,dash,O,z,510,11,1,5699.19999999553,231709.1000000015,7110,ATS,C,3
4,test,1,B,mfborder.png,1,m,Thu Apr 03 2025 15:46:44 GMT-0500 (Central Daylight Time),240223.20000000298,CFD-WM-036-018-A.jpg,1700,dash,O,m,1083,9,1,8514.10000000149,231709.1000000015,7110,ATS,C,4
5,test,1,B,mfborder.png,1,z,Thu Apr 03 2025 15:46:44 GMT-0500 (Central Daylight Time),241892.29999999702,CFD-BF-031-020-A.jpg,1000,dash,O,z,649,4,1,10183.19999999553,231709.1000000015,7110,ATS,C,5
6,test,1,B,mfborder.png,1,z,Thu Apr 03 2025 15:46:44 GMT-0500 (Central Daylight Time),244122.0,CFD-WF-037-016-A.jpg,1500,dash,O,z,705,11,1,12412.89999999851,231709.1000000015,7110,ATS,C,6
7,test,1,B,mfborder.png,1,z,Thu Apr 03 2025 15:46:44 GMT-0500 (Central Daylight Time),246672.6000000015,CFD-WF-001-010-HC.jpg,1900,dash,O,z,626,8,1,14963.5,231709.1000000015,7110,ATS,C,7
8,test,1,B,mfborder.png,1,m,Thu Apr 03 2025 15:46:44 GMT-0500 (Central Daylight Time),248937.5,CFD-BM-022-004-HC.jpg,1700,dash,O,m,531,1,1,17228.39999999851,231709.1000000015,7110,ATS,C,8
9,test,1,B,mfborder.png,1,z,Thu Apr 03 2025 15:46:44 GMT-0500 (Central Daylight Time),250754.5,CFD-WF-013-009-HC.jpg,1000,dash,O,z,789,12,1,19045.39999999851,231709.1000000015,7110,ATS,C,9
10,test,1,B,mfborder.png,1,m,Thu Apr 03 2025 15:46:44 GMT-0500 (Central Daylight Time),253053.20000000298,CFD-WM-036-018-A.jpg,1700,dash,O,m,580,9,1,21344.10000000149,231709.1000000015,7110,ATS,C,10
11,test,1,B,mfborder.png,1,m,Thu Apr 03 2025 15:46:44 GMT-0500 (Central Daylight Time),255619.0,CFD-BM-043-014-A.jpg,2000,dash,O,m,540,5,1,23909.89999999851,231709.1000000015,7110,ATS,C,11
12,test,1,B,mfborder.png,1,z,Thu Apr 03 2025 15:46:44 GMT-0500 (Central Daylight Time),258119.1000000015,CFD-BF-042-031-HC.jpg,1500,dash,O,z,963,3,1,26410.0,231709.1000000015,7110,ATS,C,12
13,test,1,B,mfborder.png,1,m,Thu Apr 03 2025 15:46:44 GMT-0500 (Central Daylight Time),260435.1000000015,CFD-WM-034-040-A.jpg,1200,dash,O,m,1085,6,1,28726.0,231709.1000000015,7110,ATS,C,13
14,test,1,B,mfborder.png,1,m,Thu Apr 03 2025 15:46:44 GMT-0500 (Central Daylight Time),262701.0,CFD-BM-022-004-HC.jpg,1700,dash,O,m,539,1,1,30991.89999999851,231709.1000000015,7110,ATS,C,14
15,test,1,B,mfborder.png,1,z,Thu Apr 03 2025 15:46:44 GMT-0500 (Central Daylight Time),265516.5,CFD-BF-042-031-HC.jpg,1500,dash,O,z,1289,3,1,33807.39999999851,231709.1000000015,7110,ATS,C,15
16,test,1,B,mfborder.png,1,m,Thu Apr 03 2025 15:46:44 GMT-0500 (Central Daylight Time),268348.799999997,CFD-WM-035-036-HC.jpg,1600,dash,O,m,1216,10,1,36639.69999999553,231709.1000000015,7110,ATS,C,16
17,test,1,B,mfborder.png,1,m,Thu Apr 03 2025 15:46:44 GMT-0500 (Central Daylight Time),271064.3999999985,CFD-BM-021-026-A.jpg,1600,dash,O,m,1085,2,1,39355.29999999702,231709.1000000015,7110,ATS,C,17
18,test,1,B,mfborder.png,1,m,Thu Apr 03 2025 15:46:44 GMT-0500 (Central Daylight Time),273482.1000000015,CFD-WM-034-040-A.jpg,1200,dash,O,m,1190,6,1,41773.0,231709.1000000015,7110,ATS,C,18
19,test,1,B,mfborder.png,1,z,Thu Apr 03 2025 15:46:44 GMT-0500 (Central Daylight Time),275182.200000003,CFD-WF-013-009-HC.jpg,1000,dash,O,z,684,12,1,43473.10000000149,231709.1000000015,7110,ATS,C,19
20,test,1,B,mfborder.png,1,z,Thu Apr 03 2025 15:46:44 GMT-0500 (Central Daylight Time),277212.6000000015,CFD-BF-019-004-HC.jpg,1400,dash,O,z,605,7,1,45503.5,231709.1000000015,7110,ATS,C,20
21,test,1,B,mfborder.png,1,z,Thu Apr 03 2025 15:46:44 GMT-0500 (Central Daylight Time),279894.3999999985,CFD-WF-001-010-HC.jpg,1900,dash,O,z,751,8,1,48185.29999999702,231709.1000000015,7110,ATS,C,21
22,test,1,B,mfborder.png,1,m,Thu Apr 03 2025 15:46:44 GMT-0500 (Central Daylight Time),282893.3999999985,CFD-BM-043-014-A.jpg,2000,dash,O,m,968,5,1,51184.29999999702,231709.1000000015,7110,ATS,C,22
22,test,1,B,mfborder.png,0,z,Thu Apr 03 2025 15:46:44 GMT-0500 (Central Daylight Time),285527.5,CFD-BF-019-004-HC.jpg,1400,dash,O,m,1204,7,1,53818.39999999851,231709.1000000015,7110,ATS,C,23
23,test,1,B,mfborder.png,1,m,Thu Apr 03 2025 15:46:44 GMT-0500 (Central Daylight Time),287808.0,CFD-BM-021-026-A.jpg,1600,dash,O,m,659,2,1,56098.89999999851,231709.1000000015,7110,ATS,C,24
1,prac,1,C,haborder.png,1,z,Thu Apr 03 2025 15:46:44 GMT-0500 (Central Daylight Time),318434.299999997,CFD-BF-002-018-A.jpg,1700,solid,O,z,1005,2,1,3484.2999999970198,314950.0,7110,ATS,C,1
2,prac,1,C,haborder.png,1,m,Thu Apr 03 2025 15:46:44 GMT-0500 (Central Daylight Time),321849.700000003,CFD-WM-028-005-HC.jpg,1400,solid,O,m,1249,2,1,6899.70000000298,314950.0,7110,ATS,C,2
3,prac,1,C,mfborder.png,1,m,Thu Apr 03 2025 15:46:44 GMT-0500 (Central Daylight Time),324431.8999999985,CFD-BM-043-014-A.jpg,1200,dash,O,m,593,2,1,9481.89999999851,314950.0,7110,ATS,C,3
4,prac,1,C,haborder.png,1,m,Thu Apr 03 2025 15:46:44 GMT-0500 (Central Daylight Time),327429.700000003,CFD-BM-022-004-HC.jpg,1500,solid,O,m,702,2,1,12479.70000000298,314950.0,7110,ATS,C,4
5,prac,1,C,mfborder.png,1,z,Thu Apr 03 2025 15:46:44 GMT-0500 (Central Daylight Time),330129.700000003,CFD-BF-019-004-HC.jpg,1000,dash,O,z,908,2,1,15179.70000000298,314950.0,7110,ATS,C,5
6,prac,1,C,mfborder.png,1,m,Thu Apr 03 2025 15:46:44 GMT-0500 (Central Daylight Time),333979.700000003,CFD-BM-034-035-HC.jpg,2000,solid,O,m,1068,2,1,19029.70000000298,314950.0,7110,ATS,C,6
7,prac,1,C,mfborder.png,1,z,Thu Apr 03 2025 15:46:44 GMT-0500 (Central Daylight Time),337676.299999997,CFD-WF-013-009-HC.jpg,1600,dash,O,z,1309,2,1,22726.29999999702,314950.0,7110,ATS,C,7
7,prac,1,C,haborder.png,0,m,Thu Apr 03 2025 15:46:44 GMT-0500 (Central Daylight Time),340975.5,CFD-WM-028-005-HC.jpg,1000,dash,O,None,1517,2,1,26025.5,314950.0,7110,ATS,C,8
8,prac,1,C,haborder.png,1,z,Thu Apr 03 2025 15:46:44 GMT-0500 (Central Daylight Time),344408.700000003,CFD-BF-031-020-A.jpg,1900,dash,O,z,741,2,1,29458.70000000298,314950.0,7110,ATS,C,9
8,prac,1,C,haborder.png,0,z,Thu Apr 03 2025 15:46:44 GMT-0500 (Central Daylight Time),347623.200000003,CFD-WF-037-016-A.jpg,1600,dash,O,m,833,2,1,32673.20000000298,314950.0,7110,ATS,C,10
9,prac,1,C,mfborder.png,1,m,Thu Apr 03 2025 15:46:44 GMT-0500 (Central Daylight Time),350906.6000000015,CFD-WM-036-018-A.jpg,1700,solid,O,m,798,2,1,35956.60000000149,314950.0,7110,ATS,C,11
10,prac,1,C,mfborder.png,1,z,Thu Apr 03 2025 15:46:44 GMT-0500 (Central Daylight Time),354455.1000000015,CFD-WF-023-013-A.jpg,1500,solid,O,z,1259,2,1,39505.10000000149,314950.0,7110,ATS,C,12
0,test,1,C,haborder.png,0,z,Thu Apr 03 2025 15:46:44 GMT-0500 (Central Daylight Time),364085.299999997,CFD-BM-021-026-A.jpg,1700,solid,O,m,704,9,1,2432.5999999940395,361652.700000003,7110,ATS,C,1
1,test,1,C,haborder.png,1,m,Thu Apr 03 2025 15:46:44 GMT-0500 (Central Daylight Time),366651.5,CFD-WF-001-010-HC.jpg,1500,solid,O,m,1031,11,1,4998.79999999702,361652.700000003,7110,ATS,C,2
2,test,1,C,mfborder.png,1,z,Thu Apr 03 2025 15:46:44 GMT-0500 (Central Daylight Time),369517.799999997,CFD-BF-031-020-A.jpg,1600,dash,O,z,1238,2,1,7865.0999999940395,361652.700000003,7110,ATS,C,3
2,test,1,C,haborder.png,0,z,Thu Apr 03 2025 15:46:44 GMT-0500 (Central Daylight Time),372615.6000000015,CFD-BM-043-014-A.jpg,1900,solid,O,m,1166,8,1,10962.89999999851,361652.700000003,7110,ATS,C,4
2,test,1,C,mfborder.png,0,m,Thu Apr 03 2025 15:46:44 GMT-0500 (Central Daylight Time),375146.200000003,CFD-WM-035-036-HC.jpg,1000,dash,O,None,1513,4,1,13493.5,361652.700000003,7110,ATS,C,5
3,test,1,C,haborder.png,1,z,Thu Apr 03 2025 15:46:44 GMT-0500 (Central Daylight Time),378047.799999997,CFD-BM-043-014-A.jpg,1900,solid,O,z,976,8,1,16395.09999999404,361652.700000003,7110,ATS,C,6
3,test,1,C,mfborder.png,0,z,Thu Apr 03 2025 15:46:44 GMT-0500 (Central Daylight Time),381280.799999997,CFD-BF-042-031-HC.jpg,1700,dash,O,None,1516,1,1,19628.09999999404,361652.700000003,7110,ATS,C,7
3,test,1,C,haborder.png,0,z,Thu Apr 03 2025 15:46:44 GMT-0500 (Central Daylight Time),383796.700000003,CFD-BM-021-026-A.jpg,1700,solid,O,m,799,9,1,22144.0,361652.700000003,7110,ATS,C,8
4,test,1,C,mfborder.png,1,m,Thu Apr 03 2025 15:46:44 GMT-0500 (Central Daylight Time),385895.799999997,CFD-BM-022-004-HC.jpg,1200,dash,O,m,869,6,1,24243.09999999404,361652.700000003,7110,ATS,C,9
5,test,1,C,mfborder.png,1,z,Thu Apr 03 2025 15:46:44 GMT-0500 (Central Daylight Time),388294.6000000015,CFD-WF-037-016-A.jpg,1500,dash,O,z,864,3,1,26641.89999999851,361652.700000003,7110,ATS,C,10
6,test,1,C,haborder.png,1,z,Thu Apr 03 2025 15:46:44 GMT-0500 (Central Daylight Time),390992.8999999985,CFD-WM-036-018-A.jpg,1400,solid,O,z,1276,7,1,29340.19999999553,361652.700000003,7110,ATS,C,11
7,test,1,C,mfborder.png,1,z,Thu Apr 03 2025 15:46:44 GMT-0500 (Central Daylight Time),393291.0,CFD-BF-031-020-A.jpg,1600,dash,O,z,682,2,1,31638.29999999702,361652.700000003,7110,ATS,C,12
8,test,1,C,mfborder.png,1,m,Thu Apr 03 2025 15:46:44 GMT-0500 (Central Daylight Time),396457.8999999985,CFD-WM-034-040-A.jpg,2000,dash,O,m,1143,5,1,34805.19999999553,361652.700000003,7110,ATS,C,13
9,test,1,C,mfborder.png,1,m,Thu Apr 03 2025 15:46:44 GMT-0500 (Central Daylight Time),398573.6000000015,CFD-BM-022-004-HC.jpg,1200,dash,O,m,884,6,1,36920.89999999851,361652.700000003,7110,ATS,C,14
9,test,1,C,haborder.png,0,m,Thu Apr 03 2025 15:46:44 GMT-0500 (Central Daylight Time),401057.0,CFD-BF-019-004-HC.jpg,1600,solid,O,z,850,10,1,39404.29999999702,361652.700000003,7110,ATS,C,15
10,test,1,C,haborder.png,1,m,Thu Apr 03 2025 15:46:44 GMT-0500 (Central Daylight Time),403872.5,CFD-BF-019-004-HC.jpg,1600,solid,O,m,1184,10,1,42219.79999999702,361652.700000003,7110,ATS,C,16
10,test,1,C,mfborder.png,0,m,Thu Apr 03 2025 15:46:44 GMT-0500 (Central Daylight Time),406555.700000003,CFD-WM-034-040-A.jpg,2000,dash,O,z,658,5,1,44903.0,361652.700000003,7110,ATS,C,17
10,test,1,C,haborder.png,0,z,Thu Apr 03 2025 15:46:44 GMT-0500 (Central Daylight Time),409486.700000003,CFD-WM-036-018-A.jpg,1400,solid,O,None,1514,7,1,47834.0,361652.700000003,7110,ATS,C,18
11,test,1,C,haborder.png,1,m,Thu Apr 03 2025 15:46:44 GMT-0500 (Central Daylight Time),411519.5,CFD-WF-013-009-HC.jpg,1000,solid,O,m,1009,12,1,49866.79999999702,361652.700000003,7110,ATS,C,19
12,test,1,C,mfborder.png,1,z,Thu Apr 03 2025 15:46:44 GMT-0500 (Central Daylight Time),414102.5,CFD-BF-042-031-HC.jpg,1700,dash,O,z,853,1,1,52449.79999999702,361652.700000003,7110,ATS,C,20
13,test,1,C,mfborder.png,1,m,Thu Apr 03 2025 15:46:44 GMT-0500 (Central Daylight Time),416253.299999997,CFD-WM-035-036-HC.jpg,1000,dash,O,m,1133,4,1,54600.59999999404,361652.700000003,7110,ATS,C,21
14,test,1,C,haborder.png,1,m,Thu Apr 03 2025 15:46:44 GMT-0500 (Central Daylight Time),418734.0,CFD-WF-001-010-HC.jpg,1500,solid,O,m,953,11,1,57081.29999999702,361652.700000003,7110,ATS,C,22
15,test,1,C,haborder.png,1,m,Thu Apr 03 2025 15:46:44 GMT-0500 (Central Daylight Time),420532.799999997,CFD-WF-013-009-HC.jpg,1000,solid,O,m,771,12,1,58880.09999999404,361652.700000003,7110,ATS,C,23
16,test,1,C,mfborder.png,1,z,Thu Apr 03 2025 15:46:44 GMT-0500 (Central Daylight Time),423300.3999999985,CFD-WF-037-016-A.jpg,1500,dash,O,z,1249,3,1,61647.69999999553,361652.700000003,7110,ATS,C,24
1,test,2,C,haborder.png,1,m,Thu Apr 03 2025 15:46:44 GMT-0500 (Central Daylight Time),427997.799999997,CFD-WM-028-005-HC.jpg,1000,solid,O,m,829,12,1,1867.0,426130.799999997,7110,ATS,C,1
2,test,2,C,haborder.png,1,m,Thu Apr 03 2025 15:46:44 GMT-0500 (Central Daylight Time),429996.3999999985,CFD-WM-028-005-HC.jpg,1000,solid,O,m,980,12,1,3865.60000000149,426130.799999997,7110,ATS,C,2
3,test,2,C,haborder.png,1,z,Thu Apr 03 2025 15:46:44 GMT-0500 (Central Daylight Time),433117.799999997,CFD-BF-002-018-A.jpg,1900,solid,O,z,1183,8,1,6987.0,426130.799999997,7110,ATS,C,3
4,test,2,C,haborder.png,1,z,Thu Apr 03 2025 15:46:44 GMT-0500 (Central Daylight Time),436328.200000003,CFD-WF-037-016-A.jpg,1700,solid,O,z,1492,9,1,10197.40000000596,426130.799999997,7110,ATS,C,4
5,test,2,C,haborder.png,1,m,Thu Apr 03 2025 15:46:44 GMT-0500 (Central Daylight Time),439060.6000000015,CFD-BM-022-004-HC.jpg,1600,solid,O,m,1106,10,1,12929.80000000447,426130.799999997,7110,ATS,C,5
6,test,2,C,mfborder.png,1,z,Thu Apr 03 2025 15:46:44 GMT-0500 (Central Daylight Time),441960.299999997,CFD-WF-023-013-A.jpg,1600,dash,O,z,1268,2,1,15829.5,426130.799999997,7110,ATS,C,6
7,test,2,C,mfborder.png,1,m,Thu Apr 03 2025 15:46:44 GMT-0500 (Central Daylight Time),444558.5,CFD-WM-036-018-A.jpg,1200,dash,O,m,1368,6,1,18427.70000000298,426130.799999997,7110,ATS,C,7
8,test,2,C,haborder.png,1,m,Thu Apr 03 2025 15:46:44 GMT-0500 (Central Daylight Time),447524.5,CFD-BM-022-004-HC.jpg,1600,solid,O,m,1348,10,1,21393.70000000298,426130.799999997,7110,ATS,C,8
9,test,2,C,haborder.png,1,m,Thu Apr 03 2025 15:46:44 GMT-0500 (Central Daylight Time),449941.0,CFD-WM-028-005-HC.jpg,1500,solid,O,m,887,11,1,23810.20000000298,426130.799999997,7110,ATS,C,9
10,test,2,C,mfborder.png,1,m,Thu Apr 03 2025 15:46:44 GMT-0500 (Central Daylight Time),451841.8999999985,CFD-BM-034-035-HC.jpg,1000,dash,O,m,876,4,1,25711.10000000149,426130.799999997,7110,ATS,C,10
11,test,2,C,mfborder.png,1,m,Thu Apr 03 2025 15:46:44 GMT-0500 (Central Daylight Time),454672.6000000015,CFD-BM-043-014-A.jpg,2000,dash,O,m,798,5,1,28541.80000000447,426130.799999997,7110,ATS,C,11
12,test,2,C,haborder.png,1,m,Thu Apr 03 2025 15:46:44 GMT-0500 (Central Daylight Time),457205.6000000015,CFD-WM-028-005-HC.jpg,1500,solid,O,m,992,11,1,31074.80000000447,426130.799999997,7110,ATS,C,12
13,test,2,C,mfborder.png,1,z,Thu Apr 03 2025 15:46:44 GMT-0500 (Central Daylight Time),459604.299999997,CFD-BF-019-004-HC.jpg,1500,dash,O,z,871,3,1,33473.5,426130.799999997,7110,ATS,C,13
14,test,2,C,haborder.png,1,z,Thu Apr 03 2025 15:46:44 GMT-0500 (Central Daylight Time),462453.3999999985,CFD-BF-002-018-A.jpg,1900,solid,O,z,920,8,1,36322.60000000149,426130.799999997,7110,ATS,C,14
15,test,2,C,mfborder.png,1,m,Thu Apr 03 2025 15:46:44 GMT-0500 (Central Daylight Time),465153.0,CFD-BM-043-014-A.jpg,2000,dash,O,m,676,5,1,39022.20000000298,426130.799999997,7110,ATS,C,15
16,test,2,C,mfborder.png,1,z,Thu Apr 03 2025 15:46:44 GMT-0500 (Central Daylight Time),467785.8999999985,CFD-BF-019-004-HC.jpg,1500,dash,O,z,1116,3,1,41655.10000000149,426130.799999997,7110,ATS,C,16
16,test,2,C,mfborder.png,0,m,Thu Apr 03 2025 15:46:44 GMT-0500 (Central Daylight Time),470317.6000000015,CFD-BM-034-035-HC.jpg,1000,dash,O,None,1507,4,1,44186.80000000447,426130.799999997,7110,ATS,C,17
16,test,2,C,mfborder.png,0,z,Thu Apr 03 2025 15:46:44 GMT-0500 (Central Daylight Time),473483.799999997,CFD-WF-013-009-HC.jpg,1700,dash,O,m,1439,1,1,47353.0,426130.799999997,7110,ATS,C,18
17,test,2,C,mfborder.png,1,z,Thu Apr 03 2025 15:46:44 GMT-0500 (Central Daylight Time),476032.799999997,CFD-WF-013-009-HC.jpg,1700,dash,O,z,817,1,1,49902.0,426130.799999997,7110,ATS,C,19
18,test,2,C,mfborder.png,1,m,Thu Apr 03 2025 15:46:44 GMT-0500 (Central Daylight Time),478182.3999999985,CFD-WM-036-018-A.jpg,1200,dash,O,m,916,6,1,52051.60000000149,426130.799999997,7110,ATS,C,20
19,test,2,C,haborder.png,1,z,Thu Apr 03 2025 15:46:44 GMT-0500 (Central Daylight Time),481081.8999999985,CFD-WF-037-016-A.jpg,1700,solid,O,z,1167,9,1,54951.10000000149,426130.799999997,7110,ATS,C,21
20,test,2,C,haborder.png,1,z,Thu Apr 03 2025 15:46:44 GMT-0500 (Central Daylight Time),483964.299999997,CFD-BF-031-020-A.jpg,1400,solid,O,z,1449,7,1,57833.5,426130.799999997,7110,ATS,C,22
20,test,2,C,mfborder.png,0,z,Thu Apr 03 2025 15:46:44 GMT-0500 (Central Daylight Time),487096.6000000015,CFD-WF-023-013-A.jpg,1600,dash,O,None,1507,2,1,60965.80000000447,426130.799999997,7110,ATS,C,23
21,test,2,C,haborder.png,1,z,Thu Apr 03 2025 15:46:44 GMT-0500 (Central Daylight Time),489212.1000000015,CFD-BF-031-020-A.jpg,1400,solid,O,z,697,7,1,63081.30000000447,426130.799999997,7110,ATS,C,24
0,test,3,C,mfborder.png,0,m,Thu Apr 03 2025 15:46:44 GMT-0500 (Central Daylight Time),493111.299999997,CFD-WM-035-036-HC.jpg,1000,dash,O,None,1507,4,1,2533.7999999970198,490577.5,7110,ATS,C,1
1,test,3,C,mfborder.png,1,z,Thu Apr 03 2025 15:46:44 GMT-0500 (Central Daylight Time),495711.5,CFD-BF-031-020-A.jpg,1600,dash,O,z,971,2,1,5134.0,490577.5,7110,ATS,C,2
1,test,3,C,haborder.png,0,m,Thu Apr 03 2025 15:46:44 GMT-0500 (Central Daylight Time),498240.3999999985,CFD-WF-013-009-HC.jpg,1000,solid,O,None,1515,12,1,7662.89999999851,490577.5,7110,ATS,C,3
2,test,3,C,haborder.png,1,m,Thu Apr 03 2025 15:46:44 GMT-0500 (Central Daylight Time),500092.700000003,CFD-WF-013-009-HC.jpg,1000,solid,O,m,833,12,1,9515.20000000298,490577.5,7110,ATS,C,4
3,test,3,C,mfborder.png,1,m,Thu Apr 03 2025 15:46:44 GMT-0500 (Central Daylight Time),501876.1000000015,CFD-WM-035-036-HC.jpg,1000,dash,O,m,765,4,1,11298.60000000149,490577.5,7110,ATS,C,5
4,test,3,C,haborder.png,1,m,Thu Apr 03 2025 15:46:44 GMT-0500 (Central Daylight Time),504756.1000000015,CFD-BF-019-004-HC.jpg,1600,solid,O,m,1248,10,1,14178.60000000149,490577.5,7110,ATS,C,6
5,test,3,C,mfborder.png,1,m,Thu Apr 03 2025 15:46:44 GMT-0500 (Central Daylight Time),507039.299999997,CFD-BM-022-004-HC.jpg,1200,dash,O,m,1053,6,1,16461.79999999702,490577.5,7110,ATS,C,7
5,test,3,C,mfborder.png,0,m,Thu Apr 03 2025 15:46:44 GMT-0500 (Central Daylight Time),510254.3999999985,CFD-WM-034-040-A.jpg,2000,dash,O,z,1187,5,1,19676.89999999851,490577.5,7110,ATS,C,8
6,test,3,C,mfborder.png,1,z,Thu Apr 03 2025 15:46:44 GMT-0500 (Central Daylight Time),512720.799999997,CFD-BF-031-020-A.jpg,1600,dash,O,z,842,2,1,22143.29999999702,490577.5,7110,ATS,C,9
7,test,3,C,haborder.png,1,m,Thu Apr 03 2025 15:46:44 GMT-0500 (Central Daylight Time),515154.700000003,CFD-BF-019-004-HC.jpg,1600,solid,O,m,816,10,1,24577.20000000298,490577.5,7110,ATS,C,10
8,test,3,C,mfborder.png,1,m,Thu Apr 03 2025 15:46:44 GMT-0500 (Central Daylight Time),517102.6000000015,CFD-BM-022-004-HC.jpg,1200,dash,O,m,721,6,1,26525.10000000149,490577.5,7110,ATS,C,11
9,test,3,C,mfborder.png,1,z,Thu Apr 03 2025 15:46:44 GMT-0500 (Central Daylight Time),519551.799999997,CFD-WF-037-016-A.jpg,1500,dash,O,z,927,3,1,28974.29999999702,490577.5,7110,ATS,C,12
10,test,3,C,haborder.png,1,z,Thu Apr 03 2025 15:46:44 GMT-0500 (Central Daylight Time),522701.0,CFD-BM-043-014-A.jpg,1900,solid,O,z,1221,8,1,32123.5,490577.5,7110,ATS,C,13
10,test,3,C,mfborder.png,0,z,Thu Apr 03 2025 15:46:44 GMT-0500 (Central Daylight Time),525699.700000003,CFD-BF-042-031-HC.jpg,1700,dash,O,m,1272,1,1,35122.20000000298,490577.5,7110,ATS,C,14
11,test,3,C,haborder.png,1,z,Thu Apr 03 2025 15:46:44 GMT-0500 (Central Daylight Time),528283.8999999985,CFD-WM-036-018-A.jpg,1400,solid,O,z,1165,7,1,37706.39999999851,490577.5,7110,ATS,C,15
12,test,3,C,haborder.png,1,m,Thu Apr 03 2025 15:46:44 GMT-0500 (Central Daylight Time),531100.1000000015,CFD-WF-001-010-HC.jpg,1500,solid,O,m,1301,11,1,40522.60000000149,490577.5,7110,ATS,C,16
13,test,3,C,haborder.png,1,m,Thu Apr 03 2025 15:46:44 GMT-0500 (Central Daylight Time),533246.299999997,CFD-WF-001-010-HC.jpg,1500,solid,O,m,618,11,1,42668.79999999702,490577.5,7110,ATS,C,17
14,test,3,C,haborder.png,1,z,Thu Apr 03 2025 15:46:44 GMT-0500 (Central Daylight Time),535587.0,CFD-WM-036-018-A.jpg,1400,solid,O,z,905,7,1,45009.5,490577.5,7110,ATS,C,18
14,test,3,C,mfborder.png,0,z,Thu Apr 03 2025 15:46:44 GMT-0500 (Central Daylight Time),538711.6000000015,CFD-BF-042-031-HC.jpg,1700,dash,O,m,1406,1,1,48134.10000000149,490577.5,7110,ATS,C,19
15,test,3,C,haborder.png,1,z,Thu Apr 03 2025 15:46:44 GMT-0500 (Central Daylight Time),541695.299999997,CFD-BM-043-014-A.jpg,1900,solid,O,z,1053,8,1,51117.79999999702,490577.5,7110,ATS,C,20
16,test,3,C,mfborder.png,1,z,Thu Apr 03 2025 15:46:44 GMT-0500 (Central Daylight Time),544344.5,CFD-WF-037-016-A.jpg,1500,dash,O,z,1125,3,1,53767.0,490577.5,7110,ATS,C,21
16,test,3,C,haborder.png,0,z,Thu Apr 03 2025 15:46:44 GMT-0500 (Central Daylight Time),546777.3999999985,CFD-BM-021-026-A.jpg,1700,solid,O,m,701,9,1,56199.89999999851,490577.5,7110,ATS,C,22
17,test,3,C,haborder.png,1,z,Thu Apr 03 2025 15:46:44 GMT-0500 (Central Daylight Time),549724.3999999985,CFD-BM-021-026-A.jpg,1700,solid,O,z,1227,9,1,59146.89999999851,490577.5,7110,ATS,C,23
18,test,3,C,mfborder.png,1,m,Thu Apr 03 2025 15:46:44 GMT-0500 (Central Daylight Time),552674.6000000015,CFD-WM-034-040-A.jpg,2000,dash,O,m,925,5,1,62097.10000000149,490577.5,7110,ATS,C,24
1,test,4,C,mfborder.png,1,z,Thu Apr 03 2025 15:46:44 GMT-0500 (Central Daylight Time),556340.700000003,CFD-BF-019-004-HC.jpg,1500,dash,O,z,923,3,1,2448.4000000059605,553892.299999997,7110,ATS,C,1
2,test,4,C,haborder.png,1,m,Thu Apr 03 2025 15:46:44 GMT-0500 (Central Daylight Time),558056.6000000015,CFD-WM-028-005-HC.jpg,1000,solid,O,m,682,12,1,4164.30000000447,553892.299999997,7110,ATS,C,2
3,test,4,C,mfborder.png,1,m,Thu Apr 03 2025 15:46:44 GMT-0500 (Central Daylight Time),560739.799999997,CFD-WM-036-018-A.jpg,1200,dash,O,m,1467,6,1,6847.5,553892.299999997,7110,ATS,C,3
4,test,4,C,mfborder.png,1,z,Thu Apr 03 2025 15:46:44 GMT-0500 (Central Daylight Time),562887.299999997,CFD-BF-019-004-HC.jpg,1500,dash,O,z,625,3,1,8995.0,553892.299999997,7110,ATS,C,4
5,test,4,C,mfborder.png,1,m,Thu Apr 03 2025 15:46:44 GMT-0500 (Central Daylight Time),565120.0,CFD-WM-036-018-A.jpg,1200,dash,O,m,1007,6,1,11227.70000000298,553892.299999997,7110,ATS,C,5
6,test,4,C,mfborder.png,1,z,Thu Apr 03 2025 15:46:44 GMT-0500 (Central Daylight Time),567604.299999997,CFD-WF-013-009-HC.jpg,1700,dash,O,z,766,1,1,13712.0,553892.299999997,7110,ATS,C,6
7,test,4,C,mfborder.png,1,z,Thu Apr 03 2025 15:46:44 GMT-0500 (Central Daylight Time),569986.700000003,CFD-WF-013-009-HC.jpg,1700,dash,O,z,666,1,1,16094.40000000596,553892.299999997,7110,ATS,C,7
8,test,4,C,haborder.png,1,z,Thu Apr 03 2025 15:46:44 GMT-0500 (Central Daylight Time),572170.200000003,CFD-BF-031-020-A.jpg,1400,solid,O,z,759,7,1,18277.90000000596,553892.299999997,7110,ATS,C,8
9,test,4,C,haborder.png,1,z,Thu Apr 03 2025 15:46:44 GMT-0500 (Central Daylight Time),574602.1000000015,CFD-WF-037-016-A.jpg,1700,solid,O,z,708,9,1,20709.80000000447,553892.299999997,7110,ATS,C,9
9,test,4,C,mfborder.png,0,m,Thu Apr 03 2025 15:46:44 GMT-0500 (Central Daylight Time),578134.1000000015,CFD-BM-043-014-A.jpg,2000,dash,O,None,1516,5,1,24241.80000000447,553892.299999997,7110,ATS,C,10
10,test,4,C,mfborder.png,1,z,Thu Apr 03 2025 15:46:44 GMT-0500 (Central Daylight Time),580616.6000000015,CFD-WF-023-013-A.jpg,1600,dash,O,z,851,2,1,26724.30000000447,553892.299999997,7110,ATS,C,11
10,test,4,C,mfborder.png,0,m,Thu Apr 03 2025 15:46:44 GMT-0500 (Central Daylight Time),583966.200000003,CFD-BM-043-014-A.jpg,2000,dash,O,z,1316,5,1,30073.90000000596,553892.299999997,7110,ATS,C,12
11,test,4,C,haborder.png,1,m,Thu Apr 03 2025 15:46:44 GMT-0500 (Central Daylight Time),586397.5,CFD-WM-028-005-HC.jpg,1000,solid,O,m,1404,12,1,32505.20000000298,553892.299999997,7110,ATS,C,13
12,test,4,C,mfborder.png,1,m,Thu Apr 03 2025 15:46:44 GMT-0500 (Central Daylight Time),588628.8999999985,CFD-BM-034-035-HC.jpg,1000,dash,O,m,1212,4,1,34736.60000000149,553892.299999997,7110,ATS,C,14
13,test,4,C,haborder.png,1,z,Thu Apr 03 2025 15:46:44 GMT-0500 (Central Daylight Time),591212.700000003,CFD-BF-031-020-A.jpg,1400,solid,O,z,1154,7,1,37320.40000000596,553892.299999997,7110,ATS,C,15
14,test,4,C,haborder.png,1,m,Thu Apr 03 2025 15:46:44 GMT-0500 (Central Daylight Time),594327.8999999985,CFD-BM-022-004-HC.jpg,1600,solid,O,m,1485,10,1,40435.60000000149,553892.299999997,7110,ATS,C,16
15,test,4,C,haborder.png,1,m,Thu Apr 03 2025 15:46:44 GMT-0500 (Central Daylight Time),596643.700000003,CFD-WM-028-005-HC.jpg,1500,solid,O,m,789,11,1,42751.40000000596,553892.299999997,7110,ATS,C,17
16,test,4,C,haborder.png,1,m,Thu Apr 03 2025 15:46:44 GMT-0500 (Central Daylight Time),599125.8999999985,CFD-BM-022-004-HC.jpg,1600,solid,O,m,860,10,1,45233.60000000149,553892.299999997,7110,ATS,C,18
16,test,4,C,mfborder.png,0,m,Thu Apr 03 2025 15:46:44 GMT-0500 (Central Daylight Time),601661.299999997,CFD-BM-034-035-HC.jpg,1000,dash,O,None,1517,4,1,47769.0,553892.299999997,7110,ATS,C,19
17,test,4,C,mfborder.png,1,z,Thu Apr 03 2025 15:46:44 GMT-0500 (Central Daylight Time),604291.299999997,CFD-WF-023-013-A.jpg,1600,dash,O,z,1005,2,1,50399.0,553892.299999997,7110,ATS,C,20
18,test,4,C,haborder.png,1,z,Thu Apr 03 2025 15:46:44 GMT-0500 (Central Daylight Time),607474.6000000015,CFD-BF-002-018-A.jpg,1900,solid,O,z,1256,8,1,53582.30000000447,553892.299999997,7110,ATS,C,21
19,test,4,C,haborder.png,1,z,Thu Apr 03 2025 15:46:44 GMT-0500 (Central Daylight Time),610340.1000000015,CFD-BF-002-018-A.jpg,1900,solid,O,z,937,8,1,56447.80000000447,553892.299999997,7110,ATS,C,22
20,test,4,C,haborder.png,1,m,Thu Apr 03 2025 15:46:44 GMT-0500 (Central Daylight Time),612624.200000003,CFD-WM-028-005-HC.jpg,1500,solid,O,m,760,11,1,58731.90000000596,553892.299999997,7110,ATS,C,23
21,test,4,C,haborder.png,1,z,Thu Apr 03 2025 15:46:44 GMT-0500 (Central Daylight Time),615655.299999997,CFD-WF-037-016-A.jpg,1700,solid,O,z,1310,9,1,61763.0,553892.299999997,7110,ATS,C,24
