acc_sum,block,block_c,change,condition,correct,correct_response,datetime,endtime,face,project,response,response_time,row_sel,session_number,start_end,starttime,subject_id,task,task_vers,trial
0,prac,1,,1-Back,,,Mon Jan 27 2025 10:12:24 GMT-0500 (Eastern Standard Time),,012_o_f_d_a.png,I,space,16119,1,1,,,9008,VNB,C,0
1,prac,1,0.0,1-Back,1,m,Mon Jan 27 2025 10:12:24 GMT-0500 (Eastern Standard Time),204922.5,022_y_f_n_a.png,I,m,1342,2,1,2284.2000007629395,202638.29999923706,9008,VNB,C,1
1,prac,1,0.0,1-Back,0,m,Mon Jan 27 2025 10:12:24 GMT-0500 (Eastern Standard Time),207855.29999923706,014_m_m_h_a.png,I,None,2013,3,1,2920.6000003814697,204934.6999988556,9008,VNB,C,2
2,prac,1,0.0,1-Back,1,m,Mon Jan 27 2025 10:12:24 GMT-0500 (Eastern Standard Time),210672.29999923706,025_y_m_d_a.png,I,m,1889,4,1,2805.7999992370605,207866.5,9008,VNB,C,3
2,prac,1,0.0,1-Back,0,m,Mon Jan 27 2025 10:12:24 GMT-0500 (Eastern Standard Time),213505.39999961853,012_o_f_n_a.png,I,z,1876,5,1,2821.1000003814697,210684.29999923706,9008,VNB,C,4
3,prac,1,1.0,1-Back,1,z,Mon Jan 27 2025 10:12:24 GMT-0500 (Eastern Standard Time),215888.89999961853,025_y_m_n_a.png,I,z,1456,6,1,2371.0,213517.89999961853,9008,VNB,C,5
4,prac,1,0.0,1-Back,1,m,Mon Jan 27 2025 10:12:24 GMT-0500 (Eastern Standard Time),217738.89999961853,015_o_m_h_a.png,I,m,890,7,1,1837.8999996185303,215901.0,9008,VNB,C,6
5,prac,1,0.0,1-Back,1,m,Mon Jan 27 2025 10:12:24 GMT-0500 (Eastern Standard Time),220422.39999961853,019_m_f_d_a.png,I,m,1732,8,1,2671.5,217750.89999961853,9008,VNB,C,7
6,prac,1,1.0,1-Back,1,z,Mon Jan 27 2025 10:12:24 GMT-0500 (Eastern Standard Time),222655.79999923706,022_y_f_d_a.png,I,z,1275,9,1,2219.3999996185303,220436.39999961853,9008,VNB,C,8
7,prac,1,0.0,1-Back,1,m,Mon Jan 27 2025 10:12:24 GMT-0500 (Eastern Standard Time),225022.39999961853,014_m_m_n_a.png,I,m,1437,10,1,2352.0,222670.39999961853,9008,VNB,C,9
7,prac,1,0.0,1-Back,0,m,Mon Jan 27 2025 10:12:24 GMT-0500 (Eastern Standard Time),227038.60000038147,012_o_f_h_a.png,I,z,1065,11,1,2004.2000007629395,225034.39999961853,9008,VNB,C,10
7,prac,1,0.0,1-Back,0,m,Mon Jan 27 2025 10:12:24 GMT-0500 (Eastern Standard Time),229955.6999988556,025_y_m_d_a.png,I,None,2006,12,1,2906.3999996185303,227049.29999923706,9008,VNB,C,11
0,prac,2,0.0,1-Back,,,Mon Jan 27 2025 10:12:24 GMT-0500 (Eastern Standard Time),229955.6999988556,012_o_f_d_a.png,I,a,5838,1,1,2906.3999996185303,227049.29999923706,9008,VNB,C,0
1,prac,2,0.0,1-Back,1,m,Mon Jan 27 2025 10:12:24 GMT-0500 (Eastern Standard Time),241522.10000038147,022_y_f_n_a.png,I,m,1721,2,1,2668.800001144409,238853.29999923706,9008,VNB,C,1
1,prac,2,0.0,1-Back,0,m,Mon Jan 27 2025 10:12:24 GMT-0500 (Eastern Standard Time),244472.1999988556,014_m_m_h_a.png,I,None,2016,3,1,2938.8999996185303,241533.29999923706,9008,VNB,C,2
1,prac,2,0.0,1-Back,0,m,Mon Jan 27 2025 10:12:24 GMT-0500 (Eastern Standard Time),246622.0,025_y_m_d_a.png,I,z,1360,4,1,2138.6000003814697,244483.39999961853,9008,VNB,C,3
1,prac,2,0.0,1-Back,0,m,Mon Jan 27 2025 10:12:24 GMT-0500 (Eastern Standard Time),249188.89999961853,012_o_f_n_a.png,I,z,1609,5,1,2554.7999992370605,246634.10000038147,9008,VNB,C,4
1,prac,2,1.0,1-Back,0,z,Mon Jan 27 2025 10:12:24 GMT-0500 (Eastern Standard Time),251372.1999988556,025_y_m_n_a.png,I,m,1261,6,1,2168.3999996185303,249203.79999923706,9008,VNB,C,5
1,prac,2,0.0,1-Back,0,m,Mon Jan 27 2025 10:12:24 GMT-0500 (Eastern Standard Time),253639.0,015_o_m_h_a.png,I,z,1312,7,1,2253.6000003814697,251385.39999961853,9008,VNB,C,6
2,prac,2,0.0,1-Back,1,m,Mon Jan 27 2025 10:12:24 GMT-0500 (Eastern Standard Time),256488.6999988556,019_m_f_d_a.png,I,m,1896,8,1,2838.2999992370605,253650.39999961853,9008,VNB,C,7
2,prac,2,1.0,1-Back,0,z,Mon Jan 27 2025 10:12:24 GMT-0500 (Eastern Standard Time),259439.0,022_y_f_d_a.png,I,None,2003,9,1,2939.3999996185303,256499.60000038147,9008,VNB,C,8
2,prac,2,0.0,1-Back,0,m,Mon Jan 27 2025 10:12:24 GMT-0500 (Eastern Standard Time),262371.79999923706,014_m_m_n_a.png,I,None,2016,10,1,2919.699998855591,259452.10000038147,9008,VNB,C,9
2,prac,2,0.0,1-Back,0,m,Mon Jan 27 2025 10:12:24 GMT-0500 (Eastern Standard Time),265321.79999923706,012_o_f_h_a.png,I,None,2005,11,1,2942.6000003814697,262379.1999988556,9008,VNB,C,10
2,prac,2,0.0,1-Back,0,m,Mon Jan 27 2025 10:12:24 GMT-0500 (Eastern Standard Time),268256.1999988556,025_y_m_d_a.png,I,None,2010,12,1,2922.5,265333.6999988556,9008,VNB,C,11
0,test,1,0.0,1-Back,,,Mon Jan 27 2025 10:12:24 GMT-0500 (Eastern Standard Time),268256.1999988556,022_y_f_d_a.png,I,space,2084,1,1,2922.5,265333.6999988556,9008,VNB,C,0
1,test,1,0.0,1-Back,1,m,Mon Jan 27 2025 10:12:24 GMT-0500 (Eastern Standard Time),325072.60000038147,019_m_f_n_a.png,I,m,1154,2,1,2174.900001525879,322897.6999988556,9008,VNB,C,1
2,test,1,0.0,1-Back,1,m,Mon Jan 27 2025 10:12:24 GMT-0500 (Eastern Standard Time),327422.39999961853,015_o_m_h_a.png,I,m,1322,3,1,2337.8999996185303,325084.5,9008,VNB,C,2
3,test,1,1.0,1-Back,1,z,Mon Jan 27 2025 10:12:24 GMT-0500 (Eastern Standard Time),329722.1999988556,014_m_m_h_a.png,I,z,1276,4,1,2288.099998474121,327434.10000038147,9008,VNB,C,3
4,test,1,0.0,1-Back,1,m,Mon Jan 27 2025 10:12:24 GMT-0500 (Eastern Standard Time),332005.6999988556,012_o_f_n_a.png,I,m,1248,5,1,2273.2999992370605,329732.39999961853,9008,VNB,C,4
5,test,1,0.0,1-Back,1,m,Mon Jan 27 2025 10:12:24 GMT-0500 (Eastern Standard Time),334272.39999961853,025_y_m_d_a.png,I,m,1187,6,1,2255.3999996185303,332017.0,9008,VNB,C,5
6,test,1,1.0,1-Back,1,z,Mon Jan 27 2025 10:12:24 GMT-0500 (Eastern Standard Time),336071.89999961853,019_m_f_d_a.png,I,z,777,7,1,1788.7999992370605,334283.10000038147,9008,VNB,C,6
7,test,1,0.0,1-Back,1,m,Mon Jan 27 2025 10:12:24 GMT-0500 (Eastern Standard Time),337955.79999923706,022_y_f_h_a.png,I,m,852,8,1,1876.8999996185303,336078.89999961853,9008,VNB,C,7
8,test,1,0.0,1-Back,1,m,Mon Jan 27 2025 10:12:24 GMT-0500 (Eastern Standard Time),340188.60000038147,015_o_m_n_a.png,I,m,1140,9,1,2222.5,337966.10000038147,9008,VNB,C,8
9,test,1,0.0,1-Back,1,m,Mon Jan 27 2025 10:12:24 GMT-0500 (Eastern Standard Time),342271.79999923706,025_y_m_h_a.png,I,m,1053,10,1,2077.3999996185303,340194.39999961853,9008,VNB,C,9
10,test,1,0.0,1-Back,1,m,Mon Jan 27 2025 10:12:24 GMT-0500 (Eastern Standard Time),344305.39999961853,015_o_m_d_a.png,I,m,1003,11,1,2028.7999992370605,342276.60000038147,9008,VNB,C,10
11,test,1,1.0,1-Back,1,z,Mon Jan 27 2025 10:12:24 GMT-0500 (Eastern Standard Time),346239.0,012_o_f_d_a.png,I,z,905,12,1,1925.3999996185303,344313.60000038147,9008,VNB,C,11
12,test,1,0.0,1-Back,1,m,Mon Jan 27 2025 10:12:24 GMT-0500 (Eastern Standard Time),348422.29999923706,014_m_m_n_a.png,I,m,1148,13,1,2174.1000003814697,346248.1999988556,9008,VNB,C,12
13,test,1,1.0,1-Back,1,z,Mon Jan 27 2025 10:12:24 GMT-0500 (Eastern Standard Time),350105.6999988556,022_y_f_n_a.png,I,z,660,14,1,1670.099998474121,348435.60000038147,9008,VNB,C,13
14,test,1,0.0,1-Back,1,m,Mon Jan 27 2025 10:12:24 GMT-0500 (Eastern Standard Time),352239.10000038147,019_m_f_h_a.png,I,m,1055,15,1,2123.5,350115.60000038147,9008,VNB,C,14
15,test,1,0.0,1-Back,1,m,Mon Jan 27 2025 10:12:24 GMT-0500 (Eastern Standard Time),354289.0,014_m_m_d_a.png,I,m,1020,16,1,2039.3000011444092,352249.6999988556,9008,VNB,C,15
16,test,1,0.0,1-Back,1,m,Mon Jan 27 2025 10:12:24 GMT-0500 (Eastern Standard Time),356605.79999923706,025_y_m_n_a.png,I,m,1223,17,1,2302.6000003814697,354303.1999988556,9008,VNB,C,16
17,test,1,0.0,1-Back,1,m,Mon Jan 27 2025 10:12:24 GMT-0500 (Eastern Standard Time),358739.1999988556,012_o_f_h_a.png,I,m,1101,18,1,2123.7999992370605,356615.39999961853,9008,VNB,C,17
0,test,2,0.0,1-Back,,,Mon Jan 27 2025 10:12:24 GMT-0500 (Eastern Standard Time),358739.1999988556,025_y_m_n_a.png,I,space,2193,1,1,2123.7999992370605,356615.39999961853,9008,VNB,C,0
1,test,2,0.0,1-Back,1,m,Mon Jan 27 2025 10:12:24 GMT-0500 (Eastern Standard Time),364838.89999961853,022_y_f_h_a.png,I,m,849,2,1,1878.2000007629395,362960.6999988556,9008,VNB,C,1
2,test,2,1.0,1-Back,1,m,Mon Jan 27 2025 10:12:24 GMT-0500 (Eastern Standard Time),367172.5,015_o_m_n_a.png,I,m,1299,3,1,2322.5,364850.0,9008,VNB,C,2
3,test,2,0.0,1-Back,1,m,Mon Jan 27 2025 10:12:24 GMT-0500 (Eastern Standard Time),369805.79999923706,019_m_f_d_a.png,I,m,1556,4,1,2621.699998855591,367184.10000038147,9008,VNB,C,3
4,test,2,0.0,1-Back,1,z,Mon Jan 27 2025 10:12:24 GMT-0500 (Eastern Standard Time),371722.10000038147,014_m_m_d_a.png,I,z,892,5,1,1907.7000007629395,369814.39999961853,9008,VNB,C,4
5,test,2,0.0,1-Back,1,m,Mon Jan 27 2025 10:12:24 GMT-0500 (Eastern Standard Time),373889.0,025_y_m_h_a.png,I,m,1138,6,1,2161.5,371727.5,9008,VNB,C,5
6,test,2,1.0,1-Back,1,z,Mon Jan 27 2025 10:12:24 GMT-0500 (Eastern Standard Time),375455.6999988556,012_o_f_h_a.png,I,z,541,7,1,1556.6999988555908,373899.0,9008,VNB,C,6
7,test,2,0.0,1-Back,1,m,Mon Jan 27 2025 10:12:24 GMT-0500 (Eastern Standard Time),377388.60000038147,019_m_f_n_a.png,I,m,856,8,1,1921.8000011444092,375466.79999923706,9008,VNB,C,7
8,test,2,0.0,1-Back,1,m,Mon Jan 27 2025 10:12:24 GMT-0500 (Eastern Standard Time),380155.89999961853,022_y_f_d_a.png,I,m,1742,9,1,2760.0,377395.89999961853,9008,VNB,C,8
9,test,2,0.0,1-Back,1,m,Mon Jan 27 2025 10:12:24 GMT-0500 (Eastern Standard Time),382255.6999988556,014_m_m_n_a.png,I,m,1071,10,1,2090.0,380165.6999988556,9008,VNB,C,9
10,test,2,1.0,1-Back,1,m,Mon Jan 27 2025 10:12:24 GMT-0500 (Eastern Standard Time),384255.79999923706,019_m_f_h_a.png,I,m,970,11,1,1990.1999988555908,382265.60000038147,9008,VNB,C,10
11,test,2,0.0,1-Back,1,z,Mon Jan 27 2025 10:12:24 GMT-0500 (Eastern Standard Time),386472.39999961853,015_o_m_h_a.png,I,z,1195,12,1,2207.7999992370605,384264.60000038147,9008,VNB,C,11
12,test,2,0.0,1-Back,1,m,Mon Jan 27 2025 10:12:24 GMT-0500 (Eastern Standard Time),388172.39999961853,025_y_m_d_a.png,I,m,674,13,1,1689.6000003814697,386482.79999923706,9008,VNB,C,12
12,test,2,0.0,1-Back,0,m,Mon Jan 27 2025 10:12:24 GMT-0500 (Eastern Standard Time),391255.89999961853,012_o_f_n_a.png,I,None,2013,14,1,3071.5,388184.39999961853,9008,VNB,C,13
13,test,2,0.0,1-Back,1,z,Mon Jan 27 2025 10:12:24 GMT-0500 (Eastern Standard Time),393272.39999961853,022_y_f_n_a.png,I,z,995,15,1,2008.1000003814697,391264.29999923706,9008,VNB,C,14
14,test,2,1.0,1-Back,1,m,Mon Jan 27 2025 10:12:24 GMT-0500 (Eastern Standard Time),395672.39999961853,014_m_m_h_a.png,I,m,1378,16,1,2389.0,393283.39999961853,9008,VNB,C,15
15,test,2,0.0,1-Back,1,m,Mon Jan 27 2025 10:12:24 GMT-0500 (Eastern Standard Time),398055.39999961853,012_o_f_d_a.png,I,m,1312,17,1,2372.6000003814697,395682.79999923706,9008,VNB,C,16
16,test,2,1.0,1-Back,1,z,Mon Jan 27 2025 10:12:24 GMT-0500 (Eastern Standard Time),399822.60000038147,015_o_m_d_a.png,I,z,739,18,1,1762.400001525879,398060.1999988556,9008,VNB,C,17
0,test,3,1.0,1-Back,,,Mon Jan 27 2025 10:12:24 GMT-0500 (Eastern Standard Time),399822.60000038147,012_o_f_h_a.png,I,space,2325,1,1,1762.400001525879,398060.1999988556,9008,VNB,C,0
1,test,3,0.0,1-Back,1,m,Mon Jan 27 2025 10:12:24 GMT-0500 (Eastern Standard Time),406305.6999988556,019_m_f_d_a.png,I,m,902,2,1,1971.3999996185303,404334.29999923706,9008,VNB,C,1
2,test,3,1.0,1-Back,1,m,Mon Jan 27 2025 10:12:24 GMT-0500 (Eastern Standard Time),408372.1999988556,014_m_m_n_a.png,I,m,983,3,1,2055.0,406317.1999988556,9008,VNB,C,2
3,test,3,0.0,1-Back,1,z,Mon Jan 27 2025 10:12:24 GMT-0500 (Eastern Standard Time),410255.89999961853,012_o_f_n_a.png,I,z,854,4,1,1874.2000007629395,408381.6999988556,9008,VNB,C,3
4,test,3,1.0,1-Back,1,m,Mon Jan 27 2025 10:12:24 GMT-0500 (Eastern Standard Time),412088.79999923706,015_o_m_d_a.png,I,m,810,5,1,1823.2999992370605,410265.5,9008,VNB,C,4
5,test,3,0.0,1-Back,1,m,Mon Jan 27 2025 10:12:24 GMT-0500 (Eastern Standard Time),414288.79999923706,022_y_f_h_a.png,I,m,1170,6,1,2193.6000003814697,412095.1999988556,9008,VNB,C,5
6,test,3,0.0,1-Back,1,z,Mon Jan 27 2025 10:12:24 GMT-0500 (Eastern Standard Time),415989.1999988556,025_y_m_h_a.png,I,z,666,7,1,1687.5,414301.6999988556,9008,VNB,C,6
7,test,3,0.0,1-Back,1,m,Mon Jan 27 2025 10:12:24 GMT-0500 (Eastern Standard Time),418622.29999923706,019_m_f_n_a.png,I,m,1606,8,1,2622.8999996185303,415999.39999961853,9008,VNB,C,7
8,test,3,0.0,1-Back,1,m,Mon Jan 27 2025 10:12:24 GMT-0500 (Eastern Standard Time),420622.79999923706,022_y_f_d_a.png,I,m,922,9,1,1990.6999988555908,418632.10000038147,9008,VNB,C,8
9,test,3,1.0,1-Back,1,m,Mon Jan 27 2025 10:12:24 GMT-0500 (Eastern Standard Time),423289.0,015_o_m_n_a.png,I,m,1594,10,1,2656.3999996185303,420632.60000038147,9008,VNB,C,9
10,test,3,0.0,1-Back,1,m,Mon Jan 27 2025 10:12:24 GMT-0500 (Eastern Standard Time),426122.5,014_m_m_h_a.png,I,m,1759,11,1,2822.8999996185303,423299.60000038147,9008,VNB,C,10
11,test,3,0.0,1-Back,1,z,Mon Jan 27 2025 10:12:24 GMT-0500 (Eastern Standard Time),427839.0,019_m_f_h_a.png,I,z,689,12,1,1708.1000003814697,426130.89999961853,9008,VNB,C,11
12,test,3,1.0,1-Back,1,m,Mon Jan 27 2025 10:12:24 GMT-0500 (Eastern Standard Time),430172.10000038147,012_o_f_d_a.png,I,m,1258,13,1,2322.300001144409,427849.79999923706,9008,VNB,C,12
13,test,3,0.0,1-Back,1,z,Mon Jan 27 2025 10:12:24 GMT-0500 (Eastern Standard Time),431989.1999988556,014_m_m_d_a.png,I,z,783,14,1,1810.2999992370605,430178.89999961853,9008,VNB,C,13
14,test,3,0.0,1-Back,1,m,Mon Jan 27 2025 10:12:24 GMT-0500 (Eastern Standard Time),434338.89999961853,025_y_m_n_a.png,I,m,1251,15,1,2336.2999992370605,432002.60000038147,9008,VNB,C,14
15,test,3,1.0,1-Back,1,m,Mon Jan 27 2025 10:12:24 GMT-0500 (Eastern Standard Time),436122.5,015_o_m_h_a.png,I,m,710,16,1,1774.2000007629395,434348.29999923706,9008,VNB,C,15
16,test,3,0.0,1-Back,1,m,Mon Jan 27 2025 10:12:24 GMT-0500 (Eastern Standard Time),438122.79999923706,025_y_m_d_a.png,I,m,976,17,1,1991.5,436131.29999923706,9008,VNB,C,16
17,test,3,1.0,1-Back,1,m,Mon Jan 27 2025 10:12:24 GMT-0500 (Eastern Standard Time),440439.10000038147,022_y_f_n_a.png,I,m,1281,18,1,2307.5,438131.60000038147,9008,VNB,C,17
0,test,4,1.0,1-Back,,,Mon Jan 27 2025 10:12:24 GMT-0500 (Eastern Standard Time),440439.10000038147,014_m_m_d_a.png,I,space,1973,1,1,2307.5,438131.60000038147,9008,VNB,C,0
1,test,4,0.0,1-Back,1,z,Mon Jan 27 2025 10:12:24 GMT-0500 (Eastern Standard Time),446672.60000038147,015_o_m_d_a.png,I,z,1005,2,1,2027.3000011444092,444645.29999923706,9008,VNB,C,1
2,test,4,0.0,1-Back,1,m,Mon Jan 27 2025 10:12:24 GMT-0500 (Eastern Standard Time),448788.79999923706,025_y_m_h_a.png,I,m,1031,3,1,2105.6000003814697,446683.1999988556,9008,VNB,C,2
3,test,4,0.0,1-Back,1,m,Mon Jan 27 2025 10:12:24 GMT-0500 (Eastern Standard Time),451572.60000038147,019_m_f_n_a.png,I,m,1699,4,1,2775.1000003814697,448797.5,9008,VNB,C,3
4,test,4,1.0,1-Back,1,m,Mon Jan 27 2025 10:12:24 GMT-0500 (Eastern Standard Time),453389.60000038147,012_o_f_h_a.png,I,m,740,5,1,1806.5,451583.10000038147,9008,VNB,C,4
5,test,4,0.0,1-Back,1,m,Mon Jan 27 2025 10:12:24 GMT-0500 (Eastern Standard Time),455272.6999988556,014_m_m_n_a.png,I,m,862,6,1,1878.2999992370605,453394.39999961853,9008,VNB,C,5
6,test,4,0.0,1-Back,1,m,Mon Jan 27 2025 10:12:24 GMT-0500 (Eastern Standard Time),457638.6999988556,025_y_m_d_a.png,I,m,1297,7,1,2355.599998474121,455283.10000038147,9008,VNB,C,6
7,test,4,1.0,1-Back,1,z,Mon Jan 27 2025 10:12:24 GMT-0500 (Eastern Standard Time),460172.60000038147,022_y_f_d_a.png,I,z,1457,8,1,2523.400001525879,457649.1999988556,9008,VNB,C,7
8,test,4,0.0,1-Back,1,m,Mon Jan 27 2025 10:12:24 GMT-0500 (Eastern Standard Time),462039.10000038147,019_m_f_h_a.png,I,m,797,9,1,1853.900001525879,460185.1999988556,9008,VNB,C,8
8,test,4,0.0,1-Back,0,z,Mon Jan 27 2025 10:12:24 GMT-0500 (Eastern Standard Time),465122.79999923706,015_o_m_h_a.png,I,None,2014,10,1,3076.1000003814697,462046.6999988556,9008,VNB,C,9
9,test,4,1.0,1-Back,1,m,Mon Jan 27 2025 10:12:24 GMT-0500 (Eastern Standard Time),467422.5,012_o_f_n_a.png,I,m,1272,11,1,2289.3999996185303,465133.10000038147,9008,VNB,C,10
10,test,4,0.0,1-Back,1,m,Mon Jan 27 2025 10:12:24 GMT-0500 (Eastern Standard Time),469289.10000038147,019_m_f_d_a.png,I,m,844,12,1,1855.1000003814697,467434.0,9008,VNB,C,11
11,test,4,0.0,1-Back,1,m,Mon Jan 27 2025 10:12:24 GMT-0500 (Eastern Standard Time),471355.89999961853,022_y_f_n_a.png,I,m,992,13,1,2056.3999996185303,469299.5,9008,VNB,C,12
12,test,4,0.0,1-Back,1,m,Mon Jan 27 2025 10:12:24 GMT-0500 (Eastern Standard Time),474305.89999961853,012_o_f_d_a.png,I,m,1869,14,1,2939.2999992370605,471366.60000038147,9008,VNB,C,13
13,test,4,0.0,1-Back,1,m,Mon Jan 27 2025 10:12:24 GMT-0500 (Eastern Standard Time),476372.29999923706,022_y_f_h_a.png,I,m,984,15,1,2055.2999992370605,474317.0,9008,VNB,C,14
14,test,4,1.0,1-Back,1,z,Mon Jan 27 2025 10:12:24 GMT-0500 (Eastern Standard Time),478006.0,014_m_m_h_a.png,I,z,599,16,1,1625.8999996185303,476380.10000038147,9008,VNB,C,15
15,test,4,0.0,1-Back,1,m,Mon Jan 27 2025 10:12:24 GMT-0500 (Eastern Standard Time),479972.60000038147,015_o_m_n_a.png,I,m,933,17,1,1955.8000011444092,478016.79999923706,9008,VNB,C,16
16,test,4,1.0,1-Back,1,z,Mon Jan 27 2025 10:12:24 GMT-0500 (Eastern Standard Time),481689.10000038147,025_y_m_n_a.png,I,z,644,18,1,1705.3000011444092,479983.79999923706,9008,VNB,C,17
0,test,5,1.0,1-Back,,,Mon Jan 27 2025 10:12:24 GMT-0500 (Eastern Standard Time),481689.10000038147,015_o_m_n_a.png,I,space,2067,1,1,1705.3000011444092,479983.79999923706,9008,VNB,C,0
1,test,5,1.0,1-Back,1,m,Mon Jan 27 2025 10:12:24 GMT-0500 (Eastern Standard Time),487506.0,012_o_f_h_a.png,I,m,687,2,1,1706.6000003814697,485799.39999961853,9008,VNB,C,1
2,test,5,0.0,1-Back,1,m,Mon Jan 27 2025 10:12:24 GMT-0500 (Eastern Standard Time),489488.79999923706,025_y_m_d_a.png,I,m,953,3,1,1974.0,487514.79999923706,9008,VNB,C,2
3,test,5,0.0,1-Back,1,z,Mon Jan 27 2025 10:12:24 GMT-0500 (Eastern Standard Time),491122.6999988556,015_o_m_d_a.png,I,z,602,4,1,1628.7999992370605,489493.89999961853,9008,VNB,C,3
4,test,5,0.0,1-Back,1,m,Mon Jan 27 2025 10:12:24 GMT-0500 (Eastern Standard Time),493138.89999961853,019_m_f_h_a.png,I,m,984,5,1,2006.7999992370605,491132.10000038147,9008,VNB,C,4
5,test,5,0.0,1-Back,1,m,Mon Jan 27 2025 10:12:24 GMT-0500 (Eastern Standard Time),494972.10000038147,022_y_f_n_a.png,I,m,758,6,1,1825.6000003814697,493146.5,9008,VNB,C,5
6,test,5,1.0,1-Back,1,z,Mon Jan 27 2025 10:12:24 GMT-0500 (Eastern Standard Time),496689.10000038147,012_o_f_n_a.png,I,z,686,7,1,1711.400001525879,494977.6999988556,9008,VNB,C,6
7,test,5,0.0,1-Back,1,m,Mon Jan 27 2025 10:12:24 GMT-0500 (Eastern Standard Time),498689.29999923706,019_m_f_d_a.png,I,m,970,8,1,1987.1999988555908,496702.10000038147,9008,VNB,C,7
8,test,5,0.0,1-Back,1,m,Mon Jan 27 2025 10:12:24 GMT-0500 (Eastern Standard Time),501239.0,025_y_m_h_a.png,I,m,1479,9,1,2539.0,498700.0,9008,VNB,C,8
9,test,5,0.0,1-Back,1,m,Mon Jan 27 2025 10:12:24 GMT-0500 (Eastern Standard Time),503421.89999961853,022_y_f_d_a.png,I,m,1105,10,1,2172.5,501249.39999961853,9008,VNB,C,9
10,test,5,0.0,1-Back,1,m,Mon Jan 27 2025 10:12:24 GMT-0500 (Eastern Standard Time),505589.1999988556,014_m_m_n_a.png,I,m,1132,11,1,2162.699998855591,503426.5,9008,VNB,C,10
11,test,5,1.0,1-Back,1,z,Mon Jan 27 2025 10:12:24 GMT-0500 (Eastern Standard Time),507389.29999923706,019_m_f_n_a.png,I,z,726,12,1,1737.1999988555908,505652.10000038147,9008,VNB,C,11
12,test,5,0.0,1-Back,1,m,Mon Jan 27 2025 10:12:24 GMT-0500 (Eastern Standard Time),509189.1999988556,015_o_m_h_a.png,I,m,716,13,1,1790.0,507399.1999988556,9008,VNB,C,12
13,test,5,0.0,1-Back,1,z,Mon Jan 27 2025 10:12:24 GMT-0500 (Eastern Standard Time),510822.5,014_m_m_h_a.png,I,z,548,14,1,1622.3999996185303,509200.10000038147,9008,VNB,C,13
14,test,5,1.0,1-Back,1,m,Mon Jan 27 2025 10:12:24 GMT-0500 (Eastern Standard Time),512522.6999988556,012_o_f_d_a.png,I,m,676,15,1,1690.599998474121,510832.10000038147,9008,VNB,C,14
15,test,5,0.0,1-Back,1,m,Mon Jan 27 2025 10:12:24 GMT-0500 (Eastern Standard Time),514889.0,025_y_m_n_a.png,I,m,1344,16,1,2355.7000007629395,512533.29999923706,9008,VNB,C,15
16,test,5,0.0,1-Back,1,m,Mon Jan 27 2025 10:12:24 GMT-0500 (Eastern Standard Time),516872.10000038147,022_y_f_h_a.png,I,m,963,17,1,1974.8000011444092,514897.29999923706,9008,VNB,C,16
17,test,5,0.0,1-Back,1,m,Mon Jan 27 2025 10:12:24 GMT-0500 (Eastern Standard Time),519505.60000038147,014_m_m_d_a.png,I,m,1602,18,1,2629.0,516876.60000038147,9008,VNB,C,17
0,prac,1,0.0,2-Back,,,Mon Jan 27 2025 10:12:24 GMT-0500 (Eastern Standard Time),519505.60000038147,019_m_f_n_a.png,I,space,10099,1,1,2629.0,516876.60000038147,9008,VNB,C,0
0,prac,1,0.0,2-Back,,,Mon Jan 27 2025 10:12:24 GMT-0500 (Eastern Standard Time),519505.60000038147,012_o_f_h_a.png,I,space,10099,2,1,2629.0,516876.60000038147,9008,VNB,C,0
1,prac,1,0.0,2-Back,1,m,Mon Jan 27 2025 10:12:24 GMT-0500 (Eastern Standard Time),627323.0,015_o_m_d_a.png,I,m,1729,3,1,2786.7000007629395,624536.2999992371,9008,VNB,C,1
2,prac,1,1.0,2-Back,1,z,Mon Jan 27 2025 10:12:24 GMT-0500 (Eastern Standard Time),629956.1999988556,014_m_m_h_a.png,I,z,1583,4,1,2621.8999996185303,627334.2999992371,9008,VNB,C,2
2,prac,1,0.0,2-Back,0,m,Mon Jan 27 2025 10:12:24 GMT-0500 (Eastern Standard Time),632622.7999992371,022_y_f_n_a.png,I,z,1608,5,1,2654.699998855591,629968.1000003815,9008,VNB,C,3
3,prac,1,1.0,2-Back,1,z,Mon Jan 27 2025 10:12:24 GMT-0500 (Eastern Standard Time),635223.0,015_o_m_h_a.png,I,z,1546,6,1,2587.5,632635.5,9008,VNB,C,4
3,prac,1,1.0,2-Back,0,z,Mon Jan 27 2025 10:12:24 GMT-0500 (Eastern Standard Time),637872.5,025_y_m_n_a.png,I,m,1653,7,1,2637.7000007629395,635234.7999992371,9008,VNB,C,5
4,prac,1,0.0,2-Back,1,m,Mon Jan 27 2025 10:12:24 GMT-0500 (Eastern Standard Time),640489.1000003815,019_m_f_d_a.png,I,m,1542,8,1,2604.300001144409,637884.7999992371,9008,VNB,C,6
4,prac,1,0.0,2-Back,0,m,Mon Jan 27 2025 10:12:24 GMT-0500 (Eastern Standard Time),643522.6000003815,012_o_f_d_a.png,I,None,2003,9,1,3019.2000007629395,640503.3999996185,9008,VNB,C,7
4,prac,1,0.0,2-Back,0,m,Mon Jan 27 2025 10:12:24 GMT-0500 (Eastern Standard Time),645572.7999992371,014_m_m_h_a.png,I,z,999,10,1,2033.1999988555908,643539.6000003815,9008,VNB,C,8
5,prac,1,1.0,2-Back,1,z,Mon Jan 27 2025 10:12:24 GMT-0500 (Eastern Standard Time),647789.6999988556,022_y_f_d_a.png,I,z,1166,11,1,2204.199998855591,645585.5,9008,VNB,C,9
6,prac,1,0.0,2-Back,1,m,Mon Jan 27 2025 10:12:24 GMT-0500 (Eastern Standard Time),650022.6000003815,015_o_m_n_a.png,I,m,1165,12,1,2218.400001525879,647804.1999988556,9008,VNB,C,10
0,prac,2,0.0,2-Back,,,Mon Jan 27 2025 10:12:24 GMT-0500 (Eastern Standard Time),650022.6000003815,019_m_f_n_a.png,I,a,7281,1,1,2218.400001525879,647804.1999988556,9008,VNB,C,0
0,prac,2,0.0,2-Back,,,Mon Jan 27 2025 10:12:24 GMT-0500 (Eastern Standard Time),650022.6000003815,012_o_f_h_a.png,I,a,7281,2,1,2218.400001525879,647804.1999988556,9008,VNB,C,0
1,prac,2,0.0,2-Back,1,m,Mon Jan 27 2025 10:12:24 GMT-0500 (Eastern Standard Time),664889.3999996185,015_o_m_d_a.png,I,m,915,3,1,1987.0,662902.3999996185,9008,VNB,C,1
2,prac,2,1.0,2-Back,1,z,Mon Jan 27 2025 10:12:24 GMT-0500 (Eastern Standard Time),666706.1000003815,014_m_m_h_a.png,I,z,885,4,1,1803.900001525879,664902.1999988556,9008,VNB,C,2
3,prac,2,0.0,2-Back,1,m,Mon Jan 27 2025 10:12:24 GMT-0500 (Eastern Standard Time),668941.1000003815,022_y_f_n_a.png,I,m,1172,5,1,2222.1000003814697,666719.0,9008,VNB,C,3
3,prac,2,1.0,2-Back,0,z,Mon Jan 27 2025 10:12:24 GMT-0500 (Eastern Standard Time),671472.7999992371,015_o_m_h_a.png,I,m,1455,6,1,2522.5,668950.2999992371,9008,VNB,C,4
3,prac,2,1.0,2-Back,0,z,Mon Jan 27 2025 10:12:24 GMT-0500 (Eastern Standard Time),674538.6999988556,025_y_m_n_a.png,I,None,2007,7,1,3052.199998855591,671486.5,9008,VNB,C,5
3,prac,2,0.0,2-Back,0,m,Mon Jan 27 2025 10:12:24 GMT-0500 (Eastern Standard Time),676039.3999996185,019_m_f_d_a.png,I,z,547,8,1,1492.2999992370605,674547.1000003815,9008,VNB,C,6
4,prac,2,0.0,2-Back,1,m,Mon Jan 27 2025 10:12:24 GMT-0500 (Eastern Standard Time),677423.1000003815,012_o_f_d_a.png,I,m,431,9,1,1371.2000007629395,676051.8999996185,9008,VNB,C,7
4,prac,2,0.0,2-Back,0,m,Mon Jan 27 2025 10:12:24 GMT-0500 (Eastern Standard Time),679122.7999992371,014_m_m_h_a.png,I,z,768,10,1,1689.3999996185303,677433.3999996185,9008,VNB,C,8
4,prac,2,1.0,2-Back,0,z,Mon Jan 27 2025 10:12:24 GMT-0500 (Eastern Standard Time),680456.0,022_y_f_d_a.png,I,m,379,11,1,1321.3999996185303,679134.6000003815,9008,VNB,C,9
4,prac,2,0.0,2-Back,0,m,Mon Jan 27 2025 10:12:24 GMT-0500 (Eastern Standard Time),682172.7999992371,015_o_m_n_a.png,I,z,759,12,1,1704.5,680468.2999992371,9008,VNB,C,10
0,test,1,0.0,2-Back,,,Mon Jan 27 2025 10:12:24 GMT-0500 (Eastern Standard Time),682172.7999992371,025_y_m_h_a.png,I,space,27725,1,1,1704.5,680468.2999992371,9008,VNB,C,0
0,test,1,0.0,2-Back,,,Mon Jan 27 2025 10:12:24 GMT-0500 (Eastern Standard Time),682172.7999992371,012_o_f_n_a.png,I,space,27725,2,1,1704.5,680468.2999992371,9008,VNB,C,0
0,test,1,0.0,2-Back,0,z,Mon Jan 27 2025 10:12:24 GMT-0500 (Eastern Standard Time),732889.5,015_o_m_h_a.png,I,m,1162,3,1,2222.3999996185303,730667.1000003815,9008,VNB,C,1
0,test,1,0.0,2-Back,0,m,Mon Jan 27 2025 10:12:24 GMT-0500 (Eastern Standard Time),735956.1999988556,019_m_f_d_a.png,I,None,2003,4,1,3055.3999996185303,732900.7999992371,9008,VNB,C,2
0,test,1,1.0,2-Back,0,m,Mon Jan 27 2025 10:12:24 GMT-0500 (Eastern Standard Time),738989.5,025_y_m_n_a.png,I,None,2013,5,1,3023.6000003814697,735965.8999996185,9008,VNB,C,3
1,test,1,0.0,2-Back,1,z,Mon Jan 27 2025 10:12:24 GMT-0500 (Eastern Standard Time),740722.6999988556,022_y_f_d_a.png,I,z,636,6,1,1721.8999996185303,739000.7999992371,9008,VNB,C,4
1,test,1,0.0,2-Back,0,m,Mon Jan 27 2025 10:12:24 GMT-0500 (Eastern Standard Time),743823.1000003815,014_m_m_h_a.png,I,None,2014,7,1,3089.6000003814697,740733.5,9008,VNB,C,5
2,test,1,1.0,2-Back,1,m,Mon Jan 27 2025 10:12:24 GMT-0500 (Eastern Standard Time),746156.2999992371,022_y_f_n_a.png,I,m,1309,8,1,2321.7999992370605,743834.5,9008,VNB,C,6
2,test,1,0.0,2-Back,0,z,Mon Jan 27 2025 10:12:24 GMT-0500 (Eastern Standard Time),748289.1000003815,012_o_f_h_a.png,I,m,1103,9,1,2123.1000003814697,746166.0,9008,VNB,C,7
2,test,1,0.0,2-Back,0,m,Mon Jan 27 2025 10:12:24 GMT-0500 (Eastern Standard Time),750506.1999988556,015_o_m_d_a.png,I,z,1193,10,1,2211.699998855591,748294.5,9008,VNB,C,8
2,test,1,1.0,2-Back,0,m,Mon Jan 27 2025 10:12:24 GMT-0500 (Eastern Standard Time),752956.2999992371,014_m_m_d_a.png,I,z,1426,11,1,2440.8999996185303,750515.3999996185,9008,VNB,C,9
3,test,1,0.0,2-Back,1,m,Mon Jan 27 2025 10:12:24 GMT-0500 (Eastern Standard Time),755222.8999996185,019_m_f_n_a.png,I,m,1197,12,1,2256.1000003814697,752966.7999992371,9008,VNB,C,10
3,test,1,0.0,2-Back,0,m,Mon Jan 27 2025 10:12:24 GMT-0500 (Eastern Standard Time),757156.2999992371,022_y_f_h_a.png,I,z,852,13,1,1923.2999992370605,755233.0,9008,VNB,C,11
3,test,1,0.0,2-Back,0,z,Mon Jan 27 2025 10:12:24 GMT-0500 (Eastern Standard Time),759239.1999988556,014_m_m_n_a.png,I,m,997,14,1,2072.2999992370605,757166.8999996185,9008,VNB,C,12
3,test,1,0.0,2-Back,0,m,Mon Jan 27 2025 10:12:24 GMT-0500 (Eastern Standard Time),761389.3999996185,025_y_m_d_a.png,I,z,1124,15,1,2141.5,759247.8999996185,9008,VNB,C,13
3,test,1,1.0,2-Back,0,m,Mon Jan 27 2025 10:12:24 GMT-0500 (Eastern Standard Time),764472.8999996185,019_m_f_h_a.png,I,None,2014,16,1,3072.7000007629395,761400.1999988556,9008,VNB,C,14
3,test,1,0.0,2-Back,0,z,Mon Jan 27 2025 10:12:24 GMT-0500 (Eastern Standard Time),767556.2999992371,012_o_f_d_a.png,I,None,2013,17,1,3071.7999992370605,764484.5,9008,VNB,C,15
4,test,1,0.0,2-Back,1,m,Mon Jan 27 2025 10:12:24 GMT-0500 (Eastern Standard Time),770622.6999988556,015_o_m_n_a.png,I,m,1940,18,1,3055.8999996185303,767566.7999992371,9008,VNB,C,16
0,test,2,0.0,2-Back,,,Mon Jan 27 2025 10:12:24 GMT-0500 (Eastern Standard Time),770622.6999988556,014_m_m_h_a.png,I,space,5254,1,1,3055.8999996185303,767566.7999992371,9008,VNB,C,0
0,test,2,0.0,2-Back,,,Mon Jan 27 2025 10:12:24 GMT-0500 (Eastern Standard Time),770622.6999988556,022_y_f_n_a.png,I,space,5254,2,1,3055.8999996185303,767566.7999992371,9008,VNB,C,0
1,test,2,1.0,2-Back,1,z,Mon Jan 27 2025 10:12:24 GMT-0500 (Eastern Standard Time),782722.7999992371,012_o_f_h_a.png,I,z,453,3,1,1471.1000003814697,781251.6999988556,9008,VNB,C,1
1,test,2,0.0,2-Back,0,m,Mon Jan 27 2025 10:12:24 GMT-0500 (Eastern Standard Time),785755.6000003815,015_o_m_d_a.png,I,None,2014,4,1,3023.0,782732.6000003815,9008,VNB,C,2
1,test,2,0.0,2-Back,0,m,Mon Jan 27 2025 10:12:24 GMT-0500 (Eastern Standard Time),788792.6999988556,019_m_f_d_a.png,I,None,2012,5,1,3032.3999996185303,785760.2999992371,9008,VNB,C,3
2,test,2,0.0,2-Back,1,m,Mon Jan 27 2025 10:12:24 GMT-0500 (Eastern Standard Time),790488.7999992371,025_y_m_h_a.png,I,m,680,6,1,1690.6000003814697,788798.1999988556,9008,VNB,C,4
3,test,2,0.0,2-Back,1,m,Mon Jan 27 2025 10:12:24 GMT-0500 (Eastern Standard Time),793139.2999992371,012_o_f_n_a.png,I,m,1619,7,1,2645.699998855591,790493.6000003815,9008,VNB,C,5
3,test,2,1.0,2-Back,0,z,Mon Jan 27 2025 10:12:24 GMT-0500 (Eastern Standard Time),795456.2999992371,015_o_m_h_a.png,I,m,1288,8,1,2306.8999996185303,793149.3999996185,9008,VNB,C,6
4,test,2,0.0,2-Back,1,m,Mon Jan 27 2025 10:12:24 GMT-0500 (Eastern Standard Time),797672.8999996185,022_y_f_d_a.png,I,m,1146,9,1,2206.3999996185303,795466.5,9008,VNB,C,7
4,test,2,0.0,2-Back,0,m,Mon Jan 27 2025 10:12:24 GMT-0500 (Eastern Standard Time),799506.1000003815,025_y_m_d_a.png,I,z,737,10,1,1820.1000003814697,797686.0,9008,VNB,C,8
4,test,2,0.0,2-Back,0,m,Mon Jan 27 2025 10:12:24 GMT-0500 (Eastern Standard Time),802539.2999992371,014_m_m_n_a.png,I,None,2013,11,1,3023.199998855591,799516.1000003815,9008,VNB,C,9
4,test,2,0.0,2-Back,0,m,Mon Jan 27 2025 10:12:24 GMT-0500 (Eastern Standard Time),804439.6000003815,019_m_f_h_a.png,I,z,865,12,1,1890.8000011444092,802548.7999992371,9008,VNB,C,10
5,test,2,1.0,2-Back,1,z,Mon Jan 27 2025 10:12:24 GMT-0500 (Eastern Standard Time),807223.0,015_o_m_n_a.png,I,z,1764,13,1,2772.800001144409,804450.1999988556,9008,VNB,C,11
6,test,2,0.0,2-Back,1,m,Mon Jan 27 2025 10:12:24 GMT-0500 (Eastern Standard Time),809789.6000003815,012_o_f_d_a.png,I,m,1491,14,1,2556.5,807233.1000003815,9008,VNB,C,12
7,test,2,0.0,2-Back,1,m,Mon Jan 27 2025 10:12:24 GMT-0500 (Eastern Standard Time),812139.5,022_y_f_h_a.png,I,m,1276,15,1,2287.3999996185303,809852.1000003815,9008,VNB,C,13
8,test,2,0.0,2-Back,1,z,Mon Jan 27 2025 10:12:24 GMT-0500 (Eastern Standard Time),813789.2999992371,014_m_m_d_a.png,I,z,624,16,1,1640.1000003814697,812149.1999988556,9008,VNB,C,14
9,test,2,0.0,2-Back,1,m,Mon Jan 27 2025 10:12:24 GMT-0500 (Eastern Standard Time),815972.7999992371,025_y_m_n_a.png,I,m,1150,17,1,2171.2999992370605,813801.5,9008,VNB,C,15
9,test,2,1.0,2-Back,0,m,Mon Jan 27 2025 10:12:24 GMT-0500 (Eastern Standard Time),818106.1999988556,019_m_f_n_a.png,I,z,1112,18,1,2121.0,815985.1999988556,9008,VNB,C,16
0,test,3,1.0,2-Back,,,Mon Jan 27 2025 10:12:24 GMT-0500 (Eastern Standard Time),818106.1999988556,015_o_m_n_a.png,I,space,4868,1,1,2121.0,815985.1999988556,9008,VNB,C,0
0,test,3,1.0,2-Back,,,Mon Jan 27 2025 10:12:24 GMT-0500 (Eastern Standard Time),818106.1999988556,012_o_f_d_a.png,I,space,4868,2,1,2121.0,815985.1999988556,9008,VNB,C,0
1,test,3,0.0,2-Back,1,m,Mon Jan 27 2025 10:12:24 GMT-0500 (Eastern Standard Time),830489.5,022_y_f_h_a.png,I,m,1028,3,1,2089.6000003814697,828399.8999996185,9008,VNB,C,1
2,test,3,0.0,2-Back,1,z,Mon Jan 27 2025 10:12:24 GMT-0500 (Eastern Standard Time),832589.5,019_m_f_d_a.png,I,z,1024,4,1,2088.8999996185303,830500.6000003815,9008,VNB,C,2
2,test,3,1.0,2-Back,0,m,Mon Jan 27 2025 10:12:24 GMT-0500 (Eastern Standard Time),835223.1999988556,025_y_m_n_a.png,I,z,1614,5,1,2623.199998855591,832600.0,9008,VNB,C,3
2,test,3,0.0,2-Back,0,m,Mon Jan 27 2025 10:12:24 GMT-0500 (Eastern Standard Time),838256.5,015_o_m_h_a.png,I,None,2013,6,1,3026.0,835230.5,9008,VNB,C,4
3,test,3,0.0,2-Back,1,z,Mon Jan 27 2025 10:12:24 GMT-0500 (Eastern Standard Time),840622.7999992371,022_y_f_n_a.png,I,z,1289,7,1,2353.2999992370605,838269.5,9008,VNB,C,5
4,test,3,1.0,2-Back,1,m,Mon Jan 27 2025 10:12:24 GMT-0500 (Eastern Standard Time),842923.0,014_m_m_d_a.png,I,m,1227,8,1,2286.800001144409,840636.1999988556,9008,VNB,C,6
4,test,3,0.0,2-Back,0,m,Mon Jan 27 2025 10:12:24 GMT-0500 (Eastern Standard Time),845006.2999992371,025_y_m_d_a.png,I,z,1007,9,1,2071.1000003814697,842935.1999988556,9008,VNB,C,7
5,test,3,0.0,2-Back,1,m,Mon Jan 27 2025 10:12:24 GMT-0500 (Eastern Standard Time),847539.5,012_o_f_h_a.png,I,m,1452,10,1,2523.5,845016.0,9008,VNB,C,8
6,test,3,1.0,2-Back,1,m,Mon Jan 27 2025 10:12:24 GMT-0500 (Eastern Standard Time),850423.1000003815,019_m_f_n_a.png,I,m,1814,11,1,2866.400001525879,847556.6999988556,9008,VNB,C,9
6,test,3,1.0,2-Back,0,z,Mon Jan 27 2025 10:12:24 GMT-0500 (Eastern Standard Time),852839.6999988556,014_m_m_h_a.png,I,m,1297,12,1,2404.2999992370605,850435.3999996185,9008,VNB,C,10
6,test,3,0.0,2-Back,0,m,Mon Jan 27 2025 10:12:24 GMT-0500 (Eastern Standard Time),855106.1000003815,022_y_f_d_a.png,I,z,1187,13,1,2255.800001144409,852850.2999992371,9008,VNB,C,11
7,test,3,0.0,2-Back,1,m,Mon Jan 27 2025 10:12:24 GMT-0500 (Eastern Standard Time),857305.8999996185,012_o_f_n_a.png,I,m,1109,14,1,2188.6000003814697,855117.2999992371,9008,VNB,C,12
7,test,3,0.0,2-Back,0,z,Mon Jan 27 2025 10:12:24 GMT-0500 (Eastern Standard Time),860122.8999996185,015_o_m_d_a.png,I,m,1794,15,1,2809.7999992370605,857313.1000003815,9008,VNB,C,13
7,test,3,1.0,2-Back,0,m,Mon Jan 27 2025 10:12:24 GMT-0500 (Eastern Standard Time),863155.7999992371,019_m_f_h_a.png,I,None,2014,16,1,3023.199998855591,860132.6000003815,9008,VNB,C,14
7,test,3,0.0,2-Back,0,m,Mon Jan 27 2025 10:12:24 GMT-0500 (Eastern Standard Time),866189.6000003815,014_m_m_n_a.png,I,None,2014,17,1,3027.900001525879,863161.6999988556,9008,VNB,C,15
7,test,3,0.0,2-Back,0,z,Mon Jan 27 2025 10:12:24 GMT-0500 (Eastern Standard Time),868323.0,025_y_m_h_a.png,I,m,1052,18,1,2121.8999996185303,866201.1000003815,9008,VNB,C,16
0,test,4,0.0,2-Back,,,Mon Jan 27 2025 10:12:24 GMT-0500 (Eastern Standard Time),868323.0,019_m_f_n_a.png,I,space,3059,1,1,2121.8999996185303,866201.1000003815,9008,VNB,C,0
0,test,4,0.0,2-Back,,,Mon Jan 27 2025 10:12:24 GMT-0500 (Eastern Standard Time),868323.0,015_o_m_n_a.png,I,space,3059,2,1,2121.8999996185303,866201.1000003815,9008,VNB,C,0
0,test,4,1.0,2-Back,0,m,Mon Jan 27 2025 10:12:24 GMT-0500 (Eastern Standard Time),879839.6999988556,025_y_m_h_a.png,I,None,2014,3,1,3022.099998474121,876817.6000003815,9008,VNB,C,1
1,test,4,1.0,2-Back,1,m,Mon Jan 27 2025 10:12:24 GMT-0500 (Eastern Standard Time),881989.6000003815,012_o_f_d_a.png,I,m,1116,4,1,2139.7000007629395,879849.8999996185,9008,VNB,C,2
1,test,4,0.0,2-Back,0,z,Mon Jan 27 2025 10:12:24 GMT-0500 (Eastern Standard Time),884556.1999988556,015_o_m_h_a.png,I,m,1541,5,1,2557.199998855591,881999.0,9008,VNB,C,3
1,test,4,0.0,2-Back,0,m,Mon Jan 27 2025 10:12:24 GMT-0500 (Eastern Standard Time),886489.2999992371,014_m_m_n_a.png,I,z,861,6,1,1923.8999996185303,884565.3999996185,9008,VNB,C,4
1,test,4,0.0,2-Back,0,m,Mon Jan 27 2025 10:12:24 GMT-0500 (Eastern Standard Time),889523.0,019_m_f_d_a.png,I,None,2015,7,1,3026.6000003814697,886496.3999996185,9008,VNB,C,5
2,test,4,0.0,2-Back,1,z,Mon Jan 27 2025 10:12:24 GMT-0500 (Eastern Standard Time),892139.6999988556,022_y_f_n_a.png,I,z,1592,8,1,2607.099998474121,889532.6000003815,9008,VNB,C,6
3,test,4,1.0,2-Back,1,m,Mon Jan 27 2025 10:12:24 GMT-0500 (Eastern Standard Time),894123.0,012_o_f_h_a.png,I,m,960,9,1,1972.3000011444092,892150.6999988556,9008,VNB,C,7
3,test,4,0.0,2-Back,0,m,Mon Jan 27 2025 10:12:24 GMT-0500 (Eastern Standard Time),897223.0,014_m_m_h_a.png,I,None,2014,10,1,3088.5,894134.5,9008,VNB,C,8
4,test,4,0.0,2-Back,1,m,Mon Jan 27 2025 10:12:24 GMT-0500 (Eastern Standard Time),899672.8999996185,022_y_f_d_a.png,I,m,1379,11,1,2438.5,897234.3999996185,9008,VNB,C,9
4,test,4,0.0,2-Back,0,m,Mon Jan 27 2025 10:12:24 GMT-0500 (Eastern Standard Time),901623.0,025_y_m_n_a.png,I,z,865,12,1,1938.5,899684.5,9008,VNB,C,10
4,test,4,0.0,2-Back,0,z,Mon Jan 27 2025 10:12:24 GMT-0500 (Eastern Standard Time),903956.3999996185,015_o_m_d_a.png,I,m,1251,13,1,2321.7000007629395,901634.6999988556,9008,VNB,C,11
5,test,4,1.0,2-Back,1,m,Mon Jan 27 2025 10:12:24 GMT-0500 (Eastern Standard Time),906523.0,019_m_f_h_a.png,I,m,1493,14,1,2552.300001144409,903970.6999988556,9008,VNB,C,12
6,test,4,1.0,2-Back,1,m,Mon Jan 27 2025 10:12:24 GMT-0500 (Eastern Standard Time),909122.7999992371,022_y_f_h_a.png,I,m,1519,15,1,2588.7999992370605,906534.0,9008,VNB,C,13
7,test,4,0.0,2-Back,1,m,Mon Jan 27 2025 10:12:24 GMT-0500 (Eastern Standard Time),911073.1000003815,012_o_f_n_a.png,I,m,921,16,1,1941.0,909132.1000003815,9008,VNB,C,14
7,test,4,0.0,2-Back,0,m,Mon Jan 27 2025 10:12:24 GMT-0500 (Eastern Standard Time),912989.6000003815,025_y_m_d_a.png,I,z,841,17,1,1904.0,911085.6000003815,9008,VNB,C,15
7,test,4,1.0,2-Back,0,m,Mon Jan 27 2025 10:12:24 GMT-0500 (Eastern Standard Time),915756.2999992371,014_m_m_d_a.png,I,z,1693,18,1,2756.199998855591,913000.1000003815,9008,VNB,C,16
0,test,5,1.0,2-Back,,,Mon Jan 27 2025 10:12:24 GMT-0500 (Eastern Standard Time),915756.2999992371,022_y_f_d_a.png,I,space,2257,1,1,2756.199998855591,913000.1000003815,9008,VNB,C,0
0,test,5,1.0,2-Back,,,Mon Jan 27 2025 10:12:24 GMT-0500 (Eastern Standard Time),915756.2999992371,012_o_f_h_a.png,I,space,2257,2,1,2756.199998855591,913000.1000003815,9008,VNB,C,0
1,test,5,1.0,2-Back,1,z,Mon Jan 27 2025 10:12:24 GMT-0500 (Eastern Standard Time),925689.6999988556,015_o_m_d_a.png,I,z,1279,3,1,2295.599998474121,923394.1000003815,9008,VNB,C,1
2,test,5,1.0,2-Back,1,m,Mon Jan 27 2025 10:12:24 GMT-0500 (Eastern Standard Time),928389.7999992371,019_m_f_n_a.png,I,m,1626,4,1,2689.3999996185303,925700.3999996185,9008,VNB,C,2
2,test,5,0.0,2-Back,0,m,Mon Jan 27 2025 10:12:24 GMT-0500 (Eastern Standard Time),930206.3999996185,014_m_m_h_a.png,I,z,790,5,1,1806.7999992370605,928399.6000003815,9008,VNB,C,3
2,test,5,0.0,2-Back,0,z,Mon Jan 27 2025 10:12:24 GMT-0500 (Eastern Standard Time),932406.3999996185,022_y_f_n_a.png,I,m,1165,6,1,2190.2000007629395,930216.1999988556,9008,VNB,C,4
3,test,5,0.0,2-Back,1,m,Mon Jan 27 2025 10:12:24 GMT-0500 (Eastern Standard Time),934439.3999996185,012_o_f_d_a.png,I,m,1013,7,1,2022.0,932417.3999996185,9008,VNB,C,5
4,test,5,0.0,2-Back,1,m,Mon Jan 27 2025 10:12:24 GMT-0500 (Eastern Standard Time),936822.6999988556,015_o_m_h_a.png,I,m,1348,8,1,2371.599998474121,934451.1000003815,9008,VNB,C,6
5,test,5,1.0,2-Back,1,z,Mon Jan 27 2025 10:12:24 GMT-0500 (Eastern Standard Time),938656.1999988556,019_m_f_d_a.png,I,z,755,9,1,1823.7999992370605,936832.3999996185,9008,VNB,C,7
5,test,5,0.0,2-Back,0,m,Mon Jan 27 2025 10:12:24 GMT-0500 (Eastern Standard Time),941756.5,025_y_m_n_a.png,I,None,2014,10,1,3089.800001144409,938666.6999988556,9008,VNB,C,8
5,test,5,0.0,2-Back,0,m,Mon Jan 27 2025 10:12:24 GMT-0500 (Eastern Standard Time),943939.6000003815,014_m_m_n_a.png,I,z,1102,11,1,2171.900001525879,941767.6999988556,9008,VNB,C,9
5,test,5,0.0,2-Back,0,m,Mon Jan 27 2025 10:12:24 GMT-0500 (Eastern Standard Time),946856.1000003815,022_y_f_h_a.png,I,z,1896,12,1,2901.6000003814697,943954.5,9008,VNB,C,10
6,test,5,0.0,2-Back,1,m,Mon Jan 27 2025 10:12:24 GMT-0500 (Eastern Standard Time),948756.0,025_y_m_d_a.png,I,m,867,13,1,1889.8999996185303,946866.1000003815,9008,VNB,C,11
6,test,5,1.0,2-Back,0,z,Mon Jan 27 2025 10:12:24 GMT-0500 (Eastern Standard Time),951789.6999988556,019_m_f_h_a.png,I,None,2014,14,1,3026.099998474121,948763.6000003815,9008,VNB,C,12
6,test,5,0.0,2-Back,0,m,Mon Jan 27 2025 10:12:24 GMT-0500 (Eastern Standard Time),954023.0,015_o_m_n_a.png,I,z,1148,15,1,2222.6000003814697,951800.3999996185,9008,VNB,C,13
7,test,5,0.0,2-Back,1,m,Mon Jan 27 2025 10:12:24 GMT-0500 (Eastern Standard Time),956173.0,014_m_m_d_a.png,I,m,1075,16,1,2137.800001144409,954035.1999988556,9008,VNB,C,14
7,test,5,0.0,2-Back,0,z,Mon Jan 27 2025 10:12:24 GMT-0500 (Eastern Standard Time),958589.5,012_o_f_n_a.png,I,m,1340,17,1,2406.0,956183.5,9008,VNB,C,15
7,test,5,1.0,2-Back,0,m,Mon Jan 27 2025 10:12:24 GMT-0500 (Eastern Standard Time),960590.1999988556,025_y_m_h_a.png,I,z,924,18,1,1991.3999996185303,958598.7999992371,9008,VNB,C,16
