acc_sum,block,block_c,change,condition,correct,correct_response,datetime,endtime,face,project,response,response_time,row_sel,session_number,start_end,starttime,subject_id,task,task_vers,trial
0,prac,1,,1-Back,,,Mon Mar 17 2025 15:24:37 GMT-0500 (Central Daylight Time),,124_o_f_d_a.png,O,space,8363,1,1,,,7085,VNB,A,0
1,prac,1,0.0,1-Back,1,m,Mon Mar 17 2025 15:24:37 GMT-0500 (Central Daylight Time),171060.0,071_y_f_n_a.png,O,m,1820,2,1,2624.5999999940395,168435.40000000596,7085,VNB,A,1
2,prac,1,0.0,1-Back,1,m,Mon Mar 17 2025 15:24:37 GMT-0500 (Central Daylight Time),173509.09999999404,165_m_m_h_a.png,O,m,1644,3,1,2441.699999988079,171067.40000000596,7085,VNB,A,2
3,prac,1,0.0,1-Back,1,m,Mon Mar 17 2025 15:24:37 GMT-0500 (Central Daylight Time),175825.09999999404,109_y_m_d_a.png,O,m,1494,4,1,2308.5,173516.59999999404,7085,VNB,A,3
4,prac,1,0.0,1-Back,1,m,Mon Mar 17 2025 15:24:37 GMT-0500 (Central Daylight Time),177857.59999999404,124_o_f_n_a.png,O,m,1194,5,1,2025.0,175832.59999999404,7085,VNB,A,4
4,prac,1,1.0,1-Back,0,z,Mon Mar 17 2025 15:24:37 GMT-0500 (Central Daylight Time),179456.90000000596,109_y_m_n_a.png,O,m,793,6,1,1591.5,177865.40000000596,7085,VNB,A,5
5,prac,1,0.0,1-Back,1,m,Mon Mar 17 2025 15:24:37 GMT-0500 (Central Daylight Time),181639.90000000596,039_o_m_h_a.png,O,m,1370,7,1,2175.5999999940395,179464.30000001192,7085,VNB,A,6
6,prac,1,0.0,1-Back,1,m,Mon Mar 17 2025 15:24:37 GMT-0500 (Central Daylight Time),183306.0,139_m_f_d_a.png,O,m,855,8,1,1657.4000000059605,181648.59999999404,7085,VNB,A,7
7,prac,1,1.0,1-Back,1,z,Mon Mar 17 2025 15:24:37 GMT-0500 (Central Daylight Time),185272.0,071_y_f_d_a.png,O,z,1153,9,1,1958.0999999940395,183313.90000000596,7085,VNB,A,8
8,prac,1,0.0,1-Back,1,m,Mon Mar 17 2025 15:24:37 GMT-0500 (Central Daylight Time),186854.70000001788,165_m_m_n_a.png,O,m,777,10,1,1575.1000000238419,185279.59999999404,7085,VNB,A,9
9,prac,1,0.0,1-Back,1,m,Mon Mar 17 2025 15:24:37 GMT-0500 (Central Daylight Time),188371.0,124_o_f_h_a.png,O,m,698,11,1,1509.0999999940395,186861.90000000596,7085,VNB,A,10
10,prac,1,0.0,1-Back,1,m,Mon Mar 17 2025 15:24:37 GMT-0500 (Central Daylight Time),190420.5,109_y_m_d_a.png,O,m,1234,12,1,2042.2999999821186,188378.20000001788,7085,VNB,A,11
0,test,1,0.0,1-Back,,,Mon Mar 17 2025 15:24:37 GMT-0500 (Central Daylight Time),190420.5,071_y_f_d_a.png,O,space,6438,1,1,2042.2999999821186,188378.20000001788,7085,VNB,A,0
1,test,1,0.0,1-Back,1,m,Mon Mar 17 2025 15:24:37 GMT-0500 (Central Daylight Time),208514.59999999404,139_m_f_n_a.png,O,m,957,2,1,1976.199999988079,206538.40000000596,7085,VNB,A,1
2,test,1,0.0,1-Back,1,m,Mon Mar 17 2025 15:24:37 GMT-0500 (Central Daylight Time),210547.0,039_o_m_h_a.png,O,m,1015,3,1,2025.7999999821186,208521.20000001788,7085,VNB,A,2
2,test,1,1.0,1-Back,0,z,Mon Mar 17 2025 15:24:37 GMT-0500 (Central Daylight Time),212230.20000001788,165_m_m_h_a.png,O,m,654,4,1,1676.800000011921,210553.40000000596,7085,VNB,A,3
3,test,1,0.0,1-Back,1,m,Mon Mar 17 2025 15:24:37 GMT-0500 (Central Daylight Time),213946.20000001788,124_o_f_n_a.png,O,m,683,5,1,1709.9000000059605,212236.30000001192,7085,VNB,A,4
4,test,1,0.0,1-Back,1,m,Mon Mar 17 2025 15:24:37 GMT-0500 (Central Daylight Time),215595.70000001788,109_y_m_d_a.png,O,m,624,6,1,1643.1000000238419,213952.59999999404,7085,VNB,A,5
5,test,1,1.0,1-Back,1,z,Mon Mar 17 2025 15:24:37 GMT-0500 (Central Daylight Time),217645.30000001192,139_m_f_d_a.png,O,z,1029,7,1,2043.4000000059605,215601.90000000596,7085,VNB,A,6
6,test,1,0.0,1-Back,1,m,Mon Mar 17 2025 15:24:37 GMT-0500 (Central Daylight Time),219394.80000001192,071_y_f_h_a.png,O,m,717,8,1,1743.5,217651.30000001192,7085,VNB,A,7
7,test,1,0.0,1-Back,1,m,Mon Mar 17 2025 15:24:37 GMT-0500 (Central Daylight Time),221394.40000000596,039_o_m_n_a.png,O,m,967,9,1,1993.5999999940395,219400.80000001192,7085,VNB,A,8
8,test,1,0.0,1-Back,1,m,Mon Mar 17 2025 15:24:37 GMT-0500 (Central Daylight Time),223243.59999999404,109_y_m_h_a.png,O,m,824,10,1,1842.699999988079,221400.90000000596,7085,VNB,A,9
9,test,1,0.0,1-Back,1,m,Mon Mar 17 2025 15:24:37 GMT-0500 (Central Daylight Time),224992.80000001192,039_o_m_d_a.png,O,m,727,11,1,1742.300000011921,223250.5,7085,VNB,A,10
10,test,1,1.0,1-Back,1,z,Mon Mar 17 2025 15:24:37 GMT-0500 (Central Daylight Time),226892.30000001192,124_o_f_d_a.png,O,z,881,12,1,1892.5,224999.80000001192,7085,VNB,A,11
11,test,1,0.0,1-Back,1,m,Mon Mar 17 2025 15:24:37 GMT-0500 (Central Daylight Time),228525.09999999404,165_m_m_n_a.png,O,m,613,13,1,1626.199999988079,226898.90000000596,7085,VNB,A,12
11,test,1,1.0,1-Back,0,z,Mon Mar 17 2025 15:24:37 GMT-0500 (Central Daylight Time),230291.0,071_y_f_n_a.png,O,m,749,14,1,1759.0999999940395,228531.90000000596,7085,VNB,A,13
12,test,1,0.0,1-Back,1,m,Mon Mar 17 2025 15:24:37 GMT-0500 (Central Daylight Time),232074.20000001788,139_m_f_h_a.png,O,m,750,15,1,1777.0,230297.20000001788,7085,VNB,A,14
12,test,1,0.0,1-Back,0,m,Mon Mar 17 2025 15:24:37 GMT-0500 (Central Daylight Time),233923.30000001192,165_m_m_d_a.png,O,z,832,16,1,1842.800000011921,232080.5,7085,VNB,A,15
13,test,1,0.0,1-Back,1,m,Mon Mar 17 2025 15:24:37 GMT-0500 (Central Daylight Time),235672.70000001788,109_y_m_n_a.png,O,m,725,17,1,1743.1000000238419,233929.59999999404,7085,VNB,A,16
14,test,1,0.0,1-Back,1,m,Mon Mar 17 2025 15:24:37 GMT-0500 (Central Daylight Time),237688.70000001788,124_o_f_h_a.png,O,m,993,18,1,2009.800000011921,235678.90000000596,7085,VNB,A,17
0,test,2,0.0,1-Back,,,Mon Mar 17 2025 15:24:37 GMT-0500 (Central Daylight Time),237688.70000001788,109_y_m_n_a.png,O,space,1602,1,1,2009.800000011921,235678.90000000596,7085,VNB,A,0
0,test,2,0.0,1-Back,0,m,Mon Mar 17 2025 15:24:37 GMT-0500 (Central Daylight Time),244386.90000000596,071_y_f_h_a.png,O,None,2016,2,1,3026.4000000059605,241360.5,7085,VNB,A,1
1,test,2,1.0,1-Back,1,m,Mon Mar 17 2025 15:24:37 GMT-0500 (Central Daylight Time),246219.30000001192,039_o_m_n_a.png,O,m,815,3,1,1826.2000000178814,244393.09999999404,7085,VNB,A,2
2,test,2,0.0,1-Back,1,m,Mon Mar 17 2025 15:24:37 GMT-0500 (Central Daylight Time),247835.5,139_m_f_d_a.png,O,m,598,4,1,1610.0999999940395,246225.40000000596,7085,VNB,A,3
3,test,2,0.0,1-Back,1,z,Mon Mar 17 2025 15:24:37 GMT-0500 (Central Daylight Time),249768.40000000596,165_m_m_d_a.png,O,z,910,5,1,1926.9000000059605,247841.5,7085,VNB,A,4
4,test,2,0.0,1-Back,1,m,Mon Mar 17 2025 15:24:37 GMT-0500 (Central Daylight Time),251651.20000001788,109_y_m_h_a.png,O,m,858,6,1,1876.4000000059605,249774.80000001192,7085,VNB,A,5
5,test,2,1.0,1-Back,1,z,Mon Mar 17 2025 15:24:37 GMT-0500 (Central Daylight Time),253284.09999999404,124_o_f_h_a.png,O,z,606,7,1,1625.199999988079,251658.90000000596,7085,VNB,A,6
6,test,2,0.0,1-Back,1,m,Mon Mar 17 2025 15:24:37 GMT-0500 (Central Daylight Time),255000.90000000596,139_m_f_n_a.png,O,m,698,8,1,1710.5,253290.40000000596,7085,VNB,A,7
7,test,2,0.0,1-Back,1,m,Mon Mar 17 2025 15:24:37 GMT-0500 (Central Daylight Time),256716.40000000596,071_y_f_d_a.png,O,m,698,9,1,1709.0999999940395,255007.30000001192,7085,VNB,A,8
8,test,2,0.0,1-Back,1,m,Mon Mar 17 2025 15:24:37 GMT-0500 (Central Daylight Time),258415.80000001192,165_m_m_n_a.png,O,m,669,10,1,1692.800000011921,256723.0,7085,VNB,A,9
9,test,2,1.0,1-Back,1,m,Mon Mar 17 2025 15:24:37 GMT-0500 (Central Daylight Time),260248.59999999404,139_m_f_h_a.png,O,m,801,11,1,1826.699999988079,258421.90000000596,7085,VNB,A,10
10,test,2,0.0,1-Back,1,z,Mon Mar 17 2025 15:24:37 GMT-0500 (Central Daylight Time),261864.5,039_o_m_h_a.png,O,z,584,12,1,1609.4000000059605,260255.09999999404,7085,VNB,A,11
11,test,2,0.0,1-Back,1,m,Mon Mar 17 2025 15:24:37 GMT-0500 (Central Daylight Time),263630.8000000119,109_y_m_d_a.png,O,m,737,13,1,1759.800000011921,261871.0,7085,VNB,A,12
12,test,2,0.0,1-Back,1,m,Mon Mar 17 2025 15:24:37 GMT-0500 (Central Daylight Time),265280.0,124_o_f_n_a.png,O,m,627,14,1,1642.5,263637.5,7085,VNB,A,13
13,test,2,0.0,1-Back,1,z,Mon Mar 17 2025 15:24:37 GMT-0500 (Central Daylight Time),267013.09999999404,071_y_f_n_a.png,O,z,705,15,1,1726.3999999761581,265286.7000000179,7085,VNB,A,14
14,test,2,1.0,1-Back,1,m,Mon Mar 17 2025 15:24:37 GMT-0500 (Central Daylight Time),268795.59999999404,165_m_m_h_a.png,O,m,757,16,1,1776.0999999940395,267019.5,7085,VNB,A,15
15,test,2,0.0,1-Back,1,m,Mon Mar 17 2025 15:24:37 GMT-0500 (Central Daylight Time),270578.90000000596,124_o_f_d_a.png,O,m,766,17,1,1777.0,268801.90000000596,7085,VNB,A,16
16,test,2,1.0,1-Back,1,z,Mon Mar 17 2025 15:24:37 GMT-0500 (Central Daylight Time),272394.7000000179,039_o_m_d_a.png,O,z,790,18,1,1809.6000000238419,270585.09999999404,7085,VNB,A,17
0,test,3,1.0,1-Back,,,Mon Mar 17 2025 15:24:37 GMT-0500 (Central Daylight Time),272394.7000000179,124_o_f_h_a.png,O,space,3496,1,1,1809.6000000238419,270585.09999999404,7085,VNB,A,0
1,test,3,0.0,1-Back,1,m,Mon Mar 17 2025 15:24:37 GMT-0500 (Central Daylight Time),279658.8000000119,139_m_f_d_a.png,O,m,649,2,1,1662.300000011921,277996.5,7085,VNB,A,1
2,test,3,1.0,1-Back,1,m,Mon Mar 17 2025 15:24:37 GMT-0500 (Central Daylight Time),281358.59999999404,165_m_m_n_a.png,O,m,670,3,1,1693.8999999761581,279664.7000000179,7085,VNB,A,2
3,test,3,0.0,1-Back,1,z,Mon Mar 17 2025 15:24:37 GMT-0500 (Central Daylight Time),283291.40000000596,124_o_f_n_a.png,O,z,900,4,1,1926.4000000059605,281365.0,7085,VNB,A,3
4,test,3,1.0,1-Back,1,m,Mon Mar 17 2025 15:24:37 GMT-0500 (Central Daylight Time),284941.0,039_o_m_d_a.png,O,m,631,5,1,1643.0999999940395,283297.90000000596,7085,VNB,A,4
5,test,3,0.0,1-Back,1,m,Mon Mar 17 2025 15:24:37 GMT-0500 (Central Daylight Time),286606.8000000119,071_y_f_h_a.png,O,m,645,6,1,1659.9000000059605,284946.90000000596,7085,VNB,A,5
6,test,3,0.0,1-Back,1,z,Mon Mar 17 2025 15:24:37 GMT-0500 (Central Daylight Time),288191.0,109_y_m_h_a.png,O,z,562,7,1,1577.9000000059605,286613.09999999404,7085,VNB,A,6
7,test,3,0.0,1-Back,1,m,Mon Mar 17 2025 15:24:37 GMT-0500 (Central Daylight Time),290089.3000000119,139_m_f_n_a.png,O,m,868,8,1,1891.4000000059605,288197.90000000596,7085,VNB,A,7
8,test,3,0.0,1-Back,1,m,Mon Mar 17 2025 15:24:37 GMT-0500 (Central Daylight Time),291921.8000000119,071_y_f_d_a.png,O,m,800,9,1,1825.800000011921,290096.0,7085,VNB,A,8
9,test,3,1.0,1-Back,1,m,Mon Mar 17 2025 15:24:37 GMT-0500 (Central Daylight Time),293771.2000000179,039_o_m_n_a.png,O,m,824,10,1,1842.7000000178814,291928.5,7085,VNB,A,9
10,test,3,0.0,1-Back,1,m,Mon Mar 17 2025 15:24:37 GMT-0500 (Central Daylight Time),295520.8000000119,165_m_m_h_a.png,O,m,719,11,1,1742.9000000059605,293777.90000000596,7085,VNB,A,10
10,test,3,0.0,1-Back,0,z,Mon Mar 17 2025 15:24:37 GMT-0500 (Central Daylight Time),297320.2000000179,139_m_f_h_a.png,O,m,777,12,1,1792.7000000178814,295527.5,7085,VNB,A,11
11,test,3,1.0,1-Back,1,m,Mon Mar 17 2025 15:24:37 GMT-0500 (Central Daylight Time),299087.5,124_o_f_d_a.png,O,m,738,13,1,1760.699999988079,297326.8000000119,7085,VNB,A,12
11,test,3,0.0,1-Back,0,z,Mon Mar 17 2025 15:24:37 GMT-0500 (Central Daylight Time),300685.8000000119,165_m_m_d_a.png,O,m,571,14,1,1591.7000000178814,299094.09999999404,7085,VNB,A,13
12,test,3,0.0,1-Back,1,m,Mon Mar 17 2025 15:24:37 GMT-0500 (Central Daylight Time),302568.5,109_y_m_n_a.png,O,m,859,15,1,1876.0,300692.5,7085,VNB,A,14
13,test,3,1.0,1-Back,1,m,Mon Mar 17 2025 15:24:37 GMT-0500 (Central Daylight Time),304434.8000000119,039_o_m_h_a.png,O,m,840,16,1,1859.7000000178814,302575.09999999404,7085,VNB,A,15
14,test,3,0.0,1-Back,1,m,Mon Mar 17 2025 15:24:37 GMT-0500 (Central Daylight Time),306317.5,109_y_m_d_a.png,O,m,855,17,1,1875.7999999821186,304441.7000000179,7085,VNB,A,16
15,test,3,1.0,1-Back,1,m,Mon Mar 17 2025 15:24:37 GMT-0500 (Central Daylight Time),308666.7000000179,071_y_f_n_a.png,O,m,1333,18,1,2342.7000000178814,306324.0,7085,VNB,A,17
0,test,4,1.0,1-Back,,,Mon Mar 17 2025 15:24:37 GMT-0500 (Central Daylight Time),308666.7000000179,165_m_m_d_a.png,O,space,1616,1,1,2342.7000000178814,306324.0,7085,VNB,A,0
0,test,4,0.0,1-Back,0,z,Mon Mar 17 2025 15:24:37 GMT-0500 (Central Daylight Time),314681.5,039_o_m_d_a.png,O,m,1359,2,1,2375.5,312306.0,7085,VNB,A,1
0,test,4,0.0,1-Back,0,m,Mon Mar 17 2025 15:24:37 GMT-0500 (Central Daylight Time),316231.0,109_y_m_h_a.png,O,z,527,3,1,1542.9000000059605,314688.09999999404,7085,VNB,A,2
1,test,4,0.0,1-Back,1,m,Mon Mar 17 2025 15:24:37 GMT-0500 (Central Daylight Time),317880.5,139_m_f_n_a.png,O,m,627,4,1,1643.0,316237.5,7085,VNB,A,3
2,test,4,1.0,1-Back,1,m,Mon Mar 17 2025 15:24:37 GMT-0500 (Central Daylight Time),319746.5,124_o_f_h_a.png,O,m,834,5,1,1859.2999999821186,317887.2000000179,7085,VNB,A,4
3,test,4,0.0,1-Back,1,m,Mon Mar 17 2025 15:24:37 GMT-0500 (Central Daylight Time),321595.90000000596,165_m_m_n_a.png,O,m,830,6,1,1843.0,319752.90000000596,7085,VNB,A,5
3,test,4,0.0,1-Back,0,m,Mon Mar 17 2025 15:24:37 GMT-0500 (Central Daylight Time),323445.7000000179,109_y_m_d_a.png,O,z,822,7,1,1843.6000000238419,321602.09999999404,7085,VNB,A,6
3,test,4,1.0,1-Back,0,z,Mon Mar 17 2025 15:24:37 GMT-0500 (Central Daylight Time),325245.0,071_y_f_d_a.png,O,m,773,8,1,1793.199999988079,323451.8000000119,7085,VNB,A,7
3,test,4,0.0,1-Back,0,m,Mon Mar 17 2025 15:24:37 GMT-0500 (Central Daylight Time),327060.90000000596,139_m_f_h_a.png,O,z,797,9,1,1809.4000000059605,325251.5,7085,VNB,A,8
3,test,4,0.0,1-Back,0,z,Mon Mar 17 2025 15:24:37 GMT-0500 (Central Daylight Time),328926.90000000596,039_o_m_h_a.png,O,m,837,10,1,1859.5,327067.40000000596,7085,VNB,A,9
4,test,4,1.0,1-Back,1,m,Mon Mar 17 2025 15:24:37 GMT-0500 (Central Daylight Time),330743.2000000179,124_o_f_n_a.png,O,m,787,11,1,1810.0,328933.2000000179,7085,VNB,A,10
5,test,4,0.0,1-Back,1,m,Mon Mar 17 2025 15:24:37 GMT-0500 (Central Daylight Time),332726.0,139_m_f_d_a.png,O,m,955,12,1,1976.4000000059605,330749.59999999404,7085,VNB,A,11
5,test,4,0.0,1-Back,0,m,Mon Mar 17 2025 15:24:37 GMT-0500 (Central Daylight Time),335758.3000000119,071_y_f_n_a.png,O,None,2015,13,1,3025.4000000059605,332732.90000000596,7085,VNB,A,12
6,test,4,0.0,1-Back,1,m,Mon Mar 17 2025 15:24:37 GMT-0500 (Central Daylight Time),337507.59999999404,124_o_f_d_a.png,O,m,732,14,1,1742.699999988079,335764.90000000596,7085,VNB,A,13
7,test,4,0.0,1-Back,1,m,Mon Mar 17 2025 15:24:37 GMT-0500 (Central Daylight Time),339623.7000000179,071_y_f_h_a.png,O,m,1086,15,1,2110.100000023842,337513.59999999404,7085,VNB,A,14
7,test,4,1.0,1-Back,0,z,Mon Mar 17 2025 15:24:37 GMT-0500 (Central Daylight Time),342656.2000000179,165_m_m_h_a.png,O,None,2015,16,1,3025.9000000059605,339630.3000000119,7085,VNB,A,15
8,test,4,0.0,1-Back,1,m,Mon Mar 17 2025 15:24:37 GMT-0500 (Central Daylight Time),344505.5,039_o_m_n_a.png,O,m,826,17,1,1843.2999999821186,342662.2000000179,7085,VNB,A,16
8,test,4,1.0,1-Back,0,z,Mon Mar 17 2025 15:24:37 GMT-0500 (Central Daylight Time),346605.0,109_y_m_n_a.png,O,m,1081,18,1,2093.199999988079,344511.8000000119,7085,VNB,A,17
0,test,5,1.0,1-Back,,,Mon Mar 17 2025 15:24:37 GMT-0500 (Central Daylight Time),346605.0,039_o_m_n_a.png,O,space,2084,1,1,2093.199999988079,344511.8000000119,7085,VNB,A,0
0,test,5,1.0,1-Back,0,m,Mon Mar 17 2025 15:24:37 GMT-0500 (Central Daylight Time),353752.8000000119,124_o_f_h_a.png,O,None,2016,2,1,3026.7000000178814,350726.09999999404,7085,VNB,A,1
1,test,5,0.0,1-Back,1,m,Mon Mar 17 2025 15:24:37 GMT-0500 (Central Daylight Time),355585.5,109_y_m_d_a.png,O,m,810,3,1,1826.699999988079,353758.8000000119,7085,VNB,A,2
1,test,5,0.0,1-Back,0,z,Mon Mar 17 2025 15:24:37 GMT-0500 (Central Daylight Time),357501.5,039_o_m_d_a.png,O,m,889,4,1,1909.5,355592.0,7085,VNB,A,3
2,test,5,0.0,1-Back,1,m,Mon Mar 17 2025 15:24:37 GMT-0500 (Central Daylight Time),359117.40000000596,139_m_f_h_a.png,O,m,596,5,1,1609.0999999940395,357508.3000000119,7085,VNB,A,4
3,test,5,0.0,1-Back,1,m,Mon Mar 17 2025 15:24:37 GMT-0500 (Central Daylight Time),360650.90000000596,071_y_f_n_a.png,O,m,515,6,1,1527.4000000059605,359123.5,7085,VNB,A,5
3,test,5,1.0,1-Back,0,z,Mon Mar 17 2025 15:24:37 GMT-0500 (Central Daylight Time),362416.7000000179,124_o_f_n_a.png,O,m,744,7,1,1759.5,360657.2000000179,7085,VNB,A,6
4,test,5,0.0,1-Back,1,m,Mon Mar 17 2025 15:24:37 GMT-0500 (Central Daylight Time),364066.2000000179,139_m_f_d_a.png,O,m,617,8,1,1642.9000000059605,362423.3000000119,7085,VNB,A,7
5,test,5,0.0,1-Back,1,m,Mon Mar 17 2025 15:24:37 GMT-0500 (Central Daylight Time),365915.40000000596,109_y_m_h_a.png,O,m,832,9,1,1842.5999999940395,364072.8000000119,7085,VNB,A,8
6,test,5,0.0,1-Back,1,m,Mon Mar 17 2025 15:24:37 GMT-0500 (Central Daylight Time),367531.3000000119,071_y_f_d_a.png,O,m,598,10,1,1609.5999999940395,365921.7000000179,7085,VNB,A,9
7,test,5,0.0,1-Back,1,m,Mon Mar 17 2025 15:24:37 GMT-0500 (Central Daylight Time),369231.09999999404,165_m_m_n_a.png,O,m,670,11,1,1693.199999988079,367537.90000000596,7085,VNB,A,10
7,test,5,1.0,1-Back,0,z,Mon Mar 17 2025 15:24:37 GMT-0500 (Central Daylight Time),370880.59999999404,139_m_f_n_a.png,O,m,627,12,1,1643.0999999940395,369237.5,7085,VNB,A,11
7,test,5,0.0,1-Back,0,m,Mon Mar 17 2025 15:24:37 GMT-0500 (Central Daylight Time),372780.09999999404,039_o_m_h_a.png,O,z,859,13,1,1893.3999999761581,370886.7000000179,7085,VNB,A,12
8,test,5,0.0,1-Back,1,z,Mon Mar 17 2025 15:24:37 GMT-0500 (Central Daylight Time),374346.09999999404,165_m_m_h_a.png,O,z,541,14,1,1560.0,372786.09999999404,7085,VNB,A,13
9,test,5,1.0,1-Back,1,m,Mon Mar 17 2025 15:24:37 GMT-0500 (Central Daylight Time),376095.5,124_o_f_d_a.png,O,m,728,15,1,1742.9000000059605,374352.59999999404,7085,VNB,A,14
10,test,5,0.0,1-Back,1,m,Mon Mar 17 2025 15:24:37 GMT-0500 (Central Daylight Time),378011.7000000179,109_y_m_n_a.png,O,m,889,16,1,1909.9000000059605,376101.8000000119,7085,VNB,A,15
11,test,5,0.0,1-Back,1,m,Mon Mar 17 2025 15:24:37 GMT-0500 (Central Daylight Time),379627.5,071_y_f_h_a.png,O,m,598,17,1,1609.5,378018.0,7085,VNB,A,16
12,test,5,0.0,1-Back,1,m,Mon Mar 17 2025 15:24:37 GMT-0500 (Central Daylight Time),381444.0,165_m_m_d_a.png,O,m,798,18,1,1810.2999999821186,379633.7000000179,7085,VNB,A,17
0,prac,1,0.0,2-Back,,,Mon Mar 17 2025 15:24:37 GMT-0500 (Central Daylight Time),381444.0,139_m_f_n_a.png,O,space,9938,1,1,1810.2999999821186,379633.7000000179,7085,VNB,A,0
0,prac,1,0.0,2-Back,,,Mon Mar 17 2025 15:24:37 GMT-0500 (Central Daylight Time),381444.0,124_o_f_h_a.png,O,space,9938,2,1,1810.2999999821186,379633.7000000179,7085,VNB,A,0
1,prac,1,0.0,2-Back,1,m,Mon Mar 17 2025 15:24:37 GMT-0500 (Central Daylight Time),488945.0,039_o_m_d_a.png,O,m,1071,3,1,1876.699999988079,487068.3000000119,7085,VNB,A,1
1,prac,1,1.0,2-Back,0,z,Mon Mar 17 2025 15:24:37 GMT-0500 (Central Daylight Time),491744.0,165_m_m_h_a.png,O,None,2014,4,1,2790.9000000059605,488953.09999999404,7085,VNB,A,2
2,prac,1,0.0,2-Back,1,m,Mon Mar 17 2025 15:24:37 GMT-0500 (Central Daylight Time),494025.59999999404,071_y_f_n_a.png,O,m,1480,5,1,2273.699999988079,491751.90000000596,7085,VNB,A,3
3,prac,1,1.0,2-Back,1,z,Mon Mar 17 2025 15:24:37 GMT-0500 (Central Daylight Time),495641.7000000179,039_o_m_h_a.png,O,z,809,6,1,1608.4000000059605,494033.3000000119,7085,VNB,A,4
3,prac,1,1.0,2-Back,0,z,Mon Mar 17 2025 15:24:37 GMT-0500 (Central Daylight Time),497257.8000000119,109_y_m_n_a.png,O,m,802,7,1,1608.800000011921,495649.0,7085,VNB,A,5
3,prac,1,0.0,2-Back,0,m,Mon Mar 17 2025 15:24:37 GMT-0500 (Central Daylight Time),499340.5,139_m_f_d_a.png,O,z,1280,8,1,2075.0999999940395,497265.40000000596,7085,VNB,A,6
4,prac,1,0.0,2-Back,1,m,Mon Mar 17 2025 15:24:37 GMT-0500 (Central Daylight Time),501123.09999999404,124_o_f_d_a.png,O,m,950,9,1,1775.0999999940395,499348.0,7085,VNB,A,7
5,prac,1,0.0,2-Back,1,m,Mon Mar 17 2025 15:24:37 GMT-0500 (Central Daylight Time),502872.59999999404,165_m_m_h_a.png,O,m,959,10,1,1742.2999999821186,501130.3000000119,7085,VNB,A,8
5,prac,1,1.0,2-Back,0,z,Mon Mar 17 2025 15:24:37 GMT-0500 (Central Daylight Time),504472.09999999404,071_y_f_d_a.png,O,m,793,11,1,1592.2999999821186,502879.8000000119,7085,VNB,A,9
6,prac,1,0.0,2-Back,1,m,Mon Mar 17 2025 15:24:37 GMT-0500 (Central Daylight Time),506721.5,039_o_m_n_a.png,O,m,1451,12,1,2241.5,504480.0,7085,VNB,A,10
0,prac,2,0.0,2-Back,,,Mon Mar 17 2025 15:24:37 GMT-0500 (Central Daylight Time),506721.5,139_m_f_n_a.png,O,a,5885,1,1,2241.5,504480.0,7085,VNB,A,0
0,prac,2,0.0,2-Back,,,Mon Mar 17 2025 15:24:37 GMT-0500 (Central Daylight Time),506721.5,124_o_f_h_a.png,O,a,5885,2,1,2241.5,504480.0,7085,VNB,A,0
1,prac,2,0.0,2-Back,1,m,Mon Mar 17 2025 15:24:37 GMT-0500 (Central Daylight Time),519367.5,039_o_m_d_a.png,O,m,826,3,1,1625.0999999940395,517742.40000000596,7085,VNB,A,1
2,prac,2,1.0,2-Back,1,z,Mon Mar 17 2025 15:24:37 GMT-0500 (Central Daylight Time),521167.3000000119,165_m_m_h_a.png,O,z,1019,4,1,1792.0,519375.3000000119,7085,VNB,A,2
3,prac,2,0.0,2-Back,1,m,Mon Mar 17 2025 15:24:37 GMT-0500 (Central Daylight Time),523416.3000000119,071_y_f_n_a.png,O,m,1434,5,1,2241.7000000178814,521174.59999999404,7085,VNB,A,3
4,prac,2,1.0,2-Back,1,z,Mon Mar 17 2025 15:24:37 GMT-0500 (Central Daylight Time),525099.0,039_o_m_h_a.png,O,z,875,6,1,1675.5,523423.5,7085,VNB,A,4
5,prac,2,1.0,2-Back,1,z,Mon Mar 17 2025 15:24:37 GMT-0500 (Central Daylight Time),527165.0,109_y_m_n_a.png,O,z,1257,7,1,2058.9000000059605,525106.099999994,7085,VNB,A,5
6,prac,2,0.0,2-Back,1,m,Mon Mar 17 2025 15:24:37 GMT-0500 (Central Daylight Time),529781.099999994,139_m_f_d_a.png,O,m,1811,8,1,2608.0999999940395,527173.0,7085,VNB,A,6
6,prac,2,0.0,2-Back,0,m,Mon Mar 17 2025 15:24:37 GMT-0500 (Central Daylight Time),531913.900000006,124_o_f_d_a.png,O,z,1301,9,1,2125.5,529788.400000006,7085,VNB,A,7
6,prac,2,0.0,2-Back,0,m,Mon Mar 17 2025 15:24:37 GMT-0500 (Central Daylight Time),533729.900000006,165_m_m_h_a.png,O,z,1033,10,1,1808.5,531921.400000006,7085,VNB,A,8
7,prac,2,1.0,2-Back,1,z,Mon Mar 17 2025 15:24:37 GMT-0500 (Central Daylight Time),535945.599999994,071_y_f_d_a.png,O,z,1401,11,1,2208.2999999821186,533737.3000000119,7085,VNB,A,9
8,prac,2,0.0,2-Back,1,m,Mon Mar 17 2025 15:24:37 GMT-0500 (Central Daylight Time),538411.7000000179,039_o_m_n_a.png,O,m,1665,12,1,2458.4000000059605,535953.3000000119,7085,VNB,A,10
0,test,1,0.0,2-Back,,,Mon Mar 17 2025 15:24:37 GMT-0500 (Central Daylight Time),538411.7000000179,109_y_m_h_a.png,O,space,6607,1,1,2458.4000000059605,535953.3000000119,7085,VNB,A,0
0,test,1,0.0,2-Back,,,Mon Mar 17 2025 15:24:37 GMT-0500 (Central Daylight Time),538411.7000000179,124_o_f_n_a.png,O,space,6607,2,1,2458.4000000059605,535953.3000000119,7085,VNB,A,0
1,test,1,0.0,2-Back,1,z,Mon Mar 17 2025 15:24:37 GMT-0500 (Central Daylight Time),557139.2000000179,039_o_m_h_a.png,O,z,715,3,1,1726.800000011921,555412.400000006,7085,VNB,A,1
2,test,1,0.0,2-Back,1,m,Mon Mar 17 2025 15:24:37 GMT-0500 (Central Daylight Time),559504.8000000119,139_m_f_d_a.png,O,m,1335,4,1,2359.2000000178814,557145.599999994,7085,VNB,A,2
2,test,1,1.0,2-Back,0,m,Mon Mar 17 2025 15:24:37 GMT-0500 (Central Daylight Time),562204.0,109_y_m_n_a.png,O,z,1674,5,1,2692.4000000059605,559511.599999994,7085,VNB,A,3
3,test,1,0.0,2-Back,1,z,Mon Mar 17 2025 15:24:37 GMT-0500 (Central Daylight Time),564287.0,071_y_f_d_a.png,O,z,1053,6,1,2076.199999988079,562210.8000000119,7085,VNB,A,4
4,test,1,0.0,2-Back,1,m,Mon Mar 17 2025 15:24:37 GMT-0500 (Central Daylight Time),566369.5,165_m_m_h_a.png,O,m,1059,7,1,2075.9000000059605,564293.599999994,7085,VNB,A,5
5,test,1,1.0,2-Back,1,m,Mon Mar 17 2025 15:24:37 GMT-0500 (Central Daylight Time),568685.5,071_y_f_n_a.png,O,m,1289,8,1,2309.4000000059605,566376.099999994,7085,VNB,A,6
6,test,1,0.0,2-Back,1,z,Mon Mar 17 2025 15:24:37 GMT-0500 (Central Daylight Time),570684.8000000119,124_o_f_h_a.png,O,z,973,9,1,1992.5,568692.3000000119,7085,VNB,A,7
7,test,1,0.0,2-Back,1,m,Mon Mar 17 2025 15:24:37 GMT-0500 (Central Daylight Time),572767.3000000119,039_o_m_d_a.png,O,m,1061,10,1,2075.5,570691.8000000119,7085,VNB,A,8
8,test,1,1.0,2-Back,1,m,Mon Mar 17 2025 15:24:37 GMT-0500 (Central Daylight Time),574618.099999994,165_m_m_d_a.png,O,m,818,11,1,1844.199999988079,572773.900000006,7085,VNB,A,9
9,test,1,0.0,2-Back,1,m,Mon Mar 17 2025 15:24:37 GMT-0500 (Central Daylight Time),576449.8000000119,139_m_f_n_a.png,O,m,800,12,1,1825.2000000178814,574624.599999994,7085,VNB,A,10
9,test,1,0.0,2-Back,0,m,Mon Mar 17 2025 15:24:37 GMT-0500 (Central Daylight Time),578382.400000006,071_y_f_h_a.png,O,z,904,13,1,1926.0999999940395,576456.3000000119,7085,VNB,A,11
10,test,1,0.0,2-Back,1,z,Mon Mar 17 2025 15:24:37 GMT-0500 (Central Daylight Time),580381.7000000179,165_m_m_n_a.png,O,z,972,14,1,1992.2000000178814,578389.5,7085,VNB,A,12
11,test,1,0.0,2-Back,1,m,Mon Mar 17 2025 15:24:37 GMT-0500 (Central Daylight Time),582281.099999994,109_y_m_d_a.png,O,m,868,15,1,1892.5999999940395,580388.5,7085,VNB,A,13
11,test,1,1.0,2-Back,0,m,Mon Mar 17 2025 15:24:37 GMT-0500 (Central Daylight Time),584130.8000000119,139_m_f_h_a.png,O,z,817,16,1,1842.9000000059605,582287.900000006,7085,VNB,A,14
12,test,1,0.0,2-Back,1,z,Mon Mar 17 2025 15:24:37 GMT-0500 (Central Daylight Time),586246.7000000179,124_o_f_d_a.png,O,z,1096,17,1,2109.300000011921,584137.400000006,7085,VNB,A,15
13,test,1,0.0,2-Back,1,m,Mon Mar 17 2025 15:24:37 GMT-0500 (Central Daylight Time),588179.3000000119,039_o_m_n_a.png,O,m,908,18,1,1925.5999999940395,586253.7000000179,7085,VNB,A,16
0,test,2,0.0,2-Back,,,Mon Mar 17 2025 15:24:37 GMT-0500 (Central Daylight Time),588179.3000000119,165_m_m_h_a.png,O,space,1319,1,1,1925.5999999940395,586253.7000000179,7085,VNB,A,0
0,test,2,0.0,2-Back,,,Mon Mar 17 2025 15:24:37 GMT-0500 (Central Daylight Time),588179.3000000119,071_y_f_n_a.png,O,space,1319,2,1,1925.5999999940395,586253.7000000179,7085,VNB,A,0
1,test,2,1.0,2-Back,1,z,Mon Mar 17 2025 15:24:37 GMT-0500 (Central Daylight Time),596259.8000000119,124_o_f_h_a.png,O,z,648,3,1,1659.9000000059605,594599.900000006,7085,VNB,A,1
2,test,2,0.0,2-Back,1,m,Mon Mar 17 2025 15:24:37 GMT-0500 (Central Daylight Time),598109.5,039_o_m_d_a.png,O,m,830,4,1,1842.699999988079,596266.8000000119,7085,VNB,A,2
2,test,2,0.0,2-Back,0,m,Mon Mar 17 2025 15:24:37 GMT-0500 (Central Daylight Time),600325.5,139_m_f_d_a.png,O,z,1197,5,1,2208.4000000059605,598117.099999994,7085,VNB,A,3
3,test,2,0.0,2-Back,1,m,Mon Mar 17 2025 15:24:37 GMT-0500 (Central Daylight Time),602524.7000000179,109_y_m_h_a.png,O,m,1181,6,1,2192.800000011921,600331.900000006,7085,VNB,A,4
3,test,2,0.0,2-Back,0,m,Mon Mar 17 2025 15:24:37 GMT-0500 (Central Daylight Time),604508.599999994,124_o_f_n_a.png,O,z,965,7,1,1977.2999999821186,602531.3000000119,7085,VNB,A,5
3,test,2,1.0,2-Back,0,z,Mon Mar 17 2025 15:24:37 GMT-0500 (Central Daylight Time),606606.900000006,039_o_m_h_a.png,O,m,1079,8,1,2091.800000011921,604515.099999994,7085,VNB,A,6
4,test,2,0.0,2-Back,1,m,Mon Mar 17 2025 15:24:37 GMT-0500 (Central Daylight Time),608622.900000006,071_y_f_d_a.png,O,m,995,9,1,2008.5999999940395,606614.3000000119,7085,VNB,A,7
5,test,2,0.0,2-Back,1,m,Mon Mar 17 2025 15:24:37 GMT-0500 (Central Daylight Time),610355.8000000119,109_y_m_d_a.png,O,m,706,10,1,1726.300000011921,608629.5,7085,VNB,A,8
5,test,2,0.0,2-Back,0,m,Mon Mar 17 2025 15:24:37 GMT-0500 (Central Daylight Time),612271.8000000119,165_m_m_n_a.png,O,z,887,11,1,1909.4000000059605,610362.400000006,7085,VNB,A,9
5,test,2,0.0,2-Back,0,m,Mon Mar 17 2025 15:24:37 GMT-0500 (Central Daylight Time),614271.2000000179,139_m_f_h_a.png,O,z,970,12,1,1992.800000011921,612278.400000006,7085,VNB,A,10
5,test,2,1.0,2-Back,0,z,Mon Mar 17 2025 15:24:37 GMT-0500 (Central Daylight Time),616220.599999994,039_o_m_n_a.png,O,m,923,13,1,1942.5,614278.099999994,7085,VNB,A,11
5,test,2,0.0,2-Back,0,m,Mon Mar 17 2025 15:24:37 GMT-0500 (Central Daylight Time),618236.599999994,124_o_f_d_a.png,O,z,990,14,1,2009.2999999821186,616227.3000000119,7085,VNB,A,12
6,test,2,0.0,2-Back,1,m,Mon Mar 17 2025 15:24:37 GMT-0500 (Central Daylight Time),620286.099999994,071_y_f_h_a.png,O,m,1022,15,1,2042.699999988079,618243.400000006,7085,VNB,A,13
7,test,2,0.0,2-Back,1,z,Mon Mar 17 2025 15:24:37 GMT-0500 (Central Daylight Time),622018.7000000179,165_m_m_d_a.png,O,z,700,16,1,1726.1000000238419,620292.599999994,7085,VNB,A,14
8,test,2,0.0,2-Back,1,m,Mon Mar 17 2025 15:24:37 GMT-0500 (Central Daylight Time),624084.900000006,109_y_m_n_a.png,O,m,1048,17,1,2059.4000000059605,622025.5,7085,VNB,A,15
8,test,2,1.0,2-Back,0,m,Mon Mar 17 2025 15:24:37 GMT-0500 (Central Daylight Time),626084.099999994,139_m_f_n_a.png,O,z,973,18,1,1992.5,624091.599999994,7085,VNB,A,16
0,test,3,1.0,2-Back,,,Mon Mar 17 2025 15:24:37 GMT-0500 (Central Daylight Time),626084.099999994,039_o_m_n_a.png,O,space,1518,1,1,1992.5,624091.599999994,7085,VNB,A,0
0,test,3,1.0,2-Back,,,Mon Mar 17 2025 15:24:37 GMT-0500 (Central Daylight Time),626084.099999994,124_o_f_d_a.png,O,space,1518,2,1,1992.5,624091.599999994,7085,VNB,A,0
0,test,3,0.0,2-Back,0,m,Mon Mar 17 2025 15:24:37 GMT-0500 (Central Daylight Time),634464.900000006,071_y_f_h_a.png,O,z,768,3,1,1793.4000000059605,632671.5,7085,VNB,A,1
0,test,3,0.0,2-Back,0,z,Mon Mar 17 2025 15:24:37 GMT-0500 (Central Daylight Time),636364.3000000119,139_m_f_d_a.png,O,m,881,4,1,1892.9000000059605,634471.400000006,7085,VNB,A,2
0,test,3,1.0,2-Back,0,m,Mon Mar 17 2025 15:24:37 GMT-0500 (Central Daylight Time),638480.2000000179,109_y_m_n_a.png,O,z,1094,5,1,2109.7000000178814,636370.5,7085,VNB,A,3
0,test,3,0.0,2-Back,0,m,Mon Mar 17 2025 15:24:37 GMT-0500 (Central Daylight Time),640479.7000000179,039_o_m_h_a.png,O,z,970,6,1,1992.7000000178814,638487.0,7085,VNB,A,4
0,test,3,0.0,2-Back,0,z,Mon Mar 17 2025 15:24:37 GMT-0500 (Central Daylight Time),642146.0,071_y_f_n_a.png,O,m,642,7,1,1658.9000000059605,640487.099999994,7085,VNB,A,5
1,test,3,1.0,2-Back,1,m,Mon Mar 17 2025 15:24:37 GMT-0500 (Central Daylight Time),643995.3000000119,165_m_m_d_a.png,O,m,816,8,1,1842.0999999940395,642153.2000000179,7085,VNB,A,6
1,test,3,0.0,2-Back,0,m,Mon Mar 17 2025 15:24:37 GMT-0500 (Central Daylight Time),646227.599999994,109_y_m_d_a.png,O,z,1215,9,1,2224.5999999940395,644003.0,7085,VNB,A,7
1,test,3,0.0,2-Back,0,m,Mon Mar 17 2025 15:24:37 GMT-0500 (Central Daylight Time),648160.7000000179,124_o_f_h_a.png,O,z,910,10,1,1926.2000000178814,646234.5,7085,VNB,A,8
2,test,3,1.0,2-Back,1,m,Mon Mar 17 2025 15:24:37 GMT-0500 (Central Daylight Time),650143.3000000119,139_m_f_n_a.png,O,m,951,11,1,1975.0999999940395,648168.2000000179,7085,VNB,A,9
2,test,3,1.0,2-Back,0,z,Mon Mar 17 2025 15:24:37 GMT-0500 (Central Daylight Time),652125.8000000119,165_m_m_h_a.png,O,m,963,12,1,1975.7000000178814,650150.099999994,7085,VNB,A,10
2,test,3,0.0,2-Back,0,m,Mon Mar 17 2025 15:24:37 GMT-0500 (Central Daylight Time),654108.400000006,071_y_f_d_a.png,O,z,964,13,1,1975.800000011921,652132.599999994,7085,VNB,A,11
3,test,3,0.0,2-Back,1,m,Mon Mar 17 2025 15:24:37 GMT-0500 (Central Daylight Time),655908.2000000179,124_o_f_n_a.png,O,m,782,14,1,1793.1000000238419,654115.099999994,7085,VNB,A,12
3,test,3,0.0,2-Back,0,z,Mon Mar 17 2025 15:24:37 GMT-0500 (Central Daylight Time),657874.3000000119,039_o_m_d_a.png,O,m,942,15,1,1959.0999999940395,655915.2000000179,7085,VNB,A,13
3,test,3,1.0,2-Back,0,m,Mon Mar 17 2025 15:24:37 GMT-0500 (Central Daylight Time),659790.2000000179,139_m_f_h_a.png,O,z,888,16,1,1909.4000000059605,657880.8000000119,7085,VNB,A,14
4,test,3,0.0,2-Back,1,m,Mon Mar 17 2025 15:24:37 GMT-0500 (Central Daylight Time),661756.3000000119,165_m_m_n_a.png,O,m,948,17,1,1959.2000000178814,659797.099999994,7085,VNB,A,15
5,test,3,0.0,2-Back,1,z,Mon Mar 17 2025 15:24:37 GMT-0500 (Central Daylight Time),663639.099999994,109_y_m_h_a.png,O,z,853,18,1,1875.7999999821186,661763.3000000119,7085,VNB,A,16
0,test,4,0.0,2-Back,,,Mon Mar 17 2025 15:24:37 GMT-0500 (Central Daylight Time),663639.099999994,139_m_f_n_a.png,O,space,1171,1,1,1875.7999999821186,661763.3000000119,7085,VNB,A,0
0,test,4,0.0,2-Back,,,Mon Mar 17 2025 15:24:37 GMT-0500 (Central Daylight Time),663639.099999994,039_o_m_n_a.png,O,space,1171,2,1,1875.7999999821186,661763.3000000119,7085,VNB,A,0
1,test,4,1.0,2-Back,1,m,Mon Mar 17 2025 15:24:37 GMT-0500 (Central Daylight Time),671886.599999994,109_y_m_h_a.png,O,m,954,3,1,1976.3999999761581,669910.2000000179,7085,VNB,A,1
2,test,4,1.0,2-Back,1,m,Mon Mar 17 2025 15:24:37 GMT-0500 (Central Daylight Time),674652.2000000179,124_o_f_d_a.png,O,m,1740,4,1,2758.9000000059605,671893.3000000119,7085,VNB,A,2
3,test,4,0.0,2-Back,1,z,Mon Mar 17 2025 15:24:37 GMT-0500 (Central Daylight Time),676335.099999994,039_o_m_h_a.png,O,z,662,5,1,1676.5999999940395,674658.5,7085,VNB,A,3
4,test,4,0.0,2-Back,1,m,Mon Mar 17 2025 15:24:37 GMT-0500 (Central Daylight Time),678170.7000000179,165_m_m_n_a.png,O,m,802,6,1,1829.0,676341.7000000179,7085,VNB,A,4
5,test,4,0.0,2-Back,1,m,Mon Mar 17 2025 15:24:37 GMT-0500 (Central Daylight Time),680100.599999994,139_m_f_d_a.png,O,m,906,7,1,1922.8999999761581,678177.7000000179,7085,VNB,A,5
5,test,4,0.0,2-Back,0,z,Mon Mar 17 2025 15:24:37 GMT-0500 (Central Daylight Time),681883.099999994,071_y_f_n_a.png,O,m,765,8,1,1775.7999999821186,680107.3000000119,7085,VNB,A,6
5,test,4,1.0,2-Back,0,m,Mon Mar 17 2025 15:24:37 GMT-0500 (Central Daylight Time),683700.599999994,124_o_f_h_a.png,O,z,799,9,1,1810.8999999761581,681889.7000000179,7085,VNB,A,7
5,test,4,0.0,2-Back,0,m,Mon Mar 17 2025 15:24:37 GMT-0500 (Central Daylight Time),685582.2000000179,165_m_m_h_a.png,O,z,863,10,1,1875.0,683707.2000000179,7085,VNB,A,8
6,test,4,0.0,2-Back,1,m,Mon Mar 17 2025 15:24:37 GMT-0500 (Central Daylight Time),687415.0,071_y_f_d_a.png,O,m,804,11,1,1826.0999999940395,685588.900000006,7085,VNB,A,9
7,test,4,0.0,2-Back,1,m,Mon Mar 17 2025 15:24:37 GMT-0500 (Central Daylight Time),689214.3000000119,109_y_m_n_a.png,O,m,779,12,1,1791.7000000178814,687422.599999994,7085,VNB,A,10
8,test,4,0.0,2-Back,1,z,Mon Mar 17 2025 15:24:37 GMT-0500 (Central Daylight Time),691080.7000000179,039_o_m_d_a.png,O,z,844,13,1,1859.7000000178814,689221.0,7085,VNB,A,11
9,test,4,1.0,2-Back,1,m,Mon Mar 17 2025 15:24:37 GMT-0500 (Central Daylight Time),692779.900000006,139_m_f_h_a.png,O,m,673,14,1,1692.699999988079,691087.2000000179,7085,VNB,A,12
9,test,4,1.0,2-Back,0,m,Mon Mar 17 2025 15:24:37 GMT-0500 (Central Daylight Time),694729.400000006,071_y_f_h_a.png,O,z,926,15,1,1942.5999999940395,692786.8000000119,7085,VNB,A,13
10,test,4,0.0,2-Back,1,m,Mon Mar 17 2025 15:24:37 GMT-0500 (Central Daylight Time),696545.3000000119,124_o_f_n_a.png,O,m,785,16,1,1809.0999999940395,694736.2000000179,7085,VNB,A,14
11,test,4,0.0,2-Back,1,m,Mon Mar 17 2025 15:24:37 GMT-0500 (Central Daylight Time),699227.8000000119,109_y_m_d_a.png,O,m,1665,17,1,2675.9000000059605,696551.900000006,7085,VNB,A,15
12,test,4,1.0,2-Back,1,m,Mon Mar 17 2025 15:24:37 GMT-0500 (Central Daylight Time),701077.3000000119,165_m_m_d_a.png,O,m,822,18,1,1842.800000011921,699234.5,7085,VNB,A,16
0,test,5,1.0,2-Back,,,Mon Mar 17 2025 15:24:37 GMT-0500 (Central Daylight Time),701077.3000000119,071_y_f_d_a.png,O,space,1349,1,1,1842.800000011921,699234.5,7085,VNB,A,0
0,test,5,1.0,2-Back,,,Mon Mar 17 2025 15:24:37 GMT-0500 (Central Daylight Time),701077.3000000119,124_o_f_h_a.png,O,space,1349,2,1,1842.800000011921,699234.5,7085,VNB,A,0
0,test,5,1.0,2-Back,0,z,Mon Mar 17 2025 15:24:37 GMT-0500 (Central Daylight Time),709324.5,039_o_m_d_a.png,O,m,781,3,1,1792.9000000059605,707531.599999994,7085,VNB,A,1
1,test,5,1.0,2-Back,1,m,Mon Mar 17 2025 15:24:37 GMT-0500 (Central Daylight Time),710990.900000006,139_m_f_n_a.png,O,m,645,4,1,1659.4000000059605,709331.5,7085,VNB,A,2
1,test,5,0.0,2-Back,0,m,Mon Mar 17 2025 15:24:37 GMT-0500 (Central Daylight Time),712706.8000000119,165_m_m_h_a.png,O,z,691,5,1,1708.7000000178814,710998.099999994,7085,VNB,A,3
1,test,5,0.0,2-Back,0,z,Mon Mar 17 2025 15:24:37 GMT-0500 (Central Daylight Time),714440.0,071_y_f_n_a.png,O,m,702,6,1,1726.4000000059605,712713.599999994,7085,VNB,A,4
2,test,5,0.0,2-Back,1,m,Mon Mar 17 2025 15:24:37 GMT-0500 (Central Daylight Time),716372.400000006,124_o_f_d_a.png,O,m,914,7,1,1925.699999988079,714446.7000000179,7085,VNB,A,5
3,test,5,0.0,2-Back,1,m,Mon Mar 17 2025 15:24:37 GMT-0500 (Central Daylight Time),718138.599999994,039_o_m_h_a.png,O,m,742,8,1,1759.5999999940395,716379.0,7085,VNB,A,6
3,test,5,1.0,2-Back,0,z,Mon Mar 17 2025 15:24:37 GMT-0500 (Central Daylight Time),719922.599999994,139_m_f_d_a.png,O,m,759,9,1,1777.199999988079,718145.400000006,7085,VNB,A,7
4,test,5,0.0,2-Back,1,m,Mon Mar 17 2025 15:24:37 GMT-0500 (Central Daylight Time),721954.099999994,109_y_m_n_a.png,O,m,1007,10,1,2024.5999999940395,719929.5,7085,VNB,A,8
5,test,5,0.0,2-Back,1,m,Mon Mar 17 2025 15:24:37 GMT-0500 (Central Daylight Time),723636.900000006,165_m_m_n_a.png,O,m,664,11,1,1676.300000011921,721960.599999994,7085,VNB,A,9
6,test,5,0.0,2-Back,1,m,Mon Mar 17 2025 15:24:37 GMT-0500 (Central Daylight Time),725603.3000000119,071_y_f_h_a.png,O,m,949,12,1,1958.0999999940395,723645.2000000179,7085,VNB,A,10
6,test,5,0.0,2-Back,0,m,Mon Mar 17 2025 15:24:37 GMT-0500 (Central Daylight Time),727485.900000006,109_y_m_d_a.png,O,z,863,13,1,1875.5999999940395,725610.3000000119,7085,VNB,A,11
6,test,5,1.0,2-Back,0,z,Mon Mar 17 2025 15:24:37 GMT-0500 (Central Daylight Time),729252.0,139_m_f_h_a.png,O,m,740,14,1,1759.199999988079,727492.8000000119,7085,VNB,A,12
6,test,5,0.0,2-Back,0,m,Mon Mar 17 2025 15:24:37 GMT-0500 (Central Daylight Time),731034.8000000119,039_o_m_n_a.png,O,z,750,15,1,1776.2000000178814,729258.599999994,7085,VNB,A,13
7,test,5,0.0,2-Back,1,m,Mon Mar 17 2025 15:24:37 GMT-0500 (Central Daylight Time),733034.2000000179,165_m_m_d_a.png,O,m,968,16,1,1992.2000000178814,731042.0,7085,VNB,A,14
8,test,5,0.0,2-Back,1,z,Mon Mar 17 2025 15:24:37 GMT-0500 (Central Daylight Time),734850.400000006,124_o_f_n_a.png,O,z,783,17,1,1809.300000011921,733041.099999994,7085,VNB,A,15
9,test,5,1.0,2-Back,1,m,Mon Mar 17 2025 15:24:37 GMT-0500 (Central Daylight Time),736599.5,109_y_m_h_a.png,O,m,728,18,1,1742.5999999940395,734856.900000006,7085,VNB,A,16
