block_c,block_dur,condition,countdown,datetime,endtime,list,multichar_response,project,response,response_time,session_number,start_end,starttime,subject_id,task,task_vers,trial
,,,,Thu Apr 10 2025 11:06:07 GMT-0500 (Central Daylight Time),,,,O,space,418,1,,,7090,WL,C,
prac,,0,,Thu Apr 10 2025 11:06:07 GMT-0500 (Central Daylight Time),,NA,b,O,b,7466,1,,,7090,WL,C,1.0
prac,,0,,Thu Apr 10 2025 11:06:07 GMT-0500 (Central Daylight Time),,NA,bo,O,o,425,1,,,7090,WL,C,1.0
prac,,0,,Thu Apr 10 2025 11:06:07 GMT-0500 (Central Daylight Time),,NA,boo,O,o,248,1,,,7090,WL,C,1.0
prac,,0,,Thu Apr 10 2025 11:06:07 GMT-0500 (Central Daylight Time),,NA,boos,O,s,346,1,,,7090,WL,C,1.0
prac,,0,,Thu Apr 10 2025 11:06:07 GMT-0500 (Central Daylight Time),,NA,boost,O,t,406,1,,,7090,WL,C,1.0
prac,,0,,Thu Apr 10 2025 11:06:07 GMT-0500 (Central Daylight Time),,NA,boostenter,O,enter,1019,1,,,7090,WL,C,1.0
1,2.9830000400543213,learn,57016.99995994568,Thu Apr 10 2025 11:06:07 GMT-0500 (Central Daylight Time),132552.39999997616,A,t,O,t,2937,1,2981.5,129570.89999997616,7090,WL,C,1.0
1,3.3980000019073486,learn,56601.99999809265,Thu Apr 10 2025 11:06:07 GMT-0500 (Central Daylight Time),132967.70000004768,A,to,O,o,374,1,3396.8000000715256,129570.89999997616,7090,WL,C,1.0
1,3.680999994277954,learn,56319.000005722046,Thu Apr 10 2025 11:06:07 GMT-0500 (Central Daylight Time),133250.70000004768,A,tow,O,w,273,1,3679.8000000715256,129570.89999997616,7090,WL,C,1.0
1,3.9140000343322754,learn,56085.999965667725,Thu Apr 10 2025 11:06:07 GMT-0500 (Central Daylight Time),133483.89999997616,A,towe,O,e,216,1,3913.0,129570.89999997616,7090,WL,C,1.0
1,4.398000001907349,learn,55601.99999809265,Thu Apr 10 2025 11:06:07 GMT-0500 (Central Daylight Time),133967.10000002384,A,tower,O,r,470,1,4396.200000047684,129570.89999997616,7090,WL,C,1.0
1,5.564000129699707,learn,54435.99987030029,Thu Apr 10 2025 11:06:07 GMT-0500 (Central Daylight Time),135133.29999995232,A,towerenter,O,enter,1147,1,5562.399999976158,129570.89999997616,7090,WL,C,1.0
1,6.731000185012817,learn,53268.99981498718,Thu Apr 10 2025 11:06:07 GMT-0500 (Central Daylight Time),136300.0,A,w,O,w,1151,1,1166.2000000476837,135133.79999995232,7090,WL,C,2.0
1,7.197999954223633,learn,52802.00004577637,Thu Apr 10 2025 11:06:07 GMT-0500 (Central Daylight Time),136767.10000002384,A,wh,O,h,437,1,1633.3000000715256,135133.79999995232,7090,WL,C,2.0
1,7.63100004196167,learn,52368.99995803833,Thu Apr 10 2025 11:06:07 GMT-0500 (Central Daylight Time),137200.10000002384,A,whe,O,e,400,1,2066.3000000715256,135133.79999995232,7090,WL,C,2.0
1,7.897000074386597,learn,52102.9999256134,Thu Apr 10 2025 11:06:07 GMT-0500 (Central Daylight Time),137466.70000004768,A,whea,O,a,236,1,2332.9000000953674,135133.79999995232,7090,WL,C,2.0
1,8.414000034332275,learn,51585.999965667725,Thu Apr 10 2025 11:06:07 GMT-0500 (Central Daylight Time),137983.5,A,wheat,O,t,485,1,2849.7000000476837,135133.79999995232,7090,WL,C,2.0
1,9.097000122070312,learn,50902.99987792969,Thu Apr 10 2025 11:06:07 GMT-0500 (Central Daylight Time),138666.60000002384,A,wheatenter,O,enter,650,1,3532.8000000715256,135133.79999995232,7090,WL,C,2.0
1,10.246999979019165,learn,49753.000020980835,Thu Apr 10 2025 11:06:07 GMT-0500 (Central Daylight Time),139816.39999997616,A,q,O,q,1137,1,1149.3999999761581,138667.0,7090,WL,C,3.0
1,10.680000066757202,learn,49319.9999332428,Thu Apr 10 2025 11:06:07 GMT-0500 (Central Daylight Time),140249.10000002384,A,qu,O,u,398,1,1582.1000000238419,138667.0,7090,WL,C,3.0
1,11.013000011444092,learn,48986.99998855591,Thu Apr 10 2025 11:06:07 GMT-0500 (Central Daylight Time),140582.5,A,que,O,e,300,1,1915.5,138667.0,7090,WL,C,3.0
1,11.328999996185303,learn,48671.0000038147,Thu Apr 10 2025 11:06:07 GMT-0500 (Central Daylight Time),140898.29999995232,A,quee,O,e,279,1,2231.2999999523163,138667.0,7090,WL,C,3.0
1,11.812999963760376,learn,48187.000036239624,Thu Apr 10 2025 11:06:07 GMT-0500 (Central Daylight Time),141382.20000004768,A,queen,O,n,462,1,2715.2000000476837,138667.0,7090,WL,C,3.0
1,12.462000131607056,learn,47537.999868392944,Thu Apr 10 2025 11:06:07 GMT-0500 (Central Daylight Time),142031.20000004768,A,queenenter,O,enter,616,1,3364.2000000476837,138667.0,7090,WL,C,3.0
1,13.545000076293945,learn,46454.999923706055,Thu Apr 10 2025 11:06:07 GMT-0500 (Central Daylight Time),143114.0,A,s,O,s,1067,1,1082.5,142031.5,7090,WL,C,4.0
1,13.945000171661377,learn,46054.99982833862,Thu Apr 10 2025 11:06:07 GMT-0500 (Central Daylight Time),143514.0,A,su,O,u,377,1,1482.5,142031.5,7090,WL,C,4.0
1,14.460999965667725,learn,45539.000034332275,Thu Apr 10 2025 11:06:07 GMT-0500 (Central Daylight Time),144030.39999997616,A,sug,O,g,505,1,1998.8999999761581,142031.5,7090,WL,C,4.0
1,14.778000116348267,learn,45221.99988365173,Thu Apr 10 2025 11:06:07 GMT-0500 (Central Daylight Time),144347.0,A,suga,O,a,292,1,2315.5,142031.5,7090,WL,C,4.0
1,15.377000093460083,learn,44622.99990653992,Thu Apr 10 2025 11:06:07 GMT-0500 (Central Daylight Time),144946.70000004768,A,sugar,O,r,584,1,2915.2000000476837,142031.5,7090,WL,C,4.0
1,16.127000093460083,learn,43872.99990653992,Thu Apr 10 2025 11:06:07 GMT-0500 (Central Daylight Time),145696.60000002384,A,sugarenter,O,enter,728,1,3665.100000023842,142031.5,7090,WL,C,4.0
1,17.628000020980835,learn,42371.999979019165,Thu Apr 10 2025 11:06:07 GMT-0500 (Central Daylight Time),147197.0,A,h,O,h,1484,1,1500.0,145697.0,7090,WL,C,5.0
1,18.044000148773193,learn,41955.99985122681,Thu Apr 10 2025 11:06:07 GMT-0500 (Central Daylight Time),147613.0,A,ho,O,o,376,1,1916.0,145697.0,7090,WL,C,5.0
1,18.460999965667725,learn,41539.000034332275,Thu Apr 10 2025 11:06:07 GMT-0500 (Central Daylight Time),148030.10000002384,A,hom,O,m,388,1,2333.100000023842,145697.0,7090,WL,C,5.0
1,18.960000038146973,learn,41039.99996185303,Thu Apr 10 2025 11:06:07 GMT-0500 (Central Daylight Time),148529.79999995232,A,home,O,e,468,1,2832.7999999523163,145697.0,7090,WL,C,5.0
1,19.509999990463257,learn,40490.00000953674,Thu Apr 10 2025 11:06:07 GMT-0500 (Central Daylight Time),149079.29999995232,A,homeenter,O,enter,509,1,3382.2999999523163,145697.0,7090,WL,C,5.0
1,20.526000022888184,learn,39473.99997711182,Thu Apr 10 2025 11:06:07 GMT-0500 (Central Daylight Time),150095.89999997616,A,b,O,b,1006,1,1016.0,149079.89999997616,7090,WL,C,6.0
1,21.111999988555908,learn,38888.00001144409,Thu Apr 10 2025 11:06:07 GMT-0500 (Central Daylight Time),150681.5,A,bo,O,o,547,1,1601.6000000238419,149079.89999997616,7090,WL,C,6.0
1,22.009000062942505,learn,37990.999937057495,Thu Apr 10 2025 11:06:07 GMT-0500 (Central Daylight Time),151578.89999997616,A,boy,O,y,883,1,2499.0,149079.89999997616,7090,WL,C,6.0
1,22.842000007629395,learn,37157.999992370605,Thu Apr 10 2025 11:06:07 GMT-0500 (Central Daylight Time),152411.0,A,boyenter,O,enter,796,1,3331.100000023842,149079.89999997616,7090,WL,C,6.0
1,24.258000135421753,learn,35741.99986457825,Thu Apr 10 2025 11:06:07 GMT-0500 (Central Daylight Time),153827.20000004768,A,f,O,f,1409,1,1415.9000000953674,152411.29999995232,7090,WL,C,7.0
1,24.77400016784668,learn,35225.99983215332,Thu Apr 10 2025 11:06:07 GMT-0500 (Central Daylight Time),154343.79999995232,A,fl,O,l,495,1,1932.5,152411.29999995232,7090,WL,C,7.0
1,25.10700011253357,learn,34892.99988746643,Thu Apr 10 2025 11:06:07 GMT-0500 (Central Daylight Time),154676.79999995232,A,fla,O,a,323,1,2265.5,152411.29999995232,7090,WL,C,7.0
1,26.02500009536743,learn,33974.99990463257,Thu Apr 10 2025 11:06:07 GMT-0500 (Central Daylight Time),155594.39999997616,A,flag,O,g,901,1,3183.100000023842,152411.29999995232,7090,WL,C,7.0
1,27.506999969482422,learn,32493.000030517578,Thu Apr 10 2025 11:06:07 GMT-0500 (Central Daylight Time),157076.20000004768,A,flagenter,O,enter,1454,1,4664.900000095367,152411.29999995232,7090,WL,C,7.0
1,34.50600004196167,learn,25493.99995803833,Thu Apr 10 2025 11:06:07 GMT-0500 (Central Daylight Time),164075.39999997616,A,enter,O,enter,6984,1,6998.899999976158,157076.5,7090,WL,C,8.0
1,39.236000061035156,learn,20763.999938964844,Thu Apr 10 2025 11:06:07 GMT-0500 (Central Daylight Time),168805.70000004768,A,enter,O,enter,4712,1,4729.900000095367,164075.79999995232,7090,WL,C,9.0
1,39.73699998855591,learn,20263.00001144409,Thu Apr 10 2025 11:06:07 GMT-0500 (Central Daylight Time),169306.60000002384,A,enter,O,enter,479,1,500.39999997615814,168806.20000004768,7090,WL,C,10.0
1,40.253000020980835,learn,19746.999979019165,Thu Apr 10 2025 11:06:07 GMT-0500 (Central Daylight Time),169822.29999995232,A,enter,O,enter,506,1,515.2999999523163,169307.0,7090,WL,C,11.0
1,40.70300006866455,learn,19296.99993133545,Thu Apr 10 2025 11:06:07 GMT-0500 (Central Daylight Time),170272.0,A,enter,O,enter,430,1,449.39999997615814,169822.60000002384,7090,WL,C,12.0
1,41.13600015640259,learn,18863.999843597412,Thu Apr 10 2025 11:06:07 GMT-0500 (Central Daylight Time),170705.20000004768,A,enter,O,enter,413,1,432.7000000476837,170272.5,7090,WL,C,13.0
1,41.55200004577637,learn,18447.999954223633,Thu Apr 10 2025 11:06:07 GMT-0500 (Central Daylight Time),171121.60000002384,A,enter,O,enter,403,1,416.10000002384186,170705.5,7090,WL,C,14.0
1,41.986000061035156,learn,18013.999938964844,Thu Apr 10 2025 11:06:07 GMT-0500 (Central Daylight Time),171555.29999995232,A,enter,O,enter,411,1,433.2999999523163,171122.0,7090,WL,C,15.0
2,2.1659998893737793,learn,57834.00011062622,Thu Apr 10 2025 11:06:07 GMT-0500 (Central Daylight Time),244465.10000002384,A,t,O,t,2126,1,2165.399999976158,242299.70000004768,7090,WL,C,1.0
2,2.6499998569488525,learn,57350.00014305115,Thu Apr 10 2025 11:06:07 GMT-0500 (Central Daylight Time),244949.10000002384,A,to,O,o,456,1,2649.399999976158,242299.70000004768,7090,WL,C,1.0
2,3.0149998664855957,learn,56985.000133514404,Thu Apr 10 2025 11:06:07 GMT-0500 (Central Daylight Time),245314.79999995232,A,tow,O,w,333,1,3015.0999999046326,242299.70000004768,7090,WL,C,1.0
2,3.249000072479248,learn,56750.99992752075,Thu Apr 10 2025 11:06:07 GMT-0500 (Central Daylight Time),245548.20000004768,A,towe,O,e,198,1,3248.5,242299.70000004768,7090,WL,C,1.0
2,3.631999969482422,learn,56368.00003051758,Thu Apr 10 2025 11:06:07 GMT-0500 (Central Daylight Time),245931.29999995232,A,tower,O,r,353,1,3631.5999999046326,242299.70000004768,7090,WL,C,1.0
2,4.0309998989105225,learn,55969.00010108948,Thu Apr 10 2025 11:06:07 GMT-0500 (Central Daylight Time),246330.29999995232,A,towerenter,O,enter,357,1,4030.5999999046326,242299.70000004768,7090,WL,C,1.0
2,4.898000001907349,learn,55101.99999809265,Thu Apr 10 2025 11:06:07 GMT-0500 (Central Daylight Time),247197.5,A,w,O,w,859,1,866.8999999761581,246330.60000002384,7090,WL,C,2.0
2,5.315000057220459,learn,54684.99994277954,Thu Apr 10 2025 11:06:07 GMT-0500 (Central Daylight Time),247614.20000004768,A,wh,O,h,391,1,1283.6000000238419,246330.60000002384,7090,WL,C,2.0
2,5.664999961853027,learn,54335.00003814697,Thu Apr 10 2025 11:06:07 GMT-0500 (Central Daylight Time),247963.89999997616,A,whe,O,e,315,1,1633.2999999523163,246330.60000002384,7090,WL,C,2.0
2,5.898000001907349,learn,54101.99999809265,Thu Apr 10 2025 11:06:07 GMT-0500 (Central Daylight Time),248197.0,A,whea,O,a,204,1,1866.3999999761581,246330.60000002384,7090,WL,C,2.0
2,6.247999906539917,learn,53752.00009346008,Thu Apr 10 2025 11:06:07 GMT-0500 (Central Daylight Time),248546.79999995232,A,wheat,O,t,307,1,2216.1999999284744,246330.60000002384,7090,WL,C,2.0
2,6.664000034332275,learn,53335.999965667725,Thu Apr 10 2025 11:06:07 GMT-0500 (Central Daylight Time),248963.29999995232,A,wheatenter,O,enter,377,1,2632.6999999284744,246330.60000002384,7090,WL,C,2.0
2,7.730999946594238,learn,52269.00005340576,Thu Apr 10 2025 11:06:07 GMT-0500 (Central Daylight Time),250030.10000002384,A,q,O,q,1050,1,1066.5,248963.60000002384,7090,WL,C,3.0
2,8.080999851226807,learn,51919.00014877319,Thu Apr 10 2025 11:06:07 GMT-0500 (Central Daylight Time),250379.89999997616,A,qu,O,u,316,1,1416.2999999523163,248963.60000002384,7090,WL,C,3.0
2,8.379999876022339,learn,51620.00012397766,Thu Apr 10 2025 11:06:07 GMT-0500 (Central Daylight Time),250679.70000004768,A,que,O,e,270,1,1716.1000000238419,248963.60000002384,7090,WL,C,3.0
2,8.613999843597412,learn,51386.00015640259,Thu Apr 10 2025 11:06:07 GMT-0500 (Central Daylight Time),250913.0,A,quee,O,e,194,1,1949.3999999761581,248963.60000002384,7090,WL,C,3.0
2,9.52999997138977,learn,50470.00002861023,Thu Apr 10 2025 11:06:07 GMT-0500 (Central Daylight Time),251829.10000002384,A,queen,O,n,890,1,2865.5,248963.60000002384,7090,WL,C,3.0
2,10.029000043869019,learn,49970.99995613098,Thu Apr 10 2025 11:06:07 GMT-0500 (Central Daylight Time),252328.29999995232,A,queenenter,O,enter,460,1,3364.6999999284744,248963.60000002384,7090,WL,C,3.0
2,10.94599986076355,learn,49054.00013923645,Thu Apr 10 2025 11:06:07 GMT-0500 (Central Daylight Time),253245.39999997616,A,s,O,s,909,1,916.6999999284744,252328.70000004768,7090,WL,C,4.0
2,11.379999876022339,learn,48620.00012397766,Thu Apr 10 2025 11:06:07 GMT-0500 (Central Daylight Time),253678.79999995232,A,su,O,u,406,1,1350.0999999046326,252328.70000004768,7090,WL,C,4.0
2,11.796000003814697,learn,48203.9999961853,Thu Apr 10 2025 11:06:07 GMT-0500 (Central Daylight Time),254095.29999995232,A,sug,O,g,390,1,1766.5999999046326,252328.70000004768,7090,WL,C,4.0
2,12.128000020980835,learn,47871.999979019165,Thu Apr 10 2025 11:06:07 GMT-0500 (Central Daylight Time),254427.60000002384,A,suga,O,a,307,1,2098.899999976158,252328.70000004768,7090,WL,C,4.0
2,12.562000036239624,learn,47437.999963760376,Thu Apr 10 2025 11:06:07 GMT-0500 (Central Daylight Time),254861.39999997616,A,sugar,O,r,421,1,2532.6999999284744,252328.70000004768,7090,WL,C,4.0
2,12.994999885559082,learn,47005.00011444092,Thu Apr 10 2025 11:06:07 GMT-0500 (Central Daylight Time),255294.0,A,sugarenter,O,enter,395,1,2965.2999999523163,252328.70000004768,7090,WL,C,4.0
2,13.894999980926514,learn,46105.000019073486,Thu Apr 10 2025 11:06:07 GMT-0500 (Central Daylight Time),256194.70000004768,A,h,O,h,888,1,900.4000000953674,255294.29999995232,7090,WL,C,5.0
2,14.312000036239624,learn,45687.999963760376,Thu Apr 10 2025 11:06:07 GMT-0500 (Central Daylight Time),256611.10000002384,A,ho,O,o,383,1,1316.8000000715256,255294.29999995232,7090,WL,C,5.0
2,14.694999933242798,learn,45305.0000667572,Thu Apr 10 2025 11:06:07 GMT-0500 (Central Daylight Time),256994.29999995232,A,hom,O,m,343,1,1700.0,255294.29999995232,7090,WL,C,5.0
2,15.111999988555908,learn,44888.00001144409,Thu Apr 10 2025 11:06:07 GMT-0500 (Central Daylight Time),257410.79999995232,A,home,O,e,384,1,2116.5,255294.29999995232,7090,WL,C,5.0
2,15.527999877929688,learn,44472.00012207031,Thu Apr 10 2025 11:06:07 GMT-0500 (Central Daylight Time),257827.5,A,homeenter,O,enter,375,1,2533.2000000476837,255294.29999995232,7090,WL,C,5.0
2,16.16100001335144,learn,43838.99998664856,Thu Apr 10 2025 11:06:07 GMT-0500 (Central Daylight Time),258460.60000002384,A,b,O,b,618,1,632.8999999761581,257827.70000004768,7090,WL,C,6.0
2,17.01099991798401,learn,42989.00008201599,Thu Apr 10 2025 11:06:07 GMT-0500 (Central Daylight Time),259310.20000004768,A,bo,O,o,813,1,1482.5,257827.70000004768,7090,WL,C,6.0
2,18.47699999809265,learn,41523.00000190735,Thu Apr 10 2025 11:06:07 GMT-0500 (Central Daylight Time),260776.39999997616,A,boy,O,y,1428,1,2948.6999999284744,257827.70000004768,7090,WL,C,6.0
2,20.276000022888184,learn,39723.99997711182,Thu Apr 10 2025 11:06:07 GMT-0500 (Central Daylight Time),262575.0,A,boyenter,O,enter,1760,1,4747.299999952316,257827.70000004768,7090,WL,C,6.0
2,28.141000032424927,learn,31858.999967575073,Thu Apr 10 2025 11:06:07 GMT-0500 (Central Daylight Time),270439.89999997616,A,c,O,c,7846,1,7864.699999928474,262575.2000000477,7090,WL,C,7.0
2,28.372999906539917,learn,31627.000093460083,Thu Apr 10 2025 11:06:07 GMT-0500 (Central Daylight Time),270672.60000002384,A,ca,O,a,200,1,8097.399999976158,262575.2000000477,7090,WL,C,7.0
2,28.707000017166138,learn,31292.999982833862,Thu Apr 10 2025 11:06:07 GMT-0500 (Central Daylight Time),271006.2999999523,A,cat,O,t,316,1,8431.099999904633,262575.2000000477,7090,WL,C,7.0
2,28.889999866485596,learn,31110.000133514404,Thu Apr 10 2025 11:06:07 GMT-0500 (Central Daylight Time),271189.2999999523,A,catt,O,t,154,1,8614.099999904633,262575.2000000477,7090,WL,C,7.0
2,29.506999969482422,learn,30493.000030517578,Thu Apr 10 2025 11:06:07 GMT-0500 (Central Daylight Time),271806.10000002384,A,cattl,O,l,589,1,9230.899999976158,262575.2000000477,7090,WL,C,7.0
2,29.9229998588562,learn,30077.0001411438,Thu Apr 10 2025 11:06:07 GMT-0500 (Central Daylight Time),272222.7000000477,A,cattle,O,e,387,1,9647.5,262575.2000000477,7090,WL,C,7.0
2,30.305999994277954,learn,29694.000005722046,Thu Apr 10 2025 11:06:07 GMT-0500 (Central Daylight Time),272605.0,A,cattleenter,O,enter,354,1,10029.799999952316,262575.2000000477,7090,WL,C,7.0
2,30.872999906539917,learn,29127.000093460083,Thu Apr 10 2025 11:06:07 GMT-0500 (Central Daylight Time),273172.2000000477,A,s,O,s,545,1,566.9000000953674,272605.2999999523,7090,WL,C,8.0
2,31.122999906539917,learn,28877.000093460083,Thu Apr 10 2025 11:06:07 GMT-0500 (Central Daylight Time),273422.2999999523,A,sh,O,h,214,1,817.0,272605.2999999523,7090,WL,C,8.0
2,31.405999898910522,learn,28594.000101089478,Thu Apr 10 2025 11:06:07 GMT-0500 (Central Daylight Time),273705.39999997616,A,sho,O,o,252,1,1100.1000000238419,272605.2999999523,7090,WL,C,8.0
2,31.6729998588562,learn,28327.0001411438,Thu Apr 10 2025 11:06:07 GMT-0500 (Central Daylight Time),273971.89999997616,A,shor,O,r,233,1,1366.6000000238419,272605.2999999523,7090,WL,C,8.0
2,32.08899998664856,learn,27911.00001335144,Thu Apr 10 2025 11:06:07 GMT-0500 (Central Daylight Time),274388.60000002384,A,shore,O,e,375,1,1783.3000000715256,272605.2999999523,7090,WL,C,8.0
2,32.605000019073486,learn,27394.999980926514,Thu Apr 10 2025 11:06:07 GMT-0500 (Central Daylight Time),274904.2000000477,A,shoreenter,O,enter,477,1,2298.9000000953674,272605.2999999523,7090,WL,C,8.0
2,33.52199983596802,learn,26478.000164031982,Thu Apr 10 2025 11:06:07 GMT-0500 (Central Daylight Time),275821.2999999523,A,c,O,c,901,1,916.7999999523163,274904.5,7090,WL,C,9.0
2,33.83899998664856,learn,26161.00001335144,Thu Apr 10 2025 11:06:07 GMT-0500 (Central Daylight Time),276137.89999997616,A,ca,O,a,285,1,1233.3999999761581,274904.5,7090,WL,C,9.0
2,34.138999938964844,learn,25861.000061035156,Thu Apr 10 2025 11:06:07 GMT-0500 (Central Daylight Time),276438.2000000477,A,cam,O,m,264,1,1533.7000000476837,274904.5,7090,WL,C,9.0
2,35.07200002670288,learn,24927.99997329712,Thu Apr 10 2025 11:06:07 GMT-0500 (Central Daylight Time),277371.0,A,camp,O,p,900,1,2466.5,274904.5,7090,WL,C,9.0
2,35.7039999961853,learn,24296.000003814697,Thu Apr 10 2025 11:06:07 GMT-0500 (Central Daylight Time),278003.2999999523,A,campenter,O,enter,590,1,3098.7999999523163,274904.5,7090,WL,C,9.0
2,36.61999988555908,learn,23380.000114440918,Thu Apr 10 2025 11:06:07 GMT-0500 (Central Daylight Time),278919.89999997616,A,l,O,l,905,1,916.3999999761581,278003.5,7090,WL,C,10.0
2,36.90400004386902,learn,23095.99995613098,Thu Apr 10 2025 11:06:07 GMT-0500 (Central Daylight Time),279203.39999997616,A,le,O,e,268,1,1199.8999999761581,278003.5,7090,WL,C,10.0
2,37.270999908447266,learn,22729.000091552734,Thu Apr 10 2025 11:06:07 GMT-0500 (Central Daylight Time),279570.0,A,let,O,t,336,1,1566.5,278003.5,7090,WL,C,10.0
2,37.47099995613098,learn,22529.00004386902,Thu Apr 10 2025 11:06:07 GMT-0500 (Central Daylight Time),279770.39999997616,A,lett,O,t,165,1,1766.8999999761581,278003.5,7090,WL,C,10.0
2,37.82099986076355,learn,22179.00013923645,Thu Apr 10 2025 11:06:07 GMT-0500 (Central Daylight Time),280120.0,A,lette,O,e,319,1,2116.5,278003.5,7090,WL,C,10.0
2,38.12100005149841,learn,21878.999948501587,Thu Apr 10 2025 11:06:07 GMT-0500 (Central Daylight Time),280420.10000002384,A,letter,O,r,259,1,2416.600000023842,278003.5,7090,WL,C,10.0
2,39.47099995613098,learn,20529.00004386902,Thu Apr 10 2025 11:06:07 GMT-0500 (Central Daylight Time),281769.7999999523,A,letterenter,O,enter,1309,1,3766.2999999523163,278003.5,7090,WL,C,10.0
2,53.181999921798706,learn,6818.000078201294,Thu Apr 10 2025 11:06:07 GMT-0500 (Central Daylight Time),295480.7999999523,A,enter,O,enter,13691,1,13710.699999928474,281770.10000002384,7090,WL,C,11.0
2,53.81599998474121,learn,6184.000015258789,Thu Apr 10 2025 11:06:07 GMT-0500 (Central Daylight Time),296114.7999999523,A,enter,O,enter,612,1,633.6999999284744,295481.10000002384,7090,WL,C,12.0
2,54.24799990653992,learn,5752.000093460083,Thu Apr 10 2025 11:06:07 GMT-0500 (Central Daylight Time),296547.60000002384,A,enter,O,enter,409,1,432.39999997615814,296115.2000000477,7090,WL,C,13.0
2,54.73199987411499,learn,5268.00012588501,Thu Apr 10 2025 11:06:07 GMT-0500 (Central Daylight Time),297030.2999999523,A,enter,O,enter,465,1,482.39999997615814,296547.89999997616,7090,WL,C,14.0
2,55.21599984169006,learn,4784.0001583099365,Thu Apr 10 2025 11:06:07 GMT-0500 (Central Daylight Time),297514.2000000477,A,enter,O,enter,470,1,483.60000002384186,297030.60000002384,7090,WL,C,15.0
3,2.3489999771118164,learn,57651.00002288818,Thu Apr 10 2025 11:06:07 GMT-0500 (Central Daylight Time),367041.60000002384,A,t,O,t,2322,1,2348.899999976158,364692.7000000477,7090,WL,C,1.0
3,2.865999937057495,learn,57134.000062942505,Thu Apr 10 2025 11:06:07 GMT-0500 (Central Daylight Time),367558.10000002384,A,to,O,o,487,1,2865.399999976158,364692.7000000477,7090,WL,C,1.0
3,3.249000072479248,learn,56750.99992752075,Thu Apr 10 2025 11:06:07 GMT-0500 (Central Daylight Time),367941.2999999523,A,tow,O,w,347,1,3248.5999999046326,364692.7000000477,7090,WL,C,1.0
3,3.5820000171661377,learn,56417.99998283386,Thu Apr 10 2025 11:06:07 GMT-0500 (Central Daylight Time),368274.5,A,towe,O,e,294,1,3581.7999999523163,364692.7000000477,7090,WL,C,1.0
3,3.8989999294281006,learn,56101.0000705719,Thu Apr 10 2025 11:06:07 GMT-0500 (Central Daylight Time),368591.0,A,tower,O,r,280,1,3898.2999999523163,364692.7000000477,7090,WL,C,1.0
3,4.331000089645386,learn,55668.999910354614,Thu Apr 10 2025 11:06:07 GMT-0500 (Central Daylight Time),369023.39999997616,A,towerenter,O,enter,404,1,4330.699999928474,364692.7000000477,7090,WL,C,1.0
3,5.0320000648498535,learn,54967.99993515015,Thu Apr 10 2025 11:06:07 GMT-0500 (Central Daylight Time),369724.0,A,w,O,w,687,1,700.2999999523163,369023.7000000477,7090,WL,C,2.0
3,5.431999921798706,learn,54568.000078201294,Thu Apr 10 2025 11:06:07 GMT-0500 (Central Daylight Time),370123.60000002384,A,wh,O,h,359,1,1099.8999999761581,369023.7000000477,7090,WL,C,2.0
3,5.73199987411499,learn,54268.00012588501,Thu Apr 10 2025 11:06:07 GMT-0500 (Central Daylight Time),370423.7000000477,A,whe,O,e,265,1,1400.0,369023.7000000477,7090,WL,C,2.0
3,5.947999954223633,learn,54052.00004577637,Thu Apr 10 2025 11:06:07 GMT-0500 (Central Daylight Time),370640.2999999523,A,whee,O,e,185,1,1616.5999999046326,369023.7000000477,7090,WL,C,2.0
3,6.480999946594238,learn,53519.00005340576,Thu Apr 10 2025 11:06:07 GMT-0500 (Central Daylight Time),371172.89999997616,A,whe,O,backspace,504,1,2149.1999999284744,369023.7000000477,7090,WL,C,2.0
3,7.0299999713897705,learn,52970.00002861023,Thu Apr 10 2025 11:06:07 GMT-0500 (Central Daylight Time),371722.5,A,whea,O,a,530,1,2698.7999999523163,369023.7000000477,7090,WL,C,2.0
3,7.96399998664856,learn,52036.00001335144,Thu Apr 10 2025 11:06:07 GMT-0500 (Central Daylight Time),372655.7999999523,A,wheat,O,t,922,1,3632.0999999046326,369023.7000000477,7090,WL,C,2.0
3,8.27999997138977,learn,51720.00002861023,Thu Apr 10 2025 11:06:07 GMT-0500 (Central Daylight Time),372972.10000002384,A,wheatenter,O,enter,304,1,3948.399999976158,369023.7000000477,7090,WL,C,2.0
3,9.21399998664856,learn,50786.00001335144,Thu Apr 10 2025 11:06:07 GMT-0500 (Central Daylight Time),373905.89999997616,A,q,O,q,922,1,933.6000000238419,372972.2999999523,7090,WL,C,3.0
3,9.664000034332275,learn,50335.999965667725,Thu Apr 10 2025 11:06:07 GMT-0500 (Central Daylight Time),374355.89999997616,A,qu,O,u,412,1,1383.6000000238419,372972.2999999523,7090,WL,C,3.0
3,10.063999891281128,learn,49936.00010871887,Thu Apr 10 2025 11:06:07 GMT-0500 (Central Daylight Time),374755.7000000477,A,que,O,e,359,1,1783.4000000953674,372972.2999999523,7090,WL,C,3.0
3,10.36299991607666,learn,49637.00008392334,Thu Apr 10 2025 11:06:07 GMT-0500 (Central Daylight Time),375055.60000002384,A,quee,O,e,271,1,2083.3000000715256,372972.2999999523,7090,WL,C,3.0
3,10.829999923706055,learn,49170.000076293945,Thu Apr 10 2025 11:06:07 GMT-0500 (Central Daylight Time),375522.10000002384,A,queen,O,n,427,1,2549.8000000715256,372972.2999999523,7090,WL,C,3.0
3,11.661999940872192,learn,48338.00005912781,Thu Apr 10 2025 11:06:07 GMT-0500 (Central Daylight Time),376354.2999999523,A,queenenter,O,enter,799,1,3382.0,372972.2999999523,7090,WL,C,3.0
3,12.430000066757202,learn,47569.9999332428,Thu Apr 10 2025 11:06:07 GMT-0500 (Central Daylight Time),377121.60000002384,A,s,O,s,747,1,767.0,376354.60000002384,7090,WL,C,4.0
3,12.779000043869019,learn,47220.99995613098,Thu Apr 10 2025 11:06:07 GMT-0500 (Central Daylight Time),377471.0,A,su,O,u,311,1,1116.3999999761581,376354.60000002384,7090,WL,C,4.0
3,12.996000051498413,learn,47003.99994850159,Thu Apr 10 2025 11:06:07 GMT-0500 (Central Daylight Time),377687.89999997616,A,sug,O,g,196,1,1333.2999999523163,376354.60000002384,7090,WL,C,4.0
3,13.26200008392334,learn,46737.99991607666,Thu Apr 10 2025 11:06:07 GMT-0500 (Central Daylight Time),377954.10000002384,A,suga,O,a,224,1,1599.5,376354.60000002384,7090,WL,C,4.0
3,13.661999940872192,learn,46338.00005912781,Thu Apr 10 2025 11:06:07 GMT-0500 (Central Daylight Time),378354.60000002384,A,sugar,O,r,379,1,2000.0,376354.60000002384,7090,WL,C,4.0
3,14.045000076293945,learn,45954.999923706055,Thu Apr 10 2025 11:06:07 GMT-0500 (Central Daylight Time),378736.7999999523,A,sugarenter,O,enter,342,1,2382.1999999284744,376354.60000002384,7090,WL,C,4.0
3,15.32800006866455,learn,44671.99993133545,Thu Apr 10 2025 11:06:07 GMT-0500 (Central Daylight Time),380020.5,A,h,O,h,1261,1,1283.3999999761581,378737.10000002384,7090,WL,C,5.0
3,15.628000020980835,learn,44371.999979019165,Thu Apr 10 2025 11:06:07 GMT-0500 (Central Daylight Time),380320.5,A,ho,O,o,263,1,1583.3999999761581,378737.10000002384,7090,WL,C,5.0
3,16.01099991798401,learn,43989.00008201599,Thu Apr 10 2025 11:06:07 GMT-0500 (Central Daylight Time),380703.60000002384,A,hom,O,m,346,1,1966.5,378737.10000002384,7090,WL,C,5.0
3,16.411999940872192,learn,43588.00005912781,Thu Apr 10 2025 11:06:07 GMT-0500 (Central Daylight Time),381103.60000002384,A,home,O,e,363,1,2366.5,378737.10000002384,7090,WL,C,5.0
3,16.878000020980835,learn,43121.999979019165,Thu Apr 10 2025 11:06:07 GMT-0500 (Central Daylight Time),381569.7999999523,A,homeenter,O,enter,432,1,2832.6999999284744,378737.10000002384,7090,WL,C,5.0
3,17.82699990272522,learn,42173.00009727478,Thu Apr 10 2025 11:06:07 GMT-0500 (Central Daylight Time),382518.89999997616,A,b,O,b,939,1,948.8999999761581,381570.0,7090,WL,C,6.0
3,18.26099991798401,learn,41739.00008201599,Thu Apr 10 2025 11:06:07 GMT-0500 (Central Daylight Time),382953.0,A,bo,O,o,415,1,1383.0,381570.0,7090,WL,C,6.0
3,18.72699999809265,learn,41273.00000190735,Thu Apr 10 2025 11:06:07 GMT-0500 (Central Daylight Time),383419.5,A,boy,O,y,433,1,1849.5,381570.0,7090,WL,C,6.0
3,19.292999982833862,learn,40707.00001716614,Thu Apr 10 2025 11:06:07 GMT-0500 (Central Daylight Time),383985.10000002384,A,boyenter,O,enter,533,1,2415.100000023842,381570.0,7090,WL,C,6.0
3,20.276999950408936,learn,39723.000049591064,Thu Apr 10 2025 11:06:07 GMT-0500 (Central Daylight Time),384969.0,A,d,O,d,972,1,983.7000000476837,383985.2999999523,7090,WL,C,7.0
3,20.72699999809265,learn,39273.00000190735,Thu Apr 10 2025 11:06:07 GMT-0500 (Central Daylight Time),385418.89999997616,A,do,O,o,410,1,1433.6000000238419,383985.2999999523,7090,WL,C,7.0
3,21.026000022888184,learn,38973.99997711182,Thu Apr 10 2025 11:06:07 GMT-0500 (Central Daylight Time),385718.5,A,doc,O,c,272,1,1733.2000000476837,383985.2999999523,7090,WL,C,7.0
3,21.376999855041504,learn,38623.000144958496,Thu Apr 10 2025 11:06:07 GMT-0500 (Central Daylight Time),386068.60000002384,A,doct,O,t,309,1,2083.3000000715256,383985.2999999523,7090,WL,C,7.0
3,21.759000062942505,learn,38240.999937057495,Thu Apr 10 2025 11:06:07 GMT-0500 (Central Daylight Time),386451.60000002384,A,docto,O,o,339,1,2466.3000000715256,383985.2999999523,7090,WL,C,7.0
3,22.243000030517578,learn,37756.99996948242,Thu Apr 10 2025 11:06:07 GMT-0500 (Central Daylight Time),386934.7999999523,A,doctor,O,r,460,1,2949.5,383985.2999999523,7090,WL,C,7.0
3,22.80900001525879,learn,37190.99998474121,Thu Apr 10 2025 11:06:07 GMT-0500 (Central Daylight Time),387500.7000000477,A,doctorenter,O,enter,539,1,3515.4000000953674,383985.2999999523,7090,WL,C,7.0
3,23.70899987220764,learn,36291.00012779236,Thu Apr 10 2025 11:06:07 GMT-0500 (Central Daylight Time),388401.2000000477,A,c,O,c,881,1,900.2000000476837,387501.0,7090,WL,C,8.0
3,24.075000047683716,learn,35924.999952316284,Thu Apr 10 2025 11:06:07 GMT-0500 (Central Daylight Time),388767.2000000477,A,ca,O,a,329,1,1266.2000000476837,387501.0,7090,WL,C,8.0
3,24.39299988746643,learn,35607.00011253357,Thu Apr 10 2025 11:06:07 GMT-0500 (Central Daylight Time),389085.0,A,cam,O,m,302,1,1584.0,387501.0,7090,WL,C,8.0
3,25.424000024795532,learn,34575.99997520447,Thu Apr 10 2025 11:06:07 GMT-0500 (Central Daylight Time),390116.39999997616,A,camp,O,p,997,1,2615.399999976158,387501.0,7090,WL,C,8.0
3,25.925999879837036,learn,34074.000120162964,Thu Apr 10 2025 11:06:07 GMT-0500 (Central Daylight Time),390618.2000000477,A,campenter,O,enter,480,1,3117.2000000476837,387501.0,7090,WL,C,8.0
3,26.990999937057495,learn,33009.000062942505,Thu Apr 10 2025 11:06:07 GMT-0500 (Central Daylight Time),391683.0,A,l,O,l,1051,1,1064.5,390618.5,7090,WL,C,9.0
3,27.274999856948853,learn,32725.000143051147,Thu Apr 10 2025 11:06:07 GMT-0500 (Central Daylight Time),391966.7999999523,A,le,O,e,256,1,1348.2999999523163,390618.5,7090,WL,C,9.0
3,27.624000072479248,learn,32375.999927520752,Thu Apr 10 2025 11:06:07 GMT-0500 (Central Daylight Time),392315.89999997616,A,let,O,t,322,1,1697.3999999761581,390618.5,7090,WL,C,9.0
3,27.823999881744385,learn,32176.000118255615,Thu Apr 10 2025 11:06:07 GMT-0500 (Central Daylight Time),392516.39999997616,A,lett,O,t,170,1,1897.8999999761581,390618.5,7090,WL,C,9.0
3,28.157000064849854,learn,31842.999935150146,Thu Apr 10 2025 11:06:07 GMT-0500 (Central Daylight Time),392849.0,A,lette,O,e,292,1,2230.5,390618.5,7090,WL,C,9.0
3,28.44099998474121,learn,31559.00001525879,Thu Apr 10 2025 11:06:07 GMT-0500 (Central Daylight Time),393133.0,A,letter,O,r,261,1,2514.5,390618.5,7090,WL,C,9.0
3,29.006999969482422,learn,30993.000030517578,Thu Apr 10 2025 11:06:07 GMT-0500 (Central Daylight Time),393698.60000002384,A,letterenter,O,enter,535,1,3080.100000023842,390618.5,7090,WL,C,9.0
3,29.707000017166138,learn,30292.999982833862,Thu Apr 10 2025 11:06:07 GMT-0500 (Central Daylight Time),394399.10000002384,A,n,O,n,683,1,700.2000000476837,393698.89999997616,7090,WL,C,10.0
3,30.039999961853027,learn,29960.000038146973,Thu Apr 10 2025 11:06:07 GMT-0500 (Central Daylight Time),394732.5,A,na,O,a,291,1,1033.6000000238419,393698.89999997616,7090,WL,C,10.0
3,30.306999921798706,learn,29693.000078201294,Thu Apr 10 2025 11:06:07 GMT-0500 (Central Daylight Time),394999.0,A,nai,O,i,230,1,1300.1000000238419,393698.89999997616,7090,WL,C,10.0
3,30.957000017166138,learn,29042.999982833862,Thu Apr 10 2025 11:06:07 GMT-0500 (Central Daylight Time),395648.7999999523,A,nail,O,l,620,1,1949.8999999761581,393698.89999997616,7090,WL,C,10.0
3,31.522000074386597,learn,28477.999925613403,Thu Apr 10 2025 11:06:07 GMT-0500 (Central Daylight Time),396214.5,A,nailenter,O,enter,538,1,2515.600000023842,393698.89999997616,7090,WL,C,10.0
3,32.48900008201599,learn,27510.99991798401,Thu Apr 10 2025 11:06:07 GMT-0500 (Central Daylight Time),397181.2000000477,A,b,O,b,959,1,966.5,396214.7000000477,7090,WL,C,11.0
3,32.956000089645386,learn,27043.999910354614,Thu Apr 10 2025 11:06:07 GMT-0500 (Central Daylight Time),397648.2000000477,A,bo,O,o,432,1,1433.5,396214.7000000477,7090,WL,C,11.0
3,33.27300000190735,learn,26726.99999809265,Thu Apr 10 2025 11:06:07 GMT-0500 (Central Daylight Time),397965.2999999523,A,bod,O,d,290,1,1750.5999999046326,396214.7000000477,7090,WL,C,11.0
3,33.6729998588562,learn,26327.0001411438,Thu Apr 10 2025 11:06:07 GMT-0500 (Central Daylight Time),398365.2000000477,A,body,O,y,377,1,2150.5,396214.7000000477,7090,WL,C,11.0
3,34.08800005912781,learn,25911.999940872192,Thu Apr 10 2025 11:06:07 GMT-0500 (Central Daylight Time),398780.2999999523,A,bodyenter,O,enter,386,1,2565.5999999046326,396214.7000000477,7090,WL,C,11.0
3,34.97199988365173,learn,25028.000116348267,Thu Apr 10 2025 11:06:07 GMT-0500 (Central Daylight Time),399664.2000000477,A,s,O,s,873,1,883.7000000476837,398780.5,7090,WL,C,12.0
3,35.25499987602234,learn,24745.00012397766,Thu Apr 10 2025 11:06:07 GMT-0500 (Central Daylight Time),399947.39999997616,A,sh,O,h,249,1,1166.8999999761581,398780.5,7090,WL,C,12.0
3,35.605000019073486,learn,24394.999980926514,Thu Apr 10 2025 11:06:07 GMT-0500 (Central Daylight Time),400297.2999999523,A,sho,O,o,324,1,1516.7999999523163,398780.5,7090,WL,C,12.0
3,35.954999923706055,learn,24045.000076293945,Thu Apr 10 2025 11:06:07 GMT-0500 (Central Daylight Time),400647.2000000477,A,shor,O,r,314,1,1866.7000000476837,398780.5,7090,WL,C,12.0
3,36.537999868392944,learn,23462.000131607056,Thu Apr 10 2025 11:06:07 GMT-0500 (Central Daylight Time),401230.2999999523,A,shore,O,e,556,1,2449.7999999523163,398780.5,7090,WL,C,12.0
3,38.269999980926514,learn,21730.000019073486,Thu Apr 10 2025 11:06:07 GMT-0500 (Central Daylight Time),402962.2000000477,A,shoreenter,O,enter,1693,1,4181.700000047684,398780.5,7090,WL,C,12.0
3,41.920000076293945,learn,18079.999923706055,Thu Apr 10 2025 11:06:07 GMT-0500 (Central Daylight Time),406612.0,A,c,O,c,3628,1,3649.5,402962.5,7090,WL,C,13.0
3,42.13599991798401,learn,17864.00008201599,Thu Apr 10 2025 11:06:07 GMT-0500 (Central Daylight Time),406828.39999997616,A,ca,O,a,174,1,3865.899999976158,402962.5,7090,WL,C,13.0
3,42.36899995803833,learn,17631.00004196167,Thu Apr 10 2025 11:06:07 GMT-0500 (Central Daylight Time),407061.5,A,cat,O,t,206,1,4099.0,402962.5,7090,WL,C,13.0
3,42.53600001335144,learn,17463.99998664856,Thu Apr 10 2025 11:06:07 GMT-0500 (Central Daylight Time),407228.2999999523,A,catt,O,t,134,1,4265.799999952316,402962.5,7090,WL,C,13.0
3,42.80299997329712,learn,17197.00002670288,Thu Apr 10 2025 11:06:07 GMT-0500 (Central Daylight Time),407494.7000000477,A,cattl,O,l,231,1,4532.200000047684,402962.5,7090,WL,C,13.0
3,42.986000061035156,learn,17013.999938964844,Thu Apr 10 2025 11:06:07 GMT-0500 (Central Daylight Time),407678.10000002384,A,cattle,O,e,153,1,4715.600000023842,402962.5,7090,WL,C,13.0
3,43.26900005340576,learn,16730.99994659424,Thu Apr 10 2025 11:06:07 GMT-0500 (Central Daylight Time),407960.60000002384,A,cattleenter,O,enter,243,1,4998.100000023842,402962.5,7090,WL,C,13.0
3,48.50099992752075,learn,11499.000072479248,Thu Apr 10 2025 11:06:07 GMT-0500 (Central Daylight Time),413193.2000000477,A,f,O,f,5220,1,5232.400000095367,407960.7999999523,7090,WL,C,14.0
3,48.71799993515015,learn,11282.000064849854,Thu Apr 10 2025 11:06:07 GMT-0500 (Central Daylight Time),413409.60000002384,A,fl,O,l,184,1,5448.800000071526,407960.7999999523,7090,WL,C,14.0
3,48.86699986457825,learn,11133.000135421753,Thu Apr 10 2025 11:06:07 GMT-0500 (Central Daylight Time),413559.39999997616,A,fla,O,a,121,1,5598.600000023842,407960.7999999523,7090,WL,C,14.0
3,49.151000022888184,learn,10848.999977111816,Thu Apr 10 2025 11:06:07 GMT-0500 (Central Daylight Time),413842.60000002384,A,flag,O,g,248,1,5881.800000071526,407960.7999999523,7090,WL,C,14.0
3,49.31699991226196,learn,10683.000087738037,Thu Apr 10 2025 11:06:07 GMT-0500 (Central Daylight Time),414008.60000002384,A,flagenter,O,enter,139,1,6047.800000071526,407960.7999999523,7090,WL,C,14.0
3,60.014999866485596,learn,-14.999866485595703,Thu Apr 10 2025 11:06:07 GMT-0500 (Central Daylight Time),424706.10000002384,A,None,O,None,10691,1,10697.300000071526,414008.7999999523,7090,WL,C,15.0
4,1.6489999294281006,learn,58351.0000705719,Thu Apr 10 2025 11:06:07 GMT-0500 (Central Daylight Time),496049.39999997616,A,t,O,t,1621,1,1649.1999999284744,494400.2000000477,7090,WL,C,1.0
4,1.9819998741149902,learn,58018.00012588501,Thu Apr 10 2025 11:06:07 GMT-0500 (Central Daylight Time),496382.5,A,to,O,o,300,1,1982.2999999523163,494400.2000000477,7090,WL,C,1.0
4,2.2990000247955322,learn,57700.99997520447,Thu Apr 10 2025 11:06:07 GMT-0500 (Central Daylight Time),496699.10000002384,A,tow,O,w,276,1,2298.899999976158,494400.2000000477,7090,WL,C,1.0
4,2.5820000171661377,learn,57417.99998283386,Thu Apr 10 2025 11:06:07 GMT-0500 (Central Daylight Time),496982.2000000477,A,towe,O,e,256,1,2582.0,494400.2000000477,7090,WL,C,1.0
4,2.9649999141693115,learn,57035.00008583069,Thu Apr 10 2025 11:06:07 GMT-0500 (Central Daylight Time),497365.39999997616,A,tower,O,r,353,1,2965.1999999284744,494400.2000000477,7090,WL,C,1.0
4,3.497999906539917,learn,56502.00009346008,Thu Apr 10 2025 11:06:07 GMT-0500 (Central Daylight Time),497897.7000000477,A,towerenter,O,enter,493,1,3497.5,494400.2000000477,7090,WL,C,1.0
4,4.414999961853027,learn,55585.00003814697,Thu Apr 10 2025 11:06:07 GMT-0500 (Central Daylight Time),498815.0,A,w,O,w,900,1,916.8999999761581,497898.10000002384,7090,WL,C,2.0
4,4.764999866485596,learn,55235.000133514404,Thu Apr 10 2025 11:06:07 GMT-0500 (Central Daylight Time),499165.39999997616,A,wh,O,h,322,1,1267.2999999523163,497898.10000002384,7090,WL,C,2.0
4,4.9649999141693115,learn,55035.00008583069,Thu Apr 10 2025 11:06:07 GMT-0500 (Central Daylight Time),499364.7000000477,A,whe,O,e,165,1,1466.6000000238419,497898.10000002384,7090,WL,C,2.0
4,5.164999961853027,learn,54835.00003814697,Thu Apr 10 2025 11:06:07 GMT-0500 (Central Daylight Time),499565.2000000477,A,whea,O,a,174,1,1667.1000000238419,497898.10000002384,7090,WL,C,2.0
4,5.547999858856201,learn,54452.0001411438,Thu Apr 10 2025 11:06:07 GMT-0500 (Central Daylight Time),499947.89999997616,A,wheat,O,t,349,1,2049.7999999523163,497898.10000002384,7090,WL,C,2.0
4,6.21399998664856,learn,53786.00001335144,Thu Apr 10 2025 11:06:07 GMT-0500 (Central Daylight Time),500613.5,A,wheatenter,O,enter,640,1,2715.399999976158,497898.10000002384,7090,WL,C,2.0
4,7.680999994277954,learn,52319.000005722046,Thu Apr 10 2025 11:06:07 GMT-0500 (Central Daylight Time),502080.60000002384,A,q,O,q,1448,1,1466.8000000715256,500613.7999999523,7090,WL,C,3.0
4,7.996999979019165,learn,52003.000020980835,Thu Apr 10 2025 11:06:07 GMT-0500 (Central Daylight Time),502397.10000002384,A,qu,O,u,281,1,1783.3000000715256,500613.7999999523,7090,WL,C,3.0
4,8.230000019073486,learn,51769.999980926514,Thu Apr 10 2025 11:06:07 GMT-0500 (Central Daylight Time),502630.39999997616,A,que,O,e,205,1,2016.6000000238419,500613.7999999523,7090,WL,C,3.0
4,8.496999979019165,learn,51503.000020980835,Thu Apr 10 2025 11:06:07 GMT-0500 (Central Daylight Time),502897.0,A,quee,O,e,228,1,2283.2000000476837,500613.7999999523,7090,WL,C,3.0
4,9.61299991607666,learn,50387.00008392334,Thu Apr 10 2025 11:06:07 GMT-0500 (Central Daylight Time),504013.2000000477,A,queen,O,n,1079,1,3399.4000000953674,500613.7999999523,7090,WL,C,3.0
4,10.111999988555908,learn,49888.00001144409,Thu Apr 10 2025 11:06:07 GMT-0500 (Central Daylight Time),504512.39999997616,A,queenenter,O,enter,459,1,3898.600000023842,500613.7999999523,7090,WL,C,3.0
4,11.279000043869019,learn,48720.99995613098,Thu Apr 10 2025 11:06:07 GMT-0500 (Central Daylight Time),505679.5,A,h,O,h,1155,1,1166.7999999523163,504512.7000000477,7090,WL,C,4.0
4,11.662999868392944,learn,48337.000131607056,Thu Apr 10 2025 11:06:07 GMT-0500 (Central Daylight Time),506062.60000002384,A,ho,O,o,356,1,1549.8999999761581,504512.7000000477,7090,WL,C,4.0
4,12.046000003814697,learn,47953.9999961853,Thu Apr 10 2025 11:06:07 GMT-0500 (Central Daylight Time),506445.5,A,hom,O,m,355,1,1932.7999999523163,504512.7000000477,7090,WL,C,4.0
4,12.69599986076355,learn,47304.00013923645,Thu Apr 10 2025 11:06:07 GMT-0500 (Central Daylight Time),507095.60000002384,A,home,O,e,621,1,2582.899999976158,504512.7000000477,7090,WL,C,4.0
4,13.827999830245972,learn,46172.00016975403,Thu Apr 10 2025 11:06:07 GMT-0500 (Central Daylight Time),508227.7999999523,A,homeenter,O,enter,1098,1,3715.0999999046326,504512.7000000477,7090,WL,C,4.0
4,15.09500002861023,learn,44904.99997138977,Thu Apr 10 2025 11:06:07 GMT-0500 (Central Daylight Time),509494.7999999523,A,b,O,b,1250,1,1266.8999999761581,508227.89999997616,7090,WL,C,5.0
4,15.527999877929688,learn,44472.00012207031,Thu Apr 10 2025 11:06:07 GMT-0500 (Central Daylight Time),509927.7999999523,A,bo,O,o,402,1,1699.8999999761581,508227.89999997616,7090,WL,C,5.0
4,16.24399995803833,learn,43756.00004196167,Thu Apr 10 2025 11:06:07 GMT-0500 (Central Daylight Time),510644.2999999523,A,boy,O,y,674,1,2416.399999976158,508227.89999997616,7090,WL,C,5.0
4,17.026999950408936,learn,42973.000049591064,Thu Apr 10 2025 11:06:07 GMT-0500 (Central Daylight Time),511426.60000002384,A,boyenter,O,enter,749,1,3198.7000000476837,508227.89999997616,7090,WL,C,5.0
4,18.07699990272522,learn,41923.00009727478,Thu Apr 10 2025 11:06:07 GMT-0500 (Central Daylight Time),512477.2000000477,A,d,O,d,1035,1,1050.3000000715256,511426.89999997616,7090,WL,C,6.0
4,18.40999984741211,learn,41590.00015258789,Thu Apr 10 2025 11:06:07 GMT-0500 (Central Daylight Time),512810.5,A,do,O,o,292,1,1383.6000000238419,511426.89999997616,7090,WL,C,6.0
4,18.66100001335144,learn,41338.99998664856,Thu Apr 10 2025 11:06:07 GMT-0500 (Central Daylight Time),513061.2000000477,A,doc,O,c,224,1,1634.3000000715256,511426.89999997616,7090,WL,C,6.0
4,18.942999839782715,learn,41057.000160217285,Thu Apr 10 2025 11:06:07 GMT-0500 (Central Daylight Time),513343.39999997616,A,doct,O,t,253,1,1916.5,511426.89999997616,7090,WL,C,6.0
4,19.259999990463257,learn,40740.00000953674,Thu Apr 10 2025 11:06:07 GMT-0500 (Central Daylight Time),513660.10000002384,A,docto,O,o,282,1,2233.2000000476837,511426.89999997616,7090,WL,C,6.0
4,19.692999839782715,learn,40307.000160217285,Thu Apr 10 2025 11:06:07 GMT-0500 (Central Daylight Time),514093.39999997616,A,doctor,O,r,398,1,2666.5,511426.89999997616,7090,WL,C,6.0
4,20.359999895095825,learn,39640.000104904175,Thu Apr 10 2025 11:06:07 GMT-0500 (Central Daylight Time),514760.0,A,doctorenter,O,enter,627,1,3333.100000023842,511426.89999997616,7090,WL,C,6.0
4,21.592999935150146,learn,38407.00006484985,Thu Apr 10 2025 11:06:07 GMT-0500 (Central Daylight Time),515992.60000002384,A,c,O,c,1222,1,1232.3999999761581,514760.2000000477,7090,WL,C,7.0
4,21.842999935150146,learn,38157.00006484985,Thu Apr 10 2025 11:06:07 GMT-0500 (Central Daylight Time),516242.60000002384,A,ca,O,a,209,1,1482.3999999761581,514760.2000000477,7090,WL,C,7.0
4,22.092000007629395,learn,37907.999992370605,Thu Apr 10 2025 11:06:07 GMT-0500 (Central Daylight Time),516492.39999997616,A,cam,O,m,211,1,1732.1999999284744,514760.2000000477,7090,WL,C,7.0
4,22.72499990463257,learn,37275.00009536743,Thu Apr 10 2025 11:06:07 GMT-0500 (Central Daylight Time),517125.39999997616,A,camp,O,p,606,1,2365.1999999284744,514760.2000000477,7090,WL,C,7.0
4,23.45799994468689,learn,36542.00005531311,Thu Apr 10 2025 11:06:07 GMT-0500 (Central Daylight Time),517857.7999999523,A,campenter,O,enter,693,1,3097.5999999046326,514760.2000000477,7090,WL,C,7.0
4,24.441999912261963,learn,35558.00008773804,Thu Apr 10 2025 11:06:07 GMT-0500 (Central Daylight Time),518841.60000002384,A,f,O,f,964,1,983.5,517858.10000002384,7090,WL,C,8.0
4,24.774999856948853,learn,35225.00014305115,Thu Apr 10 2025 11:06:07 GMT-0500 (Central Daylight Time),519174.7000000477,A,fl,O,l,297,1,1316.6000000238419,517858.10000002384,7090,WL,C,8.0
4,25.024999856948853,learn,34975.00014305115,Thu Apr 10 2025 11:06:07 GMT-0500 (Central Daylight Time),519424.60000002384,A,fla,O,a,225,1,1566.5,517858.10000002384,7090,WL,C,8.0
4,25.557999849319458,learn,34442.00015068054,Thu Apr 10 2025 11:06:07 GMT-0500 (Central Daylight Time),519957.7999999523,A,flag,O,g,511,1,2099.6999999284744,517858.10000002384,7090,WL,C,8.0
4,27.905999898910522,learn,32094.000101089478,Thu Apr 10 2025 11:06:07 GMT-0500 (Central Daylight Time),522306.39999997616,A,flagenter,O,enter,2309,1,4448.299999952316,517858.10000002384,7090,WL,C,8.0
4,28.973999977111816,learn,31026.000022888184,Thu Apr 10 2025 11:06:07 GMT-0500 (Central Daylight Time),523373.5,A,l,O,l,1050,1,1066.8999999761581,522306.60000002384,7090,WL,C,9.0
4,29.205999851226807,learn,30794.000148773193,Thu Apr 10 2025 11:06:07 GMT-0500 (Central Daylight Time),523606.2000000477,A,le,O,e,203,1,1299.6000000238419,522306.60000002384,7090,WL,C,9.0
4,29.52300000190735,learn,30476.99999809265,Thu Apr 10 2025 11:06:07 GMT-0500 (Central Daylight Time),523923.39999997616,A,let,O,t,295,1,1616.7999999523163,522306.60000002384,7090,WL,C,9.0
4,29.723000049591064,learn,30276.999950408936,Thu Apr 10 2025 11:06:07 GMT-0500 (Central Daylight Time),524122.7000000477,A,lett,O,t,166,1,1816.1000000238419,522306.60000002384,7090,WL,C,9.0
4,30.02300000190735,learn,29976.99999809265,Thu Apr 10 2025 11:06:07 GMT-0500 (Central Daylight Time),524423.2999999523,A,lette,O,e,275,1,2116.6999999284744,522306.60000002384,7090,WL,C,9.0
4,30.289999961853027,learn,29710.000038146973,Thu Apr 10 2025 11:06:07 GMT-0500 (Central Daylight Time),524689.7000000477,A,letter,O,r,234,1,2383.100000023842,522306.60000002384,7090,WL,C,9.0
4,30.60599994659424,learn,29394.00005340576,Thu Apr 10 2025 11:06:07 GMT-0500 (Central Daylight Time),525005.5,A,letterenter,O,enter,288,1,2698.899999976158,522306.60000002384,7090,WL,C,9.0
4,31.405999898910522,learn,28594.000101089478,Thu Apr 10 2025 11:06:07 GMT-0500 (Central Daylight Time),525806.2000000477,A,n,O,n,785,1,800.5,525005.7000000477,7090,WL,C,10.0
4,31.688999891281128,learn,28311.000108718872,Thu Apr 10 2025 11:06:07 GMT-0500 (Central Daylight Time),526089.2999999523,A,na,O,a,254,1,1083.5999999046326,525005.7000000477,7090,WL,C,10.0
4,31.98799991607666,learn,28012.00008392334,Thu Apr 10 2025 11:06:07 GMT-0500 (Central Daylight Time),526388.2000000477,A,nai,O,i,264,1,1382.5,525005.7000000477,7090,WL,C,10.0
4,32.48799991607666,learn,27512.00008392334,Thu Apr 10 2025 11:06:07 GMT-0500 (Central Daylight Time),526888.1000000238,A,nail,O,l,480,1,1882.3999999761581,525005.7000000477,7090,WL,C,10.0
4,33.33799982070923,learn,26662.00017929077,Thu Apr 10 2025 11:06:07 GMT-0500 (Central Daylight Time),527738.0,A,nai,O,backspace,836,1,2732.2999999523163,525005.7000000477,7090,WL,C,10.0
4,33.638999938964844,learn,26361.000061035156,Thu Apr 10 2025 11:06:07 GMT-0500 (Central Daylight Time),528038.7000000477,A,na,O,backspace,281,1,3033.0,525005.7000000477,7090,WL,C,10.0
4,33.855000019073486,learn,26144.999980926514,Thu Apr 10 2025 11:06:07 GMT-0500 (Central Daylight Time),528255.2999999523,A,n,O,backspace,195,1,3249.5999999046326,525005.7000000477,7090,WL,C,10.0
4,34.039000034332275,learn,25960.999965667725,Thu Apr 10 2025 11:06:07 GMT-0500 (Central Daylight Time),528438.7000000477,A,,O,backspace,146,1,3433.0,525005.7000000477,7090,WL,C,10.0
4,36.355000019073486,learn,23644.999980926514,Thu Apr 10 2025 11:06:07 GMT-0500 (Central Daylight Time),530754.5,A,c,O,c,2285,1,5748.799999952316,525005.7000000477,7090,WL,C,10.0
4,36.55399990081787,learn,23446.00009918213,Thu Apr 10 2025 11:06:07 GMT-0500 (Central Daylight Time),530953.7000000477,A,co,O,o,160,1,5948.0,525005.7000000477,7090,WL,C,10.0
4,36.78699994087219,learn,23213.000059127808,Thu Apr 10 2025 11:06:07 GMT-0500 (Central Daylight Time),531186.8999999762,A,cor,O,r,210,1,6181.199999928474,525005.7000000477,7090,WL,C,10.0
4,37.187000036239624,learn,22812.999963760376,Thu Apr 10 2025 11:06:07 GMT-0500 (Central Daylight Time),531587.7000000477,A,corn,O,n,378,1,6582.0,525005.7000000477,7090,WL,C,10.0
4,37.70299983024597,learn,22297.00016975403,Thu Apr 10 2025 11:06:07 GMT-0500 (Central Daylight Time),532103.1000000238,A,cornenter,O,enter,486,1,7097.399999976158,525005.7000000477,7090,WL,C,10.0
4,38.8529999256134,learn,21147.000074386597,Thu Apr 10 2025 11:06:07 GMT-0500 (Central Daylight Time),533253.2999999523,A,s,O,s,1143,1,1149.7999999523163,532103.5,7090,WL,C,11.0
4,39.08699989318848,learn,20913.000106811523,Thu Apr 10 2025 11:06:07 GMT-0500 (Central Daylight Time),533486.7999999523,A,sh,O,h,203,1,1383.2999999523163,532103.5,7090,WL,C,11.0
4,39.40299987792969,learn,20597.000122070312,Thu Apr 10 2025 11:06:07 GMT-0500 (Central Daylight Time),533802.6000000238,A,sho,O,o,276,1,1699.1000000238419,532103.5,7090,WL,C,11.0
4,39.61899995803833,learn,20381.00004196167,Thu Apr 10 2025 11:06:07 GMT-0500 (Central Daylight Time),534019.2999999523,A,shor,O,r,209,1,1915.7999999523163,532103.5,7090,WL,C,11.0
4,40.26900005340576,learn,19730.99994659424,Thu Apr 10 2025 11:06:07 GMT-0500 (Central Daylight Time),534669.0,A,shore,O,e,633,1,2565.5,532103.5,7090,WL,C,11.0
4,41.03600001335144,learn,18963.99998664856,Thu Apr 10 2025 11:06:07 GMT-0500 (Central Daylight Time),535435.5,A,shoreenter,O,enter,751,1,3332.0,532103.5,7090,WL,C,11.0
4,41.437000036239624,learn,18562.999963760376,Thu Apr 10 2025 11:06:07 GMT-0500 (Central Daylight Time),535836.7000000477,A,c,O,c,394,1,401.0,535435.7000000477,7090,WL,C,12.0
4,41.668999910354614,learn,18331.000089645386,Thu Apr 10 2025 11:06:07 GMT-0500 (Central Daylight Time),536069.2999999523,A,ca,O,a,206,1,633.5999999046326,535435.7000000477,7090,WL,C,12.0
4,41.98599982261658,learn,18014.000177383423,Thu Apr 10 2025 11:06:07 GMT-0500 (Central Daylight Time),536386.2000000477,A,cat,O,t,280,1,950.5,535435.7000000477,7090,WL,C,12.0
4,42.168999910354614,learn,17831.000089645386,Thu Apr 10 2025 11:06:07 GMT-0500 (Central Daylight Time),536569.5,A,catt,O,t,144,1,1133.7999999523163,535435.7000000477,7090,WL,C,12.0
4,42.503000020980835,learn,17496.999979019165,Thu Apr 10 2025 11:06:07 GMT-0500 (Central Daylight Time),536902.2000000477,A,cattl,O,l,297,1,1466.5,535435.7000000477,7090,WL,C,12.0
4,42.86999988555908,learn,17130.000114440918,Thu Apr 10 2025 11:06:07 GMT-0500 (Central Daylight Time),537269.2000000477,A,cattle,O,e,337,1,1833.5,535435.7000000477,7090,WL,C,12.0
4,43.76900005340576,learn,16230.999946594238,Thu Apr 10 2025 11:06:07 GMT-0500 (Central Daylight Time),538167.8999999762,A,cattleenter,O,enter,870,1,2732.1999999284744,535435.7000000477,7090,WL,C,12.0
4,44.65299987792969,learn,15347.000122070312,Thu Apr 10 2025 11:06:07 GMT-0500 (Central Daylight Time),539051.7000000477,A,b,O,b,870,1,883.4000000953674,538168.2999999523,7090,WL,C,13.0
4,45.1029999256134,learn,14897.000074386597,Thu Apr 10 2025 11:06:07 GMT-0500 (Central Daylight Time),539501.6000000238,A,bo,O,o,422,1,1333.3000000715256,538168.2999999523,7090,WL,C,13.0
4,45.40299987792969,learn,14597.000122070312,Thu Apr 10 2025 11:06:07 GMT-0500 (Central Daylight Time),539801.5,A,bod,O,d,262,1,1633.2000000476837,538168.2999999523,7090,WL,C,13.0
4,45.918999910354614,learn,14081.000089645386,Thu Apr 10 2025 11:06:07 GMT-0500 (Central Daylight Time),540317.7999999523,A,body,O,y,489,1,2149.5,538168.2999999523,7090,WL,C,13.0
4,46.68499994277954,learn,13315.000057220459,Thu Apr 10 2025 11:06:07 GMT-0500 (Central Daylight Time),541083.5,A,bodyenter,O,enter,740,1,2915.2000000476837,538168.2999999523,7090,WL,C,13.0
4,47.36899995803833,learn,12631.00004196167,Thu Apr 10 2025 11:06:07 GMT-0500 (Central Daylight Time),541767.5,A,n,O,n,674,1,683.7999999523163,541083.7000000477,7090,WL,C,14.0
4,47.61800003051758,learn,12381.999969482422,Thu Apr 10 2025 11:06:07 GMT-0500 (Central Daylight Time),542017.2999999523,A,na,O,a,213,1,933.5999999046326,541083.7000000477,7090,WL,C,14.0
4,47.88499999046326,learn,12115.000009536743,Thu Apr 10 2025 11:06:07 GMT-0500 (Central Daylight Time),542284.1000000238,A,nai,O,i,232,1,1200.3999999761581,541083.7000000477,7090,WL,C,14.0
4,48.30200004577637,learn,11697.999954223633,Thu Apr 10 2025 11:06:07 GMT-0500 (Central Daylight Time),542700.5,A,nail,O,l,382,1,1616.7999999523163,541083.7000000477,7090,WL,C,14.0
4,48.967000007629395,learn,11032.999992370605,Thu Apr 10 2025 11:06:07 GMT-0500 (Central Daylight Time),543366.2000000477,A,nailenter,O,enter,632,1,2282.5,541083.7000000477,7090,WL,C,14.0
4,60.013999938964844,learn,-13.99993896484375,Thu Apr 10 2025 11:06:07 GMT-0500 (Central Daylight Time),554413.3999999762,A,None,O,None,11040,1,11047.100000023842,543366.2999999523,7090,WL,C,15.0
5,1.366999864578247,learn,60000.0,Thu Apr 10 2025 11:06:07 GMT-0500 (Central Daylight Time),622525.6000000238,A,t,O,t,1335,1,1367.0,621158.6000000238,7090,WL,C,1.0
5,1.7159998416900635,learn,60000.0,Thu Apr 10 2025 11:06:07 GMT-0500 (Central Daylight Time),622874.5,A,to,O,o,317,1,1715.8999999761581,621158.6000000238,7090,WL,C,1.0
5,2.0,learn,60000.0,Thu Apr 10 2025 11:06:07 GMT-0500 (Central Daylight Time),623157.3999999762,A,tow,O,w,257,1,1998.7999999523163,621158.6000000238,7090,WL,C,1.0
5,2.2330000400543213,learn,60000.0,Thu Apr 10 2025 11:06:07 GMT-0500 (Central Daylight Time),623391.0,A,towe,O,e,199,1,2232.399999976158,621158.6000000238,7090,WL,C,1.0
5,2.615000009536743,learn,60000.0,Thu Apr 10 2025 11:06:07 GMT-0500 (Central Daylight Time),623772.8999999762,A,tower,O,r,355,1,2614.2999999523163,621158.6000000238,7090,WL,C,1.0
5,3.047999858856201,learn,60000.0,Thu Apr 10 2025 11:06:07 GMT-0500 (Central Daylight Time),624206.2999999523,A,towerenter,O,enter,415,1,3047.6999999284744,621158.6000000238,7090,WL,C,1.0
5,3.865999937057495,learn,60000.0,Thu Apr 10 2025 11:06:07 GMT-0500 (Central Daylight Time),625023.6000000238,A,w,O,w,808,1,817.1000000238419,624206.5,7090,WL,C,2.0
5,4.248999834060669,learn,60000.0,Thu Apr 10 2025 11:06:07 GMT-0500 (Central Daylight Time),625407.0,A,wh,O,h,354,1,1200.5,624206.5,7090,WL,C,2.0
5,4.615000009536743,learn,60000.0,Thu Apr 10 2025 11:06:07 GMT-0500 (Central Daylight Time),625773.0,A,whe,O,e,341,1,1566.5,624206.5,7090,WL,C,2.0
5,5.014999866485596,learn,60000.0,Thu Apr 10 2025 11:06:07 GMT-0500 (Central Daylight Time),626173.1000000238,A,whea,O,a,373,1,1966.6000000238419,624206.5,7090,WL,C,2.0
5,5.447999954223633,learn,60000.0,Thu Apr 10 2025 11:06:07 GMT-0500 (Central Daylight Time),626606.3999999762,A,wheat,O,t,396,1,2399.899999976158,624206.5,7090,WL,C,2.0
5,6.016000032424927,learn,60000.0,Thu Apr 10 2025 11:06:07 GMT-0500 (Central Daylight Time),627173.6000000238,A,wheatenter,O,enter,532,1,2967.100000023842,624206.5,7090,WL,C,2.0
5,6.815000057220459,learn,60000.0,Thu Apr 10 2025 11:06:07 GMT-0500 (Central Daylight Time),627972.6000000238,A,q,O,q,785,1,798.7000000476837,627173.8999999762,7090,WL,C,3.0
5,7.21399998664856,learn,60000.0,Thu Apr 10 2025 11:06:07 GMT-0500 (Central Daylight Time),628372.3999999762,A,qu,O,u,366,1,1198.5,627173.8999999762,7090,WL,C,3.0
5,7.5980000495910645,learn,60000.0,Thu Apr 10 2025 11:06:07 GMT-0500 (Central Daylight Time),628755.6000000238,A,que,O,e,343,1,1581.7000000476837,627173.8999999762,7090,WL,C,3.0
5,7.96399998664856,learn,60000.0,Thu Apr 10 2025 11:06:07 GMT-0500 (Central Daylight Time),629122.1000000238,A,quee,O,e,336,1,1948.2000000476837,627173.8999999762,7090,WL,C,3.0
5,8.412999868392944,learn,60000.0,Thu Apr 10 2025 11:06:07 GMT-0500 (Central Daylight Time),629571.1000000238,A,queen,O,n,416,1,2397.2000000476837,627173.8999999762,7090,WL,C,3.0
5,8.846999883651733,learn,60000.0,Thu Apr 10 2025 11:06:07 GMT-0500 (Central Daylight Time),630004.3999999762,A,queenenter,O,enter,425,1,2830.5,627173.8999999762,7090,WL,C,3.0
5,9.613999843597412,learn,60000.0,Thu Apr 10 2025 11:06:07 GMT-0500 (Central Daylight Time),630771.7000000477,A,h,O,h,746,1,767.1000000238419,630004.6000000238,7090,WL,C,4.0
5,10.013999938964844,learn,60000.0,Thu Apr 10 2025 11:06:07 GMT-0500 (Central Daylight Time),631171.6000000238,A,ho,O,o,367,1,1167.0,630004.6000000238,7090,WL,C,4.0
5,10.429999828338623,learn,60000.0,Thu Apr 10 2025 11:06:07 GMT-0500 (Central Daylight Time),631588.2000000477,A,hom,O,m,375,1,1583.6000000238419,630004.6000000238,7090,WL,C,4.0
5,10.963000059127808,learn,60000.0,Thu Apr 10 2025 11:06:07 GMT-0500 (Central Daylight Time),632120.7999999523,A,home,O,e,503,1,2116.1999999284744,630004.6000000238,7090,WL,C,4.0
5,11.411999940872192,learn,60000.0,Thu Apr 10 2025 11:06:07 GMT-0500 (Central Daylight Time),632570.2000000477,A,homeenter,O,enter,420,1,2565.600000023842,630004.6000000238,7090,WL,C,4.0
5,12.19599986076355,learn,60000.0,Thu Apr 10 2025 11:06:07 GMT-0500 (Central Daylight Time),633354.1000000238,A,b,O,b,771,1,783.6000000238419,632570.5,7090,WL,C,5.0
5,12.628999948501587,learn,60000.0,Thu Apr 10 2025 11:06:07 GMT-0500 (Central Daylight Time),633787.3999999762,A,bo,O,o,400,1,1216.8999999761581,632570.5,7090,WL,C,5.0
5,13.145999908447266,learn,60000.0,Thu Apr 10 2025 11:06:07 GMT-0500 (Central Daylight Time),634303.7999999523,A,boy,O,y,480,1,1733.2999999523163,632570.5,7090,WL,C,5.0
5,13.711999893188477,learn,60000.0,Thu Apr 10 2025 11:06:07 GMT-0500 (Central Daylight Time),634869.3999999762,A,boyenter,O,enter,539,1,2298.899999976158,632570.5,7090,WL,C,5.0
5,14.577999830245972,learn,60000.0,Thu Apr 10 2025 11:06:07 GMT-0500 (Central Daylight Time),635735.7000000477,A,d,O,d,848,1,866.0,634869.7000000477,7090,WL,C,6.0
5,14.961999893188477,learn,60000.0,Thu Apr 10 2025 11:06:07 GMT-0500 (Central Daylight Time),636119.8999999762,A,do,O,o,366,1,1250.1999999284744,634869.7000000477,7090,WL,C,6.0
5,15.228999853134155,learn,60000.0,Thu Apr 10 2025 11:06:07 GMT-0500 (Central Daylight Time),636386.3999999762,A,doc,O,c,227,1,1516.6999999284744,634869.7000000477,7090,WL,C,6.0
5,15.494999885559082,learn,60000.0,Thu Apr 10 2025 11:06:07 GMT-0500 (Central Daylight Time),636653.1000000238,A,doct,O,t,232,1,1783.3999999761581,634869.7000000477,7090,WL,C,6.0
5,15.84500002861023,learn,60000.0,Thu Apr 10 2025 11:06:07 GMT-0500 (Central Daylight Time),637002.6000000238,A,docto,O,o,318,1,2132.899999976158,634869.7000000477,7090,WL,C,6.0
5,16.76099991798401,learn,60000.0,Thu Apr 10 2025 11:06:07 GMT-0500 (Central Daylight Time),637919.2999999523,A,doctor,O,r,893,1,3049.5999999046326,634869.7000000477,7090,WL,C,6.0
5,17.509999990463257,learn,60000.0,Thu Apr 10 2025 11:06:07 GMT-0500 (Central Daylight Time),638668.2000000477,A,doctorenter,O,enter,715,1,3798.5,634869.7000000477,7090,WL,C,6.0
5,18.060999870300293,learn,60000.0,Thu Apr 10 2025 11:06:07 GMT-0500 (Central Daylight Time),639219.3999999762,A,c,O,c,537,1,550.8999999761581,638668.5,7090,WL,C,7.0
5,18.376999855041504,learn,60000.0,Thu Apr 10 2025 11:06:07 GMT-0500 (Central Daylight Time),639535.2999999523,A,ca,O,a,287,1,866.7999999523163,638668.5,7090,WL,C,7.0
5,18.776999950408936,learn,60000.0,Thu Apr 10 2025 11:06:07 GMT-0500 (Central Daylight Time),639935.2999999523,A,cam,O,m,364,1,1266.7999999523163,638668.5,7090,WL,C,7.0
5,19.444000005722046,learn,60000.0,Thu Apr 10 2025 11:06:07 GMT-0500 (Central Daylight Time),640601.6000000238,A,camp,O,p,635,1,1933.1000000238419,638668.5,7090,WL,C,7.0
5,20.259999990463257,learn,60000.0,Thu Apr 10 2025 11:06:07 GMT-0500 (Central Daylight Time),641417.7999999523,A,campenter,O,enter,784,1,2749.2999999523163,638668.5,7090,WL,C,7.0
5,23.741999864578247,learn,60000.0,Thu Apr 10 2025 11:06:07 GMT-0500 (Central Daylight Time),644900.2999999523,A,l,O,l,3460,1,3482.1999999284744,641418.1000000238,7090,WL,C,8.0
5,24.075999975204468,learn,60000.0,Thu Apr 10 2025 11:06:07 GMT-0500 (Central Daylight Time),645233.5,A,le,O,e,300,1,3815.399999976158,641418.1000000238,7090,WL,C,8.0
5,24.47499990463257,learn,60000.0,Thu Apr 10 2025 11:06:07 GMT-0500 (Central Daylight Time),645632.7999999523,A,let,O,t,367,1,4214.699999928474,641418.1000000238,7090,WL,C,8.0
5,24.691999912261963,learn,60000.0,Thu Apr 10 2025 11:06:07 GMT-0500 (Central Daylight Time),645850.2000000477,A,lett,O,t,199,1,4432.100000023842,641418.1000000238,7090,WL,C,8.0
5,25.092000007629395,learn,60000.0,Thu Apr 10 2025 11:06:07 GMT-0500 (Central Daylight Time),646249.8999999762,A,lette,O,e,367,1,4831.799999952316,641418.1000000238,7090,WL,C,8.0
5,25.79200005531311,learn,60000.0,Thu Apr 10 2025 11:06:07 GMT-0500 (Central Daylight Time),646949.6000000238,A,letter,O,r,665,1,5531.5,641418.1000000238,7090,WL,C,8.0
5,27.0239999294281,learn,60000.0,Thu Apr 10 2025 11:06:07 GMT-0500 (Central Daylight Time),648181.7000000477,A,letterenter,O,enter,1207,1,6763.600000023842,641418.1000000238,7090,WL,C,8.0
5,27.7739999294281,learn,60000.0,Thu Apr 10 2025 11:06:07 GMT-0500 (Central Daylight Time),648932.3999999762,A,f,O,f,736,1,750.5,648181.8999999762,7090,WL,C,9.0
5,28.090999841690063,learn,60000.0,Thu Apr 10 2025 11:06:07 GMT-0500 (Central Daylight Time),649248.8999999762,A,fl,O,l,285,1,1067.0,648181.8999999762,7090,WL,C,9.0
5,28.723999977111816,learn,60000.0,Thu Apr 10 2025 11:06:07 GMT-0500 (Central Daylight Time),649882.1000000238,A,fla,O,a,601,1,1700.2000000476837,648181.8999999762,7090,WL,C,9.0
5,29.639999866485596,learn,60000.0,Thu Apr 10 2025 11:06:07 GMT-0500 (Central Daylight Time),650798.2999999523,A,flag,O,g,888,1,2616.399999976158,648181.8999999762,7090,WL,C,9.0
5,32.388999938964844,learn,60000.0,Thu Apr 10 2025 11:06:07 GMT-0500 (Central Daylight Time),653546.7000000477,A,flagenter,O,enter,2714,1,5364.800000071526,648181.8999999762,7090,WL,C,9.0
5,33.289000034332275,learn,60000.0,Thu Apr 10 2025 11:06:07 GMT-0500 (Central Daylight Time),654447.0,A,n,O,n,883,1,900.0,653547.0,7090,WL,C,10.0
5,33.65599989891052,learn,60000.0,Thu Apr 10 2025 11:06:07 GMT-0500 (Central Daylight Time),654813.5,A,na,O,a,341,1,1266.5,653547.0,7090,WL,C,10.0
5,34.055999994277954,learn,60000.0,Thu Apr 10 2025 11:06:07 GMT-0500 (Central Daylight Time),655213.7000000477,A,nai,O,i,378,1,1666.7000000476837,653547.0,7090,WL,C,10.0
5,34.621999979019165,learn,60000.0,Thu Apr 10 2025 11:06:07 GMT-0500 (Central Daylight Time),655780.2000000477,A,nail,O,l,526,1,2233.2000000476837,653547.0,7090,WL,C,10.0
5,35.73799991607666,learn,60000.0,Thu Apr 10 2025 11:06:07 GMT-0500 (Central Daylight Time),656895.5,A,nailenter,O,enter,1077,1,3348.5,653547.0,7090,WL,C,10.0
5,36.43899989128113,learn,60000.0,Thu Apr 10 2025 11:06:07 GMT-0500 (Central Daylight Time),657596.5,A,c,O,c,678,1,700.6000000238419,656895.8999999762,7090,WL,C,11.0
5,36.72199988365173,learn,60000.0,Thu Apr 10 2025 11:06:07 GMT-0500 (Central Daylight Time),657879.0,A,co,O,o,253,1,983.1000000238419,656895.8999999762,7090,WL,C,11.0
5,37.08899998664856,learn,60000.0,Thu Apr 10 2025 11:06:07 GMT-0500 (Central Daylight Time),658246.0,A,cor,O,r,343,1,1350.1000000238419,656895.8999999762,7090,WL,C,11.0
5,38.05499982833862,learn,60000.0,Thu Apr 10 2025 11:06:07 GMT-0500 (Central Daylight Time),659212.2999999523,A,corn,O,n,934,1,2316.399999976158,656895.8999999762,7090,WL,C,11.0
5,38.83800005912781,learn,60000.0,Thu Apr 10 2025 11:06:07 GMT-0500 (Central Daylight Time),659994.6000000238,A,cornenter,O,enter,742,1,3098.7000000476837,656895.8999999762,7090,WL,C,11.0
5,39.25499987602234,learn,60000.0,Thu Apr 10 2025 11:06:07 GMT-0500 (Central Daylight Time),660411.5,A,c,O,c,404,1,416.7000000476837,659994.7999999523,7090,WL,C,12.0
5,39.520999908447266,learn,60000.0,Thu Apr 10 2025 11:06:07 GMT-0500 (Central Daylight Time),660678.2000000477,A,ca,O,a,240,1,683.4000000953674,659994.7999999523,7090,WL,C,12.0
5,39.855000019073486,learn,60000.0,Thu Apr 10 2025 11:06:07 GMT-0500 (Central Daylight Time),661012.0,A,cat,O,t,297,1,1017.2000000476837,659994.7999999523,7090,WL,C,12.0
5,40.037999868392944,learn,60000.0,Thu Apr 10 2025 11:06:07 GMT-0500 (Central Daylight Time),661195.2000000477,A,catt,O,t,141,1,1200.4000000953674,659994.7999999523,7090,WL,C,12.0
5,40.454999923706055,learn,60000.0,Thu Apr 10 2025 11:06:07 GMT-0500 (Central Daylight Time),661611.6000000238,A,cattl,O,l,384,1,1616.8000000715256,659994.7999999523,7090,WL,C,12.0
5,40.853999853134155,learn,60000.0,Thu Apr 10 2025 11:06:07 GMT-0500 (Central Daylight Time),662011.2999999523,A,cattle,O,e,367,1,2016.5,659994.7999999523,7090,WL,C,12.0
5,41.204999923706055,learn,60000.0,Thu Apr 10 2025 11:06:07 GMT-0500 (Central Daylight Time),662361.2000000477,A,cattleenter,O,enter,314,1,2366.4000000953674,659994.7999999523,7090,WL,C,12.0
5,41.6710000038147,learn,60000.0,Thu Apr 10 2025 11:06:07 GMT-0500 (Central Daylight Time),662828.0,A,s,O,s,453,1,466.39999997615814,662361.6000000238,7090,WL,C,13.0
5,41.97000002861023,learn,60000.0,Thu Apr 10 2025 11:06:07 GMT-0500 (Central Daylight Time),663127.2000000477,A,sh,O,h,262,1,765.6000000238419,662361.6000000238,7090,WL,C,13.0
5,42.270999908447266,learn,60000.0,Thu Apr 10 2025 11:06:07 GMT-0500 (Central Daylight Time),663427.6000000238,A,sho,O,o,268,1,1066.0,662361.6000000238,7090,WL,C,13.0
5,42.50399994850159,learn,60000.0,Thu Apr 10 2025 11:06:07 GMT-0500 (Central Daylight Time),663660.8999999762,A,shor,O,r,200,1,1299.2999999523163,662361.6000000238,7090,WL,C,13.0
5,43.33699989318848,learn,60000.0,Thu Apr 10 2025 11:06:07 GMT-0500 (Central Daylight Time),664494.0,A,shore,O,e,802,1,2132.399999976158,662361.6000000238,7090,WL,C,13.0
5,44.55299997329712,learn,60000.0,Thu Apr 10 2025 11:06:07 GMT-0500 (Central Daylight Time),665709.3999999762,A,shoreenter,O,enter,1187,1,3347.7999999523163,662361.6000000238,7090,WL,C,13.0
5,45.6029999256134,learn,60000.0,Thu Apr 10 2025 11:06:07 GMT-0500 (Central Daylight Time),666759.7999999523,A,b,O,b,1040,1,1050.1999999284744,665709.6000000238,7090,WL,C,14.0
5,45.90299987792969,learn,60000.0,Thu Apr 10 2025 11:06:07 GMT-0500 (Central Daylight Time),667059.8999999762,A,bo,O,o,259,1,1350.2999999523163,665709.6000000238,7090,WL,C,14.0
5,46.15299987792969,learn,60000.0,Thu Apr 10 2025 11:06:07 GMT-0500 (Central Daylight Time),667309.5,A,bod,O,d,222,1,1599.8999999761581,665709.6000000238,7090,WL,C,14.0
5,46.503000020980835,learn,60000.0,Thu Apr 10 2025 11:06:07 GMT-0500 (Central Daylight Time),667659.5,A,body,O,y,317,1,1949.8999999761581,665709.6000000238,7090,WL,C,14.0
5,47.03499984741211,learn,60000.0,Thu Apr 10 2025 11:06:07 GMT-0500 (Central Daylight Time),668191.8999999762,A,bodyenter,O,enter,495,1,2482.2999999523163,665709.6000000238,7090,WL,C,14.0
5,54.59999990463257,learn,60000.0,Thu Apr 10 2025 11:06:07 GMT-0500 (Central Daylight Time),675756.8999999762,A,f,O,f,7550,1,7564.799999952316,668192.1000000238,7090,WL,C,15.0
5,54.83299994468689,learn,60000.0,Thu Apr 10 2025 11:06:07 GMT-0500 (Central Daylight Time),675990.2000000477,A,fl,O,l,197,1,7798.100000023842,668192.1000000238,7090,WL,C,15.0
5,55.0,learn,60000.0,Thu Apr 10 2025 11:06:07 GMT-0500 (Central Daylight Time),676156.7000000477,A,fla,O,a,135,1,7964.600000023842,668192.1000000238,7090,WL,C,15.0
5,55.68299984931946,learn,60000.0,Thu Apr 10 2025 11:06:07 GMT-0500 (Central Daylight Time),676840.0,A,flag,O,g,666,1,8647.899999976158,668192.1000000238,7090,WL,C,15.0
5,55.865999937057495,learn,60000.0,Thu Apr 10 2025 11:06:07 GMT-0500 (Central Daylight Time),677022.3999999762,A,flagenter,O,enter,155,1,8830.299999952316,668192.1000000238,7090,WL,C,15.0
6,2.0,distr,58000.0,Thu Apr 10 2025 11:06:07 GMT-0500 (Central Daylight Time),755997.3999999762,B,t,O,t,1966,1,1998.8999999761581,753998.5,7090,WL,C,1.0
6,2.5989999771118164,distr,57401.00002288818,Thu Apr 10 2025 11:06:07 GMT-0500 (Central Daylight Time),756597.2000000477,B,to,O,o,565,1,2598.7000000476837,753998.5,7090,WL,C,1.0
6,3.0160000324249268,distr,56983.99996757507,Thu Apr 10 2025 11:06:07 GMT-0500 (Central Daylight Time),757013.5,B,too,O,o,391,1,3015.0,753998.5,7090,WL,C,1.0
6,3.4659998416900635,distr,56534.00015830994,Thu Apr 10 2025 11:06:07 GMT-0500 (Central Daylight Time),757463.5,B,tool,O,l,421,1,3465.0,753998.5,7090,WL,C,1.0
6,4.365000009536743,distr,55634.99999046326,Thu Apr 10 2025 11:06:07 GMT-0500 (Central Daylight Time),758362.2000000477,B,toolenter,O,enter,864,1,4363.700000047684,753998.5,7090,WL,C,1.0
6,5.332000017166138,distr,54667.99998283386,Thu Apr 10 2025 11:06:07 GMT-0500 (Central Daylight Time),759329.5,B,a,O,a,957,1,967.0,758362.5,7090,WL,C,2.0
6,5.681999921798706,distr,54318.000078201294,Thu Apr 10 2025 11:06:07 GMT-0500 (Central Daylight Time),759679.3999999762,B,am,O,m,324,1,1316.8999999761581,758362.5,7090,WL,C,2.0
6,6.2149999141693115,distr,53785.00008583069,Thu Apr 10 2025 11:06:07 GMT-0500 (Central Daylight Time),760212.3999999762,B,a,O,backspace,500,1,1849.8999999761581,758362.5,7090,WL,C,2.0
6,6.430999994277954,distr,53569.000005722046,Thu Apr 10 2025 11:06:07 GMT-0500 (Central Daylight Time),760429.0,B,,O,backspace,176,1,2066.5,758362.5,7090,WL,C,2.0
6,7.297999858856201,distr,52702.0001411438,Thu Apr 10 2025 11:06:07 GMT-0500 (Central Daylight Time),761295.3999999762,B,p,O,p,832,1,2932.899999976158,758362.5,7090,WL,C,2.0
6,7.5309998989105225,distr,52469.00010108948,Thu Apr 10 2025 11:06:07 GMT-0500 (Central Daylight Time),761528.7999999523,B,pl,O,l,194,1,3166.2999999523163,758362.5,7090,WL,C,2.0
6,7.763999938964844,distr,52236.000061035156,Thu Apr 10 2025 11:06:07 GMT-0500 (Central Daylight Time),761761.7999999523,B,pla,O,a,202,1,3399.2999999523163,758362.5,7090,WL,C,2.0
6,8.013999938964844,distr,51986.000061035156,Thu Apr 10 2025 11:06:07 GMT-0500 (Central Daylight Time),762011.8999999762,B,plan,O,n,214,1,3649.399999976158,758362.5,7090,WL,C,2.0
6,8.29699993133545,distr,51703.00006866455,Thu Apr 10 2025 11:06:07 GMT-0500 (Central Daylight Time),762295.2000000477,B,plant,O,t,245,1,3932.7000000476837,758362.5,7090,WL,C,2.0
6,8.629999876022339,distr,51370.00012397766,Thu Apr 10 2025 11:06:07 GMT-0500 (Central Daylight Time),762627.7000000477,B,plantenter,O,enter,306,1,4265.200000047684,758362.5,7090,WL,C,2.0
6,9.414000034332275,distr,50585.999965667725,Thu Apr 10 2025 11:06:07 GMT-0500 (Central Daylight Time),763411.2999999523,B,m,O,m,763,1,783.2999999523163,762628.0,7090,WL,C,3.0
6,9.648000001907349,distr,50351.99999809265,Thu Apr 10 2025 11:06:07 GMT-0500 (Central Daylight Time),763646.0,B,mo,O,o,207,1,1018.0,762628.0,7090,WL,C,3.0
6,9.914000034332275,distr,50085.999965667725,Thu Apr 10 2025 11:06:07 GMT-0500 (Central Daylight Time),763911.2999999523,B,mon,O,n,230,1,1283.2999999523163,762628.0,7090,WL,C,3.0
6,10.079999923706055,distr,49920.000076293945,Thu Apr 10 2025 11:06:07 GMT-0500 (Central Daylight Time),764077.8999999762,B,mone,O,e,132,1,1449.8999999761581,762628.0,7090,WL,C,3.0
6,10.396999835968018,distr,49603.00016403198,Thu Apr 10 2025 11:06:07 GMT-0500 (Central Daylight Time),764394.5,B,money,O,y,277,1,1766.5,762628.0,7090,WL,C,3.0
6,10.69700002670288,distr,49302.99997329712,Thu Apr 10 2025 11:06:07 GMT-0500 (Central Daylight Time),764694.2999999523,B,moneyenter,O,enter,272,1,2066.2999999523163,762628.0,7090,WL,C,3.0
6,11.079999923706055,distr,48920.000076293945,Thu Apr 10 2025 11:06:07 GMT-0500 (Central Daylight Time),765077.5,B,m,O,m,375,1,382.89999997615814,764694.6000000238,7090,WL,C,4.0
6,11.27999997138977,distr,48720.00002861023,Thu Apr 10 2025 11:06:07 GMT-0500 (Central Daylight Time),765277.6000000238,B,mo,O,o,175,1,583.0,764694.6000000238,7090,WL,C,4.0
6,11.513000011444092,distr,48486.99998855591,Thu Apr 10 2025 11:06:07 GMT-0500 (Central Daylight Time),765510.2999999523,B,mot,O,t,198,1,815.6999999284744,764694.6000000238,7090,WL,C,4.0
6,11.69599986076355,distr,48304.00013923645,Thu Apr 10 2025 11:06:07 GMT-0500 (Central Daylight Time),765693.7000000477,B,moth,O,h,167,1,999.1000000238419,764694.6000000238,7090,WL,C,4.0
6,11.863999843597412,distr,48136.00015640259,Thu Apr 10 2025 11:06:07 GMT-0500 (Central Daylight Time),765861.3999999762,B,mothe,O,e,145,1,1166.7999999523163,764694.6000000238,7090,WL,C,4.0
6,12.162999868392944,distr,47837.000131607056,Thu Apr 10 2025 11:06:07 GMT-0500 (Central Daylight Time),766160.3999999762,B,mother,O,r,262,1,1465.7999999523163,764694.6000000238,7090,WL,C,4.0
6,12.728999853134155,distr,47271.000146865845,Thu Apr 10 2025 11:06:07 GMT-0500 (Central Daylight Time),766726.2000000477,B,motherenter,O,enter,529,1,2031.6000000238419,764694.6000000238,7090,WL,C,4.0
6,13.328999996185303,distr,46671.0000038147,Thu Apr 10 2025 11:06:07 GMT-0500 (Central Daylight Time),767326.7999999523,B,v,O,v,583,1,600.2999999523163,766726.5,7090,WL,C,5.0
6,13.51199984550476,distr,46488.00015449524,Thu Apr 10 2025 11:06:07 GMT-0500 (Central Daylight Time),767509.8999999762,B,va,O,a,155,1,783.3999999761581,766726.5,7090,WL,C,5.0
6,13.711999893188477,distr,46288.00010681152,Thu Apr 10 2025 11:06:07 GMT-0500 (Central Daylight Time),767709.6000000238,B,val,O,l,163,1,983.1000000238419,766726.5,7090,WL,C,5.0
6,13.928999900817871,distr,46071.00009918213,Thu Apr 10 2025 11:06:07 GMT-0500 (Central Daylight Time),767926.7999999523,B,vall,O,l,189,1,1200.2999999523163,766726.5,7090,WL,C,5.0
6,14.161999940872192,distr,45838.00005912781,Thu Apr 10 2025 11:06:07 GMT-0500 (Central Daylight Time),768159.7999999523,B,valle,O,e,204,1,1433.2999999523163,766726.5,7090,WL,C,5.0
6,14.461999893188477,distr,45538.00010681152,Thu Apr 10 2025 11:06:07 GMT-0500 (Central Daylight Time),768459.5,B,valley,O,y,266,1,1733.0,766726.5,7090,WL,C,5.0
6,14.777999877929688,distr,45222.00012207031,Thu Apr 10 2025 11:06:07 GMT-0500 (Central Daylight Time),768775.5,B,valleyenter,O,enter,283,1,2049.0,766726.5,7090,WL,C,5.0
6,15.093999862670898,distr,44906.0001373291,Thu Apr 10 2025 11:06:07 GMT-0500 (Central Daylight Time),769092.0,B,s,O,s,310,1,316.2000000476837,768775.7999999523,7090,WL,C,6.0
6,15.394000053405762,distr,44605.99994659424,Thu Apr 10 2025 11:06:07 GMT-0500 (Central Daylight Time),769392.0,B,sk,O,k,280,1,616.2000000476837,768775.7999999523,7090,WL,C,6.0
6,15.876999855041504,distr,44123.000144958496,Thu Apr 10 2025 11:06:07 GMT-0500 (Central Daylight Time),769875.1000000238,B,sky,O,y,461,1,1099.3000000715256,768775.7999999523,7090,WL,C,6.0
6,16.74399995803833,distr,43256.00004196167,Thu Apr 10 2025 11:06:07 GMT-0500 (Central Daylight Time),770741.5,B,skyenter,O,enter,858,1,1965.7000000476837,768775.7999999523,7090,WL,C,6.0
6,17.227999925613403,distr,42772.0000743866,Thu Apr 10 2025 11:06:07 GMT-0500 (Central Daylight Time),771225.5,B,d,O,d,473,1,483.7999999523163,770741.7000000477,7090,WL,C,7.0
6,17.444000005722046,distr,42555.999994277954,Thu Apr 10 2025 11:06:07 GMT-0500 (Central Daylight Time),771442.1000000238,B,di,O,i,186,1,700.3999999761581,770741.7000000477,7090,WL,C,7.0
6,17.89400005340576,distr,42105.99994659424,Thu Apr 10 2025 11:06:07 GMT-0500 (Central Daylight Time),771892.1000000238,B,dia,O,a,417,1,1150.3999999761581,770741.7000000477,7090,WL,C,7.0
6,18.227999925613403,distr,41772.0000743866,Thu Apr 10 2025 11:06:07 GMT-0500 (Central Daylight Time),772225.2999999523,B,diam,O,m,294,1,1483.5999999046326,770741.7000000477,7090,WL,C,7.0
6,18.40999984741211,distr,41590.00015258789,Thu Apr 10 2025 11:06:07 GMT-0500 (Central Daylight Time),772407.8999999762,B,diamo,O,o,145,1,1666.1999999284744,770741.7000000477,7090,WL,C,7.0
6,18.72699999809265,distr,41273.00000190735,Thu Apr 10 2025 11:06:07 GMT-0500 (Central Daylight Time),772725.1000000238,B,diamon,O,n,295,1,1983.3999999761581,770741.7000000477,7090,WL,C,7.0
6,19.194000005722046,distr,40805.999994277954,Thu Apr 10 2025 11:06:07 GMT-0500 (Central Daylight Time),773191.7000000477,B,diamond,O,d,429,1,2450.0,770741.7000000477,7090,WL,C,7.0
6,19.993000030517578,distr,40006.99996948242,Thu Apr 10 2025 11:06:07 GMT-0500 (Central Daylight Time),773990.5,B,diamondenter,O,enter,771,1,3248.7999999523163,770741.7000000477,7090,WL,C,7.0
6,31.62399983406067,distr,28376.00016593933,Thu Apr 10 2025 11:06:07 GMT-0500 (Central Daylight Time),785620.8999999762,B,enter,O,enter,11623,1,11630.199999928474,773990.7000000477,7090,WL,C,8.0
6,32.674999952316284,distr,27325.000047683716,Thu Apr 10 2025 11:06:07 GMT-0500 (Central Daylight Time),786671.3999999762,B,enter,O,enter,1032,1,1050.1999999284744,785621.2000000477,7090,WL,C,9.0
6,33.02300000190735,distr,26976.99999809265,Thu Apr 10 2025 11:06:07 GMT-0500 (Central Daylight Time),787019.6000000238,B,enter,O,enter,334,1,347.89999997615814,786671.7000000477,7090,WL,C,10.0
6,33.388999938964844,distr,26611.000061035156,Thu Apr 10 2025 11:06:07 GMT-0500 (Central Daylight Time),787386.1000000238,B,enter,O,enter,345,1,366.3000000715256,787019.7999999523,7090,WL,C,11.0
6,33.75600004196167,distr,26243.99995803833,Thu Apr 10 2025 11:06:07 GMT-0500 (Central Daylight Time),787752.6000000238,B,enter,O,enter,347,1,366.3000000715256,787386.2999999523,7090,WL,C,12.0
6,34.12299990653992,distr,25877.000093460083,Thu Apr 10 2025 11:06:07 GMT-0500 (Central Daylight Time),788119.2000000477,B,enter,O,enter,349,1,366.3000000715256,787752.8999999762,7090,WL,C,13.0
6,34.57200002670288,distr,25427.99997329712,Thu Apr 10 2025 11:06:07 GMT-0500 (Central Daylight Time),788569.0,B,enter,O,enter,438,1,449.5,788119.5,7090,WL,C,14.0
6,35.039000034332275,distr,24960.999965667725,Thu Apr 10 2025 11:06:07 GMT-0500 (Central Daylight Time),789035.6000000238,B,enter,O,enter,460,1,466.2000000476837,788569.3999999762,7090,WL,C,15.0
7,0.9819998741149902,immed,59018.00012588501,Thu Apr 10 2025 11:06:07 GMT-0500 (Central Daylight Time),801598.1000000238,A,t,O,t,947,1,980.8999999761581,800617.2000000477,7090,WL,C,1.0
7,1.3499999046325684,immed,58650.00009536743,Thu Apr 10 2025 11:06:07 GMT-0500 (Central Daylight Time),801965.3999999762,A,to,O,o,351,1,1348.1999999284744,800617.2000000477,7090,WL,C,1.0
7,1.683000087738037,immed,58316.99991226196,Thu Apr 10 2025 11:06:07 GMT-0500 (Central Daylight Time),802298.7000000477,A,tow,O,w,293,1,1681.5,800617.2000000477,7090,WL,C,1.0
7,1.9660000801086426,immed,58033.99991989136,Thu Apr 10 2025 11:06:07 GMT-0500 (Central Daylight Time),802581.2999999523,A,towe,O,e,245,1,1964.0999999046326,800617.2000000477,7090,WL,C,1.0
7,2.5160000324249268,immed,57483.99996757507,Thu Apr 10 2025 11:06:07 GMT-0500 (Central Daylight Time),803131.7000000477,A,tower,O,r,517,1,2514.5,800617.2000000477,7090,WL,C,1.0
7,2.9819998741149902,immed,57018.00012588501,Thu Apr 10 2025 11:06:07 GMT-0500 (Central Daylight Time),803597.3999999762,A,towerenter,O,enter,430,1,2980.1999999284744,800617.2000000477,7090,WL,C,1.0
7,3.549999952316284,immed,56450.000047683716,Thu Apr 10 2025 11:06:07 GMT-0500 (Central Daylight Time),804165.5,A,w,O,w,562,1,567.8999999761581,803597.6000000238,7090,WL,C,2.0
7,3.931999921798706,immed,56068.000078201294,Thu Apr 10 2025 11:06:07 GMT-0500 (Central Daylight Time),804547.7999999523,A,wh,O,h,341,1,950.1999999284744,803597.6000000238,7090,WL,C,2.0
7,4.180999994277954,immed,55819.000005722046,Thu Apr 10 2025 11:06:07 GMT-0500 (Central Daylight Time),804796.8999999762,A,whe,O,e,214,1,1199.2999999523163,803597.6000000238,7090,WL,C,2.0
7,4.4649999141693115,immed,55535.00008583069,Thu Apr 10 2025 11:06:07 GMT-0500 (Central Daylight Time),805081.2000000477,A,whea,O,a,272,1,1483.6000000238419,803597.6000000238,7090,WL,C,2.0
7,4.881999969482422,immed,55118.00003051758,Thu Apr 10 2025 11:06:07 GMT-0500 (Central Daylight Time),805497.3999999762,A,wheat,O,t,386,1,1899.7999999523163,803597.6000000238,7090,WL,C,2.0
7,5.331000089645386,immed,54668.999910354614,Thu Apr 10 2025 11:06:07 GMT-0500 (Central Daylight Time),805946.6000000238,A,wheatenter,O,enter,418,1,2349.0,803597.6000000238,7090,WL,C,2.0
7,5.865000009536743,immed,54134.99999046326,Thu Apr 10 2025 11:06:07 GMT-0500 (Central Daylight Time),806480.7000000477,A,q,O,q,516,1,533.9000000953674,805946.7999999523,7090,WL,C,3.0
7,6.247999906539917,immed,53752.00009346008,Thu Apr 10 2025 11:06:07 GMT-0500 (Central Daylight Time),806863.7000000477,A,qu,O,u,344,1,916.9000000953674,805946.7999999523,7090,WL,C,3.0
7,6.497999906539917,immed,53502.00009346008,Thu Apr 10 2025 11:06:07 GMT-0500 (Central Daylight Time),807113.7999999523,A,que,O,e,212,1,1167.0,805946.7999999523,7090,WL,C,3.0
7,6.7820000648498535,immed,53217.99993515015,Thu Apr 10 2025 11:06:07 GMT-0500 (Central Daylight Time),807397.2999999523,A,quee,O,e,250,1,1450.5,805946.7999999523,7090,WL,C,3.0
7,7.581000089645386,immed,52418.999910354614,Thu Apr 10 2025 11:06:07 GMT-0500 (Central Daylight Time),808196.7999999523,A,queen,O,n,757,1,2250.0,805946.7999999523,7090,WL,C,3.0
7,8.096999883651733,immed,51903.00011634827,Thu Apr 10 2025 11:06:07 GMT-0500 (Central Daylight Time),808712.3999999762,A,queenenter,O,enter,477,1,2765.600000023842,805946.7999999523,7090,WL,C,3.0
7,8.879999876022339,immed,51120.00012397766,Thu Apr 10 2025 11:06:07 GMT-0500 (Central Daylight Time),809496.2000000477,A,h,O,h,765,1,783.5,808712.7000000477,7090,WL,C,4.0
7,9.147000074386597,immed,50852.9999256134,Thu Apr 10 2025 11:06:07 GMT-0500 (Central Daylight Time),809762.7999999523,A,ho,O,o,226,1,1050.0999999046326,808712.7000000477,7090,WL,C,4.0
7,9.496999979019165,immed,50503.000020980835,Thu Apr 10 2025 11:06:07 GMT-0500 (Central Daylight Time),810112.7999999523,A,hom,O,m,312,1,1400.0999999046326,808712.7000000477,7090,WL,C,4.0
7,9.930000066757202,immed,50069.9999332428,Thu Apr 10 2025 11:06:07 GMT-0500 (Central Daylight Time),810545.2000000477,A,home,O,e,393,1,1832.5,808712.7000000477,7090,WL,C,4.0
7,10.296000003814697,immed,49703.9999961853,Thu Apr 10 2025 11:06:07 GMT-0500 (Central Daylight Time),810911.7000000477,A,homeenter,O,enter,348,1,2199.0,808712.7000000477,7090,WL,C,4.0
7,10.912999868392944,immed,49087.000131607056,Thu Apr 10 2025 11:06:07 GMT-0500 (Central Daylight Time),811529.0,A,b,O,b,598,1,617.0,810912.0,7090,WL,C,5.0
7,11.395999908447266,immed,48604.000091552734,Thu Apr 10 2025 11:06:07 GMT-0500 (Central Daylight Time),812012.2000000477,A,bo,O,o,446,1,1100.2000000476837,810912.0,7090,WL,C,5.0
7,11.829999923706055,immed,48170.000076293945,Thu Apr 10 2025 11:06:07 GMT-0500 (Central Daylight Time),812445.7999999523,A,boy,O,y,413,1,1533.7999999523163,810912.0,7090,WL,C,5.0
7,12.229000091552734,immed,47770.999908447266,Thu Apr 10 2025 11:06:07 GMT-0500 (Central Daylight Time),812844.3999999762,A,boyenter,O,enter,365,1,1932.3999999761581,810912.0,7090,WL,C,5.0
7,12.645999908447266,immed,47354.000091552734,Thu Apr 10 2025 11:06:07 GMT-0500 (Central Daylight Time),813261.6000000238,A,f,O,f,410,1,416.89999997615814,812844.7000000477,7090,WL,C,6.0
7,12.911999940872192,immed,47088.00005912781,Thu Apr 10 2025 11:06:07 GMT-0500 (Central Daylight Time),813527.8999999762,A,fl,O,l,238,1,683.1999999284744,812844.7000000477,7090,WL,C,6.0
7,13.230000019073486,immed,46769.999980926514,Thu Apr 10 2025 11:06:07 GMT-0500 (Central Daylight Time),813845.6000000238,A,fla,O,a,299,1,1000.8999999761581,812844.7000000477,7090,WL,C,6.0
7,13.779000043869019,immed,46220.99995613098,Thu Apr 10 2025 11:06:07 GMT-0500 (Central Daylight Time),814394.7000000477,A,flag,O,g,510,1,1550.0,812844.7000000477,7090,WL,C,6.0
7,14.477999925613403,immed,45522.0000743866,Thu Apr 10 2025 11:06:07 GMT-0500 (Central Daylight Time),815093.6000000238,A,flagenter,O,enter,672,1,2248.899999976158,812844.7000000477,7090,WL,C,6.0
7,14.961999893188477,immed,45038.00010681152,Thu Apr 10 2025 11:06:07 GMT-0500 (Central Daylight Time),815577.6000000238,A,c,O,c,464,1,483.7000000476837,815093.8999999762,7090,WL,C,7.0
7,15.229000091552734,immed,44770.999908447266,Thu Apr 10 2025 11:06:07 GMT-0500 (Central Daylight Time),815844.2000000477,A,ca,O,a,226,1,750.3000000715256,815093.8999999762,7090,WL,C,7.0
7,15.545000076293945,immed,44454.999923706055,Thu Apr 10 2025 11:06:07 GMT-0500 (Central Daylight Time),816160.7999999523,A,cat,O,t,287,1,1066.8999999761581,815093.8999999762,7090,WL,C,7.0
7,15.744999885559082,immed,44255.00011444092,Thu Apr 10 2025 11:06:07 GMT-0500 (Central Daylight Time),816360.3999999762,A,catt,O,t,161,1,1266.5,815093.8999999762,7090,WL,C,7.0
7,16.07800006866455,immed,43921.99993133545,Thu Apr 10 2025 11:06:07 GMT-0500 (Central Daylight Time),816693.8999999762,A,cattl,O,l,306,1,1600.0,815093.8999999762,7090,WL,C,7.0
7,16.460999965667725,immed,43539.000034332275,Thu Apr 10 2025 11:06:07 GMT-0500 (Central Daylight Time),817077.2000000477,A,cattle,O,e,349,1,1983.3000000715256,815093.8999999762,7090,WL,C,7.0
7,16.776999950408936,immed,43223.000049591064,Thu Apr 10 2025 11:06:07 GMT-0500 (Central Daylight Time),817392.8999999762,A,cattleenter,O,enter,284,1,2299.0,815093.8999999762,7090,WL,C,7.0
7,17.062000036239624,immed,42937.999963760376,Thu Apr 10 2025 11:06:07 GMT-0500 (Central Daylight Time),817677.5,A,s,O,s,278,1,284.39999997615814,817393.1000000238,7090,WL,C,8.0
7,17.444000005722046,immed,42555.999994277954,Thu Apr 10 2025 11:06:07 GMT-0500 (Central Daylight Time),818060.2000000477,A,sh,O,h,350,1,667.1000000238419,817393.1000000238,7090,WL,C,8.0
7,17.76099991798401,immed,42239.00008201599,Thu Apr 10 2025 11:06:07 GMT-0500 (Central Daylight Time),818376.7000000477,A,sho,O,o,286,1,983.6000000238419,817393.1000000238,7090,WL,C,8.0
7,17.960999965667725,immed,42039.000034332275,Thu Apr 10 2025 11:06:07 GMT-0500 (Central Daylight Time),818576.6000000238,A,shor,O,r,170,1,1183.5,817393.1000000238,7090,WL,C,8.0
7,18.227999925613403,immed,41772.0000743866,Thu Apr 10 2025 11:06:07 GMT-0500 (Central Daylight Time),818843.2999999523,A,shore,O,e,237,1,1450.1999999284744,817393.1000000238,7090,WL,C,8.0
7,19.026000022888184,immed,40973.99997711182,Thu Apr 10 2025 11:06:07 GMT-0500 (Central Daylight Time),819642.1000000238,A,shoreenter,O,enter,766,1,2249.0,817393.1000000238,7090,WL,C,8.0
7,21.89299988746643,immed,38107.00011253357,Thu Apr 10 2025 11:06:07 GMT-0500 (Central Daylight Time),822508.7000000477,A,n,O,n,2845,1,2866.3000000715256,819642.3999999762,7090,WL,C,9.0
7,22.125999927520752,immed,37874.00007247925,Thu Apr 10 2025 11:06:07 GMT-0500 (Central Daylight Time),822741.7999999523,A,na,O,a,204,1,3099.399999976158,819642.3999999762,7090,WL,C,9.0
7,22.39199995994568,immed,37608.00004005432,Thu Apr 10 2025 11:06:07 GMT-0500 (Central Daylight Time),823008.0,A,nai,O,i,229,1,3365.600000023842,819642.3999999762,7090,WL,C,9.0
7,22.858999967575073,immed,37141.00003242493,Thu Apr 10 2025 11:06:07 GMT-0500 (Central Daylight Time),823475.2000000477,A,nail,O,l,445,1,3832.8000000715256,819642.3999999762,7090,WL,C,9.0
7,23.47499990463257,immed,36525.00009536743,Thu Apr 10 2025 11:06:07 GMT-0500 (Central Daylight Time),824090.7000000477,A,nailenter,O,enter,575,1,4448.300000071526,819642.3999999762,7090,WL,C,9.0
7,23.7260000705719,immed,36273.9999294281,Thu Apr 10 2025 11:06:07 GMT-0500 (Central Daylight Time),824341.5,A,c,O,c,244,1,250.5,824091.0,7090,WL,C,10.0
7,23.941999912261963,immed,36058.00008773804,Thu Apr 10 2025 11:06:07 GMT-0500 (Central Daylight Time),824557.7999999523,A,co,O,o,190,1,466.7999999523163,824091.0,7090,WL,C,10.0
7,24.20899987220764,immed,35791.00012779236,Thu Apr 10 2025 11:06:07 GMT-0500 (Central Daylight Time),824824.5,A,cor,O,r,237,1,733.5,824091.0,7090,WL,C,10.0
7,24.79200005531311,immed,35207.99994468689,Thu Apr 10 2025 11:06:07 GMT-0500 (Central Daylight Time),825407.7999999523,A,corn,O,n,555,1,1316.7999999523163,824091.0,7090,WL,C,10.0
7,25.14199995994568,immed,34858.00004005432,Thu Apr 10 2025 11:06:07 GMT-0500 (Central Daylight Time),825758.0,A,cornenter,O,enter,320,1,1667.0,824091.0,7090,WL,C,10.0
7,25.47499990463257,immed,34525.00009536743,Thu Apr 10 2025 11:06:07 GMT-0500 (Central Daylight Time),826090.7000000477,A,b,O,b,320,1,332.5,825758.2000000477,7090,WL,C,11.0
7,25.7260000705719,immed,34273.9999294281,Thu Apr 10 2025 11:06:07 GMT-0500 (Central Daylight Time),826341.2999999523,A,bo,O,o,220,1,583.0999999046326,825758.2000000477,7090,WL,C,11.0
7,26.007999897003174,immed,33992.000102996826,Thu Apr 10 2025 11:06:07 GMT-0500 (Central Daylight Time),826624.0,A,bod,O,d,252,1,865.7999999523163,825758.2000000477,7090,WL,C,11.0
7,26.691999912261963,immed,33308.00008773804,Thu Apr 10 2025 11:06:07 GMT-0500 (Central Daylight Time),827307.3999999762,A,body,O,y,641,1,1549.1999999284744,825758.2000000477,7090,WL,C,11.0
7,27.657000064849854,immed,32342.999935150146,Thu Apr 10 2025 11:06:07 GMT-0500 (Central Daylight Time),828272.7000000477,A,bodyenter,O,enter,928,1,2514.5,825758.2000000477,7090,WL,C,11.0
7,28.256999969482422,immed,31743.000030517578,Thu Apr 10 2025 11:06:07 GMT-0500 (Central Daylight Time),828873.0,A,d,O,d,581,1,600.0,828273.0,7090,WL,C,12.0
7,28.558000087738037,immed,31441.999912261963,Thu Apr 10 2025 11:06:07 GMT-0500 (Central Daylight Time),829173.2999999523,A,do,O,o,271,1,900.2999999523163,828273.0,7090,WL,C,12.0
7,28.806999921798706,immed,31193.000078201294,Thu Apr 10 2025 11:06:07 GMT-0500 (Central Daylight Time),829423.2000000477,A,doc,O,c,221,1,1150.2000000476837,828273.0,7090,WL,C,12.0
7,29.073999881744385,immed,30926.000118255615,Thu Apr 10 2025 11:06:07 GMT-0500 (Central Daylight Time),829689.7999999523,A,doct,O,t,236,1,1416.7999999523163,828273.0,7090,WL,C,12.0
7,29.240000009536743,immed,30759.999990463257,Thu Apr 10 2025 11:06:07 GMT-0500 (Central Daylight Time),829856.2000000477,A,docto,O,o,127,1,1583.2000000476837,828273.0,7090,WL,C,12.0
7,29.490999937057495,immed,30509.000062942505,Thu Apr 10 2025 11:06:07 GMT-0500 (Central Daylight Time),830106.6000000238,A,doctor,O,r,216,1,1833.6000000238419,828273.0,7090,WL,C,12.0
7,30.139999866485596,immed,29860.000133514404,Thu Apr 10 2025 11:06:07 GMT-0500 (Central Daylight Time),830755.2000000477,A,doctorenter,O,enter,615,1,2482.2000000476837,828273.0,7090,WL,C,12.0
7,32.60599994659424,immed,27394.00005340576,Thu Apr 10 2025 11:06:07 GMT-0500 (Central Daylight Time),833222.0,A,c,O,c,2452,1,2466.5,830755.5,7090,WL,C,13.0
7,32.805999994277954,immed,27194.000005722046,Thu Apr 10 2025 11:06:07 GMT-0500 (Central Daylight Time),833421.2999999523,A,ca,O,a,171,1,2665.7999999523163,830755.5,7090,WL,C,13.0
7,33.055999994277954,immed,26944.000005722046,Thu Apr 10 2025 11:06:07 GMT-0500 (Central Daylight Time),833671.7000000477,A,cam,O,m,225,1,2916.2000000476837,830755.5,7090,WL,C,13.0
7,33.289000034332275,immed,26710.999965667725,Thu Apr 10 2025 11:06:07 GMT-0500 (Central Daylight Time),833905.1000000238,A,camp,O,p,199,1,3149.600000023842,830755.5,7090,WL,C,13.0
7,33.98799991607666,immed,26012.00008392334,Thu Apr 10 2025 11:06:07 GMT-0500 (Central Daylight Time),834604.0,A,campenter,O,enter,665,1,3848.5,830755.5,7090,WL,C,13.0
7,43.65400004386902,immed,16345.999956130981,Thu Apr 10 2025 11:06:07 GMT-0500 (Central Daylight Time),844268.3999999762,A,enter,O,enter,9641,1,9664.199999928474,834604.2000000477,7090,WL,C,14.0
7,44.11899995803833,immed,15881.00004196167,Thu Apr 10 2025 11:06:07 GMT-0500 (Central Daylight Time),844733.8999999762,A,enter,O,enter,456,1,465.1999999284744,844268.7000000477,7090,WL,C,15.0
