acc_sum,block,block_c,condition,correct,correct_response,datetime,endtime,flanker,jitter,project,response,response_test_buffer_response,response_test_target_response,response_time,response_time_test_buffer_response,response_time_test_target_response,row_sel,session_number,start_end,starttime,subject_id,target,task,task_vers,time_test_buffer,time_test_buffer_response,time_test_constants,time_test_flanker,time_test_jitter,time_test_logger,time_test_target,time_test_target_response,time_test_variables,trial
1,prac,1,inc,1,m,Thu Mar 27 2025 13:33:33 GMT-0500 (Central Daylight Time),153258.5,pear,900,I,m,,,1355,,,14,1,3560.400000035763,149698.09999996424,7092,iron,NF,C,,,,,,,,,,1
2,prac,1,con,1,m,Thu Mar 27 2025 13:33:33 GMT-0500 (Central Daylight Time),156374.30000001192,zinc,1000,I,m,,,794,,,15,1,3090.100000023842,153284.19999998808,7092,zinc,NF,C,,,,,,,,,,2
3,prac,1,inc,1,m,Thu Mar 27 2025 13:33:33 GMT-0500 (Central Daylight Time),159723.0,raisin,1100,I,m,,,914,,,12,1,3322.400000035763,156400.59999996424,7092,cobalt,NF,C,,,,,,,,,,3
4,prac,1,con,1,z,Thu Mar 27 2025 13:33:33 GMT-0500 (Central Daylight Time),162737.59999996424,orange,1000,I,z,,,688,,,3,1,2991.5,159746.09999996424,7092,orange,NF,C,,,,,,,,,,4
5,prac,1,con,1,z,Thu Mar 27 2025 13:33:33 GMT-0500 (Central Daylight Time),165487.59999996424,kiwi,1000,I,z,,,443,,,7,1,2743.399999976158,162744.19999998808,7092,kiwi,NF,C,,,,,,,,,,5
6,prac,1,inc,1,z,Thu Mar 27 2025 13:33:33 GMT-0500 (Central Daylight Time),168436.80000001192,copper,900,I,z,,,720,,,2,1,2923.900000035763,165512.89999997616,7092,cherry,NF,C,,,,,,,,,,6
7,prac,1,con,1,m,Thu Mar 27 2025 13:33:33 GMT-0500 (Central Daylight Time),171169.09999996424,gold,800,I,m,,,601,,,13,1,2708.599999964237,168460.5,7092,gold,NF,C,,,,,,,,,,7
8,prac,1,con,1,m,Thu Mar 27 2025 13:33:33 GMT-0500 (Central Daylight Time),174151.39999997616,silver,1000,I,m,,,659,,,11,1,2959.0,171192.39999997616,7092,silver,NF,C,,,,,,,,,,8
9,prac,1,con,1,m,Thu Mar 27 2025 13:33:33 GMT-0500 (Central Daylight Time),177117.5,bronze,800,I,m,,,837,,,9,1,2943.300000011921,174174.19999998808,7092,bronze,NF,C,,,,,,,,,,9
10,prac,1,con,1,z,Thu Mar 27 2025 13:33:33 GMT-0500 (Central Daylight Time),179966.0,banana,800,I,z,,,719,,,1,1,2824.5,177141.5,7092,banana,NF,C,,,,,,,,,,10
11,prac,1,inc,1,z,Thu Mar 27 2025 13:33:33 GMT-0500 (Central Daylight Time),183398.59999996424,lead,1100,I,z,,,1002,,,8,1,3407.199999988079,179991.39999997616,7092,plum,NF,C,,,,,,,,,,11
12,prac,1,con,1,z,Thu Mar 27 2025 13:33:33 GMT-0500 (Central Daylight Time),186130.80000001192,lime,800,I,z,,,606,,,5,1,2712.800000011921,183418.0,7092,lime,NF,C,,,,,,,,,,12
13,prac,1,inc,1,m,Thu Mar 27 2025 13:33:33 GMT-0500 (Central Daylight Time),189546.30000001192,plum,1100,I,m,,,982,,,16,1,3393.100000023842,186153.19999998808,7092,lead,NF,C,,,,,,,,,,13
14,prac,1,inc,1,z,Thu Mar 27 2025 13:33:33 GMT-0500 (Central Daylight Time),192678.39999997616,cobalt,1100,I,z,,,710,,,4,1,3110.5,189567.89999997616,7092,raisin,NF,C,,,,,,,,,,14
15,prac,1,inc,1,z,Thu Mar 27 2025 13:33:33 GMT-0500 (Central Daylight Time),195810.89999997616,iron,900,I,z,,,913,,,6,1,3109.5,192701.39999997616,7092,pear,NF,C,,,,,,,,,,15
16,prac,1,inc,1,m,Thu Mar 27 2025 13:33:33 GMT-0500 (Central Daylight Time),198760.0,cherry,900,I,m,,,726,,,10,1,2926.400000035763,195833.59999996424,7092,copper,NF,C,,,,,,,,,,16
1,test,1,inc,1,z,Thu Mar 27 2025 13:33:33 GMT-0500 (Central Daylight Time),219520.0,silver,1000,I,z,z,None,711,512.0,199.0,7,1,2243.600000023842,217276.39999997616,7092,banana,NF,C,213615,213615,211887,212899,211890,214131,213415,213415,214131,1
2,test,1,con,1,z,Thu Mar 27 2025 13:33:33 GMT-0500 (Central Daylight Time),221736.0,kiwi,1100,I,z,z,None,561,362.0,199.0,52,1,2197.5,219538.5,7092,kiwi,NF,C,215981,215981,214149,215265,214151,216347,215781,215781,216347,2
3,test,1,inc,1,m,Thu Mar 27 2025 13:33:33 GMT-0500 (Central Daylight Time),223751.80000001192,cherry,900,I,m,m,None,561,362.0,199.0,78,1,1994.0,221757.80000001192,7092,copper,NF,C,217997,217997,216369,217281,216370,218363,217797,217797,218363,3
4,test,1,con,1,m,Thu Mar 27 2025 13:33:33 GMT-0500 (Central Daylight Time),226184.30000001192,zinc,1100,I,m,m,None,777,578.0,199.0,116,1,2411.5,223772.80000001192,7092,zinc,NF,C,220213,220213,218384,219497,218386,220795,220013,220013,220795,4
5,test,1,con,1,m,Thu Mar 27 2025 13:33:33 GMT-0500 (Central Daylight Time),228833.5,silver,800,I,m,m,None,1284,1069.0,215.0,81,1,2627.600000023842,226205.89999997616,7092,silver,NF,C,222362,222362,220817,221629,220819,223445,222146,222146,223444,5
6,test,1,con,1,m,Thu Mar 27 2025 13:33:33 GMT-0500 (Central Daylight Time),231099.09999996424,copper,900,I,m,m,None,799,600.0,199.0,74,1,2243.199999988079,228855.89999997616,7092,copper,NF,C,225094,225095,223467,224378,223469,225710,224895,224895,225710,6
7,test,1,con,1,m,Thu Mar 27 2025 13:33:33 GMT-0500 (Central Daylight Time),233431.19999998808,silver,1100,I,m,m,None,677,478.0,199.0,84,1,2309.899999976158,231121.30000001192,7092,silver,NF,C,227560,227560,225732,226844,225734,228042,227361,227361,228042,7
8,test,1,inc,1,m,Thu Mar 27 2025 13:33:33 GMT-0500 (Central Daylight Time),235831.19999998808,plum,1100,I,m,m,None,761,546.0,215.0,112,1,2394.100000023842,233437.09999996424,7092,iron,NF,C,229893,229893,228048,229160,228049,230442,229677,229677,230442,8
9,test,1,con,1,z,Thu Mar 27 2025 13:33:33 GMT-0500 (Central Daylight Time),238130.30000001192,lime,1100,I,z,z,None,641,426.0,215.0,36,1,2278.0,235852.30000001192,7092,lime,NF,C,232309,232309,230463,231576,230465,232741,232092,232093,232741,9
10,test,1,inc,1,z,Thu Mar 27 2025 13:33:33 GMT-0500 (Central Daylight Time),240196.5,bronze,800,I,z,z,None,699,500.0,199.0,13,1,2043.1000000238419,238153.39999997616,7092,cherry,NF,C,234291,234292,232764,233575,232766,234808,234092,234092,234807,10
11,test,1,con,1,m,Thu Mar 27 2025 13:33:33 GMT-0500 (Central Daylight Time),242562.19999998808,copper,1100,I,m,m,None,702,502.0,200.0,76,1,2343.5,240218.69999998808,7092,copper,NF,C,236657,236657,234830,235941,234832,237173,236456,236456,237173,11
11,test,1,con,0,z,Thu Mar 27 2025 13:33:33 GMT-0500 (Central Daylight Time),244478.09999996424,cherry,800,I,m,m,None,562,347.0,215.0,9,1,1893.699999988079,242584.39999997616,7092,cherry,NF,C,238740,238740,237195,238006,237197,239089,238524,238524,239089,12
12,test,1,inc,1,m,Thu Mar 27 2025 13:33:33 GMT-0500 (Central Daylight Time),246794.19999998808,lime,800,I,m,m,None,965,751.0,214.0,125,1,2298.100000023842,244496.09999996424,7092,lead,NF,C,240639,240640,239107,239923,239108,241405,240425,240425,241405,13
13,test,1,inc,1,z,Thu Mar 27 2025 13:33:33 GMT-0500 (Central Daylight Time),249142.59999996424,zinc,1000,I,z,z,None,786,587.0,199.0,47,1,2325.099999964237,246817.5,7092,pear,NF,C,243155,243155,241429,242439,241432,243754,242956,242956,243754,14
14,test,1,inc,1,m,Thu Mar 27 2025 13:33:33 GMT-0500 (Central Daylight Time),251493.30000001192,kiwi,1000,I,m,m,None,814,615.0,199.0,111,1,2343.0,249150.30000001192,7092,iron,NF,C,245488,245488,243761,244770,243762,246104,245288,245288,246104,15
15,test,1,inc,1,m,Thu Mar 27 2025 13:33:33 GMT-0500 (Central Daylight Time),254075.19999998808,lime,800,I,m,m,None,1224,1025.0,199.0,109,1,2560.399999976158,251514.80000001192,7092,iron,NF,C,247654,247654,246126,246938,246127,248686,247454,247454,248686,16
16,test,1,con,1,m,Thu Mar 27 2025 13:33:33 GMT-0500 (Central Daylight Time),256257.80000001192,cobalt,800,I,m,m,None,817,602.0,215.0,89,1,2160.400000035763,254097.39999997616,7092,cobalt,NF,C,250253,250253,248708,249520,248709,250869,250037,250037,250869,17
17,test,1,con,1,m,Thu Mar 27 2025 13:33:33 GMT-0500 (Central Daylight Time),258623.5,gold,1100,I,m,m,None,711,512.0,199.0,100,1,2344.199999988079,256279.30000001192,7092,gold,NF,C,252719,252719,250890,252003,250892,253235,252519,252519,253234,18
18,test,1,con,1,z,Thu Mar 27 2025 13:33:33 GMT-0500 (Central Daylight Time),260756.30000001192,lime,800,I,z,z,None,773,574.0,199.0,33,1,2111.600000023842,258644.69999998808,7092,lime,NF,C,254785,254785,253256,254068,253258,255367,254585,254585,255367,19
19,test,1,con,1,m,Thu Mar 27 2025 13:33:33 GMT-0500 (Central Daylight Time),263105.59999996424,silver,1000,I,m,m,None,784,569.0,215.0,83,1,2325.599999964237,260780.0,7092,silver,NF,C,257134,257134,255391,256400,255393,257717,256918,256918,257717,20
20,test,1,con,1,m,Thu Mar 27 2025 13:33:33 GMT-0500 (Central Daylight Time),265537.8000000119,gold,800,I,m,m,None,1067,868.0,199.0,97,1,2410.800000011921,263127.0,7092,gold,NF,C,259266,259267,257738,258550,257739,260149,259067,259067,260149,21
21,test,1,con,1,z,Thu Mar 27 2025 13:33:33 GMT-0500 (Central Daylight Time),267687.0,banana,800,I,z,z,None,793,578.0,215.0,1,1,2123.400000035763,265563.59999996424,7092,banana,NF,C,261716,261716,260175,260983,260177,262298,261500,261500,262298,22
22,test,1,inc,1,z,Thu Mar 27 2025 13:33:33 GMT-0500 (Central Daylight Time),269720.0,copper,900,I,z,z,None,578,379.0,199.0,22,1,2018.4000000357628,267701.59999996424,7092,orange,NF,C,263948,263948,262313,263232,262314,264331,263749,263749,264331,23
23,test,1,inc,1,z,Thu Mar 27 2025 13:33:33 GMT-0500 (Central Daylight Time),272019.1999999881,copper,900,I,z,z,None,840,625.0,215.0,30,1,2276.699999988079,269742.5,7092,raisin,NF,C,265998,265998,264354,265265,264355,266630,265782,265782,266630,24
24,test,1,inc,1,m,Thu Mar 27 2025 13:33:33 GMT-0500 (Central Daylight Time),274651.59999996424,raisin,1100,I,m,m,None,973,758.0,215.0,88,1,2614.0,272037.59999996424,7092,silver,NF,C,268497,268497,266649,267764,266650,269263,268281,268281,269263,25
25,test,1,inc,1,m,Thu Mar 27 2025 13:33:33 GMT-0500 (Central Daylight Time),277167.1999999881,banana,800,I,m,m,None,1161,962.0,199.0,85,1,2494.300000011921,274672.89999997616,7092,silver,NF,C,270813,270813,269284,270097,269286,271778,270613,270613,271778,26
26,test,1,inc,1,m,Thu Mar 27 2025 13:33:33 GMT-0500 (Central Daylight Time),279300.59999996424,cherry,900,I,m,m,None,682,483.0,199.0,94,1,2112.5,277188.09999996424,7092,cobalt,NF,C,273428,273428,271799,272712,271801,273912,273229,273229,273912,27
27,test,1,inc,1,z,Thu Mar 27 2025 13:33:33 GMT-0500 (Central Daylight Time),281765.59999996424,cobalt,1100,I,z,z,None,812,597.0,215.0,32,1,2443.599999964237,279322.0,7092,raisin,NF,C,275778,275778,273933,275045,273935,276377,275561,275562,276377,28
28,test,1,con,1,z,Thu Mar 27 2025 13:33:33 GMT-0500 (Central Daylight Time),283948.59999996424,plum,800,I,z,z,None,830,615.0,215.0,57,1,2163.699999988079,281784.89999997616,7092,plum,NF,C,277944,277944,276396,277211,276397,278560,277728,277728,278560,29
29,test,1,con,1,m,Thu Mar 27 2025 13:33:33 GMT-0500 (Central Daylight Time),286164.8000000119,copper,1000,I,m,m,None,648,449.0,199.0,75,1,2196.5,283968.3000000119,7092,copper,NF,C,280309,280310,278579,279593,278581,280776,280110,280110,280776,30
30,test,1,inc,1,z,Thu Mar 27 2025 13:33:33 GMT-0500 (Central Daylight Time),288513.8000000119,lead,1100,I,z,z,None,692,493.0,199.0,48,1,2329.100000023842,286184.6999999881,7092,pear,NF,C,282625,282626,280796,281909,280797,283125,282426,282426,283125,31
31,test,1,con,1,m,Thu Mar 27 2025 13:33:33 GMT-0500 (Central Daylight Time),290879.6999999881,cobalt,1100,I,m,m,None,711,512.0,199.0,92,1,2345.600000023842,288534.09999996424,7092,cobalt,NF,C,284975,284975,283145,284258,283146,285491,284775,284775,285491,32
32,test,1,con,1,m,Thu Mar 27 2025 13:33:33 GMT-0500 (Central Daylight Time),293195.6999999881,zinc,900,I,m,m,None,857,658.0,199.0,114,1,2296.0,290899.6999999881,7092,zinc,NF,C,287141,287141,285511,286424,285512,287807,286941,286941,287807,33
33,test,1,inc,1,m,Thu Mar 27 2025 13:33:33 GMT-0500 (Central Daylight Time),295878.0,orange,1000,I,m,m,None,1121,922.0,199.0,95,1,2662.699999988079,293215.3000000119,7092,cobalt,NF,C,289557,289557,287826,288840,287827,290489,289357,289357,290489,34
34,test,1,con,1,m,Thu Mar 27 2025 13:33:33 GMT-0500 (Central Daylight Time),298277.3000000119,lead,900,I,m,m,None,947,732.0,215.0,122,1,2378.800000011921,295898.5,7092,lead,NF,C,292156,292156,290509,291423,290511,292888,291940,291940,292888,35
35,test,1,inc,1,z,Thu Mar 27 2025 13:33:33 GMT-0500 (Central Daylight Time),300642.89999997616,lead,1100,I,z,z,None,699,500.0,199.0,40,1,2345.800000011921,298297.09999996424,7092,lime,NF,C,294739,294739,292908,294022,292910,295254,294539,294539,295254,36
36,test,1,inc,1,m,Thu Mar 27 2025 13:33:33 GMT-0500 (Central Daylight Time),302742.39999997616,banana,800,I,m,m,None,738,539.0,199.0,69,1,2079.399999976158,300663.0,7092,bronze,NF,C,296804,296804,295274,296088,295276,297353,296604,296604,297353,37
37,test,1,inc,1,z,Thu Mar 27 2025 13:33:33 GMT-0500 (Central Daylight Time),305225.09999996424,cobalt,1100,I,z,z,None,826,627.0,199.0,16,1,2462.0,302763.09999996424,7092,cherry,NF,C,299204,299204,297374,298487,297376,299836,299004,299004,299836,38
38,test,1,inc,1,z,Thu Mar 27 2025 13:33:33 GMT-0500 (Central Daylight Time),307540.8000000119,iron,900,I,z,z,None,863,648.0,215.0,38,1,2294.300000011921,305246.5,7092,lime,NF,C,301503,301503,299858,300770,299858,302152,301287,301287,302152,39
39,test,1,inc,1,z,Thu Mar 27 2025 13:33:33 GMT-0500 (Central Daylight Time),309889.8000000119,iron,900,I,z,z,None,891,691.0,200.0,62,1,2327.7000000476837,307562.09999996424,7092,plum,NF,C,303804,303804,302173,303086,302175,304501,303603,303603,304501,40
40,test,1,con,1,z,Thu Mar 27 2025 13:33:33 GMT-0500 (Central Daylight Time),312122.6999999881,banana,1100,I,z,z,None,576,377.0,199.0,4,1,2213.0,309909.6999999881,7092,banana,NF,C,306351,306351,304521,305635,304522,306734,306151,306151,306734,41
41,test,1,inc,1,m,Thu Mar 27 2025 13:33:33 GMT-0500 (Central Daylight Time),314771.6999999881,orange,1000,I,m,m,None,1097,898.0,199.0,79,1,2628.300000011921,312143.39999997616,7092,copper,NF,C,308484,308484,306754,307767,306756,309383,308284,308284,309383,42
42,test,1,con,1,z,Thu Mar 27 2025 13:33:33 GMT-0500 (Central Daylight Time),317104.1999999881,kiwi,900,I,z,z,None,895,695.0,200.0,50,1,2320.5,314783.6999999881,7092,kiwi,NF,C,311016,311016,309395,310300,309396,311715,310816,310816,311715,43
43,test,1,inc,1,z,Thu Mar 27 2025 13:33:33 GMT-0500 (Central Daylight Time),319570.0,iron,900,I,z,z,None,1001,802.0,199.0,46,1,2445.199999988079,317124.8000000119,7092,pear,NF,C,313365,313365,311736,312649,311737,314181,313166,313166,314181,44
44,test,1,con,1,m,Thu Mar 27 2025 13:33:33 GMT-0500 (Central Daylight Time),321652.89999997616,zinc,800,I,m,m,None,722,523.0,199.0,113,1,2062.899999976158,319590.0,7092,zinc,NF,C,315732,315732,314201,315015,314203,316264,315532,315532,316264,45
45,test,1,inc,1,z,Thu Mar 27 2025 13:33:33 GMT-0500 (Central Daylight Time),323918.6999999881,zinc,1000,I,z,z,None,705,506.0,199.0,39,1,2246.0,321672.6999999881,7092,lime,NF,C,318013,318013,316284,317298,316285,318530,317814,317814,318530,46
46,test,1,inc,1,m,Thu Mar 27 2025 13:33:33 GMT-0500 (Central Daylight Time),326118.8000000119,pear,900,I,m,m,None,739,540.0,199.0,102,1,2177.100000023842,323941.6999999881,7092,gold,NF,C,320179,320179,318553,319463,318554,320730,319980,319980,320730,47
47,test,1,inc,1,m,Thu Mar 27 2025 13:33:33 GMT-0500 (Central Daylight Time),329166.59999996424,plum,1100,I,m,m,None,1395,1196.0,199.0,120,1,3027.599999964237,326139.0,7092,zinc,NF,C,322579,322579,320750,321863,320752,323778,322379,322379,323778,48
48,test,1,inc,1,z,Thu Mar 27 2025 13:33:33 GMT-0500 (Central Daylight Time),331399.5,silver,1000,I,z,z,None,677,462.0,215.0,23,1,2214.199999988079,329185.3000000119,7092,orange,NF,C,325545,325545,323796,324812,323797,326011,325328,325329,326010,49
49,test,1,con,1,m,Thu Mar 27 2025 13:33:33 GMT-0500 (Central Daylight Time),333965.3000000119,cobalt,1000,I,m,m,None,1013,814.0,199.0,91,1,2545.7000000476837,331419.59999996424,7092,cobalt,NF,C,327761,327761,326031,327044,326032,328576,327561,327561,328576,50
50,test,1,inc,1,z,Thu Mar 27 2025 13:33:33 GMT-0500 (Central Daylight Time),336364.6999999881,cobalt,1100,I,z,z,None,742,542.0,200.0,8,1,2379.600000023842,333985.09999996424,7092,banana,NF,C,330425,330425,328596,329710,328597,330976,330225,330225,330976,51
51,test,1,inc,1,z,Thu Mar 27 2025 13:33:33 GMT-0500 (Central Daylight Time),338397.09999996424,bronze,800,I,z,z,None,681,482.0,199.0,29,1,2013.0,336384.09999996424,7092,raisin,NF,C,332525,332525,330995,331809,330996,333008,332326,332326,333008,52
52,test,1,inc,1,m,Thu Mar 27 2025 13:33:33 GMT-0500 (Central Daylight Time),340762.39999997616,plum,1100,I,m,m,None,706,491.0,215.0,104,1,2345.399999976158,338417.0,7092,gold,NF,C,334875,334875,333028,334142,333030,335373,334659,334659,335373,53
53,test,1,con,1,m,Thu Mar 27 2025 13:33:33 GMT-0500 (Central Daylight Time),343012.39999997616,bronze,800,I,m,m,None,890,691.0,199.0,65,1,2233.399999976158,340779.0,7092,bronze,NF,C,336924,336924,335390,336208,335392,337624,336725,336725,337623,54
54,test,1,con,1,m,Thu Mar 27 2025 13:33:33 GMT-0500 (Central Daylight Time),345361.6999999881,iron,900,I,m,m,None,892,693.0,199.0,106,1,2329.5,343032.1999999881,7092,iron,NF,C,339274,339274,337643,338557,337645,339973,339074,339074,339973,55
55,test,1,con,1,z,Thu Mar 27 2025 13:33:33 GMT-0500 (Central Daylight Time),347794.3000000119,lime,900,I,z,z,None,975,776.0,199.0,34,1,2410.900000035763,345383.39999997616,7092,lime,NF,C,341623,341623,339994,340906,339996,342406,341423,341423,342405,56
56,test,1,con,1,z,Thu Mar 27 2025 13:33:33 GMT-0500 (Central Daylight Time),350260.8000000119,kiwi,1000,I,z,z,None,914,699.0,215.0,51,1,2446.100000023842,347814.6999999881,7092,kiwi,NF,C,344172,344172,342426,343439,342427,344872,343956,343956,344872,57
57,test,1,inc,1,z,Thu Mar 27 2025 13:33:33 GMT-0500 (Central Daylight Time),352559.5,iron,900,I,z,z,None,836,621.0,215.0,54,1,2281.699999988079,350277.8000000119,7092,kiwi,NF,C,346538,346538,344889,345805,344890,347171,346322,346322,347170,58
58,test,1,inc,1,z,Thu Mar 27 2025 13:33:33 GMT-0500 (Central Daylight Time),355108.39999997616,lead,1100,I,z,z,None,890,691.0,199.0,56,1,2529.199999988079,352579.1999999881,7092,kiwi,NF,C,349020,349020,347190,348304,347192,349719,348821,348821,349719,59
59,test,1,con,1,z,Thu Mar 27 2025 13:33:33 GMT-0500 (Central Daylight Time),357957.3000000119,pear,1000,I,z,z,None,1297,1098.0,199.0,43,1,2825.800000011921,355131.5,7092,pear,NF,C,351470,351470,349743,350753,349744,352569,351270,351270,352568,60
60,test,1,con,1,z,Thu Mar 27 2025 13:33:33 GMT-0500 (Central Daylight Time),360306.89999997616,pear,1100,I,z,z,None,691,492.0,199.0,44,1,2329.699999988079,357977.1999999881,7092,pear,NF,C,354419,354419,352588,353702,352590,354918,354219,354219,354918,61
61,test,1,inc,1,m,Thu Mar 27 2025 13:33:33 GMT-0500 (Central Daylight Time),362822.6999999881,kiwi,1000,I,m,m,None,962,763.0,199.0,127,1,2495.699999988079,360327.0,7092,lead,NF,C,356668,356668,354938,355952,354940,357434,356468,356468,357434,62
62,test,1,con,1,m,Thu Mar 27 2025 13:33:33 GMT-0500 (Central Daylight Time),365321.89999997616,lead,1100,I,m,m,None,834,635.0,199.0,124,1,2479.0,362842.89999997616,7092,lead,NF,C,359284,359284,357454,358567,357455,359933,359084,359084,359933,63
63,test,1,inc,1,m,Thu Mar 27 2025 13:33:33 GMT-0500 (Central Daylight Time),367671.1999999881,pear,900,I,m,m,None,887,688.0,199.0,118,1,2328.800000011921,365342.39999997616,7092,zinc,NF,C,361583,361583,359953,360867,359955,362282,361383,361383,362282,64
64,test,1,con,1,z,Thu Mar 27 2025 13:33:33 GMT-0500 (Central Daylight Time),369869.39999997616,orange,900,I,z,z,None,744,529.0,215.0,18,1,2177.899999976158,367691.5,7092,orange,NF,C,363949,363949,362303,363216,362304,364480,363733,363733,364480,65
65,test,1,con,1,z,Thu Mar 27 2025 13:33:33 GMT-0500 (Central Daylight Time),372037.3000000119,plum,1000,I,z,z,None,631,432.0,199.0,59,1,2161.800000011921,369875.5,7092,plum,NF,C,366215,366215,364487,365497,364487,366648,366015,366015,366648,66
66,test,1,con,1,m,Thu Mar 27 2025 13:33:33 GMT-0500 (Central Daylight Time),374501.89999997616,bronze,1100,I,m,m,None,805,606.0,199.0,68,1,2445.5,372056.39999997616,7092,bronze,NF,C,368497,368497,366667,367781,366668,369113,368298,368298,369113,67
67,test,1,con,1,z,Thu Mar 27 2025 13:33:33 GMT-0500 (Central Daylight Time),376968.09999996424,cherry,1100,I,z,z,None,802,587.0,215.0,12,1,2446.0,374522.09999996424,7092,cherry,NF,C,370980,370980,369133,370247,369136,371579,370764,370764,371579,68
68,test,1,inc,1,z,Thu Mar 27 2025 13:33:33 GMT-0500 (Central Daylight Time),379100.8000000119,gold,800,I,z,z,None,773,574.0,199.0,53,1,2112.100000023842,376988.6999999881,7092,kiwi,NF,C,373129,373129,371600,372412,371602,373712,372929,372929,373712,69
69,test,1,con,1,z,Thu Mar 27 2025 13:33:33 GMT-0500 (Central Daylight Time),381616.59999996424,orange,1100,I,z,z,None,860,661.0,199.0,20,1,2493.7999999523163,379122.8000000119,7092,orange,NF,C,375562,375562,373734,374845,373735,376228,375362,375362,376228,70
70,test,1,inc,1,m,Thu Mar 27 2025 13:33:33 GMT-0500 (Central Daylight Time),384015.6999999881,plum,1100,I,m,m,None,744,545.0,199.0,128,1,2378.300000011921,381637.39999997616,7092,lead,NF,C,378077,378078,376248,377361,376250,378627,377878,377878,378627,71
71,test,1,inc,1,m,Thu Mar 27 2025 13:33:33 GMT-0500 (Central Daylight Time),386598.1999999881,lime,800,I,m,m,None,1229,1014.0,215.0,101,1,2562.600000023842,384035.59999996424,7092,gold,NF,C,380193,380193,378647,379460,378648,381209,379977,379978,381209,72
72,test,1,con,1,z,Thu Mar 27 2025 13:33:33 GMT-0500 (Central Daylight Time),388980.5,cherry,1000,I,z,z,None,822,607.0,215.0,11,1,2362.5,386618.0,7092,cherry,NF,C,382976,382976,381229,382243,381231,383592,382760,382760,383592,73
73,test,1,inc,1,z,Thu Mar 27 2025 13:33:33 GMT-0500 (Central Daylight Time),391179.09999996424,gold,800,I,z,z,None,832,632.0,200.0,37,1,2178.199999988079,389000.89999997616,7092,lime,NF,C,385142,385142,383612,384425,383613,385790,384941,384941,385790,74
74,test,1,con,1,m,Thu Mar 27 2025 13:33:33 GMT-0500 (Central Daylight Time),393729.1999999881,zinc,1000,I,m,m,None,1002,803.0,199.0,115,1,2542.800000011921,391186.39999997616,7092,zinc,NF,C,387524,387524,385797,386807,385798,388340,387325,387325,388340,75
75,test,1,con,1,m,Thu Mar 27 2025 13:33:33 GMT-0500 (Central Daylight Time),396628.3000000119,bronze,900,I,m,m,None,1431,1216.0,215.0,66,1,2879.100000023842,393749.1999999881,7092,bronze,NF,C,390007,390007,388360,389274,388362,391239,389791,389791,391239,76
76,test,1,con,1,z,Thu Mar 27 2025 13:33:33 GMT-0500 (Central Daylight Time),398794.09999996424,kiwi,800,I,z,z,None,808,593.0,215.0,49,1,2146.199999988079,396647.89999997616,7092,kiwi,NF,C,392806,392806,391259,392073,391261,393405,392590,392590,393405,77
77,test,1,con,1,z,Thu Mar 27 2025 13:33:33 GMT-0500 (Central Daylight Time),400976.89999997616,pear,900,I,z,z,None,718,503.0,215.0,42,1,2161.5,398815.39999997616,7092,pear,NF,C,395072,395072,393426,394339,393428,395588,394856,394856,395588,78
78,test,1,inc,1,m,Thu Mar 27 2025 13:33:33 GMT-0500 (Central Daylight Time),403042.8000000119,banana,800,I,m,m,None,707,492.0,215.0,93,1,2044.9000000357628,400997.89999997616,7092,cobalt,NF,C,397154,397155,395609,396422,395611,397654,396939,396939,397654,79
79,test,1,inc,1,z,Thu Mar 27 2025 13:33:33 GMT-0500 (Central Daylight Time),405341.59999996424,silver,1000,I,z,z,None,746,547.0,199.0,31,1,2279.0,403062.59999996424,7092,raisin,NF,C,399404,399404,397674,398688,397675,399953,399204,399204,399953,80
80,test,1,inc,1,z,Thu Mar 27 2025 13:33:33 GMT-0500 (Central Daylight Time),407641.3000000119,zinc,1000,I,z,z,None,743,544.0,199.0,55,1,2280.0,405361.3000000119,7092,kiwi,NF,C,401703,401703,399972,400987,399974,402252,401503,401503,402252,81
81,test,1,inc,1,m,Thu Mar 27 2025 13:33:33 GMT-0500 (Central Daylight Time),410190.1999999881,raisin,1100,I,m,m,None,895,680.0,215.0,72,1,2528.199999988079,407662.0,7092,bronze,NF,C,404119,404119,402273,403386,402274,404801,403903,403903,404801,82
82,test,1,con,1,m,Thu Mar 27 2025 13:33:33 GMT-0500 (Central Daylight Time),412506.39999997616,bronze,1000,I,m,m,None,750,551.0,199.0,67,1,2297.199999988079,410209.1999999881,7092,bronze,NF,C,406551,406552,404820,405835,404822,407118,406352,406352,407117,83
83,test,1,con,1,z,Thu Mar 27 2025 13:33:33 GMT-0500 (Central Daylight Time),414639.0,raisin,1000,I,z,z,None,578,363.0,215.0,27,1,2113.400000035763,412525.59999996424,7092,raisin,NF,C,408884,408884,407137,408150,407138,409250,408668,408668,409250,84
84,test,1,con,1,m,Thu Mar 27 2025 13:33:33 GMT-0500 (Central Daylight Time),416938.3000000119,gold,1000,I,m,m,None,734,535.0,199.0,99,1,2281.900000035763,414656.39999997616,7092,gold,NF,C,411000,411000,409267,410284,409268,411549,410800,410800,411549,85
85,test,1,inc,1,z,Thu Mar 27 2025 13:33:33 GMT-0500 (Central Daylight Time),419204.1999999881,zinc,1000,I,z,z,None,699,500.0,199.0,63,1,2244.5,416959.6999999881,7092,plum,NF,C,413299,413299,411571,412583,411572,413815,413100,413100,413815,86
86,test,1,con,1,m,Thu Mar 27 2025 13:33:33 GMT-0500 (Central Daylight Time),422103.09999996424,iron,1000,I,m,m,None,1344,1129.0,215.0,107,1,2879.199999988079,419223.89999997616,7092,iron,NF,C,415582,415582,413835,414849,413837,416714,415366,415366,416714,87
87,test,1,inc,1,z,Thu Mar 27 2025 13:33:33 GMT-0500 (Central Daylight Time),424252.3000000119,bronze,800,I,z,z,None,781,566.0,215.0,5,1,2128.0,422124.3000000119,7092,banana,NF,C,418281,418281,416735,417548,416736,418864,418065,418065,418863,88
88,test,1,con,1,m,Thu Mar 27 2025 13:33:33 GMT-0500 (Central Daylight Time),426335.09999996424,iron,800,I,m,m,None,720,521.0,199.0,105,1,2063.199999988079,424271.89999997616,7092,iron,NF,C,420413,420414,418883,419697,418884,420946,420214,420214,420946,89
89,test,1,inc,1,z,Thu Mar 27 2025 13:33:33 GMT-0500 (Central Daylight Time),428667.5,copper,900,I,z,z,None,873,658.0,215.0,6,1,2311.199999988079,426356.3000000119,7092,banana,NF,C,422613,422613,420967,421880,420969,423279,422397,422397,423279,90
90,test,1,con,1,m,Thu Mar 27 2025 13:33:33 GMT-0500 (Central Daylight Time),431282.6999999881,cobalt,900,I,m,m,None,1156,942.0,214.0,90,1,2595.199999988079,428687.5,7092,cobalt,NF,C,424944,424944,423299,424212,423300,425894,424730,424730,425894,91
91,test,1,con,1,m,Thu Mar 27 2025 13:33:33 GMT-0500 (Central Daylight Time),433249.09999996424,lead,1000,I,m,m,None,426,227.0,199.0,123,1,1961.0,431288.09999996424,7092,lead,NF,C,427628,427628,425899,426912,425900,427860,427428,427428,427860,92
92,test,1,con,1,m,Thu Mar 27 2025 13:33:33 GMT-0500 (Central Daylight Time),435165.59999996424,lead,800,I,m,m,None,556,340.0,216.0,121,1,1896.5,433269.09999996424,7092,lead,NF,C,429427,429427,427880,428694,427882,429777,429211,429211,429777,93
93,test,1,inc,1,m,Thu Mar 27 2025 13:33:33 GMT-0500 (Central Daylight Time),437898.0,orange,1000,I,m,m,None,1167,968.0,199.0,87,1,2712.600000023842,435185.39999997616,7092,silver,NF,C,431527,431527,429796,430810,429798,432509,431327,431327,432509,94
94,test,1,con,1,z,Thu Mar 27 2025 13:33:33 GMT-0500 (Central Daylight Time),440063.89999997616,banana,900,I,z,z,None,703,504.0,199.0,2,1,2146.300000011921,437917.59999996424,7092,banana,NF,C,434159,434159,432529,433443,432530,434675,433959,433959,434675,95
95,test,1,inc,1,m,Thu Mar 27 2025 13:33:33 GMT-0500 (Central Daylight Time),442313.09999996424,raisin,1100,I,m,m,None,593,394.0,199.0,96,1,2228.899999976158,440084.1999999881,7092,cobalt,NF,C,436525,436525,434695,435809,434697,436924,436325,436325,436924,96
96,test,1,con,1,m,Thu Mar 27 2025 13:33:33 GMT-0500 (Central Daylight Time),444512.1999999881,silver,900,I,m,m,None,745,545.0,200.0,82,1,2177.300000011921,442334.89999997616,7092,silver,NF,C,438574,438574,436946,437858,436947,439123,438374,438374,439123,97
97,test,1,inc,1,m,Thu Mar 27 2025 13:33:33 GMT-0500 (Central Daylight Time),446762.09999996424,kiwi,1000,I,m,m,None,687,487.0,200.0,119,1,2229.199999988079,444532.89999997616,7092,zinc,NF,C,440872,440872,439144,440156,439145,441373,440672,440672,441373,98
98,test,1,inc,1,z,Thu Mar 27 2025 13:33:33 GMT-0500 (Central Daylight Time),448944.09999996424,silver,1000,I,z,z,None,626,427.0,199.0,15,1,2161.199999988079,446782.89999997616,7092,cherry,NF,C,443123,443124,441394,442407,441396,443555,442923,442923,443555,99
99,test,1,inc,1,m,Thu Mar 27 2025 13:33:33 GMT-0500 (Central Daylight Time),451093.59999996424,pear,900,I,m,m,None,689,490.0,199.0,110,1,2133.7999999523163,448959.8000000119,7092,iron,NF,C,445205,445205,443571,444489,443572,445705,445006,445006,445705,100
100,test,1,inc,1,m,Thu Mar 27 2025 13:33:33 GMT-0500 (Central Daylight Time),453259.59999996424,banana,800,I,m,m,None,807,608.0,199.0,77,1,2145.0,451114.59999996424,7092,copper,NF,C,447255,447255,445726,446538,445727,447871,447055,447055,447871,101
101,test,1,inc,1,m,Thu Mar 27 2025 13:33:33 GMT-0500 (Central Daylight Time),456125.59999996424,orange,1000,I,m,m,None,1314,1115.0,199.0,71,1,2846.399999976158,453279.1999999881,7092,bronze,NF,C,449621,449621,447890,448904,447892,450737,449421,449421,450737,102
102,test,1,con,1,z,Thu Mar 27 2025 13:33:33 GMT-0500 (Central Daylight Time),458324.89999997616,lime,1000,I,z,z,None,648,449.0,199.0,35,1,2179.800000011921,456145.09999996424,7092,lime,NF,C,452486,452486,450756,451770,450757,452936,452287,452287,452936,103
103,test,1,inc,1,m,Thu Mar 27 2025 13:33:33 GMT-0500 (Central Daylight Time),460723.8000000119,raisin,1100,I,m,m,None,740,541.0,199.0,80,1,2377.7000000476837,458346.09999996424,7092,copper,NF,C,454785,454786,452957,454069,452958,455335,454586,454586,455335,104
104,test,1,inc,1,m,Thu Mar 27 2025 13:33:33 GMT-0500 (Central Daylight Time),463089.39999997616,kiwi,1000,I,m,m,None,809,610.0,199.0,103,1,2346.199999988079,460743.1999999881,7092,gold,NF,C,457085,457085,455354,456369,455356,457701,456885,456885,457700,105
105,test,1,inc,1,m,Thu Mar 27 2025 13:33:33 GMT-0500 (Central Daylight Time),465205.8000000119,cherry,900,I,m,m,None,655,456.0,199.0,86,1,2095.900000035763,463109.89999997616,7092,silver,NF,C,459350,459351,457721,458635,457723,459817,459151,459151,459817,106
105,test,1,inc,0,z,Thu Mar 27 2025 13:33:33 GMT-0500 (Central Daylight Time),467621.59999996424,cobalt,1100,I,m,m,None,755,556.0,199.0,24,1,2395.099999964237,465226.5,7092,orange,NF,C,461666,461667,459837,460950,459839,462233,461467,461467,462233,107
106,test,1,inc,1,m,Thu Mar 27 2025 13:33:33 GMT-0500 (Central Daylight Time),469853.89999997616,lime,800,I,m,m,None,872,673.0,199.0,117,1,2212.0,467641.89999997616,7092,zinc,NF,C,463782,463782,462253,463066,462255,464465,463583,463583,464465,108
107,test,1,con,1,z,Thu Mar 27 2025 13:33:33 GMT-0500 (Central Daylight Time),472069.89999997616,cherry,900,I,z,z,None,763,564.0,199.0,10,1,2195.199999988079,469874.6999999881,7092,cherry,NF,C,466115,466115,464486,465398,464487,466681,465915,465915,466681,109
108,test,1,con,1,z,Thu Mar 27 2025 13:33:33 GMT-0500 (Central Daylight Time),474036.0,pear,800,I,z,z,None,608,409.0,199.0,41,1,1944.300000011921,472091.6999999881,7092,pear,NF,C,468231,468231,466703,467515,466705,468647,468031,468031,468647,110
109,test,1,con,1,z,Thu Mar 27 2025 13:33:33 GMT-0500 (Central Daylight Time),476018.6999999881,orange,800,I,z,z,None,625,426.0,199.0,17,1,1962.8999999761581,474055.8000000119,7092,orange,NF,C,470197,470197,468667,469481,468668,470630,469997,469997,470630,111
110,test,1,con,1,z,Thu Mar 27 2025 13:33:33 GMT-0500 (Central Daylight Time),478168.09999996424,orange,1000,I,z,z,None,595,395.0,200.0,19,1,2131.099999964237,476037.0,7092,orange,NF,C,472380,472380,470648,471663,470649,472779,472179,472179,472779,112
110,test,1,con,0,z,Thu Mar 27 2025 13:33:33 GMT-0500 (Central Daylight Time),480484.0,raisin,800,I,m,m,None,949,750.0,199.0,25,1,2296.100000023842,478187.89999997616,7092,raisin,NF,C,474329,474329,472799,473613,472801,475095,474129,474129,475095,113
111,test,1,con,1,z,Thu Mar 27 2025 13:33:33 GMT-0500 (Central Daylight Time),482700.0,banana,1000,I,z,z,None,649,450.0,199.0,3,1,2196.400000035763,480503.59999996424,7092,banana,NF,C,476845,476845,475115,476129,475116,477311,476645,476645,477311,114
112,test,1,inc,1,m,Thu Mar 27 2025 13:33:33 GMT-0500 (Central Daylight Time),484899.09999996424,cherry,900,I,m,m,None,733,518.0,215.0,70,1,2178.7999999523163,482720.3000000119,7092,bronze,NF,C,478977,478977,477331,478245,477333,479510,478762,478762,479510,115
113,test,1,inc,1,z,Thu Mar 27 2025 13:33:33 GMT-0500 (Central Daylight Time),487298.09999996424,lead,1100,I,z,z,None,742,543.0,199.0,64,1,2377.699999988079,484920.39999997616,7092,plum,NF,C,481360,481360,479531,480644,479533,481909,481160,481161,481909,116
114,test,1,inc,1,z,Thu Mar 27 2025 13:33:33 GMT-0500 (Central Daylight Time),489347.6999999881,gold,800,I,z,z,None,690,491.0,199.0,45,1,2031.699999988079,487316.0,7092,pear,NF,C,483460,483460,481927,482743,481928,483959,483260,483260,483959,117
115,test,1,inc,1,z,Thu Mar 27 2025 13:33:33 GMT-0500 (Central Daylight Time),491880.39999997616,copper,900,I,z,z,None,1078,878.0,200.0,14,1,2512.199999988079,489368.1999999881,7092,cherry,NF,C,485608,485609,483979,484892,483981,486492,485408,485408,486491,118
116,test,1,inc,1,m,Thu Mar 27 2025 13:33:33 GMT-0500 (Central Daylight Time),493996.8000000119,pear,900,I,m,m,None,665,466.0,199.0,126,1,2096.600000023842,491900.1999999881,7092,lead,NF,C,488141,488141,486511,487425,486513,488608,487942,487942,488608,119
117,test,1,con,1,m,Thu Mar 27 2025 13:33:33 GMT-0500 (Central Daylight Time),496495.39999997616,iron,1100,I,m,m,None,845,646.0,199.0,108,1,2477.5,494017.89999997616,7092,iron,NF,C,490457,490457,488629,489741,488630,491107,490257,490257,491106,120
118,test,1,con,1,z,Thu Mar 27 2025 13:33:33 GMT-0500 (Central Daylight Time),498979.09999996424,raisin,1100,I,z,z,None,818,619.0,199.0,28,1,2463.7999999523163,496515.3000000119,7092,raisin,NF,C,492956,492956,491126,492240,491128,493590,492757,492757,493590,121
119,test,1,inc,1,z,Thu Mar 27 2025 13:33:33 GMT-0500 (Central Daylight Time),500927.1999999881,bronze,800,I,z,z,None,595,396.0,199.0,21,1,1926.199999988079,499001.0,7092,orange,NF,C,495139,495139,493612,494423,493614,495538,494939,494939,495538,122
120,test,1,con,1,m,Thu Mar 27 2025 13:33:33 GMT-0500 (Central Daylight Time),502943.1999999881,copper,800,I,m,m,None,654,439.0,215.0,73,1,1996.0,500947.1999999881,7092,copper,NF,C,497104,497104,495558,496372,495560,497554,496889,496889,497554,123
121,test,1,con,1,m,Thu Mar 27 2025 13:33:33 GMT-0500 (Central Daylight Time),505242.5,gold,900,I,m,m,None,834,635.0,199.0,98,1,2280.199999988079,502962.3000000119,7092,gold,NF,C,499204,499204,497573,498488,497575,499854,499005,499005,499853,124
122,test,1,inc,1,z,Thu Mar 27 2025 13:33:33 GMT-0500 (Central Daylight Time),507258.5,gold,800,I,z,z,None,650,451.0,199.0,61,1,1996.1000000238419,505262.39999997616,7092,plum,NF,C,501403,501404,499873,500687,499875,501870,501204,501204,501870,125
123,test,1,con,1,z,Thu Mar 27 2025 13:33:33 GMT-0500 (Central Daylight Time),509441.09999996424,plum,900,I,z,z,None,727,528.0,199.0,58,1,2163.199999988079,507277.89999997616,7092,plum,NF,C,503519,503519,501889,502802,501890,504052,503320,503320,504052,126
124,test,1,con,1,z,Thu Mar 27 2025 13:33:33 GMT-0500 (Central Daylight Time),511923.59999996424,plum,1100,I,z,z,None,824,625.0,199.0,60,1,2463.199999988079,509460.39999997616,7092,plum,NF,C,505902,505902,504071,505186,504073,506535,505703,505703,506535,127
125,test,1,con,1,z,Thu Mar 27 2025 13:33:33 GMT-0500 (Central Daylight Time),513939.59999996424,raisin,900,I,z,z,None,557,358.0,199.0,26,1,1996.2999999523163,511943.3000000119,7092,raisin,NF,C,508185,508185,506554,507468,506556,508551,507985,507985,508551,128
