acc_sum,block_c,block_dur,condition,correct,correct_response,countdown,datetime,endtime,project,response,response_time,response_time_test1_response,response_time_test2_response,row_sel,same,session_number,start_end,starttime,stim1,stim2,subject_id,task,task_vers,time_test1,time_test2,trial
0,1,0.0,prac,0,m,30000.0,Thu Feb 20 2025 18:20:08 GMT-0600 (Central Standard Time),41861.89999999851,O,z,1529,,,6,no,1,3061.89999999851,38800.0,practrial6.png,practrial6b.png,7050,PC,A,,,1
1,1,0.0,prac,1,z,30000.0,Thu Feb 20 2025 18:20:08 GMT-0600 (Central Standard Time),44844.29999999702,O,z,1452,,,1,yes,1,2977.099999997765,41867.199999999255,practrial1.png,practrial1.png,7050,PC,A,,,2
2,1,0.0,prac,1,z,30000.0,Thu Feb 20 2025 18:20:08 GMT-0600 (Central Standard Time),48143.39999999851,O,z,1777,,,5,yes,1,3295.300000000745,44848.099999997765,practrial5.png,practrial5.png,7050,PC,A,,,3
3,1,0.0,prac,1,m,30000.0,Thu Feb 20 2025 18:20:08 GMT-0600 (Central Standard Time),50959.099999997765,O,m,1294,,,4,no,1,2812.099999997765,48147.0,practrial4.png,practrial4b.png,7050,PC,A,,,4
4,1,0.0,prac,1,z,30000.0,Thu Feb 20 2025 18:20:08 GMT-0600 (Central Standard Time),53824.79999999702,O,z,1333,,,3,yes,1,2862.199999999255,50962.599999997765,practrial3.png,practrial3.png,7050,PC,A,,,5
5,1,0.0,prac,1,m,30000.0,Thu Feb 20 2025 18:20:08 GMT-0600 (Central Standard Time),56257.29999999702,O,m,909,,,2,no,1,2428.599999997765,53828.699999999255,practrial2.png,practrial2b.png,7050,PC,A,,,6
1,1,1.9839999675750732,test,1,z,28016.000032424927,Thu Feb 20 2025 18:20:08 GMT-0600 (Central Standard Time),61023.0,O,z,1975,1975,,1,yes,1,1981.1000000014901,59041.89999999851,test1trial1.png,test1trial1.png,7050,PC,A,52519,,1
2,1,2.9830000400543213,test,1,m,27016.99995994568,Thu Feb 20 2025 18:20:08 GMT-0600 (Central Standard Time),62022.29999999702,O,m,983,983,,2,no,1,996.5999999977648,61025.699999999255,test1trial2.png,test1trial2b.png,7050,PC,A,54503,,2
3,1,4.965000152587891,test,1,z,25034.99984741211,Thu Feb 20 2025 18:20:08 GMT-0600 (Central Standard Time),64004.699999999255,O,z,1967,1967,,3,yes,1,1979.4000000022352,62025.29999999702,test1trial3.png,test1trial3.png,7050,PC,A,55502,,3
4,1,5.965000152587891,test,1,m,24034.99984741211,Thu Feb 20 2025 18:20:08 GMT-0600 (Central Standard Time),65004.699999999255,O,m,994,994,,4,no,1,997.4000000022352,64007.29999999702,test1trial4.png,test1trial4b.png,7050,PC,A,57484,,4
5,1,7.865000009536743,test,1,z,22134.999990463257,Thu Feb 20 2025 18:20:08 GMT-0600 (Central Standard Time),66904.09999999776,O,z,1891,1891,,5,yes,1,1896.8999999985099,65007.199999999255,test1trial5.png,test1trial5.png,7050,PC,A,58484,,5
6,1,8.782999992370605,test,1,m,21217.000007629395,Thu Feb 20 2025 18:20:08 GMT-0600 (Central Standard Time),67821.79999999702,O,m,909,909,,6,no,1,914.8999999985099,66906.89999999851,test1trial6.png,test1trial6b.png,7050,PC,A,60384,,6
7,1,9.914000034332275,test,1,z,20085.999965667725,Thu Feb 20 2025 18:20:08 GMT-0600 (Central Standard Time),68953.39999999851,O,z,1120,1120,,7,yes,1,1128.3999999985099,67825.0,test1trial7.png,test1trial7.png,7050,PC,A,61302,,7
8,1,11.46399998664856,test,1,m,18536.00001335144,Thu Feb 20 2025 18:20:08 GMT-0600 (Central Standard Time),70502.79999999702,O,m,1541,1541,,8,no,1,1546.3999999985099,68956.39999999851,test1trial8.png,test1trial8b.png,7050,PC,A,62433,,8
9,1,13.413000106811523,test,1,z,16586.999893188477,Thu Feb 20 2025 18:20:08 GMT-0600 (Central Standard Time),72452.29999999702,O,z,1944,1944,,9,yes,1,1946.7999999970198,70505.5,test1trial9.png,test1trial9.png,7050,PC,A,63982,,9
10,1,14.263000011444092,test,1,m,15736.999988555908,Thu Feb 20 2025 18:20:08 GMT-0600 (Central Standard Time),73302.09999999776,O,m,833,833,,10,no,1,847.0,72455.09999999776,test1trial10.png,test1trial10b.png,7050,PC,A,65932,,10
11,1,15.496000051498413,test,1,z,14503.999948501587,Thu Feb 20 2025 18:20:08 GMT-0600 (Central Standard Time),74535.19999999925,O,z,1224,1224,,11,yes,1,1230.4000000022352,73304.79999999702,test1trial11.png,test1trial11.png,7050,PC,A,66782,,11
12,1,17.430000066757202,test,1,m,12569.999933242798,Thu Feb 20 2025 18:20:08 GMT-0600 (Central Standard Time),76468.89999999851,O,m,1918,1918,,12,no,1,1930.699999999255,74538.19999999925,test1trial12.png,test1trial12b.png,7050,PC,A,68015,,12
13,1,18.445000171661377,test,1,m,11554.999828338623,Thu Feb 20 2025 18:20:08 GMT-0600 (Central Standard Time),77484.19999999925,O,m,1009,1009,,13,no,1,1012.1000000014901,76472.09999999776,test1trial13.png,test1trial13b.png,7050,PC,A,69949,,13
14,1,19.67799997329712,test,1,m,10322.00002670288,Thu Feb 20 2025 18:20:08 GMT-0600 (Central Standard Time),78717.29999999702,O,m,1218,1218,,14,no,1,1230.199999999255,77487.09999999776,test1trial14.png,test1trial14b.png,7050,PC,A,70964,,14
15,1,20.960999965667725,test,1,z,9039.000034332275,Thu Feb 20 2025 18:20:08 GMT-0600 (Central Standard Time),80000.0,O,z,1265,1265,,15,yes,1,1279.800000000745,78720.19999999925,test1trial15.png,test1trial15.png,7050,PC,A,72197,,15
16,1,21.89400005340576,test,1,m,8105.999946594238,Thu Feb 20 2025 18:20:08 GMT-0600 (Central Standard Time),80932.79999999702,O,m,917,917,,16,no,1,930.0999999977648,80002.69999999925,test1trial16.png,test1trial16b.png,7050,PC,A,73480,,16
17,1,23.41000008583069,test,1,z,6589.9999141693115,Thu Feb 20 2025 18:20:08 GMT-0600 (Central Standard Time),82449.29999999702,O,z,1505,1505,,17,yes,1,1513.5999999977648,80935.69999999925,test1trial17.png,test1trial17.png,7050,PC,A,74412,,17
18,1,24.593000173568726,test,1,m,5406.999826431274,Thu Feb 20 2025 18:20:08 GMT-0600 (Central Standard Time),83632.29999999702,O,m,1165,1165,,18,no,1,1180.2999999970198,82452.0,test1trial18.png,test1trial18b.png,7050,PC,A,75929,,18
19,1,26.526999950408936,test,1,m,3473.0000495910645,Thu Feb 20 2025 18:20:08 GMT-0600 (Central Standard Time),85566.09999999776,O,m,1918,1918,,19,no,1,1931.0999999977648,83635.0,test1trial19.png,test1trial19b.png,7050,PC,A,77112,,19
20,1,28.259000062942505,test,1,z,1740.9999370574951,Thu Feb 20 2025 18:20:08 GMT-0600 (Central Standard Time),87297.79999999702,O,z,1719,1719,,20,yes,1,1728.3999999985099,85569.39999999851,test1trial20.png,test1trial20.png,7050,PC,A,79046,,20
21,1,29.407999992370605,test,1,z,592.0000076293945,Thu Feb 20 2025 18:20:08 GMT-0600 (Central Standard Time),88447.39999999851,O,z,1133,1133,,21,yes,1,1146.800000000745,87300.59999999776,test1trial21.png,test1trial21.png,7050,PC,A,80777,,21
21,1,30.008000135421753,test,0,z,-8.00013542175293,Thu Feb 20 2025 18:20:08 GMT-0600 (Central Standard Time),89047.39999999851,O,None,596,596,,22,yes,1,597.3000000007451,88450.09999999776,test1trial22.png,test1trial22.png,7050,PC,A,81927,,22
1,2,2.5989999771118164,test,1,m,27401.000022888184,Thu Feb 20 2025 18:20:08 GMT-0600 (Central Standard Time),94262.5,O,m,2591,,2591.0,1,no,1,5812.400000002235,88450.09999999776,test2trial1.png,test2trial1b.png,7050,PC,A,,85143.0,1
2,2,4.3480000495910645,test,1,m,25651.999950408936,Thu Feb 20 2025 18:20:08 GMT-0600 (Central Standard Time),96011.69999999925,O,m,1744,,1744.0,2,no,1,7561.60000000149,88450.09999999776,test2trial2.png,test2trial2b.png,7050,PC,A,,87742.0,2
3,2,5.697999954223633,test,1,z,24302.000045776367,Thu Feb 20 2025 18:20:08 GMT-0600 (Central Standard Time),97361.5,O,z,1338,,1338.0,3,yes,1,8911.400000002235,88450.09999999776,test2trial3.png,test2trial3.png,7050,PC,A,,89491.0,3
4,2,6.680999994277954,test,1,z,23319.000005722046,Thu Feb 20 2025 18:20:08 GMT-0600 (Central Standard Time),98344.19999999925,O,z,973,,973.0,4,yes,1,9894.10000000149,88450.09999999776,test2trial4.png,test2trial4.png,7050,PC,A,,90841.0,4
5,2,8.629999876022339,test,1,z,21370.00012397766,Thu Feb 20 2025 18:20:08 GMT-0600 (Central Standard Time),100293.59999999776,O,z,1943,,1943.0,5,yes,1,11843.5,88450.09999999776,test2trial5.png,test2trial5.png,7050,PC,A,,91823.0,5
6,2,10.713000059127808,test,1,z,19286.999940872192,Thu Feb 20 2025 18:20:08 GMT-0600 (Central Standard Time),102376.59999999776,O,z,2065,,2065.0,6,yes,1,13926.5,88450.09999999776,test2trial6.png,test2trial6.png,7050,PC,A,,93773.0,6
7,2,11.979000091552734,test,1,m,18020.999908447266,Thu Feb 20 2025 18:20:08 GMT-0600 (Central Standard Time),103642.39999999851,O,m,1262,,1262.0,7,no,1,15192.300000000745,88450.09999999776,test2trial7.png,test2trial7b.png,7050,PC,A,,95856.0,7
8,2,13.111999988555908,test,1,m,16888.00001144409,Thu Feb 20 2025 18:20:08 GMT-0600 (Central Standard Time),104775.5,O,m,1115,,1115.0,8,no,1,16325.400000002235,88450.09999999776,test2trial8.png,test2trial8b.png,7050,PC,A,,97122.0,8
9,2,15.062000036239624,test,1,z,14937.999963760376,Thu Feb 20 2025 18:20:08 GMT-0600 (Central Standard Time),106724.89999999851,O,z,1943,,1943.0,9,yes,1,18274.800000000745,88450.09999999776,test2trial9.png,test2trial9.png,7050,PC,A,,98255.0,9
10,2,16.07800006866455,test,1,z,13921.99993133545,Thu Feb 20 2025 18:20:08 GMT-0600 (Central Standard Time),107741.29999999702,O,z,1000,,1000.0,10,yes,1,19291.199999999255,88450.09999999776,test2trial10.png,test2trial10.png,7050,PC,A,,100205.0,10
11,2,17.07800006866455,test,1,m,12921.99993133545,Thu Feb 20 2025 18:20:08 GMT-0600 (Central Standard Time),108740.79999999702,O,m,984,,984.0,11,no,1,20290.699999999255,88450.09999999776,test2trial11.png,test2trial11b.png,7050,PC,A,,101221.0,11
12,2,18.443000078201294,test,1,m,11556.999921798706,Thu Feb 20 2025 18:20:08 GMT-0600 (Central Standard Time),110107.19999999925,O,m,1362,,1362.0,12,no,1,21657.10000000149,88450.09999999776,test2trial12.png,test2trial12b.png,7050,PC,A,,102220.0,12
13,2,19.625999927520752,test,1,z,10374.000072479248,Thu Feb 20 2025 18:20:08 GMT-0600 (Central Standard Time),111290.19999999925,O,z,1171,,1171.0,13,yes,1,22840.10000000149,88450.09999999776,test2trial13.png,test2trial13.png,7050,PC,A,,103587.0,13
14,2,21.22499990463257,test,1,m,8775.000095367432,Thu Feb 20 2025 18:20:08 GMT-0600 (Central Standard Time),112889.89999999851,O,m,1596,,1596.0,14,no,1,24439.800000000745,88450.09999999776,test2trial14.png,test2trial14b.png,7050,PC,A,,104770.0,14
15,2,22.22499990463257,test,1,m,7775.000095367432,Thu Feb 20 2025 18:20:08 GMT-0600 (Central Standard Time),113889.39999999851,O,m,981,,981.0,15,no,1,25439.300000000745,88450.09999999776,test2trial15.png,test2trial15b.png,7050,PC,A,,106369.0,15
16,2,23.641000032424927,test,1,m,6358.999967575073,Thu Feb 20 2025 18:20:08 GMT-0600 (Central Standard Time),115305.79999999702,O,m,1405,,1405.0,16,no,1,26855.699999999255,88450.09999999776,test2trial16.png,test2trial16b.png,7050,PC,A,,107369.0,16
17,2,25.08999991416931,test,1,z,4910.0000858306885,Thu Feb 20 2025 18:20:08 GMT-0600 (Central Standard Time),116755.0,O,z,1437,,1437.0,17,yes,1,28304.900000002235,88450.09999999776,test2trial17.png,test2trial17.png,7050,PC,A,,108785.0,17
18,2,26.039999961853027,test,1,z,3960.0000381469727,Thu Feb 20 2025 18:20:08 GMT-0600 (Central Standard Time),117704.89999999851,O,z,931,,931.0,18,yes,1,29254.800000000745,88450.09999999776,test2trial18.png,test2trial18.png,7050,PC,A,,110234.0,18
19,2,27.289999961853027,test,1,z,2710.0000381469727,Thu Feb 20 2025 18:20:08 GMT-0600 (Central Standard Time),118954.69999999925,O,z,1238,,1238.0,19,yes,1,30504.60000000149,88450.09999999776,test2trial19.png,test2trial19.png,7050,PC,A,,111184.0,19
20,2,28.85599994659424,test,1,z,1144.0000534057617,Thu Feb 20 2025 18:20:08 GMT-0600 (Central Standard Time),120520.69999999925,O,z,1556,,1556.0,20,yes,1,32070.60000000149,88450.09999999776,test2trial20.png,test2trial20.png,7050,PC,A,,112434.0,20
20,2,30.00600004196167,test,0,z,-6.000041961669922,Thu Feb 20 2025 18:20:08 GMT-0600 (Central Standard Time),121670.39999999851,O,None,1146,,1146.0,21,yes,1,33220.300000000745,88450.09999999776,test2trial21.png,test2trial21.png,7050,PC,A,,114000.0,21
