acc_sum,block,block_c,change,condition,correct,correct_response,datetime,endtime,face,project,response,response_time,row_sel,session_number,start_end,starttime,subject_id,task,task_vers,trial
0,prac,1,,1-Back,,,Tue Apr 29 2025 10:52:09 GMT-0400 (Eastern Daylight Time),,005_o_f_d_a.png,I,space,8998,1,1,,,9015,VNB,B,0
0,prac,1,0.0,1-Back,0,m,Tue Apr 29 2025 10:52:09 GMT-0400 (Eastern Daylight Time),144597.0,020_y_f_n_a.png,I,z,1159,2,1,2061.800000190735,142535.19999980927,9015,VNB,B,1
1,prac,1,0.0,1-Back,1,m,Tue Apr 29 2025 10:52:09 GMT-0400 (Eastern Daylight Time),147263.89999961853,007_m_m_h_a.png,I,m,1670,3,1,2614.3999996185303,144649.5,9015,VNB,B,2
1,prac,1,0.0,1-Back,0,m,Tue Apr 29 2025 10:52:09 GMT-0400 (Eastern Daylight Time),149246.79999923706,016_y_m_d_a.png,I,z,979,4,1,1926.8999996185303,147319.89999961853,9015,VNB,B,3
1,prac,1,0.0,1-Back,0,m,Tue Apr 29 2025 10:52:09 GMT-0400 (Eastern Daylight Time),151313.69999980927,005_o_f_n_a.png,I,z,1079,5,1,2015.1000003814697,149298.5999994278,9015,VNB,B,4
2,prac,1,1.0,1-Back,1,z,Tue Apr 29 2025 10:52:09 GMT-0400 (Eastern Daylight Time),153813.69999980927,016_y_m_n_a.png,I,z,1507,6,1,2447.0,151366.69999980927,9015,VNB,B,5
3,prac,1,0.0,1-Back,1,m,Tue Apr 29 2025 10:52:09 GMT-0400 (Eastern Daylight Time),156430.19999980927,004_o_m_h_a.png,I,m,1654,7,1,2559.199999809265,153871.0,9015,VNB,B,6
3,prac,1,0.0,1-Back,0,m,Tue Apr 29 2025 10:52:09 GMT-0400 (Eastern Daylight Time),158763.69999980927,011_m_f_d_a.png,I,z,1348,8,1,2280.199999809265,156483.5,9015,VNB,B,7
4,prac,1,1.0,1-Back,1,z,Tue Apr 29 2025 10:52:09 GMT-0400 (Eastern Daylight Time),161346.89999961853,020_y_f_d_a.png,I,z,1607,9,1,2530.1000003814697,158816.79999923706,9015,VNB,B,8
5,prac,1,0.0,1-Back,1,m,Tue Apr 29 2025 10:52:09 GMT-0400 (Eastern Daylight Time),164096.89999961853,007_m_m_n_a.png,I,m,1751,10,1,2697.0,161399.89999961853,9015,VNB,B,9
6,prac,1,0.0,1-Back,1,m,Tue Apr 29 2025 10:52:09 GMT-0400 (Eastern Daylight Time),166346.79999923706,005_o_f_h_a.png,I,m,1266,11,1,2197.3999996185303,164149.39999961853,9015,VNB,B,10
7,prac,1,0.0,1-Back,1,m,Tue Apr 29 2025 10:52:09 GMT-0400 (Eastern Daylight Time),168396.39999961853,016_y_m_d_a.png,I,m,1066,12,1,1996.3999996185303,166400.0,9015,VNB,B,11
0,prac,2,0.0,1-Back,,,Tue Apr 29 2025 10:52:09 GMT-0400 (Eastern Daylight Time),168396.39999961853,005_o_f_d_a.png,I,a,9067,1,1,1996.3999996185303,166400.0,9015,VNB,B,0
1,prac,2,0.0,1-Back,1,m,Tue Apr 29 2025 10:52:09 GMT-0400 (Eastern Daylight Time),182930.29999923706,020_y_f_n_a.png,I,m,1430,2,1,2347.699999809265,180582.5999994278,9015,VNB,B,1
2,prac,2,0.0,1-Back,1,m,Tue Apr 29 2025 10:52:09 GMT-0400 (Eastern Daylight Time),184930.29999923706,007_m_m_h_a.png,I,m,996,3,1,1944.2999992370605,182986.0,9015,VNB,B,2
3,prac,2,0.0,1-Back,1,m,Tue Apr 29 2025 10:52:09 GMT-0400 (Eastern Daylight Time),187063.69999980927,016_y_m_d_a.png,I,m,1310,4,1,2081.6000003814697,184982.0999994278,9015,VNB,B,3
3,prac,2,0.0,1-Back,0,m,Tue Apr 29 2025 10:52:09 GMT-0400 (Eastern Daylight Time),189963.5999994278,005_o_f_n_a.png,I,z,1917,5,1,2848.699999809265,187114.89999961853,9015,VNB,B,4
3,prac,2,1.0,1-Back,0,z,Tue Apr 29 2025 10:52:09 GMT-0400 (Eastern Daylight Time),192963.29999923706,016_y_m_n_a.png,I,None,2010,6,1,2946.0999994277954,190017.19999980927,9015,VNB,B,5
4,prac,2,0.0,1-Back,1,m,Tue Apr 29 2025 10:52:09 GMT-0400 (Eastern Daylight Time),194946.89999961853,004_o_m_h_a.png,I,m,1018,7,1,1931.8999996185303,193015.0,9015,VNB,B,6
4,prac,2,0.0,1-Back,0,m,Tue Apr 29 2025 10:52:09 GMT-0400 (Eastern Daylight Time),196830.19999980927,011_m_f_d_a.png,I,z,894,8,1,1831.3000001907349,194998.89999961853,9015,VNB,B,7
5,prac,2,1.0,1-Back,1,z,Tue Apr 29 2025 10:52:09 GMT-0400 (Eastern Daylight Time),199097.0,020_y_f_d_a.png,I,z,1302,9,1,2214.4000005722046,196882.5999994278,9015,VNB,B,8
6,prac,2,0.0,1-Back,1,m,Tue Apr 29 2025 10:52:09 GMT-0400 (Eastern Daylight Time),201273.5,007_m_m_n_a.png,I,m,1185,10,1,2124.2000007629395,199149.29999923706,9015,VNB,B,9
7,prac,2,0.0,1-Back,1,m,Tue Apr 29 2025 10:52:09 GMT-0400 (Eastern Daylight Time),203446.79999923706,005_o_f_h_a.png,I,m,1176,11,1,2123.699999809265,201323.0999994278,9015,VNB,B,10
8,prac,2,0.0,1-Back,1,m,Tue Apr 29 2025 10:52:09 GMT-0400 (Eastern Daylight Time),205380.29999923706,016_y_m_d_a.png,I,m,944,12,1,1881.7999992370605,203498.5,9015,VNB,B,11
0,test,1,0.0,1-Back,,,Tue Apr 29 2025 10:52:09 GMT-0400 (Eastern Daylight Time),205380.29999923706,020_y_f_d_a.png,I,space,7313,1,1,1881.7999992370605,203498.5,9015,VNB,B,0
1,test,1,0.0,1-Back,1,m,Tue Apr 29 2025 10:52:09 GMT-0400 (Eastern Daylight Time),221846.5999994278,011_m_f_n_a.png,I,m,1514,2,1,2518.5999994277954,219328.0,9015,VNB,B,1
2,test,1,0.0,1-Back,1,m,Tue Apr 29 2025 10:52:09 GMT-0400 (Eastern Daylight Time),223880.0,004_o_m_h_a.png,I,m,962,3,1,1984.0,221896.0,9015,VNB,B,2
2,test,1,1.0,1-Back,0,z,Tue Apr 29 2025 10:52:09 GMT-0400 (Eastern Daylight Time),226446.89999961853,007_m_m_h_a.png,I,m,1489,4,1,2511.8999996185303,223935.0,9015,VNB,B,3
3,test,1,0.0,1-Back,1,m,Tue Apr 29 2025 10:52:09 GMT-0400 (Eastern Daylight Time),228630.5,005_o_f_n_a.png,I,m,1116,5,1,2151.6000003814697,226478.89999961853,9015,VNB,B,4
4,test,1,0.0,1-Back,1,m,Tue Apr 29 2025 10:52:09 GMT-0400 (Eastern Daylight Time),230913.39999961853,016_y_m_d_a.png,I,m,1203,6,1,2230.6000003814697,228682.79999923706,9015,VNB,B,5
4,test,1,1.0,1-Back,0,z,Tue Apr 29 2025 10:52:09 GMT-0400 (Eastern Daylight Time),233346.79999923706,011_m_f_d_a.png,I,m,1368,7,1,2394.0999994277954,230952.69999980927,9015,VNB,B,6
5,test,1,0.0,1-Back,1,m,Tue Apr 29 2025 10:52:09 GMT-0400 (Eastern Daylight Time),235330.0999994278,020_y_f_h_a.png,I,m,902,8,1,1934.5999994277954,233395.5,9015,VNB,B,7
6,test,1,0.0,1-Back,1,m,Tue Apr 29 2025 10:52:09 GMT-0400 (Eastern Daylight Time),237280.19999980927,004_o_m_n_a.png,I,m,888,9,1,1912.9000005722046,235367.29999923706,9015,VNB,B,8
7,test,1,0.0,1-Back,1,m,Tue Apr 29 2025 10:52:09 GMT-0400 (Eastern Daylight Time),239263.39999961853,016_y_m_h_a.png,I,m,906,10,1,1932.6999998092651,237330.69999980927,9015,VNB,B,9
8,test,1,0.0,1-Back,1,m,Tue Apr 29 2025 10:52:09 GMT-0400 (Eastern Daylight Time),241063.19999980927,004_o_m_d_a.png,I,m,730,11,1,1749.6999998092651,239313.5,9015,VNB,B,10
9,test,1,1.0,1-Back,1,z,Tue Apr 29 2025 10:52:09 GMT-0400 (Eastern Daylight Time),243213.29999923706,005_o_f_d_a.png,I,z,1074,12,1,2100.5,241112.79999923706,9015,VNB,B,11
9,test,1,0.0,1-Back,0,m,Tue Apr 29 2025 10:52:09 GMT-0400 (Eastern Daylight Time),245496.5,007_m_m_n_a.png,I,z,1228,13,1,2238.300000190735,243258.19999980927,9015,VNB,B,12
10,test,1,1.0,1-Back,1,z,Tue Apr 29 2025 10:52:09 GMT-0400 (Eastern Daylight Time),247630.0999994278,020_y_f_n_a.png,I,z,1056,14,1,2082.5999994277954,245547.5,9015,VNB,B,13
11,test,1,0.0,1-Back,1,m,Tue Apr 29 2025 10:52:09 GMT-0400 (Eastern Daylight Time),249596.19999980927,011_m_f_h_a.png,I,m,907,15,1,1931.6999998092651,247664.5,9015,VNB,B,14
11,test,1,0.0,1-Back,0,m,Tue Apr 29 2025 10:52:09 GMT-0400 (Eastern Daylight Time),251413.5,007_m_m_d_a.png,I,z,766,16,1,1801.9000005722046,249611.5999994278,9015,VNB,B,15
11,test,1,0.0,1-Back,0,m,Tue Apr 29 2025 10:52:09 GMT-0400 (Eastern Daylight Time),254496.89999961853,016_y_m_n_a.png,I,None,2016,17,1,3038.800000190735,251458.0999994278,9015,VNB,B,16
12,test,1,0.0,1-Back,1,m,Tue Apr 29 2025 10:52:09 GMT-0400 (Eastern Daylight Time),256430.0999994278,005_o_f_h_a.png,I,m,857,18,1,1882.0,254548.0999994278,9015,VNB,B,17
0,test,2,0.0,1-Back,,,Tue Apr 29 2025 10:52:09 GMT-0400 (Eastern Daylight Time),256430.0999994278,016_y_m_n_a.png,I,space,2629,1,1,1882.0,254548.0999994278,9015,VNB,B,0
1,test,2,0.0,1-Back,1,m,Tue Apr 29 2025 10:52:09 GMT-0400 (Eastern Daylight Time),262996.69999980927,020_y_f_h_a.png,I,m,850,2,1,1872.1999998092651,261124.5,9015,VNB,B,1
2,test,2,1.0,1-Back,1,m,Tue Apr 29 2025 10:52:09 GMT-0400 (Eastern Daylight Time),265313.39999961853,004_o_m_n_a.png,I,m,1237,3,1,2263.199999809265,263050.19999980927,9015,VNB,B,2
2,test,2,0.0,1-Back,0,m,Tue Apr 29 2025 10:52:09 GMT-0400 (Eastern Daylight Time),267363.29999923706,011_m_f_d_a.png,I,z,968,4,1,1998.8999996185303,265364.39999961853,9015,VNB,B,3
3,test,2,0.0,1-Back,1,z,Tue Apr 29 2025 10:52:09 GMT-0400 (Eastern Daylight Time),269096.79999923706,007_m_m_d_a.png,I,z,662,5,1,1702.8999996185303,267393.89999961853,9015,VNB,B,4
4,test,2,0.0,1-Back,1,m,Tue Apr 29 2025 10:52:09 GMT-0400 (Eastern Daylight Time),270946.89999961853,016_y_m_h_a.png,I,m,768,6,1,1805.3999996185303,269141.5,9015,VNB,B,5
4,test,2,1.0,1-Back,0,z,Tue Apr 29 2025 10:52:09 GMT-0400 (Eastern Daylight Time),272546.69999980927,005_o_f_h_a.png,I,m,518,7,1,1565.1000003814697,270981.5999994278,9015,VNB,B,6
4,test,2,0.0,1-Back,0,m,Tue Apr 29 2025 10:52:09 GMT-0400 (Eastern Daylight Time),274596.5,011_m_f_n_a.png,I,z,967,8,1,2002.5,272594.0,9015,VNB,B,7
4,test,2,0.0,1-Back,0,m,Tue Apr 29 2025 10:52:09 GMT-0400 (Eastern Daylight Time),276496.89999961853,020_y_f_d_a.png,I,z,820,9,1,1863.3000001907349,274633.5999994278,9015,VNB,B,8
5,test,2,0.0,1-Back,1,m,Tue Apr 29 2025 10:52:09 GMT-0400 (Eastern Daylight Time),278413.39999961853,007_m_m_n_a.png,I,m,840,10,1,1877.0,276536.39999961853,9015,VNB,B,9
6,test,2,1.0,1-Back,1,m,Tue Apr 29 2025 10:52:09 GMT-0400 (Eastern Daylight Time),280713.19999980927,011_m_f_h_a.png,I,m,1228,11,1,2255.699999809265,278457.5,9015,VNB,B,10
7,test,2,0.0,1-Back,1,z,Tue Apr 29 2025 10:52:09 GMT-0400 (Eastern Daylight Time),282996.5999994278,004_o_m_h_a.png,I,z,1201,12,1,2242.199999809265,280754.39999961853,9015,VNB,B,11
8,test,2,0.0,1-Back,1,m,Tue Apr 29 2025 10:52:09 GMT-0400 (Eastern Daylight Time),284696.5999994278,016_y_m_d_a.png,I,m,630,13,1,1664.5999994277954,283032.0,9015,VNB,B,12
9,test,2,0.0,1-Back,1,m,Tue Apr 29 2025 10:52:09 GMT-0400 (Eastern Daylight Time),287180.19999980927,005_o_f_n_a.png,I,m,1408,14,1,2433.0,284747.19999980927,9015,VNB,B,13
10,test,2,0.0,1-Back,1,z,Tue Apr 29 2025 10:52:09 GMT-0400 (Eastern Daylight Time),289330.0,020_y_f_n_a.png,I,z,1069,15,1,2110.300000190735,287219.69999980927,9015,VNB,B,14
11,test,2,1.0,1-Back,1,m,Tue Apr 29 2025 10:52:09 GMT-0400 (Eastern Daylight Time),291246.5999994278,007_m_m_h_a.png,I,m,839,16,1,1864.3000001907349,289382.29999923706,9015,VNB,B,15
12,test,2,0.0,1-Back,1,m,Tue Apr 29 2025 10:52:09 GMT-0400 (Eastern Daylight Time),293479.89999961853,005_o_f_d_a.png,I,m,1162,17,1,2199.0,291280.89999961853,9015,VNB,B,16
12,test,2,1.0,1-Back,0,z,Tue Apr 29 2025 10:52:09 GMT-0400 (Eastern Daylight Time),296530.0,004_o_m_d_a.png,I,m,1970,18,1,2998.0,293532.0,9015,VNB,B,17
0,test,3,1.0,1-Back,,,Tue Apr 29 2025 10:52:09 GMT-0400 (Eastern Daylight Time),296530.0,005_o_f_h_a.png,I,space,1905,1,1,2998.0,293532.0,9015,VNB,B,0
1,test,3,0.0,1-Back,1,m,Tue Apr 29 2025 10:52:09 GMT-0400 (Eastern Daylight Time),302546.79999923706,011_m_f_d_a.png,I,m,852,2,1,1882.0999994277954,300664.69999980927,9015,VNB,B,1
1,test,3,1.0,1-Back,0,m,Tue Apr 29 2025 10:52:09 GMT-0400 (Eastern Daylight Time),305546.69999980927,007_m_m_n_a.png,I,z,1927,3,1,2951.800000190735,302594.89999961853,9015,VNB,B,2
1,test,3,0.0,1-Back,0,z,Tue Apr 29 2025 10:52:09 GMT-0400 (Eastern Daylight Time),307913.19999980927,005_o_f_n_a.png,I,m,1295,4,1,2316.0,305597.19999980927,9015,VNB,B,3
2,test,3,1.0,1-Back,1,m,Tue Apr 29 2025 10:52:09 GMT-0400 (Eastern Daylight Time),310013.29999923706,004_o_m_d_a.png,I,m,1041,5,1,2061.199999809265,307952.0999994278,9015,VNB,B,4
3,test,3,0.0,1-Back,1,m,Tue Apr 29 2025 10:52:09 GMT-0400 (Eastern Daylight Time),312446.69999980927,020_y_f_h_a.png,I,m,1356,6,1,2381.300000190735,310065.39999961853,9015,VNB,B,5
4,test,3,0.0,1-Back,1,z,Tue Apr 29 2025 10:52:09 GMT-0400 (Eastern Daylight Time),314513.29999923706,016_y_m_h_a.png,I,z,987,7,1,2021.7999992370605,312491.5,9015,VNB,B,6
5,test,3,0.0,1-Back,1,m,Tue Apr 29 2025 10:52:09 GMT-0400 (Eastern Daylight Time),316280.0,011_m_f_n_a.png,I,m,696,8,1,1722.4000005722046,314557.5999994278,9015,VNB,B,7
6,test,3,0.0,1-Back,1,m,Tue Apr 29 2025 10:52:09 GMT-0400 (Eastern Daylight Time),318379.89999961853,020_y_f_d_a.png,I,m,1043,9,1,2062.199999809265,316317.69999980927,9015,VNB,B,8
7,test,3,1.0,1-Back,1,m,Tue Apr 29 2025 10:52:09 GMT-0400 (Eastern Daylight Time),321062.69999980927,004_o_m_n_a.png,I,m,1612,10,1,2634.5,318428.19999980927,9015,VNB,B,9
8,test,3,0.0,1-Back,1,m,Tue Apr 29 2025 10:52:09 GMT-0400 (Eastern Daylight Time),323064.0,007_m_m_h_a.png,I,m,932,11,1,1946.0,321118.0,9015,VNB,B,10
9,test,3,0.0,1-Back,1,z,Tue Apr 29 2025 10:52:09 GMT-0400 (Eastern Daylight Time),324596.69999980927,011_m_f_h_a.png,I,z,466,12,1,1485.8000001907349,323110.89999961853,9015,VNB,B,11
10,test,3,1.0,1-Back,1,m,Tue Apr 29 2025 10:52:09 GMT-0400 (Eastern Daylight Time),326446.5999994278,005_o_f_d_a.png,I,m,773,13,1,1800.8999996185303,324645.69999980927,9015,VNB,B,12
11,test,3,0.0,1-Back,1,z,Tue Apr 29 2025 10:52:09 GMT-0400 (Eastern Daylight Time),328730.0999994278,007_m_m_d_a.png,I,z,1212,14,1,2235.8999996185303,326494.19999980927,9015,VNB,B,13
12,test,3,0.0,1-Back,1,m,Tue Apr 29 2025 10:52:09 GMT-0400 (Eastern Daylight Time),330763.19999980927,016_y_m_n_a.png,I,m,959,15,1,1997.9000005722046,328765.29999923706,9015,VNB,B,14
13,test,3,1.0,1-Back,1,m,Tue Apr 29 2025 10:52:09 GMT-0400 (Eastern Daylight Time),332880.0,004_o_m_h_a.png,I,m,1038,16,1,2067.1000003814697,330812.89999961853,9015,VNB,B,15
14,test,3,0.0,1-Back,1,m,Tue Apr 29 2025 10:52:09 GMT-0400 (Eastern Daylight Time),335329.89999961853,016_y_m_d_a.png,I,m,1369,17,1,2398.8999996185303,332931.0,9015,VNB,B,16
14,test,3,1.0,1-Back,0,m,Tue Apr 29 2025 10:52:09 GMT-0400 (Eastern Daylight Time),337630.0,020_y_f_n_a.png,I,z,1223,18,1,2250.1000003814697,335379.89999961853,9015,VNB,B,17
0,test,4,1.0,1-Back,,,Tue Apr 29 2025 10:52:09 GMT-0400 (Eastern Daylight Time),337630.0,007_m_m_d_a.png,I,space,1733,1,1,2250.1000003814697,335379.89999961853,9015,VNB,B,0
1,test,4,0.0,1-Back,1,z,Tue Apr 29 2025 10:52:09 GMT-0400 (Eastern Daylight Time),343263.19999980927,004_o_m_d_a.png,I,z,639,2,1,1666.6000003814697,341596.5999994278,9015,VNB,B,1
2,test,4,0.0,1-Back,1,m,Tue Apr 29 2025 10:52:09 GMT-0400 (Eastern Daylight Time),346063.19999980927,016_y_m_h_a.png,I,m,1722,3,1,2749.800000190735,343313.39999961853,9015,VNB,B,2
3,test,4,0.0,1-Back,1,m,Tue Apr 29 2025 10:52:09 GMT-0400 (Eastern Daylight Time),348529.79999923706,011_m_f_n_a.png,I,m,1386,4,1,2416.0999994277954,346113.69999980927,9015,VNB,B,3
4,test,4,1.0,1-Back,1,m,Tue Apr 29 2025 10:52:09 GMT-0400 (Eastern Daylight Time),350630.29999923706,005_o_f_h_a.png,I,m,1031,5,1,2050.699999809265,348579.5999994278,9015,VNB,B,4
5,test,4,0.0,1-Back,1,m,Tue Apr 29 2025 10:52:09 GMT-0400 (Eastern Daylight Time),353580.0,007_m_m_n_a.png,I,m,1892,6,1,2904.800000190735,350675.19999980927,9015,VNB,B,5
6,test,4,0.0,1-Back,1,m,Tue Apr 29 2025 10:52:09 GMT-0400 (Eastern Daylight Time),355630.0,016_y_m_d_a.png,I,m,973,7,1,2008.8000001907349,353621.19999980927,9015,VNB,B,6
7,test,4,1.0,1-Back,1,z,Tue Apr 29 2025 10:52:09 GMT-0400 (Eastern Daylight Time),357746.5,020_y_f_d_a.png,I,z,1035,8,1,2069.0,355677.5,9015,VNB,B,7
8,test,4,0.0,1-Back,1,m,Tue Apr 29 2025 10:52:09 GMT-0400 (Eastern Daylight Time),359663.39999961853,011_m_f_h_a.png,I,m,855,9,1,1885.3000001907349,357778.0999994278,9015,VNB,B,8
9,test,4,0.0,1-Back,1,z,Tue Apr 29 2025 10:52:09 GMT-0400 (Eastern Daylight Time),361330.0,004_o_m_h_a.png,I,z,586,10,1,1619.5,359710.5,9015,VNB,B,9
10,test,4,1.0,1-Back,1,m,Tue Apr 29 2025 10:52:09 GMT-0400 (Eastern Daylight Time),363196.5999994278,005_o_f_n_a.png,I,m,792,11,1,1824.6999998092651,361371.89999961853,9015,VNB,B,10
11,test,4,0.0,1-Back,1,m,Tue Apr 29 2025 10:52:09 GMT-0400 (Eastern Daylight Time),365863.0999994278,011_m_f_d_a.png,I,m,1613,12,1,2628.199999809265,363234.89999961853,9015,VNB,B,11
11,test,4,0.0,1-Back,0,m,Tue Apr 29 2025 10:52:09 GMT-0400 (Eastern Daylight Time),368946.69999980927,020_y_f_n_a.png,I,None,2015,13,1,3034.9000005722046,365911.79999923706,9015,VNB,B,12
11,test,4,0.0,1-Back,0,m,Tue Apr 29 2025 10:52:09 GMT-0400 (Eastern Daylight Time),371763.19999980927,005_o_f_d_a.png,I,z,1751,14,1,2768.1000003814697,368995.0999994278,9015,VNB,B,13
12,test,4,0.0,1-Back,1,m,Tue Apr 29 2025 10:52:09 GMT-0400 (Eastern Daylight Time),373679.19999980927,020_y_f_h_a.png,I,m,838,15,1,1882.1999998092651,371797.0,9015,VNB,B,14
12,test,4,1.0,1-Back,0,z,Tue Apr 29 2025 10:52:09 GMT-0400 (Eastern Daylight Time),375463.0,007_m_m_h_a.png,I,m,713,16,1,1742.5,373720.5,9015,VNB,B,15
13,test,4,0.0,1-Back,1,m,Tue Apr 29 2025 10:52:09 GMT-0400 (Eastern Daylight Time),377629.79999923706,004_o_m_n_a.png,I,m,1090,17,1,2122.3999996185303,375507.39999961853,9015,VNB,B,16
14,test,4,1.0,1-Back,1,z,Tue Apr 29 2025 10:52:09 GMT-0400 (Eastern Daylight Time),379699.69999980927,016_y_m_n_a.png,I,z,988,18,1,2018.1000003814697,377681.5999994278,9015,VNB,B,17
0,test,5,1.0,1-Back,,,Tue Apr 29 2025 10:52:09 GMT-0400 (Eastern Daylight Time),379699.69999980927,004_o_m_n_a.png,I,space,1488,1,1,2018.1000003814697,377681.5999994278,9015,VNB,B,0
1,test,5,1.0,1-Back,1,m,Tue Apr 29 2025 10:52:09 GMT-0400 (Eastern Daylight Time),385663.39999961853,005_o_f_h_a.png,I,m,1256,2,1,2270.6000003814697,383392.79999923706,9015,VNB,B,1
1,test,5,0.0,1-Back,0,m,Tue Apr 29 2025 10:52:09 GMT-0400 (Eastern Daylight Time),387580.0,016_y_m_d_a.png,I,z,842,3,1,1870.3000001907349,385709.69999980927,9015,VNB,B,2
2,test,5,0.0,1-Back,1,z,Tue Apr 29 2025 10:52:09 GMT-0400 (Eastern Daylight Time),389813.29999923706,004_o_m_d_a.png,I,z,1150,4,1,2184.5999994277954,387628.69999980927,9015,VNB,B,3
3,test,5,0.0,1-Back,1,m,Tue Apr 29 2025 10:52:09 GMT-0400 (Eastern Daylight Time),391746.5999994278,011_m_f_h_a.png,I,m,852,5,1,1892.8000001907349,389853.79999923706,9015,VNB,B,4
4,test,5,0.0,1-Back,1,m,Tue Apr 29 2025 10:52:09 GMT-0400 (Eastern Daylight Time),394196.5999994278,020_y_f_n_a.png,I,m,1367,6,1,2402.300000190735,391794.29999923706,9015,VNB,B,5
5,test,5,1.0,1-Back,1,z,Tue Apr 29 2025 10:52:09 GMT-0400 (Eastern Daylight Time),396129.89999961853,005_o_f_n_a.png,I,z,869,7,1,1900.3000001907349,394229.5999994278,9015,VNB,B,6
5,test,5,0.0,1-Back,0,m,Tue Apr 29 2025 10:52:09 GMT-0400 (Eastern Daylight Time),398363.0999994278,011_m_f_d_a.png,I,z,1160,8,1,2185.0,396178.0999994278,9015,VNB,B,7
6,test,5,0.0,1-Back,1,m,Tue Apr 29 2025 10:52:09 GMT-0400 (Eastern Daylight Time),400146.5999994278,016_y_m_h_a.png,I,m,702,9,1,1734.0999994277954,398412.5,9015,VNB,B,8
7,test,5,0.0,1-Back,1,m,Tue Apr 29 2025 10:52:09 GMT-0400 (Eastern Daylight Time),402463.0,020_y_f_d_a.png,I,m,1239,10,1,2280.4000005722046,400182.5999994278,9015,VNB,B,9
7,test,5,0.0,1-Back,0,m,Tue Apr 29 2025 10:52:09 GMT-0400 (Eastern Daylight Time),405179.89999961853,007_m_m_n_a.png,I,z,1642,11,1,2683.699999809265,402496.19999980927,9015,VNB,B,10
8,test,5,1.0,1-Back,1,z,Tue Apr 29 2025 10:52:09 GMT-0400 (Eastern Daylight Time),407879.69999980927,011_m_f_n_a.png,I,z,1630,12,1,2655.5,405224.19999980927,9015,VNB,B,11
9,test,5,0.0,1-Back,1,m,Tue Apr 29 2025 10:52:09 GMT-0400 (Eastern Daylight Time),409779.79999923706,004_o_m_h_a.png,I,m,818,13,1,1849.0,407930.79999923706,9015,VNB,B,12
10,test,5,0.0,1-Back,1,z,Tue Apr 29 2025 10:52:09 GMT-0400 (Eastern Daylight Time),412279.79999923706,007_m_m_h_a.png,I,z,1446,14,1,2453.0,409826.79999923706,9015,VNB,B,13
11,test,5,1.0,1-Back,1,m,Tue Apr 29 2025 10:52:09 GMT-0400 (Eastern Daylight Time),414196.5,005_o_f_d_a.png,I,m,851,15,1,1877.1000003814697,412319.39999961853,9015,VNB,B,14
12,test,5,0.0,1-Back,1,m,Tue Apr 29 2025 10:52:09 GMT-0400 (Eastern Daylight Time),416679.79999923706,016_y_m_n_a.png,I,m,1413,16,1,2430.5999994277954,414249.19999980927,9015,VNB,B,15
13,test,5,0.0,1-Back,1,m,Tue Apr 29 2025 10:52:09 GMT-0400 (Eastern Daylight Time),418913.0999994278,020_y_f_h_a.png,I,m,1153,17,1,2184.0999994277954,416729.0,9015,VNB,B,16
14,test,5,0.0,1-Back,1,m,Tue Apr 29 2025 10:52:09 GMT-0400 (Eastern Daylight Time),421346.5,007_m_m_d_a.png,I,m,1352,18,1,2380.4000005722046,418966.0999994278,9015,VNB,B,17
0,prac,1,0.0,2-Back,,,Tue Apr 29 2025 10:52:09 GMT-0400 (Eastern Daylight Time),421346.5,011_m_f_n_a.png,I,space,12336,1,1,2380.4000005722046,418966.0999994278,9015,VNB,B,0
0,prac,1,0.0,2-Back,,,Tue Apr 29 2025 10:52:09 GMT-0400 (Eastern Daylight Time),421346.5,005_o_f_h_a.png,I,space,12336,2,1,2380.4000005722046,418966.0999994278,9015,VNB,B,0
0,prac,1,0.0,2-Back,0,m,Tue Apr 29 2025 10:52:09 GMT-0400 (Eastern Daylight Time),521146.39999961853,004_o_m_d_a.png,I,z,1099,3,1,2078.3999996185303,519068.0,9015,VNB,B,1
0,prac,1,1.0,2-Back,0,z,Tue Apr 29 2025 10:52:09 GMT-0400 (Eastern Daylight Time),523779.69999980927,007_m_m_h_a.png,I,m,1528,4,1,2598.4000005722046,521181.29999923706,9015,VNB,B,2
1,prac,1,0.0,2-Back,1,m,Tue Apr 29 2025 10:52:09 GMT-0400 (Eastern Daylight Time),526313.0999994278,020_y_f_n_a.png,I,m,1511,5,1,2488.0,523825.0999994278,9015,VNB,B,3
1,prac,1,1.0,2-Back,0,z,Tue Apr 29 2025 10:52:09 GMT-0400 (Eastern Daylight Time),528729.6999998093,004_o_m_h_a.png,I,m,1473,6,1,2379.1000003814697,526350.5999994278,9015,VNB,B,4
1,prac,1,1.0,2-Back,0,z,Tue Apr 29 2025 10:52:09 GMT-0400 (Eastern Daylight Time),530813.1999998093,016_y_m_n_a.png,I,m,961,7,1,2033.3000001907349,528779.8999996185,9015,VNB,B,5
1,prac,1,0.0,2-Back,0,m,Tue Apr 29 2025 10:52:09 GMT-0400 (Eastern Daylight Time),533196.2999992371,011_m_f_d_a.png,I,z,1409,8,1,2343.0,530853.2999992371,9015,VNB,B,6
1,prac,1,0.0,2-Back,0,m,Tue Apr 29 2025 10:52:09 GMT-0400 (Eastern Daylight Time),535562.8999996185,005_o_f_d_a.png,I,z,1253,9,1,2330.699999809265,533232.1999998093,9015,VNB,B,7
2,prac,1,0.0,2-Back,1,m,Tue Apr 29 2025 10:52:09 GMT-0400 (Eastern Daylight Time),537713.0,007_m_m_h_a.png,I,m,1168,10,1,2115.4000005722046,535597.5999994278,9015,VNB,B,8
2,prac,1,1.0,2-Back,0,z,Tue Apr 29 2025 10:52:09 GMT-0400 (Eastern Daylight Time),540346.1999998093,020_y_f_d_a.png,I,m,1016,11,1,2595.1000003814697,537751.0999994278,9015,VNB,B,9
2,prac,1,0.0,2-Back,0,m,Tue Apr 29 2025 10:52:09 GMT-0400 (Eastern Daylight Time),543379.5,004_o_m_n_a.png,I,None,2017,12,1,2998.300000190735,540381.1999998093,9015,VNB,B,10
0,prac,2,0.0,2-Back,,,Tue Apr 29 2025 10:52:09 GMT-0400 (Eastern Daylight Time),543379.5,011_m_f_n_a.png,I,a,42525,1,1,2998.300000190735,540381.1999998093,9015,VNB,B,0
0,prac,2,0.0,2-Back,,,Tue Apr 29 2025 10:52:09 GMT-0400 (Eastern Daylight Time),543379.5,005_o_f_h_a.png,I,a,42525,2,1,2998.300000190735,540381.1999998093,9015,VNB,B,0
0,prac,2,0.0,2-Back,0,m,Tue Apr 29 2025 10:52:09 GMT-0400 (Eastern Daylight Time),593412.6999998093,004_o_m_d_a.png,I,z,1149,3,1,2045.6000003814697,591367.0999994278,9015,VNB,B,1
0,prac,2,1.0,2-Back,0,z,Tue Apr 29 2025 10:52:09 GMT-0400 (Eastern Daylight Time),595879.3999996185,007_m_m_h_a.png,I,m,1476,4,1,2428.300000190735,593451.0999994278,9015,VNB,B,2
1,prac,2,0.0,2-Back,1,m,Tue Apr 29 2025 10:52:09 GMT-0400 (Eastern Daylight Time),598279.7999992371,020_y_f_n_a.png,I,m,1459,5,1,2366.0,595913.7999992371,9015,VNB,B,3
1,prac,2,1.0,2-Back,0,z,Tue Apr 29 2025 10:52:09 GMT-0400 (Eastern Daylight Time),600179.5,004_o_m_h_a.png,I,m,937,6,1,1864.4000005722046,598315.0999994278,9015,VNB,B,4
1,prac,2,1.0,2-Back,0,z,Tue Apr 29 2025 10:52:09 GMT-0400 (Eastern Daylight Time),602662.5999994278,016_y_m_n_a.png,I,m,1504,7,1,2442.8999996185303,600219.6999998093,9015,VNB,B,5
1,prac,2,0.0,2-Back,0,m,Tue Apr 29 2025 10:52:09 GMT-0400 (Eastern Daylight Time),604912.6999998093,011_m_f_d_a.png,I,z,1278,8,1,2215.199999809265,602697.5,9015,VNB,B,6
2,prac,2,0.0,2-Back,1,m,Tue Apr 29 2025 10:52:09 GMT-0400 (Eastern Daylight Time),607029.6999998093,005_o_f_d_a.png,I,m,1151,9,1,2078.300000190735,604951.3999996185,9015,VNB,B,7
2,prac,2,0.0,2-Back,0,m,Tue Apr 29 2025 10:52:09 GMT-0400 (Eastern Daylight Time),609596.1999998093,007_m_m_h_a.png,I,z,1756,10,1,2531.800000190735,607064.3999996185,9015,VNB,B,8
2,prac,2,1.0,2-Back,0,z,Tue Apr 29 2025 10:52:09 GMT-0400 (Eastern Daylight Time),611312.7999992371,020_y_f_d_a.png,I,m,760,11,1,1681.3999996185303,609631.3999996185,9015,VNB,B,9
2,prac,2,0.0,2-Back,0,m,Tue Apr 29 2025 10:52:09 GMT-0400 (Eastern Daylight Time),613146.3999996185,004_o_m_n_a.png,I,z,892,12,1,1794.6000003814697,611351.7999992371,9015,VNB,B,10
0,test,1,0.0,2-Back,,,Tue Apr 29 2025 10:52:09 GMT-0400 (Eastern Daylight Time),613146.3999996185,016_y_m_h_a.png,I,space,30398,1,1,1794.6000003814697,611351.7999992371,9015,VNB,B,0
0,test,1,0.0,2-Back,,,Tue Apr 29 2025 10:52:09 GMT-0400 (Eastern Daylight Time),613146.3999996185,005_o_f_n_a.png,I,space,30398,2,1,1794.6000003814697,611351.7999992371,9015,VNB,B,0
1,test,1,0.0,2-Back,1,z,Tue Apr 29 2025 10:52:09 GMT-0400 (Eastern Daylight Time),668896.2999992371,004_o_m_h_a.png,I,z,971,3,1,1997.5999994277954,666898.6999998093,9015,VNB,B,1
1,test,1,0.0,2-Back,0,m,Tue Apr 29 2025 10:52:09 GMT-0400 (Eastern Daylight Time),671962.8999996185,011_m_f_d_a.png,I,None,2015,4,1,3034.699999809265,668928.1999998093,9015,VNB,B,2
2,test,1,1.0,2-Back,1,m,Tue Apr 29 2025 10:52:09 GMT-0400 (Eastern Daylight Time),674512.7999992371,016_y_m_n_a.png,I,m,1487,5,1,2517.2999992370605,671995.5,9015,VNB,B,3
2,test,1,0.0,2-Back,0,z,Tue Apr 29 2025 10:52:09 GMT-0400 (Eastern Daylight Time),677579.5999994278,020_y_f_d_a.png,I,None,2015,6,1,3037.800000190735,674541.7999992371,9015,VNB,B,4
2,test,1,0.0,2-Back,0,m,Tue Apr 29 2025 10:52:09 GMT-0400 (Eastern Daylight Time),680029.5,007_m_m_h_a.png,I,z,1391,7,1,2412.4000005722046,677617.0999994278,9015,VNB,B,5
3,test,1,1.0,2-Back,1,m,Tue Apr 29 2025 10:52:09 GMT-0400 (Eastern Daylight Time),682613.1999998093,020_y_f_n_a.png,I,m,1534,8,1,2551.5,680061.6999998093,9015,VNB,B,6
4,test,1,0.0,2-Back,1,z,Tue Apr 29 2025 10:52:09 GMT-0400 (Eastern Daylight Time),685596.0,005_o_f_h_a.png,I,z,1925,9,1,2947.1000003814697,682648.8999996185,9015,VNB,B,7
4,test,1,0.0,2-Back,0,m,Tue Apr 29 2025 10:52:09 GMT-0400 (Eastern Daylight Time),688662.6999998093,004_o_m_d_a.png,I,None,2016,10,1,3034.0,685628.6999998093,9015,VNB,B,8
5,test,1,1.0,2-Back,1,m,Tue Apr 29 2025 10:52:09 GMT-0400 (Eastern Daylight Time),691029.1999998093,007_m_m_d_a.png,I,m,1315,11,1,2329.199999809265,688700.0,9015,VNB,B,9
6,test,1,0.0,2-Back,1,m,Tue Apr 29 2025 10:52:09 GMT-0400 (Eastern Daylight Time),693146.1999998093,011_m_f_n_a.png,I,m,1061,12,1,2080.800000190735,691065.3999996185,9015,VNB,B,10
6,test,1,0.0,2-Back,0,m,Tue Apr 29 2025 10:52:09 GMT-0400 (Eastern Daylight Time),695596.0999994278,020_y_f_h_a.png,I,z,1359,13,1,2368.0999994277954,693228.0,9015,VNB,B,11
7,test,1,0.0,2-Back,1,z,Tue Apr 29 2025 10:52:09 GMT-0400 (Eastern Daylight Time),697962.7999992371,007_m_m_n_a.png,I,z,1310,14,1,2331.5,695631.2999992371,9015,VNB,B,12
8,test,1,0.0,2-Back,1,m,Tue Apr 29 2025 10:52:09 GMT-0400 (Eastern Daylight Time),700979.2999992371,016_y_m_d_a.png,I,m,1950,15,1,2980.7999992370605,697998.5,9015,VNB,B,13
9,test,1,1.0,2-Back,1,m,Tue Apr 29 2025 10:52:09 GMT-0400 (Eastern Daylight Time),703196.1999998093,011_m_f_h_a.png,I,m,1159,16,1,2181.4000005722046,701014.7999992371,9015,VNB,B,14
10,test,1,0.0,2-Back,1,z,Tue Apr 29 2025 10:52:09 GMT-0400 (Eastern Daylight Time),705179.3999996185,005_o_f_d_a.png,I,z,926,17,1,1955.0,703224.3999996185,9015,VNB,B,15
11,test,1,0.0,2-Back,1,m,Tue Apr 29 2025 10:52:09 GMT-0400 (Eastern Daylight Time),707996.0999994278,004_o_m_n_a.png,I,m,1758,18,1,2775.699999809265,705220.3999996185,9015,VNB,B,16
0,test,2,0.0,2-Back,,,Tue Apr 29 2025 10:52:09 GMT-0400 (Eastern Daylight Time),707996.0999994278,007_m_m_h_a.png,I,space,1238,1,1,2775.699999809265,705220.3999996185,9015,VNB,B,0
0,test,2,0.0,2-Back,,,Tue Apr 29 2025 10:52:09 GMT-0400 (Eastern Daylight Time),707996.0999994278,020_y_f_n_a.png,I,space,1238,2,1,2775.699999809265,705220.3999996185,9015,VNB,B,0
1,test,2,1.0,2-Back,1,z,Tue Apr 29 2025 10:52:09 GMT-0400 (Eastern Daylight Time),716829.5999994278,005_o_f_h_a.png,I,z,1174,3,1,2198.699999809265,714630.8999996185,9015,VNB,B,1
1,test,2,0.0,2-Back,0,m,Tue Apr 29 2025 10:52:09 GMT-0400 (Eastern Daylight Time),719896.0999994278,004_o_m_d_a.png,I,None,2016,4,1,3029.5999994277954,716866.5,9015,VNB,B,2
2,test,2,0.0,2-Back,1,m,Tue Apr 29 2025 10:52:09 GMT-0400 (Eastern Daylight Time),721862.2999992371,011_m_f_d_a.png,I,m,896,5,1,1927.6999998092651,719934.5999994278,9015,VNB,B,3
2,test,2,0.0,2-Back,0,m,Tue Apr 29 2025 10:52:09 GMT-0400 (Eastern Daylight Time),724912.6999998093,016_y_m_h_a.png,I,None,2015,6,1,3035.5,721877.1999998093,9015,VNB,B,4
2,test,2,0.0,2-Back,0,m,Tue Apr 29 2025 10:52:09 GMT-0400 (Eastern Daylight Time),726947.3999996185,005_o_f_n_a.png,I,z,969,7,1,2000.8000001907349,724946.5999994278,9015,VNB,B,5
2,test,2,1.0,2-Back,0,z,Tue Apr 29 2025 10:52:09 GMT-0400 (Eastern Daylight Time),730012.5999994278,004_o_m_h_a.png,I,None,2015,8,1,3038.800000190735,726973.7999992371,9015,VNB,B,6
2,test,2,0.0,2-Back,0,m,Tue Apr 29 2025 10:52:09 GMT-0400 (Eastern Daylight Time),733079.1999998093,020_y_f_d_a.png,I,None,2015,9,1,3028.199999809265,730051.0,9015,VNB,B,7
3,test,2,0.0,2-Back,1,m,Tue Apr 29 2025 10:52:09 GMT-0400 (Eastern Daylight Time),735345.7999992371,016_y_m_d_a.png,I,m,1219,10,1,2235.2999992370605,733110.5,9015,VNB,B,8
3,test,2,0.0,2-Back,0,m,Tue Apr 29 2025 10:52:09 GMT-0400 (Eastern Daylight Time),737712.5,007_m_m_n_a.png,I,z,1304,11,1,2332.4000005722046,735380.0999994278,9015,VNB,B,9
4,test,2,0.0,2-Back,1,m,Tue Apr 29 2025 10:52:09 GMT-0400 (Eastern Daylight Time),739896.0,011_m_f_h_a.png,I,m,1146,12,1,2160.0,737736.0,9015,VNB,B,10
5,test,2,1.0,2-Back,1,z,Tue Apr 29 2025 10:52:09 GMT-0400 (Eastern Daylight Time),742412.6999998093,004_o_m_n_a.png,I,z,1459,13,1,2477.300000190735,739935.3999996185,9015,VNB,B,11
6,test,2,0.0,2-Back,1,m,Tue Apr 29 2025 10:52:09 GMT-0400 (Eastern Daylight Time),745129.0999994278,005_o_f_d_a.png,I,m,1660,14,1,2679.5999994277954,742449.5,9015,VNB,B,12
7,test,2,0.0,2-Back,1,m,Tue Apr 29 2025 10:52:09 GMT-0400 (Eastern Daylight Time),747762.5999994278,020_y_f_h_a.png,I,m,1469,15,1,2494.800000190735,745267.7999992371,9015,VNB,B,13
7,test,2,0.0,2-Back,0,z,Tue Apr 29 2025 10:52:09 GMT-0400 (Eastern Daylight Time),750329.3999996185,007_m_m_d_a.png,I,m,1511,16,1,2535.699999809265,747793.6999998093,9015,VNB,B,14
8,test,2,0.0,2-Back,1,m,Tue Apr 29 2025 10:52:09 GMT-0400 (Eastern Daylight Time),752962.5999994278,016_y_m_n_a.png,I,m,1568,17,1,2601.5999994277954,750361.0,9015,VNB,B,15
8,test,2,1.0,2-Back,0,m,Tue Apr 29 2025 10:52:09 GMT-0400 (Eastern Daylight Time),755429.5,011_m_f_n_a.png,I,z,1399,18,1,2433.800000190735,752995.6999998093,9015,VNB,B,16
0,test,3,1.0,2-Back,,,Tue Apr 29 2025 10:52:09 GMT-0400 (Eastern Daylight Time),755429.5,004_o_m_n_a.png,I,space,910,1,1,2433.800000190735,752995.6999998093,9015,VNB,B,0
0,test,3,1.0,2-Back,,,Tue Apr 29 2025 10:52:09 GMT-0400 (Eastern Daylight Time),755429.5,005_o_f_d_a.png,I,space,910,2,1,2433.800000190735,752995.6999998093,9015,VNB,B,0
1,test,3,0.0,2-Back,1,m,Tue Apr 29 2025 10:52:09 GMT-0400 (Eastern Daylight Time),763862.3999996185,020_y_f_h_a.png,I,m,1113,3,1,2132.6000003814697,761729.7999992371,9015,VNB,B,1
1,test,3,0.0,2-Back,0,z,Tue Apr 29 2025 10:52:09 GMT-0400 (Eastern Daylight Time),766929.5,011_m_f_d_a.png,I,None,2016,4,1,3045.2000007629395,763884.2999992371,9015,VNB,B,2
1,test,3,1.0,2-Back,0,m,Tue Apr 29 2025 10:52:09 GMT-0400 (Eastern Daylight Time),769712.0,016_y_m_n_a.png,I,z,1719,5,1,2741.5,766970.5,9015,VNB,B,3
2,test,3,0.0,2-Back,1,m,Tue Apr 29 2025 10:52:09 GMT-0400 (Eastern Daylight Time),771929.2999992371,004_o_m_h_a.png,I,m,1161,6,1,2184.199999809265,769745.0999994278,9015,VNB,B,4
2,test,3,0.0,2-Back,0,z,Tue Apr 29 2025 10:52:09 GMT-0400 (Eastern Daylight Time),773578.8999996185,020_y_f_n_a.png,I,m,593,7,1,1610.6000003814697,771968.2999992371,9015,VNB,B,5
2,test,3,1.0,2-Back,0,m,Tue Apr 29 2025 10:52:09 GMT-0400 (Eastern Daylight Time),775862.5,007_m_m_d_a.png,I,z,1231,8,1,2255.1000003814697,773607.3999996185,9015,VNB,B,6
2,test,3,0.0,2-Back,0,m,Tue Apr 29 2025 10:52:09 GMT-0400 (Eastern Daylight Time),777995.8999996185,016_y_m_d_a.png,I,z,1075,9,1,2097.300000190735,775898.5999994278,9015,VNB,B,7
3,test,3,0.0,2-Back,1,m,Tue Apr 29 2025 10:52:09 GMT-0400 (Eastern Daylight Time),779929.2999992371,005_o_f_h_a.png,I,m,891,10,1,1902.8999996185303,778026.3999996185,9015,VNB,B,8
3,test,3,1.0,2-Back,0,m,Tue Apr 29 2025 10:52:09 GMT-0400 (Eastern Daylight Time),781929.0,011_m_f_n_a.png,I,z,944,11,1,1964.1000003814697,779964.8999996185,9015,VNB,B,9
3,test,3,1.0,2-Back,0,z,Tue Apr 29 2025 10:52:09 GMT-0400 (Eastern Daylight Time),784429.1999998093,007_m_m_h_a.png,I,m,1441,12,1,2467.300000190735,781961.8999996185,9015,VNB,B,10
3,test,3,0.0,2-Back,0,m,Tue Apr 29 2025 10:52:09 GMT-0400 (Eastern Daylight Time),786028.8999996185,020_y_f_d_a.png,I,z,541,13,1,1565.6999998092651,784463.1999998093,9015,VNB,B,11
4,test,3,0.0,2-Back,1,m,Tue Apr 29 2025 10:52:09 GMT-0400 (Eastern Daylight Time),787546.0,005_o_f_n_a.png,I,m,461,14,1,1487.4000005722046,786058.5999994278,9015,VNB,B,12
4,test,3,0.0,2-Back,0,z,Tue Apr 29 2025 10:52:09 GMT-0400 (Eastern Daylight Time),790429.2999992371,004_o_m_d_a.png,I,m,1824,15,1,2847.2999992370605,787582.0,9015,VNB,B,13
5,test,3,1.0,2-Back,1,m,Tue Apr 29 2025 10:52:09 GMT-0400 (Eastern Daylight Time),792695.8999996185,011_m_f_h_a.png,I,m,1213,16,1,2235.8999996185303,790460.0,9015,VNB,B,14
5,test,3,0.0,2-Back,0,m,Tue Apr 29 2025 10:52:09 GMT-0400 (Eastern Daylight Time),794629.0999994278,007_m_m_n_a.png,I,z,882,17,1,1895.8000001907349,792733.2999992371,9015,VNB,B,15
6,test,3,0.0,2-Back,1,z,Tue Apr 29 2025 10:52:09 GMT-0400 (Eastern Daylight Time),796162.5,016_y_m_h_a.png,I,z,468,18,1,1504.0,794658.5,9015,VNB,B,16
0,test,4,0.0,2-Back,,,Tue Apr 29 2025 10:52:09 GMT-0400 (Eastern Daylight Time),796162.5,011_m_f_n_a.png,I,space,1200,1,1,1504.0,794658.5,9015,VNB,B,0
0,test,4,0.0,2-Back,,,Tue Apr 29 2025 10:52:09 GMT-0400 (Eastern Daylight Time),796162.5,004_o_m_n_a.png,I,space,1200,2,1,1504.0,794658.5,9015,VNB,B,0
0,test,4,1.0,2-Back,0,m,Tue Apr 29 2025 10:52:09 GMT-0400 (Eastern Daylight Time),804812.6999998093,016_y_m_h_a.png,I,z,1041,3,1,2062.800000190735,802749.8999996185,9015,VNB,B,1
1,test,4,1.0,2-Back,1,m,Tue Apr 29 2025 10:52:09 GMT-0400 (Eastern Daylight Time),807029.5,005_o_f_d_a.png,I,m,1165,4,1,2181.2000007629395,804848.2999992371,9015,VNB,B,2
2,test,4,0.0,2-Back,1,z,Tue Apr 29 2025 10:52:09 GMT-0400 (Eastern Daylight Time),809079.2999992371,004_o_m_h_a.png,I,z,997,5,1,2010.0,807069.2999992371,9015,VNB,B,3
3,test,4,0.0,2-Back,1,m,Tue Apr 29 2025 10:52:09 GMT-0400 (Eastern Daylight Time),811179.3999996185,007_m_m_n_a.png,I,m,1043,6,1,2062.6000003814697,809116.7999992371,9015,VNB,B,4
3,test,4,0.0,2-Back,0,m,Tue Apr 29 2025 10:52:09 GMT-0400 (Eastern Daylight Time),813746.0,011_m_f_d_a.png,I,z,1503,7,1,2531.300000190735,811214.6999998093,9015,VNB,B,5
4,test,4,0.0,2-Back,1,z,Tue Apr 29 2025 10:52:09 GMT-0400 (Eastern Daylight Time),815529.1999998093,020_y_f_n_a.png,I,z,730,8,1,1757.4000005722046,813771.7999992371,9015,VNB,B,6
5,test,4,1.0,2-Back,1,m,Tue Apr 29 2025 10:52:09 GMT-0400 (Eastern Daylight Time),817446.6999998093,005_o_f_h_a.png,I,m,865,9,1,1880.3000001907349,815566.3999996185,9015,VNB,B,7
6,test,4,0.0,2-Back,1,m,Tue Apr 29 2025 10:52:09 GMT-0400 (Eastern Daylight Time),819479.1999998093,007_m_m_h_a.png,I,m,963,10,1,1982.1000003814697,817497.0999994278,9015,VNB,B,8
6,test,4,0.0,2-Back,0,m,Tue Apr 29 2025 10:52:09 GMT-0400 (Eastern Daylight Time),821462.1999998093,020_y_f_d_a.png,I,z,931,11,1,1948.1999998092651,819514.0,9015,VNB,B,9
7,test,4,0.0,2-Back,1,m,Tue Apr 29 2025 10:52:09 GMT-0400 (Eastern Daylight Time),822812.5999994278,016_y_m_n_a.png,I,m,307,12,1,1326.5,821486.0999994278,9015,VNB,B,10
7,test,4,0.0,2-Back,0,z,Tue Apr 29 2025 10:52:09 GMT-0400 (Eastern Daylight Time),825612.6999998093,004_o_m_d_a.png,I,m,1741,13,1,2763.6000003814697,822849.0999994278,9015,VNB,B,11
7,test,4,1.0,2-Back,0,m,Tue Apr 29 2025 10:52:09 GMT-0400 (Eastern Daylight Time),828429.2999992371,011_m_f_h_a.png,I,z,1757,14,1,2793.0999994277954,825636.1999998093,9015,VNB,B,12
8,test,4,1.0,2-Back,1,m,Tue Apr 29 2025 10:52:09 GMT-0400 (Eastern Daylight Time),829513.0,020_y_f_h_a.png,I,m,28,15,1,1045.6000003814697,828467.3999996185,9015,VNB,B,13
8,test,4,0.0,2-Back,0,m,Tue Apr 29 2025 10:52:09 GMT-0400 (Eastern Daylight Time),831195.8999996185,005_o_f_n_a.png,I,z,626,16,1,1646.6000003814697,829549.2999992371,9015,VNB,B,14
9,test,4,0.0,2-Back,1,m,Tue Apr 29 2025 10:52:09 GMT-0400 (Eastern Daylight Time),832712.5,016_y_m_d_a.png,I,m,462,17,1,1481.2000007629395,831231.2999992371,9015,VNB,B,15
9,test,4,1.0,2-Back,0,m,Tue Apr 29 2025 10:52:09 GMT-0400 (Eastern Daylight Time),834812.5999994278,007_m_m_d_a.png,I,z,1041,18,1,2075.800000190735,832736.7999992371,9015,VNB,B,16
0,test,5,1.0,2-Back,,,Tue Apr 29 2025 10:52:09 GMT-0400 (Eastern Daylight Time),834812.5999994278,020_y_f_d_a.png,I,space,1863,1,1,2075.800000190735,832736.7999992371,9015,VNB,B,0
0,test,5,1.0,2-Back,,,Tue Apr 29 2025 10:52:09 GMT-0400 (Eastern Daylight Time),834812.5999994278,005_o_f_h_a.png,I,space,1863,2,1,2075.800000190735,832736.7999992371,9015,VNB,B,0
0,test,5,1.0,2-Back,0,z,Tue Apr 29 2025 10:52:09 GMT-0400 (Eastern Daylight Time),844629.2999992371,004_o_m_d_a.png,I,m,1565,3,1,2581.3999996185303,842047.8999996185,9015,VNB,B,1
0,test,5,1.0,2-Back,0,m,Tue Apr 29 2025 10:52:09 GMT-0400 (Eastern Daylight Time),847462.2999992371,011_m_f_n_a.png,I,z,1781,4,1,2805.199999809265,844657.0999994278,9015,VNB,B,2
1,test,5,0.0,2-Back,1,m,Tue Apr 29 2025 10:52:09 GMT-0400 (Eastern Daylight Time),849879.0,007_m_m_h_a.png,I,m,1363,5,1,2378.300000190735,847500.6999998093,9015,VNB,B,3
2,test,5,0.0,2-Back,1,z,Tue Apr 29 2025 10:52:09 GMT-0400 (Eastern Daylight Time),852012.5999994278,020_y_f_n_a.png,I,z,1074,6,1,2105.300000190735,849907.2999992371,9015,VNB,B,4
3,test,5,0.0,2-Back,1,m,Tue Apr 29 2025 10:52:09 GMT-0400 (Eastern Daylight Time),855012.2999992371,005_o_f_d_a.png,I,m,1932,7,1,2963.699999809265,852048.5999994278,9015,VNB,B,5
4,test,5,0.0,2-Back,1,m,Tue Apr 29 2025 10:52:09 GMT-0400 (Eastern Daylight Time),857046.6999998093,004_o_m_h_a.png,I,m,981,8,1,1998.3000001907349,855048.3999996185,9015,VNB,B,6
4,test,5,1.0,2-Back,0,z,Tue Apr 29 2025 10:52:09 GMT-0400 (Eastern Daylight Time),859429.2999992371,011_m_f_d_a.png,I,m,1332,9,1,2339.7999992370605,857089.5,9015,VNB,B,7
4,test,5,0.0,2-Back,0,m,Tue Apr 29 2025 10:52:09 GMT-0400 (Eastern Daylight Time),861379.0999994278,016_y_m_n_a.png,I,z,884,10,1,1909.3999996185303,859469.6999998093,9015,VNB,B,8
4,test,5,0.0,2-Back,0,m,Tue Apr 29 2025 10:52:09 GMT-0400 (Eastern Daylight Time),863495.6999998093,007_m_m_n_a.png,I,z,1046,11,1,2065.0,861430.6999998093,9015,VNB,B,9
5,test,5,0.0,2-Back,1,m,Tue Apr 29 2025 10:52:09 GMT-0400 (Eastern Daylight Time),865595.6999998093,020_y_f_h_a.png,I,m,1041,12,1,2065.0,863530.6999998093,9015,VNB,B,10
6,test,5,0.0,2-Back,1,m,Tue Apr 29 2025 10:52:09 GMT-0400 (Eastern Daylight Time),867062.2999992371,016_y_m_d_a.png,I,m,396,13,1,1407.0,865655.2999992371,9015,VNB,B,11
7,test,5,1.0,2-Back,1,z,Tue Apr 29 2025 10:52:09 GMT-0400 (Eastern Daylight Time),869029.3999996185,011_m_f_h_a.png,I,z,900,14,1,1930.8000001907349,867098.5999994278,9015,VNB,B,12
7,test,5,0.0,2-Back,0,m,Tue Apr 29 2025 10:52:09 GMT-0400 (Eastern Daylight Time),871312.5999994278,004_o_m_n_a.png,I,z,1204,15,1,2242.5,869070.0999994278,9015,VNB,B,13
8,test,5,0.0,2-Back,1,m,Tue Apr 29 2025 10:52:09 GMT-0400 (Eastern Daylight Time),872629.0,007_m_m_d_a.png,I,m,266,16,1,1280.6000003814697,871348.3999996185,9015,VNB,B,14
9,test,5,0.0,2-Back,1,z,Tue Apr 29 2025 10:52:09 GMT-0400 (Eastern Daylight Time),873995.7999992371,005_o_f_n_a.png,I,z,308,17,1,1334.5,872661.2999992371,9015,VNB,B,15
10,test,5,1.0,2-Back,1,m,Tue Apr 29 2025 10:52:09 GMT-0400 (Eastern Daylight Time),876129.3999996185,016_y_m_h_a.png,I,m,1070,18,1,2096.6000003814697,874032.7999992371,9015,VNB,B,16
