acc_sum,block_c,block_dur,condition,correct,correct_response,countdown,datetime,endtime,project,response,response_time,response_time_test1_response,response_time_test2_response,row_sel,same,session_number,start_end,starttime,stim1,stim2,subject_id,task,task_vers,time_test1,time_test2,trial
1,1,0.0,prac,1,m,30000.0,Wed Jan 08 2025 11:54:21 GMT-0600 (Central Standard Time),41997.0,I,m,1188,,,2,no,1,2712.600000143051,39284.39999985695,practrial2.png,practrial2b.png,8012,PC,A,,,1
2,1,0.0,prac,1,z,30000.0,Wed Jan 08 2025 11:54:21 GMT-0600 (Central Standard Time),44262.699999809265,I,z,741,,,3,yes,1,2260.699999809265,42002.0,practrial3.png,practrial3.png,8012,PC,A,,,2
3,1,0.0,prac,1,z,30000.0,Wed Jan 08 2025 11:54:21 GMT-0600 (Central Standard Time),46495.39999985695,I,z,694,,,1,yes,1,2228.899999856949,44266.5,practrial1.png,practrial1.png,8012,PC,A,,,3
4,1,0.0,prac,1,z,30000.0,Wed Jan 08 2025 11:54:21 GMT-0600 (Central Standard Time),48744.699999809265,I,z,717,,,5,yes,1,2245.5,46499.199999809265,practrial5.png,practrial5.png,8012,PC,A,,,4
4,1,0.0,prac,0,m,30000.0,Wed Jan 08 2025 11:54:21 GMT-0600 (Central Standard Time),51077.299999952316,I,z,803,,,4,no,1,2329.0,48748.299999952316,practrial4.png,practrial4b.png,8012,PC,A,,,5
5,1,0.0,prac,1,m,30000.0,Wed Jan 08 2025 11:54:21 GMT-0600 (Central Standard Time),54609.59999990463,I,m,1998,,,6,no,1,3528.4000000953674,51081.199999809265,practrial6.png,practrial6b.png,8012,PC,A,,,6
1,1,2.365999937057495,test,1,z,27634.000062942505,Wed Jan 08 2025 11:54:21 GMT-0600 (Central Standard Time),72304.09999990463,I,z,2347,2347,,1,yes,1,2363.5999999046326,69940.5,test1trial1.png,test1trial1.png,8012,PC,A,68211,,1
2,1,3.248999834060669,test,1,m,26751.00016593933,Wed Jan 08 2025 11:54:21 GMT-0600 (Central Standard Time),73187.0,I,m,877,877,,2,no,1,879.7000000476837,72307.29999995232,test1trial2.png,test1trial2b.png,8012,PC,A,70578,,2
3,1,4.680999994277954,test,1,z,25319.000005722046,Wed Jan 08 2025 11:54:21 GMT-0600 (Central Standard Time),74619.79999995232,I,z,1418,1418,,3,yes,1,1430.0,73189.79999995232,test1trial3.png,test1trial3.png,8012,PC,A,71460,,3
4,1,5.697999954223633,test,1,m,24302.000045776367,Wed Jan 08 2025 11:54:21 GMT-0600 (Central Standard Time),75636.0,I,m,1002,1002,,4,no,1,1013.5,74622.5,test1trial4.png,test1trial4b.png,8012,PC,A,72893,,4
5,1,6.980999946594238,test,1,z,23019.00005340576,Wed Jan 08 2025 11:54:21 GMT-0600 (Central Standard Time),76919.09999990463,I,z,1274,1274,,5,yes,1,1280.2000000476837,75638.89999985695,test1trial5.png,test1trial5.png,8012,PC,A,73909,,5
6,1,8.013999938964844,test,1,m,21986.000061035156,Wed Jan 08 2025 11:54:21 GMT-0600 (Central Standard Time),77952.19999980927,I,m,1023,1023,,6,no,1,1030.2999999523163,76921.89999985695,test1trial6.png,test1trial6b.png,8012,PC,A,75192,,6
7,1,8.96399998664856,test,1,z,21036.00001335144,Wed Jan 08 2025 11:54:21 GMT-0600 (Central Standard Time),78901.89999985695,I,z,941,941,,7,yes,1,946.8999998569489,77955.0,test1trial7.png,test1trial7.png,8012,PC,A,76226,,7
8,1,10.395999908447266,test,1,m,19604.000091552734,Wed Jan 08 2025 11:54:21 GMT-0600 (Central Standard Time),80334.89999985695,I,m,1415,1415,,8,no,1,1430.0,78904.89999985695,test1trial8.png,test1trial8b.png,8012,PC,A,77175,,8
9,1,11.578999996185303,test,1,z,18421.000003814697,Wed Jan 08 2025 11:54:21 GMT-0600 (Central Standard Time),81517.69999980927,I,z,1166,1166,,9,yes,1,1180.2999999523163,80337.39999985695,test1trial9.png,test1trial9.png,8012,PC,A,78607,,9
10,1,12.796000003814697,test,1,m,17203.999996185303,Wed Jan 08 2025 11:54:21 GMT-0600 (Central Standard Time),82733.89999985695,I,m,1207,1207,,10,no,1,1213.3999998569489,81520.5,test1trial10.png,test1trial10b.png,8012,PC,A,79791,,10
11,1,13.928999900817871,test,1,z,16071.000099182129,Wed Jan 08 2025 11:54:21 GMT-0600 (Central Standard Time),83867.09999990463,I,z,1112,1112,,11,yes,1,1130.2000000476837,82736.89999985695,test1trial11.png,test1trial11.png,8012,PC,A,81007,,11
12,1,15.16100001335144,test,1,m,14838.99998664856,Wed Jan 08 2025 11:54:21 GMT-0600 (Central Standard Time),85099.89999985695,I,m,1218,1218,,12,no,1,1229.8999998569489,83870.0,test1trial12.png,test1trial12b.png,8012,PC,A,82140,,12
13,1,16.194999933242798,test,1,m,13805.000066757202,Wed Jan 08 2025 11:54:21 GMT-0600 (Central Standard Time),86133.09999990463,I,m,1017,1017,,13,no,1,1030.5,85102.59999990463,test1trial13.png,test1trial13b.png,8012,PC,A,83373,,13
14,1,17.32799983024597,test,1,m,12672.000169754028,Wed Jan 08 2025 11:54:21 GMT-0600 (Central Standard Time),87265.89999985695,I,m,1120,1120,,14,no,1,1129.7999999523163,86136.09999990463,test1trial14.png,test1trial14b.png,8012,PC,A,84406,,14
15,1,18.49399995803833,test,1,z,11506.00004196167,Wed Jan 08 2025 11:54:21 GMT-0600 (Central Standard Time),88432.29999995232,I,z,1147,1147,,15,yes,1,1163.6000001430511,87268.69999980927,test1trial15.png,test1trial15.png,8012,PC,A,85539,,15
16,1,19.609999895095825,test,1,m,10390.000104904175,Wed Jan 08 2025 11:54:21 GMT-0600 (Central Standard Time),89548.59999990463,I,m,1100,1100,,16,no,1,1113.5999999046326,88435.0,test1trial16.png,test1trial16b.png,8012,PC,A,86705,,16
17,1,20.90999984741211,test,1,z,9090.00015258789,Wed Jan 08 2025 11:54:21 GMT-0600 (Central Standard Time),90848.19999980927,I,z,1289,1289,,17,yes,1,1296.7999999523163,89551.39999985695,test1trial17.png,test1trial17.png,8012,PC,A,87822,,17
18,1,21.90999984741211,test,1,m,8090.000152587891,Wed Jan 08 2025 11:54:21 GMT-0600 (Central Standard Time),91848.0,I,m,981,981,,18,no,1,997.0,90851.0,test1trial18.png,test1trial18b.png,8012,PC,A,89121,,18
19,1,23.508999824523926,test,1,m,6491.000175476074,Wed Jan 08 2025 11:54:21 GMT-0600 (Central Standard Time),93447.39999985695,I,m,1589,1589,,19,no,1,1596.5999999046326,91850.79999995232,test1trial19.png,test1trial19b.png,8012,PC,A,90121,,19
20,1,24.691999912261963,test,1,z,5308.000087738037,Wed Jan 08 2025 11:54:21 GMT-0600 (Central Standard Time),94630.29999995232,I,z,1173,1173,,20,yes,1,1179.7999999523163,93450.5,test1trial20.png,test1trial20.png,8012,PC,A,91721,,20
21,1,25.740999937057495,test,1,z,4259.000062942505,Wed Jan 08 2025 11:54:21 GMT-0600 (Central Standard Time),95679.79999995232,I,z,1040,1040,,21,yes,1,1046.7999999523163,94633.0,test1trial21.png,test1trial21.png,8012,PC,A,92903,,21
22,1,26.890999794006348,test,1,z,3109.0002059936523,Wed Jan 08 2025 11:54:21 GMT-0600 (Central Standard Time),96829.59999990463,I,z,1133,1133,,22,yes,1,1146.5,95683.09999990463,test1trial22.png,test1trial22.png,8012,PC,A,93953,,22
23,1,27.823999881744385,test,1,z,2176.0001182556152,Wed Jan 08 2025 11:54:21 GMT-0600 (Central Standard Time),97762.69999980927,I,z,920,920,,23,yes,1,930.0,96832.69999980927,test1trial23.png,test1trial23.png,8012,PC,A,95103,,23
24,1,28.85699987411499,test,1,z,1143.0001258850098,Wed Jan 08 2025 11:54:21 GMT-0600 (Central Standard Time),98795.79999995232,I,z,1020,1020,,24,yes,1,1030.6000001430511,97765.19999980927,test1trial24.png,test1trial24.png,8012,PC,A,96035,,24
25,1,29.756999969482422,test,1,m,243.00003051757812,Wed Jan 08 2025 11:54:21 GMT-0600 (Central Standard Time),99695.39999985695,I,m,882,882,,25,no,1,897.0999999046326,98798.29999995232,test1trial25.png,test1trial25b.png,8012,PC,A,97068,,25
25,1,30.006999969482422,test,0,m,-6.999969482421875,Wed Jan 08 2025 11:54:21 GMT-0600 (Central Standard Time),99945.39999985695,I,None,245,245,,26,no,1,247.29999995231628,99698.09999990463,test1trial26.png,test1trial26b.png,8012,PC,A,97968,,26
1,2,0.931999921798706,test,1,m,29068.000078201294,Wed Jan 08 2025 11:54:21 GMT-0600 (Central Standard Time),103860.69999980927,I,m,918,,918.0,1,no,1,4162.599999904633,99698.09999990463,test2trial1.png,test2trial1b.png,8012,PC,A,,101200.0,1
2,2,1.9819998741149902,test,1,m,28018.00012588501,Wed Jan 08 2025 11:54:21 GMT-0600 (Central Standard Time),104910.69999980927,I,m,1032,,1032.0,2,no,1,5212.599999904633,99698.09999990463,test2trial2.png,test2trial2b.png,8012,PC,A,,102134.0,2
3,2,2.9649999141693115,test,1,z,27035.00008583069,Wed Jan 08 2025 11:54:21 GMT-0600 (Central Standard Time),105893.5,I,z,975,,975.0,3,yes,1,6195.400000095367,99698.09999990463,test2trial3.png,test2trial3.png,8012,PC,A,,103183.0,3
4,2,3.9149999618530273,test,1,z,26085.000038146973,Wed Jan 08 2025 11:54:21 GMT-0600 (Central Standard Time),106843.29999995232,I,z,936,,936.0,4,yes,1,7145.200000047684,99698.09999990463,test2trial4.png,test2trial4.png,8012,PC,A,,104167.0,4
5,2,5.0309998989105225,test,1,z,24969.000101089478,Wed Jan 08 2025 11:54:21 GMT-0600 (Central Standard Time),107959.09999990463,I,z,1106,,1106.0,5,yes,1,8261.0,99698.09999990463,test2trial5.png,test2trial5.png,8012,PC,A,,105116.0,5
6,2,6.562999963760376,test,1,z,23437.000036239624,Wed Jan 08 2025 11:54:21 GMT-0600 (Central Standard Time),109492.0,I,z,1519,,1519.0,6,yes,1,9793.900000095367,99698.09999990463,test2trial6.png,test2trial6.png,8012,PC,A,,106231.0,6
7,2,8.212999820709229,test,1,m,21787.00017929077,Wed Jan 08 2025 11:54:21 GMT-0600 (Central Standard Time),111141.79999995232,I,m,1633,,1633.0,7,no,1,11443.700000047684,99698.09999990463,test2trial7.png,test2trial7b.png,8012,PC,A,,107765.0,7
8,2,9.361999988555908,test,1,m,20638.00001144409,Wed Jan 08 2025 11:54:21 GMT-0600 (Central Standard Time),112291.29999995232,I,m,1135,,1135.0,8,no,1,12593.200000047684,99698.09999990463,test2trial8.png,test2trial8b.png,8012,PC,A,,109415.0,8
8,2,10.595999956130981,test,0,z,19404.00004386902,Wed Jan 08 2025 11:54:21 GMT-0600 (Central Standard Time),113524.5,I,m,1227,,1227.0,9,yes,1,13826.400000095367,99698.09999990463,test2trial9.png,test2trial9.png,8012,PC,A,,110564.0,9
9,2,11.727999925613403,test,1,z,18272.000074386597,Wed Jan 08 2025 11:54:21 GMT-0600 (Central Standard Time),114657.39999985695,I,z,1122,,1122.0,10,yes,1,14959.299999952316,99698.09999990463,test2trial10.png,test2trial10.png,8012,PC,A,,111797.0,10
10,2,12.944999933242798,test,1,m,17055.000066757202,Wed Jan 08 2025 11:54:21 GMT-0600 (Central Standard Time),115873.59999990463,I,m,1196,,1196.0,11,no,1,16175.5,99698.09999990463,test2trial11.png,test2trial11b.png,8012,PC,A,,112930.0,11
11,2,14.343999862670898,test,1,m,15656.000137329102,Wed Jan 08 2025 11:54:21 GMT-0600 (Central Standard Time),117273.09999990463,I,m,1379,,1379.0,12,no,1,17575.0,99698.09999990463,test2trial12.png,test2trial12b.png,8012,PC,A,,114146.0,12
12,2,15.860999822616577,test,1,z,14139.000177383423,Wed Jan 08 2025 11:54:21 GMT-0600 (Central Standard Time),118789.5,I,z,1501,,1501.0,13,yes,1,19091.400000095367,99698.09999990463,test2trial13.png,test2trial13.png,8012,PC,A,,115546.0,13
13,2,17.592999935150146,test,1,m,12407.000064849854,Wed Jan 08 2025 11:54:21 GMT-0600 (Central Standard Time),120522.0,I,m,1712,,1712.0,14,no,1,20823.900000095367,99698.09999990463,test2trial14.png,test2trial14b.png,8012,PC,A,,117062.0,14
14,2,18.692999839782715,test,1,m,11307.000160217285,Wed Jan 08 2025 11:54:21 GMT-0600 (Central Standard Time),121621.79999995232,I,m,1084,,1084.0,15,no,1,21923.700000047684,99698.09999990463,test2trial15.png,test2trial15b.png,8012,PC,A,,118795.0,15
15,2,20.22599983215332,test,1,m,9774.00016784668,Wed Jan 08 2025 11:54:21 GMT-0600 (Central Standard Time),123154.79999995232,I,m,1512,,1512.0,16,no,1,23456.700000047684,99698.09999990463,test2trial16.png,test2trial16b.png,8012,PC,A,,119895.0,16
16,2,21.491999864578247,test,1,z,8508.000135421753,Wed Jan 08 2025 11:54:21 GMT-0600 (Central Standard Time),124421.09999990463,I,z,1251,,1251.0,17,yes,1,24723.0,99698.09999990463,test2trial17.png,test2trial17.png,8012,PC,A,,121428.0,17
17,2,22.259999990463257,test,1,z,7740.000009536743,Wed Jan 08 2025 11:54:21 GMT-0600 (Central Standard Time),125188.5,I,z,759,,759.0,18,yes,1,25490.400000095367,99698.09999990463,test2trial18.png,test2trial18.png,8012,PC,A,,122695.0,18
18,2,23.390999794006348,test,1,z,6609.000205993652,Wed Jan 08 2025 11:54:21 GMT-0600 (Central Standard Time),126320.19999980927,I,z,1121,,1121.0,19,yes,1,26622.099999904633,99698.09999990463,test2trial19.png,test2trial19.png,8012,PC,A,,123461.0,19
19,2,24.357999801635742,test,1,z,5642.000198364258,Wed Jan 08 2025 11:54:21 GMT-0600 (Central Standard Time),127286.59999990463,I,z,949,,949.0,20,yes,1,27588.5,99698.09999990463,test2trial20.png,test2trial20.png,8012,PC,A,,124593.0,20
20,2,25.756999969482422,test,1,z,4243.000030517578,Wed Jan 08 2025 11:54:21 GMT-0600 (Central Standard Time),128686.29999995232,I,z,1382,,1382.0,21,yes,1,28988.200000047684,99698.09999990463,test2trial21.png,test2trial21.png,8012,PC,A,,125559.0,21
21,2,26.70699977874756,test,1,m,3293.0002212524414,Wed Jan 08 2025 11:54:21 GMT-0600 (Central Standard Time),129636.0,I,m,935,,935.0,22,no,1,29937.900000095367,99698.09999990463,test2trial22.png,test2trial22b.png,8012,PC,A,,126959.0,22
22,2,28.55999994277954,test,1,m,1440.000057220459,Wed Jan 08 2025 11:54:21 GMT-0600 (Central Standard Time),131489.0,I,m,1833,,1833.0,23,no,1,31790.900000095367,99698.09999990463,test2trial23.png,test2trial23b.png,8012,PC,A,,127909.0,23
23,2,29.6729998588562,test,1,m,327.0001411437988,Wed Jan 08 2025 11:54:21 GMT-0600 (Central Standard Time),132601.79999995232,I,m,1092,,1092.0,24,no,1,32903.700000047684,99698.09999990463,test2trial24.png,test2trial24b.png,8012,PC,A,,129762.0,24
23,2,30.00599980354309,test,0,z,-5.99980354309082,Wed Jan 08 2025 11:54:21 GMT-0600 (Central Standard Time),132934.89999985695,I,None,328,,328.0,25,yes,1,33236.799999952316,99698.09999990463,test2trial25.png,test2trial25.png,8012,PC,A,,130875.0,25
