block_c,block_dur,condition,countdown,datetime,endtime,list,multichar_response,project,response,response_time,session_number,start_end,starttime,subject_id,task,task_vers,trial
,,,,Wed Mar 19 2025 12:05:26 GMT-0500 (Central Daylight Time),,,,O,space,1130,1,,,7089,WL,B,
prac,,0,,Wed Mar 19 2025 12:05:26 GMT-0500 (Central Daylight Time),,NA,b,O,b,5495,1,,,7089,WL,B,1.0
prac,,0,,Wed Mar 19 2025 12:05:26 GMT-0500 (Central Daylight Time),,NA,bo,O,o,371,1,,,7089,WL,B,1.0
prac,,0,,Wed Mar 19 2025 12:05:26 GMT-0500 (Central Daylight Time),,NA,boo,O,o,141,1,,,7089,WL,B,1.0
prac,,0,,Wed Mar 19 2025 12:05:26 GMT-0500 (Central Daylight Time),,NA,boos,O,s,517,1,,,7089,WL,B,1.0
prac,,0,,Wed Mar 19 2025 12:05:26 GMT-0500 (Central Daylight Time),,NA,boost,O,t,201,1,,,7089,WL,B,1.0
prac,,0,,Wed Mar 19 2025 12:05:26 GMT-0500 (Central Daylight Time),,NA,boostenter,O,enter,1502,1,,,7089,WL,B,1.0
1,0.46700000762939453,learn,59532.999992370605,Wed Mar 19 2025 12:05:26 GMT-0500 (Central Daylight Time),141213.30000001192,A,s,O,s,434,1,465.69999998807907,140747.60000002384,7089,WL,B,1.0
1,0.9000000953674316,learn,59099.99990463257,Wed Mar 19 2025 12:05:26 GMT-0500 (Central Daylight Time),141646.60000002384,A,st,O,t,395,1,899.0,140747.60000002384,7089,WL,B,1.0
1,1.3499999046325684,learn,58650.00009536743,Wed Mar 19 2025 12:05:26 GMT-0500 (Central Daylight Time),142096.10000002384,A,str,O,r,415,1,1348.5,140747.60000002384,7089,WL,B,1.0
1,1.7330000400543213,learn,58266.99995994568,Wed Mar 19 2025 12:05:26 GMT-0500 (Central Daylight Time),142479.30000001192,A,stre,O,e,350,1,1731.699999988079,140747.60000002384,7089,WL,B,1.0
1,1.9500000476837158,learn,58049.999952316284,Wed Mar 19 2025 12:05:26 GMT-0500 (Central Daylight Time),142696.0,A,stree,O,e,181,1,1948.3999999761581,140747.60000002384,7089,WL,B,1.0
1,2.1670000553131104,learn,57832.99994468689,Wed Mar 19 2025 12:05:26 GMT-0500 (Central Daylight Time),142912.80000001192,A,street,O,t,184,1,2165.199999988079,140747.60000002384,7089,WL,B,1.0
1,2.4820001125335693,learn,57517.99988746643,Wed Mar 19 2025 12:05:26 GMT-0500 (Central Daylight Time),143228.10000002384,A,streetenter,O,enter,286,1,2480.5,140747.60000002384,7089,WL,B,1.0
1,3.115999937057495,learn,56884.000062942505,Wed Mar 19 2025 12:05:26 GMT-0500 (Central Daylight Time),143862.19999998808,A,g,O,g,624,1,633.6999999880791,143228.5,7089,WL,B,2.0
1,3.383000135421753,learn,56616.99986457825,Wed Mar 19 2025 12:05:26 GMT-0500 (Central Daylight Time),144128.80000001192,A,gr,O,r,240,1,900.3000000119209,143228.5,7089,WL,B,2.0
1,3.565999984741211,learn,56434.00001525879,Wed Mar 19 2025 12:05:26 GMT-0500 (Central Daylight Time),144312.0,A,gra,O,a,155,1,1083.5,143228.5,7089,WL,B,2.0
1,3.9160001277923584,learn,56083.99987220764,Wed Mar 19 2025 12:05:26 GMT-0500 (Central Daylight Time),144661.90000003576,A,gras,O,s,319,1,1433.4000000357628,143228.5,7089,WL,B,2.0
1,4.098999977111816,learn,55901.00002288818,Wed Mar 19 2025 12:05:26 GMT-0500 (Central Daylight Time),144845.0,A,grass,O,s,155,1,1616.5,143228.5,7089,WL,B,2.0
1,4.79800009727478,learn,55201.99990272522,Wed Mar 19 2025 12:05:26 GMT-0500 (Central Daylight Time),145543.90000003576,A,grassenter,O,enter,659,1,2315.400000035763,143228.5,7089,WL,B,2.0
1,5.315000057220459,learn,54684.99994277954,Wed Mar 19 2025 12:05:26 GMT-0500 (Central Daylight Time),146061.30000001192,A,c,O,c,508,1,517.0,145544.30000001192,7089,WL,B,3.0
1,5.615000009536743,learn,54384.99999046326,Wed Mar 19 2025 12:05:26 GMT-0500 (Central Daylight Time),146361.40000003576,A,ci,O,i,255,1,817.1000000238419,145544.30000001192,7089,WL,B,3.0
1,5.865000009536743,learn,54134.99999046326,Wed Mar 19 2025 12:05:26 GMT-0500 (Central Daylight Time),146611.30000001192,A,cit,O,t,205,1,1067.0,145544.30000001192,7089,WL,B,3.0
1,5.997999906539917,learn,54002.00009346008,Wed Mar 19 2025 12:05:26 GMT-0500 (Central Daylight Time),146744.5,A,city,O,y,94,1,1200.199999988079,145544.30000001192,7089,WL,B,3.0
1,6.746999979019165,learn,53253.000020980835,Wed Mar 19 2025 12:05:26 GMT-0500 (Central Daylight Time),147493.40000003576,A,cityenter,O,enter,717,1,1949.1000000238419,145544.30000001192,7089,WL,B,3.0
1,7.531000137329102,learn,52468.9998626709,Wed Mar 19 2025 12:05:26 GMT-0500 (Central Daylight Time),148277.0,A,s,O,s,776,1,783.3999999761581,147493.60000002384,7089,WL,B,4.0
1,7.781000137329102,learn,52218.9998626709,Wed Mar 19 2025 12:05:26 GMT-0500 (Central Daylight Time),148527.0,A,st,O,t,220,1,1033.3999999761581,147493.60000002384,7089,WL,B,4.0
1,7.947999954223633,learn,52052.00004577637,Wed Mar 19 2025 12:05:26 GMT-0500 (Central Daylight Time),148693.90000003576,A,sta,O,a,129,1,1200.300000011921,147493.60000002384,7089,WL,B,4.0
1,8.115000009536743,learn,51884.99999046326,Wed Mar 19 2025 12:05:26 GMT-0500 (Central Daylight Time),148860.80000001192,A,star,O,r,139,1,1367.199999988079,147493.60000002384,7089,WL,B,4.0
1,8.630000114440918,learn,51369.99988555908,Wed Mar 19 2025 12:05:26 GMT-0500 (Central Daylight Time),149376.10000002384,A,starenter,O,enter,481,1,1882.5,147493.60000002384,7089,WL,B,4.0
1,9.04699993133545,learn,50953.00006866455,Wed Mar 19 2025 12:05:26 GMT-0500 (Central Daylight Time),149793.5,A,s,O,s,404,1,417.0999999642372,149376.40000003576,7089,WL,B,5.0
1,9.180999994277954,learn,50819.000005722046,Wed Mar 19 2025 12:05:26 GMT-0500 (Central Daylight Time),149926.60000002384,A,sk,O,k,102,1,550.1999999880791,149376.40000003576,7089,WL,B,5.0
1,9.446000099182129,learn,50553.99990081787,Wed Mar 19 2025 12:05:26 GMT-0500 (Central Daylight Time),150192.40000003576,A,ski,O,i,223,1,816.0,149376.40000003576,7089,WL,B,5.0
1,9.71399998664856,learn,50286.00001335144,Wed Mar 19 2025 12:05:26 GMT-0500 (Central Daylight Time),150459.90000003576,A,skin,O,n,251,1,1083.5,149376.40000003576,7089,WL,B,5.0
1,10.079999923706055,learn,49920.000076293945,Wed Mar 19 2025 12:05:26 GMT-0500 (Central Daylight Time),150825.69999998808,A,skinenter,O,enter,322,1,1449.2999999523163,149376.40000003576,7089,WL,B,5.0
1,11.61299991607666,learn,48387.00008392334,Wed Mar 19 2025 12:05:26 GMT-0500 (Central Daylight Time),152359.40000003576,A,s,O,s,1523,1,1533.4000000357628,150826.0,7089,WL,B,6.0
1,14.562000036239624,learn,45437.999963760376,Wed Mar 19 2025 12:05:26 GMT-0500 (Central Daylight Time),155308.40000003576,A,,O,backspace,2914,1,4482.400000035763,150826.0,7089,WL,B,6.0
1,15.32800006866455,learn,44671.99993133545,Wed Mar 19 2025 12:05:26 GMT-0500 (Central Daylight Time),156073.80000001192,A,w,O,w,731,1,5247.800000011921,150826.0,7089,WL,B,6.0
1,15.510999917984009,learn,44489.00008201599,Wed Mar 19 2025 12:05:26 GMT-0500 (Central Daylight Time),156257.10000002384,A,wi,O,i,166,1,5431.100000023842,150826.0,7089,WL,B,6.0
1,15.727999925613403,learn,44272.0000743866,Wed Mar 19 2025 12:05:26 GMT-0500 (Central Daylight Time),156473.69999998808,A,win,O,n,193,1,5647.699999988079,150826.0,7089,WL,B,6.0
1,15.894999980926514,learn,44105.000019073486,Wed Mar 19 2025 12:05:26 GMT-0500 (Central Daylight Time),156641.30000001192,A,wind,O,d,147,1,5815.300000011921,150826.0,7089,WL,B,6.0
1,16.09500002861023,learn,43904.99997138977,Wed Mar 19 2025 12:05:26 GMT-0500 (Central Daylight Time),156841.10000002384,A,windo,O,o,168,1,6015.100000023842,150826.0,7089,WL,B,6.0
1,16.227999925613403,learn,43772.0000743866,Wed Mar 19 2025 12:05:26 GMT-0500 (Central Daylight Time),156973.69999998808,A,window,O,w,100,1,6147.699999988079,150826.0,7089,WL,B,6.0
1,16.51099991798401,learn,43489.00008201599,Wed Mar 19 2025 12:05:26 GMT-0500 (Central Daylight Time),157256.80000001192,A,windowenter,O,enter,259,1,6430.800000011921,150826.0,7089,WL,B,6.0
1,17.444999933242798,learn,42555.0000667572,Wed Mar 19 2025 12:05:26 GMT-0500 (Central Daylight Time),158190.80000001192,A,w,O,w,925,1,933.6999999880791,157257.10000002384,7089,WL,B,7.0
1,17.611000061035156,learn,42388.999938964844,Wed Mar 19 2025 12:05:26 GMT-0500 (Central Daylight Time),158357.19999998808,A,wi,O,i,131,1,1100.0999999642372,157257.10000002384,7089,WL,B,7.0
1,17.795000076293945,learn,42204.999923706055,Wed Mar 19 2025 12:05:26 GMT-0500 (Central Daylight Time),158540.69999998808,A,wif,O,f,148,1,1283.5999999642372,157257.10000002384,7089,WL,B,7.0
1,17.960999965667725,learn,42039.000034332275,Wed Mar 19 2025 12:05:26 GMT-0500 (Central Daylight Time),158707.40000003576,A,wife,O,e,126,1,1450.300000011921,157257.10000002384,7089,WL,B,7.0
1,18.177000045776367,learn,41822.99995422363,Wed Mar 19 2025 12:05:26 GMT-0500 (Central Daylight Time),158922.90000003576,A,wifeenter,O,enter,171,1,1665.800000011921,157257.10000002384,7089,WL,B,7.0
1,20.32699990272522,learn,39673.00009727478,Wed Mar 19 2025 12:05:26 GMT-0500 (Central Daylight Time),161073.5,A,a,O,a,2138,1,2150.300000011921,158923.19999998808,7089,WL,B,8.0
1,20.543999910354614,learn,39456.000089645386,Wed Mar 19 2025 12:05:26 GMT-0500 (Central Daylight Time),161290.40000003576,A,ar,O,r,173,1,2367.2000000476837,158923.19999998808,7089,WL,B,8.0
1,20.710000038146973,learn,39289.99996185303,Wed Mar 19 2025 12:05:26 GMT-0500 (Central Daylight Time),161456.10000002384,A,arm,O,m,134,1,2532.900000035763,158923.19999998808,7089,WL,B,8.0
1,20.943000078201294,learn,39056.999921798706,Wed Mar 19 2025 12:05:26 GMT-0500 (Central Daylight Time),161688.60000002384,A,armenter,O,enter,203,1,2765.400000035763,158923.19999998808,7089,WL,B,8.0
1,28.141000032424927,learn,31858.999967575073,Wed Mar 19 2025 12:05:26 GMT-0500 (Central Daylight Time),168887.19999998808,A,c,O,c,7189,1,7198.399999976158,161688.80000001192,7089,WL,B,9.0
1,28.374000072479248,learn,31625.999927520752,Wed Mar 19 2025 12:05:26 GMT-0500 (Central Daylight Time),169120.5,A,ca,O,a,194,1,7431.699999988079,161688.80000001192,7089,WL,B,9.0
1,28.70799994468689,learn,31292.00005531311,Wed Mar 19 2025 12:05:26 GMT-0500 (Central Daylight Time),169453.60000002384,A,cab,O,b,308,1,7764.800000011921,161688.80000001192,7089,WL,B,9.0
1,28.92300009727478,learn,31076.99990272522,Wed Mar 19 2025 12:05:26 GMT-0500 (Central Daylight Time),169669.19999998808,A,cabi,O,i,184,1,7980.399999976158,161688.80000001192,7089,WL,B,9.0
1,29.124000072479248,learn,30875.999927520752,Wed Mar 19 2025 12:05:26 GMT-0500 (Central Daylight Time),169870.10000002384,A,cabin,O,n,183,1,8181.300000011921,161688.80000001192,7089,WL,B,9.0
1,29.407000064849854,learn,30592.999935150146,Wed Mar 19 2025 12:05:26 GMT-0500 (Central Daylight Time),170152.60000002384,A,cabinenter,O,enter,254,1,8463.800000011921,161688.80000001192,7089,WL,B,9.0
1,30.457000017166138,learn,29542.999982833862,Wed Mar 19 2025 12:05:26 GMT-0500 (Central Daylight Time),171203.30000001192,A,f,O,f,1037,1,1050.5,170152.80000001192,7089,WL,B,10.0
1,30.624000072479248,learn,29375.999927520752,Wed Mar 19 2025 12:05:26 GMT-0500 (Central Daylight Time),171369.90000003576,A,fi,O,i,127,1,1217.1000000238419,170152.80000001192,7089,WL,B,10.0
1,30.83999991416931,learn,29160.00008583069,Wed Mar 19 2025 12:05:26 GMT-0500 (Central Daylight Time),171586.19999998808,A,fir,O,r,179,1,1433.3999999761581,170152.80000001192,7089,WL,B,10.0
1,30.92300009727478,learn,29076.99990272522,Wed Mar 19 2025 12:05:26 GMT-0500 (Central Daylight Time),171668.80000001192,A,fire,O,e,53,1,1516.0,170152.80000001192,7089,WL,B,10.0
1,32.33899998664856,learn,27661.00001335144,Wed Mar 19 2025 12:05:26 GMT-0500 (Central Daylight Time),173084.90000003576,A,fireenter,O,enter,1394,1,2932.100000023842,170152.80000001192,7089,WL,B,10.0
1,39.121999979019165,learn,20878.000020980835,Wed Mar 19 2025 12:05:26 GMT-0500 (Central Daylight Time),179867.10000002384,A,p,O,p,6767,1,6781.900000035763,173085.19999998808,7089,WL,B,11.0
1,39.454999923706055,learn,20545.000076293945,Wed Mar 19 2025 12:05:26 GMT-0500 (Central Daylight Time),180200.19999998808,A,pu,O,u,293,1,7115.0,173085.19999998808,7089,WL,B,11.0
1,39.6710000038147,learn,20328.999996185303,Wed Mar 19 2025 12:05:26 GMT-0500 (Central Daylight Time),180416.10000002384,A,pup,O,p,183,1,7330.900000035763,173085.19999998808,7089,WL,B,11.0
1,40.0550000667572,learn,19944.999933242798,Wed Mar 19 2025 12:05:26 GMT-0500 (Central Daylight Time),180800.10000002384,A,pupi,O,i,362,1,7714.900000035763,173085.19999998808,7089,WL,B,11.0
1,40.3050000667572,learn,19694.999933242798,Wed Mar 19 2025 12:05:26 GMT-0500 (Central Daylight Time),181050.0,A,pupil,O,l,218,1,7964.800000011921,173085.19999998808,7089,WL,B,11.0
1,40.50399994850159,learn,19496.000051498413,Wed Mar 19 2025 12:05:26 GMT-0500 (Central Daylight Time),181248.90000003576,A,pupilenter,O,enter,168,1,8163.700000047684,173085.19999998808,7089,WL,B,11.0
1,40.9539999961853,learn,19046.000003814697,Wed Mar 19 2025 12:05:26 GMT-0500 (Central Daylight Time),181699.60000002384,A,c,O,c,428,1,450.4000000357628,181249.19999998808,7089,WL,B,12.0
1,41.03699994087219,learn,18963.000059127808,Wed Mar 19 2025 12:05:26 GMT-0500 (Central Daylight Time),181781.90000003576,A,cl,O,l,52,1,532.7000000476837,181249.19999998808,7089,WL,B,12.0
1,41.33800005912781,learn,18661.999940872192,Wed Mar 19 2025 12:05:26 GMT-0500 (Central Daylight Time),182083.0,A,clo,O,o,285,1,833.8000000119209,181249.19999998808,7089,WL,B,12.0
1,41.57100009918213,learn,18428.99990081787,Wed Mar 19 2025 12:05:26 GMT-0500 (Central Daylight Time),182316.19999998808,A,cloc,O,c,190,1,1067.0,181249.19999998808,7089,WL,B,12.0
1,41.72099995613098,learn,18279.00004386902,Wed Mar 19 2025 12:05:26 GMT-0500 (Central Daylight Time),182466.10000002384,A,clock,O,k,109,1,1216.9000000357628,181249.19999998808,7089,WL,B,12.0
1,42.45300006866455,learn,17546.99993133545,Wed Mar 19 2025 12:05:26 GMT-0500 (Central Daylight Time),183198.30000001192,A,clockenter,O,enter,695,1,1949.1000000238419,181249.19999998808,7089,WL,B,12.0
1,45.63499999046326,learn,14365.000009536743,Wed Mar 19 2025 12:05:26 GMT-0500 (Central Daylight Time),186380.60000002384,A,d,O,d,3165,1,3182.0,183198.60000002384,7089,WL,B,13.0
1,45.93600010871887,learn,14063.999891281128,Wed Mar 19 2025 12:05:26 GMT-0500 (Central Daylight Time),186681.60000002384,A,do,O,o,279,1,3483.0,183198.60000002384,7089,WL,B,13.0
1,46.1029999256134,learn,13897.000074386597,Wed Mar 19 2025 12:05:26 GMT-0500 (Central Daylight Time),186848.0,A,doo,O,o,129,1,3649.399999976158,183198.60000002384,7089,WL,B,13.0
1,46.22000002861023,learn,13779.99997138977,Wed Mar 19 2025 12:05:26 GMT-0500 (Central Daylight Time),186964.69999998808,A,door,O,r,88,1,3766.099999964237,183198.60000002384,7089,WL,B,13.0
1,46.41799998283386,learn,13582.000017166138,Wed Mar 19 2025 12:05:26 GMT-0500 (Central Daylight Time),187163.5,A,doorenter,O,enter,171,1,3964.899999976158,183198.60000002384,7089,WL,B,13.0
1,60.015000104904175,learn,-15.000104904174805,Wed Mar 19 2025 12:05:26 GMT-0500 (Central Daylight Time),200760.30000001192,A,None,O,None,13590,1,13596.5,187163.80000001192,7089,WL,B,14.0
2,0.3490002155303955,learn,59650.999784469604,Wed Mar 19 2025 12:05:26 GMT-0500 (Central Daylight Time),269420.5,A,s,O,s,319,1,348.69999998807907,269071.8000000119,7089,WL,B,1.0
2,0.7160000801086426,learn,59283.99991989136,Wed Mar 19 2025 12:05:26 GMT-0500 (Central Daylight Time),269787.6999999881,A,st,O,t,336,1,715.8999999761581,269071.8000000119,7089,WL,B,1.0
2,1.1000001430511475,learn,58899.99985694885,Wed Mar 19 2025 12:05:26 GMT-0500 (Central Daylight Time),270171.1999999881,A,str,O,r,341,1,1099.3999999761581,269071.8000000119,7089,WL,B,1.0
2,1.499000072479248,learn,58500.99992752075,Wed Mar 19 2025 12:05:26 GMT-0500 (Central Daylight Time),270570.60000002384,A,stre,O,e,367,1,1498.800000011921,269071.8000000119,7089,WL,B,1.0
2,1.7160000801086426,learn,58283.99991989136,Wed Mar 19 2025 12:05:26 GMT-0500 (Central Daylight Time),270787.0,A,stree,O,e,186,1,1715.199999988079,269071.8000000119,7089,WL,B,1.0
2,1.8320000171661377,learn,58167.99998283386,Wed Mar 19 2025 12:05:26 GMT-0500 (Central Daylight Time),270903.8000000119,A,street,O,t,79,1,1832.0,269071.8000000119,7089,WL,B,1.0
2,2.31600022315979,learn,57683.99977684021,Wed Mar 19 2025 12:05:26 GMT-0500 (Central Daylight Time),271387.1999999881,A,streetg,O,g,451,1,2315.399999976158,269071.8000000119,7089,WL,B,1.0
2,2.932000160217285,learn,57067.999839782715,Wed Mar 19 2025 12:05:26 GMT-0500 (Central Daylight Time),272003.5,A,street,O,backspace,581,1,2931.699999988079,269071.8000000119,7089,WL,B,1.0
2,3.4140000343322754,learn,56585.999965667725,Wed Mar 19 2025 12:05:26 GMT-0500 (Central Daylight Time),272485.60000002384,A,streetenter,O,enter,444,1,3413.800000011921,269071.8000000119,7089,WL,B,1.0
2,4.0320000648498535,learn,55967.99993515015,Wed Mar 19 2025 12:05:26 GMT-0500 (Central Daylight Time),273103.1999999881,A,g,O,g,608,1,617.1999999880791,272486.0,7089,WL,B,2.0
2,4.448000192642212,learn,55551.99980735779,Wed Mar 19 2025 12:05:26 GMT-0500 (Central Daylight Time),273519.60000002384,A,gr,O,r,377,1,1033.6000000238419,272486.0,7089,WL,B,2.0
2,4.698000192642212,learn,55301.99980735779,Wed Mar 19 2025 12:05:26 GMT-0500 (Central Daylight Time),273769.5,A,gra,O,a,217,1,1283.5,272486.0,7089,WL,B,2.0
2,5.015000104904175,learn,54984.999895095825,Wed Mar 19 2025 12:05:26 GMT-0500 (Central Daylight Time),274086.1999999881,A,gras,O,s,279,1,1600.199999988079,272486.0,7089,WL,B,2.0
2,5.198000192642212,learn,54801.99980735779,Wed Mar 19 2025 12:05:26 GMT-0500 (Central Daylight Time),274269.1999999881,A,grass,O,s,155,1,1783.199999988079,272486.0,7089,WL,B,2.0
2,5.664000034332275,learn,54335.999965667725,Wed Mar 19 2025 12:05:26 GMT-0500 (Central Daylight Time),274734.90000003576,A,grassenter,O,enter,426,1,2248.900000035763,272486.0,7089,WL,B,2.0
2,6.581000089645386,learn,53418.999910354614,Wed Mar 19 2025 12:05:26 GMT-0500 (Central Daylight Time),275652.40000003576,A,c,O,c,895,1,917.2000000476837,274735.1999999881,7089,WL,B,3.0
2,6.831000089645386,learn,53168.999910354614,Wed Mar 19 2025 12:05:26 GMT-0500 (Central Daylight Time),275902.1999999881,A,ci,O,i,213,1,1167.0,274735.1999999881,7089,WL,B,3.0
2,7.013000011444092,learn,52986.99998855591,Wed Mar 19 2025 12:05:26 GMT-0500 (Central Daylight Time),276084.6999999881,A,cit,O,t,156,1,1349.5,274735.1999999881,7089,WL,B,3.0
2,7.181000232696533,learn,52818.99976730347,Wed Mar 19 2025 12:05:26 GMT-0500 (Central Daylight Time),276252.40000003576,A,city,O,y,137,1,1517.2000000476837,274735.1999999881,7089,WL,B,3.0
2,7.663000106811523,learn,52336.99989318848,Wed Mar 19 2025 12:05:26 GMT-0500 (Central Daylight Time),276734.3000000119,A,cityenter,O,enter,453,1,1999.1000000238419,274735.1999999881,7089,WL,B,3.0
2,8.164000034332275,learn,51835.999965667725,Wed Mar 19 2025 12:05:26 GMT-0500 (Central Daylight Time),277235.0,A,d,O,d,478,1,500.5,276734.5,7089,WL,B,4.0
2,8.347000122070312,learn,51652.99987792969,Wed Mar 19 2025 12:05:26 GMT-0500 (Central Daylight Time),277418.5,A,do,O,o,150,1,684.0,276734.5,7089,WL,B,4.0
2,8.547000169754028,learn,51452.99983024597,Wed Mar 19 2025 12:05:26 GMT-0500 (Central Daylight Time),277618.3000000119,A,doo,O,o,157,1,883.8000000119209,276734.5,7089,WL,B,4.0
2,8.680000066757202,learn,51319.9999332428,Wed Mar 19 2025 12:05:26 GMT-0500 (Central Daylight Time),277751.5,A,door,O,r,98,1,1017.0,276734.5,7089,WL,B,4.0
2,9.629000186920166,learn,50370.999813079834,Wed Mar 19 2025 12:05:26 GMT-0500 (Central Daylight Time),278700.3000000119,A,doorenter,O,enter,921,1,1965.800000011921,276734.5,7089,WL,B,4.0
2,10.013000011444092,learn,49986.99998855591,Wed Mar 19 2025 12:05:26 GMT-0500 (Central Daylight Time),279084.60000002384,A,s,O,s,361,1,384.10000002384186,278700.5,7089,WL,B,5.0
2,10.213000059127808,learn,49786.99994087219,Wed Mar 19 2025 12:05:26 GMT-0500 (Central Daylight Time),279284.3000000119,A,st,O,t,166,1,583.8000000119209,278700.5,7089,WL,B,5.0
2,10.34600019454956,learn,49653.99980545044,Wed Mar 19 2025 12:05:26 GMT-0500 (Central Daylight Time),279417.8000000119,A,sta,O,a,102,1,717.3000000119209,278700.5,7089,WL,B,5.0
2,10.513000011444092,learn,49486.99998855591,Wed Mar 19 2025 12:05:26 GMT-0500 (Central Daylight Time),279584.40000003576,A,star,O,r,128,1,883.9000000357628,278700.5,7089,WL,B,5.0
2,10.84600019454956,learn,49153.99980545044,Wed Mar 19 2025 12:05:26 GMT-0500 (Central Daylight Time),279917.6999999881,A,starenter,O,enter,305,1,1217.199999988079,278700.5,7089,WL,B,5.0
2,11.61300015449524,learn,48386.99984550476,Wed Mar 19 2025 12:05:26 GMT-0500 (Central Daylight Time),280684.60000002384,A,s,O,s,760,1,766.6000000238419,279918.0,7089,WL,B,6.0
2,11.763000011444092,learn,48236.99998855591,Wed Mar 19 2025 12:05:26 GMT-0500 (Central Daylight Time),280834.0,A,sk,O,k,109,1,916.0,279918.0,7089,WL,B,6.0
2,11.979000091552734,learn,48020.999908447266,Wed Mar 19 2025 12:05:26 GMT-0500 (Central Daylight Time),281050.5,A,ski,O,i,184,1,1132.5,279918.0,7089,WL,B,6.0
2,12.17900013923645,learn,47820.99986076355,Wed Mar 19 2025 12:05:26 GMT-0500 (Central Daylight Time),281250.3000000119,A,skin,O,n,160,1,1332.300000011921,279918.0,7089,WL,B,6.0
2,12.41100001335144,learn,47588.99998664856,Wed Mar 19 2025 12:05:26 GMT-0500 (Central Daylight Time),281482.6999999881,A,skinenter,O,enter,193,1,1564.699999988079,279918.0,7089,WL,B,6.0
2,12.84500002861023,learn,47154.99997138977,Wed Mar 19 2025 12:05:26 GMT-0500 (Central Daylight Time),281916.90000003576,A,w,O,w,427,1,433.9000000357628,281483.0,7089,WL,B,7.0
2,13.029000043869019,learn,46970.99995613098,Wed Mar 19 2025 12:05:26 GMT-0500 (Central Daylight Time),282100.1999999881,A,wi,O,i,149,1,617.1999999880791,281483.0,7089,WL,B,7.0
2,13.17900013923645,learn,46820.99986076355,Wed Mar 19 2025 12:05:26 GMT-0500 (Central Daylight Time),282250.40000003576,A,wif,O,f,117,1,767.4000000357628,281483.0,7089,WL,B,7.0
2,13.712000131607056,learn,46287.999868392944,Wed Mar 19 2025 12:05:26 GMT-0500 (Central Daylight Time),282783.3000000119,A,wife,O,e,504,1,1300.300000011921,281483.0,7089,WL,B,7.0
2,14.178000211715698,learn,45821.9997882843,Wed Mar 19 2025 12:05:26 GMT-0500 (Central Daylight Time),283248.8000000119,A,wifeenter,O,enter,437,1,1765.800000011921,281483.0,7089,WL,B,7.0
2,15.011000156402588,learn,44988.99984359741,Wed Mar 19 2025 12:05:26 GMT-0500 (Central Daylight Time),284082.8000000119,A,w,O,w,821,1,833.6999999880791,283249.10000002384,7089,WL,B,8.0
2,15.178000211715698,learn,44821.9997882843,Wed Mar 19 2025 12:05:26 GMT-0500 (Central Daylight Time),284249.40000003576,A,wi,O,i,136,1,1000.3000000119209,283249.10000002384,7089,WL,B,8.0
2,15.395000219345093,learn,44604.99978065491,Wed Mar 19 2025 12:05:26 GMT-0500 (Central Daylight Time),284466.0,A,win,O,n,185,1,1216.8999999761581,283249.10000002384,7089,WL,B,8.0
2,15.545000076293945,learn,44454.999923706055,Wed Mar 19 2025 12:05:26 GMT-0500 (Central Daylight Time),284616.1999999881,A,wind,O,d,113,1,1367.0999999642372,283249.10000002384,7089,WL,B,8.0
2,15.711000204086304,learn,44288.999795913696,Wed Mar 19 2025 12:05:26 GMT-0500 (Central Daylight Time),284782.0,A,windo,O,o,129,1,1532.8999999761581,283249.10000002384,7089,WL,B,8.0
2,15.928000211715698,learn,44071.9997882843,Wed Mar 19 2025 12:05:26 GMT-0500 (Central Daylight Time),284999.10000002384,A,window,O,w,193,1,1750.0,283249.10000002384,7089,WL,B,8.0
2,16.16000008583069,learn,43839.99991416931,Wed Mar 19 2025 12:05:26 GMT-0500 (Central Daylight Time),285231.5,A,windowenter,O,enter,194,1,1982.3999999761581,283249.10000002384,7089,WL,B,8.0
2,16.627000093460083,learn,43372.99990653992,Wed Mar 19 2025 12:05:26 GMT-0500 (Central Daylight Time),285698.90000003576,A,c,O,c,446,1,467.10000002384186,285231.8000000119,7089,WL,B,9.0
2,16.811000108718872,learn,43188.99989128113,Wed Mar 19 2025 12:05:26 GMT-0500 (Central Daylight Time),285882.3000000119,A,ca,O,a,151,1,650.5,285231.8000000119,7089,WL,B,9.0
2,17.028000116348267,learn,42971.99988365173,Wed Mar 19 2025 12:05:26 GMT-0500 (Central Daylight Time),286099.10000002384,A,cab,O,b,184,1,867.3000000119209,285231.8000000119,7089,WL,B,9.0
2,17.177000045776367,learn,42822.99995422363,Wed Mar 19 2025 12:05:26 GMT-0500 (Central Daylight Time),286248.60000002384,A,cabi,O,i,111,1,1016.8000000119209,285231.8000000119,7089,WL,B,9.0
2,17.344000101089478,learn,42655.99989891052,Wed Mar 19 2025 12:05:26 GMT-0500 (Central Daylight Time),286415.5,A,cabin,O,n,130,1,1183.699999988079,285231.8000000119,7089,WL,B,9.0
2,17.74400019645691,learn,42255.99980354309,Wed Mar 19 2025 12:05:26 GMT-0500 (Central Daylight Time),286815.40000003576,A,cabinenter,O,enter,361,1,1583.6000000238419,285231.8000000119,7089,WL,B,9.0
2,18.91000008583069,learn,41089.99991416931,Wed Mar 19 2025 12:05:26 GMT-0500 (Central Daylight Time),287981.3000000119,A,f,O,f,1158,1,1165.6000000238419,286815.6999999881,7089,WL,B,10.0
2,19.0770001411438,learn,40922.9998588562,Wed Mar 19 2025 12:05:26 GMT-0500 (Central Daylight Time),288148.10000002384,A,fi,O,i,133,1,1332.4000000357628,286815.6999999881,7089,WL,B,10.0
2,19.22700023651123,learn,40772.99976348877,Wed Mar 19 2025 12:05:26 GMT-0500 (Central Daylight Time),288298.0,A,fir,O,r,126,1,1482.300000011921,286815.6999999881,7089,WL,B,10.0
2,19.29300022125244,learn,40706.99977874756,Wed Mar 19 2025 12:05:26 GMT-0500 (Central Daylight Time),288363.90000003576,A,fire,O,e,41,1,1548.2000000476837,286815.6999999881,7089,WL,B,10.0
2,19.80900001525879,learn,40190.99998474121,Wed Mar 19 2025 12:05:26 GMT-0500 (Central Daylight Time),288880.1999999881,A,fireenter,O,enter,496,1,2064.5,286815.6999999881,7089,WL,B,10.0
2,20.31000018119812,learn,39689.99981880188,Wed Mar 19 2025 12:05:26 GMT-0500 (Central Daylight Time),289381.1999999881,A,l,O,l,486,1,500.69999998807907,288880.5,7089,WL,B,11.0
2,20.409000158309937,learn,39590.99984169006,Wed Mar 19 2025 12:05:26 GMT-0500 (Central Daylight Time),289480.6999999881,A,la,O,a,72,1,600.1999999880791,288880.5,7089,WL,B,11.0
2,20.576000213623047,learn,39423.99978637695,Wed Mar 19 2025 12:05:26 GMT-0500 (Central Daylight Time),289647.6999999881,A,lak,O,k,139,1,767.1999999880791,288880.5,7089,WL,B,11.0
2,20.7260000705719,learn,39273.9999294281,Wed Mar 19 2025 12:05:26 GMT-0500 (Central Daylight Time),289797.3000000119,A,lake,O,e,114,1,916.8000000119209,288880.5,7089,WL,B,11.0
2,20.909000158309937,learn,39090.99984169006,Wed Mar 19 2025 12:05:26 GMT-0500 (Central Daylight Time),289980.0,A,lakeenter,O,enter,151,1,1099.5,288880.5,7089,WL,B,11.0
2,21.308000087738037,learn,38691.99991226196,Wed Mar 19 2025 12:05:26 GMT-0500 (Central Daylight Time),290379.60000002384,A,p,O,p,384,1,399.30000001192093,289980.3000000119,7089,WL,B,12.0
2,21.55900001525879,learn,38440.99998474121,Wed Mar 19 2025 12:05:26 GMT-0500 (Central Daylight Time),290630.6999999881,A,pi,O,i,241,1,650.3999999761581,289980.3000000119,7089,WL,B,12.0
2,21.79300022125244,learn,38206.99977874756,Wed Mar 19 2025 12:05:26 GMT-0500 (Central Daylight Time),290864.0,A,pip,O,p,196,1,883.6999999880791,289980.3000000119,7089,WL,B,12.0
2,22.259000062942505,learn,37740.999937057495,Wed Mar 19 2025 12:05:26 GMT-0500 (Central Daylight Time),291330.40000003576,A,pipe,O,e,433,1,1350.1000000238419,289980.3000000119,7089,WL,B,12.0
2,22.725000143051147,learn,37274.99985694885,Wed Mar 19 2025 12:05:26 GMT-0500 (Central Daylight Time),291796.0,A,pipeenter,O,enter,442,1,1815.699999988079,289980.3000000119,7089,WL,B,12.0
2,23.625,learn,36375.0,Wed Mar 19 2025 12:05:26 GMT-0500 (Central Daylight Time),292696.8000000119,A,p,O,p,882,1,900.5,291796.3000000119,7089,WL,B,13.0
2,23.875,learn,36125.0,Wed Mar 19 2025 12:05:26 GMT-0500 (Central Daylight Time),292946.8000000119,A,pu,O,u,208,1,1150.5,291796.3000000119,7089,WL,B,13.0
2,24.092000007629395,learn,35907.999992370605,Wed Mar 19 2025 12:05:26 GMT-0500 (Central Daylight Time),293163.5,A,pup,O,p,185,1,1367.199999988079,291796.3000000119,7089,WL,B,13.0
2,24.375,learn,35625.0,Wed Mar 19 2025 12:05:26 GMT-0500 (Central Daylight Time),293446.3000000119,A,pupi,O,i,251,1,1650.0,291796.3000000119,7089,WL,B,13.0
2,24.60800004005432,learn,35391.99995994568,Wed Mar 19 2025 12:05:26 GMT-0500 (Central Daylight Time),293679.60000002384,A,pupil,O,l,205,1,1883.300000011921,291796.3000000119,7089,WL,B,13.0
2,24.891000032424927,learn,35108.99996757507,Wed Mar 19 2025 12:05:26 GMT-0500 (Central Daylight Time),293961.90000003576,A,pupilenter,O,enter,240,1,2165.600000023842,291796.3000000119,7089,WL,B,13.0
2,25.142000198364258,learn,34857.99980163574,Wed Mar 19 2025 12:05:26 GMT-0500 (Central Daylight Time),294213.0,A,c,O,c,244,1,250.80000001192093,293962.1999999881,7089,WL,B,14.0
2,25.29100012779236,learn,34708.99987220764,Wed Mar 19 2025 12:05:26 GMT-0500 (Central Daylight Time),294362.90000003576,A,cl,O,l,114,1,400.7000000476837,293962.1999999881,7089,WL,B,14.0
2,25.508000135421753,learn,34491.99986457825,Wed Mar 19 2025 12:05:26 GMT-0500 (Central Daylight Time),294579.6999999881,A,clo,O,o,189,1,617.5,293962.1999999881,7089,WL,B,14.0
2,25.675000190734863,learn,34324.99980926514,Wed Mar 19 2025 12:05:26 GMT-0500 (Central Daylight Time),294746.0,A,cloc,O,c,126,1,783.8000000119209,293962.1999999881,7089,WL,B,14.0
2,25.808000087738037,learn,34191.99991226196,Wed Mar 19 2025 12:05:26 GMT-0500 (Central Daylight Time),294879.5,A,clock,O,k,97,1,917.3000000119209,293962.1999999881,7089,WL,B,14.0
2,26.973000049591064,learn,33026.999950408936,Wed Mar 19 2025 12:05:26 GMT-0500 (Central Daylight Time),296044.60000002384,A,clockenter,O,enter,1138,1,2082.400000035763,293962.1999999881,7089,WL,B,14.0
2,31.67300009727478,learn,28326.99990272522,Wed Mar 19 2025 12:05:26 GMT-0500 (Central Daylight Time),300744.0,A,a,O,a,4681,1,4699.099999964237,296044.90000003576,7089,WL,B,15.0
2,31.84000015258789,learn,28159.99984741211,Wed Mar 19 2025 12:05:26 GMT-0500 (Central Daylight Time),300910.90000003576,A,ar,O,r,130,1,4866.0,296044.90000003576,7089,WL,B,15.0
2,31.974000215530396,learn,28025.999784469604,Wed Mar 19 2025 12:05:26 GMT-0500 (Central Daylight Time),301044.0,A,arm,O,m,107,1,4999.099999964237,296044.90000003576,7089,WL,B,15.0
2,32.17200016975403,learn,27827.99983024597,Wed Mar 19 2025 12:05:26 GMT-0500 (Central Daylight Time),301242.8000000119,A,armenter,O,enter,158,1,5197.899999976158,296044.90000003576,7089,WL,B,15.0
3,0.41700005531311035,learn,59582.99994468689,Wed Mar 19 2025 12:05:26 GMT-0500 (Central Daylight Time),381550.40000003576,A,s,O,s,380,1,415.60000002384186,381134.8000000119,7089,WL,B,1.0
3,0.7339999675750732,learn,59266.00003242493,Wed Mar 19 2025 12:05:26 GMT-0500 (Central Daylight Time),381867.5,A,st,O,t,285,1,732.6999999880791,381134.8000000119,7089,WL,B,1.0
3,1.0169999599456787,learn,58983.00004005432,Wed Mar 19 2025 12:05:26 GMT-0500 (Central Daylight Time),382150.6999999881,A,str,O,r,246,1,1015.8999999761581,381134.8000000119,7089,WL,B,1.0
3,1.2330000400543213,learn,58766.99995994568,Wed Mar 19 2025 12:05:26 GMT-0500 (Central Daylight Time),382367.1999999881,A,stre,O,e,188,1,1232.3999999761581,381134.8000000119,7089,WL,B,1.0
3,1.4000000953674316,learn,58599.99990463257,Wed Mar 19 2025 12:05:26 GMT-0500 (Central Daylight Time),382533.6999999881,A,stree,O,e,138,1,1398.8999999761581,381134.8000000119,7089,WL,B,1.0
3,1.566999912261963,learn,58433.00008773804,Wed Mar 19 2025 12:05:26 GMT-0500 (Central Daylight Time),382700.60000002384,A,street,O,t,130,1,1565.800000011921,381134.8000000119,7089,WL,B,1.0
3,2.0169999599456787,learn,57983.00004005432,Wed Mar 19 2025 12:05:26 GMT-0500 (Central Daylight Time),383150.5,A,streetenter,O,enter,420,1,2015.699999988079,381134.8000000119,7089,WL,B,1.0
3,2.365999937057495,learn,57634.000062942505,Wed Mar 19 2025 12:05:26 GMT-0500 (Central Daylight Time),383500.0,A,g,O,g,328,1,349.30000001192093,383150.6999999881,7089,WL,B,2.0
3,2.5829999446868896,learn,57417.00005531311,Wed Mar 19 2025 12:05:26 GMT-0500 (Central Daylight Time),383716.6999999881,A,gr,O,r,183,1,566.0,383150.6999999881,7089,WL,B,2.0
3,2.683000087738037,learn,57316.99991226196,Wed Mar 19 2025 12:05:26 GMT-0500 (Central Daylight Time),383816.3000000119,A,gra,O,a,60,1,665.6000000238419,383150.6999999881,7089,WL,B,2.0
3,2.950000047683716,learn,57049.999952316284,Wed Mar 19 2025 12:05:26 GMT-0500 (Central Daylight Time),384083.40000003576,A,gras,O,s,238,1,932.7000000476837,383150.6999999881,7089,WL,B,2.0
3,3.0999999046325684,learn,56900.00009536743,Wed Mar 19 2025 12:05:26 GMT-0500 (Central Daylight Time),384233.3000000119,A,grass,O,s,120,1,1082.6000000238419,383150.6999999881,7089,WL,B,2.0
3,3.381999969482422,learn,56618.00003051758,Wed Mar 19 2025 12:05:26 GMT-0500 (Central Daylight Time),384515.60000002384,A,grassenter,O,enter,255,1,1364.9000000357628,383150.6999999881,7089,WL,B,2.0
3,3.632999897003174,learn,56367.000102996826,Wed Mar 19 2025 12:05:26 GMT-0500 (Central Daylight Time),384766.5,A,d,O,d,234,1,250.5999999642372,384515.90000003576,7089,WL,B,3.0
3,3.7829999923706055,learn,56217.000007629395,Wed Mar 19 2025 12:05:26 GMT-0500 (Central Daylight Time),384916.40000003576,A,do,O,o,107,1,400.5,384515.90000003576,7089,WL,B,3.0
3,4.2829999923706055,learn,55717.000007629395,Wed Mar 19 2025 12:05:26 GMT-0500 (Central Daylight Time),385416.3000000119,A,doo,O,o,462,1,900.3999999761581,384515.90000003576,7089,WL,B,3.0
3,4.483000040054321,learn,55516.99995994568,Wed Mar 19 2025 12:05:26 GMT-0500 (Central Daylight Time),385616.3000000119,A,door,O,r,169,1,1100.3999999761581,384515.90000003576,7089,WL,B,3.0
3,5.197999954223633,learn,54802.00004577637,Wed Mar 19 2025 12:05:26 GMT-0500 (Central Daylight Time),386331.6999999881,A,doorenter,O,enter,690,1,1815.7999999523163,384515.90000003576,7089,WL,B,3.0
3,5.48199987411499,learn,54518.00012588501,Wed Mar 19 2025 12:05:26 GMT-0500 (Central Daylight Time),386615.90000003576,A,a,O,a,266,1,284.0,386331.90000003576,7089,WL,B,4.0
3,5.598999977111816,learn,54401.00002288818,Wed Mar 19 2025 12:05:26 GMT-0500 (Central Daylight Time),386732.40000003576,A,ar,O,r,84,1,400.5,386331.90000003576,7089,WL,B,4.0
3,5.765000104904175,learn,54234.999895095825,Wed Mar 19 2025 12:05:26 GMT-0500 (Central Daylight Time),386899.0,A,arm,O,m,126,1,567.0999999642372,386331.90000003576,7089,WL,B,4.0
3,6.148000001907349,learn,53851.99999809265,Wed Mar 19 2025 12:05:26 GMT-0500 (Central Daylight Time),387281.5,A,armenter,O,enter,342,1,949.5999999642372,386331.90000003576,7089,WL,B,4.0
3,6.865000009536743,learn,53134.99999046326,Wed Mar 19 2025 12:05:26 GMT-0500 (Central Daylight Time),387998.6999999881,A,w,O,w,709,1,717.0,387281.6999999881,7089,WL,B,5.0
3,6.997999906539917,learn,53002.00009346008,Wed Mar 19 2025 12:05:26 GMT-0500 (Central Daylight Time),388132.10000002384,A,wi,O,i,101,1,850.4000000357628,387281.6999999881,7089,WL,B,5.0
3,7.180999994277954,learn,52819.000005722046,Wed Mar 19 2025 12:05:26 GMT-0500 (Central Daylight Time),388315.0,A,win,O,n,150,1,1033.300000011921,387281.6999999881,7089,WL,B,5.0
3,7.648000001907349,learn,52351.99999809265,Wed Mar 19 2025 12:05:26 GMT-0500 (Central Daylight Time),388781.6999999881,A,wind,O,d,441,1,1500.0,387281.6999999881,7089,WL,B,5.0
3,7.815000057220459,learn,52184.99994277954,Wed Mar 19 2025 12:05:26 GMT-0500 (Central Daylight Time),388948.90000003576,A,windo,O,o,142,1,1667.2000000476837,387281.6999999881,7089,WL,B,5.0
3,7.947999954223633,learn,52052.00004577637,Wed Mar 19 2025 12:05:26 GMT-0500 (Central Daylight Time),389081.60000002384,A,window,O,w,93,1,1799.9000000357628,387281.6999999881,7089,WL,B,5.0
3,8.164000034332275,learn,51835.999965667725,Wed Mar 19 2025 12:05:26 GMT-0500 (Central Daylight Time),389297.40000003576,A,windowenter,O,enter,183,1,2015.7000000476837,387281.6999999881,7089,WL,B,5.0
3,8.414999961853027,learn,51585.00003814697,Wed Mar 19 2025 12:05:26 GMT-0500 (Central Daylight Time),389548.90000003576,A,c,O,c,244,1,251.30000001192093,389297.60000002384,7089,WL,B,6.0
3,8.530999898910522,learn,51469.00010108948,Wed Mar 19 2025 12:05:26 GMT-0500 (Central Daylight Time),389665.0,A,ci,O,i,86,1,367.39999997615814,389297.60000002384,7089,WL,B,6.0
3,8.71399998664856,learn,51286.00001335144,Wed Mar 19 2025 12:05:26 GMT-0500 (Central Daylight Time),389848.10000002384,A,cit,O,t,153,1,550.5,389297.60000002384,7089,WL,B,6.0
3,8.846999883651733,learn,51153.00011634827,Wed Mar 19 2025 12:05:26 GMT-0500 (Central Daylight Time),389981.1999999881,A,city,O,y,107,1,683.5999999642372,389297.60000002384,7089,WL,B,6.0
3,9.663000106811523,learn,50336.99989318848,Wed Mar 19 2025 12:05:26 GMT-0500 (Central Daylight Time),390796.90000003576,A,cityenter,O,enter,787,1,1499.300000011921,389297.60000002384,7089,WL,B,6.0
3,10.331000089645386,learn,49668.999910354614,Wed Mar 19 2025 12:05:26 GMT-0500 (Central Daylight Time),391464.3000000119,A,w,O,w,649,1,667.1999999880791,390797.10000002384,7089,WL,B,7.0
3,10.44700002670288,learn,49552.99997329712,Wed Mar 19 2025 12:05:26 GMT-0500 (Central Daylight Time),391581.10000002384,A,wi,O,i,90,1,784.0,390797.10000002384,7089,WL,B,7.0
3,10.581000089645386,learn,49418.999910354614,Wed Mar 19 2025 12:05:26 GMT-0500 (Central Daylight Time),391714.40000003576,A,wif,O,f,100,1,917.3000000119209,390797.10000002384,7089,WL,B,7.0
3,10.730999946594238,learn,49269.00005340576,Wed Mar 19 2025 12:05:26 GMT-0500 (Central Daylight Time),391864.1999999881,A,wife,O,e,123,1,1067.0999999642372,390797.10000002384,7089,WL,B,7.0
3,10.895999908447266,learn,49104.000091552734,Wed Mar 19 2025 12:05:26 GMT-0500 (Central Daylight Time),392029.8000000119,A,wifeenter,O,enter,140,1,1232.699999988079,390797.10000002384,7089,WL,B,7.0
3,11.096999883651733,learn,48903.00011634827,Wed Mar 19 2025 12:05:26 GMT-0500 (Central Daylight Time),392230.6999999881,A,s,O,s,192,1,200.5999999642372,392030.10000002384,7089,WL,B,8.0
3,11.246999979019165,learn,48753.000020980835,Wed Mar 19 2025 12:05:26 GMT-0500 (Central Daylight Time),392380.90000003576,A,st,O,t,125,1,350.80000001192093,392030.10000002384,7089,WL,B,8.0
3,11.379999876022339,learn,48620.00012397766,Wed Mar 19 2025 12:05:26 GMT-0500 (Central Daylight Time),392513.5,A,sta,O,a,93,1,483.39999997615814,392030.10000002384,7089,WL,B,8.0
3,11.496999979019165,learn,48503.000020980835,Wed Mar 19 2025 12:05:26 GMT-0500 (Central Daylight Time),392630.60000002384,A,star,O,r,89,1,600.5,392030.10000002384,7089,WL,B,8.0
3,11.846999883651733,learn,48153.00011634827,Wed Mar 19 2025 12:05:26 GMT-0500 (Central Daylight Time),392980.60000002384,A,starenter,O,enter,322,1,950.5,392030.10000002384,7089,WL,B,8.0
3,14.928999900817871,learn,45071.00009918213,Wed Mar 19 2025 12:05:26 GMT-0500 (Central Daylight Time),396062.6999999881,A,w,O,w,3073,1,3081.7999999523163,392980.90000003576,7089,WL,B,9.0
3,15.128999948501587,learn,44871.00005149841,Wed Mar 19 2025 12:05:26 GMT-0500 (Central Daylight Time),396262.6999999881,A,wi,O,i,174,1,3281.7999999523163,392980.90000003576,7089,WL,B,9.0
3,15.378999948501587,learn,44621.00005149841,Wed Mar 19 2025 12:05:26 GMT-0500 (Central Daylight Time),396512.6999999881,A,win,O,n,212,1,3531.7999999523163,392980.90000003576,7089,WL,B,9.0
3,15.546000003814697,learn,44453.9999961853,Wed Mar 19 2025 12:05:26 GMT-0500 (Central Daylight Time),396679.1999999881,A,wind,O,d,140,1,3698.2999999523163,392980.90000003576,7089,WL,B,9.0
3,15.744999885559082,learn,44255.00011444092,Wed Mar 19 2025 12:05:26 GMT-0500 (Central Daylight Time),396879.1999999881,A,windo,O,o,163,1,3898.2999999523163,392980.90000003576,7089,WL,B,9.0
3,15.928999900817871,learn,44071.00009918213,Wed Mar 19 2025 12:05:26 GMT-0500 (Central Daylight Time),397062.5,A,window,O,w,146,1,4081.599999964237,392980.90000003576,7089,WL,B,9.0
3,16.361999988555908,learn,43638.00001144409,Wed Mar 19 2025 12:05:26 GMT-0500 (Central Daylight Time),397495.6999999881,A,windo,O,backspace,404,1,4514.799999952316,392980.90000003576,7089,WL,B,9.0
3,16.545000076293945,learn,43454.999923706055,Wed Mar 19 2025 12:05:26 GMT-0500 (Central Daylight Time),397679.0,A,wind,O,backspace,148,1,4698.099999964237,392980.90000003576,7089,WL,B,9.0
3,16.694999933242798,learn,43305.0000667572,Wed Mar 19 2025 12:05:26 GMT-0500 (Central Daylight Time),397829.10000002384,A,win,O,backspace,124,1,4848.199999988079,392980.90000003576,7089,WL,B,9.0
3,16.84500002861023,learn,43154.99997138977,Wed Mar 19 2025 12:05:26 GMT-0500 (Central Daylight Time),397978.8000000119,A,wi,O,backspace,118,1,4997.899999976158,392980.90000003576,7089,WL,B,9.0
3,17.062000036239624,learn,42937.999963760376,Wed Mar 19 2025 12:05:26 GMT-0500 (Central Daylight Time),398195.6999999881,A,w,O,backspace,175,1,5214.799999952316,392980.90000003576,7089,WL,B,9.0
3,17.411999940872192,learn,42588.00005912781,Wed Mar 19 2025 12:05:26 GMT-0500 (Central Daylight Time),398545.3000000119,A,,O,backspace,322,1,5564.399999976158,392980.90000003576,7089,WL,B,9.0
3,18.144999980926514,learn,41855.000019073486,Wed Mar 19 2025 12:05:26 GMT-0500 (Central Daylight Time),399278.40000003576,A,c,O,c,707,1,6297.5,392980.90000003576,7089,WL,B,9.0
3,18.244999885559082,learn,41755.00011444092,Wed Mar 19 2025 12:05:26 GMT-0500 (Central Daylight Time),399378.40000003576,A,cl,O,l,73,1,6397.5,392980.90000003576,7089,WL,B,9.0
3,18.444999933242798,learn,41555.0000667572,Wed Mar 19 2025 12:05:26 GMT-0500 (Central Daylight Time),399578.1999999881,A,clo,O,o,167,1,6597.299999952316,392980.90000003576,7089,WL,B,9.0
3,18.57800006866455,learn,41421.99993133545,Wed Mar 19 2025 12:05:26 GMT-0500 (Central Daylight Time),399711.40000003576,A,cloc,O,c,105,1,6730.5,392980.90000003576,7089,WL,B,9.0
3,18.694000005722046,learn,41305.999994277954,Wed Mar 19 2025 12:05:26 GMT-0500 (Central Daylight Time),399828.1999999881,A,clock,O,k,75,1,6847.299999952316,392980.90000003576,7089,WL,B,9.0
3,19.07699990272522,learn,40923.00009727478,Wed Mar 19 2025 12:05:26 GMT-0500 (Central Daylight Time),400210.5,A,clockenter,O,enter,349,1,7229.599999964237,392980.90000003576,7089,WL,B,9.0
3,21.060999870300293,learn,38939.00012969971,Wed Mar 19 2025 12:05:26 GMT-0500 (Central Daylight Time),402194.60000002384,A,c,O,c,1963,1,1983.800000011921,400210.8000000119,7089,WL,B,10.0
3,21.193000078201294,learn,38806.999921798706,Wed Mar 19 2025 12:05:26 GMT-0500 (Central Daylight Time),402326.8000000119,A,ca,O,a,94,1,2116.0,400210.8000000119,7089,WL,B,10.0
3,21.427000045776367,learn,38572.99995422363,Wed Mar 19 2025 12:05:26 GMT-0500 (Central Daylight Time),402560.6999999881,A,cab,O,b,215,1,2349.899999976158,400210.8000000119,7089,WL,B,10.0
3,21.842999935150146,learn,38157.00006484985,Wed Mar 19 2025 12:05:26 GMT-0500 (Central Daylight Time),402977.1999999881,A,cabi,O,i,378,1,2766.399999976158,400210.8000000119,7089,WL,B,10.0
3,21.99399995803833,learn,38006.00004196167,Wed Mar 19 2025 12:05:26 GMT-0500 (Central Daylight Time),403127.3000000119,A,cabin,O,n,113,1,2916.5,400210.8000000119,7089,WL,B,10.0
3,22.194000005722046,learn,37805.999994277954,Wed Mar 19 2025 12:05:26 GMT-0500 (Central Daylight Time),403327.40000003576,A,cabinenter,O,enter,170,1,3116.600000023842,400210.8000000119,7089,WL,B,10.0
3,22.526999950408936,learn,37473.000049591064,Wed Mar 19 2025 12:05:26 GMT-0500 (Central Daylight Time),403660.5,A,l,O,l,311,1,332.89999997615814,403327.60000002384,7089,WL,B,11.0
3,22.658999919891357,learn,37341.00008010864,Wed Mar 19 2025 12:05:26 GMT-0500 (Central Daylight Time),403792.90000003576,A,la,O,a,101,1,465.30000001192093,403327.60000002384,7089,WL,B,11.0
3,22.776000022888184,learn,37223.99997711182,Wed Mar 19 2025 12:05:26 GMT-0500 (Central Daylight Time),403909.8000000119,A,lak,O,k,90,1,582.1999999880791,403327.60000002384,7089,WL,B,11.0
3,22.925999879837036,learn,37074.000120162964,Wed Mar 19 2025 12:05:26 GMT-0500 (Central Daylight Time),404060.10000002384,A,lake,O,e,108,1,732.5,403327.60000002384,7089,WL,B,11.0
3,23.70899987220764,learn,36291.00012779236,Wed Mar 19 2025 12:05:26 GMT-0500 (Central Daylight Time),404842.3000000119,A,lakeenter,O,enter,742,1,1514.699999988079,403327.60000002384,7089,WL,B,11.0
3,24.375999927520752,learn,35624.00007247925,Wed Mar 19 2025 12:05:26 GMT-0500 (Central Daylight Time),405509.60000002384,A,f,O,f,651,1,667.0,404842.60000002384,7089,WL,B,12.0
3,24.54200005531311,learn,35457.99994468689,Wed Mar 19 2025 12:05:26 GMT-0500 (Central Daylight Time),405676.1999999881,A,fi,O,i,126,1,833.5999999642372,404842.60000002384,7089,WL,B,12.0
3,24.7260000705719,learn,35273.9999294281,Wed Mar 19 2025 12:05:26 GMT-0500 (Central Daylight Time),405859.60000002384,A,fir,O,r,144,1,1017.0,404842.60000002384,7089,WL,B,12.0
3,24.80900001525879,learn,35190.99998474121,Wed Mar 19 2025 12:05:26 GMT-0500 (Central Daylight Time),405942.90000003576,A,fire,O,e,49,1,1100.300000011921,404842.60000002384,7089,WL,B,12.0
3,25.257999897003174,learn,34742.000102996826,Wed Mar 19 2025 12:05:26 GMT-0500 (Central Daylight Time),406391.8000000119,A,fireenter,O,enter,419,1,1549.199999988079,404842.60000002384,7089,WL,B,12.0
3,27.30900001525879,learn,32690.99998474121,Wed Mar 19 2025 12:05:26 GMT-0500 (Central Daylight Time),408442.40000003576,A,p,O,p,2038,1,2050.300000011921,406392.10000002384,7089,WL,B,13.0
3,27.64199995994568,learn,32358.00004005432,Wed Mar 19 2025 12:05:26 GMT-0500 (Central Daylight Time),408775.3000000119,A,pi,O,i,304,1,2383.199999988079,406392.10000002384,7089,WL,B,13.0
3,27.825000047683716,learn,32174.999952316284,Wed Mar 19 2025 12:05:26 GMT-0500 (Central Daylight Time),408958.3000000119,A,pip,O,p,161,1,2566.199999988079,406392.10000002384,7089,WL,B,13.0
3,28.02500009536743,learn,31974.99990463257,Wed Mar 19 2025 12:05:26 GMT-0500 (Central Daylight Time),409158.40000003576,A,pipe,O,e,173,1,2766.300000011921,406392.10000002384,7089,WL,B,13.0
3,29.223000049591064,learn,30776.999950408936,Wed Mar 19 2025 12:05:26 GMT-0500 (Central Daylight Time),410357.1999999881,A,pipeenter,O,enter,1173,1,3965.099999964237,406392.10000002384,7089,WL,B,13.0
3,34.52300000190735,learn,25476.99999809265,Wed Mar 19 2025 12:05:26 GMT-0500 (Central Daylight Time),415656.40000003576,A,p,O,p,5281,1,5299.0,410357.40000003576,7089,WL,B,14.0
3,34.805999994277954,learn,25194.000005722046,Wed Mar 19 2025 12:05:26 GMT-0500 (Central Daylight Time),415939.60000002384,A,pu,O,u,249,1,5582.199999988079,410357.40000003576,7089,WL,B,14.0
3,35.00600004196167,learn,24993.99995803833,Wed Mar 19 2025 12:05:26 GMT-0500 (Central Daylight Time),416139.6999999881,A,pup,O,p,170,1,5782.299999952316,410357.40000003576,7089,WL,B,14.0
3,35.35699987411499,learn,24643.00012588501,Wed Mar 19 2025 12:05:26 GMT-0500 (Central Daylight Time),416489.5,A,pupi,O,i,319,1,6132.099999964237,410357.40000003576,7089,WL,B,14.0
3,35.53999996185303,learn,24460.000038146973,Wed Mar 19 2025 12:05:26 GMT-0500 (Central Daylight Time),416672.8000000119,A,pupil,O,l,146,1,6315.399999976158,410357.40000003576,7089,WL,B,14.0
3,35.7720000743866,learn,24227.999925613403,Wed Mar 19 2025 12:05:26 GMT-0500 (Central Daylight Time),416905.0,A,pupilenter,O,enter,202,1,6547.599999964237,410357.40000003576,7089,WL,B,14.0
3,60.015000104904175,learn,-15.000104904174805,Wed Mar 19 2025 12:05:26 GMT-0500 (Central Daylight Time),441148.1999999881,A,None,O,None,24237,1,24242.899999976158,416905.3000000119,7089,WL,B,15.0
4,0.4830000400543213,learn,59516.99995994568,Wed Mar 19 2025 12:05:26 GMT-0500 (Central Daylight Time),506576.5,A,s,O,s,455,1,482.5,506094.0,7089,WL,B,1.0
4,0.8670001029968262,learn,59132.999897003174,Wed Mar 19 2025 12:05:26 GMT-0500 (Central Daylight Time),506959.6999999881,A,st,O,t,346,1,865.6999999880791,506094.0,7089,WL,B,1.0
4,1.133000135421753,learn,58866.99986457825,Wed Mar 19 2025 12:05:26 GMT-0500 (Central Daylight Time),507226.3000000119,A,str,O,r,236,1,1132.300000011921,506094.0,7089,WL,B,1.0
4,1.4660000801086426,learn,58533.99991989136,Wed Mar 19 2025 12:05:26 GMT-0500 (Central Daylight Time),507559.60000002384,A,stre,O,e,297,1,1465.6000000238419,506094.0,7089,WL,B,1.0
4,1.633000135421753,learn,58366.99986457825,Wed Mar 19 2025 12:05:26 GMT-0500 (Central Daylight Time),507726.1999999881,A,stree,O,e,132,1,1632.199999988079,506094.0,7089,WL,B,1.0
4,1.8329999446868896,learn,58167.00005531311,Wed Mar 19 2025 12:05:26 GMT-0500 (Central Daylight Time),507925.90000003576,A,street,O,t,173,1,1831.9000000357628,506094.0,7089,WL,B,1.0
4,2.515000104904175,learn,57484.999895095825,Wed Mar 19 2025 12:05:26 GMT-0500 (Central Daylight Time),508608.1999999881,A,streetenter,O,enter,649,1,2514.199999988079,506094.0,7089,WL,B,1.0
4,2.865999937057495,learn,57134.000062942505,Wed Mar 19 2025 12:05:26 GMT-0500 (Central Daylight Time),508959.3000000119,A,g,O,g,334,1,350.80000001192093,508608.5,7089,WL,B,2.0
4,3.0989999771118164,learn,56901.00002288818,Wed Mar 19 2025 12:05:26 GMT-0500 (Central Daylight Time),509192.40000003576,A,gr,O,r,198,1,583.9000000357628,508608.5,7089,WL,B,2.0
4,3.2330000400543213,learn,56766.99995994568,Wed Mar 19 2025 12:05:26 GMT-0500 (Central Daylight Time),509325.60000002384,A,gra,O,a,100,1,717.1000000238419,508608.5,7089,WL,B,2.0
4,3.615999937057495,learn,56384.000062942505,Wed Mar 19 2025 12:05:26 GMT-0500 (Central Daylight Time),509708.8000000119,A,gras,O,s,350,1,1100.300000011921,508608.5,7089,WL,B,2.0
4,3.7820000648498535,learn,56217.99993515015,Wed Mar 19 2025 12:05:26 GMT-0500 (Central Daylight Time),509875.5,A,grass,O,s,136,1,1267.0,508608.5,7089,WL,B,2.0
4,4.414999961853027,learn,55585.00003814697,Wed Mar 19 2025 12:05:26 GMT-0500 (Central Daylight Time),510507.60000002384,A,grassenter,O,enter,598,1,1899.1000000238419,508608.5,7089,WL,B,2.0
4,4.749000072479248,learn,55250.99992752075,Wed Mar 19 2025 12:05:26 GMT-0500 (Central Daylight Time),510841.8000000119,A,d,O,d,313,1,333.89999997615814,510507.90000003576,7089,WL,B,3.0
4,4.914999961853027,learn,55085.00003814697,Wed Mar 19 2025 12:05:26 GMT-0500 (Central Daylight Time),511008.5,A,do,O,o,136,1,500.5999999642372,510507.90000003576,7089,WL,B,3.0
4,5.431999921798706,learn,54568.000078201294,Wed Mar 19 2025 12:05:26 GMT-0500 (Central Daylight Time),511525.10000002384,A,doo,O,o,490,1,1017.1999999880791,510507.90000003576,7089,WL,B,3.0
4,5.631999969482422,learn,54368.00003051758,Wed Mar 19 2025 12:05:26 GMT-0500 (Central Daylight Time),511724.8000000119,A,door,O,r,166,1,1216.8999999761581,510507.90000003576,7089,WL,B,3.0
4,6.180999994277954,learn,53819.000005722046,Wed Mar 19 2025 12:05:26 GMT-0500 (Central Daylight Time),512273.6999999881,A,doorenter,O,enter,523,1,1765.7999999523163,510507.90000003576,7089,WL,B,3.0
4,6.531000137329102,learn,53468.9998626709,Wed Mar 19 2025 12:05:26 GMT-0500 (Central Daylight Time),512624.40000003576,A,a,O,a,332,1,350.4000000357628,512274.0,7089,WL,B,4.0
4,6.648000001907349,learn,53351.99999809265,Wed Mar 19 2025 12:05:26 GMT-0500 (Central Daylight Time),512741.10000002384,A,ar,O,r,82,1,467.10000002384186,512274.0,7089,WL,B,4.0
4,6.881999969482422,learn,53118.00003051758,Wed Mar 19 2025 12:05:26 GMT-0500 (Central Daylight Time),512975.10000002384,A,arm,O,m,203,1,701.1000000238419,512274.0,7089,WL,B,4.0
4,7.513999938964844,learn,52486.000061035156,Wed Mar 19 2025 12:05:26 GMT-0500 (Central Daylight Time),513606.60000002384,A,armenter,O,enter,595,1,1332.6000000238419,512274.0,7089,WL,B,4.0
4,8.114000082015991,learn,51885.99991798401,Wed Mar 19 2025 12:05:26 GMT-0500 (Central Daylight Time),514207.3000000119,A,w,O,w,583,1,600.3000000119209,513607.0,7089,WL,B,5.0
4,8.247999906539917,learn,51752.00009346008,Wed Mar 19 2025 12:05:26 GMT-0500 (Central Daylight Time),514341.3000000119,A,wi,O,i,109,1,734.3000000119209,513607.0,7089,WL,B,5.0
4,8.447999954223633,learn,51552.00004577637,Wed Mar 19 2025 12:05:26 GMT-0500 (Central Daylight Time),514541.3000000119,A,win,O,n,174,1,934.3000000119209,513607.0,7089,WL,B,5.0
4,8.581000089645386,learn,51418.999910354614,Wed Mar 19 2025 12:05:26 GMT-0500 (Central Daylight Time),514673.90000003576,A,wind,O,d,106,1,1066.9000000357628,513607.0,7089,WL,B,5.0
4,8.730000019073486,learn,51269.999980926514,Wed Mar 19 2025 12:05:26 GMT-0500 (Central Daylight Time),514823.5,A,windo,O,o,122,1,1216.5,513607.0,7089,WL,B,5.0
4,8.847000122070312,learn,51152.99987792969,Wed Mar 19 2025 12:05:26 GMT-0500 (Central Daylight Time),514940.5,A,window,O,w,93,1,1333.5,513607.0,7089,WL,B,5.0
4,9.230000019073486,learn,50769.999980926514,Wed Mar 19 2025 12:05:26 GMT-0500 (Central Daylight Time),515322.6999999881,A,windowenter,O,enter,341,1,1715.699999988079,513607.0,7089,WL,B,5.0
4,9.531000137329102,learn,50468.9998626709,Wed Mar 19 2025 12:05:26 GMT-0500 (Central Daylight Time),515623.6999999881,A,s,O,s,291,1,300.69999998807907,515323.0,7089,WL,B,6.0
4,9.69700002670288,learn,50302.99997329712,Wed Mar 19 2025 12:05:26 GMT-0500 (Central Daylight Time),515790.10000002384,A,st,O,t,143,1,467.10000002384186,515323.0,7089,WL,B,6.0
4,9.814000129699707,learn,50185.99987030029,Wed Mar 19 2025 12:05:26 GMT-0500 (Central Daylight Time),515906.6999999881,A,sta,O,a,84,1,583.6999999880791,515323.0,7089,WL,B,6.0
4,9.94700002670288,learn,50052.99997329712,Wed Mar 19 2025 12:05:26 GMT-0500 (Central Daylight Time),516040.10000002384,A,star,O,r,102,1,717.1000000238419,515323.0,7089,WL,B,6.0
4,11.062000036239624,learn,48937.999963760376,Wed Mar 19 2025 12:05:26 GMT-0500 (Central Daylight Time),517155.5,A,starenter,O,enter,1083,1,1832.5,515323.0,7089,WL,B,6.0
4,11.397000074386597,learn,48602.9999256134,Wed Mar 19 2025 12:05:26 GMT-0500 (Central Daylight Time),517489.60000002384,A,w,O,w,322,1,333.80000001192093,517155.8000000119,7089,WL,B,7.0
4,11.579999923706055,learn,48420.000076293945,Wed Mar 19 2025 12:05:26 GMT-0500 (Central Daylight Time),517672.8000000119,A,wi,O,i,146,1,517.0,517155.8000000119,7089,WL,B,7.0
4,11.696000099182129,learn,48303.99990081787,Wed Mar 19 2025 12:05:26 GMT-0500 (Central Daylight Time),517789.10000002384,A,wif,O,f,100,1,633.3000000119209,517155.8000000119,7089,WL,B,7.0
4,11.880000114440918,learn,48119.99988555908,Wed Mar 19 2025 12:05:26 GMT-0500 (Central Daylight Time),517972.8000000119,A,wife,O,e,146,1,817.0,517155.8000000119,7089,WL,B,7.0
4,12.34500002861023,learn,47654.99997138977,Wed Mar 19 2025 12:05:26 GMT-0500 (Central Daylight Time),518438.40000003576,A,wifeenter,O,enter,438,1,1282.6000000238419,517155.8000000119,7089,WL,B,7.0
4,12.76200008392334,learn,47237.99991607666,Wed Mar 19 2025 12:05:26 GMT-0500 (Central Daylight Time),518855.1999999881,A,s,O,s,398,1,416.5999999642372,518438.60000002384,7089,WL,B,8.0
4,12.895999908447266,learn,47104.000091552734,Wed Mar 19 2025 12:05:26 GMT-0500 (Central Daylight Time),518989.40000003576,A,sk,O,k,106,1,550.8000000119209,518438.60000002384,7089,WL,B,8.0
4,13.046000003814697,learn,46953.9999961853,Wed Mar 19 2025 12:05:26 GMT-0500 (Central Daylight Time),519139.10000002384,A,ski,O,i,109,1,700.5,518438.60000002384,7089,WL,B,8.0
4,13.229000091552734,learn,46770.999908447266,Wed Mar 19 2025 12:05:26 GMT-0500 (Central Daylight Time),519322.5,A,skin,O,n,142,1,883.8999999761581,518438.60000002384,7089,WL,B,8.0
4,13.894999980926514,learn,46105.000019073486,Wed Mar 19 2025 12:05:26 GMT-0500 (Central Daylight Time),519987.8000000119,A,skinenter,O,enter,638,1,1549.199999988079,518438.60000002384,7089,WL,B,8.0
4,14.312000036239624,learn,45687.999963760376,Wed Mar 19 2025 12:05:26 GMT-0500 (Central Daylight Time),520405.3000000119,A,f,O,f,402,1,417.19999998807907,519988.10000002384,7089,WL,B,9.0
4,14.42799997329712,learn,45572.00002670288,Wed Mar 19 2025 12:05:26 GMT-0500 (Central Daylight Time),520521.60000002384,A,fa,O,a,85,1,533.5,519988.10000002384,7089,WL,B,9.0
4,15.161999940872192,learn,44838.00005912781,Wed Mar 19 2025 12:05:26 GMT-0500 (Central Daylight Time),521255.3000000119,A,f,O,backspace,705,1,1267.199999988079,519988.10000002384,7089,WL,B,9.0
4,15.34500002861023,learn,44654.99997138977,Wed Mar 19 2025 12:05:26 GMT-0500 (Central Daylight Time),521438.0,A,fi,O,i,156,1,1449.8999999761581,519988.10000002384,7089,WL,B,9.0
4,15.628000020980835,learn,44371.999979019165,Wed Mar 19 2025 12:05:26 GMT-0500 (Central Daylight Time),521721.5,A,fir,O,r,247,1,1733.3999999761581,519988.10000002384,7089,WL,B,9.0
4,15.710999965667725,learn,44289.000034332275,Wed Mar 19 2025 12:05:26 GMT-0500 (Central Daylight Time),521804.0,A,fire,O,e,57,1,1815.8999999761581,519988.10000002384,7089,WL,B,9.0
4,16.72699999809265,learn,43273.00000190735,Wed Mar 19 2025 12:05:26 GMT-0500 (Central Daylight Time),522820.1999999881,A,fireenter,O,enter,994,1,2832.099999964237,519988.10000002384,7089,WL,B,9.0
4,18.42799997329712,learn,41572.00002670288,Wed Mar 19 2025 12:05:26 GMT-0500 (Central Daylight Time),524520.8000000119,A,c,O,c,1682,1,1700.199999988079,522820.60000002384,7089,WL,B,10.0
4,18.628000020980835,learn,41371.999979019165,Wed Mar 19 2025 12:05:26 GMT-0500 (Central Daylight Time),524720.6999999881,A,ca,O,a,163,1,1900.0999999642372,522820.60000002384,7089,WL,B,10.0
4,18.97699999809265,learn,41023.00000190735,Wed Mar 19 2025 12:05:26 GMT-0500 (Central Daylight Time),525070.4000000358,A,cab,O,b,323,1,2249.800000011921,522820.60000002384,7089,WL,B,10.0
4,19.177000045776367,learn,40822.99995422363,Wed Mar 19 2025 12:05:26 GMT-0500 (Central Daylight Time),525270.5,A,cabi,O,i,176,1,2449.899999976158,522820.60000002384,7089,WL,B,10.0
4,19.344000101089478,learn,40655.99989891052,Wed Mar 19 2025 12:05:26 GMT-0500 (Central Daylight Time),525437.0,A,cabin,O,n,126,1,2616.399999976158,522820.60000002384,7089,WL,B,10.0
4,19.693000078201294,learn,40306.999921798706,Wed Mar 19 2025 12:05:26 GMT-0500 (Central Daylight Time),525785.9000000358,A,cabinenter,O,enter,316,1,2965.300000011921,522820.60000002384,7089,WL,B,10.0
4,20.30999994277954,learn,39690.00005722046,Wed Mar 19 2025 12:05:26 GMT-0500 (Central Daylight Time),526403.4000000358,A,l,O,l,595,1,617.1000000238419,525786.3000000119,7089,WL,B,11.0
4,20.460000038146973,learn,39539.99996185303,Wed Mar 19 2025 12:05:26 GMT-0500 (Central Daylight Time),526553.1999999881,A,la,O,a,119,1,766.8999999761581,525786.3000000119,7089,WL,B,11.0
4,21.026999950408936,learn,38973.000049591064,Wed Mar 19 2025 12:05:26 GMT-0500 (Central Daylight Time),527119.8000000119,A,lak,O,k,529,1,1333.5,525786.3000000119,7089,WL,B,11.0
4,21.276999950408936,learn,38723.000049591064,Wed Mar 19 2025 12:05:26 GMT-0500 (Central Daylight Time),527369.9000000358,A,lake,O,e,212,1,1583.6000000238419,525786.3000000119,7089,WL,B,11.0
4,22.39199995994568,learn,37608.00004005432,Wed Mar 19 2025 12:05:26 GMT-0500 (Central Daylight Time),528485.1000000238,A,lakeenter,O,enter,1080,1,2698.800000011921,525786.3000000119,7089,WL,B,11.0
4,23.808000087738037,learn,36191.99991226196,Wed Mar 19 2025 12:05:26 GMT-0500 (Central Daylight Time),529901.4000000358,A,p,O,p,1400,1,1416.0,528485.4000000358,7089,WL,B,12.0
4,24.05900001525879,learn,35940.99998474121,Wed Mar 19 2025 12:05:26 GMT-0500 (Central Daylight Time),530152.1999999881,A,pi,O,i,235,1,1666.7999999523163,528485.4000000358,7089,WL,B,12.0
4,24.242000102996826,learn,35757.999897003174,Wed Mar 19 2025 12:05:26 GMT-0500 (Central Daylight Time),530335.6000000238,A,pip,O,p,154,1,1850.199999988079,528485.4000000358,7089,WL,B,12.0
4,24.55999994277954,learn,35440.00005722046,Wed Mar 19 2025 12:05:26 GMT-0500 (Central Daylight Time),530652.6999999881,A,pipe,O,e,291,1,2167.2999999523163,528485.4000000358,7089,WL,B,12.0
4,24.9760000705719,learn,35023.9999294281,Wed Mar 19 2025 12:05:26 GMT-0500 (Central Daylight Time),531068.6000000238,A,pipeenter,O,enter,393,1,2583.199999988079,528485.4000000358,7089,WL,B,12.0
4,26.075000047683716,learn,33924.999952316284,Wed Mar 19 2025 12:05:26 GMT-0500 (Central Daylight Time),532168.1000000238,A,p,O,p,1081,1,1099.199999988079,531068.9000000358,7089,WL,B,13.0
4,26.308000087738037,learn,33691.99991226196,Wed Mar 19 2025 12:05:26 GMT-0500 (Central Daylight Time),532401.4000000358,A,pu,O,u,204,1,1332.5,531068.9000000358,7089,WL,B,13.0
4,26.575000047683716,learn,33424.999952316284,Wed Mar 19 2025 12:05:26 GMT-0500 (Central Daylight Time),532668.0,A,pup,O,p,234,1,1599.0999999642372,531068.9000000358,7089,WL,B,13.0
4,26.924999952316284,learn,33075.000047683716,Wed Mar 19 2025 12:05:26 GMT-0500 (Central Daylight Time),533017.9000000358,A,pupi,O,i,317,1,1949.0,531068.9000000358,7089,WL,B,13.0
4,27.141000032424927,learn,32858.99996757507,Wed Mar 19 2025 12:05:26 GMT-0500 (Central Daylight Time),533234.4000000358,A,pupil,O,l,177,1,2165.5,531068.9000000358,7089,WL,B,13.0
4,27.374000072479248,learn,32625.999927520752,Wed Mar 19 2025 12:05:26 GMT-0500 (Central Daylight Time),533466.8000000119,A,pupilenter,O,enter,201,1,2397.899999976158,531068.9000000358,7089,WL,B,13.0
4,27.758000135421753,learn,32241.999864578247,Wed Mar 19 2025 12:05:26 GMT-0500 (Central Daylight Time),533851.0,A,c,O,c,363,1,384.0,533467.0,7089,WL,B,14.0
4,27.85700011253357,learn,32142.99988746643,Wed Mar 19 2025 12:05:26 GMT-0500 (Central Daylight Time),533950.6000000238,A,cl,O,l,72,1,483.60000002384186,533467.0,7089,WL,B,14.0
4,28.091000080108643,learn,31908.999919891357,Wed Mar 19 2025 12:05:26 GMT-0500 (Central Daylight Time),534184.1000000238,A,clo,O,o,207,1,717.1000000238419,533467.0,7089,WL,B,14.0
4,28.39199995994568,learn,31608.00004005432,Wed Mar 19 2025 12:05:26 GMT-0500 (Central Daylight Time),534484.8000000119,A,cloc,O,c,276,1,1017.8000000119209,533467.0,7089,WL,B,14.0
4,28.54100012779236,learn,31458.99987220764,Wed Mar 19 2025 12:05:26 GMT-0500 (Central Daylight Time),534634.0,A,clock,O,k,119,1,1167.0,533467.0,7089,WL,B,14.0
4,28.7739999294281,learn,31226.0000705719,Wed Mar 19 2025 12:05:26 GMT-0500 (Central Daylight Time),534867.5,A,clockenter,O,enter,201,1,1400.5,533467.0,7089,WL,B,14.0
4,35.50600004196167,learn,24493.99995803833,Wed Mar 19 2025 12:05:26 GMT-0500 (Central Daylight Time),541598.4000000358,A,a,O,a,6714,1,6730.700000047684,534867.6999999881,7089,WL,B,15.0
4,35.789000034332275,learn,24210.999965667725,Wed Mar 19 2025 12:05:26 GMT-0500 (Central Daylight Time),541881.6000000238,A,ar,O,r,252,1,7013.900000035763,534867.6999999881,7089,WL,B,15.0
4,35.92199993133545,learn,24078.00006866455,Wed Mar 19 2025 12:05:26 GMT-0500 (Central Daylight Time),542014.6999999881,A,arm,O,m,99,1,7147.0,534867.6999999881,7089,WL,B,15.0
4,36.687999963760376,learn,23312.000036239624,Wed Mar 19 2025 12:05:26 GMT-0500 (Central Daylight Time),542780.4000000358,A,armenter,O,enter,732,1,7912.700000047684,534867.6999999881,7089,WL,B,15.0
5,0.3510000705718994,learn,60000.0,Wed Mar 19 2025 12:05:26 GMT-0500 (Central Daylight Time),608893.6999999881,A,s,O,s,334,1,350.69999998807907,608543.0,7089,WL,B,1.0
5,0.7170000076293945,learn,60000.0,Wed Mar 19 2025 12:05:26 GMT-0500 (Central Daylight Time),609259.9000000358,A,st,O,t,336,1,716.9000000357628,608543.0,7089,WL,B,1.0
5,0.9500000476837158,learn,60000.0,Wed Mar 19 2025 12:05:26 GMT-0500 (Central Daylight Time),609492.6000000238,A,str,O,r,200,1,949.6000000238419,608543.0,7089,WL,B,1.0
5,1.2170000076293945,learn,60000.0,Wed Mar 19 2025 12:05:26 GMT-0500 (Central Daylight Time),609759.4000000358,A,stre,O,e,230,1,1216.4000000357628,608543.0,7089,WL,B,1.0
5,1.4000000953674316,learn,60000.0,Wed Mar 19 2025 12:05:26 GMT-0500 (Central Daylight Time),609942.6000000238,A,stree,O,e,148,1,1399.6000000238419,608543.0,7089,WL,B,1.0
5,1.5499999523162842,learn,60000.0,Wed Mar 19 2025 12:05:26 GMT-0500 (Central Daylight Time),610092.5,A,street,O,t,111,1,1549.5,608543.0,7089,WL,B,1.0
5,2.115999937057495,learn,60000.0,Wed Mar 19 2025 12:05:26 GMT-0500 (Central Daylight Time),610658.1999999881,A,streetenter,O,enter,537,1,2115.199999988079,608543.0,7089,WL,B,1.0
5,2.549999952316284,learn,60000.0,Wed Mar 19 2025 12:05:26 GMT-0500 (Central Daylight Time),611092.3000000119,A,g,O,g,412,1,433.89999997615814,610658.4000000358,7089,WL,B,2.0
5,3.0490000247955322,learn,60000.0,Wed Mar 19 2025 12:05:26 GMT-0500 (Central Daylight Time),611591.9000000358,A,gr,O,r,471,1,933.5,610658.4000000358,7089,WL,B,2.0
5,3.2160000801086426,learn,60000.0,Wed Mar 19 2025 12:05:26 GMT-0500 (Central Daylight Time),611758.5,A,gra,O,a,135,1,1100.0999999642372,610658.4000000358,7089,WL,B,2.0
5,3.5160000324249268,learn,60000.0,Wed Mar 19 2025 12:05:26 GMT-0500 (Central Daylight Time),612058.6999999881,A,gras,O,s,258,1,1400.2999999523163,610658.4000000358,7089,WL,B,2.0
5,3.6660001277923584,learn,60000.0,Wed Mar 19 2025 12:05:26 GMT-0500 (Central Daylight Time),612208.5,A,grass,O,s,118,1,1550.0999999642372,610658.4000000358,7089,WL,B,2.0
5,4.197999954223633,learn,60000.0,Wed Mar 19 2025 12:05:26 GMT-0500 (Central Daylight Time),612740.6999999881,A,grassenter,O,enter,497,1,2082.2999999523163,610658.4000000358,7089,WL,B,2.0
5,4.582000017166138,learn,60000.0,Wed Mar 19 2025 12:05:26 GMT-0500 (Central Daylight Time),613124.1999999881,A,d,O,d,368,1,383.0999999642372,612741.1000000238,7089,WL,B,3.0
5,4.748000144958496,learn,60000.0,Wed Mar 19 2025 12:05:26 GMT-0500 (Central Daylight Time),613290.6999999881,A,do,O,o,147,1,549.5999999642372,612741.1000000238,7089,WL,B,3.0
5,4.916000127792358,learn,60000.0,Wed Mar 19 2025 12:05:26 GMT-0500 (Central Daylight Time),613458.1000000238,A,doo,O,o,154,1,717.0,612741.1000000238,7089,WL,B,3.0
5,5.065999984741211,learn,60000.0,Wed Mar 19 2025 12:05:26 GMT-0500 (Central Daylight Time),613608.1000000238,A,door,O,r,118,1,867.0,612741.1000000238,7089,WL,B,3.0
5,5.748000144958496,learn,60000.0,Wed Mar 19 2025 12:05:26 GMT-0500 (Central Daylight Time),614290.3000000119,A,doorenter,O,enter,650,1,1549.199999988079,612741.1000000238,7089,WL,B,3.0
5,6.315000057220459,learn,60000.0,Wed Mar 19 2025 12:05:26 GMT-0500 (Central Daylight Time),614857.6000000238,A,a,O,a,548,1,567.1000000238419,614290.5,7089,WL,B,4.0
5,6.447999954223633,learn,60000.0,Wed Mar 19 2025 12:05:26 GMT-0500 (Central Daylight Time),614991.0,A,ar,O,r,106,1,700.5,614290.5,7089,WL,B,4.0
5,6.748000144958496,learn,60000.0,Wed Mar 19 2025 12:05:26 GMT-0500 (Central Daylight Time),615290.9000000358,A,arm,O,m,269,1,1000.4000000357628,614290.5,7089,WL,B,4.0
5,7.314000129699707,learn,60000.0,Wed Mar 19 2025 12:05:26 GMT-0500 (Central Daylight Time),615856.4000000358,A,armenter,O,enter,536,1,1565.9000000357628,614290.5,7089,WL,B,4.0
5,7.581000089645386,learn,60000.0,Wed Mar 19 2025 12:05:26 GMT-0500 (Central Daylight Time),616123.1000000238,A,s,O,s,260,1,266.5,615856.6000000238,7089,WL,B,5.0
5,7.79800009727478,learn,60000.0,Wed Mar 19 2025 12:05:26 GMT-0500 (Central Daylight Time),616340.6000000238,A,st,O,t,200,1,484.0,615856.6000000238,7089,WL,B,5.0
5,7.998000144958496,learn,60000.0,Wed Mar 19 2025 12:05:26 GMT-0500 (Central Daylight Time),616540.6000000238,A,sta,O,a,159,1,684.0,615856.6000000238,7089,WL,B,5.0
5,8.147000074386597,learn,60000.0,Wed Mar 19 2025 12:05:26 GMT-0500 (Central Daylight Time),616689.6999999881,A,star,O,r,119,1,833.0999999642372,615856.6000000238,7089,WL,B,5.0
5,8.614000082015991,learn,60000.0,Wed Mar 19 2025 12:05:26 GMT-0500 (Central Daylight Time),617156.0,A,starenter,O,enter,444,1,1299.3999999761581,615856.6000000238,7089,WL,B,5.0
5,8.880000114440918,learn,60000.0,Wed Mar 19 2025 12:05:26 GMT-0500 (Central Daylight Time),617422.6000000238,A,w,O,w,256,1,266.30000001192093,617156.3000000119,7089,WL,B,6.0
5,9.080000162124634,learn,60000.0,Wed Mar 19 2025 12:05:26 GMT-0500 (Central Daylight Time),617622.4000000358,A,wi,O,i,180,1,466.10000002384186,617156.3000000119,7089,WL,B,6.0
5,9.21500015258789,learn,60000.0,Wed Mar 19 2025 12:05:26 GMT-0500 (Central Daylight Time),617757.1999999881,A,wif,O,f,127,1,600.8999999761581,617156.3000000119,7089,WL,B,6.0
5,9.396000146865845,learn,60000.0,Wed Mar 19 2025 12:05:26 GMT-0500 (Central Daylight Time),617938.8000000119,A,wife,O,e,141,1,782.5,617156.3000000119,7089,WL,B,6.0
5,9.763000011444092,learn,60000.0,Wed Mar 19 2025 12:05:26 GMT-0500 (Central Daylight Time),618305.6000000238,A,wifeenter,O,enter,354,1,1149.300000011921,617156.3000000119,7089,WL,B,6.0
5,9.996999979019165,learn,60000.0,Wed Mar 19 2025 12:05:26 GMT-0500 (Central Daylight Time),618538.9000000358,A,w,O,w,220,1,233.0,618305.9000000358,7089,WL,B,7.0
5,10.197999954223633,learn,60000.0,Wed Mar 19 2025 12:05:26 GMT-0500 (Central Daylight Time),618740.0,A,wi,O,i,178,1,434.0999999642372,618305.9000000358,7089,WL,B,7.0
5,10.414000034332275,learn,60000.0,Wed Mar 19 2025 12:05:26 GMT-0500 (Central Daylight Time),618956.4000000358,A,win,O,n,182,1,650.5,618305.9000000358,7089,WL,B,7.0
5,10.580000162124634,learn,60000.0,Wed Mar 19 2025 12:05:26 GMT-0500 (Central Daylight Time),619122.0,A,wind,O,d,126,1,816.0999999642372,618305.9000000358,7089,WL,B,7.0
5,10.763999938964844,learn,60000.0,Wed Mar 19 2025 12:05:26 GMT-0500 (Central Daylight Time),619306.3000000119,A,windo,O,o,163,1,1000.3999999761581,618305.9000000358,7089,WL,B,7.0
5,10.897000074386597,learn,60000.0,Wed Mar 19 2025 12:05:26 GMT-0500 (Central Daylight Time),619439.8000000119,A,window,O,w,96,1,1133.8999999761581,618305.9000000358,7089,WL,B,7.0
5,11.628999948501587,learn,60000.0,Wed Mar 19 2025 12:05:26 GMT-0500 (Central Daylight Time),620171.8000000119,A,windowenter,O,enter,697,1,1865.8999999761581,618305.9000000358,7089,WL,B,7.0
5,13.295000076293945,learn,60000.0,Wed Mar 19 2025 12:05:26 GMT-0500 (Central Daylight Time),621837.6000000238,A,c,O,c,1657,1,1665.5,620172.1000000238,7089,WL,B,8.0
5,13.728000164031982,learn,60000.0,Wed Mar 19 2025 12:05:26 GMT-0500 (Central Daylight Time),622270.8000000119,A,ca,O,a,423,1,2098.699999988079,620172.1000000238,7089,WL,B,8.0
5,14.212000131607056,learn,60000.0,Wed Mar 19 2025 12:05:26 GMT-0500 (Central Daylight Time),622754.1000000238,A,cab,O,b,462,1,2582.0,620172.1000000238,7089,WL,B,8.0
5,14.496000051498413,learn,60000.0,Wed Mar 19 2025 12:05:26 GMT-0500 (Central Daylight Time),623038.1999999881,A,cabi,O,i,275,1,2866.099999964237,620172.1000000238,7089,WL,B,8.0
5,14.946000099182129,learn,60000.0,Wed Mar 19 2025 12:05:26 GMT-0500 (Central Daylight Time),623488.4000000358,A,cabin,O,n,414,1,3316.300000011921,620172.1000000238,7089,WL,B,8.0
5,15.245000123977661,learn,60000.0,Wed Mar 19 2025 12:05:26 GMT-0500 (Central Daylight Time),623787.1999999881,A,cabinenter,O,enter,271,1,3615.099999964237,620172.1000000238,7089,WL,B,8.0
5,15.729000091552734,learn,60000.0,Wed Mar 19 2025 12:05:26 GMT-0500 (Central Daylight Time),624271.1999999881,A,c,O,c,466,1,483.7999999523163,623787.4000000358,7089,WL,B,9.0
5,15.86300015449524,learn,60000.0,Wed Mar 19 2025 12:05:26 GMT-0500 (Central Daylight Time),624405.1000000238,A,ci,O,i,108,1,617.6999999880791,623787.4000000358,7089,WL,B,9.0
5,16.062999963760376,learn,60000.0,Wed Mar 19 2025 12:05:26 GMT-0500 (Central Daylight Time),624605.1999999881,A,cit,O,t,177,1,817.7999999523163,623787.4000000358,7089,WL,B,9.0
5,16.24500012397766,learn,60000.0,Wed Mar 19 2025 12:05:26 GMT-0500 (Central Daylight Time),624787.5,A,city,O,y,142,1,1000.0999999642372,623787.4000000358,7089,WL,B,9.0
5,16.811000108718872,learn,60000.0,Wed Mar 19 2025 12:05:26 GMT-0500 (Central Daylight Time),625353.3000000119,A,cityenter,O,enter,530,1,1565.8999999761581,623787.4000000358,7089,WL,B,9.0
5,17.67799997329712,learn,60000.0,Wed Mar 19 2025 12:05:26 GMT-0500 (Central Daylight Time),626220.0,A,l,O,l,851,1,866.3999999761581,625353.6000000238,7089,WL,B,10.0
5,17.794000148773193,learn,60000.0,Wed Mar 19 2025 12:05:26 GMT-0500 (Central Daylight Time),626336.1999999881,A,la,O,a,93,1,982.5999999642372,625353.6000000238,7089,WL,B,10.0
5,17.927000045776367,learn,60000.0,Wed Mar 19 2025 12:05:26 GMT-0500 (Central Daylight Time),626469.6999999881,A,lak,O,k,114,1,1116.0999999642372,625353.6000000238,7089,WL,B,10.0
5,18.044000148773193,learn,60000.0,Wed Mar 19 2025 12:05:26 GMT-0500 (Central Daylight Time),626587.0,A,lake,O,e,89,1,1233.3999999761581,625353.6000000238,7089,WL,B,10.0
5,18.444000005722046,learn,60000.0,Wed Mar 19 2025 12:05:26 GMT-0500 (Central Daylight Time),626985.9000000358,A,lakeenter,O,enter,358,1,1632.300000011921,625353.6000000238,7089,WL,B,10.0
5,18.877000093460083,learn,60000.0,Wed Mar 19 2025 12:05:26 GMT-0500 (Central Daylight Time),627419.0,A,p,O,p,427,1,432.89999997615814,626986.1000000238,7089,WL,B,11.0
5,19.3270001411438,learn,60000.0,Wed Mar 19 2025 12:05:26 GMT-0500 (Central Daylight Time),627869.6999999881,A,pi,O,i,442,1,883.5999999642372,626986.1000000238,7089,WL,B,11.0
5,19.55999994277954,learn,60000.0,Wed Mar 19 2025 12:05:26 GMT-0500 (Central Daylight Time),628102.3000000119,A,pip,O,p,196,1,1116.199999988079,626986.1000000238,7089,WL,B,11.0
5,19.944000005722046,learn,60000.0,Wed Mar 19 2025 12:05:26 GMT-0500 (Central Daylight Time),628486.6999999881,A,pipe,O,e,375,1,1500.5999999642372,626986.1000000238,7089,WL,B,11.0
5,20.325999975204468,learn,60000.0,Wed Mar 19 2025 12:05:26 GMT-0500 (Central Daylight Time),628868.8000000119,A,pipeenter,O,enter,357,1,1882.699999988079,626986.1000000238,7089,WL,B,11.0
5,20.80999994277954,learn,60000.0,Wed Mar 19 2025 12:05:26 GMT-0500 (Central Daylight Time),629352.1000000238,A,s,O,s,464,1,483.0,628869.1000000238,7089,WL,B,12.0
5,20.91000008583069,learn,60000.0,Wed Mar 19 2025 12:05:26 GMT-0500 (Central Daylight Time),629452.6000000238,A,sk,O,k,92,1,583.5,628869.1000000238,7089,WL,B,12.0
5,21.110000133514404,learn,60000.0,Wed Mar 19 2025 12:05:26 GMT-0500 (Central Daylight Time),629652.8000000119,A,ski,O,i,170,1,783.6999999880791,628869.1000000238,7089,WL,B,12.0
5,21.292999982833862,learn,60000.0,Wed Mar 19 2025 12:05:26 GMT-0500 (Central Daylight Time),629835.1000000238,A,skin,O,n,156,1,966.0,628869.1000000238,7089,WL,B,12.0
5,21.542999982833862,learn,60000.0,Wed Mar 19 2025 12:05:26 GMT-0500 (Central Daylight Time),630085.1000000238,A,skinenter,O,enter,233,1,1216.0,628869.1000000238,7089,WL,B,12.0
5,21.80900001525879,learn,60000.0,Wed Mar 19 2025 12:05:26 GMT-0500 (Central Daylight Time),630351.8000000119,A,f,O,f,249,1,266.39999997615814,630085.4000000358,7089,WL,B,13.0
5,21.89300012588501,learn,60000.0,Wed Mar 19 2025 12:05:26 GMT-0500 (Central Daylight Time),630435.0,A,fi,O,i,69,1,349.5999999642372,630085.4000000358,7089,WL,B,13.0
5,22.110000133514404,learn,60000.0,Wed Mar 19 2025 12:05:26 GMT-0500 (Central Daylight Time),630652.4000000358,A,fir,O,r,194,1,567.0,630085.4000000358,7089,WL,B,13.0
5,22.174999952316284,learn,60000.0,Wed Mar 19 2025 12:05:26 GMT-0500 (Central Daylight Time),630717.1999999881,A,fire,O,e,30,1,631.7999999523163,630085.4000000358,7089,WL,B,13.0
5,23.64199995994568,learn,60000.0,Wed Mar 19 2025 12:05:26 GMT-0500 (Central Daylight Time),632184.3000000119,A,fireenter,O,enter,1448,1,2098.899999976158,630085.4000000358,7089,WL,B,13.0
5,24.092999935150146,learn,60000.0,Wed Mar 19 2025 12:05:26 GMT-0500 (Central Daylight Time),632635.1999999881,A,p,O,p,437,1,450.69999998807907,632184.5,7089,WL,B,14.0
5,24.308000087738037,learn,60000.0,Wed Mar 19 2025 12:05:26 GMT-0500 (Central Daylight Time),632850.8000000119,A,pu,O,u,184,1,666.3000000119209,632184.5,7089,WL,B,14.0
5,24.4760000705719,learn,60000.0,Wed Mar 19 2025 12:05:26 GMT-0500 (Central Daylight Time),633018.4000000358,A,pup,O,p,155,1,833.9000000357628,632184.5,7089,WL,B,14.0
5,24.89199995994568,learn,60000.0,Wed Mar 19 2025 12:05:26 GMT-0500 (Central Daylight Time),633433.9000000358,A,pupi,O,i,376,1,1249.4000000357628,632184.5,7089,WL,B,14.0
5,25.04200005531311,learn,60000.0,Wed Mar 19 2025 12:05:26 GMT-0500 (Central Daylight Time),633584.9000000358,A,pupil,O,l,131,1,1400.4000000357628,632184.5,7089,WL,B,14.0
5,25.27500009536743,learn,60000.0,Wed Mar 19 2025 12:05:26 GMT-0500 (Central Daylight Time),633817.1000000238,A,pupilenter,O,enter,201,1,1632.6000000238419,632184.5,7089,WL,B,14.0
5,26.04100012779236,learn,60000.0,Wed Mar 19 2025 12:05:26 GMT-0500 (Central Daylight Time),634583.6000000238,A,c,O,c,755,1,766.1999999880791,633817.4000000358,7089,WL,B,15.0
5,26.159000158309937,learn,60000.0,Wed Mar 19 2025 12:05:26 GMT-0500 (Central Daylight Time),634701.1999999881,A,cl,O,l,94,1,883.7999999523163,633817.4000000358,7089,WL,B,15.0
5,26.325000047683716,learn,60000.0,Wed Mar 19 2025 12:05:26 GMT-0500 (Central Daylight Time),634867.9000000358,A,clo,O,o,133,1,1050.5,633817.4000000358,7089,WL,B,15.0
5,26.442000150680542,learn,60000.0,Wed Mar 19 2025 12:05:26 GMT-0500 (Central Daylight Time),634984.4000000358,A,cloc,O,c,87,1,1167.0,633817.4000000358,7089,WL,B,15.0
5,26.54100012779236,learn,60000.0,Wed Mar 19 2025 12:05:26 GMT-0500 (Central Daylight Time),635083.6000000238,A,clock,O,k,72,1,1266.199999988079,633817.4000000358,7089,WL,B,15.0
5,26.79100012779236,learn,60000.0,Wed Mar 19 2025 12:05:26 GMT-0500 (Central Daylight Time),635333.4000000358,A,clockenter,O,enter,230,1,1516.0,633817.4000000358,7089,WL,B,15.0
6,1.4839999675750732,distr,58516.00003242493,Wed Mar 19 2025 12:05:26 GMT-0500 (Central Daylight Time),713109.4000000358,B,s,O,s,1451,1,1482.9000000357628,711626.5,7089,WL,B,1.0
6,1.7330000400543213,distr,58266.99995994568,Wed Mar 19 2025 12:05:26 GMT-0500 (Central Daylight Time),713358.8000000119,B,st,O,t,214,1,1732.300000011921,711626.5,7089,WL,B,1.0
6,1.9159998893737793,distr,58084.00011062622,Wed Mar 19 2025 12:05:26 GMT-0500 (Central Daylight Time),713541.8000000119,B,sto,O,o,156,1,1915.300000011921,711626.5,7089,WL,B,1.0
6,1.998999834060669,distr,58001.00016593933,Wed Mar 19 2025 12:05:26 GMT-0500 (Central Daylight Time),713624.6000000238,B,stor,O,r,51,1,1998.1000000238419,711626.5,7089,WL,B,1.0
6,2.1659998893737793,distr,57834.00011062622,Wed Mar 19 2025 12:05:26 GMT-0500 (Central Daylight Time),713791.9000000358,B,storm,O,m,134,1,2165.400000035763,711626.5,7089,WL,B,1.0
6,2.4149999618530273,distr,57585.00003814697,Wed Mar 19 2025 12:05:26 GMT-0500 (Central Daylight Time),714040.9000000358,B,stormenter,O,enter,213,1,2414.400000035763,711626.5,7089,WL,B,1.0
6,2.748999834060669,distr,57251.00016593933,Wed Mar 19 2025 12:05:26 GMT-0500 (Central Daylight Time),714375.1000000238,B,c,O,c,325,1,334.0,714041.1000000238,7089,WL,B,2.0
6,2.9659998416900635,distr,57034.00015830994,Wed Mar 19 2025 12:05:26 GMT-0500 (Central Daylight Time),714591.9000000358,B,ce,O,e,180,1,550.8000000119209,714041.1000000238,7089,WL,B,2.0
6,3.115999937057495,distr,56884.000062942505,Wed Mar 19 2025 12:05:26 GMT-0500 (Central Daylight Time),714741.5,B,cel,O,l,115,1,700.3999999761581,714041.1000000238,7089,WL,B,2.0
6,3.2990000247955322,distr,56700.99997520447,Wed Mar 19 2025 12:05:26 GMT-0500 (Central Daylight Time),714924.9000000358,B,cell,O,l,150,1,883.8000000119209,714041.1000000238,7089,WL,B,2.0
6,3.881999969482422,distr,56118.00003051758,Wed Mar 19 2025 12:05:26 GMT-0500 (Central Daylight Time),715507.4000000358,B,cellenter,O,enter,558,1,1466.300000011921,714041.1000000238,7089,WL,B,2.0
6,4.148999929428101,distr,55851.0000705719,Wed Mar 19 2025 12:05:26 GMT-0500 (Central Daylight Time),715774.6000000238,B,a,O,a,250,1,266.9000000357628,715507.6999999881,7089,WL,B,3.0
6,4.281999826431274,distr,55718.000173568726,Wed Mar 19 2025 12:05:26 GMT-0500 (Central Daylight Time),715907.9000000358,B,ar,O,r,97,1,400.2000000476837,715507.6999999881,7089,WL,B,3.0
6,4.365000009536743,distr,55634.99999046326,Wed Mar 19 2025 12:05:26 GMT-0500 (Central Daylight Time),715990.1000000238,B,arm,O,m,55,1,482.4000000357628,715507.6999999881,7089,WL,B,3.0
6,4.681999921798706,distr,55318.000078201294,Wed Mar 19 2025 12:05:26 GMT-0500 (Central Daylight Time),716307.9000000358,B,army,O,y,301,1,800.2000000476837,715507.6999999881,7089,WL,B,3.0
6,4.997999906539917,distr,55002.00009346008,Wed Mar 19 2025 12:05:26 GMT-0500 (Central Daylight Time),716623.3000000119,B,armyenter,O,enter,286,1,1115.6000000238419,715507.6999999881,7089,WL,B,3.0
6,5.165999889373779,distr,54834.00011062622,Wed Mar 19 2025 12:05:26 GMT-0500 (Central Daylight Time),716790.9000000358,B,f,O,f,151,1,167.4000000357628,716623.5,7089,WL,B,4.0
6,5.3999998569488525,distr,54600.00014305115,Wed Mar 19 2025 12:05:26 GMT-0500 (Central Daylight Time),717024.4000000358,B,fr,O,r,206,1,400.9000000357628,716623.5,7089,WL,B,4.0
6,5.498999834060669,distr,54501.00016593933,Wed Mar 19 2025 12:05:26 GMT-0500 (Central Daylight Time),717124.0,B,fri,O,i,58,1,500.5,716623.5,7089,WL,B,4.0
6,5.648999929428101,distr,54351.0000705719,Wed Mar 19 2025 12:05:26 GMT-0500 (Central Daylight Time),717274.0,B,frie,O,e,115,1,650.5,716623.5,7089,WL,B,4.0
6,5.73199987411499,distr,54268.00012588501,Wed Mar 19 2025 12:05:26 GMT-0500 (Central Daylight Time),717357.1999999881,B,frien,O,n,57,1,733.6999999880791,716623.5,7089,WL,B,4.0
6,5.915999889373779,distr,54084.00011062622,Wed Mar 19 2025 12:05:26 GMT-0500 (Central Daylight Time),717540.6000000238,B,friend,O,d,142,1,917.1000000238419,716623.5,7089,WL,B,4.0
6,6.082000017166138,distr,53917.99998283386,Wed Mar 19 2025 12:05:26 GMT-0500 (Central Daylight Time),717706.4000000358,B,friendenter,O,enter,126,1,1082.9000000357628,716623.5,7089,WL,B,4.0
6,6.648999929428101,distr,53351.0000705719,Wed Mar 19 2025 12:05:26 GMT-0500 (Central Daylight Time),718273.8000000119,B,p,O,p,548,1,567.1999999880791,717706.6000000238,7089,WL,B,5.0
6,6.799000024795532,distr,53200.99997520447,Wed Mar 19 2025 12:05:26 GMT-0500 (Central Daylight Time),718423.6999999881,B,pa,O,a,113,1,717.0999999642372,717706.6000000238,7089,WL,B,5.0
6,6.914999961853027,distr,53085.00003814697,Wed Mar 19 2025 12:05:26 GMT-0500 (Central Daylight Time),718540.1999999881,B,pal,O,l,92,1,833.5999999642372,717706.6000000238,7089,WL,B,5.0
6,7.065999984741211,distr,52934.00001525879,Wed Mar 19 2025 12:05:26 GMT-0500 (Central Daylight Time),718690.5,B,pala,O,a,122,1,983.8999999761581,717706.6000000238,7089,WL,B,5.0
6,7.48199987411499,distr,52518.00012588501,Wed Mar 19 2025 12:05:26 GMT-0500 (Central Daylight Time),719106.8000000119,B,palac,O,c,377,1,1400.199999988079,717706.6000000238,7089,WL,B,5.0
6,7.698999881744385,distr,52301.000118255615,Wed Mar 19 2025 12:05:26 GMT-0500 (Central Daylight Time),719323.4000000358,B,palace,O,e,184,1,1616.800000011921,717706.6000000238,7089,WL,B,5.0
6,7.898000001907349,distr,52101.99999809265,Wed Mar 19 2025 12:05:26 GMT-0500 (Central Daylight Time),719522.5,B,palaceenter,O,enter,158,1,1815.8999999761581,717706.6000000238,7089,WL,B,5.0
6,8.248999834060669,distr,51751.00016593933,Wed Mar 19 2025 12:05:26 GMT-0500 (Central Daylight Time),719873.4000000358,B,l,O,l,332,1,350.60000002384186,719522.8000000119,7089,WL,B,6.0
6,8.431999921798706,distr,51568.000078201294,Wed Mar 19 2025 12:05:26 GMT-0500 (Central Daylight Time),720056.5,B,li,O,i,144,1,533.6999999880791,719522.8000000119,7089,WL,B,6.0
6,8.547999858856201,distr,51452.0001411438,Wed Mar 19 2025 12:05:26 GMT-0500 (Central Daylight Time),720172.5,B,lip,O,p,81,1,649.6999999880791,719522.8000000119,7089,WL,B,6.0
6,8.980999946594238,distr,51019.00005340576,Wed Mar 19 2025 12:05:26 GMT-0500 (Central Daylight Time),720605.5,B,lipenter,O,enter,397,1,1082.699999988079,719522.8000000119,7089,WL,B,6.0
6,9.247999906539917,distr,50752.00009346008,Wed Mar 19 2025 12:05:26 GMT-0500 (Central Daylight Time),720872.9000000358,B,b,O,b,257,1,267.2000000476837,720605.6999999881,7089,WL,B,7.0
6,9.447999954223633,distr,50552.00004577637,Wed Mar 19 2025 12:05:26 GMT-0500 (Central Daylight Time),721072.9000000358,B,ba,O,a,173,1,467.2000000476837,720605.6999999881,7089,WL,B,7.0
6,9.63100004196167,distr,50368.99995803833,Wed Mar 19 2025 12:05:26 GMT-0500 (Central Daylight Time),721256.3000000119,B,bar,O,r,147,1,650.6000000238419,720605.6999999881,7089,WL,B,7.0
6,10.013999938964844,distr,49986.000061035156,Wed Mar 19 2025 12:05:26 GMT-0500 (Central Daylight Time),721638.4000000358,B,barenter,O,enter,346,1,1032.7000000476837,720605.6999999881,7089,WL,B,7.0
6,11.46399998664856,distr,48536.00001335144,Wed Mar 19 2025 12:05:26 GMT-0500 (Central Daylight Time),723089.0,B,b,O,b,1432,1,1450.300000011921,721638.6999999881,7089,WL,B,8.0
6,11.679999828338623,distr,48320.00017166138,Wed Mar 19 2025 12:05:26 GMT-0500 (Central Daylight Time),723305.3000000119,B,ba,O,a,179,1,1666.6000000238419,721638.6999999881,7089,WL,B,8.0
6,11.746999979019165,distr,48253.000020980835,Wed Mar 19 2025 12:05:26 GMT-0500 (Central Daylight Time),723371.6999999881,B,bab,O,b,33,1,1733.0,721638.6999999881,7089,WL,B,8.0
6,12.013999938964844,distr,47986.000061035156,Wed Mar 19 2025 12:05:26 GMT-0500 (Central Daylight Time),723638.8000000119,B,baby,O,y,251,1,2000.1000000238419,721638.6999999881,7089,WL,B,8.0
6,12.345999956130981,distr,47654.00004386902,Wed Mar 19 2025 12:05:26 GMT-0500 (Central Daylight Time),723970.9000000358,B,babyenter,O,enter,299,1,2332.2000000476837,721638.6999999881,7089,WL,B,8.0
6,12.664000034332275,distr,47335.999965667725,Wed Mar 19 2025 12:05:26 GMT-0500 (Central Daylight Time),724288.6000000238,B,o,O,o,299,1,317.4000000357628,723971.1999999881,7089,WL,B,9.0
6,12.763000011444092,distr,47236.99998855591,Wed Mar 19 2025 12:05:26 GMT-0500 (Central Daylight Time),724388.1999999881,B,oc,O,c,67,1,417.0,723971.1999999881,7089,WL,B,9.0
6,13.013000011444092,distr,46986.99998855591,Wed Mar 19 2025 12:05:26 GMT-0500 (Central Daylight Time),724638.1999999881,B,oce,O,e,228,1,667.0,723971.1999999881,7089,WL,B,9.0
6,13.129999876022339,distr,46870.00012397766,Wed Mar 19 2025 12:05:26 GMT-0500 (Central Daylight Time),724754.9000000358,B,ocea,O,a,85,1,783.7000000476837,723971.1999999881,7089,WL,B,9.0
6,13.329999923706055,distr,46670.000076293945,Wed Mar 19 2025 12:05:26 GMT-0500 (Central Daylight Time),724954.5,B,ocean,O,n,168,1,983.3000000119209,723971.1999999881,7089,WL,B,9.0
6,14.046000003814697,distr,45953.9999961853,Wed Mar 19 2025 12:05:26 GMT-0500 (Central Daylight Time),725670.4000000358,B,oceanenter,O,enter,691,1,1699.2000000476837,723971.1999999881,7089,WL,B,9.0
6,17.42799997329712,distr,42572.00002670288,Wed Mar 19 2025 12:05:26 GMT-0500 (Central Daylight Time),729052.6999999881,B,d,O,d,3376,1,3382.0,725670.6999999881,7089,WL,B,10.0
6,17.994999885559082,distr,42005.00011444092,Wed Mar 19 2025 12:05:26 GMT-0500 (Central Daylight Time),729619.8000000119,B,dr,O,r,541,1,3949.100000023842,725670.6999999881,7089,WL,B,10.0
6,18.294999837875366,distr,41705.000162124634,Wed Mar 19 2025 12:05:26 GMT-0500 (Central Daylight Time),729919.4000000358,B,dre,O,e,272,1,4248.700000047684,725670.6999999881,7089,WL,B,10.0
6,18.57799983024597,distr,41422.00016975403,Wed Mar 19 2025 12:05:26 GMT-0500 (Central Daylight Time),730203.3000000119,B,dres,O,s,261,1,4532.600000023842,725670.6999999881,7089,WL,B,10.0
6,18.711999893188477,distr,41288.00010681152,Wed Mar 19 2025 12:05:26 GMT-0500 (Central Daylight Time),730336.6000000238,B,dress,O,s,108,1,4665.900000035763,725670.6999999881,7089,WL,B,10.0
6,18.960999965667725,distr,41039.000034332275,Wed Mar 19 2025 12:05:26 GMT-0500 (Central Daylight Time),730585.5,B,dressenter,O,enter,209,1,4914.800000011921,725670.6999999881,7089,WL,B,10.0
6,19.144999980926514,distr,40855.000019073486,Wed Mar 19 2025 12:05:26 GMT-0500 (Central Daylight Time),730769.8000000119,B,s,O,s,173,1,184.10000002384186,730585.6999999881,7089,WL,B,11.0
6,19.310999870300293,distr,40689.00012969971,Wed Mar 19 2025 12:05:26 GMT-0500 (Central Daylight Time),730936.3000000119,B,st,O,t,138,1,350.60000002384186,730585.6999999881,7089,WL,B,11.0
6,19.544999837875366,distr,40455.000162124634,Wed Mar 19 2025 12:05:26 GMT-0500 (Central Daylight Time),731169.6000000238,B,str,O,r,194,1,583.9000000357628,730585.6999999881,7089,WL,B,11.0
6,19.626999855041504,distr,40373.000144958496,Wed Mar 19 2025 12:05:26 GMT-0500 (Central Daylight Time),731252.1999999881,B,stre,O,e,57,1,666.5,730585.6999999881,7089,WL,B,11.0
6,19.727999925613403,distr,40272.0000743866,Wed Mar 19 2025 12:05:26 GMT-0500 (Central Daylight Time),731352.8000000119,B,strea,O,a,84,1,767.1000000238419,730585.6999999881,7089,WL,B,11.0
6,20.17799997329712,distr,39822.00002670288,Wed Mar 19 2025 12:05:26 GMT-0500 (Central Daylight Time),731802.6999999881,B,stre,O,backspace,420,1,1217.0,730585.6999999881,7089,WL,B,11.0
6,20.360999822616577,distr,39639.00017738342,Wed Mar 19 2025 12:05:26 GMT-0500 (Central Daylight Time),731985.9000000358,B,str,O,backspace,153,1,1400.2000000476837,730585.6999999881,7089,WL,B,11.0
6,20.527999877929688,distr,39472.00012207031,Wed Mar 19 2025 12:05:26 GMT-0500 (Central Daylight Time),732152.5,B,st,O,backspace,135,1,1566.800000011921,730585.6999999881,7089,WL,B,11.0
6,20.67799997329712,distr,39322.00002670288,Wed Mar 19 2025 12:05:26 GMT-0500 (Central Daylight Time),732302.6000000238,B,ste,O,e,118,1,1716.9000000357628,730585.6999999881,7089,WL,B,11.0
6,20.960999965667725,distr,39039.000034332275,Wed Mar 19 2025 12:05:26 GMT-0500 (Central Daylight Time),732586.0,B,stea,O,a,245,1,2000.300000011921,730585.6999999881,7089,WL,B,11.0
6,21.110999822616577,distr,38889.00017738342,Wed Mar 19 2025 12:05:26 GMT-0500 (Central Daylight Time),732735.5,B,steam,O,m,120,1,2149.800000011921,730585.6999999881,7089,WL,B,11.0
6,21.444000005722046,distr,38555.999994277954,Wed Mar 19 2025 12:05:26 GMT-0500 (Central Daylight Time),733069.1000000238,B,steamenter,O,enter,298,1,2483.400000035763,730585.6999999881,7089,WL,B,11.0
6,23.942999839782715,distr,36057.000160217285,Wed Mar 19 2025 12:05:26 GMT-0500 (Central Daylight Time),735568.1999999881,B,v,O,v,2481,1,2498.7999999523163,733069.4000000358,7089,WL,B,12.0
6,24.192999839782715,distr,35807.000160217285,Wed Mar 19 2025 12:05:26 GMT-0500 (Central Daylight Time),735817.9000000358,B,vi,O,i,219,1,2748.5,733069.4000000358,7089,WL,B,12.0
6,24.47699999809265,distr,35523.00000190735,Wed Mar 19 2025 12:05:26 GMT-0500 (Central Daylight Time),736101.4000000358,B,vil,O,l,250,1,3032.0,733069.4000000358,7089,WL,B,12.0
6,24.64299988746643,distr,35357.00011253357,Wed Mar 19 2025 12:05:26 GMT-0500 (Central Daylight Time),736268.0,B,vill,O,l,125,1,3198.599999964237,733069.4000000358,7089,WL,B,12.0
6,24.70899987220764,distr,35291.00012779236,Wed Mar 19 2025 12:05:26 GMT-0500 (Central Daylight Time),736333.9000000358,B,villa,O,a,37,1,3264.5,733069.4000000358,7089,WL,B,12.0
6,24.859999895095825,distr,35140.000104904175,Wed Mar 19 2025 12:05:26 GMT-0500 (Central Daylight Time),736484.5,B,villag,O,g,124,1,3415.099999964237,733069.4000000358,7089,WL,B,12.0
6,25.026000022888184,distr,34973.99997711182,Wed Mar 19 2025 12:05:26 GMT-0500 (Central Daylight Time),736651.1000000238,B,village,O,e,135,1,3581.699999988079,733069.4000000358,7089,WL,B,12.0
6,25.158999919891357,distr,34841.00008010864,Wed Mar 19 2025 12:05:26 GMT-0500 (Central Daylight Time),736783.5,B,villageenter,O,enter,105,1,3714.099999964237,733069.4000000358,7089,WL,B,12.0
6,29.924999952316284,distr,30075.000047683716,Wed Mar 19 2025 12:05:26 GMT-0500 (Central Daylight Time),741549.4000000358,B,s,O,s,4751,1,4765.700000047684,736783.6999999881,7089,WL,B,13.0
6,30.29099988937378,distr,29709.00011062622,Wed Mar 19 2025 12:05:26 GMT-0500 (Central Daylight Time),741916.3000000119,B,st,O,t,325,1,5132.600000023842,736783.6999999881,7089,WL,B,13.0
6,30.5239999294281,distr,29476.0000705719,Wed Mar 19 2025 12:05:26 GMT-0500 (Central Daylight Time),742149.3000000119,B,sto,O,o,201,1,5365.600000023842,736783.6999999881,7089,WL,B,13.0
6,30.641000032424927,distr,29358.999967575073,Wed Mar 19 2025 12:05:26 GMT-0500 (Central Daylight Time),742265.6999999881,B,stor,O,r,85,1,5482.0,736783.6999999881,7089,WL,B,13.0
6,30.79099988937378,distr,29209.00011062622,Wed Mar 19 2025 12:05:26 GMT-0500 (Central Daylight Time),742415.8000000119,B,storm,O,m,126,1,5632.100000023842,736783.6999999881,7089,WL,B,13.0
6,30.990000009536743,distr,29009.999990463257,Wed Mar 19 2025 12:05:26 GMT-0500 (Central Daylight Time),742614.9000000358,B,stormenter,O,enter,162,1,5831.200000047684,736783.6999999881,7089,WL,B,13.0
6,60.014999866485596,distr,-14.999866485595703,Wed Mar 19 2025 12:05:26 GMT-0500 (Central Daylight Time),771639.9000000358,B,None,O,None,29018,1,29024.700000047684,742615.1999999881,7089,WL,B,14.0
7,0.5,immed,59500.0,Wed Mar 19 2025 12:05:26 GMT-0500 (Central Daylight Time),781719.6999999881,A,s,O,s,474,1,499.19999998807907,781220.5,7089,WL,B,1.0
7,0.8659999370574951,immed,59134.000062942505,Wed Mar 19 2025 12:05:26 GMT-0500 (Central Daylight Time),782086.3000000119,A,st,O,t,333,1,865.8000000119209,781220.5,7089,WL,B,1.0
7,1.1329998970031738,immed,58867.000102996826,Wed Mar 19 2025 12:05:26 GMT-0500 (Central Daylight Time),782352.9000000358,A,str,O,r,238,1,1132.4000000357628,781220.5,7089,WL,B,1.0
7,1.3989999294281006,immed,58601.0000705719,Wed Mar 19 2025 12:05:26 GMT-0500 (Central Daylight Time),782619.6000000238,A,stre,O,e,226,1,1399.1000000238419,781220.5,7089,WL,B,1.0
7,1.5490000247955322,immed,58450.99997520447,Wed Mar 19 2025 12:05:26 GMT-0500 (Central Daylight Time),782769.4000000358,A,stree,O,e,112,1,1548.9000000357628,781220.5,7089,WL,B,1.0
7,1.6989998817443848,immed,58301.000118255615,Wed Mar 19 2025 12:05:26 GMT-0500 (Central Daylight Time),782919.1000000238,A,street,O,t,122,1,1698.6000000238419,781220.5,7089,WL,B,1.0
7,1.931999921798706,immed,58068.000078201294,Wed Mar 19 2025 12:05:26 GMT-0500 (Central Daylight Time),783151.5,A,streetenter,O,enter,203,1,1931.0,781220.5,7089,WL,B,1.0
7,2.2160000801086426,immed,57783.99991989136,Wed Mar 19 2025 12:05:26 GMT-0500 (Central Daylight Time),783435.8000000119,A,g,O,g,261,1,284.0,783151.8000000119,7089,WL,B,2.0
7,2.4489998817443848,immed,57551.000118255615,Wed Mar 19 2025 12:05:26 GMT-0500 (Central Daylight Time),783669.1000000238,A,gr,O,r,199,1,517.3000000119209,783151.8000000119,7089,WL,B,2.0
7,2.565999984741211,immed,57434.00001525879,Wed Mar 19 2025 12:05:26 GMT-0500 (Central Daylight Time),783785.6999999881,A,gra,O,a,87,1,633.8999999761581,783151.8000000119,7089,WL,B,2.0
7,2.881999969482422,immed,57118.00003051758,Wed Mar 19 2025 12:05:26 GMT-0500 (Central Daylight Time),784102.1999999881,A,gras,O,s,282,1,950.3999999761581,783151.8000000119,7089,WL,B,2.0
7,3.0490000247955322,immed,56950.99997520447,Wed Mar 19 2025 12:05:26 GMT-0500 (Central Daylight Time),784269.5,A,grass,O,s,144,1,1117.699999988079,783151.8000000119,7089,WL,B,2.0
7,4.246999979019165,immed,55753.000020980835,Wed Mar 19 2025 12:05:26 GMT-0500 (Central Daylight Time),785467.5,A,grassenter,O,enter,1172,1,2315.699999988079,783151.8000000119,7089,WL,B,2.0
7,4.582000017166138,immed,55417.99998283386,Wed Mar 19 2025 12:05:26 GMT-0500 (Central Daylight Time),785801.8000000119,A,a,O,a,315,1,334.0,785467.8000000119,7089,WL,B,3.0
7,4.697999954223633,immed,55302.00004577637,Wed Mar 19 2025 12:05:26 GMT-0500 (Central Daylight Time),785918.1999999881,A,ar,O,r,91,1,450.39999997615814,785467.8000000119,7089,WL,B,3.0
7,5.082000017166138,immed,54917.99998283386,Wed Mar 19 2025 12:05:26 GMT-0500 (Central Daylight Time),786301.6000000238,A,arm,O,m,350,1,833.8000000119209,785467.8000000119,7089,WL,B,3.0
7,6.697000026702881,immed,53302.99997329712,Wed Mar 19 2025 12:05:26 GMT-0500 (Central Daylight Time),787916.6999999881,A,armenter,O,enter,1589,1,2448.899999976158,785467.8000000119,7089,WL,B,3.0
7,7.13100004196167,immed,52868.99995803833,Wed Mar 19 2025 12:05:26 GMT-0500 (Central Daylight Time),788350.6000000238,A,d,O,d,425,1,433.69999998807907,787916.9000000358,7089,WL,B,4.0
7,7.313999891281128,immed,52686.00010871887,Wed Mar 19 2025 12:05:26 GMT-0500 (Central Daylight Time),788533.6999999881,A,do,O,o,156,1,616.7999999523163,787916.9000000358,7089,WL,B,4.0
7,7.496999979019165,immed,52503.000020980835,Wed Mar 19 2025 12:05:26 GMT-0500 (Central Daylight Time),788717.5,A,doo,O,o,151,1,800.5999999642372,787916.9000000358,7089,WL,B,4.0
7,7.629999876022339,immed,52370.00012397766,Wed Mar 19 2025 12:05:26 GMT-0500 (Central Daylight Time),788850.5,A,door,O,r,95,1,933.5999999642372,787916.9000000358,7089,WL,B,4.0
7,7.946000099182129,immed,52053.99990081787,Wed Mar 19 2025 12:05:26 GMT-0500 (Central Daylight Time),789166.3000000119,A,doorenter,O,enter,283,1,1249.3999999761581,787916.9000000358,7089,WL,B,4.0
7,8.829999923706055,immed,51170.000076293945,Wed Mar 19 2025 12:05:26 GMT-0500 (Central Daylight Time),790050.4000000358,A,s,O,s,871,1,883.9000000357628,789166.5,7089,WL,B,5.0
7,9.062999963760376,immed,50937.000036239624,Wed Mar 19 2025 12:05:26 GMT-0500 (Central Daylight Time),790283.5,A,st,O,t,201,1,1117.0,789166.5,7089,WL,B,5.0
7,9.180000066757202,immed,50819.9999332428,Wed Mar 19 2025 12:05:26 GMT-0500 (Central Daylight Time),790399.6000000238,A,sta,O,a,78,1,1233.1000000238419,789166.5,7089,WL,B,5.0
7,9.346999883651733,immed,50653.00011634827,Wed Mar 19 2025 12:05:26 GMT-0500 (Central Daylight Time),790567.0,A,star,O,r,143,1,1400.5,789166.5,7089,WL,B,5.0
7,10.029000043869019,immed,49970.99995613098,Wed Mar 19 2025 12:05:26 GMT-0500 (Central Daylight Time),791248.9000000358,A,starenter,O,enter,654,1,2082.400000035763,789166.5,7089,WL,B,5.0
7,10.312999963760376,immed,49687.000036239624,Wed Mar 19 2025 12:05:26 GMT-0500 (Central Daylight Time),791533.1000000238,A,w,O,w,277,1,283.9000000357628,791249.1999999881,7089,WL,B,6.0
7,10.480000019073486,immed,49519.999980926514,Wed Mar 19 2025 12:05:26 GMT-0500 (Central Daylight Time),791699.8000000119,A,wi,O,i,128,1,450.60000002384186,791249.1999999881,7089,WL,B,6.0
7,10.578999996185303,immed,49421.0000038147,Wed Mar 19 2025 12:05:26 GMT-0500 (Central Daylight Time),791799.4000000358,A,wif,O,f,71,1,550.2000000476837,791249.1999999881,7089,WL,B,6.0
7,10.746000051498413,immed,49253.99994850159,Wed Mar 19 2025 12:05:26 GMT-0500 (Central Daylight Time),791966.0,A,wife,O,e,136,1,716.8000000119209,791249.1999999881,7089,WL,B,6.0
7,11.277999877929688,immed,48722.00012207031,Wed Mar 19 2025 12:05:26 GMT-0500 (Central Daylight Time),792498.5,A,wifeenter,O,enter,493,1,1249.300000011921,791249.1999999881,7089,WL,B,6.0
7,11.76200008392334,immed,48237.99991607666,Wed Mar 19 2025 12:05:26 GMT-0500 (Central Daylight Time),792982.4000000358,A,w,O,w,476,1,483.7000000476837,792498.6999999881,7089,WL,B,7.0
7,11.912999868392944,immed,48087.000131607056,Wed Mar 19 2025 12:05:26 GMT-0500 (Central Daylight Time),793132.9000000358,A,wi,O,i,110,1,634.2000000476837,792498.6999999881,7089,WL,B,7.0
7,12.128999948501587,immed,47871.00005149841,Wed Mar 19 2025 12:05:26 GMT-0500 (Central Daylight Time),793349.6000000238,A,win,O,n,190,1,850.9000000357628,792498.6999999881,7089,WL,B,7.0
7,12.26200008392334,immed,47737.99991607666,Wed Mar 19 2025 12:05:26 GMT-0500 (Central Daylight Time),793482.4000000358,A,wind,O,d,102,1,983.7000000476837,792498.6999999881,7089,WL,B,7.0
7,12.411999940872192,immed,47588.00005912781,Wed Mar 19 2025 12:05:26 GMT-0500 (Central Daylight Time),793632.5,A,windo,O,o,112,1,1133.800000011921,792498.6999999881,7089,WL,B,7.0
7,12.510999917984009,immed,47489.00008201599,Wed Mar 19 2025 12:05:26 GMT-0500 (Central Daylight Time),793731.5,A,window,O,w,65,1,1232.800000011921,792498.6999999881,7089,WL,B,7.0
7,12.82800006866455,immed,47171.99993133545,Wed Mar 19 2025 12:05:26 GMT-0500 (Central Daylight Time),794048.0,A,windowenter,O,enter,301,1,1549.300000011921,792498.6999999881,7089,WL,B,7.0
7,13.128999948501587,immed,46871.00005149841,Wed Mar 19 2025 12:05:26 GMT-0500 (Central Daylight Time),794348.9000000358,A,c,O,c,286,1,300.5,794048.4000000358,7089,WL,B,8.0
7,13.210999965667725,immed,46789.000034332275,Wed Mar 19 2025 12:05:26 GMT-0500 (Central Daylight Time),794431.3000000119,A,ci,O,i,48,1,382.89999997615814,794048.4000000358,7089,WL,B,8.0
7,13.428999900817871,immed,46571.00009918213,Wed Mar 19 2025 12:05:26 GMT-0500 (Central Daylight Time),794648.8000000119,A,cit,O,t,198,1,600.3999999761581,794048.4000000358,7089,WL,B,8.0
7,13.578999996185303,immed,46421.0000038147,Wed Mar 19 2025 12:05:26 GMT-0500 (Central Daylight Time),794798.8000000119,A,city,O,y,115,1,750.3999999761581,794048.4000000358,7089,WL,B,8.0
7,14.32800006866455,immed,45671.99993133545,Wed Mar 19 2025 12:05:26 GMT-0500 (Central Daylight Time),795547.6000000238,A,cityenter,O,enter,718,1,1499.199999988079,794048.4000000358,7089,WL,B,8.0
7,15.062000036239624,immed,44937.999963760376,Wed Mar 19 2025 12:05:26 GMT-0500 (Central Daylight Time),796281.6000000238,A,c,O,c,714,1,733.8000000119209,795547.8000000119,7089,WL,B,9.0
7,15.244999885559082,immed,44755.00011444092,Wed Mar 19 2025 12:05:26 GMT-0500 (Central Daylight Time),796464.6999999881,A,ca,O,a,146,1,916.8999999761581,795547.8000000119,7089,WL,B,9.0
7,15.494999885559082,immed,44505.00011444092,Wed Mar 19 2025 12:05:26 GMT-0500 (Central Daylight Time),796714.8000000119,A,cab,O,b,218,1,1167.0,795547.8000000119,7089,WL,B,9.0
7,15.727999925613403,immed,44272.0000743866,Wed Mar 19 2025 12:05:26 GMT-0500 (Central Daylight Time),796948.0,A,cabi,O,i,202,1,1400.199999988079,795547.8000000119,7089,WL,B,9.0
7,15.960999965667725,immed,44039.000034332275,Wed Mar 19 2025 12:05:26 GMT-0500 (Central Daylight Time),797181.5,A,cabin,O,n,206,1,1633.699999988079,795547.8000000119,7089,WL,B,9.0
