Q,Q1,Q2,Q3,Q4,acc_sum,block,block_c,correct,correct_response,datetime,endtime,project,response,response_time,row_sel,session_number,squiggle1,squiggle1x,squiggle1y,squiggle2,squiggle2x,squiggle2y,squiggle3,squiggle3x,squiggle3y,squiggle4,squiggle4x,squiggle4y,start_end,starttime,subject_id,target_congruent,task,task_vers,testsquiggle,testsquigglex,testsquiggley,time_practice_delay,time_practice_fixation,time_practice_stimuli,time_practice_study,time_test_delay,time_test_fixation,time_test_stimuli,time_test_study,trial
1,1,0,0,0,0,prac,1,0,z,Thu Feb 20 2025 14:46:00 GMT-0600 (Central Standard Time),147992.29999995232,O,m,1651,1,1,66.bmp,-120,-120,67.bmp,120,-120,68.bmp,-120,120,69.bmp,120,120,10481.599999964237,137510.69999998808,7067,yes,SM,C,66.bmp,-120,-120,136308,130276,138325,132294,,,,,1
3,0,0,1,0,0,prac,1,0,m,Thu Feb 20 2025 14:46:00 GMT-0600 (Central Standard Time),158622.39999997616,O,z,1786,2,1,70.bmp,-120,-120,71.bmp,120,-120,72.bmp,-120,120,73.bmp,120,120,10610.5,148011.89999997616,7067,no,SM,C,73.bmp,-120,120,146804,140777,148821,142790,,,,,2
4,0,0,0,1,1,prac,1,1,m,Thu Feb 20 2025 14:46:00 GMT-0600 (Central Standard Time),169135.39999997616,O,m,1676,3,1,74.bmp,-120,-120,75.bmp,120,-120,76.bmp,-120,120,77.bmp,120,120,10496.399999976158,158639.0,7067,no,SM,C,74.bmp,120,120,157434,151404,159451,153420,,,,,3
2,0,1,0,0,1,prac,1,0,z,Thu Feb 20 2025 14:46:00 GMT-0600 (Central Standard Time),179931.69999998808,O,m,1964,4,1,78.bmp,-120,-120,79.bmp,120,-120,80.bmp,-120,120,81.bmp,120,120,10780.300000011921,169151.39999997616,7067,yes,SM,C,79.bmp,120,-120,167946,161916,169964,163933,,,,,4
3,0,0,1,0,2,prac,1,1,z,Thu Feb 20 2025 14:46:00 GMT-0600 (Central Standard Time),190161.09999996424,O,z,1382,5,1,82.bmp,-120,-120,83.bmp,120,-120,84.bmp,-120,120,85.bmp,120,120,10213.0,179948.09999996424,7067,yes,SM,C,84.bmp,-120,120,178744,172713,180762,174730,,,,,5
1,1,0,0,0,3,prac,1,1,m,Thu Feb 20 2025 14:46:00 GMT-0600 (Central Standard Time),200441.59999996424,O,m,1450,6,1,86.bmp,-120,-120,87.bmp,120,-120,88.bmp,-120,120,89.bmp,120,120,10272.599999964237,190169.0,7067,no,SM,C,89.bmp,-120,-120,188957,182933,190974,184943,,,,,6
2,0,1,0,0,3,prac,1,0,m,Thu Feb 20 2025 14:46:00 GMT-0600 (Central Standard Time),211287.59999996424,O,None,2014,7,1,90.bmp,-120,-120,91.bmp,120,-120,92.bmp,-120,120,93.bmp,120,120,10831.300000011921,200456.29999995232,7067,no,SM,C,90.bmp,120,-120,199253,193222,201271,195240,,,,,7
4,0,0,0,1,3,prac,1,0,z,Thu Feb 20 2025 14:46:00 GMT-0600 (Central Standard Time),221501.19999998808,O,m,1387,8,1,94.bmp,-120,-120,95.bmp,120,-120,96.bmp,-120,120,97.bmp,120,120,10199.600000023842,211301.59999996424,7067,yes,SM,C,97.bmp,120,120,210083,204066,212101,206068,,,,,8
1,1,0,0,0,0,prac,2,0,z,Thu Feb 20 2025 14:46:00 GMT-0600 (Central Standard Time),257805.79999995232,O,None,2015,1,1,66.bmp,-120,-120,67.bmp,120,-120,68.bmp,-120,120,69.bmp,120,120,10831.599999964237,246974.19999998808,7067,yes,SM,C,66.bmp,-120,-120,245772,239740,247789,241756,,,,,1
3,0,0,1,0,1,prac,2,1,m,Thu Feb 20 2025 14:46:00 GMT-0600 (Central Standard Time),267802.7999999523,O,m,1182,2,1,70.bmp,-120,-120,71.bmp,120,-120,72.bmp,-120,120,73.bmp,120,120,9982.5,257820.29999995232,7067,no,SM,C,73.bmp,-120,120,256602,250585,258619,252587,,,,,2
4,0,0,0,1,1,prac,2,0,m,Thu Feb 20 2025 14:46:00 GMT-0600 (Central Standard Time),278116.2999999523,O,z,1471,3,1,74.bmp,-120,-120,75.bmp,120,-120,76.bmp,-120,120,77.bmp,120,120,10299.399999976158,267816.89999997616,7067,no,SM,C,74.bmp,120,120,266615,260582,268632,262601,,,,,3
2,0,1,0,0,1,prac,2,0,z,Thu Feb 20 2025 14:46:00 GMT-0600 (Central Standard Time),288962.1999999881,O,None,2014,4,1,78.bmp,-120,-120,79.bmp,120,-120,80.bmp,-120,120,81.bmp,120,120,10829.100000023842,278133.09999996424,7067,yes,SM,C,79.bmp,120,-120,276929,270898,278946,272914,,,,,4
3,0,0,1,0,2,prac,2,1,z,Thu Feb 20 2025 14:46:00 GMT-0600 (Central Standard Time),298909.1999999881,O,z,1128,5,1,82.bmp,-120,-120,83.bmp,120,-120,84.bmp,-120,120,85.bmp,120,120,9933.199999988079,288976.0,7067,yes,SM,C,84.bmp,-120,120,287758,281741,289776,283744,,,,,5
1,1,0,0,0,3,prac,2,1,m,Thu Feb 20 2025 14:46:00 GMT-0600 (Central Standard Time),309005.89999997616,O,m,1279,6,1,86.bmp,-120,-120,87.bmp,120,-120,88.bmp,-120,120,89.bmp,120,120,10083.300000011921,298922.59999996424,7067,no,SM,C,89.bmp,-120,-120,297704,291688,299722,293691,,,,,6
2,0,1,0,0,3,prac,2,0,m,Thu Feb 20 2025 14:46:00 GMT-0600 (Central Standard Time),319319.5,O,z,1494,7,1,90.bmp,-120,-120,91.bmp,120,-120,92.bmp,-120,120,93.bmp,120,120,10300.0,309019.5,7067,no,SM,C,90.bmp,120,-120,307801,301784,309819,303787,,,,,7
4,0,0,0,1,3,prac,2,0,z,Thu Feb 20 2025 14:46:00 GMT-0600 (Central Standard Time),329765.59999996424,O,m,1610,8,1,94.bmp,-120,-120,95.bmp,120,-120,96.bmp,-120,120,97.bmp,120,120,10431.800000011921,319333.7999999523,7067,yes,SM,C,97.bmp,120,120,318131,312099,320149,314116,,,,,8
4,0,0,0,1,0,test,1,0,m,Thu Feb 20 2025 14:46:00 GMT-0600 (Central Standard Time),371035.1999999881,O,None,2015,1,1,98.bmp,-120,-120,99.bmp,120,-120,100.bmp,-120,120,93.bmp,120,120,10049.0,360986.1999999881,7067,yes,SM,C,100.bmp,120,120,318131,312099,320149,314116,359768.0,353751.0,361784.0,355753.0,1
2,0,1,0,0,1,test,1,1,m,Thu Feb 20 2025 14:46:00 GMT-0600 (Central Standard Time),380698.7999999523,O,m,1607,2,1,51.bmp,-120,-120,52.bmp,120,-120,53.bmp,-120,120,54.bmp,120,120,9653.599999964237,371045.1999999881,7067,yes,SM,C,53.bmp,120,-120,318131,312099,320149,314116,369831.0,363810.0,371849.0,365817.0,2
1,1,0,0,0,2,test,1,1,z,Thu Feb 20 2025 14:46:00 GMT-0600 (Central Standard Time),390529.09999996424,O,z,1776,3,1,55.bmp,-120,-120,56.bmp,120,-120,57.bmp,-120,120,58.bmp,120,120,9821.899999976158,380707.1999999881,7067,yes,SM,C,55.bmp,-120,-120,318131,312099,320149,314116,379495.0,373472.0,381512.0,375480.0,3
3,0,0,1,0,3,test,1,1,m,Thu Feb 20 2025 14:46:00 GMT-0600 (Central Standard Time),399925.6999999881,O,m,1347,4,1,59.bmp,-120,-120,60.bmp,120,-120,61.bmp,-120,120,62.bmp,120,120,9382.800000011921,390542.89999997616,7067,yes,SM,C,59.bmp,-120,120,318131,312099,320149,314116,389325.0,383308.0,391342.0,385310.0,4
2,0,1,0,0,3,test,1,0,z,Thu Feb 20 2025 14:46:00 GMT-0600 (Central Standard Time),409989.2999999523,O,None,2014,5,1,63.bmp,-120,-120,64.bmp,120,-120,65.bmp,-120,120,66.bmp,120,120,10048.799999952316,399940.5,7067,yes,SM,C,64.bmp,120,-120,318131,312099,320149,314116,398722.0,392705.0,400739.0,394708.0,5
3,0,0,1,0,3,test,1,0,z,Thu Feb 20 2025 14:46:00 GMT-0600 (Central Standard Time),419469.89999997616,O,m,1406,6,1,67.bmp,-120,-120,68.bmp,120,-120,69.bmp,-120,120,70.bmp,120,120,9465.399999976158,410004.5,7067,yes,SM,C,69.bmp,-120,120,318131,312099,320149,314116,408802.0,402769.0,410819.0,404788.0,6
4,0,0,0,1,3,test,1,0,z,Thu Feb 20 2025 14:46:00 GMT-0600 (Central Standard Time),429550.1999999881,O,None,2015,7,1,71.bmp,-120,-120,72.bmp,120,-120,73.bmp,-120,120,74.bmp,120,120,10052.900000035763,419497.2999999523,7067,yes,SM,C,74.bmp,120,120,318131,312099,320149,314116,418282.0,412262.0,420299.0,414268.0,7
2,0,1,0,0,4,test,1,1,m,Thu Feb 20 2025 14:46:00 GMT-0600 (Central Standard Time),438896.5,O,m,1269,8,1,75.bmp,-120,-120,76.bmp,120,-120,77.bmp,-120,120,78.bmp,120,120,9332.0,429564.5,7067,yes,SM,C,75.bmp,120,-120,318131,312099,320149,314116,428362.0,422330.0,430379.0,424348.0,8
3,0,0,1,0,5,test,1,1,m,Thu Feb 20 2025 14:46:00 GMT-0600 (Central Standard Time),448243.5,O,m,1291,9,1,79.bmp,-120,-120,80.bmp,120,-120,81.bmp,-120,120,82.bmp,120,120,9333.5,438910.0,7067,yes,SM,C,80.bmp,-120,120,318131,312099,320149,314116,437692.0,431675.0,439709.0,433678.0,9
4,0,0,0,1,6,test,1,1,z,Thu Feb 20 2025 14:46:00 GMT-0600 (Central Standard Time),458189.89999997616,O,z,1898,10,1,87.bmp,-120,-120,88.bmp,120,-120,89.bmp,-120,120,90.bmp,120,120,9933.300000011921,448256.59999996424,7067,yes,SM,C,90.bmp,120,120,318131,312099,320149,314116,447039.0,441022.0,449055.0,443025.0,10
3,0,0,1,0,7,test,1,1,z,Thu Feb 20 2025 14:46:00 GMT-0600 (Central Standard Time),467687.1999999881,O,z,1446,11,1,83.bmp,-120,-120,84.bmp,120,-120,85.bmp,-120,120,86.bmp,120,120,9482.600000023842,458204.59999996424,7067,yes,SM,C,85.bmp,-120,120,318131,312099,320149,314116,456986.0,450969.0,459003.0,452972.0,11
2,0,1,0,0,8,test,1,1,m,Thu Feb 20 2025 14:46:00 GMT-0600 (Central Standard Time),477234.39999997616,O,m,1484,12,1,91.bmp,-120,-120,92.bmp,120,-120,93.bmp,-120,120,94.bmp,120,120,9533.899999976158,467700.5,7067,yes,SM,C,91.bmp,120,-120,318131,312099,320149,314116,466483.0,460465.0,468500.0,462468.0,12
3,0,0,1,0,9,test,1,1,m,Thu Feb 20 2025 14:46:00 GMT-0600 (Central Standard Time),486664.2999999523,O,m,1370,13,1,95.bmp,-120,-120,96.bmp,120,-120,97.bmp,-120,120,98.bmp,120,120,9416.0,477248.2999999523,7067,yes,SM,C,96.bmp,-120,120,318131,312099,320149,314116,476030.0,470013.0,478047.0,472016.0,13
1,1,0,0,0,10,test,1,1,z,Thu Feb 20 2025 14:46:00 GMT-0600 (Central Standard Time),496694.39999997616,O,z,1972,14,1,99.bmp,-120,-120,100.bmp,120,-120,54.bmp,-120,120,51.bmp,120,120,10017.300000011921,486677.09999996424,7067,yes,SM,C,99.bmp,-120,-120,318131,312099,320149,314116,485460.0,479442.0,487477.0,481446.0,14
4,0,0,0,1,11,test,1,1,m,Thu Feb 20 2025 14:46:00 GMT-0600 (Central Standard Time),506624.6999999881,O,m,1869,15,1,60.bmp,-120,-120,61.bmp,120,-120,62.bmp,-120,120,63.bmp,120,120,9916.300000011921,496708.39999997616,7067,yes,SM,C,61.bmp,120,120,318131,312099,320149,314116,495490.0,489473.0,497508.0,491476.0,15
1,1,0,0,0,11,test,1,0,m,Thu Feb 20 2025 14:46:00 GMT-0600 (Central Standard Time),516538.2999999523,O,z,1836,16,1,52.bmp,-120,-120,53.bmp,120,-120,54.bmp,-120,120,55.bmp,120,120,9898.899999976158,506639.39999997616,7067,yes,SM,C,55.bmp,-120,-120,318131,312099,320149,314116,505437.0,499404.0,507453.0,501422.0,16
3,0,0,1,0,12,test,1,1,m,Thu Feb 20 2025 14:46:00 GMT-0600 (Central Standard Time),525884.6999999881,O,m,1290,17,1,72.bmp,-120,-120,73.bmp,120,-120,74.bmp,-120,120,75.bmp,120,120,9332.600000023842,516552.09999996424,7067,yes,SM,C,72.bmp,-120,120,318131,312099,320149,314116,515334.0,509317.0,517351.0,511319.0,17
1,1,0,0,0,12,test,1,0,z,Thu Feb 20 2025 14:46:00 GMT-0600 (Central Standard Time),535948.1999999881,O,None,2015,18,1,56.bmp,-120,-120,57.bmp,120,-120,58.bmp,-120,120,59.bmp,120,120,10049.699999988079,525898.5,7067,yes,SM,C,56.bmp,-120,-120,318131,312099,320149,314116,524680.0,518663.0,526697.0,520666.0,18
2,0,1,0,0,13,test,1,1,z,Thu Feb 20 2025 14:46:00 GMT-0600 (Central Standard Time),545461.5,O,z,1438,19,1,76.bmp,-120,-120,77.bmp,120,-120,78.bmp,-120,120,79.bmp,120,120,9485.600000023842,535975.8999999762,7067,yes,SM,C,77.bmp,120,-120,318131,312099,320149,314116,534761.0,528741.0,536778.0,530746.0,19
3,0,0,1,0,13,test,1,0,z,Thu Feb 20 2025 14:46:00 GMT-0600 (Central Standard Time),555525.0,O,None,2014,20,1,80.bmp,-120,-120,81.bmp,120,-120,82.bmp,-120,120,83.bmp,120,120,10049.900000035763,545475.0999999642,7067,yes,SM,C,82.bmp,-120,120,318131,312099,320149,314116,544257.0,538240.0,546275.0,540241.0,20
1,1,0,0,0,14,test,1,1,m,Thu Feb 20 2025 14:46:00 GMT-0600 (Central Standard Time),565155.1999999881,O,m,1574,21,1,64.bmp,-120,-120,65.bmp,120,-120,66.bmp,-120,120,67.bmp,120,120,9617.199999988079,555538.0,7067,yes,SM,C,66.bmp,-120,-120,318131,312099,320149,314116,554320.0,548303.0,556338.0,550307.0,21
4,0,0,0,1,15,test,1,1,z,Thu Feb 20 2025 14:46:00 GMT-0600 (Central Standard Time),574835.5,O,z,1625,22,1,68.bmp,-120,-120,69.bmp,120,-120,70.bmp,-120,120,71.bmp,120,120,9667.800000011921,565167.6999999881,7067,yes,SM,C,71.bmp,120,120,318131,312099,320149,314116,563951.0,557933.0,565968.0,559937.0,22
1,1,0,0,0,16,test,1,1,m,Thu Feb 20 2025 14:46:00 GMT-0600 (Central Standard Time),584115.5999999642,O,m,1216,23,1,84.bmp,-120,-120,85.bmp,120,-120,86.bmp,-120,120,87.bmp,120,120,9266.699999988079,574848.8999999762,7067,yes,SM,C,87.bmp,-120,-120,318131,312099,320149,314116,573631.0,567614.0,575648.0,569617.0,23
2,0,1,0,0,16,test,1,0,z,Thu Feb 20 2025 14:46:00 GMT-0600 (Central Standard Time),594196.1999999881,O,None,2015,24,1,92.bmp,-120,-120,93.bmp,120,-120,94.bmp,-120,120,95.bmp,120,120,10066.400000035763,584129.7999999523,7067,yes,SM,C,93.bmp,120,-120,318131,312099,320149,314116,582929.0,576895.0,584945.0,578914.0,24
4,0,0,0,1,17,test,1,1,m,Thu Feb 20 2025 14:46:00 GMT-0600 (Central Standard Time),603342.5,O,m,1080,25,1,96.bmp,-120,-120,97.bmp,120,-120,98.bmp,-120,120,99.bmp,120,120,9131.800000011921,594210.6999999881,7067,yes,SM,C,98.bmp,120,120,318131,312099,320149,314116,593008.0,586976.0,595025.0,588993.0,25
1,1,0,0,0,18,test,1,1,z,Thu Feb 20 2025 14:46:00 GMT-0600 (Central Standard Time),613155.3999999762,O,z,1748,26,1,88.bmp,-120,-120,89.bmp,120,-120,90.bmp,-120,120,91.bmp,120,120,9799.199999988079,603356.1999999881,7067,yes,SM,C,88.bmp,-120,-120,318131,312099,320149,314116,602139.0,596121.0,604156.0,598124.0,26
4,0,0,0,1,19,test,1,1,z,Thu Feb 20 2025 14:46:00 GMT-0600 (Central Standard Time),622870.0,O,z,1655,27,1,100.bmp,-120,-120,61.bmp,120,-120,51.bmp,-120,120,52.bmp,120,120,9710.5,613159.5,7067,yes,SM,C,52.bmp,120,120,318131,312099,320149,314116,611952.0,605924.0,613969.0,607937.0,27
3,0,0,1,0,20,test,1,1,m,Thu Feb 20 2025 14:46:00 GMT-0600 (Central Standard Time),632349.6999999881,O,m,1422,28,1,53.bmp,-120,-120,54.bmp,120,-120,55.bmp,-120,120,56.bmp,120,120,9465.900000035763,622883.7999999523,7067,yes,SM,C,53.bmp,-120,120,318131,312099,320149,314116,621665.0,615648.0,623683.0,617651.0,28
2,0,1,0,0,21,test,1,1,z,Thu Feb 20 2025 14:46:00 GMT-0600 (Central Standard Time),641913.6999999881,O,z,1486,29,1,57.bmp,-120,-120,58.bmp,120,-120,59.bmp,-120,120,60.bmp,120,120,9549.600000023842,632364.0999999642,7067,yes,SM,C,58.bmp,120,-120,318131,312099,320149,314116,631162.0,625129.0,633179.0,627148.0,29
3,0,0,1,0,21,test,1,0,z,Thu Feb 20 2025 14:46:00 GMT-0600 (Central Standard Time),651993.2999999523,O,None,2014,30,1,61.bmp,-120,-120,62.bmp,120,-120,63.bmp,-120,120,64.bmp,120,120,10065.5,641927.7999999523,7067,yes,SM,C,63.bmp,-120,120,318131,312099,320149,314116,640726.0,634693.0,642743.0,636711.0,30
1,1,0,0,0,22,test,1,1,z,Thu Feb 20 2025 14:46:00 GMT-0600 (Central Standard Time),661357.0,O,z,1305,31,1,65.bmp,-120,-120,66.bmp,120,-120,67.bmp,-120,120,68.bmp,120,120,9350.400000035763,652006.5999999642,7067,yes,SM,C,65.bmp,-120,-120,318131,312099,320149,314116,650789.0,644771.0,652807.0,646774.0,31
2,0,1,0,0,23,test,1,1,m,Thu Feb 20 2025 14:46:00 GMT-0600 (Central Standard Time),671038.0,O,m,1631,32,1,69.bmp,-120,-120,70.bmp,120,-120,71.bmp,-120,120,72.bmp,120,120,9672.400000035763,661365.5999999642,7067,yes,SM,C,69.bmp,120,-120,318131,312099,320149,314116,660152.0,654130.0,662170.0,656139.0,32
4,0,0,0,1,23,test,1,0,z,Thu Feb 20 2025 14:46:00 GMT-0600 (Central Standard Time),681100.5999999642,O,None,2014,33,1,81.bmp,-120,-120,82.bmp,120,-120,83.bmp,-120,120,84.bmp,120,120,10050.699999988079,671049.8999999762,7067,yes,SM,C,84.bmp,120,120,318131,312099,320149,314116,669833.0,663814.0,671850.0,665818.0,33
2,0,1,0,0,24,test,1,1,z,Thu Feb 20 2025 14:46:00 GMT-0600 (Central Standard Time),690381.6999999881,O,z,1215,34,1,73.bmp,-120,-120,74.bmp,120,-120,75.bmp,-120,120,76.bmp,120,120,9265.900000035763,681115.7999999523,7067,yes,SM,C,74.bmp,120,-120,318131,312099,320149,314116,679913.0,673881.0,681930.0,675898.0,34
4,0,0,0,1,25,test,1,1,m,Thu Feb 20 2025 14:46:00 GMT-0600 (Central Standard Time),699843.6999999881,O,m,1397,35,1,77.bmp,-120,-120,78.bmp,120,-120,79.bmp,-120,120,80.bmp,120,120,9450.199999988079,690393.5,7067,yes,SM,C,79.bmp,120,120,318131,312099,320149,314116,689176.0,683158.0,691194.0,685162.0,35
3,0,0,1,0,25,test,1,0,m,Thu Feb 20 2025 14:46:00 GMT-0600 (Central Standard Time),709907.6999999881,O,None,2015,36,1,85.bmp,-120,-120,86.bmp,120,-120,87.bmp,-120,120,88.bmp,120,120,10060.300000011921,699847.3999999762,7067,yes,SM,C,85.bmp,-120,120,318131,312099,320149,314116,698640.0,692612.0,700657.0,694624.0,36
1,1,0,0,0,26,test,1,1,m,Thu Feb 20 2025 14:46:00 GMT-0600 (Central Standard Time),719088.0999999642,O,m,1128,37,1,89.bmp,-120,-120,90.bmp,120,-120,91.bmp,-120,120,92.bmp,120,120,9167.5,709920.5999999642,7067,yes,SM,C,90.bmp,-120,-120,318131,312099,320149,314116,708704.0,702685.0,710721.0,704690.0,37
2,0,1,0,0,27,test,1,1,m,Thu Feb 20 2025 14:46:00 GMT-0600 (Central Standard Time),728651.7999999523,O,m,1509,38,1,93.bmp,-120,-120,94.bmp,120,-120,95.bmp,-120,120,96.bmp,120,120,9550.699999988079,719101.0999999642,7067,yes,SM,C,95.bmp,120,-120,318131,312099,320149,314116,717884.0,711866.0,719900.0,713869.0,38
4,0,0,0,1,28,test,1,1,z,Thu Feb 20 2025 14:46:00 GMT-0600 (Central Standard Time),737832.1999999881,O,z,1121,39,1,97.bmp,-120,-120,98.bmp,120,-120,99.bmp,-120,120,100.bmp,120,120,9166.0,728666.1999999881,7067,yes,SM,C,100.bmp,120,120,318131,312099,320149,314116,727448.0,721431.0,729464.0,723433.0,39
3,0,0,1,0,29,test,1,1,m,Thu Feb 20 2025 14:46:00 GMT-0600 (Central Standard Time),747095.2999999523,O,m,1212,40,1,54.bmp,-120,-120,55.bmp,120,-120,56.bmp,-120,120,57.bmp,120,120,9250.199999988079,737845.0999999642,7067,yes,SM,C,55.bmp,-120,120,318131,312099,320149,314116,736627.0,730610.0,738645.0,732613.0,40
1,1,0,0,0,30,test,1,1,z,Thu Feb 20 2025 14:46:00 GMT-0600 (Central Standard Time),756877.2999999523,O,z,1732,41,1,58.bmp,-120,-120,59.bmp,120,-120,60.bmp,-120,120,61.bmp,120,120,9773.099999964237,747104.1999999881,7067,yes,SM,C,58.bmp,-120,-120,318131,312099,320149,314116,745891.0,739869.0,747908.0,741878.0,41
4,0,0,0,1,31,test,1,1,z,Thu Feb 20 2025 14:46:00 GMT-0600 (Central Standard Time),766056.0,O,z,1112,42,1,62.bmp,-120,-120,63.bmp,120,-120,64.bmp,-120,120,65.bmp,120,120,9163.0,756893.0,7067,yes,SM,C,65.bmp,120,120,318131,312099,320149,314116,755688.0,749658.0,757705.0,751674.0,42
1,1,0,0,0,31,test,1,0,z,Thu Feb 20 2025 14:46:00 GMT-0600 (Central Standard Time),776119.5,O,None,2014,43,1,66.bmp,-120,-120,67.bmp,120,-120,68.bmp,-120,120,69.bmp,120,120,10050.900000035763,766068.5999999642,7067,yes,SM,C,66.bmp,-120,-120,318131,312099,320149,314116,764852.0,758833.0,766869.0,760837.0,43
4,0,0,0,1,32,test,1,1,m,Thu Feb 20 2025 14:46:00 GMT-0600 (Central Standard Time),785549.7999999523,O,m,1381,44,1,54.bmp,-120,-120,51.bmp,120,-120,52.bmp,-120,120,53.bmp,120,120,9416.199999988079,776133.5999999642,7067,yes,SM,C,54.bmp,120,120,318131,312099,320149,314116,774915.0,768898.0,776932.0,770901.0,44
1,1,0,0,0,33,test,1,1,m,Thu Feb 20 2025 14:46:00 GMT-0600 (Central Standard Time),794979.7999999523,O,m,1366,45,1,78.bmp,-120,-120,79.bmp,120,-120,80.bmp,-120,120,81.bmp,120,120,9417.099999964237,785562.6999999881,7067,yes,SM,C,81.bmp,-120,-120,318131,312099,320149,314116,784345.0,778328.0,786362.0,780331.0,45
1,1,0,0,0,34,test,1,1,m,Thu Feb 20 2025 14:46:00 GMT-0600 (Central Standard Time),804409.6999999881,O,m,1375,46,1,70.bmp,-120,-120,71.bmp,120,-120,72.bmp,-120,120,73.bmp,120,120,9417.300000011921,794992.3999999762,7067,yes,SM,C,71.bmp,-120,-120,318131,312099,320149,314116,793775.0,787757.0,795793.0,789761.0,46
3,0,0,1,0,35,test,1,1,z,Thu Feb 20 2025 14:46:00 GMT-0600 (Central Standard Time),813823.5,O,z,1354,47,1,74.bmp,-120,-120,75.bmp,120,-120,76.bmp,-120,120,77.bmp,120,120,9406.600000023842,804416.8999999762,7067,yes,SM,C,76.bmp,-120,120,318131,312099,320149,314116,803206.0,797181.0,805223.0,799192.0,47
3,0,0,1,0,36,test,1,1,z,Thu Feb 20 2025 14:46:00 GMT-0600 (Central Standard Time),823137.2999999523,O,z,1260,48,1,90.bmp,-120,-120,91.bmp,120,-120,92.bmp,-120,120,93.bmp,120,120,9301.899999976158,813835.3999999762,7067,yes,SM,C,92.bmp,-120,120,318131,312099,320149,314116,812619.0,806600.0,814637.0,808605.0,48
2,0,1,0,0,36,test,1,0,z,Thu Feb 20 2025 14:46:00 GMT-0600 (Central Standard Time),833200.5,O,None,2014,49,1,86.bmp,-120,-120,87.bmp,120,-120,88.bmp,-120,120,89.bmp,120,120,10052.300000011921,823148.1999999881,7067,yes,SM,C,87.bmp,120,-120,318131,312099,320149,314116,821933.0,815913.0,823950.0,817919.0,49
3,0,0,1,0,37,test,1,1,m,Thu Feb 20 2025 14:46:00 GMT-0600 (Central Standard Time),842981.0,O,m,1724,50,1,82.bmp,-120,-120,83.bmp,120,-120,84.bmp,-120,120,85.bmp,120,120,9767.5,833213.5,7067,yes,SM,C,82.bmp,-120,120,318131,312099,320149,314116,831997.0,825978.0,834013.0,827983.0,50
2,0,1,0,0,38,test,1,1,z,Thu Feb 20 2025 14:46:00 GMT-0600 (Central Standard Time),852377.2999999523,O,z,1342,51,1,94.bmp,-120,-120,95.bmp,120,-120,96.bmp,-120,120,97.bmp,120,120,9383.399999976158,842993.8999999762,7067,yes,SM,C,95.bmp,120,-120,318131,312099,320149,314116,841776.0,835759.0,843794.0,837761.0,51
4,0,0,0,1,39,test,1,1,m,Thu Feb 20 2025 14:46:00 GMT-0600 (Central Standard Time),861724.3999999762,O,m,1282,52,1,98.bmp,-120,-120,99.bmp,120,-120,100.bmp,-120,120,81.bmp,120,120,9340.100000023842,852384.2999999523,7067,yes,SM,C,98.bmp,120,120,318131,312099,320149,314116,851175.0,845149.0,853189.0,847159.0,52
3,0,0,1,0,40,test,1,1,z,Thu Feb 20 2025 14:46:00 GMT-0600 (Central Standard Time),871288.0,O,z,1505,53,1,51.bmp,-120,-120,52.bmp,120,-120,53.bmp,-120,120,54.bmp,120,120,9556.100000023842,861731.8999999762,7067,yes,SM,C,53.bmp,-120,120,318131,312099,320149,314116,860521.0,854496.0,862536.0,856506.0,53
1,1,0,0,0,41,test,1,1,m,Thu Feb 20 2025 14:46:00 GMT-0600 (Central Standard Time),880535.0,O,m,1198,54,1,55.bmp,-120,-120,56.bmp,120,-120,57.bmp,-120,120,58.bmp,120,120,9233.300000011921,871301.6999999881,7067,yes,SM,C,57.bmp,-120,-120,318131,312099,320149,314116,870084.0,864066.0,872099.0,866068.0,54
4,0,0,0,1,42,test,1,1,z,Thu Feb 20 2025 14:46:00 GMT-0600 (Central Standard Time),890148.0999999642,O,z,1564,55,1,59.bmp,-120,-120,60.bmp,120,-120,61.bmp,-120,120,62.bmp,120,120,9601.0,880547.0999999642,7067,yes,SM,C,62.bmp,120,120,318131,312099,320149,314116,879330.0,873312.0,881348.0,875317.0,55
2,0,1,0,0,43,test,1,1,m,Thu Feb 20 2025 14:46:00 GMT-0600 (Central Standard Time),899662.5,O,m,1455,56,1,63.bmp,-120,-120,64.bmp,120,-120,65.bmp,-120,120,66.bmp,120,120,9510.5,890152.0,7067,yes,SM,C,63.bmp,120,-120,318131,312099,320149,314116,888944.0,882916.0,890961.0,884929.0,56
4,0,0,0,1,44,test,1,1,m,Thu Feb 20 2025 14:46:00 GMT-0600 (Central Standard Time),909609.0999999642,O,m,1890,57,1,67.bmp,-120,-120,68.bmp,120,-120,69.bmp,-120,120,70.bmp,120,120,9932.699999988079,899676.3999999762,7067,yes,SM,C,68.bmp,120,120,318131,312099,320149,314116,898458.0,892441.0,900479.0,894444.0,57
3,0,0,1,0,45,test,1,1,z,Thu Feb 20 2025 14:46:00 GMT-0600 (Central Standard Time),919255.8999999762,O,z,1587,58,1,71.bmp,-120,-120,72.bmp,120,-120,73.bmp,-120,120,74.bmp,120,120,9633.5,909622.3999999762,7067,yes,SM,C,73.bmp,-120,120,318131,312099,320149,314116,908404.0,902387.0,910422.0,904390.0,58
2,0,1,0,0,45,test,1,0,m,Thu Feb 20 2025 14:46:00 GMT-0600 (Central Standard Time),928719.5,O,z,1405,59,1,75.bmp,-120,-120,76.bmp,120,-120,77.bmp,-120,120,78.bmp,120,120,9451.5,919268.0,7067,yes,SM,C,78.bmp,120,-120,318131,312099,320149,314116,918051.0,912032.0,920068.0,914038.0,59
1,1,0,0,0,46,test,1,1,z,Thu Feb 20 2025 14:46:00 GMT-0600 (Central Standard Time),938182.0999999642,O,z,1412,60,1,79.bmp,-120,-120,80.bmp,120,-120,81.bmp,-120,120,82.bmp,120,120,9451.5,928730.5999999642,7067,yes,SM,C,79.bmp,-120,-120,318131,312099,320149,314116,927514.0,921495.0,929532.0,923501.0,60
2,0,1,0,0,47,test,1,1,z,Thu Feb 20 2025 14:46:00 GMT-0600 (Central Standard Time),947862.8999999762,O,z,1629,61,1,83.bmp,-120,-120,84.bmp,120,-120,85.bmp,-120,120,86.bmp,120,120,9677.5,938185.3999999762,7067,yes,SM,C,84.bmp,120,-120,318131,312099,320149,314116,936978.0,930950.0,938996.0,932964.0,61
4,0,0,0,1,48,test,1,1,z,Thu Feb 20 2025 14:46:00 GMT-0600 (Central Standard Time),957459.5,O,z,1540,62,1,91.bmp,-120,-120,92.bmp,120,-120,93.bmp,-120,120,94.bmp,120,120,9584.5,947875.0,7067,yes,SM,C,94.bmp,120,120,318131,312099,320149,314116,946658.0,940640.0,948676.0,942643.0,62
1,1,0,0,0,49,test,1,1,m,Thu Feb 20 2025 14:46:00 GMT-0600 (Central Standard Time),967106.5,O,m,1592,63,1,95.bmp,-120,-120,96.bmp,120,-120,97.bmp,-120,120,98.bmp,120,120,9638.700000047684,957467.7999999523,7067,yes,SM,C,95.bmp,-120,120,318131,312099,320149,314116,956255.0,950232.0,958273.0,952241.0,63
2,0,1,0,0,50,test,1,1,z,Thu Feb 20 2025 14:46:00 GMT-0600 (Central Standard Time),976420.3999999762,O,z,1251,64,1,99.bmp,-120,-120,100.bmp,120,-120,62.bmp,-120,120,51.bmp,120,120,9302.600000023842,967117.7999999523,7067,yes,SM,C,100.bmp,120,-120,318131,312099,320149,314116,965903.0,959882.0,967918.0,961888.0,64
4,0,0,0,1,50,test,1,0,m,Thu Feb 20 2025 14:46:00 GMT-0600 (Central Standard Time),986483.3999999762,O,None,2014,65,1,52.bmp,-120,-120,53.bmp,120,-120,54.bmp,-120,120,55.bmp,120,120,10050.100000023842,976433.2999999523,7067,yes,SM,C,54.bmp,120,120,318131,312099,320149,314116,975216.0,969198.0,977233.0,971202.0,65
3,0,0,1,0,51,test,1,1,m,Thu Feb 20 2025 14:46:00 GMT-0600 (Central Standard Time),996147.3999999762,O,m,1600,66,1,56.bmp,-120,-120,57.bmp,120,-120,58.bmp,-120,120,59.bmp,120,120,9653.699999988079,986493.6999999881,7067,yes,SM,C,59.bmp,-120,120,318131,312099,320149,314116,985279.0,979258.0,987297.0,981266.0,66
2,0,1,0,0,52,test,1,1,m,Thu Feb 20 2025 14:46:00 GMT-0600 (Central Standard Time),1006094.7999999523,O,m,1881,67,1,87.bmp,-120,-120,88.bmp,120,-120,89.bmp,-120,120,90.bmp,120,120,9920.699999988079,996174.0999999642,7067,yes,SM,C,89.bmp,120,-120,318131,312099,320149,314116,994960.0,988939.0,996977.0,990944.0,67
3,0,0,1,0,52,test,1,0,z,Thu Feb 20 2025 14:46:00 GMT-0600 (Central Standard Time),1016158.5999999642,O,None,2015,68,1,60.bmp,-120,-120,61.bmp,120,-120,62.bmp,-120,120,63.bmp,120,120,10050.199999988079,1006108.3999999762,7067,yes,SM,C,62.bmp,-120,120,318131,312099,320149,314116,1004889.0,998873.0,1006907.0,1000876.0,68
1,1,0,0,0,53,test,1,1,m,Thu Feb 20 2025 14:46:00 GMT-0600 (Central Standard Time),1025504.0999999642,O,m,1295,69,1,64.bmp,-120,-120,65.bmp,120,-120,66.bmp,-120,120,67.bmp,120,120,9332.699999988079,1016171.3999999762,7067,yes,SM,C,65.bmp,-120,-120,318131,312099,320149,314116,1014953.0,1008936.0,1016970.0,1010939.0,69
2,0,1,0,0,53,test,1,0,m,Thu Feb 20 2025 14:46:00 GMT-0600 (Central Standard Time),1035567.6999999881,O,None,2015,70,1,68.bmp,-120,-120,69.bmp,120,-120,70.bmp,-120,120,71.bmp,120,120,10050.800000011921,1025516.8999999762,7067,yes,SM,C,70.bmp,120,-120,318131,312099,320149,314116,1024300.0,1018282.0,1026317.0,1020286.0,70
4,0,0,0,1,54,test,1,1,z,Thu Feb 20 2025 14:46:00 GMT-0600 (Central Standard Time),1045547.5999999642,O,z,1925,71,1,72.bmp,-120,-120,73.bmp,120,-120,74.bmp,-120,120,75.bmp,120,120,9965.399999976158,1035582.1999999881,7067,yes,SM,C,75.bmp,120,120,318131,312099,320149,314116,1034363.0,1028347.0,1036380.0,1030349.0,71
1,1,0,0,0,55,test,1,1,z,Thu Feb 20 2025 14:46:00 GMT-0600 (Central Standard Time),1055244.5,O,z,1633,72,1,76.bmp,-120,-120,77.bmp,120,-120,78.bmp,-120,120,79.bmp,120,120,9683.900000035763,1045560.5999999642,7067,yes,SM,C,76.bmp,-120,-120,318131,312099,320149,314116,1044343.0,1038325.0,1046360.0,1040329.0,72
2,0,1,0,0,56,test,1,1,z,Thu Feb 20 2025 14:46:00 GMT-0600 (Central Standard Time),1064574.7999999523,O,z,1272,73,1,80.bmp,-120,-120,81.bmp,120,-120,82.bmp,-120,120,83.bmp,120,120,9317.5,1055257.2999999523,7067,yes,SM,C,81.bmp,120,-120,318131,312099,320149,314116,1054040.0,1048022.0,1056057.0,1050026.0,73
4,0,0,0,1,57,test,1,1,m,Thu Feb 20 2025 14:46:00 GMT-0600 (Central Standard Time),1074254.8999999762,O,m,1621,74,1,84.bmp,-120,-120,85.bmp,120,-120,86.bmp,-120,120,87.bmp,120,120,9667.699999988079,1064587.199999988,7067,yes,SM,C,86.bmp,120,120,318131,312099,320149,314116,1063370.0,1057352.0,1065388.0,1059356.0,74
2,0,1,0,0,57,test,1,0,m,Thu Feb 20 2025 14:46:00 GMT-0600 (Central Standard Time),1083768.3999999762,O,z,1461,75,1,88.bmp,-120,-120,89.bmp,120,-120,90.bmp,-120,120,91.bmp,120,120,9500.399999976158,1074268.0,7067,yes,SM,C,91.bmp,120,-120,318131,312099,320149,314116,1073051.0,1067033.0,1075068.0,1069036.0,75
1,1,0,0,0,57,test,1,0,z,Thu Feb 20 2025 14:46:00 GMT-0600 (Central Standard Time),1093565.0999999642,O,m,1740,76,1,92.bmp,-120,-120,93.bmp,120,-120,94.bmp,-120,120,95.bmp,120,120,9784.699999988079,1083780.3999999762,7067,yes,SM,C,92.bmp,-120,-120,318131,312099,320149,314116,1082564.0,1076545.0,1084581.0,1078550.0,76
3,0,0,1,0,58,test,1,1,z,Thu Feb 20 2025 14:46:00 GMT-0600 (Central Standard Time),1103078.699999988,O,z,1463,77,1,100.bmp,-120,-120,61.bmp,120,-120,51.bmp,-120,120,52.bmp,120,120,9501.300000011921,1093577.3999999762,7067,yes,SM,C,51.bmp,-120,120,318131,312099,320149,314116,1092361.0,1086342.0,1094378.0,1088346.0,77
1,1,0,0,0,59,test,1,1,m,Thu Feb 20 2025 14:46:00 GMT-0600 (Central Standard Time),1112458.5999999642,O,m,1317,78,1,96.bmp,-120,-120,97.bmp,120,-120,98.bmp,-120,120,99.bmp,120,120,9368.099999964237,1103090.5,7067,yes,SM,C,97.bmp,-120,-120,318131,312099,320149,314116,1101874.0,1095855.0,1103891.0,1097860.0,78
4,0,0,0,1,60,test,1,1,m,Thu Feb 20 2025 14:46:00 GMT-0600 (Central Standard Time),1121938.8999999762,O,m,1417,79,1,57.bmp,-120,-120,58.bmp,120,-120,59.bmp,-120,120,60.bmp,120,120,9475.5,1112463.3999999762,7067,yes,SM,C,57.bmp,120,120,318131,312099,320149,314116,1111254.0,1105228.0,1113271.0,1107241.0,79
3,0,0,1,0,61,test,1,1,m,Thu Feb 20 2025 14:46:00 GMT-0600 (Central Standard Time),1131386.0999999642,O,m,1385,80,1,53.bmp,-120,-120,54.bmp,120,-120,55.bmp,-120,120,56.bmp,120,120,9439.599999964237,1121946.5,7067,yes,SM,C,56.bmp,-120,120,318131,312099,320149,314116,1120735.0,1114711.0,1122752.0,1116721.0,80
