acc_sum,block,block_c,change,condition,correct,correct_response,datetime,endtime,face,project,response,response_time,row_sel,session_number,start_end,starttime,subject_id,task,task_vers,trial
0,prac,1,,1-Back,,,Fri Apr 04 2025 15:56:12 GMT-0500 (Central Daylight Time),,097_m_f_n_a.png,O,space,10796,1,1,,,7112,NNB,B,0
0,prac,1,0.0,1-Back,0,m,Fri Apr 04 2025 15:56:12 GMT-0500 (Central Daylight Time),127222.5,152_y_f_n_a.png,O,None,2002,2,1,2887.899999976158,124334.60000002384,7112,NNB,B,1
0,prac,1,1.0,1-Back,0,z,Fri Apr 04 2025 15:56:12 GMT-0500 (Central Daylight Time),129105.60000002384,152_y_f_n_a.png,O,m,1073,3,1,1849.4000000357628,127256.19999998808,7112,NNB,B,2
0,prac,1,0.0,1-Back,0,m,Fri Apr 04 2025 15:56:12 GMT-0500 (Central Daylight Time),132037.60000002384,176_o_m_n_a.png,O,None,2009,4,1,2905.600000023842,129132.0,7112,NNB,B,3
1,prac,1,0.0,1-Back,1,m,Fri Apr 04 2025 15:56:12 GMT-0500 (Central Daylight Time),134703.90000003576,126_m_m_n_a.png,O,m,1737,5,1,2635.400000035763,132068.5,7112,NNB,B,4
1,prac,1,1.0,1-Back,0,z,Fri Apr 04 2025 15:56:12 GMT-0500 (Central Daylight Time),136302.80000001192,126_m_m_n_a.png,O,m,787,6,1,1568.6000000238419,134734.19999998808,7112,NNB,B,5
1,prac,1,0.0,1-Back,0,m,Fri Apr 04 2025 15:56:12 GMT-0500 (Central Daylight Time),138435.40000003576,086_o_f_n_a.png,O,z,1178,7,1,2104.900000035763,136330.5,7112,NNB,B,6
2,prac,1,0.0,1-Back,1,m,Fri Apr 04 2025 15:56:12 GMT-0500 (Central Daylight Time),140585.0,178_m_m_n_a.png,O,m,1210,8,1,2120.899999976158,138464.10000002384,7112,NNB,B,7
2,prac,1,0.0,1-Back,0,m,Fri Apr 04 2025 15:56:12 GMT-0500 (Central Daylight Time),142467.69999998808,097_m_f_n_a.png,O,z,1083,9,1,1851.5999999642372,140616.10000002384,7112,NNB,B,8
2,prac,1,1.0,1-Back,0,z,Fri Apr 04 2025 15:56:12 GMT-0500 (Central Daylight Time),144633.30000001192,097_m_f_n_a.png,O,m,1347,10,1,2130.300000011921,142503.0,7112,NNB,B,9
3,prac,1,0.0,1-Back,1,m,Fri Apr 04 2025 15:56:12 GMT-0500 (Central Daylight Time),147266.0,176_o_m_n_a.png,O,m,1817,11,1,2599.599999964237,144666.40000003576,7112,NNB,B,10
4,prac,1,0.0,1-Back,1,m,Fri Apr 04 2025 15:56:12 GMT-0500 (Central Daylight Time),149265.40000003576,173_y_f_n_a.png,O,m,1065,12,1,1968.300000011921,147297.10000002384,7112,NNB,B,11
0,prac,2,0.0,1-Back,,,Fri Apr 04 2025 15:56:12 GMT-0500 (Central Daylight Time),149265.40000003576,097_m_f_n_a.png,O,a,10404,1,1,1968.300000011921,147297.10000002384,7112,NNB,B,0
1,prac,2,0.0,1-Back,1,m,Fri Apr 04 2025 15:56:12 GMT-0500 (Central Daylight Time),164442.80000001192,152_y_f_n_a.png,O,m,797,2,1,1682.699999988079,162760.10000002384,7112,NNB,B,1
2,prac,2,1.0,1-Back,1,z,Fri Apr 04 2025 15:56:12 GMT-0500 (Central Daylight Time),166126.5,152_y_f_n_a.png,O,z,906,3,1,1677.0,164449.5,7112,NNB,B,2
3,prac,2,0.0,1-Back,1,m,Fri Apr 04 2025 15:56:12 GMT-0500 (Central Daylight Time),167842.90000003576,176_o_m_n_a.png,O,m,913,4,1,1689.9000000357628,166153.0,7112,NNB,B,3
3,prac,2,0.0,1-Back,0,m,Fri Apr 04 2025 15:56:12 GMT-0500 (Central Daylight Time),170058.69999998808,126_m_m_n_a.png,O,z,1268,5,1,2185.599999964237,167873.10000002384,7112,NNB,B,4
3,prac,2,1.0,1-Back,0,z,Fri Apr 04 2025 15:56:12 GMT-0500 (Central Daylight Time),171857.80000001192,126_m_m_n_a.png,O,m,988,6,1,1763.6000000238419,170094.19999998808,7112,NNB,B,5
4,prac,2,0.0,1-Back,1,m,Fri Apr 04 2025 15:56:12 GMT-0500 (Central Daylight Time),174273.69999998808,086_o_f_n_a.png,O,m,1451,7,1,2386.099999964237,171887.60000002384,7112,NNB,B,6
5,prac,2,0.0,1-Back,1,m,Fri Apr 04 2025 15:56:12 GMT-0500 (Central Daylight Time),176423.10000002384,178_m_m_n_a.png,O,m,1228,8,1,2124.600000023842,174298.5,7112,NNB,B,7
6,prac,2,0.0,1-Back,1,m,Fri Apr 04 2025 15:56:12 GMT-0500 (Central Daylight Time),178639.0,097_m_f_n_a.png,O,m,1405,9,1,2185.800000011921,176453.19999998808,7112,NNB,B,8
7,prac,2,1.0,1-Back,1,z,Fri Apr 04 2025 15:56:12 GMT-0500 (Central Daylight Time),180255.0,097_m_f_n_a.png,O,z,813,10,1,1586.199999988079,178668.80000001192,7112,NNB,B,9
8,prac,2,0.0,1-Back,1,m,Fri Apr 04 2025 15:56:12 GMT-0500 (Central Daylight Time),182438.0,176_o_m_n_a.png,O,m,1371,11,1,2153.300000011921,180284.69999998808,7112,NNB,B,10
9,prac,2,0.0,1-Back,1,m,Fri Apr 04 2025 15:56:12 GMT-0500 (Central Daylight Time),184586.90000003576,173_y_f_n_a.png,O,m,1207,12,1,2115.7000000476837,182471.19999998808,7112,NNB,B,11
0,test,1,0.0,1-Back,,,Fri Apr 04 2025 15:56:12 GMT-0500 (Central Daylight Time),184586.90000003576,152_y_f_n_a.png,O,space,12337,1,1,2115.7000000476837,182471.19999998808,7112,NNB,B,0
0,test,1,0.0,1-Back,0,m,Fri Apr 04 2025 15:56:12 GMT-0500 (Central Daylight Time),209445.69999998808,029_m_f_n_a.png,O,z,1422,2,1,2445.0,207000.69999998808,7112,NNB,B,1
1,test,1,0.0,1-Back,1,m,Fri Apr 04 2025 15:56:12 GMT-0500 (Central Daylight Time),211845.69999998808,173_y_f_n_a.png,O,m,1364,3,1,2381.099999964237,209464.60000002384,7112,NNB,B,2
2,test,1,1.0,1-Back,1,z,Fri Apr 04 2025 15:56:12 GMT-0500 (Central Daylight Time),214010.60000002384,173_y_f_n_a.png,O,z,1117,4,1,2144.900000035763,211865.69999998808,7112,NNB,B,3
3,test,1,0.0,1-Back,1,m,Fri Apr 04 2025 15:56:12 GMT-0500 (Central Daylight Time),216176.5,029_m_f_n_a.png,O,m,1127,5,1,2148.300000011921,214028.19999998808,7112,NNB,B,4
4,test,1,0.0,1-Back,1,m,Fri Apr 04 2025 15:56:12 GMT-0500 (Central Daylight Time),218625.60000002384,176_o_m_n_a.png,O,m,1401,6,1,2428.400000035763,216197.19999998808,7112,NNB,B,5
5,test,1,1.0,1-Back,1,z,Fri Apr 04 2025 15:56:12 GMT-0500 (Central Daylight Time),221325.19999998808,176_o_m_n_a.png,O,z,1664,7,1,2677.699999988079,218647.5,7112,NNB,B,6
6,test,1,0.0,1-Back,1,m,Fri Apr 04 2025 15:56:12 GMT-0500 (Central Daylight Time),223390.80000001192,126_m_m_n_a.png,O,m,1029,8,1,2047.3999999761581,221343.40000003576,7112,NNB,B,7
7,test,1,0.0,1-Back,1,m,Fri Apr 04 2025 15:56:12 GMT-0500 (Central Daylight Time),226289.60000002384,086_o_f_n_a.png,O,m,1859,9,1,2880.300000011921,223409.30000001192,7112,NNB,B,8
8,test,1,0.0,1-Back,1,m,Fri Apr 04 2025 15:56:12 GMT-0500 (Central Daylight Time),229055.60000002384,126_m_m_n_a.png,O,m,1744,10,1,2752.699999988079,226302.90000003576,7112,NNB,B,9
9,test,1,0.0,1-Back,1,m,Fri Apr 04 2025 15:56:12 GMT-0500 (Central Daylight Time),232087.90000003576,153_y_m_n_a.png,O,m,1985,11,1,3011.5,229076.40000003576,7112,NNB,B,10
10,test,1,1.0,1-Back,1,z,Fri Apr 04 2025 15:56:12 GMT-0500 (Central Daylight Time),234187.10000002384,153_y_m_n_a.png,O,z,1057,12,1,2077.0,232110.10000002384,7112,NNB,B,11
11,test,1,0.0,1-Back,1,m,Fri Apr 04 2025 15:56:12 GMT-0500 (Central Daylight Time),236419.30000001192,110_o_f_n_a.png,O,m,1190,13,1,2211.399999976158,234207.90000003576,7112,NNB,B,12
12,test,1,1.0,1-Back,1,z,Fri Apr 04 2025 15:56:12 GMT-0500 (Central Daylight Time),238602.60000002384,110_o_f_n_a.png,O,z,1150,14,1,2174.100000023842,236428.5,7112,NNB,B,13
13,test,1,0.0,1-Back,1,m,Fri Apr 04 2025 15:56:12 GMT-0500 (Central Daylight Time),240785.10000002384,013_y_m_n_a.png,O,m,1135,15,1,2164.800000011921,238620.30000001192,7112,NNB,B,14
13,test,1,0.0,1-Back,0,m,Fri Apr 04 2025 15:56:12 GMT-0500 (Central Daylight Time),243834.30000001192,097_m_f_n_a.png,O,None,2016,16,1,3027.899999976158,240806.40000003576,7112,NNB,B,15
14,test,1,0.0,1-Back,1,m,Fri Apr 04 2025 15:56:12 GMT-0500 (Central Daylight Time),246166.60000002384,065_o_m_n_a.png,O,m,1295,17,1,2313.400000035763,243853.19999998808,7112,NNB,B,16
15,test,1,0.0,1-Back,1,m,Fri Apr 04 2025 15:56:12 GMT-0500 (Central Daylight Time),248449.19999998808,097_m_f_n_a.png,O,m,1235,18,1,2263.7999999523163,246185.40000003576,7112,NNB,B,17
0,test,2,0.0,1-Back,,,Fri Apr 04 2025 15:56:12 GMT-0500 (Central Daylight Time),248449.19999998808,126_m_m_n_a.png,O,space,2496,1,1,2263.7999999523163,246185.40000003576,7112,NNB,B,0
1,test,2,0.0,1-Back,1,m,Fri Apr 04 2025 15:56:12 GMT-0500 (Central Daylight Time),255196.40000003576,029_m_f_n_a.png,O,m,1213,2,1,2221.800000011921,252974.60000002384,7112,NNB,B,1
2,test,2,1.0,1-Back,1,z,Fri Apr 04 2025 15:56:12 GMT-0500 (Central Daylight Time),256929.90000003576,029_m_f_n_a.png,O,z,710,3,1,1727.6000000238419,255202.30000001192,7112,NNB,B,2
3,test,2,0.0,1-Back,1,m,Fri Apr 04 2025 15:56:12 GMT-0500 (Central Daylight Time),258628.90000003576,126_m_m_n_a.png,O,m,656,4,1,1677.9000000357628,256951.0,7112,NNB,B,3
3,test,2,0.0,1-Back,0,m,Fri Apr 04 2025 15:56:12 GMT-0500 (Central Daylight Time),260945.19999998808,153_y_m_n_a.png,O,z,1286,5,1,2306.899999976158,258638.30000001192,7112,NNB,B,4
4,test,2,0.0,1-Back,1,m,Fri Apr 04 2025 15:56:12 GMT-0500 (Central Daylight Time),263377.8000000119,152_y_f_n_a.png,O,m,1384,6,1,2406.300000011921,260971.5,7112,NNB,B,5
5,test,2,1.0,1-Back,1,z,Fri Apr 04 2025 15:56:12 GMT-0500 (Central Daylight Time),265627.10000002384,152_y_f_n_a.png,O,z,1208,7,1,2228.400000035763,263398.6999999881,7112,NNB,B,6
6,test,2,0.0,1-Back,1,m,Fri Apr 04 2025 15:56:12 GMT-0500 (Central Daylight Time),268458.5,153_y_m_n_a.png,O,m,1782,8,1,2815.199999988079,265643.3000000119,7112,NNB,B,7
7,test,2,0.0,1-Back,1,m,Fri Apr 04 2025 15:56:12 GMT-0500 (Central Daylight Time),270375.5,110_o_f_n_a.png,O,m,887,9,1,1911.199999988079,268464.3000000119,7112,NNB,B,8
8,test,2,0.0,1-Back,1,m,Fri Apr 04 2025 15:56:12 GMT-0500 (Central Daylight Time),272458.10000002384,178_m_m_n_a.png,O,m,1034,10,1,2059.5,270398.60000002384,7112,NNB,B,9
9,test,2,1.0,1-Back,1,z,Fri Apr 04 2025 15:56:12 GMT-0500 (Central Daylight Time),274556.5,178_m_m_n_a.png,O,z,1055,11,1,2077.0,272479.5,7112,NNB,B,10
10,test,2,0.0,1-Back,1,m,Fri Apr 04 2025 15:56:12 GMT-0500 (Central Daylight Time),277156.6999999881,110_o_f_n_a.png,O,m,1573,12,1,2595.899999976158,274560.8000000119,7112,NNB,B,11
10,test,2,0.0,1-Back,0,m,Fri Apr 04 2025 15:56:12 GMT-0500 (Central Daylight Time),279172.40000003576,086_o_f_n_a.png,O,z,973,13,1,1997.0,277175.40000003576,7112,NNB,B,12
11,test,2,0.0,1-Back,1,m,Fri Apr 04 2025 15:56:12 GMT-0500 (Central Daylight Time),281488.10000002384,176_o_m_n_a.png,O,m,1267,14,1,2289.300000011921,279198.8000000119,7112,NNB,B,13
12,test,2,0.0,1-Back,1,m,Fri Apr 04 2025 15:56:12 GMT-0500 (Central Daylight Time),283471.10000002384,065_o_m_n_a.png,O,m,954,15,1,1974.800000011921,281496.3000000119,7112,NNB,B,14
12,test,2,1.0,1-Back,0,z,Fri Apr 04 2025 15:56:12 GMT-0500 (Central Daylight Time),285920.1999999881,065_o_m_n_a.png,O,m,1404,16,1,2430.199999988079,283490.0,7112,NNB,B,15
13,test,2,0.0,1-Back,1,m,Fri Apr 04 2025 15:56:12 GMT-0500 (Central Daylight Time),288019.60000002384,013_y_m_n_a.png,O,m,1057,17,1,2077.199999988079,285942.40000003576,7112,NNB,B,16
14,test,2,1.0,1-Back,1,z,Fri Apr 04 2025 15:56:12 GMT-0500 (Central Daylight Time),290052.1999999881,013_y_m_n_a.png,O,z,982,18,1,2014.3999999761581,288037.8000000119,7112,NNB,B,17
0,test,3,1.0,1-Back,,,Fri Apr 04 2025 15:56:12 GMT-0500 (Central Daylight Time),290052.1999999881,173_y_f_n_a.png,O,space,2461,1,1,2014.3999999761581,288037.8000000119,7112,NNB,B,0
1,test,3,0.0,1-Back,1,m,Fri Apr 04 2025 15:56:12 GMT-0500 (Central Daylight Time),296483.60000002384,065_o_m_n_a.png,O,m,774,1,1,1797.6000000238419,294686.0,7112,NNB,B,1
1,test,3,1.0,1-Back,0,z,Fri Apr 04 2025 15:56:12 GMT-0500 (Central Daylight Time),299549.40000003576,065_o_m_n_a.png,O,None,2014,1,1,3032.7000000476837,296516.6999999881,7112,NNB,B,2
2,test,3,0.0,1-Back,1,m,Fri Apr 04 2025 15:56:12 GMT-0500 (Central Daylight Time),301648.3000000119,097_m_f_n_a.png,O,m,1052,1,1,2080.300000011921,299568.0,7112,NNB,B,3
3,test,3,1.0,1-Back,1,z,Fri Apr 04 2025 15:56:12 GMT-0500 (Central Daylight Time),303581.60000002384,097_m_f_n_a.png,O,z,898,1,1,1914.9000000357628,301666.6999999881,7112,NNB,B,4
4,test,3,0.0,1-Back,1,m,Fri Apr 04 2025 15:56:12 GMT-0500 (Central Daylight Time),305680.1999999881,110_o_f_n_a.png,O,m,1052,1,1,2080.699999988079,303599.5,7112,NNB,B,5
5,test,3,0.0,1-Back,1,m,Fri Apr 04 2025 15:56:12 GMT-0500 (Central Daylight Time),308079.6999999881,153_y_m_n_a.png,O,m,1353,1,1,2381.599999964237,305698.10000002384,7112,NNB,B,6
6,test,3,0.0,1-Back,1,m,Fri Apr 04 2025 15:56:12 GMT-0500 (Central Daylight Time),310178.90000003576,110_o_f_n_a.png,O,m,1051,1,1,2075.400000035763,308103.5,7112,NNB,B,7
7,test,3,0.0,1-Back,1,m,Fri Apr 04 2025 15:56:12 GMT-0500 (Central Daylight Time),312395.0,013_y_m_n_a.png,O,m,1166,1,1,2199.300000011921,310195.6999999881,7112,NNB,B,8
8,test,3,1.0,1-Back,1,z,Fri Apr 04 2025 15:56:12 GMT-0500 (Central Daylight Time),314577.90000003576,013_y_m_n_a.png,O,z,1135,1,1,2162.800000011921,312415.10000002384,7112,NNB,B,9
9,test,3,0.0,1-Back,1,m,Fri Apr 04 2025 15:56:12 GMT-0500 (Central Daylight Time),317425.6999999881,029_m_f_n_a.png,O,m,1801,1,1,2829.399999976158,314596.3000000119,7112,NNB,B,10
10,test,3,0.0,1-Back,1,m,Fri Apr 04 2025 15:56:12 GMT-0500 (Central Daylight Time),319825.8000000119,152_y_f_n_a.png,O,m,1367,1,1,2396.199999988079,317429.60000002384,7112,NNB,B,11
11,test,3,1.0,1-Back,1,z,Fri Apr 04 2025 15:56:12 GMT-0500 (Central Daylight Time),322241.6999999881,152_y_f_n_a.png,O,z,1368,1,1,2397.5,319844.1999999881,7112,NNB,B,12
12,test,3,0.0,1-Back,1,m,Fri Apr 04 2025 15:56:12 GMT-0500 (Central Daylight Time),324173.40000003576,029_m_f_n_a.png,O,m,887,1,1,1913.6000000238419,322259.8000000119,7112,NNB,B,13
13,test,3,0.0,1-Back,1,m,Fri Apr 04 2025 15:56:12 GMT-0500 (Central Daylight Time),326690.40000003576,126_m_m_n_a.png,O,m,1492,1,1,2513.300000011921,324177.10000002384,7112,NNB,B,14
14,test,3,1.0,1-Back,1,z,Fri Apr 04 2025 15:56:12 GMT-0500 (Central Daylight Time),328738.8000000119,126_m_m_n_a.png,O,z,1008,1,1,2028.3999999761581,326710.40000003576,7112,NNB,B,15
15,test,3,0.0,1-Back,1,m,Fri Apr 04 2025 15:56:12 GMT-0500 (Central Daylight Time),331387.8000000119,086_o_f_n_a.png,O,m,1631,1,1,2645.100000023842,328742.6999999881,7112,NNB,B,16
16,test,3,1.0,1-Back,1,z,Fri Apr 04 2025 15:56:12 GMT-0500 (Central Daylight Time),333571.40000003576,086_o_f_n_a.png,O,z,1149,1,1,2179.600000023842,331391.8000000119,7112,NNB,B,17
0,test,4,1.0,1-Back,,,Fri Apr 04 2025 15:56:12 GMT-0500 (Central Daylight Time),333571.40000003576,097_m_f_n_a.png,O,space,1958,1,1,2179.600000023842,331391.8000000119,7112,NNB,B,0
1,test,4,0.0,1-Back,1,m,Fri Apr 04 2025 15:56:12 GMT-0500 (Central Daylight Time),339686.0,065_o_m_n_a.png,O,m,938,2,1,1963.5999999642372,337722.40000003576,7112,NNB,B,1
2,test,4,0.0,1-Back,1,m,Fri Apr 04 2025 15:56:12 GMT-0500 (Central Daylight Time),342201.6999999881,097_m_f_n_a.png,O,m,1468,3,1,2491.899999976158,339709.8000000119,7112,NNB,B,2
3,test,4,0.0,1-Back,1,m,Fri Apr 04 2025 15:56:12 GMT-0500 (Central Daylight Time),344300.3000000119,110_o_f_n_a.png,O,m,1054,4,1,2080.300000011921,342220.0,7112,NNB,B,3
3,test,4,1.0,1-Back,0,z,Fri Apr 04 2025 15:56:12 GMT-0500 (Central Daylight Time),346767.0,110_o_f_n_a.png,O,m,1437,5,1,2462.800000011921,344304.1999999881,7112,NNB,B,4
4,test,4,0.0,1-Back,1,m,Fri Apr 04 2025 15:56:12 GMT-0500 (Central Daylight Time),349066.60000002384,152_y_f_n_a.png,O,m,1250,6,1,2281.199999988079,346785.40000003576,7112,NNB,B,5
5,test,4,0.0,1-Back,1,m,Fri Apr 04 2025 15:56:12 GMT-0500 (Central Daylight Time),351248.8000000119,153_y_m_n_a.png,O,m,1135,7,1,2164.5,349084.3000000119,7112,NNB,B,6
6,test,4,1.0,1-Back,1,z,Fri Apr 04 2025 15:56:12 GMT-0500 (Central Daylight Time),353231.60000002384,153_y_m_n_a.png,O,z,937,8,1,1962.4000000357628,351269.1999999881,7112,NNB,B,7
7,test,4,0.0,1-Back,1,m,Fri Apr 04 2025 15:56:12 GMT-0500 (Central Daylight Time),355313.90000003576,152_y_f_n_a.png,O,m,1018,9,1,2048.5,353265.40000003576,7112,NNB,B,8
8,test,4,0.0,1-Back,1,m,Fri Apr 04 2025 15:56:12 GMT-0500 (Central Daylight Time),357530.10000002384,178_m_m_n_a.png,O,m,1168,10,1,2198.800000011921,355331.3000000119,7112,NNB,B,9
9,test,4,1.0,1-Back,1,z,Fri Apr 04 2025 15:56:12 GMT-0500 (Central Daylight Time),359596.0,178_m_m_n_a.png,O,z,1015,11,1,2047.0,357549.0,7112,NNB,B,10
10,test,4,0.0,1-Back,1,m,Fri Apr 04 2025 15:56:12 GMT-0500 (Central Daylight Time),361495.5,086_o_f_n_a.png,O,m,861,12,1,1879.5,359616.0,7112,NNB,B,11
11,test,4,0.0,1-Back,1,m,Fri Apr 04 2025 15:56:12 GMT-0500 (Central Daylight Time),363794.60000002384,176_o_m_n_a.png,O,m,1258,13,1,2282.5,361512.10000002384,7112,NNB,B,12
12,test,4,0.0,1-Back,1,m,Fri Apr 04 2025 15:56:12 GMT-0500 (Central Daylight Time),365777.40000003576,086_o_f_n_a.png,O,m,935,14,1,1965.2000000476837,363812.1999999881,7112,NNB,B,13
13,test,4,0.0,1-Back,1,m,Fri Apr 04 2025 15:56:12 GMT-0500 (Central Daylight Time),367760.10000002384,173_y_f_n_a.png,O,m,944,15,1,1964.300000011921,365795.8000000119,7112,NNB,B,14
14,test,4,1.0,1-Back,1,z,Fri Apr 04 2025 15:56:12 GMT-0500 (Central Daylight Time),370075.90000003576,173_y_f_n_a.png,O,z,1274,16,1,2298.5,367777.40000003576,7112,NNB,B,15
15,test,4,0.0,1-Back,1,m,Fri Apr 04 2025 15:56:12 GMT-0500 (Central Daylight Time),372758.40000003576,029_m_f_n_a.png,O,m,1640,17,1,2666.100000023842,370092.3000000119,7112,NNB,B,16
16,test,4,1.0,1-Back,1,z,Fri Apr 04 2025 15:56:12 GMT-0500 (Central Daylight Time),374974.1999999881,029_m_f_n_a.png,O,z,1181,18,1,2196.7999999523163,372777.40000003576,7112,NNB,B,17
0,test,5,1.0,1-Back,,,Fri Apr 04 2025 15:56:12 GMT-0500 (Central Daylight Time),374974.1999999881,176_o_m_n_a.png,O,space,1420,1,1,2196.7999999523163,372777.40000003576,7112,NNB,B,0
0,test,5,1.0,1-Back,0,z,Fri Apr 04 2025 15:56:12 GMT-0500 (Central Daylight Time),381639.60000002384,176_o_m_n_a.png,O,None,2015,2,1,3031.600000023842,378608.0,7112,NNB,B,1
1,test,5,0.0,1-Back,1,m,Fri Apr 04 2025 15:56:12 GMT-0500 (Central Daylight Time),383604.90000003576,152_y_f_n_a.png,O,m,924,3,1,1947.4000000357628,381657.5,7112,NNB,B,2
2,test,5,0.0,1-Back,1,m,Fri Apr 04 2025 15:56:12 GMT-0500 (Central Daylight Time),386137.5,153_y_m_n_a.png,O,m,1484,4,1,2513.399999976158,383624.10000002384,7112,NNB,B,3
3,test,5,0.0,1-Back,1,m,Fri Apr 04 2025 15:56:12 GMT-0500 (Central Daylight Time),388137.0,152_y_f_n_a.png,O,m,952,5,1,1979.699999988079,386157.3000000119,7112,NNB,B,4
4,test,5,0.0,1-Back,1,m,Fri Apr 04 2025 15:56:12 GMT-0500 (Central Daylight Time),390019.5,126_m_m_n_a.png,O,m,841,6,1,1865.199999988079,388154.3000000119,7112,NNB,B,5
5,test,5,1.0,1-Back,1,z,Fri Apr 04 2025 15:56:12 GMT-0500 (Central Daylight Time),392135.3000000119,126_m_m_n_a.png,O,z,1068,7,1,2098.600000023842,390036.6999999881,7112,NNB,B,6
6,test,5,0.0,1-Back,1,m,Fri Apr 04 2025 15:56:12 GMT-0500 (Central Daylight Time),394018.10000002384,173_y_f_n_a.png,O,m,842,8,1,1864.800000011921,392153.3000000119,7112,NNB,B,7
7,test,5,0.0,1-Back,1,m,Fri Apr 04 2025 15:56:12 GMT-0500 (Central Daylight Time),395900.8000000119,013_y_m_n_a.png,O,m,839,9,1,1863.199999988079,394037.60000002384,7112,NNB,B,8
8,test,5,0.0,1-Back,1,m,Fri Apr 04 2025 15:56:12 GMT-0500 (Central Daylight Time),398117.10000002384,173_y_f_n_a.png,O,m,1180,10,1,2198.100000023842,395919.0,7112,NNB,B,9
8,test,5,0.0,1-Back,0,m,Fri Apr 04 2025 15:56:12 GMT-0500 (Central Daylight Time),400382.40000003576,086_o_f_n_a.png,O,z,1229,11,1,2246.5,398135.90000003576,7112,NNB,B,10
9,test,5,1.0,1-Back,1,z,Fri Apr 04 2025 15:56:12 GMT-0500 (Central Daylight Time),403131.60000002384,086_o_f_n_a.png,O,z,1707,12,1,2727.300000011921,400404.3000000119,7112,NNB,B,11
10,test,5,0.0,1-Back,1,m,Fri Apr 04 2025 15:56:12 GMT-0500 (Central Daylight Time),404997.8000000119,065_o_m_n_a.png,O,m,831,13,1,1840.8999999761581,403156.90000003576,7112,NNB,B,12
11,test,5,0.0,1-Back,1,m,Fri Apr 04 2025 15:56:12 GMT-0500 (Central Daylight Time),406847.1999999881,097_m_f_n_a.png,O,m,811,14,1,1827.199999988079,405020.0,7112,NNB,B,13
12,test,5,1.0,1-Back,1,z,Fri Apr 04 2025 15:56:12 GMT-0500 (Central Daylight Time),408980.0,097_m_f_n_a.png,O,z,1082,15,1,2111.800000011921,406868.1999999881,7112,NNB,B,14
13,test,5,0.0,1-Back,1,m,Fri Apr 04 2025 15:56:12 GMT-0500 (Central Daylight Time),411962.10000002384,065_o_m_n_a.png,O,m,1942,16,1,2962.300000011921,408999.8000000119,7112,NNB,B,15
14,test,5,0.0,1-Back,1,m,Fri Apr 04 2025 15:56:12 GMT-0500 (Central Daylight Time),413845.1999999881,029_m_f_n_a.png,O,m,839,17,1,1865.7999999523163,411979.40000003576,7112,NNB,B,16
15,test,5,0.0,1-Back,1,m,Fri Apr 04 2025 15:56:12 GMT-0500 (Central Daylight Time),415877.60000002384,178_m_m_n_a.png,O,m,989,18,1,2013.4000000357628,413864.1999999881,7112,NNB,B,17
0,prac,1,0.0,2-Back,,,Fri Apr 04 2025 15:56:12 GMT-0500 (Central Daylight Time),415877.60000002384,013_y_m_n_a.png,O,space,9165,1,1,2013.4000000357628,413864.1999999881,7112,NNB,B,0
0,prac,1,0.0,2-Back,,,Fri Apr 04 2025 15:56:12 GMT-0500 (Central Daylight Time),415877.60000002384,029_m_f_n_a.png,O,space,9165,2,1,2013.4000000357628,413864.1999999881,7112,NNB,B,0
1,prac,1,1.0,2-Back,1,m,Fri Apr 04 2025 15:56:12 GMT-0500 (Central Daylight Time),534342.1999999881,065_o_m_n_a.png,O,m,1068,3,1,2039.199999988079,532303.0,7112,NNB,B,1
1,prac,1,0.0,2-Back,0,m,Fri Apr 04 2025 15:56:12 GMT-0500 (Central Daylight Time),537337.0,086_o_f_n_a.png,O,None,2009,4,1,2959.800000011921,534377.1999999881,7112,NNB,B,2
1,prac,1,0.0,2-Back,0,z,Fri Apr 04 2025 15:56:12 GMT-0500 (Central Daylight Time),540253.4000000358,065_o_m_n_a.png,O,None,2006,5,1,2901.300000011921,537352.1000000238,7112,NNB,B,3
1,prac,1,1.0,2-Back,0,z,Fri Apr 04 2025 15:56:12 GMT-0500 (Central Daylight Time),543219.5,086_o_f_n_a.png,O,None,2010,6,1,2936.399999976158,540283.1000000238,7112,NNB,B,4
1,prac,1,0.0,2-Back,0,m,Fri Apr 04 2025 15:56:12 GMT-0500 (Central Daylight Time),546168.0,178_m_m_n_a.png,O,None,2009,7,1,2921.300000011921,543246.6999999881,7112,NNB,B,5
1,prac,1,0.0,2-Back,0,m,Fri Apr 04 2025 15:56:12 GMT-0500 (Central Daylight Time),549117.1000000238,176_o_m_n_a.png,O,None,2010,8,1,2921.300000011921,546195.8000000119,7112,NNB,B,6
1,prac,1,0.0,2-Back,0,m,Fri Apr 04 2025 15:56:12 GMT-0500 (Central Daylight Time),552049.9000000358,173_y_f_n_a.png,O,None,2005,9,1,2906.100000023842,549143.8000000119,7112,NNB,B,7
1,prac,1,1.0,2-Back,0,z,Fri Apr 04 2025 15:56:12 GMT-0500 (Central Daylight Time),554865.6000000238,176_o_m_n_a.png,O,None,2006,10,1,2774.5,552091.1000000238,7112,NNB,B,8
1,prac,1,0.0,2-Back,0,m,Fri Apr 04 2025 15:56:12 GMT-0500 (Central Daylight Time),557814.4000000358,152_y_f_n_a.png,O,None,2011,11,1,2918.400000035763,554896.0,7112,NNB,B,9
1,prac,1,0.0,2-Back,0,m,Fri Apr 04 2025 15:56:12 GMT-0500 (Central Daylight Time),560746.8000000119,178_m_m_n_a.png,O,None,2014,12,1,2906.100000023842,557840.6999999881,7112,NNB,B,10
0,prac,2,0.0,2-Back,,,Fri Apr 04 2025 15:56:12 GMT-0500 (Central Daylight Time),560746.8000000119,013_y_m_n_a.png,O,a,3706,1,1,2906.100000023842,557840.6999999881,7112,NNB,B,0
0,prac,2,0.0,2-Back,,,Fri Apr 04 2025 15:56:12 GMT-0500 (Central Daylight Time),560746.8000000119,029_m_f_n_a.png,O,a,3706,2,1,2906.100000023842,557840.6999999881,7112,NNB,B,0
1,prac,2,1.0,2-Back,1,m,Fri Apr 04 2025 15:56:12 GMT-0500 (Central Daylight Time),571710.1000000238,065_o_m_n_a.png,O,m,931,3,1,1839.6000000238419,569870.5,7112,NNB,B,1
1,prac,2,0.0,2-Back,0,m,Fri Apr 04 2025 15:56:12 GMT-0500 (Central Daylight Time),574025.9000000358,086_o_f_n_a.png,O,z,1370,4,1,2293.0,571732.9000000358,7112,NNB,B,2
1,prac,2,0.0,2-Back,0,z,Fri Apr 04 2025 15:56:12 GMT-0500 (Central Daylight Time),576842.6999999881,065_o_m_n_a.png,O,None,2013,5,1,2789.5,574053.1999999881,7112,NNB,B,3
1,prac,2,1.0,2-Back,0,z,Fri Apr 04 2025 15:56:12 GMT-0500 (Central Daylight Time),578607.8000000119,086_o_f_n_a.png,O,m,972,6,1,1744.300000011921,576863.5,7112,NNB,B,4
1,prac,2,0.0,2-Back,0,m,Fri Apr 04 2025 15:56:12 GMT-0500 (Central Daylight Time),580474.0,178_m_m_n_a.png,O,z,929,7,1,1828.699999988079,578645.3000000119,7112,NNB,B,5
2,prac,2,0.0,2-Back,1,m,Fri Apr 04 2025 15:56:12 GMT-0500 (Central Daylight Time),582406.4000000358,176_o_m_n_a.png,O,m,988,8,1,1903.1000000238419,580503.3000000119,7112,NNB,B,6
3,prac,2,0.0,2-Back,1,m,Fri Apr 04 2025 15:56:12 GMT-0500 (Central Daylight Time),585272.1999999881,173_y_f_n_a.png,O,m,1941,9,1,2841.699999988079,582430.5,7112,NNB,B,7
4,prac,2,1.0,2-Back,1,z,Fri Apr 04 2025 15:56:12 GMT-0500 (Central Daylight Time),587255.1000000238,176_o_m_n_a.png,O,z,1185,10,1,1967.0,585288.1000000238,7112,NNB,B,8
5,prac,2,0.0,2-Back,1,m,Fri Apr 04 2025 15:56:12 GMT-0500 (Central Daylight Time),589819.6999999881,152_y_f_n_a.png,O,m,1627,11,1,2534.699999988079,587285.0,7112,NNB,B,9
6,prac,2,0.0,2-Back,1,m,Fri Apr 04 2025 15:56:12 GMT-0500 (Central Daylight Time),592069.9000000358,178_m_m_n_a.png,O,m,1345,12,1,2241.5,589828.4000000358,7112,NNB,B,10
0,test,1,0.0,2-Back,,,Fri Apr 04 2025 15:56:12 GMT-0500 (Central Daylight Time),592069.9000000358,153_y_m_n_a.png,O,space,9468,1,1,2241.5,589828.4000000358,7112,NNB,B,0
0,test,1,0.0,2-Back,,,Fri Apr 04 2025 15:56:12 GMT-0500 (Central Daylight Time),592069.9000000358,153_y_m_n_a.png,O,space,9468,2,1,2241.5,589828.4000000358,7112,NNB,B,0
0,test,1,0.0,2-Back,0,m,Fri Apr 04 2025 15:56:12 GMT-0500 (Central Daylight Time),617477.3000000119,086_o_f_n_a.png,O,z,1404,3,1,2428.600000023842,615048.6999999881,7112,NNB,B,1
1,test,1,0.0,2-Back,1,m,Fri Apr 04 2025 15:56:12 GMT-0500 (Central Daylight Time),619994.1000000238,126_m_m_n_a.png,O,m,1481,4,1,2512.900000035763,617481.1999999881,7112,NNB,B,2
2,test,1,1.0,2-Back,1,z,Fri Apr 04 2025 15:56:12 GMT-0500 (Central Daylight Time),622477.3000000119,086_o_f_n_a.png,O,z,1447,5,1,2465.600000023842,620011.6999999881,7112,NNB,B,3
3,test,1,0.0,2-Back,1,m,Fri Apr 04 2025 15:56:12 GMT-0500 (Central Daylight Time),625009.0,152_y_f_n_a.png,O,m,1493,6,1,2514.399999976158,622494.6000000238,7112,NNB,B,4
4,test,1,0.0,2-Back,1,m,Fri Apr 04 2025 15:56:12 GMT-0500 (Central Daylight Time),627274.6999999881,126_m_m_n_a.png,O,m,1224,7,1,2247.099999964237,625027.6000000238,7112,NNB,B,5
4,test,1,1.0,2-Back,0,z,Fri Apr 04 2025 15:56:12 GMT-0500 (Central Daylight Time),630040.6999999881,152_y_f_n_a.png,O,m,1720,8,1,2748.399999976158,627292.3000000119,7112,NNB,B,6
5,test,1,0.0,2-Back,1,m,Fri Apr 04 2025 15:56:12 GMT-0500 (Central Daylight Time),632556.5,013_y_m_n_a.png,O,m,1473,9,1,2494.300000011921,630062.1999999881,7112,NNB,B,7
6,test,1,0.0,2-Back,1,m,Fri Apr 04 2025 15:56:12 GMT-0500 (Central Daylight Time),634655.6000000238,110_o_f_n_a.png,O,m,1061,10,1,2081.800000011921,632573.8000000119,7112,NNB,B,8
6,test,1,1.0,2-Back,0,z,Fri Apr 04 2025 15:56:12 GMT-0500 (Central Daylight Time),637338.5,013_y_m_n_a.png,O,m,1642,11,1,2666.300000011921,634672.1999999881,7112,NNB,B,9
7,test,1,0.0,2-Back,1,m,Fri Apr 04 2025 15:56:12 GMT-0500 (Central Daylight Time),639654.1999999881,029_m_f_n_a.png,O,m,1272,12,1,2296.399999976158,637357.8000000119,7112,NNB,B,10
7,test,1,0.0,2-Back,0,m,Fri Apr 04 2025 15:56:12 GMT-0500 (Central Daylight Time),641586.6999999881,029_m_f_n_a.png,O,z,883,13,1,1913.7999999523163,639672.9000000358,7112,NNB,B,11
8,test,1,0.0,2-Back,1,m,Fri Apr 04 2025 15:56:12 GMT-0500 (Central Daylight Time),644136.0,065_o_m_n_a.png,O,m,1503,14,1,2531.199999988079,641604.8000000119,7112,NNB,B,12
9,test,1,0.0,2-Back,1,m,Fri Apr 04 2025 15:56:12 GMT-0500 (Central Daylight Time),646051.1999999881,110_o_f_n_a.png,O,m,864,15,1,1893.8999999761581,644157.3000000119,7112,NNB,B,13
9,test,1,1.0,2-Back,0,z,Fri Apr 04 2025 15:56:12 GMT-0500 (Central Daylight Time),648451.5,065_o_m_n_a.png,O,m,1377,16,1,2396.300000011921,646055.1999999881,7112,NNB,B,14
10,test,1,0.0,2-Back,1,m,Fri Apr 04 2025 15:56:12 GMT-0500 (Central Daylight Time),650867.1999999881,097_m_f_n_a.png,O,m,1374,17,1,2395.2999999523163,648471.9000000358,7112,NNB,B,15
10,test,1,0.0,2-Back,0,m,Fri Apr 04 2025 15:56:12 GMT-0500 (Central Daylight Time),653466.1999999881,178_m_m_n_a.png,O,z,1551,18,1,2580.2999999523163,650885.9000000358,7112,NNB,B,16
0,test,2,0.0,2-Back,,,Fri Apr 04 2025 15:56:12 GMT-0500 (Central Daylight Time),653466.1999999881,178_m_m_n_a.png,O,space,1943,1,1,2580.2999999523163,650885.9000000358,7112,NNB,B,0
0,test,2,0.0,2-Back,,,Fri Apr 04 2025 15:56:12 GMT-0500 (Central Daylight Time),653466.1999999881,173_y_f_n_a.png,O,space,1943,2,1,2580.2999999523163,650885.9000000358,7112,NNB,B,0
1,test,2,1.0,2-Back,1,z,Fri Apr 04 2025 15:56:12 GMT-0500 (Central Daylight Time),662946.6000000238,178_m_m_n_a.png,O,z,1284,3,1,2305.100000023842,660641.5,7112,NNB,B,1
2,test,2,0.0,2-Back,1,m,Fri Apr 04 2025 15:56:12 GMT-0500 (Central Daylight Time),665795.6999999881,097_m_f_n_a.png,O,m,1799,4,1,2832.0,662963.6999999881,7112,NNB,B,2
2,test,2,0.0,2-Back,0,m,Fri Apr 04 2025 15:56:12 GMT-0500 (Central Daylight Time),668845.0,173_y_f_n_a.png,O,None,2015,5,1,3023.0,665822.0,7112,NNB,B,3
3,test,2,0.0,2-Back,1,m,Fri Apr 04 2025 15:56:12 GMT-0500 (Central Daylight Time),671060.5,065_o_m_n_a.png,O,m,1165,6,1,2196.300000011921,668864.1999999881,7112,NNB,B,4
4,test,2,0.0,2-Back,1,m,Fri Apr 04 2025 15:56:12 GMT-0500 (Central Daylight Time),673243.5,152_y_f_n_a.png,O,m,1143,7,1,2164.599999964237,671078.9000000358,7112,NNB,B,5
5,test,2,1.0,2-Back,1,z,Fri Apr 04 2025 15:56:12 GMT-0500 (Central Daylight Time),675392.5,065_o_m_n_a.png,O,z,1102,8,1,2131.099999964237,673261.4000000358,7112,NNB,B,6
6,test,2,0.0,2-Back,1,m,Fri Apr 04 2025 15:56:12 GMT-0500 (Central Daylight Time),677308.5,013_y_m_n_a.png,O,m,866,9,1,1898.8999999761581,675409.6000000238,7112,NNB,B,7
7,test,2,0.0,2-Back,1,m,Fri Apr 04 2025 15:56:12 GMT-0500 (Central Daylight Time),680091.1000000238,013_y_m_n_a.png,O,m,1733,10,1,2764.5,677326.6000000238,7112,NNB,B,8
8,test,2,0.0,2-Back,1,m,Fri Apr 04 2025 15:56:12 GMT-0500 (Central Daylight Time),682456.9000000358,029_m_f_n_a.png,O,m,1318,11,1,2348.0,680108.9000000358,7112,NNB,B,9
8,test,2,0.0,2-Back,0,m,Fri Apr 04 2025 15:56:12 GMT-0500 (Central Daylight Time),684556.1000000238,173_y_f_n_a.png,O,z,1057,12,1,2081.900000035763,682474.1999999881,7112,NNB,B,10
8,test,2,1.0,2-Back,0,z,Fri Apr 04 2025 15:56:12 GMT-0500 (Central Daylight Time),687204.4000000358,029_m_f_n_a.png,O,m,1612,13,1,2630.400000035763,684574.0,7112,NNB,B,11
8,test,2,0.0,2-Back,0,m,Fri Apr 04 2025 15:56:12 GMT-0500 (Central Daylight Time),689237.9000000358,176_o_m_n_a.png,O,z,1007,14,1,2029.0,687208.9000000358,7112,NNB,B,12
9,test,2,0.0,2-Back,1,m,Fri Apr 04 2025 15:56:12 GMT-0500 (Central Daylight Time),691537.3000000119,176_o_m_n_a.png,O,m,1251,15,1,2272.5,689264.8000000119,7112,NNB,B,13
10,test,2,0.0,2-Back,1,m,Fri Apr 04 2025 15:56:12 GMT-0500 (Central Daylight Time),693953.1000000238,110_o_f_n_a.png,O,m,1377,16,1,2396.5,691556.6000000238,7112,NNB,B,14
10,test,2,0.0,2-Back,0,m,Fri Apr 04 2025 15:56:12 GMT-0500 (Central Daylight Time),695919.1999999881,126_m_m_n_a.png,O,z,929,17,1,1945.5,693973.6999999881,7112,NNB,B,15
10,test,2,1.0,2-Back,0,z,Fri Apr 04 2025 15:56:12 GMT-0500 (Central Daylight Time),698068.9000000358,110_o_f_n_a.png,O,m,1114,18,1,2132.400000035763,695936.5,7112,NNB,B,16
0,test,3,1.0,2-Back,,,Fri Apr 04 2025 15:56:12 GMT-0500 (Central Daylight Time),698068.9000000358,153_y_m_n_a.png,O,space,1486,1,1,2132.400000035763,695936.5,7112,NNB,B,0
0,test,3,1.0,2-Back,,,Fri Apr 04 2025 15:56:12 GMT-0500 (Central Daylight Time),698068.9000000358,153_y_m_n_a.png,O,space,1486,2,1,2132.400000035763,695936.5,7112,NNB,B,0
1,test,3,0.0,2-Back,1,m,Fri Apr 04 2025 15:56:12 GMT-0500 (Central Daylight Time),706615.8000000119,110_o_f_n_a.png,O,m,827,3,1,1843.3999999761581,704772.4000000358,7112,NNB,B,1
2,test,3,0.0,2-Back,1,m,Fri Apr 04 2025 15:56:12 GMT-0500 (Central Daylight Time),709514.6999999881,178_m_m_n_a.png,O,m,1859,4,1,2881.899999976158,706632.8000000119,7112,NNB,B,2
3,test,3,1.0,2-Back,1,z,Fri Apr 04 2025 15:56:12 GMT-0500 (Central Daylight Time),711847.1000000238,110_o_f_n_a.png,O,z,1296,5,1,2312.0,709535.1000000238,7112,NNB,B,3
4,test,3,0.0,2-Back,1,m,Fri Apr 04 2025 15:56:12 GMT-0500 (Central Daylight Time),714645.9000000358,013_y_m_n_a.png,O,m,1763,6,1,2782.400000035763,711863.5,7112,NNB,B,4
4,test,3,0.0,2-Back,0,m,Fri Apr 04 2025 15:56:12 GMT-0500 (Central Daylight Time),716845.5,178_m_m_n_a.png,O,z,1156,7,1,2181.800000011921,714663.6999999881,7112,NNB,B,5
4,test,3,1.0,2-Back,0,z,Fri Apr 04 2025 15:56:12 GMT-0500 (Central Daylight Time),719045.3000000119,013_y_m_n_a.png,O,m,1165,8,1,2180.699999988079,716864.6000000238,7112,NNB,B,6
5,test,3,0.0,2-Back,1,m,Fri Apr 04 2025 15:56:12 GMT-0500 (Central Daylight Time),721677.3000000119,173_y_f_n_a.png,O,m,1590,9,1,2615.5,719061.8000000119,7112,NNB,B,7
5,test,3,0.0,2-Back,0,m,Fri Apr 04 2025 15:56:12 GMT-0500 (Central Daylight Time),724725.5,126_m_m_n_a.png,O,None,2013,10,1,3032.5,721693.0,7112,NNB,B,8
6,test,3,1.0,2-Back,1,z,Fri Apr 04 2025 15:56:12 GMT-0500 (Central Daylight Time),727042.1000000238,173_y_f_n_a.png,O,z,1285,11,1,2311.600000023842,724730.5,7112,NNB,B,9
6,test,3,1.0,2-Back,0,z,Fri Apr 04 2025 15:56:12 GMT-0500 (Central Daylight Time),729441.5,126_m_m_n_a.png,O,m,1349,12,1,2379.899999976158,727061.6000000238,7112,NNB,B,10
6,test,3,0.0,2-Back,0,m,Fri Apr 04 2025 15:56:12 GMT-0500 (Central Daylight Time),731657.0,110_o_f_n_a.png,O,z,1168,13,1,2200.399999976158,729456.6000000238,7112,NNB,B,11
7,test,3,0.0,2-Back,1,m,Fri Apr 04 2025 15:56:12 GMT-0500 (Central Daylight Time),733690.1999999881,097_m_f_n_a.png,O,m,1001,14,1,2023.5999999642372,731666.6000000238,7112,NNB,B,12
8,test,3,0.0,2-Back,1,m,Fri Apr 04 2025 15:56:12 GMT-0500 (Central Daylight Time),736006.0,065_o_m_n_a.png,O,m,1272,15,1,2299.399999976158,733706.6000000238,7112,NNB,B,13
8,test,3,1.0,2-Back,0,z,Fri Apr 04 2025 15:56:12 GMT-0500 (Central Daylight Time),737988.5,097_m_f_n_a.png,O,m,940,16,1,1963.699999988079,736024.8000000119,7112,NNB,B,14
9,test,3,0.0,2-Back,1,m,Fri Apr 04 2025 15:56:12 GMT-0500 (Central Daylight Time),740404.5,086_o_f_n_a.png,O,m,1366,17,1,2396.800000011921,738007.6999999881,7112,NNB,B,15
9,test,3,0.0,2-Back,0,m,Fri Apr 04 2025 15:56:12 GMT-0500 (Central Daylight Time),743453.5,086_o_f_n_a.png,O,None,2014,18,1,3030.899999976158,740422.6000000238,7112,NNB,B,16
0,test,4,0.0,2-Back,,,Fri Apr 04 2025 15:56:12 GMT-0500 (Central Daylight Time),743453.5,176_o_m_n_a.png,O,space,1581,1,1,3030.899999976158,740422.6000000238,7112,NNB,B,0
0,test,4,0.0,2-Back,,,Fri Apr 04 2025 15:56:12 GMT-0500 (Central Daylight Time),743453.5,152_y_f_n_a.png,O,space,1581,2,1,3030.899999976158,740422.6000000238,7112,NNB,B,0
1,test,4,1.0,2-Back,1,z,Fri Apr 04 2025 15:56:12 GMT-0500 (Central Daylight Time),752450.8000000119,176_o_m_n_a.png,O,z,1016,3,1,2047.800000011921,750403.0,7112,NNB,B,1
1,test,4,1.0,2-Back,0,z,Fri Apr 04 2025 15:56:12 GMT-0500 (Central Daylight Time),754317.1000000238,152_y_f_n_a.png,O,m,831,4,1,1849.1000000238419,752468.0,7112,NNB,B,2
1,test,4,0.0,2-Back,0,m,Fri Apr 04 2025 15:56:12 GMT-0500 (Central Daylight Time),757365.5,110_o_f_n_a.png,O,None,2014,5,1,3031.699999988079,754333.8000000119,7112,NNB,B,3
1,test,4,0.0,2-Back,0,m,Fri Apr 04 2025 15:56:12 GMT-0500 (Central Daylight Time),759731.6000000238,110_o_f_n_a.png,O,z,1324,6,1,2347.100000023842,757384.5,7112,NNB,B,4
2,test,4,0.0,2-Back,1,m,Fri Apr 04 2025 15:56:12 GMT-0500 (Central Daylight Time),762213.9000000358,029_m_f_n_a.png,O,m,1447,7,1,2464.400000035763,759749.5,7112,NNB,B,5
3,test,4,0.0,2-Back,1,m,Fri Apr 04 2025 15:56:12 GMT-0500 (Central Daylight Time),764363.1000000238,013_y_m_n_a.png,O,m,1109,8,1,2123.5,762239.6000000238,7112,NNB,B,6
4,test,4,1.0,2-Back,1,z,Fri Apr 04 2025 15:56:12 GMT-0500 (Central Daylight Time),766262.4000000358,029_m_f_n_a.png,O,z,862,9,1,1883.4000000357628,764379.0,7112,NNB,B,7
5,test,4,0.0,2-Back,1,m,Fri Apr 04 2025 15:56:12 GMT-0500 (Central Daylight Time),768345.3000000119,126_m_m_n_a.png,O,m,1043,10,1,2065.800000011921,766279.5,7112,NNB,B,8
6,test,4,0.0,2-Back,1,m,Fri Apr 04 2025 15:56:12 GMT-0500 (Central Daylight Time),770611.1999999881,013_y_m_n_a.png,O,m,1216,11,1,2249.599999964237,768361.6000000238,7112,NNB,B,9
6,test,4,0.0,2-Back,0,m,Fri Apr 04 2025 15:56:12 GMT-0500 (Central Daylight Time),773660.4000000358,086_o_f_n_a.png,O,None,2014,12,1,3026.900000035763,770633.5,7112,NNB,B,10
7,test,4,0.0,2-Back,1,m,Fri Apr 04 2025 15:56:12 GMT-0500 (Central Daylight Time),775442.6999999881,153_y_m_n_a.png,O,m,732,13,1,1765.3999999761581,773677.3000000119,7112,NNB,B,11
7,test,4,1.0,2-Back,0,z,Fri Apr 04 2025 15:56:12 GMT-0500 (Central Daylight Time),777709.6000000238,086_o_f_n_a.png,O,m,1248,14,1,2257.5,775452.1000000238,7112,NNB,B,12
8,test,4,1.0,2-Back,1,z,Fri Apr 04 2025 15:56:12 GMT-0500 (Central Daylight Time),780157.6000000238,153_y_m_n_a.png,O,z,1414,15,1,2431.900000035763,777725.6999999881,7112,NNB,B,13
9,test,4,0.0,2-Back,1,m,Fri Apr 04 2025 15:56:12 GMT-0500 (Central Daylight Time),781957.3000000119,178_m_m_n_a.png,O,m,755,16,1,1783.1000000238419,780174.1999999881,7112,NNB,B,14
10,test,4,0.0,2-Back,1,m,Fri Apr 04 2025 15:56:12 GMT-0500 (Central Daylight Time),783790.1000000238,097_m_f_n_a.png,O,m,796,17,1,1811.0,781979.1000000238,7112,NNB,B,15
10,test,4,1.0,2-Back,0,z,Fri Apr 04 2025 15:56:12 GMT-0500 (Central Daylight Time),785939.5,178_m_m_n_a.png,O,m,1100,18,1,2125.099999964237,783814.4000000358,7112,NNB,B,16
0,test,5,1.0,2-Back,,,Fri Apr 04 2025 15:56:12 GMT-0500 (Central Daylight Time),785939.5,153_y_m_n_a.png,O,space,1300,1,1,2125.099999964237,783814.4000000358,7112,NNB,B,0
0,test,5,1.0,2-Back,,,Fri Apr 04 2025 15:56:12 GMT-0500 (Central Daylight Time),785939.5,097_m_f_n_a.png,O,space,1300,2,1,2125.099999964237,783814.4000000358,7112,NNB,B,0
0,test,5,1.0,2-Back,0,z,Fri Apr 04 2025 15:56:12 GMT-0500 (Central Daylight Time),795086.5,153_y_m_n_a.png,O,m,1594,3,1,2608.399999976158,792478.1000000238,7112,NNB,B,1
0,test,5,1.0,2-Back,0,z,Fri Apr 04 2025 15:56:12 GMT-0500 (Central Daylight Time),798252.6999999881,097_m_f_n_a.png,O,None,2003,4,1,3149.0,795103.6999999881,7112,NNB,B,2
1,test,5,0.0,2-Back,1,m,Fri Apr 04 2025 15:56:12 GMT-0500 (Central Daylight Time),800684.1000000238,086_o_f_n_a.png,O,m,1390,5,1,2410.0,798274.1000000238,7112,NNB,B,3
2,test,5,0.0,2-Back,1,m,Fri Apr 04 2025 15:56:12 GMT-0500 (Central Daylight Time),803501.1999999881,153_y_m_n_a.png,O,m,1798,6,1,2806.599999964237,800694.6000000238,7112,NNB,B,4
2,test,5,0.0,2-Back,0,m,Fri Apr 04 2025 15:56:12 GMT-0500 (Central Daylight Time),805449.6999999881,173_y_f_n_a.png,O,z,912,7,1,1929.3999999761581,803520.3000000119,7112,NNB,B,5
3,test,5,0.0,2-Back,1,m,Fri Apr 04 2025 15:56:12 GMT-0500 (Central Daylight Time),807332.5,086_o_f_n_a.png,O,m,833,8,1,1866.3999999761581,805466.1000000238,7112,NNB,B,6
3,test,5,1.0,2-Back,0,z,Fri Apr 04 2025 15:56:12 GMT-0500 (Central Daylight Time),809182.0,173_y_f_n_a.png,O,m,805,9,1,1831.5999999642372,807350.4000000358,7112,NNB,B,7
3,test,5,0.0,2-Back,0,m,Fri Apr 04 2025 15:56:12 GMT-0500 (Central Daylight Time),811064.6000000238,065_o_m_n_a.png,O,z,843,10,1,1864.4000000357628,809200.1999999881,7112,NNB,B,8
4,test,5,0.0,2-Back,1,m,Fri Apr 04 2025 15:56:12 GMT-0500 (Central Daylight Time),812730.0,029_m_f_n_a.png,O,m,617,11,1,1648.199999988079,811081.8000000119,7112,NNB,B,9
5,test,5,0.0,2-Back,1,m,Fri Apr 04 2025 15:56:12 GMT-0500 (Central Daylight Time),814596.8000000119,126_m_m_n_a.png,O,m,839,12,1,1858.800000011921,812738.0,7112,NNB,B,10
5,test,5,0.0,2-Back,0,m,Fri Apr 04 2025 15:56:12 GMT-0500 (Central Daylight Time),816413.6999999881,065_o_m_n_a.png,O,z,782,13,1,1797.8999999761581,814615.8000000119,7112,NNB,B,11
5,test,5,1.0,2-Back,0,z,Fri Apr 04 2025 15:56:12 GMT-0500 (Central Daylight Time),818112.1000000238,126_m_m_n_a.png,O,m,655,14,1,1678.9000000357628,816433.1999999881,7112,NNB,B,12
6,test,5,0.0,2-Back,1,m,Fri Apr 04 2025 15:56:12 GMT-0500 (Central Daylight Time),819961.6000000238,152_y_f_n_a.png,O,m,827,15,1,1840.6000000238419,818121.0,7112,NNB,B,13
7,test,5,0.0,2-Back,1,m,Fri Apr 04 2025 15:56:12 GMT-0500 (Central Daylight Time),822177.6000000238,176_o_m_n_a.png,O,m,1151,16,1,2186.100000023842,819991.5,7112,NNB,B,14
8,test,5,0.0,2-Back,1,m,Fri Apr 04 2025 15:56:12 GMT-0500 (Central Daylight Time),824776.8000000119,029_m_f_n_a.png,O,m,1560,17,1,2574.199999988079,822202.6000000238,7112,NNB,B,15
9,test,5,1.0,2-Back,1,z,Fri Apr 04 2025 15:56:12 GMT-0500 (Central Daylight Time),826808.6000000238,176_o_m_n_a.png,O,z,984,18,1,2008.800000011921,824799.8000000119,7112,NNB,B,16
