acc_sum,block,block_c,change,condition,correct,correct_response,datetime,endtime,face,project,response,response_time,row_sel,session_number,start_end,starttime,subject_id,task,task_vers,trial
0,prac,1,,1-Back,,,Wed Apr 09 2025 17:29:42 GMT-0500 (Central Daylight Time),,005_o_f_d_a.png,O,space,20167,1,1,,,7124,VNB,B,0
0,prac,1,0.0,1-Back,0,m,Wed Apr 09 2025 17:29:42 GMT-0500 (Central Daylight Time),195558.09999999776,020_y_f_n_a.png,O,None,2014,2,1,2873.89999999851,192684.19999999925,7124,VNB,B,1
0,prac,1,0.0,1-Back,0,m,Wed Apr 09 2025 17:29:42 GMT-0500 (Central Daylight Time),198457.30000000075,007_m_m_h_a.png,O,None,2012,3,1,2893.5,195563.80000000075,7124,VNB,B,2
0,prac,1,0.0,1-Back,0,m,Wed Apr 09 2025 17:29:42 GMT-0500 (Central Daylight Time),201356.30000000075,016_y_m_d_a.png,O,None,2010,4,1,2891.900000002235,198464.3999999985,7124,VNB,B,3
0,prac,1,0.0,1-Back,0,m,Wed Apr 09 2025 17:29:42 GMT-0500 (Central Daylight Time),204238.69999999925,005_o_f_n_a.png,O,None,2003,5,1,2876.199999999255,201362.5,7124,VNB,B,4
1,prac,1,1.0,1-Back,1,z,Wed Apr 09 2025 17:29:42 GMT-0500 (Central Daylight Time),206537.8999999985,016_y_m_n_a.png,O,z,1401,6,1,2291.800000000745,204246.09999999776,7124,VNB,B,5
2,prac,1,0.0,1-Back,1,m,Wed Apr 09 2025 17:29:42 GMT-0500 (Central Daylight Time),208853.8999999985,004_o_m_h_a.png,O,m,1449,7,1,2308.699999999255,206545.19999999925,7124,VNB,B,6
2,prac,1,0.0,1-Back,0,m,Wed Apr 09 2025 17:29:42 GMT-0500 (Central Daylight Time),210853.09999999776,011_m_f_d_a.png,O,z,1115,8,1,1992.7999999970198,208860.30000000075,7124,VNB,B,7
3,prac,1,1.0,1-Back,1,z,Wed Apr 09 2025 17:29:42 GMT-0500 (Central Daylight Time),213535.80000000075,020_y_f_d_a.png,O,z,1797,9,1,2676.800000000745,210859.0,7124,VNB,B,8
3,prac,1,0.0,1-Back,0,m,Wed Apr 09 2025 17:29:42 GMT-0500 (Central Daylight Time),216118.30000000075,007_m_m_n_a.png,O,z,1689,10,1,2576.5,213541.80000000075,7124,VNB,B,9
4,prac,1,0.0,1-Back,1,m,Wed Apr 09 2025 17:29:42 GMT-0500 (Central Daylight Time),218784.09999999776,005_o_f_h_a.png,O,m,1770,11,1,2660.599999997765,216123.5,7124,VNB,B,10
5,prac,1,0.0,1-Back,1,m,Wed Apr 09 2025 17:29:42 GMT-0500 (Central Daylight Time),221100.09999999776,016_y_m_d_a.png,O,m,1413,12,1,2309.89999999851,218790.19999999925,7124,VNB,B,11
0,prac,2,0.0,1-Back,,,Wed Apr 09 2025 17:29:42 GMT-0500 (Central Daylight Time),221100.09999999776,005_o_f_d_a.png,O,a,2089,1,1,2309.89999999851,218790.19999999925,7124,VNB,B,0
1,prac,2,0.0,1-Back,1,m,Wed Apr 09 2025 17:29:42 GMT-0500 (Central Daylight Time),228464.30000000075,020_y_f_n_a.png,O,m,1357,2,1,2224.7000000029802,226239.59999999776,7124,VNB,B,1
2,prac,2,0.0,1-Back,1,m,Wed Apr 09 2025 17:29:42 GMT-0500 (Central Daylight Time),230930.5,007_m_m_h_a.png,O,m,1578,3,1,2459.60000000149,228470.8999999985,7124,VNB,B,2
2,prac,2,0.0,1-Back,0,m,Wed Apr 09 2025 17:29:42 GMT-0500 (Central Daylight Time),232829.69999999925,016_y_m_d_a.png,O,z,1122,4,1,1894.1000000014901,230935.59999999776,7124,VNB,B,3
3,prac,2,0.0,1-Back,1,m,Wed Apr 09 2025 17:29:42 GMT-0500 (Central Daylight Time),235545.69999999925,005_o_f_n_a.png,O,m,1834,5,1,2709.0,232836.69999999925,7124,VNB,B,4
3,prac,2,1.0,1-Back,0,z,Wed Apr 09 2025 17:29:42 GMT-0500 (Central Daylight Time),238278.0,016_y_m_n_a.png,O,m,1838,6,1,2726.5,235551.5,7124,VNB,B,5
4,prac,2,0.0,1-Back,1,m,Wed Apr 09 2025 17:29:42 GMT-0500 (Central Daylight Time),240177.5,004_o_m_h_a.png,O,m,1029,7,1,1893.6000000014901,238283.8999999985,7124,VNB,B,6
5,prac,2,0.0,1-Back,1,m,Wed Apr 09 2025 17:29:42 GMT-0500 (Central Daylight Time),242510.0,011_m_f_d_a.png,O,m,1448,8,1,2326.900000002235,240183.09999999776,7124,VNB,B,7
5,prac,2,1.0,1-Back,0,z,Wed Apr 09 2025 17:29:42 GMT-0500 (Central Daylight Time),245394.30000000075,020_y_f_d_a.png,O,None,2014,9,1,2877.400000002235,242516.8999999985,7124,VNB,B,8
5,prac,2,0.0,1-Back,0,m,Wed Apr 09 2025 17:29:42 GMT-0500 (Central Daylight Time),248291.30000000075,007_m_m_n_a.png,O,None,2010,10,1,2890.60000000149,245400.69999999925,7124,VNB,B,9
6,prac,2,0.0,1-Back,1,m,Wed Apr 09 2025 17:29:42 GMT-0500 (Central Daylight Time),250507.5,005_o_f_h_a.png,O,m,1322,11,1,2209.699999999255,248297.80000000075,7124,VNB,B,10
7,prac,2,0.0,1-Back,1,m,Wed Apr 09 2025 17:29:42 GMT-0500 (Central Daylight Time),252740.19999999925,016_y_m_d_a.png,O,m,1319,12,1,2226.60000000149,250513.59999999776,7124,VNB,B,11
0,test,1,0.0,1-Back,,,Wed Apr 09 2025 17:29:42 GMT-0500 (Central Daylight Time),252740.19999999925,020_y_f_d_a.png,O,space,13431,1,1,2226.60000000149,250513.59999999776,7124,VNB,B,0
0,test,1,0.0,1-Back,0,m,Wed Apr 09 2025 17:29:42 GMT-0500 (Central Daylight Time),274900.0,011_m_f_n_a.png,O,z,1672,2,1,2695.0,272205.0,7124,VNB,B,1
0,test,1,0.0,1-Back,0,m,Wed Apr 09 2025 17:29:42 GMT-0500 (Central Daylight Time),277932.5,004_o_m_h_a.png,O,None,2015,3,1,3028.800000000745,274903.69999999925,7124,VNB,B,2
0,test,1,1.0,1-Back,0,z,Wed Apr 09 2025 17:29:42 GMT-0500 (Central Daylight Time),280198.09999999776,007_m_m_h_a.png,O,m,1237,4,1,2261.699999999255,277936.3999999985,7124,VNB,B,3
1,test,1,0.0,1-Back,1,m,Wed Apr 09 2025 17:29:42 GMT-0500 (Central Daylight Time),282580.69999999925,005_o_f_n_a.png,O,m,1355,5,1,2379.0,280201.69999999925,7124,VNB,B,4
1,test,1,0.0,1-Back,0,m,Wed Apr 09 2025 17:29:42 GMT-0500 (Central Daylight Time),284714.59999999776,016_y_m_d_a.png,O,z,1107,6,1,2129.2999999970198,282585.30000000075,7124,VNB,B,5
2,test,1,1.0,1-Back,1,z,Wed Apr 09 2025 17:29:42 GMT-0500 (Central Daylight Time),286429.59999999776,011_m_f_d_a.png,O,z,688,7,1,1710.699999999255,284718.8999999985,7124,VNB,B,6
3,test,1,0.0,1-Back,1,m,Wed Apr 09 2025 17:29:42 GMT-0500 (Central Daylight Time),288045.69999999925,020_y_f_h_a.png,O,m,596,8,1,1612.5,286433.19999999925,7124,VNB,B,7
3,test,1,0.0,1-Back,0,m,Wed Apr 09 2025 17:29:42 GMT-0500 (Central Daylight Time),291078.19999999925,004_o_m_n_a.png,O,None,2015,9,1,3028.300000000745,288049.8999999985,7124,VNB,B,8
4,test,1,0.0,1-Back,1,m,Wed Apr 09 2025 17:29:42 GMT-0500 (Central Daylight Time),292944.09999999776,016_y_m_h_a.png,O,m,835,10,1,1861.699999999255,291082.3999999985,7124,VNB,B,9
4,test,1,0.0,1-Back,0,m,Wed Apr 09 2025 17:29:42 GMT-0500 (Central Daylight Time),294610.5,004_o_m_d_a.png,O,z,632,11,1,1662.4000000022352,292948.09999999776,7124,VNB,B,10
5,test,1,1.0,1-Back,1,z,Wed Apr 09 2025 17:29:42 GMT-0500 (Central Daylight Time),297292.80000000075,005_o_f_d_a.png,O,z,1655,12,1,2678.300000000745,294614.5,7124,VNB,B,11
5,test,1,0.0,1-Back,0,m,Wed Apr 09 2025 17:29:42 GMT-0500 (Central Daylight Time),299292.19999999925,007_m_m_n_a.png,O,z,980,13,1,1996.0,297296.19999999925,7124,VNB,B,12
6,test,1,1.0,1-Back,1,z,Wed Apr 09 2025 17:29:42 GMT-0500 (Central Daylight Time),301408.19999999925,020_y_f_n_a.png,O,z,1093,14,1,2111.300000000745,299296.8999999985,7124,VNB,B,13
6,test,1,0.0,1-Back,0,m,Wed Apr 09 2025 17:29:42 GMT-0500 (Central Daylight Time),304440.69999999925,011_m_f_h_a.png,O,None,2016,15,1,3028.800000000745,301411.8999999985,7124,VNB,B,14
6,test,1,0.0,1-Back,0,m,Wed Apr 09 2025 17:29:42 GMT-0500 (Central Daylight Time),306156.69999999925,007_m_m_d_a.png,O,z,697,16,1,1711.699999999255,304445.0,7124,VNB,B,15
6,test,1,0.0,1-Back,0,m,Wed Apr 09 2025 17:29:42 GMT-0500 (Central Daylight Time),308972.59999999776,016_y_m_n_a.png,O,z,1796,17,1,2811.599999997765,306161.0,7124,VNB,B,16
6,test,1,0.0,1-Back,0,m,Wed Apr 09 2025 17:29:42 GMT-0500 (Central Daylight Time),311721.69999999925,005_o_f_h_a.png,O,z,1717,18,1,2745.699999999255,308976.0,7124,VNB,B,17
0,test,2,0.0,1-Back,,,Wed Apr 09 2025 17:29:42 GMT-0500 (Central Daylight Time),311721.69999999925,016_y_m_n_a.png,O,space,1272,1,1,2745.699999999255,308976.0,7124,VNB,B,0
1,test,2,0.0,1-Back,1,m,Wed Apr 09 2025 17:29:42 GMT-0500 (Central Daylight Time),317253.09999999776,020_y_f_h_a.png,O,m,1212,2,1,2228.0,315025.09999999776,7124,VNB,B,1
2,test,2,1.0,1-Back,1,m,Wed Apr 09 2025 17:29:42 GMT-0500 (Central Daylight Time),319452.19999999925,004_o_m_n_a.png,O,m,1180,3,1,2195.60000000149,317256.59999999776,7124,VNB,B,2
3,test,2,0.0,1-Back,1,m,Wed Apr 09 2025 17:29:42 GMT-0500 (Central Daylight Time),321318.69999999925,011_m_f_d_a.png,O,m,844,4,1,1862.6000000014901,319456.09999999776,7124,VNB,B,3
4,test,2,0.0,1-Back,1,z,Wed Apr 09 2025 17:29:42 GMT-0500 (Central Daylight Time),323334.69999999925,007_m_m_d_a.png,O,z,987,5,1,2011.699999999255,321323.0,7124,VNB,B,4
5,test,2,0.0,1-Back,1,m,Wed Apr 09 2025 17:29:42 GMT-0500 (Central Daylight Time),325279.09999999776,016_y_m_h_a.png,O,m,927,6,1,1940.2999999970198,323338.80000000075,7124,VNB,B,5
5,test,2,1.0,1-Back,0,z,Wed Apr 09 2025 17:29:42 GMT-0500 (Central Daylight Time),327684.30000000075,005_o_f_h_a.png,O,m,1381,7,1,2401.0,325283.30000000075,7124,VNB,B,6
6,test,2,0.0,1-Back,1,m,Wed Apr 09 2025 17:29:42 GMT-0500 (Central Daylight Time),329749.30000000075,011_m_f_n_a.png,O,m,1046,8,1,2060.800000000745,327688.5,7124,VNB,B,7
7,test,2,0.0,1-Back,1,m,Wed Apr 09 2025 17:29:42 GMT-0500 (Central Daylight Time),331665.5,020_y_f_d_a.png,O,m,884,9,1,1911.4000000022352,329754.09999999776,7124,VNB,B,8
7,test,2,0.0,1-Back,0,m,Wed Apr 09 2025 17:29:42 GMT-0500 (Central Daylight Time),333764.69999999925,007_m_m_n_a.png,O,z,1072,10,1,2094.60000000149,331670.09999999776,7124,VNB,B,9
8,test,2,1.0,1-Back,1,m,Wed Apr 09 2025 17:29:42 GMT-0500 (Central Daylight Time),335597.5,011_m_f_h_a.png,O,m,812,11,1,1828.4000000022352,333769.09999999776,7124,VNB,B,10
9,test,2,0.0,1-Back,1,z,Wed Apr 09 2025 17:29:42 GMT-0500 (Central Daylight Time),337563.69999999925,004_o_m_h_a.png,O,z,939,12,1,1961.699999999255,335602.0,7124,VNB,B,11
10,test,2,0.0,1-Back,1,m,Wed Apr 09 2025 17:29:42 GMT-0500 (Central Daylight Time),339246.5,016_y_m_d_a.png,O,m,662,13,1,1678.699999999255,337567.80000000075,7124,VNB,B,12
11,test,2,0.0,1-Back,1,m,Wed Apr 09 2025 17:29:42 GMT-0500 (Central Daylight Time),340995.8999999985,005_o_f_n_a.png,O,m,731,14,1,1745.199999999255,339250.69999999925,7124,VNB,B,13
11,test,2,0.0,1-Back,0,z,Wed Apr 09 2025 17:29:42 GMT-0500 (Central Daylight Time),342778.59999999776,020_y_f_n_a.png,O,m,750,15,1,1778.5999999977648,341000.0,7124,VNB,B,14
12,test,2,1.0,1-Back,1,m,Wed Apr 09 2025 17:29:42 GMT-0500 (Central Daylight Time),344928.09999999776,007_m_m_h_a.png,O,m,1118,16,1,2145.699999999255,342782.3999999985,7124,VNB,B,15
13,test,2,0.0,1-Back,1,m,Wed Apr 09 2025 17:29:42 GMT-0500 (Central Daylight Time),346794.09999999776,005_o_f_d_a.png,O,m,833,17,1,1861.7999999970198,344932.30000000075,7124,VNB,B,16
14,test,2,1.0,1-Back,1,z,Wed Apr 09 2025 17:29:42 GMT-0500 (Central Daylight Time),348971.69999999925,004_o_m_d_a.png,O,z,1014,18,1,2173.800000000745,346797.8999999985,7124,VNB,B,17
0,test,3,1.0,1-Back,,,Wed Apr 09 2025 17:29:42 GMT-0500 (Central Daylight Time),348971.69999999925,005_o_f_h_a.png,O,space,885,1,1,2173.800000000745,346797.8999999985,7124,VNB,B,0
0,test,3,0.0,1-Back,0,m,Wed Apr 09 2025 17:29:42 GMT-0500 (Central Daylight Time),354624.80000000075,011_m_f_d_a.png,O,z,1617,2,1,2644.2000000029802,351980.59999999776,7124,VNB,B,1
1,test,3,1.0,1-Back,1,m,Wed Apr 09 2025 17:29:42 GMT-0500 (Central Daylight Time),356774.30000000075,007_m_m_n_a.png,O,m,1120,3,1,2145.400000002235,354628.8999999985,7124,VNB,B,2
1,test,3,0.0,1-Back,0,z,Wed Apr 09 2025 17:29:42 GMT-0500 (Central Daylight Time),358423.69999999925,005_o_f_n_a.png,O,m,619,4,1,1646.1000000014901,356777.59999999776,7124,VNB,B,3
2,test,3,1.0,1-Back,1,m,Wed Apr 09 2025 17:29:42 GMT-0500 (Central Daylight Time),360039.8999999985,004_o_m_d_a.png,O,m,585,5,1,1611.5,358428.3999999985,7124,VNB,B,4
2,test,3,0.0,1-Back,0,m,Wed Apr 09 2025 17:29:42 GMT-0500 (Central Daylight Time),361955.80000000075,020_y_f_h_a.png,O,z,898,6,1,1911.1000000014901,360044.69999999925,7124,VNB,B,5
2,test,3,0.0,1-Back,0,z,Wed Apr 09 2025 17:29:42 GMT-0500 (Central Daylight Time),363938.69999999925,016_y_m_h_a.png,O,m,965,7,1,1978.0,361960.69999999925,7124,VNB,B,6
2,test,3,0.0,1-Back,0,m,Wed Apr 09 2025 17:29:42 GMT-0500 (Central Daylight Time),366104.69999999925,011_m_f_n_a.png,O,z,1143,8,1,2162.39999999851,363942.30000000075,7124,VNB,B,7
3,test,3,0.0,1-Back,1,m,Wed Apr 09 2025 17:29:42 GMT-0500 (Central Daylight Time),368270.69999999925,020_y_f_d_a.png,O,m,1144,9,1,2162.39999999851,366108.30000000075,7124,VNB,B,8
4,test,3,1.0,1-Back,1,m,Wed Apr 09 2025 17:29:42 GMT-0500 (Central Daylight Time),369953.3999999985,004_o_m_n_a.png,O,m,650,10,1,1678.5999999977648,368274.80000000075,7124,VNB,B,9
4,test,3,0.0,1-Back,0,m,Wed Apr 09 2025 17:29:42 GMT-0500 (Central Daylight Time),371719.59999999776,007_m_m_h_a.png,O,z,743,11,1,1762.699999999255,369956.8999999985,7124,VNB,B,10
5,test,3,0.0,1-Back,1,z,Wed Apr 09 2025 17:29:42 GMT-0500 (Central Daylight Time),374002.30000000075,011_m_f_h_a.png,O,z,1257,12,1,2279.10000000149,371723.19999999925,7124,VNB,B,11
6,test,3,1.0,1-Back,1,m,Wed Apr 09 2025 17:29:42 GMT-0500 (Central Daylight Time),375851.5,005_o_f_d_a.png,O,m,823,13,1,1845.1000000014901,374006.3999999985,7124,VNB,B,12
6,test,3,0.0,1-Back,0,z,Wed Apr 09 2025 17:29:42 GMT-0500 (Central Daylight Time),377385.59999999776,007_m_m_d_a.png,O,m,510,14,1,1530.5,375855.09999999776,7124,VNB,B,13
7,test,3,0.0,1-Back,1,m,Wed Apr 09 2025 17:29:42 GMT-0500 (Central Daylight Time),379117.19999999925,016_y_m_n_a.png,O,m,705,15,1,1727.300000000745,377389.8999999985,7124,VNB,B,14
7,test,3,1.0,1-Back,0,m,Wed Apr 09 2025 17:29:42 GMT-0500 (Central Daylight Time),380550.30000000075,004_o_m_h_a.png,O,z,404,16,1,1429.5,379120.80000000075,7124,VNB,B,15
8,test,3,0.0,1-Back,1,m,Wed Apr 09 2025 17:29:42 GMT-0500 (Central Daylight Time),382216.30000000075,016_y_m_d_a.png,O,m,635,17,1,1662.1000000014901,380554.19999999925,7124,VNB,B,16
8,test,3,1.0,1-Back,0,m,Wed Apr 09 2025 17:29:42 GMT-0500 (Central Daylight Time),383915.80000000075,020_y_f_n_a.png,O,z,673,18,1,1695.4000000022352,382220.3999999985,7124,VNB,B,17
0,test,4,1.0,1-Back,,,Wed Apr 09 2025 17:29:42 GMT-0500 (Central Daylight Time),383915.80000000075,007_m_m_d_a.png,O,space,837,1,1,1695.4000000022352,382220.3999999985,7124,VNB,B,0
0,test,4,0.0,1-Back,0,z,Wed Apr 09 2025 17:29:42 GMT-0500 (Central Daylight Time),389147.19999999925,004_o_m_d_a.png,O,m,1348,2,1,2361.10000000149,386786.09999999776,7124,VNB,B,1
0,test,4,0.0,1-Back,0,m,Wed Apr 09 2025 17:29:42 GMT-0500 (Central Daylight Time),390746.59999999776,016_y_m_h_a.png,O,z,582,3,1,1595.0,389151.59999999776,7124,VNB,B,2
0,test,4,0.0,1-Back,0,m,Wed Apr 09 2025 17:29:42 GMT-0500 (Central Daylight Time),392996.19999999925,011_m_f_n_a.png,O,z,1230,4,1,2245.5,390750.69999999925,7124,VNB,B,3
1,test,4,1.0,1-Back,1,m,Wed Apr 09 2025 17:29:42 GMT-0500 (Central Daylight Time),394729.09999999776,005_o_f_h_a.png,O,m,709,5,1,1728.699999999255,393000.3999999985,7124,VNB,B,4
1,test,4,0.0,1-Back,0,m,Wed Apr 09 2025 17:29:42 GMT-0500 (Central Daylight Time),396379.69999999925,007_m_m_n_a.png,O,z,624,6,1,1647.0,394732.69999999925,7124,VNB,B,5
1,test,4,0.0,1-Back,0,m,Wed Apr 09 2025 17:29:42 GMT-0500 (Central Daylight Time),397928.0,016_y_m_d_a.png,O,z,519,7,1,1544.699999999255,396383.30000000075,7124,VNB,B,6
2,test,4,1.0,1-Back,1,z,Wed Apr 09 2025 17:29:42 GMT-0500 (Central Daylight Time),399810.80000000075,020_y_f_d_a.png,O,z,857,8,1,1878.9000000022352,397931.8999999985,7124,VNB,B,7
3,test,4,0.0,1-Back,1,m,Wed Apr 09 2025 17:29:42 GMT-0500 (Central Daylight Time),401460.69999999925,011_m_f_h_a.png,O,m,631,9,1,1645.800000000745,399814.8999999985,7124,VNB,B,8
3,test,4,0.0,1-Back,0,z,Wed Apr 09 2025 17:29:42 GMT-0500 (Central Daylight Time),403176.3999999985,004_o_m_h_a.png,O,m,685,10,1,1711.800000000745,401464.59999999776,7124,VNB,B,9
3,test,4,1.0,1-Back,0,m,Wed Apr 09 2025 17:29:42 GMT-0500 (Central Daylight Time),404859.3999999985,005_o_f_n_a.png,O,z,657,11,1,1679.0999999977648,403180.30000000075,7124,VNB,B,10
3,test,4,0.0,1-Back,0,m,Wed Apr 09 2025 17:29:42 GMT-0500 (Central Daylight Time),406408.80000000075,011_m_f_d_a.png,O,z,518,12,1,1545.9000000022352,404862.8999999985,7124,VNB,B,11
3,test,4,0.0,1-Back,0,m,Wed Apr 09 2025 17:29:42 GMT-0500 (Central Daylight Time),409441.19999999925,020_y_f_n_a.png,O,None,2016,13,1,3028.199999999255,406413.0,7124,VNB,B,12
4,test,4,0.0,1-Back,1,m,Wed Apr 09 2025 17:29:42 GMT-0500 (Central Daylight Time),411623.69999999925,005_o_f_d_a.png,O,m,1160,14,1,2178.300000000745,409445.3999999985,7124,VNB,B,13
4,test,4,0.0,1-Back,0,m,Wed Apr 09 2025 17:29:42 GMT-0500 (Central Daylight Time),413906.30000000075,020_y_f_h_a.png,O,z,1250,15,1,2278.5,411627.80000000075,7124,VNB,B,14
4,test,4,1.0,1-Back,0,z,Wed Apr 09 2025 17:29:42 GMT-0500 (Central Daylight Time),415506.09999999776,007_m_m_h_a.png,O,m,567,16,1,1596.199999999255,413909.8999999985,7124,VNB,B,15
4,test,4,0.0,1-Back,0,m,Wed Apr 09 2025 17:29:42 GMT-0500 (Central Daylight Time),417472.0,004_o_m_n_a.png,O,z,943,17,1,1962.0,415510.0,7124,VNB,B,16
4,test,4,1.0,1-Back,0,z,Wed Apr 09 2025 17:29:42 GMT-0500 (Central Daylight Time),419452.09999999776,016_y_m_n_a.png,O,m,963,18,1,1976.0,417476.09999999776,7124,VNB,B,17
0,test,5,1.0,1-Back,,,Wed Apr 09 2025 17:29:42 GMT-0500 (Central Daylight Time),419452.09999999776,004_o_m_n_a.png,O,space,917,1,1,1976.0,417476.09999999776,7124,VNB,B,0
0,test,5,1.0,1-Back,0,m,Wed Apr 09 2025 17:29:42 GMT-0500 (Central Daylight Time),424153.19999999925,005_o_f_h_a.png,O,z,743,2,1,1761.800000000745,422391.3999999985,7124,VNB,B,1
0,test,5,0.0,1-Back,0,m,Wed Apr 09 2025 17:29:42 GMT-0500 (Central Daylight Time),426519.09999999776,016_y_m_d_a.png,O,z,1336,3,1,2361.89999999851,424157.19999999925,7124,VNB,B,2
0,test,5,0.0,1-Back,0,z,Wed Apr 09 2025 17:29:42 GMT-0500 (Central Daylight Time),428152.0,004_o_m_d_a.png,O,m,602,4,1,1629.1000000014901,426522.8999999985,7124,VNB,B,3
0,test,5,0.0,1-Back,0,m,Wed Apr 09 2025 17:29:42 GMT-0500 (Central Daylight Time),430851.19999999925,011_m_f_h_a.png,O,z,1673,5,1,2695.300000000745,428155.8999999985,7124,VNB,B,4
0,test,5,0.0,1-Back,0,m,Wed Apr 09 2025 17:29:42 GMT-0500 (Central Daylight Time),433883.5,020_y_f_n_a.png,O,None,2015,6,1,3028.5,430855.0,7124,VNB,B,5
0,test,5,1.0,1-Back,0,z,Wed Apr 09 2025 17:29:42 GMT-0500 (Central Daylight Time),436882.69999999925,005_o_f_n_a.png,O,m,1966,7,1,2995.300000000745,433887.3999999985,7124,VNB,B,6
0,test,5,0.0,1-Back,0,m,Wed Apr 09 2025 17:29:42 GMT-0500 (Central Daylight Time),439731.80000000075,011_m_f_d_a.png,O,z,1823,8,1,2845.0,436886.80000000075,7124,VNB,B,7
0,test,5,0.0,1-Back,0,m,Wed Apr 09 2025 17:29:42 GMT-0500 (Central Daylight Time),442764.09999999776,016_y_m_h_a.png,O,None,2016,9,1,3028.199999999255,439735.8999999985,7124,VNB,B,8
0,test,5,0.0,1-Back,0,m,Wed Apr 09 2025 17:29:42 GMT-0500 (Central Daylight Time),445363.0,020_y_f_d_a.png,O,z,1581,10,1,2594.800000000745,442768.19999999925,7124,VNB,B,9
0,test,5,0.0,1-Back,0,m,Wed Apr 09 2025 17:29:42 GMT-0500 (Central Daylight Time),447762.3999999985,007_m_m_n_a.png,O,z,1367,11,1,2395.699999999255,445366.69999999925,7124,VNB,B,10
1,test,5,1.0,1-Back,1,z,Wed Apr 09 2025 17:29:42 GMT-0500 (Central Daylight Time),449562.09999999776,011_m_f_n_a.png,O,z,767,12,1,1795.5999999977648,447766.5,7124,VNB,B,11
1,test,5,0.0,1-Back,0,m,Wed Apr 09 2025 17:29:42 GMT-0500 (Central Daylight Time),451677.8999999985,004_o_m_h_a.png,O,z,1087,13,1,2112.099999997765,449565.80000000075,7124,VNB,B,12
1,test,5,0.0,1-Back,0,z,Wed Apr 09 2025 17:29:42 GMT-0500 (Central Daylight Time),453260.80000000075,007_m_m_h_a.png,O,m,563,14,1,1579.2000000029802,451681.59999999776,7124,VNB,B,13
1,test,5,1.0,1-Back,0,m,Wed Apr 09 2025 17:29:42 GMT-0500 (Central Daylight Time),454976.80000000075,005_o_f_d_a.png,O,z,684,15,1,1712.7000000029802,453264.09999999776,7124,VNB,B,14
1,test,5,0.0,1-Back,0,m,Wed Apr 09 2025 17:29:42 GMT-0500 (Central Daylight Time),456826.59999999776,016_y_m_n_a.png,O,z,832,16,1,1846.199999999255,454980.3999999985,7124,VNB,B,15
2,test,5,0.0,1-Back,1,m,Wed Apr 09 2025 17:29:42 GMT-0500 (Central Daylight Time),458459.19999999925,020_y_f_h_a.png,O,m,607,17,1,1628.699999999255,456830.5,7124,VNB,B,16
2,test,5,0.0,1-Back,0,m,Wed Apr 09 2025 17:29:42 GMT-0500 (Central Daylight Time),461141.59999999776,007_m_m_d_a.png,O,z,1662,18,1,2678.5,458463.09999999776,7124,VNB,B,17
0,prac,1,0.0,2-Back,,,Wed Apr 09 2025 17:29:42 GMT-0500 (Central Daylight Time),461141.59999999776,011_m_f_n_a.png,O,space,15263,1,1,2678.5,458463.09999999776,7124,VNB,B,0
0,prac,1,0.0,2-Back,,,Wed Apr 09 2025 17:29:42 GMT-0500 (Central Daylight Time),461141.59999999776,005_o_f_h_a.png,O,space,15263,2,1,2678.5,458463.09999999776,7124,VNB,B,0
0,prac,1,0.0,2-Back,0,m,Wed Apr 09 2025 17:29:42 GMT-0500 (Central Daylight Time),669993.0,004_o_m_d_a.png,O,z,748,3,1,1610.6000000014901,668382.3999999985,7124,VNB,B,1
0,prac,1,1.0,2-Back,0,z,Wed Apr 09 2025 17:29:42 GMT-0500 (Central Daylight Time),672892.0999999978,007_m_m_h_a.png,O,None,2014,4,1,2893.89999999851,669998.1999999993,7124,VNB,B,2
0,prac,1,0.0,2-Back,0,m,Wed Apr 09 2025 17:29:42 GMT-0500 (Central Daylight Time),675774.5999999978,020_y_f_n_a.png,O,None,2014,5,1,2876.7999999970198,672897.8000000007,7124,VNB,B,3
0,prac,1,1.0,2-Back,0,z,Wed Apr 09 2025 17:29:42 GMT-0500 (Central Daylight Time),678290.3000000007,004_o_m_h_a.png,O,m,1652,6,1,2509.2000000029802,675781.0999999978,7124,VNB,B,4
1,prac,1,1.0,2-Back,1,z,Wed Apr 09 2025 17:29:42 GMT-0500 (Central Daylight Time),680922.8000000007,016_y_m_n_a.png,O,z,1597,7,1,2626.2000000029802,678296.5999999978,7124,VNB,B,5
1,prac,1,0.0,2-Back,0,m,Wed Apr 09 2025 17:29:42 GMT-0500 (Central Daylight Time),683838.8000000007,011_m_f_d_a.png,O,None,2017,8,1,2909.900000002235,680928.8999999985,7124,VNB,B,6
2,prac,1,0.0,2-Back,1,m,Wed Apr 09 2025 17:29:42 GMT-0500 (Central Daylight Time),686454.8000000007,005_o_f_d_a.png,O,m,1729,9,1,2609.5,683845.3000000007,7124,VNB,B,7
2,prac,1,0.0,2-Back,0,m,Wed Apr 09 2025 17:29:42 GMT-0500 (Central Daylight Time),688887.0,007_m_m_h_a.png,O,z,1646,10,1,2427.300000000745,686459.6999999993,7124,VNB,B,8
2,prac,1,1.0,2-Back,0,z,Wed Apr 09 2025 17:29:42 GMT-0500 (Central Daylight Time),691503.0999999978,020_y_f_d_a.png,O,m,1741,11,1,2610.89999999851,688892.1999999993,7124,VNB,B,9
2,prac,1,0.0,2-Back,0,m,Wed Apr 09 2025 17:29:42 GMT-0500 (Central Daylight Time),694368.6999999993,004_o_m_n_a.png,O,None,2004,12,1,2860.300000000745,691508.3999999985,7124,VNB,B,10
0,prac,2,0.0,2-Back,,,Wed Apr 09 2025 17:29:42 GMT-0500 (Central Daylight Time),694368.6999999993,011_m_f_n_a.png,O,a,7261,1,1,2860.300000000745,691508.3999999985,7124,VNB,B,0
0,prac,2,0.0,2-Back,,,Wed Apr 09 2025 17:29:42 GMT-0500 (Central Daylight Time),694368.6999999993,005_o_f_h_a.png,O,a,7261,2,1,2860.300000000745,691508.3999999985,7124,VNB,B,0
1,prac,2,0.0,2-Back,1,m,Wed Apr 09 2025 17:29:42 GMT-0500 (Central Daylight Time),708464.5,004_o_m_d_a.png,O,m,697,3,1,1560.199999999255,706904.3000000007,7124,VNB,B,1
1,prac,2,1.0,2-Back,0,z,Wed Apr 09 2025 17:29:42 GMT-0500 (Central Daylight Time),711246.8999999985,007_m_m_h_a.png,O,None,2008,4,1,2775.800000000745,708471.0999999978,7124,VNB,B,2
1,prac,2,0.0,2-Back,0,m,Wed Apr 09 2025 17:29:42 GMT-0500 (Central Daylight Time),713746.0,020_y_f_n_a.png,O,z,1631,5,1,2493.60000000149,711252.3999999985,7124,VNB,B,3
1,prac,2,1.0,2-Back,0,z,Wed Apr 09 2025 17:29:42 GMT-0500 (Central Daylight Time),716378.8000000007,004_o_m_h_a.png,O,m,1769,6,1,2627.10000000149,713751.6999999993,7124,VNB,B,4
1,prac,2,1.0,2-Back,0,z,Wed Apr 09 2025 17:29:42 GMT-0500 (Central Daylight Time),719277.5999999978,016_y_m_n_a.png,O,None,2009,7,1,2892.2999999970198,716385.3000000007,7124,VNB,B,5
1,prac,2,0.0,2-Back,0,m,Wed Apr 09 2025 17:29:42 GMT-0500 (Central Daylight Time),722160.3000000007,011_m_f_d_a.png,O,None,2004,8,1,2877.60000000149,719282.6999999993,7124,VNB,B,6
1,prac,2,0.0,2-Back,0,m,Wed Apr 09 2025 17:29:42 GMT-0500 (Central Daylight Time),725042.5,005_o_f_d_a.png,O,None,2002,9,1,2875.900000002235,722166.5999999978,7124,VNB,B,7
1,prac,2,0.0,2-Back,0,m,Wed Apr 09 2025 17:29:42 GMT-0500 (Central Daylight Time),726142.3000000007,007_m_m_h_a.png,O,z,320,10,1,1092.800000000745,725049.5,7124,VNB,B,8
1,prac,2,1.0,2-Back,0,z,Wed Apr 09 2025 17:29:42 GMT-0500 (Central Daylight Time),727358.3999999985,020_y_f_d_a.png,O,m,325,11,1,1211.199999999255,726147.1999999993,7124,VNB,B,9
2,prac,2,0.0,2-Back,1,m,Wed Apr 09 2025 17:29:42 GMT-0500 (Central Daylight Time),728791.1999999993,004_o_m_n_a.png,O,m,557,12,1,1426.8999999985099,727364.3000000007,7124,VNB,B,10
0,prac,3,0.0,2-Back,,,Wed Apr 09 2025 17:29:42 GMT-0500 (Central Daylight Time),728791.1999999993,011_m_f_n_a.png,O,a,2407,1,1,1426.8999999985099,727364.3000000007,7124,VNB,B,0
0,prac,3,0.0,2-Back,,,Wed Apr 09 2025 17:29:42 GMT-0500 (Central Daylight Time),728791.1999999993,005_o_f_h_a.png,O,a,2407,2,1,1426.8999999985099,727364.3000000007,7124,VNB,B,0
1,prac,3,0.0,2-Back,1,m,Wed Apr 09 2025 17:29:42 GMT-0500 (Central Daylight Time),737905.3999999985,004_o_m_d_a.png,O,m,573,3,1,1443.699999999255,736461.6999999993,7124,VNB,B,1
2,prac,3,1.0,2-Back,1,z,Wed Apr 09 2025 17:29:42 GMT-0500 (Central Daylight Time),740137.8000000007,007_m_m_h_a.png,O,z,1450,4,1,2226.10000000149,737911.6999999993,7124,VNB,B,2
3,prac,3,0.0,2-Back,1,m,Wed Apr 09 2025 17:29:42 GMT-0500 (Central Daylight Time),741970.5999999978,020_y_f_n_a.png,O,m,957,5,1,1826.7999999970198,740143.8000000007,7124,VNB,B,3
4,prac,3,1.0,2-Back,1,z,Wed Apr 09 2025 17:29:42 GMT-0500 (Central Daylight Time),744286.5999999978,004_o_m_h_a.png,O,z,1441,6,1,2309.599999997765,741977.0,7124,VNB,B,4
4,prac,3,1.0,2-Back,0,z,Wed Apr 09 2025 17:29:42 GMT-0500 (Central Daylight Time),746336.0,016_y_m_n_a.png,O,m,1146,7,1,2043.5,744292.5,7124,VNB,B,5
4,prac,3,0.0,2-Back,0,m,Wed Apr 09 2025 17:29:42 GMT-0500 (Central Daylight Time),748435.3999999985,011_m_f_d_a.png,O,z,1219,8,1,2094.199999999255,746341.1999999993,7124,VNB,B,6
4,prac,3,0.0,2-Back,0,m,Wed Apr 09 2025 17:29:42 GMT-0500 (Central Daylight Time),750601.1999999993,005_o_f_d_a.png,O,z,1269,9,1,2160.300000000745,748440.8999999985,7124,VNB,B,7
5,prac,3,0.0,2-Back,1,m,Wed Apr 09 2025 17:29:42 GMT-0500 (Central Daylight Time),753033.8000000007,007_m_m_h_a.png,O,m,1652,10,1,2427.7000000029802,750606.0999999978,7124,VNB,B,8
6,prac,3,1.0,2-Back,1,z,Wed Apr 09 2025 17:29:42 GMT-0500 (Central Daylight Time),755432.6999999993,020_y_f_d_a.png,O,z,1529,11,1,2392.699999999255,753040.0,7124,VNB,B,9
7,prac,3,0.0,2-Back,1,m,Wed Apr 09 2025 17:29:42 GMT-0500 (Central Daylight Time),757282.5,004_o_m_n_a.png,O,m,966,12,1,1843.9000000022352,755438.5999999978,7124,VNB,B,10
0,test,1,0.0,2-Back,,,Wed Apr 09 2025 17:29:42 GMT-0500 (Central Daylight Time),757282.5,016_y_m_h_a.png,O,space,21278,1,1,1843.9000000022352,755438.5999999978,7124,VNB,B,0
0,test,1,0.0,2-Back,,,Wed Apr 09 2025 17:29:42 GMT-0500 (Central Daylight Time),757282.5,005_o_f_n_a.png,O,space,21278,2,1,1843.9000000022352,755438.5999999978,7124,VNB,B,0
1,test,1,0.0,2-Back,1,z,Wed Apr 09 2025 17:29:42 GMT-0500 (Central Daylight Time),791421.6999999993,004_o_m_h_a.png,O,z,1671,3,1,2695.60000000149,788726.0999999978,7124,VNB,B,1
2,test,1,0.0,2-Back,1,m,Wed Apr 09 2025 17:29:42 GMT-0500 (Central Daylight Time),793871.0,011_m_f_d_a.png,O,m,1428,4,1,2445.60000000149,791425.3999999985,7124,VNB,B,2
3,test,1,1.0,2-Back,1,m,Wed Apr 09 2025 17:29:42 GMT-0500 (Central Daylight Time),796836.6999999993,016_y_m_n_a.png,O,m,1938,5,1,2961.5,793875.1999999993,7124,VNB,B,3
4,test,1,0.0,2-Back,1,z,Wed Apr 09 2025 17:29:42 GMT-0500 (Central Daylight Time),799152.6999999993,020_y_f_d_a.png,O,z,1293,6,1,2312.199999999255,796840.5,7124,VNB,B,4
4,test,1,0.0,2-Back,0,m,Wed Apr 09 2025 17:29:42 GMT-0500 (Central Daylight Time),801985.0999999978,007_m_m_h_a.png,O,z,1801,7,1,2828.7999999970198,799156.3000000007,7124,VNB,B,5
5,test,1,1.0,2-Back,1,m,Wed Apr 09 2025 17:29:42 GMT-0500 (Central Daylight Time),804651.0,020_y_f_n_a.png,O,m,1640,8,1,2662.0,801989.0,7124,VNB,B,6
6,test,1,0.0,2-Back,1,z,Wed Apr 09 2025 17:29:42 GMT-0500 (Central Daylight Time),806816.8999999985,005_o_f_h_a.png,O,z,1142,9,1,2162.599999997765,804654.3000000007,7124,VNB,B,7
7,test,1,0.0,2-Back,1,m,Wed Apr 09 2025 17:29:42 GMT-0500 (Central Daylight Time),809349.3999999985,004_o_m_d_a.png,O,m,1504,10,1,2528.800000000745,806820.5999999978,7124,VNB,B,8
7,test,1,1.0,2-Back,0,m,Wed Apr 09 2025 17:29:42 GMT-0500 (Central Daylight Time),811515.5,007_m_m_d_a.png,O,z,1141,11,1,2162.5,809353.0,7124,VNB,B,9
7,test,1,0.0,2-Back,0,m,Wed Apr 09 2025 17:29:42 GMT-0500 (Central Daylight Time),813664.8000000007,011_m_f_n_a.png,O,z,1118,12,1,2145.5,811519.3000000007,7124,VNB,B,10
8,test,1,0.0,2-Back,1,m,Wed Apr 09 2025 17:29:42 GMT-0500 (Central Daylight Time),816664.0,020_y_f_h_a.png,O,m,1976,13,1,2995.199999999255,813668.8000000007,7124,VNB,B,11
9,test,1,0.0,2-Back,1,z,Wed Apr 09 2025 17:29:42 GMT-0500 (Central Daylight Time),818846.5,007_m_m_n_a.png,O,z,1162,14,1,2178.400000002235,816668.0999999978,7124,VNB,B,12
9,test,1,0.0,2-Back,0,m,Wed Apr 09 2025 17:29:42 GMT-0500 (Central Daylight Time),821878.8999999985,016_y_m_d_a.png,O,None,2016,15,1,3028.599999997765,818850.3000000007,7124,VNB,B,13
10,test,1,1.0,2-Back,1,m,Wed Apr 09 2025 17:29:42 GMT-0500 (Central Daylight Time),824194.8000000007,011_m_f_h_a.png,O,m,1298,16,1,2312.10000000149,821882.6999999993,7124,VNB,B,14
11,test,1,0.0,2-Back,1,z,Wed Apr 09 2025 17:29:42 GMT-0500 (Central Daylight Time),826110.8999999985,005_o_f_d_a.png,O,z,886,17,1,1912.199999999255,824198.6999999993,7124,VNB,B,15
12,test,1,0.0,2-Back,1,m,Wed Apr 09 2025 17:29:42 GMT-0500 (Central Daylight Time),828776.5999999978,004_o_m_n_a.png,O,m,1634,18,1,2661.89999999851,826114.6999999993,7124,VNB,B,16
0,test,2,0.0,2-Back,,,Wed Apr 09 2025 17:29:42 GMT-0500 (Central Daylight Time),828776.5999999978,007_m_m_h_a.png,O,space,47626,1,1,2661.89999999851,826114.6999999993,7124,VNB,B,0
0,test,2,0.0,2-Back,,,Wed Apr 09 2025 17:29:42 GMT-0500 (Central Daylight Time),828776.5999999978,020_y_f_n_a.png,O,space,47626,2,1,2661.89999999851,826114.6999999993,7124,VNB,B,0
1,test,2,1.0,2-Back,1,z,Wed Apr 09 2025 17:29:42 GMT-0500 (Central Daylight Time),883126.5,005_o_f_h_a.png,O,z,437,3,1,1462.699999999255,881663.8000000007,7124,VNB,B,1
2,test,2,0.0,2-Back,1,m,Wed Apr 09 2025 17:29:42 GMT-0500 (Central Daylight Time),885410.5,004_o_m_d_a.png,O,m,1267,4,1,2280.300000000745,883130.1999999993,7124,VNB,B,2
2,test,2,0.0,2-Back,0,m,Wed Apr 09 2025 17:29:42 GMT-0500 (Central Daylight Time),888441.8000000007,011_m_f_d_a.png,O,None,2016,5,1,3027.60000000149,885414.1999999993,7124,VNB,B,3
3,test,2,0.0,2-Back,1,m,Wed Apr 09 2025 17:29:42 GMT-0500 (Central Daylight Time),890890.5999999978,016_y_m_h_a.png,O,m,1417,6,1,2445.2999999970198,888445.3000000007,7124,VNB,B,4
3,test,2,0.0,2-Back,0,m,Wed Apr 09 2025 17:29:42 GMT-0500 (Central Daylight Time),893923.3000000007,005_o_f_n_a.png,O,None,2015,7,1,3029.2000000029802,890894.0999999978,7124,VNB,B,5
3,test,2,1.0,2-Back,0,z,Wed Apr 09 2025 17:29:42 GMT-0500 (Central Daylight Time),896955.5,004_o_m_h_a.png,O,None,2015,8,1,3028.60000000149,893926.8999999985,7124,VNB,B,6
4,test,2,0.0,2-Back,1,m,Wed Apr 09 2025 17:29:42 GMT-0500 (Central Daylight Time),899021.5,020_y_f_d_a.png,O,m,1046,9,1,2061.900000002235,896959.5999999978,7124,VNB,B,7
5,test,2,0.0,2-Back,1,m,Wed Apr 09 2025 17:29:42 GMT-0500 (Central Daylight Time),901120.8000000007,016_y_m_d_a.png,O,m,1069,10,1,2095.60000000149,899025.1999999993,7124,VNB,B,8
6,test,2,0.0,2-Back,1,m,Wed Apr 09 2025 17:29:42 GMT-0500 (Central Daylight Time),902853.8000000007,007_m_m_n_a.png,O,m,704,11,1,1729.2000000029802,901124.5999999978,7124,VNB,B,9
7,test,2,0.0,2-Back,1,m,Wed Apr 09 2025 17:29:42 GMT-0500 (Central Daylight Time),905552.8000000007,011_m_f_h_a.png,O,m,1668,12,1,2695.5,902857.3000000007,7124,VNB,B,10
8,test,2,1.0,2-Back,1,z,Wed Apr 09 2025 17:29:42 GMT-0500 (Central Daylight Time),907768.8999999985,004_o_m_n_a.png,O,z,1193,13,1,2212.39999999851,905556.5,7124,VNB,B,11
9,test,2,0.0,2-Back,1,m,Wed Apr 09 2025 17:29:42 GMT-0500 (Central Daylight Time),909901.3999999985,005_o_f_d_a.png,O,m,1104,14,1,2128.800000000745,907772.5999999978,7124,VNB,B,12
9,test,2,0.0,2-Back,0,m,Wed Apr 09 2025 17:29:42 GMT-0500 (Central Daylight Time),912934.1999999993,020_y_f_h_a.png,O,None,2016,15,1,3028.800000000745,909905.3999999985,7124,VNB,B,13
10,test,2,0.0,2-Back,1,z,Wed Apr 09 2025 17:29:42 GMT-0500 (Central Daylight Time),914750.0,007_m_m_d_a.png,O,z,770,16,1,1812.0,912938.0,7124,VNB,B,14
10,test,2,0.0,2-Back,0,m,Wed Apr 09 2025 17:29:42 GMT-0500 (Central Daylight Time),916799.1999999993,016_y_m_n_a.png,O,z,1020,17,1,2045.6000000014901,914753.5999999978,7124,VNB,B,15
10,test,2,1.0,2-Back,0,m,Wed Apr 09 2025 17:29:42 GMT-0500 (Central Daylight Time),918515.5999999978,011_m_f_n_a.png,O,z,691,18,1,1712.3999999985099,916803.1999999993,7124,VNB,B,16
0,test,3,1.0,2-Back,,,Wed Apr 09 2025 17:29:42 GMT-0500 (Central Daylight Time),918515.5999999978,004_o_m_n_a.png,O,space,7983,1,1,1712.3999999985099,916803.1999999993,7124,VNB,B,0
0,test,3,1.0,2-Back,,,Wed Apr 09 2025 17:29:42 GMT-0500 (Central Daylight Time),918515.5999999978,005_o_f_d_a.png,O,space,7983,2,1,1712.3999999985099,916803.1999999993,7124,VNB,B,0
1,test,3,0.0,2-Back,1,m,Wed Apr 09 2025 17:29:42 GMT-0500 (Central Daylight Time),933277.5,020_y_f_h_a.png,O,m,687,3,1,1711.5,931566.0,7124,VNB,B,1
1,test,3,0.0,2-Back,0,z,Wed Apr 09 2025 17:29:42 GMT-0500 (Central Daylight Time),936310.0,011_m_f_d_a.png,O,None,2016,4,1,3028.699999999255,933281.3000000007,7124,VNB,B,2
1,test,3,1.0,2-Back,0,m,Wed Apr 09 2025 17:29:42 GMT-0500 (Central Daylight Time),939359.0999999978,016_y_m_n_a.png,O,None,2006,5,1,3045.39999999851,936313.6999999993,7124,VNB,B,3
1,test,3,0.0,2-Back,0,m,Wed Apr 09 2025 17:29:42 GMT-0500 (Central Daylight Time),941858.0999999978,004_o_m_h_a.png,O,z,1475,6,1,2495.7999999970198,939362.3000000007,7124,VNB,B,4
1,test,3,0.0,2-Back,0,z,Wed Apr 09 2025 17:29:42 GMT-0500 (Central Daylight Time),943607.5,020_y_f_n_a.png,O,m,720,7,1,1745.6000000014901,941861.8999999985,7124,VNB,B,5
1,test,3,1.0,2-Back,0,m,Wed Apr 09 2025 17:29:42 GMT-0500 (Central Daylight Time),945307.0,007_m_m_d_a.png,O,z,681,8,1,1695.6000000014901,943611.3999999985,7124,VNB,B,6
2,test,3,0.0,2-Back,1,m,Wed Apr 09 2025 17:29:42 GMT-0500 (Central Daylight Time),946939.8000000007,016_y_m_d_a.png,O,m,614,9,1,1629.5,945310.3000000007,7124,VNB,B,7
2,test,3,0.0,2-Back,0,m,Wed Apr 09 2025 17:29:42 GMT-0500 (Central Daylight Time),949390.3000000007,005_o_f_h_a.png,O,z,1430,10,1,2447.300000000745,946943.0,7124,VNB,B,8
2,test,3,1.0,2-Back,0,m,Wed Apr 09 2025 17:29:42 GMT-0500 (Central Daylight Time),951571.5,011_m_f_n_a.png,O,z,1164,11,1,2177.0,949394.5,7124,VNB,B,9
2,test,3,1.0,2-Back,0,z,Wed Apr 09 2025 17:29:42 GMT-0500 (Central Daylight Time),953737.6999999993,007_m_m_h_a.png,O,m,1133,12,1,2162.39999999851,951575.3000000007,7124,VNB,B,10
3,test,3,0.0,2-Back,1,m,Wed Apr 09 2025 17:29:42 GMT-0500 (Central Daylight Time),956203.5,020_y_f_d_a.png,O,m,1440,13,1,2461.699999999255,953741.8000000007,7124,VNB,B,11
3,test,3,0.0,2-Back,0,m,Wed Apr 09 2025 17:29:42 GMT-0500 (Central Daylight Time),958519.5999999978,005_o_f_n_a.png,O,z,1293,14,1,2312.699999999255,956206.8999999985,7124,VNB,B,12
3,test,3,0.0,2-Back,0,z,Wed Apr 09 2025 17:29:42 GMT-0500 (Central Daylight Time),960202.5,004_o_m_d_a.png,O,m,658,15,1,1678.800000000745,958523.6999999993,7124,VNB,B,13
4,test,3,1.0,2-Back,1,m,Wed Apr 09 2025 17:29:42 GMT-0500 (Central Daylight Time),961885.0999999978,011_m_f_h_a.png,O,m,664,16,1,1678.7999999970198,960206.3000000007,7124,VNB,B,14
4,test,3,0.0,2-Back,0,m,Wed Apr 09 2025 17:29:42 GMT-0500 (Central Daylight Time),963401.3000000007,007_m_m_n_a.png,O,z,493,17,1,1512.2000000029802,961889.0999999978,7124,VNB,B,15
4,test,3,0.0,2-Back,0,z,Wed Apr 09 2025 17:29:42 GMT-0500 (Central Daylight Time),965350.8000000007,016_y_m_h_a.png,O,m,921,18,1,1945.5,963405.3000000007,7124,VNB,B,16
0,test,4,0.0,2-Back,,,Wed Apr 09 2025 17:29:42 GMT-0500 (Central Daylight Time),965350.8000000007,011_m_f_n_a.png,O,space,6452,1,1,1945.5,963405.3000000007,7124,VNB,B,0
0,test,4,0.0,2-Back,,,Wed Apr 09 2025 17:29:42 GMT-0500 (Central Daylight Time),965350.8000000007,004_o_m_n_a.png,O,space,6452,2,1,1945.5,963405.3000000007,7124,VNB,B,0
0,test,4,1.0,2-Back,0,m,Wed Apr 09 2025 17:29:42 GMT-0500 (Central Daylight Time),980079.6999999993,016_y_m_h_a.png,O,None,2016,3,1,3029.10000000149,977050.5999999978,7124,VNB,B,1
0,test,4,1.0,2-Back,0,m,Wed Apr 09 2025 17:29:42 GMT-0500 (Central Daylight Time),982662.0999999978,005_o_f_d_a.png,O,z,1554,4,1,2578.89999999851,980083.1999999993,7124,VNB,B,2
1,test,4,0.0,2-Back,1,z,Wed Apr 09 2025 17:29:42 GMT-0500 (Central Daylight Time),985677.5999999978,004_o_m_h_a.png,O,z,1988,5,1,3011.89999999851,982665.6999999993,7124,VNB,B,3
2,test,4,0.0,2-Back,1,m,Wed Apr 09 2025 17:29:42 GMT-0500 (Central Daylight Time),988043.3999999985,007_m_m_n_a.png,O,m,1348,6,1,2362.199999999255,985681.1999999993,7124,VNB,B,4
3,test,4,0.0,2-Back,1,m,Wed Apr 09 2025 17:29:42 GMT-0500 (Central Daylight Time),990392.8999999985,011_m_f_d_a.png,O,m,1319,7,1,2346.0,988046.8999999985,7124,VNB,B,5
4,test,4,0.0,2-Back,1,z,Wed Apr 09 2025 17:29:42 GMT-0500 (Central Daylight Time),992108.8999999985,020_y_f_n_a.png,O,z,689,8,1,1712.3999999985099,990396.5,7124,VNB,B,6
5,test,4,1.0,2-Back,1,m,Wed Apr 09 2025 17:29:42 GMT-0500 (Central Daylight Time),994158.5,005_o_f_h_a.png,O,m,1021,9,1,2046.0,992112.5,7124,VNB,B,7
5,test,4,0.0,2-Back,0,m,Wed Apr 09 2025 17:29:42 GMT-0500 (Central Daylight Time),996424.5,007_m_m_h_a.png,O,z,1235,10,1,2262.300000000745,994162.1999999993,7124,VNB,B,8
5,test,4,0.0,2-Back,0,m,Wed Apr 09 2025 17:29:42 GMT-0500 (Central Daylight Time),998890.5,020_y_f_d_a.png,O,z,1442,11,1,2462.400000002235,996428.0999999978,7124,VNB,B,9
6,test,4,0.0,2-Back,1,m,Wed Apr 09 2025 17:29:42 GMT-0500 (Central Daylight Time),1000806.3000000007,016_y_m_n_a.png,O,m,888,12,1,1911.9000000022352,998894.3999999985,7124,VNB,B,10
7,test,4,0.0,2-Back,1,z,Wed Apr 09 2025 17:29:42 GMT-0500 (Central Daylight Time),1002689.0999999978,004_o_m_d_a.png,O,z,860,13,1,1879.2999999970198,1000809.8000000007,7124,VNB,B,11
8,test,4,1.0,2-Back,1,m,Wed Apr 09 2025 17:29:42 GMT-0500 (Central Daylight Time),1004721.8000000007,011_m_f_h_a.png,O,m,1000,14,1,2029.6000000014901,1002692.1999999993,7124,VNB,B,12
8,test,4,1.0,2-Back,0,m,Wed Apr 09 2025 17:29:42 GMT-0500 (Central Daylight Time),1006288.1999999993,020_y_f_h_a.png,O,z,544,15,1,1562.6000000014901,1004725.5999999978,7124,VNB,B,13
9,test,4,0.0,2-Back,1,m,Wed Apr 09 2025 17:29:42 GMT-0500 (Central Daylight Time),1008470.5999999978,005_o_f_n_a.png,O,m,1154,16,1,2178.699999999255,1006291.8999999985,7124,VNB,B,14
10,test,4,0.0,2-Back,1,m,Wed Apr 09 2025 17:29:42 GMT-0500 (Central Daylight Time),1009870.0999999978,016_y_m_d_a.png,O,m,371,17,1,1395.5999999977648,1008474.5,7124,VNB,B,15
10,test,4,1.0,2-Back,0,m,Wed Apr 09 2025 17:29:42 GMT-0500 (Central Daylight Time),1011269.6999999993,007_m_m_d_a.png,O,z,380,18,1,1396.0,1009873.6999999993,7124,VNB,B,16
0,test,5,1.0,2-Back,,,Wed Apr 09 2025 17:29:42 GMT-0500 (Central Daylight Time),1011269.6999999993,020_y_f_d_a.png,O,space,7509,1,1,1396.0,1009873.6999999993,7124,VNB,B,0
0,test,5,1.0,2-Back,,,Wed Apr 09 2025 17:29:42 GMT-0500 (Central Daylight Time),1011269.6999999993,005_o_f_h_a.png,O,space,7509,2,1,1396.0,1009873.6999999993,7124,VNB,B,0
1,test,5,1.0,2-Back,1,z,Wed Apr 09 2025 17:29:42 GMT-0500 (Central Daylight Time),1025498.5999999978,004_o_m_d_a.png,O,z,450,3,1,1479.2999999970198,1024019.3000000007,7124,VNB,B,1
2,test,5,1.0,2-Back,1,m,Wed Apr 09 2025 17:29:42 GMT-0500 (Central Daylight Time),1028431.0,011_m_f_n_a.png,O,m,1911,4,1,2928.699999999255,1025502.3000000007,7124,VNB,B,2
2,test,5,0.0,2-Back,0,m,Wed Apr 09 2025 17:29:42 GMT-0500 (Central Daylight Time),1031526.5,007_m_m_h_a.png,O,None,2078,5,1,3091.699999999255,1028434.8000000007,7124,VNB,B,3
2,test,5,0.0,2-Back,0,z,Wed Apr 09 2025 17:29:42 GMT-0500 (Central Daylight Time),1034212.8000000007,020_y_f_n_a.png,O,m,1656,6,1,2683.10000000149,1031529.6999999993,7124,VNB,B,4
2,test,5,0.0,2-Back,0,m,Wed Apr 09 2025 17:29:42 GMT-0500 (Central Daylight Time),1036545.1999999993,005_o_f_d_a.png,O,z,1302,7,1,2328.60000000149,1034216.5999999978,7124,VNB,B,5
3,test,5,0.0,2-Back,1,m,Wed Apr 09 2025 17:29:42 GMT-0500 (Central Daylight Time),1038794.5999999978,004_o_m_h_a.png,O,m,1225,8,1,2245.5,1036549.0999999978,7124,VNB,B,6
4,test,5,1.0,2-Back,1,z,Wed Apr 09 2025 17:29:42 GMT-0500 (Central Daylight Time),1041010.5,011_m_f_d_a.png,O,z,1191,9,1,2212.10000000149,1038798.3999999985,7124,VNB,B,7
4,test,5,0.0,2-Back,0,m,Wed Apr 09 2025 17:29:42 GMT-0500 (Central Daylight Time),1042926.8999999985,016_y_m_n_a.png,O,z,888,10,1,1912.699999999255,1041014.1999999993,7124,VNB,B,8
4,test,5,0.0,2-Back,0,m,Wed Apr 09 2025 17:29:42 GMT-0500 (Central Daylight Time),1044942.5999999978,007_m_m_n_a.png,O,z,988,11,1,2012.3999999985099,1042930.1999999993,7124,VNB,B,9
5,test,5,0.0,2-Back,1,m,Wed Apr 09 2025 17:29:42 GMT-0500 (Central Daylight Time),1046892.0,020_y_f_h_a.png,O,m,924,12,1,1945.699999999255,1044946.3000000007,7124,VNB,B,10
5,test,5,0.0,2-Back,0,m,Wed Apr 09 2025 17:29:42 GMT-0500 (Central Daylight Time),1049924.3999999985,016_y_m_d_a.png,O,None,2015,13,1,3028.599999997765,1046895.8000000007,7124,VNB,B,11
5,test,5,1.0,2-Back,0,z,Wed Apr 09 2025 17:29:42 GMT-0500 (Central Daylight Time),1052840.1999999993,011_m_f_h_a.png,O,m,1894,14,1,2912.0,1049928.1999999993,7124,VNB,B,12
6,test,5,0.0,2-Back,1,m,Wed Apr 09 2025 17:29:42 GMT-0500 (Central Daylight Time),1055789.0999999978,004_o_m_n_a.png,O,m,1922,15,1,2945.2999999970198,1052843.8000000007,7124,VNB,B,13
6,test,5,0.0,2-Back,0,m,Wed Apr 09 2025 17:29:42 GMT-0500 (Central Daylight Time),1057738.5999999978,007_m_m_d_a.png,O,z,916,16,1,1945.5999999977648,1055793.0,7124,VNB,B,14
7,test,5,0.0,2-Back,1,z,Wed Apr 09 2025 17:29:42 GMT-0500 (Central Daylight Time),1060654.3999999985,005_o_f_n_a.png,O,z,1887,17,1,2912.199999999255,1057742.1999999993,7124,VNB,B,15
8,test,5,1.0,2-Back,1,m,Wed Apr 09 2025 17:29:42 GMT-0500 (Central Daylight Time),1063270.1999999993,016_y_m_h_a.png,O,m,1587,18,1,2612.300000000745,1060657.8999999985,7124,VNB,B,16
