acc_sum,block_c,block_dur,condition,correct,correct_response,countdown,datetime,endtime,project,response,response_time,response_time_test1_response,response_time_test2_response,row_sel,same,session_number,start_end,starttime,stim1,stim2,subject_id,task,task_vers,time_test1,time_test2,trial
1,1,0.0,prac,1,m,30000.0,Mon Feb 24 2025 19:19:09 GMT-0600 (Central Standard Time),64625.0,O,m,2429,,,4,no,1,3963.4000000059605,60661.59999999404,practrial4.png,practrial4b.png,7059,PC,B,,,1
2,1,0.0,prac,1,z,30000.0,Mon Feb 24 2025 19:19:09 GMT-0600 (Central Standard Time),67290.09999999404,O,z,1129,,,1,yes,1,2659.5,64630.59999999404,practrial1.png,practrial1.png,7059,PC,B,,,2
3,1,0.0,prac,1,m,30000.0,Mon Feb 24 2025 19:19:09 GMT-0600 (Central Standard Time),69889.19999998808,O,m,1064,,,2,no,1,2592.300000011921,67296.89999997616,practrial2.png,practrial2b.png,7059,PC,B,,,3
4,1,0.0,prac,1,z,30000.0,Mon Feb 24 2025 19:19:09 GMT-0600 (Central Standard Time),72421.89999997616,O,z,994,,,3,yes,1,2528.199999988079,69893.69999998808,practrial3.png,practrial3.png,7059,PC,B,,,4
5,1,0.0,prac,1,z,30000.0,Mon Feb 24 2025 19:19:09 GMT-0600 (Central Standard Time),75255.69999998808,O,z,1321,,,5,yes,1,2825.199999988079,72430.5,practrial5.png,practrial5.png,7059,PC,B,,,5
6,1,0.0,prac,1,m,30000.0,Mon Feb 24 2025 19:19:09 GMT-0600 (Central Standard Time),78187.39999997616,O,m,1405,,,6,no,1,2927.0,75260.39999997616,practrial6.png,practrial6b.png,7059,PC,B,,,6
1,1,2.3320000171661377,test,1,z,27667.999982833862,Mon Feb 24 2025 19:19:09 GMT-0600 (Central Standard Time),93480.39999997616,O,z,2321,2321,,1,yes,1,2328.399999976158,91152.0,test1trial1.png,test1trial1.png,7059,PC,B,83990,,1
2,1,3.748000144958496,test,1,m,26251.999855041504,Mon Feb 24 2025 19:19:09 GMT-0600 (Central Standard Time),94896.59999999404,O,m,1405,1405,,2,no,1,1413.2000000178814,93483.39999997616,test1trial2.png,test1trial2b.png,7059,PC,B,86321,,2
3,1,5.46399998664856,test,1,z,24536.00001335144,Mon Feb 24 2025 19:19:09 GMT-0600 (Central Standard Time),96612.5,O,z,1709,1709,,3,yes,1,1712.9000000059605,94899.59999999404,test1trial3.png,test1trial3.png,7059,PC,B,87737,,3
4,1,6.75,test,1,m,23250.0,Mon Feb 24 2025 19:19:09 GMT-0600 (Central Standard Time),97897.69999998808,O,m,1272,1272,,4,no,1,1281.4000000059605,96616.29999998212,test1trial4.png,test1trial4b.png,7059,PC,B,89455,,4
5,1,8.097000122070312,test,1,z,21902.999877929688,Mon Feb 24 2025 19:19:09 GMT-0600 (Central Standard Time),99245.0,O,z,1340,1340,,5,yes,1,1343.9000000059605,97901.09999999404,test1trial5.png,test1trial5.png,7059,PC,B,90739,,5
6,1,9.71399998664856,test,1,m,20286.00001335144,Mon Feb 24 2025 19:19:09 GMT-0600 (Central Standard Time),100862.0,O,m,1600,1600,,6,no,1,1613.5,99248.5,test1trial6.png,test1trial6b.png,7059,PC,B,92086,,6
7,1,11.36300015449524,test,1,z,18636.99984550476,Mon Feb 24 2025 19:19:09 GMT-0600 (Central Standard Time),102511.69999998808,O,z,1639,1639,,7,yes,1,1645.300000011921,100866.39999997616,test1trial7.png,test1trial7.png,7059,PC,B,93704,,7
8,1,13.064000129699707,test,1,m,16935.999870300293,Mon Feb 24 2025 19:19:09 GMT-0600 (Central Standard Time),104212.69999998808,O,m,1695,1695,,8,no,1,1696.9000000059605,102515.79999998212,test1trial8.png,test1trial8b.png,7059,PC,B,95354,,8
9,1,14.529000043869019,test,1,z,15470.999956130981,Mon Feb 24 2025 19:19:09 GMT-0600 (Central Standard Time),105677.0,O,z,1448,1448,,9,yes,1,1460.4000000059605,104216.59999999404,test1trial9.png,test1trial9.png,7059,PC,B,97055,,9
10,1,15.962000131607056,test,1,m,14037.999868392944,Mon Feb 24 2025 19:19:09 GMT-0600 (Central Standard Time),107109.89999997616,O,m,1423,1423,,10,no,1,1429.3999999761581,105680.5,test1trial10.png,test1trial10b.png,7059,PC,B,98519,,10
11,1,17.330000162124634,test,1,z,12669.999837875366,Mon Feb 24 2025 19:19:09 GMT-0600 (Central Standard Time),108477.89999997616,O,z,1363,1363,,11,yes,1,1364.0,107113.89999997616,test1trial11.png,test1trial11.png,7059,PC,B,99952,,11
12,1,18.9760000705719,test,1,m,11023.9999294281,Mon Feb 24 2025 19:19:09 GMT-0600 (Central Standard Time),110124.5,O,m,1630,1630,,12,no,1,1642.4000000059605,108482.09999999404,test1trial12.png,test1trial12b.png,7059,PC,B,101320,,12
13,1,20.828999996185303,test,1,m,9171.000003814697,Mon Feb 24 2025 19:19:09 GMT-0600 (Central Standard Time),111977.5,O,m,1842,1842,,13,no,1,1850.9000000059605,110126.59999999404,test1trial13.png,test1trial13b.png,7059,PC,B,102964,,13
14,1,22.3270001411438,test,1,m,7672.999858856201,Mon Feb 24 2025 19:19:09 GMT-0600 (Central Standard Time),113475.39999997616,O,m,1484,1484,,14,no,1,1494.199999988079,111981.19999998808,test1trial14.png,test1trial14b.png,7059,PC,B,104819,,14
15,1,23.59000015258789,test,1,z,6409.999847412109,Mon Feb 24 2025 19:19:09 GMT-0600 (Central Standard Time),114738.39999997616,O,z,1259,1259,,15,yes,1,1259.8999999761581,113478.5,test1trial15.png,test1trial15.png,7059,PC,B,106316,,15
16,1,25.039000034332275,test,1,m,4960.999965667725,Mon Feb 24 2025 19:19:09 GMT-0600 (Central Standard Time),116188.0,O,m,1433,1433,,16,no,1,1444.1000000238419,114743.89999997616,test1trial16.png,test1trial16b.png,7059,PC,B,107582,,16
17,1,26.69000005722046,test,1,z,3309.999942779541,Mon Feb 24 2025 19:19:09 GMT-0600 (Central Standard Time),117839.09999999404,O,z,1639,1639,,17,yes,1,1645.4000000059605,116193.69999998808,test1trial17.png,test1trial17.png,7059,PC,B,109032,,17
18,1,28.04100012779236,test,1,m,1958.9998722076416,Mon Feb 24 2025 19:19:09 GMT-0600 (Central Standard Time),119189.69999998808,O,m,1333,1333,,18,no,1,1346.800000011921,117842.89999997616,test1trial18.png,test1trial18b.png,7059,PC,B,110681,,18
19,1,29.758000135421753,test,1,m,241.99986457824707,Mon Feb 24 2025 19:19:09 GMT-0600 (Central Standard Time),120906.39999997616,O,m,1704,1704,,19,no,1,1713.5,119192.89999997616,test1trial19.png,test1trial19b.png,7059,PC,B,112031,,19
19,1,30.008000135421753,test,0,z,-8.00013542175293,Mon Feb 24 2025 19:19:09 GMT-0600 (Central Standard Time),121156.5,O,None,246,246,,20,yes,1,247.30000001192093,120909.19999998808,test1trial20.png,test1trial20.png,7059,PC,B,113747,,20
1,2,1.184000015258789,test,1,m,28815.99998474121,Mon Feb 24 2025 19:19:09 GMT-0600 (Central Standard Time),131603.09999999404,O,m,1181,,1181.0,1,no,1,10693.90000000596,120909.19999998808,test2trial1.png,test2trial1b.png,7059,PC,B,,123259.0,1
2,2,2.6019999980926514,test,1,m,27398.00000190735,Mon Feb 24 2025 19:19:09 GMT-0600 (Central Standard Time),133020.39999997616,O,m,1413,,1413.0,2,no,1,12111.199999988079,120909.19999998808,test2trial2.png,test2trial2b.png,7059,PC,B,,124444.0,2
3,2,3.8489999771118164,test,1,z,26151.000022888184,Mon Feb 24 2025 19:19:09 GMT-0600 (Central Standard Time),134268.19999998808,O,z,1234,,1234.0,3,yes,1,13359.0,120909.19999998808,test2trial3.png,test2trial3.png,7059,PC,B,,125861.0,3
4,2,4.949000120162964,test,1,z,25050.999879837036,Mon Feb 24 2025 19:19:09 GMT-0600 (Central Standard Time),135368.09999999404,O,z,1090,,1090.0,4,yes,1,14458.90000000596,120909.19999998808,test2trial4.png,test2trial4.png,7059,PC,B,,127109.0,4
5,2,6.348999977111816,test,1,z,23651.000022888184,Mon Feb 24 2025 19:19:09 GMT-0600 (Central Standard Time),136767.59999999404,O,z,1381,,1381.0,5,yes,1,15858.40000000596,120909.19999998808,test2trial5.png,test2trial5.png,7059,PC,B,,128209.0,5
6,2,7.715000152587891,test,1,z,22284.99984741211,Mon Feb 24 2025 19:19:09 GMT-0600 (Central Standard Time),138133.29999998212,O,z,1349,,1349.0,6,yes,1,17224.09999999404,120909.19999998808,test2trial6.png,test2trial6.png,7059,PC,B,,129609.0,6
7,2,8.999000072479248,test,1,m,21000.999927520752,Mon Feb 24 2025 19:19:09 GMT-0600 (Central Standard Time),139418.09999999404,O,m,1260,,1260.0,7,no,1,18508.90000000596,120909.19999998808,test2trial7.png,test2trial7b.png,7059,PC,B,,130978.0,7
8,2,10.246999979019165,test,1,m,19753.000020980835,Mon Feb 24 2025 19:19:09 GMT-0600 (Central Standard Time),140666.19999998808,O,m,1228,,1228.0,8,no,1,19757.0,120909.19999998808,test2trial8.png,test2trial8b.png,7059,PC,B,,132260.0,8
9,2,11.746999979019165,test,1,z,18253.000020980835,Mon Feb 24 2025 19:19:09 GMT-0600 (Central Standard Time),142166.0,O,z,1484,,1484.0,9,yes,1,21256.80000001192,120909.19999998808,test2trial9.png,test2trial9.png,7059,PC,B,,133507.0,9
10,2,13.19700002670288,test,1,z,16802.99997329712,Mon Feb 24 2025 19:19:09 GMT-0600 (Central Standard Time),143615.59999999404,O,z,1431,,1431.0,10,yes,1,22706.40000000596,120909.19999998808,test2trial10.png,test2trial10.png,7059,PC,B,,135007.0,10
11,2,14.412000179290771,test,1,m,15587.999820709229,Mon Feb 24 2025 19:19:09 GMT-0600 (Central Standard Time),144831.19999998808,O,m,1197,,1197.0,11,no,1,23922.0,120909.19999998808,test2trial11.png,test2trial11b.png,7059,PC,B,,136457.0,11
12,2,15.880000114440918,test,1,m,14119.999885559082,Mon Feb 24 2025 19:19:09 GMT-0600 (Central Standard Time),146298.29999998212,O,m,1455,,1455.0,12,no,1,25389.09999999404,120909.19999998808,test2trial12.png,test2trial12b.png,7059,PC,B,,137672.0,12
13,2,16.960999965667725,test,1,z,13039.000034332275,Mon Feb 24 2025 19:19:09 GMT-0600 (Central Standard Time),147380.19999998808,O,z,1075,,1075.0,13,yes,1,26471.0,120909.19999998808,test2trial13.png,test2trial13.png,7059,PC,B,,139140.0,13
14,2,18.8270001411438,test,1,m,11172.999858856201,Mon Feb 24 2025 19:19:09 GMT-0600 (Central Standard Time),149246.19999998808,O,m,1857,,1857.0,14,no,1,28337.0,120909.19999998808,test2trial14.png,test2trial14b.png,7059,PC,B,,140222.0,14
15,2,20.094000101089478,test,1,m,9905.999898910522,Mon Feb 24 2025 19:19:09 GMT-0600 (Central Standard Time),150512.19999998808,O,m,1256,,1256.0,15,no,1,29603.0,120909.19999998808,test2trial15.png,test2trial15b.png,7059,PC,B,,142087.0,15
16,2,21.47699999809265,test,1,m,8523.000001907349,Mon Feb 24 2025 19:19:09 GMT-0600 (Central Standard Time),151895.79999998212,O,m,1374,,1374.0,16,no,1,30986.59999999404,120909.19999998808,test2trial16.png,test2trial16b.png,7059,PC,B,,143353.0,16
17,2,22.66000008583069,test,1,z,7339.9999141693115,Mon Feb 24 2025 19:19:09 GMT-0600 (Central Standard Time),153079.19999998808,O,z,1165,,1165.0,17,yes,1,32170.0,120909.19999998808,test2trial17.png,test2trial17.png,7059,PC,B,,144737.0,17
18,2,23.8270001411438,test,1,z,6172.999858856201,Mon Feb 24 2025 19:19:09 GMT-0600 (Central Standard Time),154245.89999997616,O,z,1149,,1149.0,18,yes,1,33336.69999998808,120909.19999998808,test2trial18.png,test2trial18.png,7059,PC,B,,145921.0,18
19,2,25.3270001411438,test,1,z,4672.999858856201,Mon Feb 24 2025 19:19:09 GMT-0600 (Central Standard Time),155745.59999999404,O,z,1479,,1479.0,19,yes,1,34836.40000000596,120909.19999998808,test2trial19.png,test2trial19.png,7059,PC,B,,147087.0,19
20,2,26.909000158309937,test,1,z,3090.9998416900635,Mon Feb 24 2025 19:19:09 GMT-0600 (Central Standard Time),157327.69999998808,O,z,1563,,1563.0,20,yes,1,36418.5,120909.19999998808,test2trial20.png,test2trial20.png,7059,PC,B,,148587.0,20
21,2,28.375,test,1,z,1625.0,Mon Feb 24 2025 19:19:09 GMT-0600 (Central Standard Time),158793.19999998808,O,z,1454,,1454.0,21,yes,1,37884.0,120909.19999998808,test2trial21.png,test2trial21.png,7059,PC,B,,150169.0,21
22,2,29.70900011062622,test,1,m,290.9998893737793,Mon Feb 24 2025 19:19:09 GMT-0600 (Central Standard Time),160128.09999999404,O,m,1324,,1324.0,22,no,1,39218.90000000596,120909.19999998808,test2trial22.png,test2trial22b.png,7059,PC,B,,151635.0,22
22,2,30.009000062942505,test,0,m,-9.000062942504883,Mon Feb 24 2025 19:19:09 GMT-0600 (Central Standard Time),160427.5,O,None,294,,294.0,23,no,1,39518.30000001192,120909.19999998808,test2trial23.png,test2trial23b.png,7059,PC,B,,152970.0,23
