acc_sum,block,block_c,change,condition,correct,correct_response,datetime,endtime,face,project,response,response_time,row_sel,session_number,start_end,starttime,subject_id,task,task_vers,trial
0,prac,1,,1-Back,,,Fri Mar 28 2025 13:32:44 GMT-0500 (Central Daylight Time),,124_o_f_d_a.png,O,space,25951,1,1,,,7084,VNB,A,0
1,prac,1,0.0,1-Back,1,m,Fri Mar 28 2025 13:32:44 GMT-0500 (Central Daylight Time),145639.5,071_y_f_n_a.png,O,m,964,2,1,1751.5,143888.0,7084,VNB,A,1
2,prac,1,0.0,1-Back,1,m,Fri Mar 28 2025 13:32:44 GMT-0500 (Central Daylight Time),147539.20000001788,165_m_m_h_a.png,O,m,1089,3,1,1889.7000000178814,145649.5,7084,VNB,A,2
3,prac,1,0.0,1-Back,1,m,Fri Mar 28 2025 13:32:44 GMT-0500 (Central Daylight Time),149105.90000000596,109_y_m_d_a.png,O,m,753,4,1,1556.4000000059605,147549.5,7084,VNB,A,3
4,prac,1,0.0,1-Back,1,m,Fri Mar 28 2025 13:32:44 GMT-0500 (Central Daylight Time),150571.30000001192,124_o_f_n_a.png,O,m,628,5,1,1456.5999999940395,149114.70000001788,7084,VNB,A,4
5,prac,1,1.0,1-Back,1,z,Fri Mar 28 2025 13:32:44 GMT-0500 (Central Daylight Time),151989.20000001788,109_y_m_n_a.png,O,z,612,6,1,1408.2000000178814,150581.0,7084,VNB,A,5
6,prac,1,0.0,1-Back,1,m,Fri Mar 28 2025 13:32:44 GMT-0500 (Central Daylight Time),153504.0,039_o_m_h_a.png,O,m,708,7,1,1502.699999988079,152001.30000001192,7084,VNB,A,6
7,prac,1,0.0,1-Back,1,m,Fri Mar 28 2025 13:32:44 GMT-0500 (Central Daylight Time),155253.59999999404,139_m_f_d_a.png,O,m,934,8,1,1738.0999999940395,153515.5,7084,VNB,A,7
7,prac,1,1.0,1-Back,0,z,Fri Mar 28 2025 13:32:44 GMT-0500 (Central Daylight Time),157168.80000001192,071_y_f_d_a.png,O,m,1107,9,1,1905.5999999940395,155263.20000001788,7084,VNB,A,8
8,prac,1,0.0,1-Back,1,m,Fri Mar 28 2025 13:32:44 GMT-0500 (Central Daylight Time),158802.90000000596,165_m_m_n_a.png,O,m,822,10,1,1623.199999988079,157179.70000001788,7084,VNB,A,9
9,prac,1,0.0,1-Back,1,m,Fri Mar 28 2025 13:32:44 GMT-0500 (Central Daylight Time),160468.0,124_o_f_h_a.png,O,m,858,11,1,1653.5,158814.5,7084,VNB,A,10
10,prac,1,0.0,1-Back,1,m,Fri Mar 28 2025 13:32:44 GMT-0500 (Central Daylight Time),162150.90000000596,109_y_m_d_a.png,O,m,889,12,1,1671.5999999940395,160479.30000001192,7084,VNB,A,11
0,test,1,0.0,1-Back,,,Fri Mar 28 2025 13:32:44 GMT-0500 (Central Daylight Time),162150.90000000596,071_y_f_d_a.png,O,space,25657,1,1,1671.5999999940395,160479.30000001192,7084,VNB,A,0
1,test,1,0.0,1-Back,1,m,Fri Mar 28 2025 13:32:44 GMT-0500 (Central Daylight Time),199421.20000001788,139_m_f_n_a.png,O,m,835,2,1,1855.1000000238419,197566.09999999404,7084,VNB,A,1
2,test,1,0.0,1-Back,1,m,Fri Mar 28 2025 13:32:44 GMT-0500 (Central Daylight Time),200956.59999999404,039_o_m_h_a.png,O,m,507,3,1,1526.0999999940395,199430.5,7084,VNB,A,2
3,test,1,1.0,1-Back,1,z,Fri Mar 28 2025 13:32:44 GMT-0500 (Central Daylight Time),202570.70000001788,165_m_m_h_a.png,O,z,588,4,1,1604.9000000059605,200965.80000001192,7084,VNB,A,3
4,test,1,0.0,1-Back,1,m,Fri Mar 28 2025 13:32:44 GMT-0500 (Central Daylight Time),204087.40000000596,124_o_f_n_a.png,O,m,493,5,1,1507.0999999940395,202580.30000001192,7084,VNB,A,4
5,test,1,0.0,1-Back,1,m,Fri Mar 28 2025 13:32:44 GMT-0500 (Central Daylight Time),205803.70000001788,109_y_m_d_a.png,O,m,698,6,1,1706.800000011921,204096.90000000596,7084,VNB,A,5
6,test,1,1.0,1-Back,1,z,Fri Mar 28 2025 13:32:44 GMT-0500 (Central Daylight Time),207636.20000001788,139_m_f_d_a.png,O,z,806,7,1,1822.7000000178814,205813.5,7084,VNB,A,6
7,test,1,0.0,1-Back,1,m,Fri Mar 28 2025 13:32:44 GMT-0500 (Central Daylight Time),209502.09999999404,071_y_f_h_a.png,O,m,835,8,1,1855.7999999821186,207646.30000001192,7084,VNB,A,7
8,test,1,0.0,1-Back,1,m,Fri Mar 28 2025 13:32:44 GMT-0500 (Central Daylight Time),210968.90000000596,039_o_m_n_a.png,O,m,432,9,1,1456.800000011921,209512.09999999404,7084,VNB,A,8
9,test,1,0.0,1-Back,1,m,Fri Mar 28 2025 13:32:44 GMT-0500 (Central Daylight Time),212619.80000001192,109_y_m_h_a.png,O,m,633,10,1,1642.2000000178814,210977.59999999404,7084,VNB,A,9
10,test,1,0.0,1-Back,1,m,Fri Mar 28 2025 13:32:44 GMT-0500 (Central Daylight Time),214383.40000000596,039_o_m_d_a.png,O,m,742,11,1,1754.4000000059605,212629.0,7084,VNB,A,10
11,test,1,1.0,1-Back,1,z,Fri Mar 28 2025 13:32:44 GMT-0500 (Central Daylight Time),216200.40000000596,124_o_f_d_a.png,O,z,792,12,1,1806.9000000059605,214393.5,7084,VNB,A,11
12,test,1,0.0,1-Back,1,m,Fri Mar 28 2025 13:32:44 GMT-0500 (Central Daylight Time),217932.40000000596,165_m_m_n_a.png,O,m,705,13,1,1721.800000011921,216210.59999999404,7084,VNB,A,12
13,test,1,1.0,1-Back,1,z,Fri Mar 28 2025 13:32:44 GMT-0500 (Central Daylight Time),220432.70000001788,071_y_f_n_a.png,O,z,1468,14,1,2490.7000000178814,217942.0,7084,VNB,A,13
14,test,1,0.0,1-Back,1,m,Fri Mar 28 2025 13:32:44 GMT-0500 (Central Daylight Time),222348.09999999404,139_m_f_h_a.png,O,m,888,15,1,1904.8999999761581,220443.20000001788,7084,VNB,A,14
15,test,1,0.0,1-Back,1,m,Fri Mar 28 2025 13:32:44 GMT-0500 (Central Daylight Time),224099.09999999404,165_m_m_d_a.png,O,m,735,16,1,1741.8999999761581,222357.20000001788,7084,VNB,A,15
16,test,1,0.0,1-Back,1,m,Fri Mar 28 2025 13:32:44 GMT-0500 (Central Daylight Time),226246.90000000596,109_y_m_n_a.png,O,m,1118,17,1,2140.9000000059605,224106.0,7084,VNB,A,16
17,test,1,0.0,1-Back,1,m,Fri Mar 28 2025 13:32:44 GMT-0500 (Central Daylight Time),228296.90000000596,124_o_f_h_a.png,O,m,1025,18,1,2040.0999999940395,226256.80000001192,7084,VNB,A,17
0,test,2,0.0,1-Back,,,Fri Mar 28 2025 13:32:44 GMT-0500 (Central Daylight Time),228296.90000000596,109_y_m_n_a.png,O,space,1439,1,1,2040.0999999940395,226256.80000001192,7084,VNB,A,0
1,test,2,0.0,1-Back,1,m,Fri Mar 28 2025 13:32:44 GMT-0500 (Central Daylight Time),234428.20000001788,071_y_f_h_a.png,O,m,1635,2,1,2658.2000000178814,231770.0,7084,VNB,A,1
2,test,2,1.0,1-Back,1,m,Fri Mar 28 2025 13:32:44 GMT-0500 (Central Daylight Time),236427.20000001788,039_o_m_n_a.png,O,m,971,3,1,1990.1000000238419,234437.09999999404,7084,VNB,A,2
3,test,2,0.0,1-Back,1,m,Fri Mar 28 2025 13:32:44 GMT-0500 (Central Daylight Time),238227.5,139_m_f_d_a.png,O,m,771,4,1,1791.0,236436.5,7084,VNB,A,3
4,test,2,0.0,1-Back,1,z,Fri Mar 28 2025 13:32:44 GMT-0500 (Central Daylight Time),239877.30000001192,165_m_m_d_a.png,O,z,633,5,1,1640.7000000178814,238236.59999999404,7084,VNB,A,4
5,test,2,0.0,1-Back,1,m,Fri Mar 28 2025 13:32:44 GMT-0500 (Central Daylight Time),241708.90000000596,109_y_m_h_a.png,O,m,805,6,1,1822.9000000059605,239886.0,7084,VNB,A,5
6,test,2,1.0,1-Back,1,z,Fri Mar 28 2025 13:32:44 GMT-0500 (Central Daylight Time),243558.70000001788,124_o_f_h_a.png,O,z,828,7,1,1840.0,241718.70000001788,7084,VNB,A,6
7,test,2,0.0,1-Back,1,m,Fri Mar 28 2025 13:32:44 GMT-0500 (Central Daylight Time),245123.70000001788,139_m_f_n_a.png,O,m,539,8,1,1556.300000011921,243567.40000000596,7084,VNB,A,7
8,test,2,0.0,1-Back,1,m,Fri Mar 28 2025 13:32:44 GMT-0500 (Central Daylight Time),247191.09999999404,071_y_f_d_a.png,O,m,1036,9,1,2058.5,245132.59999999404,7084,VNB,A,8
9,test,2,0.0,1-Back,1,m,Fri Mar 28 2025 13:32:44 GMT-0500 (Central Daylight Time),249222.59999999404,165_m_m_n_a.png,O,m,1009,10,1,2022.699999988079,247199.90000000596,7084,VNB,A,9
10,test,2,1.0,1-Back,1,m,Fri Mar 28 2025 13:32:44 GMT-0500 (Central Daylight Time),251090.0,139_m_f_h_a.png,O,m,840,11,1,1858.0,249232.0,7084,VNB,A,10
11,test,2,0.0,1-Back,1,z,Fri Mar 28 2025 13:32:44 GMT-0500 (Central Daylight Time),252906.0,039_o_m_h_a.png,O,z,791,12,1,1807.2999999821186,251098.70000001788,7084,VNB,A,11
12,test,2,0.0,1-Back,1,m,Fri Mar 28 2025 13:32:44 GMT-0500 (Central Daylight Time),254724.30000001192,109_y_m_d_a.png,O,m,801,13,1,1809.7000000178814,252914.59999999404,7084,VNB,A,12
13,test,2,0.0,1-Back,1,m,Fri Mar 28 2025 13:32:44 GMT-0500 (Central Daylight Time),256288.09999999404,124_o_f_n_a.png,O,m,533,14,1,1555.5,254732.59999999404,7084,VNB,A,13
14,test,2,0.0,1-Back,1,z,Fri Mar 28 2025 13:32:44 GMT-0500 (Central Daylight Time),258103.5,071_y_f_n_a.png,O,z,794,15,1,1805.5,256298.0,7084,VNB,A,14
15,test,2,1.0,1-Back,1,m,Fri Mar 28 2025 13:32:44 GMT-0500 (Central Daylight Time),259852.70000001788,165_m_m_h_a.png,O,m,720,16,1,1740.6000000238419,258112.09999999404,7084,VNB,A,15
16,test,2,0.0,1-Back,1,m,Fri Mar 28 2025 13:32:44 GMT-0500 (Central Daylight Time),261837.09999999404,124_o_f_d_a.png,O,m,964,17,1,1974.5,259862.59999999404,7084,VNB,A,16
17,test,2,1.0,1-Back,1,z,Fri Mar 28 2025 13:32:44 GMT-0500 (Central Daylight Time),263434.90000000596,039_o_m_d_a.png,O,z,572,18,1,1592.800000011921,261842.09999999404,7084,VNB,A,17
0,test,3,1.0,1-Back,,,Fri Mar 28 2025 13:32:44 GMT-0500 (Central Daylight Time),263434.90000000596,124_o_f_h_a.png,O,space,1126,1,1,1592.800000011921,261842.09999999404,7084,VNB,A,0
1,test,3,0.0,1-Back,1,m,Fri Mar 28 2025 13:32:44 GMT-0500 (Central Daylight Time),268700.09999999404,139_m_f_d_a.png,O,m,1055,2,1,2072.0999999940395,266628.0,7084,VNB,A,1
2,test,3,1.0,1-Back,1,m,Fri Mar 28 2025 13:32:44 GMT-0500 (Central Daylight Time),270416.09999999404,165_m_m_n_a.png,O,m,693,3,1,1705.8999999761581,268710.2000000179,7084,VNB,A,2
3,test,3,0.0,1-Back,1,z,Fri Mar 28 2025 13:32:44 GMT-0500 (Central Daylight Time),272163.40000000596,124_o_f_n_a.png,O,z,728,4,1,1737.5999999940395,270425.8000000119,7084,VNB,A,3
4,test,3,1.0,1-Back,1,m,Fri Mar 28 2025 13:32:44 GMT-0500 (Central Daylight Time),273781.59999999404,039_o_m_d_a.png,O,m,586,5,1,1609.0999999940395,272172.5,7084,VNB,A,4
5,test,3,0.0,1-Back,1,m,Fri Mar 28 2025 13:32:44 GMT-0500 (Central Daylight Time),275429.90000000596,071_y_f_h_a.png,O,m,627,6,1,1638.300000011921,273791.59999999404,7084,VNB,A,5
6,test,3,0.0,1-Back,1,z,Fri Mar 28 2025 13:32:44 GMT-0500 (Central Daylight Time),276964.5,109_y_m_h_a.png,O,z,514,7,1,1525.0,275439.5,7084,VNB,A,6
7,test,3,0.0,1-Back,1,m,Fri Mar 28 2025 13:32:44 GMT-0500 (Central Daylight Time),278879.3000000119,139_m_f_n_a.png,O,m,892,8,1,1906.300000011921,276973.0,7084,VNB,A,7
8,test,3,0.0,1-Back,1,m,Fri Mar 28 2025 13:32:44 GMT-0500 (Central Daylight Time),280547.0,071_y_f_d_a.png,O,m,649,9,1,1658.5,278888.5,7084,VNB,A,8
9,test,3,1.0,1-Back,1,m,Fri Mar 28 2025 13:32:44 GMT-0500 (Central Daylight Time),282211.5,039_o_m_n_a.png,O,m,645,10,1,1655.5,280556.0,7084,VNB,A,9
10,test,3,0.0,1-Back,1,m,Fri Mar 28 2025 13:32:44 GMT-0500 (Central Daylight Time),284395.09999999404,165_m_m_h_a.png,O,m,1155,11,1,2174.699999988079,282220.40000000596,7084,VNB,A,10
11,test,3,0.0,1-Back,1,z,Fri Mar 28 2025 13:32:44 GMT-0500 (Central Daylight Time),286009.5,139_m_f_h_a.png,O,z,585,12,1,1605.5,284404.0,7084,VNB,A,11
12,test,3,1.0,1-Back,1,m,Fri Mar 28 2025 13:32:44 GMT-0500 (Central Daylight Time),287693.09999999404,124_o_f_d_a.png,O,m,661,13,1,1674.5999999940395,286018.5,7084,VNB,A,12
13,test,3,0.0,1-Back,1,z,Fri Mar 28 2025 13:32:44 GMT-0500 (Central Daylight Time),289209.7000000179,165_m_m_d_a.png,O,z,490,14,1,1506.5,287703.2000000179,7084,VNB,A,13
14,test,3,0.0,1-Back,1,m,Fri Mar 28 2025 13:32:44 GMT-0500 (Central Daylight Time),290860.40000000596,109_y_m_n_a.png,O,m,630,15,1,1641.300000011921,289219.09999999404,7084,VNB,A,14
15,test,3,1.0,1-Back,1,m,Fri Mar 28 2025 13:32:44 GMT-0500 (Central Daylight Time),292959.90000000596,039_o_m_h_a.png,O,m,1069,16,1,2090.800000011921,290869.09999999404,7084,VNB,A,15
16,test,3,0.0,1-Back,1,m,Fri Mar 28 2025 13:32:44 GMT-0500 (Central Daylight Time),294658.09999999404,109_y_m_d_a.png,O,m,672,17,1,1689.5,292968.59999999404,7084,VNB,A,16
17,test,3,1.0,1-Back,1,m,Fri Mar 28 2025 13:32:44 GMT-0500 (Central Daylight Time),296407.2000000179,071_y_f_n_a.png,O,m,726,18,1,1739.800000011921,294667.40000000596,7084,VNB,A,17
0,test,4,1.0,1-Back,,,Fri Mar 28 2025 13:32:44 GMT-0500 (Central Daylight Time),296407.2000000179,165_m_m_d_a.png,O,space,953,1,1,1739.800000011921,294667.40000000596,7084,VNB,A,0
1,test,4,0.0,1-Back,1,z,Fri Mar 28 2025 13:32:44 GMT-0500 (Central Daylight Time),301090.3000000119,039_o_m_d_a.png,O,z,670,2,1,1690.4000000059605,299399.90000000596,7084,VNB,A,1
2,test,4,0.0,1-Back,1,m,Fri Mar 28 2025 13:32:44 GMT-0500 (Central Daylight Time),302821.59999999404,109_y_m_h_a.png,O,m,710,3,1,1721.199999988079,301100.40000000596,7084,VNB,A,2
3,test,4,0.0,1-Back,1,m,Fri Mar 28 2025 13:32:44 GMT-0500 (Central Daylight Time),304572.09999999404,139_m_f_n_a.png,O,m,720,4,1,1742.7999999821186,302829.3000000119,7084,VNB,A,3
4,test,4,1.0,1-Back,1,m,Fri Mar 28 2025 13:32:44 GMT-0500 (Central Daylight Time),306270.90000000596,124_o_f_h_a.png,O,m,675,5,1,1689.800000011921,304581.09999999404,7084,VNB,A,4
5,test,4,0.0,1-Back,1,m,Fri Mar 28 2025 13:32:44 GMT-0500 (Central Daylight Time),308070.59999999404,165_m_m_n_a.png,O,m,768,6,1,1791.0,306279.59999999404,7084,VNB,A,5
6,test,4,0.0,1-Back,1,m,Fri Mar 28 2025 13:32:44 GMT-0500 (Central Daylight Time),309936.90000000596,109_y_m_d_a.png,O,m,833,7,1,1857.5999999940395,308079.3000000119,7084,VNB,A,6
7,test,4,1.0,1-Back,1,z,Fri Mar 28 2025 13:32:44 GMT-0500 (Central Daylight Time),311587.40000000596,071_y_f_d_a.png,O,z,616,8,1,1642.199999988079,309945.2000000179,7084,VNB,A,7
8,test,4,0.0,1-Back,1,m,Fri Mar 28 2025 13:32:44 GMT-0500 (Central Daylight Time),313318.8000000119,139_m_f_h_a.png,O,m,710,9,1,1722.300000011921,311596.5,7084,VNB,A,8
8,test,4,0.0,1-Back,0,z,Fri Mar 28 2025 13:32:44 GMT-0500 (Central Daylight Time),315020.0,039_o_m_h_a.png,O,m,683,10,1,1692.0999999940395,313327.90000000596,7084,VNB,A,9
9,test,4,1.0,1-Back,1,m,Fri Mar 28 2025 13:32:44 GMT-0500 (Central Daylight Time),316717.59999999404,124_o_f_n_a.png,O,m,677,11,1,1689.5,315028.09999999404,7084,VNB,A,10
10,test,4,0.0,1-Back,1,m,Fri Mar 28 2025 13:32:44 GMT-0500 (Central Daylight Time),318685.40000000596,139_m_f_d_a.png,O,m,949,12,1,1958.9000000059605,316726.5,7084,VNB,A,11
11,test,4,0.0,1-Back,1,m,Fri Mar 28 2025 13:32:44 GMT-0500 (Central Daylight Time),320517.09999999404,071_y_f_n_a.png,O,m,812,13,1,1822.0999999940395,318695.0,7084,VNB,A,12
12,test,4,0.0,1-Back,1,m,Fri Mar 28 2025 13:32:44 GMT-0500 (Central Daylight Time),322249.8000000119,124_o_f_d_a.png,O,m,714,14,1,1723.4000000059605,320526.40000000596,7084,VNB,A,13
13,test,4,0.0,1-Back,1,m,Fri Mar 28 2025 13:32:44 GMT-0500 (Central Daylight Time),324033.90000000596,071_y_f_h_a.png,O,m,768,15,1,1775.199999988079,322258.7000000179,7084,VNB,A,14
14,test,4,1.0,1-Back,1,z,Fri Mar 28 2025 13:32:44 GMT-0500 (Central Daylight Time),325883.0,165_m_m_h_a.png,O,z,833,16,1,1840.0,324043.0,7084,VNB,A,15
15,test,4,0.0,1-Back,1,m,Fri Mar 28 2025 13:32:44 GMT-0500 (Central Daylight Time),327530.8000000119,039_o_m_n_a.png,O,m,630,17,1,1640.5,325890.3000000119,7084,VNB,A,16
16,test,4,1.0,1-Back,1,z,Fri Mar 28 2025 13:32:44 GMT-0500 (Central Daylight Time),329280.3000000119,109_y_m_n_a.png,O,z,726,18,1,1741.2000000178814,327539.09999999404,7084,VNB,A,17
0,test,5,1.0,1-Back,,,Fri Mar 28 2025 13:32:44 GMT-0500 (Central Daylight Time),329280.3000000119,039_o_m_n_a.png,O,space,1152,1,1,1741.2000000178814,327539.09999999404,7084,VNB,A,0
1,test,5,1.0,1-Back,1,m,Fri Mar 28 2025 13:32:44 GMT-0500 (Central Daylight Time),334445.09999999404,124_o_f_h_a.png,O,m,961,2,1,1975.0,332470.09999999404,7084,VNB,A,1
2,test,5,0.0,1-Back,1,m,Fri Mar 28 2025 13:32:44 GMT-0500 (Central Daylight Time),336129.8000000119,109_y_m_d_a.png,O,m,667,3,1,1676.0999999940395,334453.7000000179,7084,VNB,A,2
3,test,5,0.0,1-Back,1,z,Fri Mar 28 2025 13:32:44 GMT-0500 (Central Daylight Time),337612.40000000596,039_o_m_d_a.png,O,z,467,4,1,1475.4000000059605,336137.0,7084,VNB,A,3
4,test,5,0.0,1-Back,1,m,Fri Mar 28 2025 13:32:44 GMT-0500 (Central Daylight Time),339160.7000000179,139_m_f_h_a.png,O,m,526,5,1,1540.9000000059605,337619.8000000119,7084,VNB,A,4
5,test,5,0.0,1-Back,1,m,Fri Mar 28 2025 13:32:44 GMT-0500 (Central Daylight Time),340928.59999999404,071_y_f_n_a.png,O,m,743,6,1,1758.7999999821186,339169.8000000119,7084,VNB,A,5
6,test,5,1.0,1-Back,1,z,Fri Mar 28 2025 13:32:44 GMT-0500 (Central Daylight Time),342560.09999999404,124_o_f_n_a.png,O,z,601,7,1,1624.7999999821186,340935.3000000119,7084,VNB,A,6
7,test,5,0.0,1-Back,1,m,Fri Mar 28 2025 13:32:44 GMT-0500 (Central Daylight Time),344209.90000000596,139_m_f_d_a.png,O,m,632,8,1,1640.699999988079,342569.2000000179,7084,VNB,A,7
8,test,5,0.0,1-Back,1,m,Fri Mar 28 2025 13:32:44 GMT-0500 (Central Daylight Time),345892.3000000119,109_y_m_h_a.png,O,m,653,9,1,1672.5999999940395,344219.7000000179,7084,VNB,A,8
9,test,5,0.0,1-Back,1,m,Fri Mar 28 2025 13:32:44 GMT-0500 (Central Daylight Time),347624.09999999404,071_y_f_d_a.png,O,m,701,10,1,1722.199999988079,345901.90000000596,7084,VNB,A,9
10,test,5,0.0,1-Back,1,m,Fri Mar 28 2025 13:32:44 GMT-0500 (Central Daylight Time),349373.0,165_m_m_n_a.png,O,m,722,11,1,1739.199999988079,347633.8000000119,7084,VNB,A,10
11,test,5,1.0,1-Back,1,z,Fri Mar 28 2025 13:32:44 GMT-0500 (Central Daylight Time),351039.09999999404,139_m_f_n_a.png,O,z,644,12,1,1661.5999999940395,349377.5,7084,VNB,A,11
12,test,5,0.0,1-Back,1,m,Fri Mar 28 2025 13:32:44 GMT-0500 (Central Daylight Time),352555.0,039_o_m_h_a.png,O,m,490,13,1,1510.9000000059605,351044.09999999404,7084,VNB,A,12
13,test,5,0.0,1-Back,1,z,Fri Mar 28 2025 13:32:44 GMT-0500 (Central Daylight Time),354321.40000000596,165_m_m_h_a.png,O,z,733,14,1,1762.0,352559.40000000596,7084,VNB,A,13
14,test,5,1.0,1-Back,1,m,Fri Mar 28 2025 13:32:44 GMT-0500 (Central Daylight Time),355907.59999999404,124_o_f_d_a.png,O,m,567,15,1,1581.0,354326.59999999404,7084,VNB,A,14
15,test,5,0.0,1-Back,1,m,Fri Mar 28 2025 13:32:44 GMT-0500 (Central Daylight Time),357620.59999999404,109_y_m_n_a.png,O,m,688,16,1,1708.199999988079,355912.40000000596,7084,VNB,A,15
16,test,5,0.0,1-Back,1,m,Fri Mar 28 2025 13:32:44 GMT-0500 (Central Daylight Time),359385.5,071_y_f_h_a.png,O,m,740,17,1,1759.2999999821186,357626.2000000179,7084,VNB,A,16
17,test,5,0.0,1-Back,1,m,Fri Mar 28 2025 13:32:44 GMT-0500 (Central Daylight Time),361185.59999999404,165_m_m_d_a.png,O,m,774,18,1,1795.3999999761581,359390.2000000179,7084,VNB,A,17
0,prac,1,0.0,2-Back,,,Fri Mar 28 2025 13:32:44 GMT-0500 (Central Daylight Time),361185.59999999404,139_m_f_n_a.png,O,space,2644,1,1,1795.3999999761581,359390.2000000179,7084,VNB,A,0
0,prac,1,0.0,2-Back,,,Fri Mar 28 2025 13:32:44 GMT-0500 (Central Daylight Time),361185.59999999404,124_o_f_h_a.png,O,space,2644,2,1,1795.3999999761581,359390.2000000179,7084,VNB,A,0
1,prac,1,0.0,2-Back,1,m,Fri Mar 28 2025 13:32:44 GMT-0500 (Central Daylight Time),476082.40000000596,039_o_m_d_a.png,O,m,895,3,1,1693.300000011921,474389.09999999404,7084,VNB,A,1
1,prac,1,1.0,2-Back,0,z,Fri Mar 28 2025 13:32:44 GMT-0500 (Central Daylight Time),478881.8000000119,165_m_m_h_a.png,O,None,2004,4,1,2793.7000000178814,476088.09999999404,7084,VNB,A,2
1,prac,1,0.0,2-Back,0,m,Fri Mar 28 2025 13:32:44 GMT-0500 (Central Daylight Time),481696.90000000596,071_y_f_n_a.png,O,None,2016,5,1,2807.0999999940395,478889.8000000119,7084,VNB,A,3
2,prac,1,1.0,2-Back,1,z,Fri Mar 28 2025 13:32:44 GMT-0500 (Central Daylight Time),484245.7000000179,039_o_m_h_a.png,O,z,1760,6,1,2542.4000000059605,481703.3000000119,7084,VNB,A,4
3,prac,1,1.0,2-Back,1,z,Fri Mar 28 2025 13:32:44 GMT-0500 (Central Daylight Time),486479.90000000596,109_y_m_n_a.png,O,z,1426,7,1,2228.300000011921,484251.59999999404,7084,VNB,A,5
4,prac,1,0.0,2-Back,1,m,Fri Mar 28 2025 13:32:44 GMT-0500 (Central Daylight Time),488813.8000000119,139_m_f_d_a.png,O,m,1529,8,1,2324.300000011921,486489.5,7084,VNB,A,6
5,prac,1,0.0,2-Back,1,m,Fri Mar 28 2025 13:32:44 GMT-0500 (Central Daylight Time),490894.7000000179,124_o_f_d_a.png,O,m,1254,9,1,2070.100000023842,488824.59999999404,7084,VNB,A,7
6,prac,1,0.0,2-Back,1,m,Fri Mar 28 2025 13:32:44 GMT-0500 (Central Daylight Time),492909.40000000596,165_m_m_h_a.png,O,m,1225,10,1,2006.9000000059605,490902.5,7084,VNB,A,8
7,prac,1,1.0,2-Back,1,z,Fri Mar 28 2025 13:32:44 GMT-0500 (Central Daylight Time),494659.0,071_y_f_d_a.png,O,z,951,11,1,1742.199999988079,492916.8000000119,7084,VNB,A,9
8,prac,1,0.0,2-Back,1,m,Fri Mar 28 2025 13:32:44 GMT-0500 (Central Daylight Time),496764.7000000179,039_o_m_n_a.png,O,m,1322,12,1,2098.9000000059605,494665.8000000119,7084,VNB,A,10
0,test,1,0.0,2-Back,,,Fri Mar 28 2025 13:32:44 GMT-0500 (Central Daylight Time),496764.7000000179,109_y_m_h_a.png,O,space,18595,1,1,2098.9000000059605,494665.8000000119,7084,VNB,A,0
0,test,1,0.0,2-Back,,,Fri Mar 28 2025 13:32:44 GMT-0500 (Central Daylight Time),496764.7000000179,124_o_f_n_a.png,O,space,18595,2,1,2098.9000000059605,494665.8000000119,7084,VNB,A,0
1,test,1,0.0,2-Back,1,z,Fri Mar 28 2025 13:32:44 GMT-0500 (Central Daylight Time),528298.099999994,039_o_m_h_a.png,O,z,581,3,1,1592.5,526705.599999994,7084,VNB,A,1
2,test,1,0.0,2-Back,1,m,Fri Mar 28 2025 13:32:44 GMT-0500 (Central Daylight Time),530430.7000000179,139_m_f_d_a.png,O,m,1101,4,1,2127.0,528303.7000000179,7084,VNB,A,2
3,test,1,1.0,2-Back,1,m,Fri Mar 28 2025 13:32:44 GMT-0500 (Central Daylight Time),532596.8000000119,109_y_m_n_a.png,O,m,1144,5,1,2157.2000000178814,530439.599999994,7084,VNB,A,3
4,test,1,0.0,2-Back,1,z,Fri Mar 28 2025 13:32:44 GMT-0500 (Central Daylight Time),535480.8000000119,071_y_f_d_a.png,O,z,1859,6,1,2878.5,532602.3000000119,7084,VNB,A,4
5,test,1,0.0,2-Back,1,m,Fri Mar 28 2025 13:32:44 GMT-0500 (Central Daylight Time),537978.599999994,165_m_m_h_a.png,O,m,1472,7,1,2490.899999976158,535487.7000000179,7084,VNB,A,5
6,test,1,1.0,2-Back,1,m,Fri Mar 28 2025 13:32:44 GMT-0500 (Central Daylight Time),539712.3000000119,071_y_f_n_a.png,O,m,710,8,1,1728.5,537983.8000000119,7084,VNB,A,6
7,test,1,0.0,2-Back,1,z,Fri Mar 28 2025 13:32:44 GMT-0500 (Central Daylight Time),541560.7000000179,124_o_f_h_a.png,O,z,824,9,1,1840.9000000059605,539719.8000000119,7084,VNB,A,7
8,test,1,0.0,2-Back,1,m,Fri Mar 28 2025 13:32:44 GMT-0500 (Central Daylight Time),544126.3000000119,039_o_m_d_a.png,O,m,1542,10,1,2560.5999999940395,541565.7000000179,7084,VNB,A,8
9,test,1,1.0,2-Back,1,m,Fri Mar 28 2025 13:32:44 GMT-0500 (Central Daylight Time),546143.2000000179,165_m_m_d_a.png,O,m,992,11,1,2008.6000000238419,544134.599999994,7084,VNB,A,9
10,test,1,0.0,2-Back,1,m,Fri Mar 28 2025 13:32:44 GMT-0500 (Central Daylight Time),549111.0,139_m_f_n_a.png,O,m,1937,12,1,2962.699999988079,546148.3000000119,7084,VNB,A,10
11,test,1,0.0,2-Back,1,m,Fri Mar 28 2025 13:32:44 GMT-0500 (Central Daylight Time),551374.599999994,071_y_f_h_a.png,O,m,1243,13,1,2256.7999999821186,549117.8000000119,7084,VNB,A,11
12,test,1,0.0,2-Back,1,z,Fri Mar 28 2025 13:32:44 GMT-0500 (Central Daylight Time),553757.8000000119,165_m_m_n_a.png,O,z,1352,14,1,2378.4000000059605,551379.400000006,7084,VNB,A,12
13,test,1,0.0,2-Back,1,m,Fri Mar 28 2025 13:32:44 GMT-0500 (Central Daylight Time),555706.8000000119,109_y_m_d_a.png,O,m,931,15,1,1942.7000000178814,553764.099999994,7084,VNB,A,13
14,test,1,1.0,2-Back,1,m,Fri Mar 28 2025 13:32:44 GMT-0500 (Central Daylight Time),557738.900000006,139_m_f_h_a.png,O,m,1012,16,1,2026.5999999940395,555712.3000000119,7084,VNB,A,14
15,test,1,0.0,2-Back,1,z,Fri Mar 28 2025 13:32:44 GMT-0500 (Central Daylight Time),560205.8000000119,124_o_f_d_a.png,O,z,1436,17,1,2461.800000011921,557744.0,7084,VNB,A,15
16,test,1,0.0,2-Back,1,m,Fri Mar 28 2025 13:32:44 GMT-0500 (Central Daylight Time),562388.7000000179,039_o_m_n_a.png,O,m,1155,18,1,2177.4000000059605,560211.3000000119,7084,VNB,A,16
0,test,2,0.0,2-Back,,,Fri Mar 28 2025 13:32:44 GMT-0500 (Central Daylight Time),562388.7000000179,165_m_m_h_a.png,O,space,1083,1,1,2177.4000000059605,560211.3000000119,7084,VNB,A,0
0,test,2,0.0,2-Back,,,Fri Mar 28 2025 13:32:44 GMT-0500 (Central Daylight Time),562388.7000000179,071_y_f_n_a.png,O,space,1083,2,1,2177.4000000059605,560211.3000000119,7084,VNB,A,0
1,test,2,1.0,2-Back,1,z,Fri Mar 28 2025 13:32:44 GMT-0500 (Central Daylight Time),570634.599999994,124_o_f_h_a.png,O,z,1021,3,1,2043.8999999761581,568590.7000000179,7084,VNB,A,1
2,test,2,0.0,2-Back,1,m,Fri Mar 28 2025 13:32:44 GMT-0500 (Central Daylight Time),572434.2000000179,039_o_m_d_a.png,O,m,772,4,1,1794.2000000178814,570640.0,7084,VNB,A,2
3,test,2,0.0,2-Back,1,m,Fri Mar 28 2025 13:32:44 GMT-0500 (Central Daylight Time),574501.2000000179,139_m_f_d_a.png,O,m,1045,5,1,2060.600000023842,572440.599999994,7084,VNB,A,3
4,test,2,0.0,2-Back,1,m,Fri Mar 28 2025 13:32:44 GMT-0500 (Central Daylight Time),576916.099999994,109_y_m_h_a.png,O,m,1387,6,1,2409.5,574506.599999994,7084,VNB,A,4
5,test,2,0.0,2-Back,1,m,Fri Mar 28 2025 13:32:44 GMT-0500 (Central Daylight Time),579398.5,124_o_f_n_a.png,O,m,1451,7,1,2475.4000000059605,576923.099999994,7084,VNB,A,5
5,test,2,1.0,2-Back,0,z,Fri Mar 28 2025 13:32:44 GMT-0500 (Central Daylight Time),582047.7000000179,039_o_m_h_a.png,O,m,1624,8,1,2642.100000023842,579405.599999994,7084,VNB,A,6
6,test,2,0.0,2-Back,1,m,Fri Mar 28 2025 13:32:44 GMT-0500 (Central Daylight Time),584198.5,071_y_f_d_a.png,O,m,1119,9,1,2142.5,582056.0,7084,VNB,A,7
7,test,2,0.0,2-Back,1,m,Fri Mar 28 2025 13:32:44 GMT-0500 (Central Daylight Time),585880.0,109_y_m_d_a.png,O,m,650,10,1,1671.9000000059605,584208.099999994,7084,VNB,A,8
8,test,2,0.0,2-Back,1,m,Fri Mar 28 2025 13:32:44 GMT-0500 (Central Daylight Time),588496.3000000119,165_m_m_n_a.png,O,m,1599,11,1,2609.300000011921,585887.0,7084,VNB,A,9
9,test,2,0.0,2-Back,1,m,Fri Mar 28 2025 13:32:44 GMT-0500 (Central Daylight Time),590803.0,139_m_f_h_a.png,O,m,1290,12,1,2301.4000000059605,588501.599999994,7084,VNB,A,10
10,test,2,1.0,2-Back,1,z,Fri Mar 28 2025 13:32:44 GMT-0500 (Central Daylight Time),593210.8000000119,039_o_m_n_a.png,O,z,1394,13,1,2402.5,590808.3000000119,7084,VNB,A,11
11,test,2,0.0,2-Back,1,m,Fri Mar 28 2025 13:32:44 GMT-0500 (Central Daylight Time),596043.400000006,124_o_f_d_a.png,O,m,1804,14,1,2827.0,593216.400000006,7084,VNB,A,12
12,test,2,0.0,2-Back,1,m,Fri Mar 28 2025 13:32:44 GMT-0500 (Central Daylight Time),598858.8000000119,071_y_f_h_a.png,O,m,1788,15,1,2809.2000000178814,596049.599999994,7084,VNB,A,13
13,test,2,0.0,2-Back,1,z,Fri Mar 28 2025 13:32:44 GMT-0500 (Central Daylight Time),601075.3000000119,165_m_m_d_a.png,O,z,1188,16,1,2210.4000000059605,598864.900000006,7084,VNB,A,14
14,test,2,0.0,2-Back,1,m,Fri Mar 28 2025 13:32:44 GMT-0500 (Central Daylight Time),603324.5,109_y_m_n_a.png,O,m,1228,17,1,2243.5,601081.0,7084,VNB,A,15
15,test,2,1.0,2-Back,1,m,Fri Mar 28 2025 13:32:44 GMT-0500 (Central Daylight Time),605540.2000000179,139_m_f_n_a.png,O,m,1185,18,1,2209.300000011921,603330.900000006,7084,VNB,A,16
0,test,3,1.0,2-Back,,,Fri Mar 28 2025 13:32:44 GMT-0500 (Central Daylight Time),605540.2000000179,039_o_m_n_a.png,O,space,1011,1,1,2209.300000011921,603330.900000006,7084,VNB,A,0
0,test,3,1.0,2-Back,,,Fri Mar 28 2025 13:32:44 GMT-0500 (Central Daylight Time),605540.2000000179,124_o_f_d_a.png,O,space,1011,2,1,2209.300000011921,603330.900000006,7084,VNB,A,0
1,test,3,0.0,2-Back,1,m,Fri Mar 28 2025 13:32:44 GMT-0500 (Central Daylight Time),613521.400000006,071_y_f_h_a.png,O,m,898,3,1,1911.5999999940395,611609.8000000119,7084,VNB,A,1
2,test,3,0.0,2-Back,1,z,Fri Mar 28 2025 13:32:44 GMT-0500 (Central Daylight Time),615487.7000000179,139_m_f_d_a.png,O,z,928,4,1,1961.300000011921,613526.400000006,7084,VNB,A,2
3,test,3,1.0,2-Back,1,m,Fri Mar 28 2025 13:32:44 GMT-0500 (Central Daylight Time),617952.8000000119,109_y_m_n_a.png,O,m,1439,5,1,2459.0,615493.8000000119,7084,VNB,A,3
4,test,3,0.0,2-Back,1,m,Fri Mar 28 2025 13:32:44 GMT-0500 (Central Daylight Time),620268.900000006,039_o_m_h_a.png,O,m,1294,6,1,2311.0,617957.900000006,7084,VNB,A,4
5,test,3,0.0,2-Back,1,z,Fri Mar 28 2025 13:32:44 GMT-0500 (Central Daylight Time),622118.7000000179,071_y_f_n_a.png,O,z,818,7,1,1844.7000000178814,620274.0,7084,VNB,A,5
6,test,3,1.0,2-Back,1,m,Fri Mar 28 2025 13:32:44 GMT-0500 (Central Daylight Time),624184.599999994,165_m_m_d_a.png,O,m,1050,8,1,2059.899999976158,622124.7000000179,7084,VNB,A,6
7,test,3,0.0,2-Back,1,m,Fri Mar 28 2025 13:32:44 GMT-0500 (Central Daylight Time),626333.5,109_y_m_d_a.png,O,m,1126,9,1,2143.199999988079,624190.3000000119,7084,VNB,A,7
8,test,3,0.0,2-Back,1,m,Fri Mar 28 2025 13:32:44 GMT-0500 (Central Daylight Time),628468.3000000119,124_o_f_h_a.png,O,m,1114,10,1,2126.9000000059605,626341.400000006,7084,VNB,A,8
9,test,3,1.0,2-Back,1,m,Fri Mar 28 2025 13:32:44 GMT-0500 (Central Daylight Time),630382.400000006,139_m_f_n_a.png,O,m,893,11,1,1908.9000000059605,628473.5,7084,VNB,A,9
10,test,3,1.0,2-Back,1,z,Fri Mar 28 2025 13:32:44 GMT-0500 (Central Daylight Time),632231.7000000179,165_m_m_h_a.png,O,z,817,12,1,1843.7000000178814,630388.0,7084,VNB,A,10
11,test,3,0.0,2-Back,1,m,Fri Mar 28 2025 13:32:44 GMT-0500 (Central Daylight Time),634281.8000000119,071_y_f_d_a.png,O,m,1033,13,1,2045.300000011921,632236.5,7084,VNB,A,11
12,test,3,0.0,2-Back,1,m,Fri Mar 28 2025 13:32:44 GMT-0500 (Central Daylight Time),636547.3000000119,124_o_f_n_a.png,O,m,1238,14,1,2258.5,634288.8000000119,7084,VNB,A,12
13,test,3,0.0,2-Back,1,z,Fri Mar 28 2025 13:32:44 GMT-0500 (Central Daylight Time),638563.2000000179,039_o_m_d_a.png,O,z,988,15,1,2009.9000000059605,636553.3000000119,7084,VNB,A,13
14,test,3,1.0,2-Back,1,m,Fri Mar 28 2025 13:32:44 GMT-0500 (Central Daylight Time),640879.7000000179,139_m_f_h_a.png,O,m,1292,16,1,2311.5,638568.2000000179,7084,VNB,A,14
14,test,3,0.0,2-Back,0,m,Fri Mar 28 2025 13:32:44 GMT-0500 (Central Daylight Time),643279.099999994,165_m_m_n_a.png,O,z,1368,17,1,2394.0999999940395,640885.0,7084,VNB,A,15
15,test,3,0.0,2-Back,1,z,Fri Mar 28 2025 13:32:44 GMT-0500 (Central Daylight Time),645611.2000000179,109_y_m_h_a.png,O,z,1312,18,1,2326.2000000178814,643285.0,7084,VNB,A,16
0,test,4,0.0,2-Back,,,Fri Mar 28 2025 13:32:44 GMT-0500 (Central Daylight Time),645611.2000000179,139_m_f_n_a.png,O,space,908,1,1,2326.2000000178814,643285.0,7084,VNB,A,0
0,test,4,0.0,2-Back,,,Fri Mar 28 2025 13:32:44 GMT-0500 (Central Daylight Time),645611.2000000179,039_o_m_n_a.png,O,space,908,2,1,2326.2000000178814,643285.0,7084,VNB,A,0
0,test,4,1.0,2-Back,0,m,Fri Mar 28 2025 13:32:44 GMT-0500 (Central Daylight Time),654625.3000000119,109_y_m_h_a.png,O,None,2016,3,1,3023.7000000178814,651601.599999994,7084,VNB,A,1
1,test,4,1.0,2-Back,1,m,Fri Mar 28 2025 13:32:44 GMT-0500 (Central Daylight Time),657041.2000000179,124_o_f_d_a.png,O,m,1398,4,1,2410.800000011921,654630.400000006,7084,VNB,A,2
1,test,4,0.0,2-Back,0,z,Fri Mar 28 2025 13:32:44 GMT-0500 (Central Daylight Time),659674.8000000119,039_o_m_h_a.png,O,m,1617,5,1,2627.7000000178814,657047.099999994,7084,VNB,A,3
1,test,4,0.0,2-Back,0,m,Fri Mar 28 2025 13:32:44 GMT-0500 (Central Daylight Time),661738.900000006,165_m_m_n_a.png,O,z,1046,6,1,2058.0,659680.900000006,7084,VNB,A,4
2,test,4,0.0,2-Back,1,m,Fri Mar 28 2025 13:32:44 GMT-0500 (Central Daylight Time),663539.5,139_m_f_d_a.png,O,m,779,7,1,1792.7999999821186,661746.7000000179,7084,VNB,A,5
3,test,4,0.0,2-Back,1,z,Fri Mar 28 2025 13:32:44 GMT-0500 (Central Daylight Time),665688.5,071_y_f_n_a.png,O,z,1125,8,1,2143.7999999821186,663544.7000000179,7084,VNB,A,6
4,test,4,1.0,2-Back,1,m,Fri Mar 28 2025 13:32:44 GMT-0500 (Central Daylight Time),667670.599999994,124_o_f_h_a.png,O,m,960,9,1,1976.0999999940395,665694.5,7084,VNB,A,7
5,test,4,0.0,2-Back,1,m,Fri Mar 28 2025 13:32:44 GMT-0500 (Central Daylight Time),670003.2000000179,165_m_m_h_a.png,O,m,1304,10,1,2325.9000000059605,667677.3000000119,7084,VNB,A,8
6,test,4,0.0,2-Back,1,m,Fri Mar 28 2025 13:32:44 GMT-0500 (Central Daylight Time),672054.2000000179,071_y_f_d_a.png,O,m,1028,11,1,2046.2000000178814,670008.0,7084,VNB,A,9
7,test,4,0.0,2-Back,1,m,Fri Mar 28 2025 13:32:44 GMT-0500 (Central Daylight Time),674101.7000000179,109_y_m_n_a.png,O,m,1018,12,1,2040.6000000238419,672061.099999994,7084,VNB,A,10
8,test,4,0.0,2-Back,1,z,Fri Mar 28 2025 13:32:44 GMT-0500 (Central Daylight Time),676351.599999994,039_o_m_d_a.png,O,z,1224,13,1,2244.2999999821186,674107.3000000119,7084,VNB,A,11
9,test,4,1.0,2-Back,1,m,Fri Mar 28 2025 13:32:44 GMT-0500 (Central Daylight Time),678884.3000000119,139_m_f_h_a.png,O,m,1504,14,1,2527.0999999940395,676357.2000000179,7084,VNB,A,12
10,test,4,1.0,2-Back,1,m,Fri Mar 28 2025 13:32:44 GMT-0500 (Central Daylight Time),680832.900000006,071_y_f_h_a.png,O,m,922,15,1,1942.0,678890.900000006,7084,VNB,A,13
11,test,4,0.0,2-Back,1,m,Fri Mar 28 2025 13:32:44 GMT-0500 (Central Daylight Time),682915.599999994,124_o_f_n_a.png,O,m,1063,16,1,2076.0,680839.599999994,7084,VNB,A,14
12,test,4,0.0,2-Back,1,m,Fri Mar 28 2025 13:32:44 GMT-0500 (Central Daylight Time),685231.900000006,109_y_m_d_a.png,O,m,1299,17,1,2310.300000011921,682921.599999994,7084,VNB,A,15
13,test,4,1.0,2-Back,1,m,Fri Mar 28 2025 13:32:44 GMT-0500 (Central Daylight Time),687097.8000000119,165_m_m_d_a.png,O,m,839,18,1,1860.0,685237.8000000119,7084,VNB,A,16
0,test,5,1.0,2-Back,,,Fri Mar 28 2025 13:32:44 GMT-0500 (Central Daylight Time),687097.8000000119,071_y_f_d_a.png,O,space,958,1,1,1860.0,685237.8000000119,7084,VNB,A,0
0,test,5,1.0,2-Back,,,Fri Mar 28 2025 13:32:44 GMT-0500 (Central Daylight Time),687097.8000000119,124_o_f_h_a.png,O,space,958,2,1,1860.0,685237.8000000119,7084,VNB,A,0
1,test,5,1.0,2-Back,1,z,Fri Mar 28 2025 13:32:44 GMT-0500 (Central Daylight Time),695196.3000000119,039_o_m_d_a.png,O,z,1022,3,1,2044.5,693151.8000000119,7084,VNB,A,1
2,test,5,1.0,2-Back,1,m,Fri Mar 28 2025 13:32:44 GMT-0500 (Central Daylight Time),697211.0,139_m_f_n_a.png,O,m,988,4,1,2008.5,695202.5,7084,VNB,A,2
3,test,5,0.0,2-Back,1,m,Fri Mar 28 2025 13:32:44 GMT-0500 (Central Daylight Time),699494.099999994,165_m_m_h_a.png,O,m,1260,5,1,2275.699999988079,697218.400000006,7084,VNB,A,3
4,test,5,0.0,2-Back,1,z,Fri Mar 28 2025 13:32:44 GMT-0500 (Central Daylight Time),701059.900000006,071_y_f_n_a.png,O,z,537,6,1,1556.4000000059605,699503.5,7084,VNB,A,4
5,test,5,0.0,2-Back,1,m,Fri Mar 28 2025 13:32:44 GMT-0500 (Central Daylight Time),702992.7000000179,124_o_f_d_a.png,O,m,917,7,1,1927.5,701065.2000000179,7084,VNB,A,5
6,test,5,0.0,2-Back,1,m,Fri Mar 28 2025 13:32:44 GMT-0500 (Central Daylight Time),705092.7000000179,039_o_m_h_a.png,O,m,1078,8,1,2094.5,702998.2000000179,7084,VNB,A,6
7,test,5,1.0,2-Back,1,z,Fri Mar 28 2025 13:32:44 GMT-0500 (Central Daylight Time),707174.8000000119,139_m_f_d_a.png,O,z,1051,9,1,2075.800000011921,705099.0,7084,VNB,A,7
8,test,5,0.0,2-Back,1,m,Fri Mar 28 2025 13:32:44 GMT-0500 (Central Daylight Time),709358.099999994,109_y_m_n_a.png,O,m,1159,10,1,2177.0999999940395,707181.0,7084,VNB,A,8
9,test,5,0.0,2-Back,1,m,Fri Mar 28 2025 13:32:44 GMT-0500 (Central Daylight Time),711461.0,165_m_m_n_a.png,O,m,1081,11,1,2094.2999999821186,709366.7000000179,7084,VNB,A,9
10,test,5,0.0,2-Back,1,m,Fri Mar 28 2025 13:32:44 GMT-0500 (Central Daylight Time),713290.0,071_y_f_h_a.png,O,m,807,12,1,1822.4000000059605,711467.599999994,7084,VNB,A,10
11,test,5,0.0,2-Back,1,m,Fri Mar 28 2025 13:32:44 GMT-0500 (Central Daylight Time),715255.3000000119,109_y_m_d_a.png,O,m,933,13,1,1959.800000011921,713295.5,7084,VNB,A,11
12,test,5,1.0,2-Back,1,z,Fri Mar 28 2025 13:32:44 GMT-0500 (Central Daylight Time),716988.599999994,139_m_f_h_a.png,O,z,703,14,1,1728.2999999821186,715260.3000000119,7084,VNB,A,12
13,test,5,0.0,2-Back,1,m,Fri Mar 28 2025 13:32:44 GMT-0500 (Central Daylight Time),718855.3000000119,039_o_m_n_a.png,O,m,836,15,1,1860.5,716994.8000000119,7084,VNB,A,13
14,test,5,0.0,2-Back,1,m,Fri Mar 28 2025 13:32:44 GMT-0500 (Central Daylight Time),720904.8000000119,165_m_m_d_a.png,O,m,1017,16,1,2043.0999999940395,718861.7000000179,7084,VNB,A,14
15,test,5,0.0,2-Back,1,z,Fri Mar 28 2025 13:32:44 GMT-0500 (Central Daylight Time),722669.400000006,124_o_f_n_a.png,O,z,744,17,1,1756.699999988079,720912.7000000179,7084,VNB,A,15
16,test,5,1.0,2-Back,1,m,Fri Mar 28 2025 13:32:44 GMT-0500 (Central Daylight Time),724635.8000000119,109_y_m_h_a.png,O,m,945,18,1,1957.0999999940395,722678.7000000179,7084,VNB,A,16
