acc_sum,block,block_c,block_cond,con_img,correct,correct_response,datetime,endtime,face,jitter,line,project,response,response_time,row_sel,session_number,start_end,starttime,subject_id,task,task_vers,trial
0,prac,1,A,haborder.png,0,z,Mon Feb 17 2025 17:18:44 GMT-0600 (Central Standard Time),52345.09999999963,CFD-WM-013-015-A.jpg,1900,solid,O,None,1516,8,1,4198.700000000186,48146.39999999944,7049,ATS,A,1
1,prac,1,A,haborder.png,1,m,Mon Feb 17 2025 17:18:44 GMT-0600 (Central Standard Time),55994.09999999963,CFD-WF-017-016-HC.jpg,1500,solid,O,m,1355,11,1,7847.700000000186,48146.39999999944,7049,ATS,A,2
2,prac,1,A,haborder.png,1,m,Mon Feb 17 2025 17:18:44 GMT-0600 (Central Standard Time),59526.299999999814,CFD-WM-006-013-HC.jpg,1700,solid,O,m,1034,9,1,11379.900000000373,48146.39999999944,7049,ATS,A,3
3,prac,1,A,haborder.png,1,z,Mon Feb 17 2025 17:18:44 GMT-0600 (Central Standard Time),62192.0,CFD-BF-023-013-A.jpg,1000,solid,O,z,866,4,1,14045.600000000559,48146.39999999944,7049,ATS,A,4
4,prac,1,A,haborder.png,1,z,Mon Feb 17 2025 17:18:44 GMT-0600 (Central Standard Time),65457.59999999963,CFD-WF-003-014-A.jpg,1600,solid,O,z,872,10,1,17311.200000000186,48146.39999999944,7049,ATS,A,5
5,prac,1,A,haborder.png,1,z,Mon Feb 17 2025 17:18:44 GMT-0600 (Central Standard Time),68623.39999999944,CFD-BM-005-010-A.jpg,1600,solid,O,z,768,2,1,20477.0,48146.39999999944,7049,ATS,A,6
6,prac,1,A,haborder.png,1,z,Mon Feb 17 2025 17:18:44 GMT-0600 (Central Standard Time),71105.5,CFD-WF-019-015-A.jpg,1000,solid,O,z,697,12,1,22959.10000000056,48146.39999999944,7049,ATS,A,7
7,prac,1,A,haborder.png,1,m,Mon Feb 17 2025 17:18:44 GMT-0600 (Central Standard Time),74021.59999999963,CFD-WM-004-005-HC.jpg,1400,solid,O,m,719,7,1,25875.200000000186,48146.39999999944,7049,ATS,A,8
8,prac,1,A,haborder.png,1,z,Mon Feb 17 2025 17:18:44 GMT-0600 (Central Standard Time),76720.69999999925,CFD-BF-039-039-A.jpg,1200,solid,O,z,707,6,1,28574.299999999814,48146.39999999944,7049,ATS,A,9
9,prac,1,A,haborder.png,1,m,Mon Feb 17 2025 17:18:44 GMT-0600 (Central Standard Time),80119.59999999963,CFD-BM-029-026-HC.jpg,1500,solid,O,m,1115,3,1,31973.200000000186,48146.39999999944,7049,ATS,A,10
10,prac,1,A,haborder.png,1,m,Mon Feb 17 2025 17:18:44 GMT-0600 (Central Standard Time),83502.29999999981,CFD-BM-017-052-HC.jpg,1700,solid,O,m,885,1,1,35355.90000000037,48146.39999999944,7049,ATS,A,11
11,prac,1,A,haborder.png,1,m,Mon Feb 17 2025 17:18:44 GMT-0600 (Central Standard Time),86950.89999999944,CFD-BF-028-020-HC.jpg,2000,solid,O,m,659,5,1,38804.5,48146.39999999944,7049,ATS,A,12
0,prac,1,B,mfborder.png,0,z,Mon Feb 17 2025 17:18:44 GMT-0600 (Central Standard Time),117074.5,CFD-BF-028-020-HC.jpg,1400,dash,O,None,1501,7,1,3782.0,113292.5,7049,ATS,A,1
1,prac,1,B,mfborder.png,1,m,Mon Feb 17 2025 17:18:44 GMT-0600 (Central Standard Time),119757.39999999944,CFD-WM-019-013-A.jpg,1200,dash,O,m,694,6,1,6464.899999999441,113292.5,7049,ATS,A,2
2,prac,1,B,mfborder.png,1,m,Mon Feb 17 2025 17:18:44 GMT-0600 (Central Standard Time),122906.39999999944,CFD-BM-010-019-A.jpg,1600,dash,O,m,763,2,1,9613.899999999441,113292.5,7049,ATS,A,3
3,prac,1,B,mfborder.png,1,m,Mon Feb 17 2025 17:18:44 GMT-0600 (Central Standard Time),126255.19999999925,CFD-BM-005-010-A.jpg,2000,dash,O,m,550,5,1,12962.699999999255,113292.5,7049,ATS,A,4
4,prac,1,B,mfborder.png,1,z,Mon Feb 17 2025 17:18:44 GMT-0600 (Central Standard Time),128638.0,CFD-BF-023-013-A.jpg,1000,dash,O,z,593,4,1,15345.5,113292.5,7049,ATS,A,5
5,prac,1,B,mfborder.png,1,m,Mon Feb 17 2025 17:18:44 GMT-0600 (Central Standard Time),132420.09999999963,CFD-WM-006-013-HC.jpg,1600,dash,O,m,1387,10,1,19127.599999999627,113292.5,7049,ATS,A,6
6,prac,1,B,mfborder.png,1,z,Mon Feb 17 2025 17:18:44 GMT-0600 (Central Standard Time),136118.59999999963,CFD-WF-002-008-HC.jpg,1900,dash,O,z,1001,8,1,22826.099999999627,113292.5,7049,ATS,A,7
7,prac,1,B,mfborder.png,1,z,Mon Feb 17 2025 17:18:44 GMT-0600 (Central Standard Time),139251.19999999925,CFD-WF-003-014-A.jpg,1500,dash,O,z,859,11,1,25958.699999999255,113292.5,7049,ATS,A,8
8,prac,1,B,mfborder.png,1,m,Mon Feb 17 2025 17:18:44 GMT-0600 (Central Standard Time),142716.59999999963,CFD-BM-029-026-HC.jpg,1700,dash,O,m,969,1,1,29424.099999999627,113292.5,7049,ATS,A,9
9,prac,1,B,mfborder.png,1,m,Mon Feb 17 2025 17:18:44 GMT-0600 (Central Standard Time),146182.19999999925,CFD-WM-013-015-A.jpg,1700,dash,O,m,976,9,1,32889.699999999255,113292.5,7049,ATS,A,10
10,prac,1,B,mfborder.png,1,z,Mon Feb 17 2025 17:18:44 GMT-0600 (Central Standard Time),149249.09999999963,CFD-BF-010-005-HC.jpg,1500,dash,O,z,766,3,1,35956.59999999963,113292.5,7049,ATS,A,11
11,prac,1,B,mfborder.png,1,z,Mon Feb 17 2025 17:18:44 GMT-0600 (Central Standard Time),151764.0,CFD-WF-017-016-HC.jpg,1000,dash,O,z,728,12,1,38471.5,113292.5,7049,ATS,A,12
1,test,1,A,haborder.png,1,m,Mon Feb 17 2025 17:18:44 GMT-0600 (Central Standard Time),171391.2999999998,CFD-BM-029-026-HC.jpg,1500,solid,O,m,681,3,1,2216.2999999998137,169175.0,7049,ATS,A,1
2,test,1,A,haborder.png,1,z,Mon Feb 17 2025 17:18:44 GMT-0600 (Central Standard Time),173590.19999999925,CFD-WF-003-014-A.jpg,1600,solid,O,z,578,10,1,4415.199999999255,169175.0,7049,ATS,A,2
3,test,1,A,haborder.png,1,z,Mon Feb 17 2025 17:18:44 GMT-0600 (Central Standard Time),175889.59999999963,CFD-BM-005-010-A.jpg,1600,solid,O,z,682,2,1,6714.5999999996275,169175.0,7049,ATS,A,3
4,test,1,A,haborder.png,1,m,Mon Feb 17 2025 17:18:44 GMT-0600 (Central Standard Time),178855.09999999963,CFD-BF-028-020-HC.jpg,2000,solid,O,m,943,5,1,9680.099999999627,169175.0,7049,ATS,A,4
5,test,1,A,haborder.png,1,m,Mon Feb 17 2025 17:18:44 GMT-0600 (Central Standard Time),180988.0,CFD-BM-029-026-HC.jpg,1500,solid,O,m,613,3,1,11813.0,169175.0,7049,ATS,A,5
6,test,1,A,haborder.png,1,z,Mon Feb 17 2025 17:18:44 GMT-0600 (Central Standard Time),182570.69999999925,CFD-BF-023-013-A.jpg,1000,solid,O,z,564,4,1,13395.699999999255,169175.0,7049,ATS,A,6
7,test,1,A,haborder.png,1,m,Mon Feb 17 2025 17:18:44 GMT-0600 (Central Standard Time),184920.0,CFD-WM-006-013-HC.jpg,1700,solid,O,m,617,9,1,15745.0,169175.0,7049,ATS,A,7
8,test,1,A,haborder.png,1,m,Mon Feb 17 2025 17:18:44 GMT-0600 (Central Standard Time),187202.69999999925,CFD-WF-017-016-HC.jpg,1500,solid,O,m,756,11,1,18027.699999999255,169175.0,7049,ATS,A,8
9,test,1,A,haborder.png,1,m,Mon Feb 17 2025 17:18:44 GMT-0600 (Central Standard Time),189585.2999999998,CFD-WM-006-013-HC.jpg,1700,solid,O,m,658,9,1,20410.299999999814,169175.0,7049,ATS,A,9
10,test,1,A,haborder.png,1,z,Mon Feb 17 2025 17:18:44 GMT-0600 (Central Standard Time),191418.0,CFD-BF-039-039-A.jpg,1200,solid,O,z,607,6,1,22243.0,169175.0,7049,ATS,A,10
11,test,1,A,haborder.png,1,z,Mon Feb 17 2025 17:18:44 GMT-0600 (Central Standard Time),193684.09999999963,CFD-WF-003-014-A.jpg,1600,solid,O,z,638,10,1,24509.099999999627,169175.0,7049,ATS,A,11
12,test,1,A,haborder.png,1,z,Mon Feb 17 2025 17:18:44 GMT-0600 (Central Standard Time),196016.69999999925,CFD-BM-005-010-A.jpg,1600,solid,O,z,700,2,1,26841.699999999255,169175.0,7049,ATS,A,12
13,test,1,A,haborder.png,1,z,Mon Feb 17 2025 17:18:44 GMT-0600 (Central Standard Time),197900.59999999963,CFD-BF-039-039-A.jpg,1200,solid,O,z,663,6,1,28725.599999999627,169175.0,7049,ATS,A,13
14,test,1,A,haborder.png,1,z,Mon Feb 17 2025 17:18:44 GMT-0600 (Central Standard Time),199532.19999999925,CFD-WF-019-015-A.jpg,1000,solid,O,z,613,12,1,30357.199999999255,169175.0,7049,ATS,A,14
15,test,1,A,haborder.png,1,z,Mon Feb 17 2025 17:18:44 GMT-0600 (Central Standard Time),201198.5,CFD-BF-023-013-A.jpg,1000,solid,O,z,644,4,1,32023.5,169175.0,7049,ATS,A,15
16,test,1,A,haborder.png,1,m,Mon Feb 17 2025 17:18:44 GMT-0600 (Central Standard Time),203397.59999999963,CFD-WF-017-016-HC.jpg,1500,solid,O,m,670,11,1,34222.59999999963,169175.0,7049,ATS,A,16
17,test,1,A,haborder.png,1,z,Mon Feb 17 2025 17:18:44 GMT-0600 (Central Standard Time),206030.19999999925,CFD-WM-013-015-A.jpg,1900,solid,O,z,703,8,1,36855.199999999255,169175.0,7049,ATS,A,17
18,test,1,A,haborder.png,1,m,Mon Feb 17 2025 17:18:44 GMT-0600 (Central Standard Time),208296.09999999963,CFD-WM-004-005-HC.jpg,1400,solid,O,m,834,7,1,39121.09999999963,169175.0,7049,ATS,A,18
19,test,1,A,haborder.png,1,m,Mon Feb 17 2025 17:18:44 GMT-0600 (Central Standard Time),210828.69999999925,CFD-BM-017-052-HC.jpg,1700,solid,O,m,804,1,1,41653.699999999255,169175.0,7049,ATS,A,19
20,test,1,A,haborder.png,1,m,Mon Feb 17 2025 17:18:44 GMT-0600 (Central Standard Time),213794.39999999944,CFD-BF-028-020-HC.jpg,2000,solid,O,m,940,5,1,44619.39999999944,169175.0,7049,ATS,A,20
21,test,1,A,haborder.png,1,z,Mon Feb 17 2025 17:18:44 GMT-0600 (Central Standard Time),216376.89999999944,CFD-WM-013-015-A.jpg,1900,solid,O,z,650,8,1,47201.89999999944,169175.0,7049,ATS,A,21
22,test,1,A,haborder.png,1,m,Mon Feb 17 2025 17:18:44 GMT-0600 (Central Standard Time),218992.89999999944,CFD-BM-017-052-HC.jpg,1700,solid,O,m,884,1,1,49817.89999999944,169175.0,7049,ATS,A,22
23,test,1,A,haborder.png,1,z,Mon Feb 17 2025 17:18:44 GMT-0600 (Central Standard Time),220861.7999999998,CFD-WF-019-015-A.jpg,1000,solid,O,z,839,12,1,51686.799999999814,169175.0,7049,ATS,A,23
24,test,1,A,haborder.png,1,m,Mon Feb 17 2025 17:18:44 GMT-0600 (Central Standard Time),223124.89999999944,CFD-WM-004-005-HC.jpg,1400,solid,O,m,845,7,1,53949.89999999944,169175.0,7049,ATS,A,24
1,test,1,B,mfborder.png,1,z,Mon Feb 17 2025 17:18:44 GMT-0600 (Central Standard Time),238353.5,CFD-WF-017-016-HC.jpg,1000,dash,O,z,579,12,1,1615.9000000003725,236737.59999999963,7049,ATS,A,1
2,test,1,B,mfborder.png,1,m,Mon Feb 17 2025 17:18:44 GMT-0600 (Central Standard Time),240636.0,CFD-WM-013-015-A.jpg,1700,dash,O,m,563,9,1,3898.4000000003725,236737.59999999963,7049,ATS,A,2
3,test,1,B,mfborder.png,1,z,Mon Feb 17 2025 17:18:44 GMT-0600 (Central Standard Time),242352.2999999998,CFD-BF-023-013-A.jpg,1000,dash,O,z,692,4,1,5614.700000000186,236737.59999999963,7049,ATS,A,3
4,test,1,B,mfborder.png,1,z,Mon Feb 17 2025 17:18:44 GMT-0600 (Central Standard Time),244784.5,CFD-WF-002-008-HC.jpg,1900,dash,O,z,508,8,1,8046.9000000003725,236737.59999999963,7049,ATS,A,4
5,test,1,B,mfborder.png,1,m,Mon Feb 17 2025 17:18:44 GMT-0600 (Central Standard Time),247417.2999999998,CFD-BM-005-010-A.jpg,2000,dash,O,m,600,5,1,10679.700000000186,236737.59999999963,7049,ATS,A,5
6,test,1,B,mfborder.png,1,z,Mon Feb 17 2025 17:18:44 GMT-0600 (Central Standard Time),249449.59999999963,CFD-BF-028-020-HC.jpg,1400,dash,O,z,615,7,1,12712.0,236737.59999999963,7049,ATS,A,6
7,test,1,B,mfborder.png,1,z,Mon Feb 17 2025 17:18:44 GMT-0600 (Central Standard Time),251866.19999999925,CFD-WF-003-014-A.jpg,1500,dash,O,z,898,11,1,15128.599999999627,236737.59999999963,7049,ATS,A,7
8,test,1,B,mfborder.png,1,m,Mon Feb 17 2025 17:18:44 GMT-0600 (Central Standard Time),253831.89999999944,CFD-WM-019-013-A.jpg,1200,dash,O,m,742,6,1,17094.299999999814,236737.59999999963,7049,ATS,A,8
9,test,1,B,mfborder.png,1,m,Mon Feb 17 2025 17:18:44 GMT-0600 (Central Standard Time),256614.39999999944,CFD-WM-013-015-A.jpg,1700,dash,O,m,1060,9,1,19876.799999999814,236737.59999999963,7049,ATS,A,9
10,test,1,B,mfborder.png,1,m,Mon Feb 17 2025 17:18:44 GMT-0600 (Central Standard Time),259796.59999999963,CFD-BM-005-010-A.jpg,2000,dash,O,m,1154,5,1,23059.0,236737.59999999963,7049,ATS,A,10
11,test,1,B,mfborder.png,1,z,Mon Feb 17 2025 17:18:44 GMT-0600 (Central Standard Time),261996.09999999963,CFD-BF-010-005-HC.jpg,1500,dash,O,z,671,3,1,25258.5,236737.59999999963,7049,ATS,A,11
12,test,1,B,mfborder.png,1,z,Mon Feb 17 2025 17:18:44 GMT-0600 (Central Standard Time),264295.2999999998,CFD-WF-017-016-HC.jpg,1000,dash,O,z,1276,12,1,27557.700000000186,236737.59999999963,7049,ATS,A,12
13,test,1,B,mfborder.png,1,m,Mon Feb 17 2025 17:18:44 GMT-0600 (Central Standard Time),266711.19999999925,CFD-WM-006-013-HC.jpg,1600,dash,O,m,785,10,1,29973.599999999627,236737.59999999963,7049,ATS,A,13
14,test,1,B,mfborder.png,1,m,Mon Feb 17 2025 17:18:44 GMT-0600 (Central Standard Time),269093.7999999998,CFD-BM-010-019-A.jpg,1600,dash,O,m,761,2,1,32356.200000000186,236737.59999999963,7049,ATS,A,14
15,test,1,B,mfborder.png,1,m,Mon Feb 17 2025 17:18:44 GMT-0600 (Central Standard Time),271409.69999999925,CFD-BM-010-019-A.jpg,1600,dash,O,m,682,2,1,34672.09999999963,236737.59999999963,7049,ATS,A,15
16,test,1,B,mfborder.png,1,m,Mon Feb 17 2025 17:18:44 GMT-0600 (Central Standard Time),273675.5999999996,CFD-WM-006-013-HC.jpg,1600,dash,O,m,646,10,1,36938.0,236737.59999999963,7049,ATS,A,16
17,test,1,B,mfborder.png,1,z,Mon Feb 17 2025 17:18:44 GMT-0600 (Central Standard Time),275758.0,CFD-BF-028-020-HC.jpg,1400,dash,O,z,652,7,1,39020.40000000037,236737.59999999963,7049,ATS,A,17
18,test,1,B,mfborder.png,1,z,Mon Feb 17 2025 17:18:44 GMT-0600 (Central Standard Time),278074.0999999996,CFD-BF-010-005-HC.jpg,1500,dash,O,z,790,3,1,41336.5,236737.59999999963,7049,ATS,A,18
19,test,1,B,mfborder.png,1,m,Mon Feb 17 2025 17:18:44 GMT-0600 (Central Standard Time),280657.0,CFD-BM-029-026-HC.jpg,1700,dash,O,m,823,1,1,43919.40000000037,236737.59999999963,7049,ATS,A,19
20,test,1,B,mfborder.png,1,z,Mon Feb 17 2025 17:18:44 GMT-0600 (Central Standard Time),283772.5999999996,CFD-WF-002-008-HC.jpg,1900,dash,O,z,1187,8,1,47035.0,236737.59999999963,7049,ATS,A,20
21,test,1,B,mfborder.png,1,m,Mon Feb 17 2025 17:18:44 GMT-0600 (Central Standard Time),285788.69999999925,CFD-WM-019-013-A.jpg,1200,dash,O,m,796,6,1,49051.09999999963,236737.59999999963,7049,ATS,A,21
22,test,1,B,mfborder.png,1,z,Mon Feb 17 2025 17:18:44 GMT-0600 (Central Standard Time),288021.0,CFD-WF-003-014-A.jpg,1500,dash,O,z,711,11,1,51283.40000000037,236737.59999999963,7049,ATS,A,22
23,test,1,B,mfborder.png,1,m,Mon Feb 17 2025 17:18:44 GMT-0600 (Central Standard Time),290353.5999999996,CFD-BM-029-026-HC.jpg,1700,dash,O,m,607,1,1,53616.0,236737.59999999963,7049,ATS,A,23
24,test,1,B,mfborder.png,1,z,Mon Feb 17 2025 17:18:44 GMT-0600 (Central Standard Time),292053.2999999998,CFD-BF-023-013-A.jpg,1000,dash,O,z,678,4,1,55315.700000000186,236737.59999999963,7049,ATS,A,24
0,prac,1,C,mfborder.png,0,m,Mon Feb 17 2025 17:18:44 GMT-0600 (Central Standard Time),340288.0,CFD-BM-017-052-HC.jpg,2000,solid,O,None,1516,4,1,4298.5,335989.5,7049,ATS,A,1
0,prac,1,C,haborder.png,0,z,Mon Feb 17 2025 17:18:44 GMT-0600 (Central Standard Time),344487.0,CFD-BF-023-013-A.jpg,1900,dash,O,None,1516,7,1,8497.5,335989.5,7049,ATS,A,2
1,prac,1,C,mfborder.png,1,m,Mon Feb 17 2025 17:18:44 GMT-0600 (Central Standard Time),347985.89999999944,CFD-WM-013-015-A.jpg,1700,solid,O,m,1005,6,1,11996.399999999441,335989.5,7049,ATS,A,3
2,prac,1,C,haborder.png,1,m,Mon Feb 17 2025 17:18:44 GMT-0600 (Central Standard Time),351084.69999999925,CFD-WM-004-005-HC.jpg,1400,solid,O,m,930,12,1,15095.199999999255,335989.5,7049,ATS,A,4
3,prac,1,C,haborder.png,1,m,Mon Feb 17 2025 17:18:44 GMT-0600 (Central Standard Time),353734.0999999996,CFD-WM-004-005-HC.jpg,1000,dash,O,m,852,11,1,17744.599999999627,335989.5,7049,ATS,A,5
4,prac,1,C,haborder.png,1,z,Mon Feb 17 2025 17:18:44 GMT-0600 (Central Standard Time),357482.7999999998,CFD-BF-039-039-A.jpg,1700,solid,O,z,1262,8,1,21493.299999999814,335989.5,7049,ATS,A,6
4,prac,1,C,mfborder.png,0,z,Mon Feb 17 2025 17:18:44 GMT-0600 (Central Standard Time),360781.69999999925,CFD-BF-028-020-HC.jpg,1000,dash,O,None,1515,3,1,24792.199999999255,335989.5,7049,ATS,A,7
5,prac,1,C,mfborder.png,1,z,Mon Feb 17 2025 17:18:44 GMT-0600 (Central Standard Time),363880.89999999944,CFD-WF-019-015-A.jpg,1500,solid,O,z,806,2,1,27891.39999999944,335989.5,7049,ATS,A,8
6,prac,1,C,haborder.png,1,m,Mon Feb 17 2025 17:18:44 GMT-0600 (Central Standard Time),366980.0,CFD-BM-029-026-HC.jpg,1500,solid,O,m,812,10,1,30990.5,335989.5,7049,ATS,A,9
7,prac,1,C,mfborder.png,1,z,Mon Feb 17 2025 17:18:44 GMT-0600 (Central Standard Time),370112.19999999925,CFD-WF-017-016-HC.jpg,1600,dash,O,z,741,1,1,34122.699999999255,335989.5,7049,ATS,A,10
7,prac,1,C,mfborder.png,0,m,Mon Feb 17 2025 17:18:44 GMT-0600 (Central Standard Time),373194.5,CFD-BM-005-010-A.jpg,1200,dash,O,z,1096,5,1,37205.0,335989.5,7049,ATS,A,11
8,prac,1,C,haborder.png,1,z,Mon Feb 17 2025 17:18:44 GMT-0600 (Central Standard Time),376460.19999999925,CFD-WF-003-014-A.jpg,1600,dash,O,z,870,9,1,40470.699999999255,335989.5,7049,ATS,A,12
1,test,1,C,mfborder.png,1,z,Mon Feb 17 2025 17:18:44 GMT-0600 (Central Standard Time),398386.5999999996,CFD-WF-003-014-A.jpg,1500,dash,O,z,1473,3,1,2999.0999999996275,395387.5,7049,ATS,A,1
1,test,1,C,haborder.png,0,z,Mon Feb 17 2025 17:18:44 GMT-0600 (Central Standard Time),401435.69999999925,CFD-BM-005-010-A.jpg,1900,solid,O,m,1129,8,1,6048.199999999255,395387.5,7049,ATS,A,2
1,test,1,C,mfborder.png,0,m,Mon Feb 17 2025 17:18:44 GMT-0600 (Central Standard Time),403952.7999999998,CFD-WM-006-013-HC.jpg,1000,dash,O,None,1501,4,1,8565.299999999814,395387.5,7049,ATS,A,3
2,test,1,C,mfborder.png,1,z,Mon Feb 17 2025 17:18:44 GMT-0600 (Central Standard Time),407117.19999999925,CFD-BF-010-005-HC.jpg,1700,dash,O,z,1437,1,1,11729.699999999255,395387.5,7049,ATS,A,4
2,test,1,C,haborder.png,0,z,Mon Feb 17 2025 17:18:44 GMT-0600 (Central Standard Time),410049.69999999925,CFD-WM-013-015-A.jpg,1400,solid,O,None,1516,7,1,14662.199999999255,395387.5,7049,ATS,A,5
2,test,1,C,haborder.png,0,m,Mon Feb 17 2025 17:18:44 GMT-0600 (Central Standard Time),412615.2999999998,CFD-BF-028-020-HC.jpg,1600,solid,O,z,935,10,1,17227.799999999814,395387.5,7049,ATS,A,6
3,test,1,C,haborder.png,1,z,Mon Feb 17 2025 17:18:44 GMT-0600 (Central Standard Time),415581.2999999998,CFD-BM-005-010-A.jpg,1900,solid,O,z,1045,8,1,20193.799999999814,395387.5,7049,ATS,A,7
4,test,1,C,mfborder.png,1,z,Mon Feb 17 2025 17:18:44 GMT-0600 (Central Standard Time),418163.5999999996,CFD-BF-023-013-A.jpg,1600,dash,O,z,963,2,1,22776.099999999627,395387.5,7049,ATS,A,8
5,test,1,C,mfborder.png,1,m,Mon Feb 17 2025 17:18:44 GMT-0600 (Central Standard Time),420613.0,CFD-BM-029-026-HC.jpg,1200,dash,O,m,1229,6,1,25225.5,395387.5,7049,ATS,A,9
6,test,1,C,mfborder.png,1,z,Mon Feb 17 2025 17:18:44 GMT-0600 (Central Standard Time),423145.5999999996,CFD-BF-010-005-HC.jpg,1700,dash,O,z,808,1,1,27758.099999999627,395387.5,7049,ATS,A,10
7,test,1,C,mfborder.png,1,z,Mon Feb 17 2025 17:18:44 GMT-0600 (Central Standard Time),425778.0999999996,CFD-WF-003-014-A.jpg,1500,dash,O,z,1116,3,1,30390.599999999627,395387.5,7049,ATS,A,11
8,test,1,C,haborder.png,1,m,Mon Feb 17 2025 17:18:44 GMT-0600 (Central Standard Time),428277.2999999998,CFD-WF-017-016-HC.jpg,1000,solid,O,m,1478,12,1,32889.799999999814,395387.5,7049,ATS,A,12
8,test,1,C,mfborder.png,0,m,Mon Feb 17 2025 17:18:44 GMT-0600 (Central Standard Time),431011.0,CFD-BM-029-026-HC.jpg,1200,dash,O,None,1517,6,1,35623.5,395387.5,7049,ATS,A,13
9,test,1,C,mfborder.png,1,m,Mon Feb 17 2025 17:18:44 GMT-0600 (Central Standard Time),434225.5999999996,CFD-WM-019-013-A.jpg,2000,dash,O,m,1183,5,1,38838.09999999963,395387.5,7049,ATS,A,14
10,test,1,C,mfborder.png,1,m,Mon Feb 17 2025 17:18:44 GMT-0600 (Central Standard Time),436607.89999999944,CFD-WM-006-013-HC.jpg,1000,dash,O,m,1359,4,1,41220.39999999944,395387.5,7049,ATS,A,15
10,test,1,C,haborder.png,0,z,Mon Feb 17 2025 17:18:44 GMT-0600 (Central Standard Time),439823.5,CFD-BM-010-019-A.jpg,1700,solid,O,m,1485,9,1,44436.0,395387.5,7049,ATS,A,16
10,test,1,C,haborder.png,0,m,Mon Feb 17 2025 17:18:44 GMT-0600 (Central Standard Time),442539.2999999998,CFD-WF-002-008-HC.jpg,1500,solid,O,z,1189,11,1,47151.799999999814,395387.5,7049,ATS,A,17
10,test,1,C,haborder.png,0,m,Mon Feb 17 2025 17:18:44 GMT-0600 (Central Standard Time),445072.0999999996,CFD-WF-017-016-HC.jpg,1000,solid,O,None,1516,12,1,49684.59999999963,395387.5,7049,ATS,A,18
10,test,1,C,haborder.png,0,m,Mon Feb 17 2025 17:18:44 GMT-0600 (Central Standard Time),447504.5,CFD-BF-028-020-HC.jpg,1600,solid,O,z,809,10,1,52117.0,395387.5,7049,ATS,A,19
11,test,1,C,haborder.png,1,z,Mon Feb 17 2025 17:18:44 GMT-0600 (Central Standard Time),450686.89999999944,CFD-BM-010-019-A.jpg,1700,solid,O,z,1452,9,1,55299.39999999944,395387.5,7049,ATS,A,20
12,test,1,C,mfborder.png,1,m,Mon Feb 17 2025 17:18:44 GMT-0600 (Central Standard Time),454002.2999999998,CFD-WM-019-013-A.jpg,2000,dash,O,m,1298,5,1,58614.799999999814,395387.5,7049,ATS,A,21
13,test,1,C,mfborder.png,1,z,Mon Feb 17 2025 17:18:44 GMT-0600 (Central Standard Time),456351.7999999998,CFD-BF-023-013-A.jpg,1600,dash,O,z,726,2,1,60964.299999999814,395387.5,7049,ATS,A,22
14,test,1,C,haborder.png,1,m,Mon Feb 17 2025 17:18:44 GMT-0600 (Central Standard Time),458884.39999999944,CFD-WF-002-008-HC.jpg,1500,solid,O,m,1013,11,1,63496.89999999944,395387.5,7049,ATS,A,23
15,test,1,C,haborder.png,1,z,Mon Feb 17 2025 17:18:44 GMT-0600 (Central Standard Time),461350.0,CFD-WM-013-015-A.jpg,1400,solid,O,z,1036,7,1,65962.5,395387.5,7049,ATS,A,24
1,test,2,C,mfborder.png,1,z,Mon Feb 17 2025 17:18:44 GMT-0600 (Central Standard Time),468061.5,CFD-BF-028-020-HC.jpg,1500,dash,O,z,1025,3,1,2546.2000000001863,465515.2999999998,7049,ATS,A,1
2,test,2,C,mfborder.png,1,z,Mon Feb 17 2025 17:18:44 GMT-0600 (Central Standard Time),470930.39999999944,CFD-WF-019-015-A.jpg,1600,dash,O,z,1244,2,1,5415.0999999996275,465515.2999999998,7049,ATS,A,2
2,test,2,C,haborder.png,0,z,Mon Feb 17 2025 17:18:44 GMT-0600 (Central Standard Time),474063.0,CFD-WF-003-014-A.jpg,1700,solid,O,m,1402,9,1,8547.700000000186,465515.2999999998,7049,ATS,A,3
3,test,2,C,mfborder.png,1,m,Mon Feb 17 2025 17:18:44 GMT-0600 (Central Standard Time),477161.7999999998,CFD-BM-005-010-A.jpg,2000,dash,O,m,1073,5,1,11646.5,465515.2999999998,7049,ATS,A,4
4,test,2,C,haborder.png,1,z,Mon Feb 17 2025 17:18:44 GMT-0600 (Central Standard Time),479894.5,CFD-BF-023-013-A.jpg,1400,solid,O,z,1301,7,1,14379.200000000186,465515.2999999998,7049,ATS,A,5
4,test,2,C,haborder.png,0,z,Mon Feb 17 2025 17:18:44 GMT-0600 (Central Standard Time),482876.89999999944,CFD-WF-003-014-A.jpg,1700,solid,O,m,1254,9,1,17361.599999999627,465515.2999999998,7049,ATS,A,6
5,test,2,C,mfborder.png,1,z,Mon Feb 17 2025 17:18:44 GMT-0600 (Central Standard Time),485342.69999999925,CFD-WF-017-016-HC.jpg,1700,dash,O,z,735,1,1,19827.39999999944,465515.2999999998,7049,ATS,A,7
6,test,2,C,mfborder.png,1,m,Mon Feb 17 2025 17:18:44 GMT-0600 (Central Standard Time),488008.5,CFD-WM-013-015-A.jpg,1200,dash,O,m,1433,6,1,22493.200000000186,465515.2999999998,7049,ATS,A,8
7,test,2,C,haborder.png,1,m,Mon Feb 17 2025 17:18:44 GMT-0600 (Central Standard Time),491007.5999999996,CFD-BM-029-026-HC.jpg,1600,solid,O,m,1376,10,1,25492.299999999814,465515.2999999998,7049,ATS,A,9
8,test,2,C,haborder.png,1,m,Mon Feb 17 2025 17:18:44 GMT-0600 (Central Standard Time),493523.39999999944,CFD-BM-029-026-HC.jpg,1600,solid,O,m,897,10,1,28008.099999999627,465515.2999999998,7049,ATS,A,10
9,test,2,C,mfborder.png,1,m,Mon Feb 17 2025 17:18:44 GMT-0600 (Central Standard Time),496856.0,CFD-BM-005-010-A.jpg,2000,dash,O,m,1310,5,1,31340.700000000186,465515.2999999998,7049,ATS,A,11
9,test,2,C,haborder.png,0,m,Mon Feb 17 2025 17:18:44 GMT-0600 (Central Standard Time),499888.2999999998,CFD-WM-004-005-HC.jpg,1500,solid,O,None,1516,11,1,34373.0,465515.2999999998,7049,ATS,A,12
9,test,2,C,mfborder.png,0,m,Mon Feb 17 2025 17:18:44 GMT-0600 (Central Standard Time),502620.5999999996,CFD-WM-013-015-A.jpg,1200,dash,O,None,1516,6,1,37105.299999999814,465515.2999999998,7049,ATS,A,13
10,test,2,C,haborder.png,1,m,Mon Feb 17 2025 17:18:44 GMT-0600 (Central Standard Time),505136.5999999996,CFD-WM-004-005-HC.jpg,1500,solid,O,m,984,11,1,39621.299999999814,465515.2999999998,7049,ATS,A,14
11,test,2,C,haborder.png,1,z,Mon Feb 17 2025 17:18:44 GMT-0600 (Central Standard Time),508368.7999999998,CFD-BF-039-039-A.jpg,1900,solid,O,z,1308,8,1,42853.5,465515.2999999998,7049,ATS,A,15
11,test,2,C,haborder.png,0,z,Mon Feb 17 2025 17:18:44 GMT-0600 (Central Standard Time),511801.39999999944,CFD-BF-039-039-A.jpg,1900,solid,O,None,1516,8,1,46286.09999999963,465515.2999999998,7049,ATS,A,16
12,test,2,C,mfborder.png,1,z,Mon Feb 17 2025 17:18:44 GMT-0600 (Central Standard Time),514233.69999999925,CFD-WF-019-015-A.jpg,1600,dash,O,z,807,2,1,48718.39999999944,465515.2999999998,7049,ATS,A,17
13,test,2,C,haborder.png,1,m,Mon Feb 17 2025 17:18:44 GMT-0600 (Central Standard Time),516149.69999999925,CFD-WM-004-005-HC.jpg,1000,solid,O,m,816,12,1,50634.39999999944,465515.2999999998,7049,ATS,A,18
14,test,2,C,mfborder.png,1,z,Mon Feb 17 2025 17:18:44 GMT-0600 (Central Standard Time),518465.39999999944,CFD-WF-017-016-HC.jpg,1700,dash,O,z,591,1,1,52950.09999999963,465515.2999999998,7049,ATS,A,19
15,test,2,C,mfborder.png,1,m,Mon Feb 17 2025 17:18:44 GMT-0600 (Central Standard Time),520348.69999999925,CFD-BM-017-052-HC.jpg,1000,dash,O,m,855,4,1,54833.39999999944,465515.2999999998,7049,ATS,A,20
16,test,2,C,mfborder.png,1,m,Mon Feb 17 2025 17:18:44 GMT-0600 (Central Standard Time),522181.0999999996,CFD-BM-017-052-HC.jpg,1000,dash,O,m,808,4,1,56665.799999999814,465515.2999999998,7049,ATS,A,21
16,test,2,C,haborder.png,0,z,Mon Feb 17 2025 17:18:44 GMT-0600 (Central Standard Time),524980.1999999993,CFD-BF-023-013-A.jpg,1400,solid,O,m,1379,7,1,59464.89999999944,465515.2999999998,7049,ATS,A,22
17,test,2,C,mfborder.png,1,z,Mon Feb 17 2025 17:18:44 GMT-0600 (Central Standard Time),527879.3999999994,CFD-BF-028-020-HC.jpg,1500,dash,O,z,1376,3,1,62364.09999999963,465515.2999999998,7049,ATS,A,23
18,test,2,C,haborder.png,1,m,Mon Feb 17 2025 17:18:44 GMT-0600 (Central Standard Time),530095.2999999998,CFD-WM-004-005-HC.jpg,1000,solid,O,m,1185,12,1,64580.0,465515.2999999998,7049,ATS,A,24
1,test,3,C,mfborder.png,1,z,Mon Feb 17 2025 17:18:44 GMT-0600 (Central Standard Time),534127.5999999996,CFD-WF-003-014-A.jpg,1500,dash,O,z,1135,3,1,2666.0,531461.5999999996,7049,ATS,A,1
2,test,3,C,mfborder.png,1,z,Mon Feb 17 2025 17:18:44 GMT-0600 (Central Standard Time),536660.0,CFD-BF-023-013-A.jpg,1600,dash,O,z,913,2,1,5198.4000000003725,531461.5999999996,7049,ATS,A,2
3,test,3,C,mfborder.png,1,m,Mon Feb 17 2025 17:18:44 GMT-0600 (Central Standard Time),539192.5999999996,CFD-BM-029-026-HC.jpg,1200,dash,O,m,1300,6,1,7731.0,531461.5999999996,7049,ATS,A,3
4,test,3,C,haborder.png,1,z,Mon Feb 17 2025 17:18:44 GMT-0600 (Central Standard Time),542258.0,CFD-BM-005-010-A.jpg,1900,solid,O,z,1148,8,1,10796.400000000373,531461.5999999996,7049,ATS,A,4
5,test,3,C,haborder.png,1,z,Mon Feb 17 2025 17:18:44 GMT-0600 (Central Standard Time),545207.0999999996,CFD-BM-010-019-A.jpg,1700,solid,O,z,1218,9,1,13745.5,531461.5999999996,7049,ATS,A,5
6,test,3,C,mfborder.png,1,m,Mon Feb 17 2025 17:18:44 GMT-0600 (Central Standard Time),547573.2999999998,CFD-BM-029-026-HC.jpg,1200,dash,O,m,1145,6,1,16111.700000000186,531461.5999999996,7049,ATS,A,6
7,test,3,C,mfborder.png,1,m,Mon Feb 17 2025 17:18:44 GMT-0600 (Central Standard Time),550472.5,CFD-WM-019-013-A.jpg,2000,dash,O,m,867,5,1,19010.900000000373,531461.5999999996,7049,ATS,A,7
8,test,3,C,mfborder.png,1,z,Mon Feb 17 2025 17:18:44 GMT-0600 (Central Standard Time),553004.8999999994,CFD-BF-010-005-HC.jpg,1700,dash,O,z,812,1,1,21543.299999999814,531461.5999999996,7049,ATS,A,8
9,test,3,C,haborder.png,1,m,Mon Feb 17 2025 17:18:44 GMT-0600 (Central Standard Time),555354.1999999993,CFD-WF-017-016-HC.jpg,1000,solid,O,m,1323,12,1,23892.599999999627,531461.5999999996,7049,ATS,A,9
9,test,3,C,mfborder.png,0,m,Mon Feb 17 2025 17:18:44 GMT-0600 (Central Standard Time),558520.0,CFD-WM-019-013-A.jpg,2000,dash,O,z,1144,5,1,27058.400000000373,531461.5999999996,7049,ATS,A,10
10,test,3,C,mfborder.png,1,z,Mon Feb 17 2025 17:18:44 GMT-0600 (Central Standard Time),561318.5999999996,CFD-BF-023-013-A.jpg,1600,dash,O,z,1165,2,1,29857.0,531461.5999999996,7049,ATS,A,11
11,test,3,C,haborder.png,1,z,Mon Feb 17 2025 17:18:44 GMT-0600 (Central Standard Time),564168.0999999996,CFD-BM-010-019-A.jpg,1700,solid,O,z,1117,9,1,32706.5,531461.5999999996,7049,ATS,A,12
11,test,3,C,haborder.png,0,m,Mon Feb 17 2025 17:18:44 GMT-0600 (Central Standard Time),566983.6999999993,CFD-WF-002-008-HC.jpg,1500,solid,O,z,1292,11,1,35522.09999999963,531461.5999999996,7049,ATS,A,13
11,test,3,C,haborder.png,0,m,Mon Feb 17 2025 17:18:44 GMT-0600 (Central Standard Time),570016.2999999998,CFD-WF-002-008-HC.jpg,1500,solid,O,None,1516,11,1,38554.700000000186,531461.5999999996,7049,ATS,A,14
12,test,3,C,mfborder.png,1,m,Mon Feb 17 2025 17:18:44 GMT-0600 (Central Standard Time),572348.7999999998,CFD-WM-006-013-HC.jpg,1000,dash,O,m,1312,4,1,40887.200000000186,531461.5999999996,7049,ATS,A,15
13,test,3,C,haborder.png,1,z,Mon Feb 17 2025 17:18:44 GMT-0600 (Central Standard Time),575264.5,CFD-WM-013-015-A.jpg,1400,solid,O,z,1491,7,1,43802.90000000037,531461.5999999996,7049,ATS,A,16
13,test,3,C,haborder.png,0,m,Mon Feb 17 2025 17:18:44 GMT-0600 (Central Standard Time),577796.8999999994,CFD-WF-017-016-HC.jpg,1000,solid,O,None,1516,12,1,46335.299999999814,531461.5999999996,7049,ATS,A,17
14,test,3,C,haborder.png,1,m,Mon Feb 17 2025 17:18:44 GMT-0600 (Central Standard Time),580546.2999999998,CFD-BF-028-020-HC.jpg,1600,solid,O,m,1123,10,1,49084.700000000186,531461.5999999996,7049,ATS,A,18
15,test,3,C,haborder.png,1,m,Mon Feb 17 2025 17:18:44 GMT-0600 (Central Standard Time),583278.5,CFD-BF-028-020-HC.jpg,1600,solid,O,m,1110,10,1,51816.90000000037,531461.5999999996,7049,ATS,A,19
16,test,3,C,mfborder.png,1,z,Mon Feb 17 2025 17:18:44 GMT-0600 (Central Standard Time),585694.5,CFD-WF-003-014-A.jpg,1500,dash,O,z,886,3,1,54232.90000000037,531461.5999999996,7049,ATS,A,20
17,test,3,C,mfborder.png,1,m,Mon Feb 17 2025 17:18:44 GMT-0600 (Central Standard Time),587793.6999999993,CFD-WM-006-013-HC.jpg,1000,dash,O,m,1082,4,1,56332.09999999963,531461.5999999996,7049,ATS,A,21
18,test,3,C,haborder.png,1,z,Mon Feb 17 2025 17:18:44 GMT-0600 (Central Standard Time),590876.2999999998,CFD-BM-005-010-A.jpg,1900,solid,O,z,1163,8,1,59414.700000000186,531461.5999999996,7049,ATS,A,22
19,test,3,C,haborder.png,1,z,Mon Feb 17 2025 17:18:44 GMT-0600 (Central Standard Time),593342.3999999994,CFD-WM-013-015-A.jpg,1400,solid,O,z,1036,7,1,61880.799999999814,531461.5999999996,7049,ATS,A,23
20,test,3,C,mfborder.png,1,z,Mon Feb 17 2025 17:18:44 GMT-0600 (Central Standard Time),595824.7999999998,CFD-BF-010-005-HC.jpg,1700,dash,O,z,750,1,1,64363.200000000186,531461.5999999996,7049,ATS,A,24
1,test,4,C,mfborder.png,1,z,Mon Feb 17 2025 17:18:44 GMT-0600 (Central Standard Time),599824.6999999993,CFD-WF-017-016-HC.jpg,1700,dash,O,z,943,1,1,2667.0,597157.6999999993,7049,ATS,A,1
1,test,4,C,haborder.png,0,z,Mon Feb 17 2025 17:18:44 GMT-0600 (Central Standard Time),603222.3999999994,CFD-BF-039-039-A.jpg,1900,solid,O,m,1477,8,1,6064.700000000186,597157.6999999993,7049,ATS,A,2
2,test,4,C,haborder.png,1,z,Mon Feb 17 2025 17:18:44 GMT-0600 (Central Standard Time),605905.0999999996,CFD-BF-039-039-A.jpg,1900,solid,O,z,750,8,1,8747.400000000373,597157.6999999993,7049,ATS,A,3
2,test,4,C,mfborder.png,0,m,Mon Feb 17 2025 17:18:44 GMT-0600 (Central Standard Time),609137.5,CFD-BM-005-010-A.jpg,2000,dash,O,z,1215,5,1,11979.800000000745,597157.6999999993,7049,ATS,A,4
3,test,4,C,mfborder.png,1,m,Mon Feb 17 2025 17:18:44 GMT-0600 (Central Standard Time),611203.0999999996,CFD-WM-013-015-A.jpg,1200,dash,O,m,847,6,1,14045.400000000373,597157.6999999993,7049,ATS,A,5
4,test,4,C,haborder.png,1,m,Mon Feb 17 2025 17:18:44 GMT-0600 (Central Standard Time),613935.6999999993,CFD-BM-029-026-HC.jpg,1600,solid,O,m,1101,10,1,16778.0,597157.6999999993,7049,ATS,A,6
5,test,4,C,mfborder.png,1,z,Mon Feb 17 2025 17:18:44 GMT-0600 (Central Standard Time),616368.5,CFD-WF-019-015-A.jpg,1600,dash,O,z,800,2,1,19210.800000000745,597157.6999999993,7049,ATS,A,7
6,test,4,C,haborder.png,1,m,Mon Feb 17 2025 17:18:44 GMT-0600 (Central Standard Time),618800.8999999994,CFD-WM-004-005-HC.jpg,1000,solid,O,m,1407,12,1,21643.200000000186,597157.6999999993,7049,ATS,A,8
7,test,4,C,mfborder.png,1,m,Mon Feb 17 2025 17:18:44 GMT-0600 (Central Standard Time),622233.0999999996,CFD-BM-005-010-A.jpg,2000,dash,O,m,1399,5,1,25075.400000000373,597157.6999999993,7049,ATS,A,9
8,test,4,C,haborder.png,1,m,Mon Feb 17 2025 17:18:44 GMT-0600 (Central Standard Time),624882.0999999996,CFD-BM-029-026-HC.jpg,1600,solid,O,m,1023,10,1,27724.400000000373,597157.6999999993,7049,ATS,A,10
9,test,4,C,mfborder.png,1,m,Mon Feb 17 2025 17:18:44 GMT-0600 (Central Standard Time),627098.5,CFD-BM-017-052-HC.jpg,1000,dash,O,m,1197,4,1,29940.800000000745,597157.6999999993,7049,ATS,A,11
9,test,4,C,haborder.png,0,z,Mon Feb 17 2025 17:18:44 GMT-0600 (Central Standard Time),630097.5,CFD-WF-003-014-A.jpg,1700,solid,O,m,1282,9,1,32939.800000000745,597157.6999999993,7049,ATS,A,12
10,test,4,C,mfborder.png,1,m,Mon Feb 17 2025 17:18:44 GMT-0600 (Central Standard Time),632579.7999999998,CFD-BM-017-052-HC.jpg,1000,dash,O,m,1455,4,1,35422.10000000056,597157.6999999993,7049,ATS,A,13
10,test,4,C,haborder.png,0,z,Mon Feb 17 2025 17:18:44 GMT-0600 (Central Standard Time),635462.2999999998,CFD-BF-023-013-A.jpg,1400,solid,O,m,1452,7,1,38304.60000000056,597157.6999999993,7049,ATS,A,14
11,test,4,C,haborder.png,1,m,Mon Feb 17 2025 17:18:44 GMT-0600 (Central Standard Time),637695.0,CFD-WM-004-005-HC.jpg,1000,solid,O,m,1210,12,1,40537.300000000745,597157.6999999993,7049,ATS,A,15
11,test,4,C,haborder.png,0,m,Mon Feb 17 2025 17:18:44 GMT-0600 (Central Standard Time),640727.3999999994,CFD-WM-004-005-HC.jpg,1500,solid,O,None,1515,11,1,43569.700000000186,597157.6999999993,7049,ATS,A,16
12,test,4,C,mfborder.png,1,z,Mon Feb 17 2025 17:18:44 GMT-0600 (Central Standard Time),643009.8999999994,CFD-WF-019-015-A.jpg,1600,dash,O,z,665,2,1,45852.200000000186,597157.6999999993,7049,ATS,A,17
13,test,4,C,mfborder.png,1,m,Mon Feb 17 2025 17:18:44 GMT-0600 (Central Standard Time),644926.0999999996,CFD-WM-013-015-A.jpg,1200,dash,O,m,694,6,1,47768.40000000037,597157.6999999993,7049,ATS,A,18
14,test,4,C,mfborder.png,1,z,Mon Feb 17 2025 17:18:44 GMT-0600 (Central Standard Time),647725.1999999993,CFD-WF-017-016-HC.jpg,1700,dash,O,z,1070,1,1,50567.5,597157.6999999993,7049,ATS,A,19
15,test,4,C,mfborder.png,1,z,Mon Feb 17 2025 17:18:44 GMT-0600 (Central Standard Time),650091.0,CFD-BF-028-020-HC.jpg,1500,dash,O,z,847,3,1,52933.300000000745,597157.6999999993,7049,ATS,A,20
15,test,4,C,haborder.png,0,z,Mon Feb 17 2025 17:18:44 GMT-0600 (Central Standard Time),652790.1999999993,CFD-BF-023-013-A.jpg,1400,solid,O,m,1269,7,1,55632.5,597157.6999999993,7049,ATS,A,21
16,test,4,C,mfborder.png,1,z,Mon Feb 17 2025 17:18:44 GMT-0600 (Central Standard Time),655072.6999999993,CFD-BF-028-020-HC.jpg,1500,dash,O,z,750,3,1,57915.0,597157.6999999993,7049,ATS,A,22
17,test,4,C,haborder.png,1,m,Mon Feb 17 2025 17:18:44 GMT-0600 (Central Standard Time),657705.5,CFD-WM-004-005-HC.jpg,1500,solid,O,m,988,11,1,60547.800000000745,597157.6999999993,7049,ATS,A,23
18,test,4,C,haborder.png,1,z,Mon Feb 17 2025 17:18:44 GMT-0600 (Central Standard Time),660704.5,CFD-WF-003-014-A.jpg,1700,solid,O,z,1267,9,1,63546.800000000745,597157.6999999993,7049,ATS,A,24
