acc_sum,block,block_c,change,condition,correct,correct_response,datetime,endtime,face,project,response,response_time,row_sel,session_number,start_end,starttime,subject_id,task,task_vers,trial
0,prac,1,,1-Back,,,Fri Apr 11 2025 09:57:17 GMT-0400 (Eastern Daylight Time),,124_o_f_d_a.png,I,space,14355,1,1,,,9011,VNB,A,0
1,prac,1,0.0,1-Back,1,m,Fri Apr 11 2025 09:57:17 GMT-0400 (Eastern Daylight Time),132815.4000005722,071_y_f_n_a.png,I,m,1622,2,1,2448.5,130366.9000005722,9011,VNB,A,1
1,prac,1,0.0,1-Back,0,m,Fri Apr 11 2025 09:57:17 GMT-0400 (Eastern Daylight Time),135648.60000038147,165_m_m_h_a.png,I,None,2006,3,1,2817.300000190735,132831.30000019073,9011,VNB,A,2
2,prac,1,0.0,1-Back,1,m,Fri Apr 11 2025 09:57:17 GMT-0400 (Eastern Daylight Time),137848.60000038147,109_y_m_d_a.png,I,m,1359,4,1,2185.300000190735,135663.30000019073,9011,VNB,A,3
3,prac,1,0.0,1-Back,1,m,Fri Apr 11 2025 09:57:17 GMT-0400 (Eastern Daylight Time),139747.80000019073,124_o_f_n_a.png,I,m,1025,5,1,1884.1000003814697,137863.69999980927,9011,VNB,A,4
4,prac,1,1.0,1-Back,1,z,Fri Apr 11 2025 09:57:17 GMT-0400 (Eastern Daylight Time),141631.80000019073,109_y_m_n_a.png,I,z,1036,6,1,1872.8000001907349,139759.0,9011,VNB,A,5
5,prac,1,0.0,1-Back,1,m,Fri Apr 11 2025 09:57:17 GMT-0400 (Eastern Daylight Time),143598.4000005722,039_o_m_h_a.png,I,m,1128,7,1,1949.0,141649.4000005722,9011,VNB,A,6
6,prac,1,0.0,1-Back,1,m,Fri Apr 11 2025 09:57:17 GMT-0400 (Eastern Daylight Time),145948.30000019073,139_m_f_d_a.png,I,m,1514,8,1,2335.300000190735,143613.0,9011,VNB,A,7
7,prac,1,1.0,1-Back,1,z,Fri Apr 11 2025 09:57:17 GMT-0400 (Eastern Daylight Time),147631.80000019073,071_y_f_d_a.png,I,z,842,9,1,1668.8000001907349,145963.0,9011,VNB,A,8
8,prac,1,0.0,1-Back,1,m,Fri Apr 11 2025 09:57:17 GMT-0400 (Eastern Daylight Time),149614.9000005722,165_m_m_n_a.png,I,m,1142,10,1,1968.5,147646.4000005722,9011,VNB,A,9
9,prac,1,0.0,1-Back,1,m,Fri Apr 11 2025 09:57:17 GMT-0400 (Eastern Daylight Time),151715.19999980927,124_o_f_h_a.png,I,m,1246,11,1,2085.3999996185303,149629.80000019073,9011,VNB,A,10
10,prac,1,0.0,1-Back,1,m,Fri Apr 11 2025 09:57:17 GMT-0400 (Eastern Daylight Time),153665.5,109_y_m_d_a.png,I,m,1165,12,1,1935.0,151730.5,9011,VNB,A,11
0,test,1,0.0,1-Back,,,Fri Apr 11 2025 09:57:17 GMT-0400 (Eastern Daylight Time),153665.5,071_y_f_d_a.png,I,space,18407,1,1,1935.0,151730.5,9011,VNB,A,0
1,test,1,0.0,1-Back,1,m,Fri Apr 11 2025 09:57:17 GMT-0400 (Eastern Daylight Time),180531.30000019073,139_m_f_n_a.png,I,m,1013,2,1,2021.0,178510.30000019073,9011,VNB,A,1
2,test,1,0.0,1-Back,1,m,Fri Apr 11 2025 09:57:17 GMT-0400 (Eastern Daylight Time),182665.0,039_o_m_h_a.png,I,m,1109,3,1,2124.5999994277954,180540.4000005722,9011,VNB,A,2
3,test,1,1.0,1-Back,1,z,Fri Apr 11 2025 09:57:17 GMT-0400 (Eastern Daylight Time),184664.9000005722,165_m_m_h_a.png,I,z,975,4,1,1987.5,182677.4000005722,9011,VNB,A,3
4,test,1,0.0,1-Back,1,m,Fri Apr 11 2025 09:57:17 GMT-0400 (Eastern Daylight Time),186764.80000019073,124_o_f_n_a.png,I,m,1071,5,1,2085.300000190735,184679.5,9011,VNB,A,4
5,test,1,0.0,1-Back,1,m,Fri Apr 11 2025 09:57:17 GMT-0400 (Eastern Daylight Time),188981.5,109_y_m_d_a.png,I,m,1194,6,1,2203.699999809265,186777.80000019073,9011,VNB,A,5
5,test,1,1.0,1-Back,0,z,Fri Apr 11 2025 09:57:17 GMT-0400 (Eastern Daylight Time),191414.80000019073,139_m_f_d_a.png,I,m,1410,7,1,2421.0,188993.80000019073,9011,VNB,A,6
6,test,1,0.0,1-Back,1,m,Fri Apr 11 2025 09:57:17 GMT-0400 (Eastern Daylight Time),193448.30000019073,071_y_f_h_a.png,I,m,1009,8,1,2021.1000003814697,191427.19999980927,9011,VNB,A,7
7,test,1,0.0,1-Back,1,m,Fri Apr 11 2025 09:57:17 GMT-0400 (Eastern Daylight Time),195731.4000005722,039_o_m_n_a.png,I,m,1264,9,1,2270.0,193461.4000005722,9011,VNB,A,8
8,test,1,0.0,1-Back,1,m,Fri Apr 11 2025 09:57:17 GMT-0400 (Eastern Daylight Time),197814.80000019073,109_y_m_h_a.png,I,m,1061,10,1,2069.6000003814697,195745.19999980927,9011,VNB,A,9
9,test,1,0.0,1-Back,1,m,Fri Apr 11 2025 09:57:17 GMT-0400 (Eastern Daylight Time),200181.5,039_o_m_d_a.png,I,m,1345,11,1,2352.699999809265,197828.80000019073,9011,VNB,A,10
10,test,1,1.0,1-Back,1,z,Fri Apr 11 2025 09:57:17 GMT-0400 (Eastern Daylight Time),202347.5,124_o_f_d_a.png,I,z,1138,12,1,2153.300000190735,200194.19999980927,9011,VNB,A,11
11,test,1,0.0,1-Back,1,m,Fri Apr 11 2025 09:57:17 GMT-0400 (Eastern Daylight Time),204481.4000005722,165_m_m_n_a.png,I,m,1100,13,1,2124.4000005722046,202357.0,9011,VNB,A,12
12,test,1,1.0,1-Back,1,z,Fri Apr 11 2025 09:57:17 GMT-0400 (Eastern Daylight Time),206415.10000038147,071_y_f_n_a.png,I,z,903,14,1,1921.3000001907349,204493.80000019073,9011,VNB,A,13
13,test,1,0.0,1-Back,1,m,Fri Apr 11 2025 09:57:17 GMT-0400 (Eastern Daylight Time),208581.4000005722,139_m_f_h_a.png,I,m,1145,15,1,2153.4000005722046,206428.0,9011,VNB,A,14
14,test,1,0.0,1-Back,1,m,Fri Apr 11 2025 09:57:17 GMT-0400 (Eastern Daylight Time),210798.19999980927,165_m_m_d_a.png,I,m,1188,16,1,2203.5999994277954,208594.60000038147,9011,VNB,A,15
15,test,1,0.0,1-Back,1,m,Fri Apr 11 2025 09:57:17 GMT-0400 (Eastern Daylight Time),212598.10000038147,109_y_m_n_a.png,I,m,778,17,1,1786.8000001907349,210811.30000019073,9011,VNB,A,16
16,test,1,0.0,1-Back,1,m,Fri Apr 11 2025 09:57:17 GMT-0400 (Eastern Daylight Time),214798.19999980927,124_o_f_h_a.png,I,m,1169,18,1,2187.5,212610.69999980927,9011,VNB,A,17
0,test,2,0.0,1-Back,,,Fri Apr 11 2025 09:57:17 GMT-0400 (Eastern Daylight Time),214798.19999980927,109_y_m_n_a.png,I,space,1906,1,1,2187.5,212610.69999980927,9011,VNB,A,0
1,test,2,0.0,1-Back,1,m,Fri Apr 11 2025 09:57:17 GMT-0400 (Eastern Daylight Time),220698.10000038147,071_y_f_h_a.png,I,m,941,2,1,1954.0,218744.10000038147,9011,VNB,A,1
2,test,2,1.0,1-Back,1,m,Fri Apr 11 2025 09:57:17 GMT-0400 (Eastern Daylight Time),222881.5,039_o_m_n_a.png,I,m,1150,3,1,2170.699999809265,220710.80000019073,9011,VNB,A,2
3,test,2,0.0,1-Back,1,m,Fri Apr 11 2025 09:57:17 GMT-0400 (Eastern Daylight Time),224831.4000005722,139_m_f_d_a.png,I,m,918,4,1,1937.2000007629395,222894.19999980927,9011,VNB,A,3
4,test,2,0.0,1-Back,1,z,Fri Apr 11 2025 09:57:17 GMT-0400 (Eastern Daylight Time),226664.9000005722,165_m_m_d_a.png,I,z,809,5,1,1820.8000001907349,224844.10000038147,9011,VNB,A,4
5,test,2,0.0,1-Back,1,m,Fri Apr 11 2025 09:57:17 GMT-0400 (Eastern Daylight Time),228614.9000005722,109_y_m_h_a.png,I,m,927,6,1,1937.3000001907349,226677.60000038147,9011,VNB,A,5
6,test,2,1.0,1-Back,1,z,Fri Apr 11 2025 09:57:17 GMT-0400 (Eastern Daylight Time),230548.19999980927,124_o_f_h_a.png,I,z,913,7,1,1919.5999994277954,228628.60000038147,9011,VNB,A,6
7,test,2,0.0,1-Back,1,m,Fri Apr 11 2025 09:57:17 GMT-0400 (Eastern Daylight Time),232264.80000019073,139_m_f_n_a.png,I,m,692,8,1,1704.3000001907349,230560.5,9011,VNB,A,7
8,test,2,0.0,1-Back,1,m,Fri Apr 11 2025 09:57:17 GMT-0400 (Eastern Daylight Time),234431.4000005722,071_y_f_d_a.png,I,m,1135,9,1,2153.0,232278.4000005722,9011,VNB,A,8
9,test,2,0.0,1-Back,1,m,Fri Apr 11 2025 09:57:17 GMT-0400 (Eastern Daylight Time),236248.19999980927,165_m_m_n_a.png,I,m,793,10,1,1804.0999994277954,234444.10000038147,9011,VNB,A,9
10,test,2,1.0,1-Back,1,m,Fri Apr 11 2025 09:57:17 GMT-0400 (Eastern Daylight Time),238198.19999980927,139_m_f_h_a.png,I,m,928,11,1,1936.1999998092651,236262.0,9011,VNB,A,10
11,test,2,0.0,1-Back,1,z,Fri Apr 11 2025 09:57:17 GMT-0400 (Eastern Daylight Time),240148.0,039_o_m_h_a.png,I,z,929,12,1,1936.0999994277954,238211.9000005722,9011,VNB,A,11
12,test,2,0.0,1-Back,1,m,Fri Apr 11 2025 09:57:17 GMT-0400 (Eastern Daylight Time),242214.9000005722,109_y_m_d_a.png,I,m,1045,13,1,2054.4000005722046,240160.5,9011,VNB,A,12
13,test,2,0.0,1-Back,1,m,Fri Apr 11 2025 09:57:17 GMT-0400 (Eastern Daylight Time),244147.9000005722,124_o_f_n_a.png,I,m,914,14,1,1920.6000003814697,242227.30000019073,9011,VNB,A,13
14,test,2,0.0,1-Back,1,z,Fri Apr 11 2025 09:57:17 GMT-0400 (Eastern Daylight Time),245998.19999980927,071_y_f_n_a.png,I,z,819,15,1,1837.1999998092651,244161.0,9011,VNB,A,14
15,test,2,1.0,1-Back,1,m,Fri Apr 11 2025 09:57:17 GMT-0400 (Eastern Daylight Time),247831.5,165_m_m_h_a.png,I,m,793,16,1,1818.3999996185303,246013.10000038147,9011,VNB,A,15
16,test,2,0.0,1-Back,1,m,Fri Apr 11 2025 09:57:17 GMT-0400 (Eastern Daylight Time),249881.4000005722,124_o_f_d_a.png,I,m,1007,17,1,2033.0,247848.4000005722,9011,VNB,A,16
17,test,2,1.0,1-Back,1,z,Fri Apr 11 2025 09:57:17 GMT-0400 (Eastern Daylight Time),251764.80000019073,039_o_m_d_a.png,I,z,862,18,1,1868.3999996185303,249896.4000005722,9011,VNB,A,17
0,test,3,1.0,1-Back,,,Fri Apr 11 2025 09:57:17 GMT-0400 (Eastern Daylight Time),251764.80000019073,124_o_f_h_a.png,I,space,1612,1,1,1868.3999996185303,249896.4000005722,9011,VNB,A,0
1,test,3,0.0,1-Back,1,m,Fri Apr 11 2025 09:57:17 GMT-0400 (Eastern Daylight Time),257514.9000005722,139_m_f_d_a.png,I,m,1023,2,1,2037.8000001907349,255477.10000038147,9011,VNB,A,1
2,test,3,1.0,1-Back,1,m,Fri Apr 11 2025 09:57:17 GMT-0400 (Eastern Daylight Time),259398.0,165_m_m_n_a.png,I,m,861,3,1,1870.0999994277954,257527.9000005722,9011,VNB,A,2
3,test,3,0.0,1-Back,1,z,Fri Apr 11 2025 09:57:17 GMT-0400 (Eastern Daylight Time),261231.5,124_o_f_n_a.png,I,z,784,4,1,1809.5,259422.0,9011,VNB,A,3
4,test,3,1.0,1-Back,1,m,Fri Apr 11 2025 09:57:17 GMT-0400 (Eastern Daylight Time),263064.69999980927,039_o_m_d_a.png,I,m,808,5,1,1819.5999994277954,261245.10000038147,9011,VNB,A,4
5,test,3,0.0,1-Back,1,m,Fri Apr 11 2025 09:57:17 GMT-0400 (Eastern Daylight Time),265181.4000005722,071_y_f_h_a.png,I,m,1087,6,1,2104.300000190735,263077.10000038147,9011,VNB,A,5
6,test,3,0.0,1-Back,1,z,Fri Apr 11 2025 09:57:17 GMT-0400 (Eastern Daylight Time),267131.60000038147,109_y_m_h_a.png,I,z,923,7,1,1936.8000001907349,265194.80000019073,9011,VNB,A,6
7,test,3,0.0,1-Back,1,m,Fri Apr 11 2025 09:57:17 GMT-0400 (Eastern Daylight Time),268897.9000005722,139_m_f_n_a.png,I,m,733,8,1,1751.3000001907349,267146.60000038147,9011,VNB,A,7
8,test,3,0.0,1-Back,1,m,Fri Apr 11 2025 09:57:17 GMT-0400 (Eastern Daylight Time),271031.5,071_y_f_d_a.png,I,m,1110,9,1,2118.0,268913.5,9011,VNB,A,8
9,test,3,1.0,1-Back,1,m,Fri Apr 11 2025 09:57:17 GMT-0400 (Eastern Daylight Time),272831.30000019073,039_o_m_n_a.png,I,m,768,10,1,1785.1999998092651,271046.10000038147,9011,VNB,A,9
10,test,3,0.0,1-Back,1,m,Fri Apr 11 2025 09:57:17 GMT-0400 (Eastern Daylight Time),274831.4000005722,165_m_m_h_a.png,I,m,951,11,1,1982.8000001907349,272848.60000038147,9011,VNB,A,10
11,test,3,0.0,1-Back,1,z,Fri Apr 11 2025 09:57:17 GMT-0400 (Eastern Daylight Time),276664.69999980927,139_m_f_h_a.png,I,z,792,12,1,1817.5,274847.19999980927,9011,VNB,A,11
12,test,3,1.0,1-Back,1,m,Fri Apr 11 2025 09:57:17 GMT-0400 (Eastern Daylight Time),278581.5,124_o_f_d_a.png,I,m,896,13,1,1904.1999998092651,276677.30000019073,9011,VNB,A,12
13,test,3,0.0,1-Back,1,z,Fri Apr 11 2025 09:57:17 GMT-0400 (Eastern Daylight Time),280331.30000019073,165_m_m_d_a.png,I,z,706,14,1,1734.3999996185303,278596.9000005722,9011,VNB,A,13
14,test,3,0.0,1-Back,1,m,Fri Apr 11 2025 09:57:17 GMT-0400 (Eastern Daylight Time),282248.0,109_y_m_n_a.png,I,m,893,15,1,1903.0,280345.0,9011,VNB,A,14
15,test,3,1.0,1-Back,1,m,Fri Apr 11 2025 09:57:17 GMT-0400 (Eastern Daylight Time),284281.5,039_o_m_h_a.png,I,m,1008,16,1,2020.0,282261.5,9011,VNB,A,15
16,test,3,0.0,1-Back,1,m,Fri Apr 11 2025 09:57:17 GMT-0400 (Eastern Daylight Time),286298.10000038147,109_y_m_d_a.png,I,m,991,17,1,2002.3000001907349,284295.80000019073,9011,VNB,A,16
17,test,3,1.0,1-Back,1,m,Fri Apr 11 2025 09:57:17 GMT-0400 (Eastern Daylight Time),288364.60000038147,071_y_f_n_a.png,I,m,1038,18,1,2053.800000190735,286310.80000019073,9011,VNB,A,17
0,test,4,1.0,1-Back,,,Fri Apr 11 2025 09:57:17 GMT-0400 (Eastern Daylight Time),288364.60000038147,165_m_m_d_a.png,I,space,1875,1,1,2053.800000190735,286310.80000019073,9011,VNB,A,0
1,test,4,0.0,1-Back,1,z,Fri Apr 11 2025 09:57:17 GMT-0400 (Eastern Daylight Time),294264.9000005722,039_o_m_d_a.png,I,z,975,2,1,1987.0,292277.9000005722,9011,VNB,A,1
2,test,4,0.0,1-Back,1,m,Fri Apr 11 2025 09:57:17 GMT-0400 (Eastern Daylight Time),295914.69999980927,109_y_m_h_a.png,I,m,622,3,1,1637.0,294277.69999980927,9011,VNB,A,2
3,test,4,0.0,1-Back,1,m,Fri Apr 11 2025 09:57:17 GMT-0400 (Eastern Daylight Time),297981.4000005722,139_m_f_n_a.png,I,m,1021,4,1,2051.0,295930.4000005722,9011,VNB,A,3
4,test,4,1.0,1-Back,1,m,Fri Apr 11 2025 09:57:17 GMT-0400 (Eastern Daylight Time),299864.5,124_o_f_h_a.png,I,m,842,5,1,1866.0,297998.5,9011,VNB,A,4
5,test,4,0.0,1-Back,1,m,Fri Apr 11 2025 09:57:17 GMT-0400 (Eastern Daylight Time),301648.0,165_m_m_n_a.png,I,m,734,6,1,1767.5,299880.5,9011,VNB,A,5
6,test,4,0.0,1-Back,1,m,Fri Apr 11 2025 09:57:17 GMT-0400 (Eastern Daylight Time),303680.80000019073,109_y_m_d_a.png,I,m,1000,7,1,2018.1000003814697,301662.69999980927,9011,VNB,A,6
7,test,4,1.0,1-Back,1,z,Fri Apr 11 2025 09:57:17 GMT-0400 (Eastern Daylight Time),305347.9000005722,071_y_f_d_a.png,I,z,647,8,1,1656.0,303691.9000005722,9011,VNB,A,7
8,test,4,0.0,1-Back,1,m,Fri Apr 11 2025 09:57:17 GMT-0400 (Eastern Daylight Time),307014.69999980927,139_m_f_h_a.png,I,m,643,9,1,1653.7999992370605,305360.9000005722,9011,VNB,A,8
9,test,4,0.0,1-Back,1,z,Fri Apr 11 2025 09:57:17 GMT-0400 (Eastern Daylight Time),308781.30000019073,039_o_m_h_a.png,I,z,737,10,1,1754.3000001907349,307027.0,9011,VNB,A,9
10,test,4,1.0,1-Back,1,m,Fri Apr 11 2025 09:57:17 GMT-0400 (Eastern Daylight Time),310581.30000019073,124_o_f_n_a.png,I,m,778,11,1,1785.6000003814697,308795.69999980927,9011,VNB,A,10
10,test,4,0.0,1-Back,0,m,Fri Apr 11 2025 09:57:17 GMT-0400 (Eastern Daylight Time),312331.5,139_m_f_d_a.png,I,z,722,12,1,1737.0,310594.5,9011,VNB,A,11
11,test,4,0.0,1-Back,1,m,Fri Apr 11 2025 09:57:17 GMT-0400 (Eastern Daylight Time),314964.60000038147,071_y_f_n_a.png,I,m,1612,13,1,2619.699999809265,312344.9000005722,9011,VNB,A,12
12,test,4,0.0,1-Back,1,m,Fri Apr 11 2025 09:57:17 GMT-0400 (Eastern Daylight Time),316781.4000005722,124_o_f_d_a.png,I,m,788,14,1,1802.8000001907349,314978.60000038147,9011,VNB,A,13
13,test,4,0.0,1-Back,1,m,Fri Apr 11 2025 09:57:17 GMT-0400 (Eastern Daylight Time),319348.0,071_y_f_h_a.png,I,m,1546,15,1,2553.699999809265,316794.30000019073,9011,VNB,A,14
14,test,4,1.0,1-Back,1,z,Fri Apr 11 2025 09:57:17 GMT-0400 (Eastern Daylight Time),321214.69999980927,165_m_m_h_a.png,I,z,835,16,1,1853.0999994277954,319361.60000038147,9011,VNB,A,15
15,test,4,0.0,1-Back,1,m,Fri Apr 11 2025 09:57:17 GMT-0400 (Eastern Daylight Time),322997.9000005722,039_o_m_n_a.png,I,m,761,17,1,1770.2000007629395,321227.69999980927,9011,VNB,A,16
16,test,4,1.0,1-Back,1,z,Fri Apr 11 2025 09:57:17 GMT-0400 (Eastern Daylight Time),325081.4000005722,109_y_m_n_a.png,I,z,1057,18,1,2070.6000003814697,323010.80000019073,9011,VNB,A,17
0,test,5,1.0,1-Back,,,Fri Apr 11 2025 09:57:17 GMT-0400 (Eastern Daylight Time),325081.4000005722,039_o_m_n_a.png,I,space,2375,1,1,2070.6000003814697,323010.80000019073,9011,VNB,A,0
1,test,5,1.0,1-Back,1,m,Fri Apr 11 2025 09:57:17 GMT-0400 (Eastern Daylight Time),331848.10000038147,124_o_f_h_a.png,I,m,1326,2,1,2351.4000005722046,329496.69999980927,9011,VNB,A,1
2,test,5,0.0,1-Back,1,m,Fri Apr 11 2025 09:57:17 GMT-0400 (Eastern Daylight Time),333681.9000005722,109_y_m_d_a.png,I,m,799,3,1,1818.0,331863.9000005722,9011,VNB,A,2
3,test,5,0.0,1-Back,1,z,Fri Apr 11 2025 09:57:17 GMT-0400 (Eastern Daylight Time),335414.69999980927,039_o_m_d_a.png,I,z,710,4,1,1720.8999996185303,333693.80000019073,9011,VNB,A,3
4,test,5,0.0,1-Back,1,m,Fri Apr 11 2025 09:57:17 GMT-0400 (Eastern Daylight Time),337331.19999980927,139_m_f_h_a.png,I,m,897,5,1,1902.6999998092651,335428.5,9011,VNB,A,4
5,test,5,0.0,1-Back,1,m,Fri Apr 11 2025 09:57:17 GMT-0400 (Eastern Daylight Time),339297.9000005722,071_y_f_n_a.png,I,m,933,6,1,1953.2000007629395,337344.69999980927,9011,VNB,A,5
6,test,5,1.0,1-Back,1,z,Fri Apr 11 2025 09:57:17 GMT-0400 (Eastern Daylight Time),341064.60000038147,124_o_f_n_a.png,I,z,741,7,1,1753.4000005722046,339311.19999980927,9011,VNB,A,6
7,test,5,0.0,1-Back,1,m,Fri Apr 11 2025 09:57:17 GMT-0400 (Eastern Daylight Time),342881.4000005722,139_m_f_d_a.png,I,m,783,8,1,1803.9000005722046,341077.5,9011,VNB,A,7
8,test,5,0.0,1-Back,1,m,Fri Apr 11 2025 09:57:17 GMT-0400 (Eastern Daylight Time),344547.9000005722,109_y_m_h_a.png,I,m,646,9,1,1653.6000003814697,342894.30000019073,9011,VNB,A,8
9,test,5,0.0,1-Back,1,m,Fri Apr 11 2025 09:57:17 GMT-0400 (Eastern Daylight Time),346364.60000038147,071_y_f_d_a.png,I,m,787,10,1,1803.8000001907349,344560.80000019073,9011,VNB,A,9
10,test,5,0.0,1-Back,1,m,Fri Apr 11 2025 09:57:17 GMT-0400 (Eastern Daylight Time),348381.30000019073,165_m_m_n_a.png,I,m,987,11,1,2003.1000003814697,346378.19999980927,9011,VNB,A,10
11,test,5,1.0,1-Back,1,z,Fri Apr 11 2025 09:57:17 GMT-0400 (Eastern Daylight Time),350164.60000038147,139_m_f_n_a.png,I,z,763,12,1,1770.3000001907349,348394.30000019073,9011,VNB,A,11
12,test,5,0.0,1-Back,1,m,Fri Apr 11 2025 09:57:17 GMT-0400 (Eastern Daylight Time),351698.4000005722,039_o_m_h_a.png,I,m,516,13,1,1520.6000003814697,350177.80000019073,9011,VNB,A,12
13,test,5,0.0,1-Back,1,z,Fri Apr 11 2025 09:57:17 GMT-0400 (Eastern Daylight Time),353648.0,165_m_m_h_a.png,I,z,917,14,1,1937.6999998092651,351710.30000019073,9011,VNB,A,13
14,test,5,1.0,1-Back,1,m,Fri Apr 11 2025 09:57:17 GMT-0400 (Eastern Daylight Time),355298.19999980927,124_o_f_d_a.png,I,m,631,15,1,1636.6999998092651,353661.5,9011,VNB,A,14
15,test,5,0.0,1-Back,1,m,Fri Apr 11 2025 09:57:17 GMT-0400 (Eastern Daylight Time),357298.19999980927,109_y_m_n_a.png,I,m,982,16,1,1987.8999996185303,355310.30000019073,9011,VNB,A,15
16,test,5,0.0,1-Back,1,m,Fri Apr 11 2025 09:57:17 GMT-0400 (Eastern Daylight Time),360081.10000038147,071_y_f_h_a.png,I,m,1750,17,1,2770.5,357310.60000038147,9011,VNB,A,16
17,test,5,0.0,1-Back,1,m,Fri Apr 11 2025 09:57:17 GMT-0400 (Eastern Daylight Time),362231.4000005722,165_m_m_d_a.png,I,m,1128,18,1,2136.2000007629395,360095.19999980927,9011,VNB,A,17
0,prac,1,0.0,2-Back,,,Fri Apr 11 2025 09:57:17 GMT-0400 (Eastern Daylight Time),362231.4000005722,139_m_f_n_a.png,I,space,9599,1,1,2136.2000007629395,360095.19999980927,9011,VNB,A,0
0,prac,1,0.0,2-Back,,,Fri Apr 11 2025 09:57:17 GMT-0400 (Eastern Daylight Time),362231.4000005722,124_o_f_h_a.png,I,space,9599,2,1,2136.2000007629395,360095.19999980927,9011,VNB,A,0
1,prac,1,0.0,2-Back,1,m,Fri Apr 11 2025 09:57:17 GMT-0400 (Eastern Daylight Time),468214.60000038147,039_o_m_d_a.png,I,m,1227,3,1,2100.300000190735,466114.30000019073,9011,VNB,A,1
1,prac,1,1.0,2-Back,0,z,Fri Apr 11 2025 09:57:17 GMT-0400 (Eastern Daylight Time),471097.19999980927,165_m_m_h_a.png,I,None,2007,4,1,2868.699999809265,468228.5,9011,VNB,A,2
1,prac,1,0.0,2-Back,0,m,Fri Apr 11 2025 09:57:17 GMT-0400 (Eastern Daylight Time),473964.5,071_y_f_n_a.png,I,None,2011,5,1,2855.5,471109.0,9011,VNB,A,3
1,prac,1,1.0,2-Back,0,z,Fri Apr 11 2025 09:57:17 GMT-0400 (Eastern Daylight Time),476081.10000038147,039_o_m_h_a.png,I,m,1210,6,1,2098.1000003814697,473983.0,9011,VNB,A,4
1,prac,1,1.0,2-Back,0,z,Fri Apr 11 2025 09:57:17 GMT-0400 (Eastern Daylight Time),478397.69999980927,109_y_m_n_a.png,I,m,1404,7,1,2300.8999996185303,476096.80000019073,9011,VNB,A,5
2,prac,1,0.0,2-Back,1,m,Fri Apr 11 2025 09:57:17 GMT-0400 (Eastern Daylight Time),480698.0,139_m_f_d_a.png,I,m,1398,8,1,2286.0,478412.0,9011,VNB,A,6
2,prac,1,0.0,2-Back,0,m,Fri Apr 11 2025 09:57:17 GMT-0400 (Eastern Daylight Time),483697.80000019073,124_o_f_d_a.png,I,None,2001,9,1,2985.300000190735,480712.5,9011,VNB,A,7
3,prac,1,0.0,2-Back,1,m,Fri Apr 11 2025 09:57:17 GMT-0400 (Eastern Daylight Time),486364.60000038147,165_m_m_h_a.png,I,m,1825,10,1,2651.5,483713.10000038147,9011,VNB,A,8
3,prac,1,1.0,2-Back,0,z,Fri Apr 11 2025 09:57:17 GMT-0400 (Eastern Daylight Time),488747.80000019073,071_y_f_d_a.png,I,m,1446,11,1,2365.1000003814697,486382.69999980927,9011,VNB,A,9
3,prac,1,0.0,2-Back,0,m,Fri Apr 11 2025 09:57:17 GMT-0400 (Eastern Daylight Time),491647.69999980927,039_o_m_n_a.png,I,None,2001,12,1,2885.3999996185303,488762.30000019073,9011,VNB,A,10
0,prac,2,0.0,2-Back,,,Fri Apr 11 2025 09:57:17 GMT-0400 (Eastern Daylight Time),491647.69999980927,139_m_f_n_a.png,I,a,9824,1,1,2885.3999996185303,488762.30000019073,9011,VNB,A,0
0,prac,2,0.0,2-Back,,,Fri Apr 11 2025 09:57:17 GMT-0400 (Eastern Daylight Time),491647.69999980927,124_o_f_h_a.png,I,a,9824,2,1,2885.3999996185303,488762.30000019073,9011,VNB,A,0
1,prac,2,0.0,2-Back,1,m,Fri Apr 11 2025 09:57:17 GMT-0400 (Eastern Daylight Time),508647.9000005722,039_o_m_d_a.png,I,m,1035,3,1,1869.2000007629395,506778.69999980927,9011,VNB,A,1
2,prac,2,1.0,2-Back,1,z,Fri Apr 11 2025 09:57:17 GMT-0400 (Eastern Daylight Time),510764.5,165_m_m_h_a.png,I,z,1275,4,1,2100.3999996185303,508664.10000038147,9011,VNB,A,2
3,prac,2,0.0,2-Back,1,m,Fri Apr 11 2025 09:57:17 GMT-0400 (Eastern Daylight Time),512714.60000038147,071_y_f_n_a.png,I,m,1110,5,1,1932.1000003814697,510782.5,9011,VNB,A,3
4,prac,2,1.0,2-Back,1,z,Fri Apr 11 2025 09:57:17 GMT-0400 (Eastern Daylight Time),515181.10000038147,039_o_m_h_a.png,I,z,1630,6,1,2452.199999809265,512728.9000005722,9011,VNB,A,4
5,prac,2,1.0,2-Back,1,z,Fri Apr 11 2025 09:57:17 GMT-0400 (Eastern Daylight Time),517314.4000005722,109_y_m_n_a.png,I,z,1289,7,1,2117.9000005722046,515196.5,9011,VNB,A,5
6,prac,2,0.0,2-Back,1,m,Fri Apr 11 2025 09:57:17 GMT-0400 (Eastern Daylight Time),519214.5,139_m_f_d_a.png,I,m,1058,8,1,1885.0999994277954,517329.4000005722,9011,VNB,A,6
7,prac,2,0.0,2-Back,1,m,Fri Apr 11 2025 09:57:17 GMT-0400 (Eastern Daylight Time),521997.9000005722,124_o_f_d_a.png,I,m,1789,9,1,2768.9000005722046,519229.0,9011,VNB,A,7
8,prac,2,0.0,2-Back,1,m,Fri Apr 11 2025 09:57:17 GMT-0400 (Eastern Daylight Time),523947.9000005722,165_m_m_h_a.png,I,m,1099,10,1,1935.0,522012.9000005722,9011,VNB,A,8
9,prac,2,1.0,2-Back,1,z,Fri Apr 11 2025 09:57:17 GMT-0400 (Eastern Daylight Time),526214.0,071_y_f_d_a.png,I,z,1338,11,1,2251.199999809265,523962.80000019073,9011,VNB,A,9
9,prac,2,0.0,2-Back,0,m,Fri Apr 11 2025 09:57:17 GMT-0400 (Eastern Daylight Time),528497.6999998093,039_o_m_n_a.png,I,z,1452,12,1,2264.0,526233.6999998093,9011,VNB,A,10
0,test,1,0.0,2-Back,,,Fri Apr 11 2025 09:57:17 GMT-0400 (Eastern Daylight Time),528497.6999998093,109_y_m_h_a.png,I,space,19594,1,1,2264.0,526233.6999998093,9011,VNB,A,0
0,test,1,0.0,2-Back,,,Fri Apr 11 2025 09:57:17 GMT-0400 (Eastern Daylight Time),528497.6999998093,124_o_f_n_a.png,I,space,19594,2,1,2264.0,526233.6999998093,9011,VNB,A,0
1,test,1,0.0,2-Back,1,z,Fri Apr 11 2025 09:57:17 GMT-0400 (Eastern Daylight Time),563747.8000001907,039_o_m_h_a.png,I,z,946,3,1,1954.1000003814697,561793.6999998093,9011,VNB,A,1
2,test,1,0.0,2-Back,1,m,Fri Apr 11 2025 09:57:17 GMT-0400 (Eastern Daylight Time),566097.9000005722,139_m_f_d_a.png,I,m,1316,4,1,2336.9000005722046,563761.0,9011,VNB,A,2
2,test,1,1.0,2-Back,0,m,Fri Apr 11 2025 09:57:17 GMT-0400 (Eastern Daylight Time),568764.3000001907,109_y_m_n_a.png,I,z,1638,5,1,2653.1000003814697,566111.1999998093,9011,VNB,A,3
3,test,1,0.0,2-Back,1,z,Fri Apr 11 2025 09:57:17 GMT-0400 (Eastern Daylight Time),570847.6999998093,071_y_f_d_a.png,I,z,1051,6,1,2070.5,568777.1999998093,9011,VNB,A,4
3,test,1,0.0,2-Back,0,m,Fri Apr 11 2025 09:57:17 GMT-0400 (Eastern Daylight Time),573881.3000001907,165_m_m_h_a.png,I,None,2016,7,1,3020.6000003814697,570860.6999998093,9011,VNB,A,5
4,test,1,1.0,2-Back,1,m,Fri Apr 11 2025 09:57:17 GMT-0400 (Eastern Daylight Time),575880.8000001907,071_y_f_n_a.png,I,m,974,8,1,1985.1999998092651,573895.6000003815,9011,VNB,A,6
4,test,1,0.0,2-Back,0,z,Fri Apr 11 2025 09:57:17 GMT-0400 (Eastern Daylight Time),578914.4000005722,124_o_f_h_a.png,I,None,2015,9,1,3019.800000190735,575894.6000003815,9011,VNB,A,7
5,test,1,0.0,2-Back,1,m,Fri Apr 11 2025 09:57:17 GMT-0400 (Eastern Daylight Time),581397.6000003815,039_o_m_d_a.png,I,m,1461,10,1,2469.9000005722046,578927.6999998093,9011,VNB,A,8
6,test,1,1.0,2-Back,1,m,Fri Apr 11 2025 09:57:17 GMT-0400 (Eastern Daylight Time),583880.9000005722,165_m_m_d_a.png,I,m,1458,11,1,2469.5,581411.4000005722,9011,VNB,A,9
7,test,1,0.0,2-Back,1,m,Fri Apr 11 2025 09:57:17 GMT-0400 (Eastern Daylight Time),586014.3000001907,139_m_f_n_a.png,I,m,1102,12,1,2120.3999996185303,583893.9000005722,9011,VNB,A,10
7,test,1,0.0,2-Back,0,m,Fri Apr 11 2025 09:57:17 GMT-0400 (Eastern Daylight Time),588847.6000003815,071_y_f_h_a.png,I,z,1801,13,1,2820.5,586027.1000003815,9011,VNB,A,11
8,test,1,0.0,2-Back,1,z,Fri Apr 11 2025 09:57:17 GMT-0400 (Eastern Daylight Time),591047.1000003815,165_m_m_n_a.png,I,z,1175,14,1,2185.5,588861.6000003815,9011,VNB,A,12
9,test,1,0.0,2-Back,1,m,Fri Apr 11 2025 09:57:17 GMT-0400 (Eastern Daylight Time),593064.1999998093,109_y_m_d_a.png,I,m,992,15,1,2002.0999994277954,591062.1000003815,9011,VNB,A,13
10,test,1,1.0,2-Back,1,m,Fri Apr 11 2025 09:57:17 GMT-0400 (Eastern Daylight Time),595313.8000001907,139_m_f_h_a.png,I,m,1214,16,1,2232.8999996185303,593080.9000005722,9011,VNB,A,14
11,test,1,0.0,2-Back,1,z,Fri Apr 11 2025 09:57:17 GMT-0400 (Eastern Daylight Time),597381.1000003815,124_o_f_d_a.png,I,z,1045,17,1,2052.4000005722046,595328.6999998093,9011,VNB,A,15
12,test,1,0.0,2-Back,1,m,Fri Apr 11 2025 09:57:17 GMT-0400 (Eastern Daylight Time),599497.6999998093,039_o_m_n_a.png,I,m,1074,18,1,2099.8999996185303,597397.8000001907,9011,VNB,A,16
0,test,2,0.0,2-Back,,,Fri Apr 11 2025 09:57:17 GMT-0400 (Eastern Daylight Time),599497.6999998093,165_m_m_h_a.png,I,space,3238,1,1,2099.8999996185303,597397.8000001907,9011,VNB,A,0
0,test,2,0.0,2-Back,,,Fri Apr 11 2025 09:57:17 GMT-0400 (Eastern Daylight Time),599497.6999998093,071_y_f_n_a.png,I,space,3238,2,1,2099.8999996185303,597397.8000001907,9011,VNB,A,0
1,test,2,1.0,2-Back,1,z,Fri Apr 11 2025 09:57:17 GMT-0400 (Eastern Daylight Time),609914.3000001907,124_o_f_h_a.png,I,z,973,3,1,1987.0,607927.3000001907,9011,VNB,A,1
2,test,2,0.0,2-Back,1,m,Fri Apr 11 2025 09:57:17 GMT-0400 (Eastern Daylight Time),612347.6000003815,039_o_m_d_a.png,I,m,1405,4,1,2419.199999809265,609928.4000005722,9011,VNB,A,2
2,test,2,0.0,2-Back,0,m,Fri Apr 11 2025 09:57:17 GMT-0400 (Eastern Daylight Time),615381.0,139_m_f_d_a.png,I,None,2016,5,1,3020.0,612361.0,9011,VNB,A,3
3,test,2,0.0,2-Back,1,m,Fri Apr 11 2025 09:57:17 GMT-0400 (Eastern Daylight Time),617797.6999998093,109_y_m_h_a.png,I,m,1395,6,1,2402.7999992370605,615394.9000005722,9011,VNB,A,4
4,test,2,0.0,2-Back,1,m,Fri Apr 11 2025 09:57:17 GMT-0400 (Eastern Daylight Time),619764.1000003815,124_o_f_n_a.png,I,m,946,7,1,1952.9000005722046,617811.1999998093,9011,VNB,A,5
5,test,2,1.0,2-Back,1,z,Fri Apr 11 2025 09:57:17 GMT-0400 (Eastern Daylight Time),621764.1000003815,039_o_m_h_a.png,I,z,979,8,1,1986.5,619777.6000003815,9011,VNB,A,6
6,test,2,0.0,2-Back,1,m,Fri Apr 11 2025 09:57:17 GMT-0400 (Eastern Daylight Time),624330.9000005722,071_y_f_d_a.png,I,m,1539,9,1,2553.6000003814697,621777.3000001907,9011,VNB,A,7
7,test,2,0.0,2-Back,1,m,Fri Apr 11 2025 09:57:17 GMT-0400 (Eastern Daylight Time),626897.4000005722,109_y_m_d_a.png,I,m,1532,10,1,2553.2000007629395,624344.1999998093,9011,VNB,A,8
8,test,2,0.0,2-Back,1,m,Fri Apr 11 2025 09:57:17 GMT-0400 (Eastern Daylight Time),629080.8000001907,165_m_m_n_a.png,I,m,1158,11,1,2169.3999996185303,626911.4000005722,9011,VNB,A,9
9,test,2,0.0,2-Back,1,m,Fri Apr 11 2025 09:57:17 GMT-0400 (Eastern Daylight Time),631480.9000005722,139_m_f_h_a.png,I,m,1375,12,1,2386.800000190735,629094.1000003815,9011,VNB,A,10
10,test,2,1.0,2-Back,1,z,Fri Apr 11 2025 09:57:17 GMT-0400 (Eastern Daylight Time),633181.0,039_o_m_n_a.png,I,z,670,13,1,1687.1999998092651,631493.8000001907,9011,VNB,A,11
11,test,2,0.0,2-Back,1,m,Fri Apr 11 2025 09:57:17 GMT-0400 (Eastern Daylight Time),635364.1000003815,124_o_f_d_a.png,I,m,1162,14,1,2169.6000003814697,633194.5,9011,VNB,A,12
12,test,2,0.0,2-Back,1,m,Fri Apr 11 2025 09:57:17 GMT-0400 (Eastern Daylight Time),638230.9000005722,071_y_f_h_a.png,I,m,1843,15,1,2853.0,635377.9000005722,9011,VNB,A,13
12,test,2,0.0,2-Back,0,z,Fri Apr 11 2025 09:57:17 GMT-0400 (Eastern Daylight Time),640514.3000001907,165_m_m_d_a.png,I,m,1265,16,1,2269.800000190735,638244.5,9011,VNB,A,14
13,test,2,0.0,2-Back,1,m,Fri Apr 11 2025 09:57:17 GMT-0400 (Eastern Daylight Time),642913.8000001907,109_y_m_n_a.png,I,m,1381,17,1,2385.3999996185303,640528.4000005722,9011,VNB,A,15
14,test,2,1.0,2-Back,1,m,Fri Apr 11 2025 09:57:17 GMT-0400 (Eastern Daylight Time),645264.4000005722,139_m_f_n_a.png,I,m,1318,18,1,2337.0,642927.4000005722,9011,VNB,A,16
0,test,3,1.0,2-Back,,,Fri Apr 11 2025 09:57:17 GMT-0400 (Eastern Daylight Time),645264.4000005722,039_o_m_n_a.png,I,space,2591,1,1,2337.0,642927.4000005722,9011,VNB,A,0
0,test,3,1.0,2-Back,,,Fri Apr 11 2025 09:57:17 GMT-0400 (Eastern Daylight Time),645264.4000005722,124_o_f_d_a.png,I,space,2591,2,1,2337.0,642927.4000005722,9011,VNB,A,0
0,test,3,0.0,2-Back,0,m,Fri Apr 11 2025 09:57:17 GMT-0400 (Eastern Daylight Time),655414.1999998093,071_y_f_h_a.png,I,z,1327,3,1,2336.5,653077.6999998093,9011,VNB,A,1
1,test,3,0.0,2-Back,1,z,Fri Apr 11 2025 09:57:17 GMT-0400 (Eastern Daylight Time),657447.5,139_m_f_d_a.png,I,z,1008,4,1,2020.5,655427.0,9011,VNB,A,2
2,test,3,1.0,2-Back,1,m,Fri Apr 11 2025 09:57:17 GMT-0400 (Eastern Daylight Time),659330.4000005722,109_y_m_n_a.png,I,m,863,5,1,1869.0,657461.4000005722,9011,VNB,A,3
3,test,3,0.0,2-Back,1,m,Fri Apr 11 2025 09:57:17 GMT-0400 (Eastern Daylight Time),661864.1999998093,039_o_m_h_a.png,I,m,1508,6,1,2523.5,659340.6999998093,9011,VNB,A,4
3,test,3,0.0,2-Back,0,z,Fri Apr 11 2025 09:57:17 GMT-0400 (Eastern Daylight Time),664897.6000003815,071_y_f_n_a.png,I,None,2015,7,1,3018.4000005722046,661879.1999998093,9011,VNB,A,5
3,test,3,1.0,2-Back,0,m,Fri Apr 11 2025 09:57:17 GMT-0400 (Eastern Daylight Time),667631.0,165_m_m_d_a.png,I,z,1704,8,1,2719.699999809265,664911.3000001907,9011,VNB,A,6
4,test,3,0.0,2-Back,1,m,Fri Apr 11 2025 09:57:17 GMT-0400 (Eastern Daylight Time),669964.3000001907,109_y_m_d_a.png,I,m,1304,9,1,2318.3999996185303,667645.9000005722,9011,VNB,A,7
4,test,3,0.0,2-Back,0,m,Fri Apr 11 2025 09:57:17 GMT-0400 (Eastern Daylight Time),672697.4000005722,124_o_f_h_a.png,I,z,1707,10,1,2719.1000003814697,669978.3000001907,9011,VNB,A,8
5,test,3,1.0,2-Back,1,m,Fri Apr 11 2025 09:57:17 GMT-0400 (Eastern Daylight Time),674814.0,139_m_f_n_a.png,I,m,1086,11,1,2102.300000190735,672711.6999998093,9011,VNB,A,9
6,test,3,1.0,2-Back,1,z,Fri Apr 11 2025 09:57:17 GMT-0400 (Eastern Daylight Time),676864.1999998093,165_m_m_h_a.png,I,z,1017,12,1,2036.0,674828.1999998093,9011,VNB,A,10
7,test,3,0.0,2-Back,1,m,Fri Apr 11 2025 09:57:17 GMT-0400 (Eastern Daylight Time),679497.6000003815,071_y_f_d_a.png,I,m,1607,13,1,2620.9000005722046,676876.6999998093,9011,VNB,A,11
7,test,3,0.0,2-Back,0,m,Fri Apr 11 2025 09:57:17 GMT-0400 (Eastern Daylight Time),681730.5,124_o_f_n_a.png,I,z,1214,14,1,2219.5,679511.0,9011,VNB,A,12
7,test,3,0.0,2-Back,0,z,Fri Apr 11 2025 09:57:17 GMT-0400 (Eastern Daylight Time),684530.1999998093,039_o_m_d_a.png,I,m,1779,15,1,2786.2999992370605,681743.9000005722,9011,VNB,A,13
7,test,3,1.0,2-Back,0,m,Fri Apr 11 2025 09:57:17 GMT-0400 (Eastern Daylight Time),686547.5,139_m_f_h_a.png,I,z,998,16,1,2006.6999998092651,684540.8000001907,9011,VNB,A,14
7,test,3,0.0,2-Back,0,m,Fri Apr 11 2025 09:57:17 GMT-0400 (Eastern Daylight Time),688780.8000001907,165_m_m_n_a.png,I,z,1204,17,1,2218.699999809265,686562.1000003815,9011,VNB,A,15
8,test,3,0.0,2-Back,1,z,Fri Apr 11 2025 09:57:17 GMT-0400 (Eastern Daylight Time),690897.3000001907,109_y_m_h_a.png,I,z,1082,18,1,2102.800000190735,688794.5,9011,VNB,A,16
0,test,4,0.0,2-Back,,,Fri Apr 11 2025 09:57:17 GMT-0400 (Eastern Daylight Time),690897.3000001907,139_m_f_n_a.png,I,space,1518,1,1,2102.800000190735,688794.5,9011,VNB,A,0
0,test,4,0.0,2-Back,,,Fri Apr 11 2025 09:57:17 GMT-0400 (Eastern Daylight Time),690897.3000001907,039_o_m_n_a.png,I,space,1518,2,1,2102.800000190735,688794.5,9011,VNB,A,0
1,test,4,1.0,2-Back,1,m,Fri Apr 11 2025 09:57:17 GMT-0400 (Eastern Daylight Time),699564.0,109_y_m_h_a.png,I,m,954,3,1,1969.3000001907349,697594.6999998093,9011,VNB,A,1
2,test,4,1.0,2-Back,1,m,Fri Apr 11 2025 09:57:17 GMT-0400 (Eastern Daylight Time),701814.1000003815,124_o_f_d_a.png,I,m,1227,4,1,2236.1000003814697,699578.0,9011,VNB,A,2
3,test,4,0.0,2-Back,1,z,Fri Apr 11 2025 09:57:17 GMT-0400 (Eastern Daylight Time),704180.9000005722,039_o_m_h_a.png,I,z,1345,5,1,2354.0,701826.9000005722,9011,VNB,A,3
4,test,4,0.0,2-Back,1,m,Fri Apr 11 2025 09:57:17 GMT-0400 (Eastern Daylight Time),706614.1999998093,165_m_m_n_a.png,I,m,1410,6,1,2420.3999996185303,704193.8000001907,9011,VNB,A,4
4,test,4,0.0,2-Back,0,m,Fri Apr 11 2025 09:57:17 GMT-0400 (Eastern Daylight Time),709364.0,139_m_f_d_a.png,I,z,1729,7,1,2736.699999809265,706627.3000001907,9011,VNB,A,5
5,test,4,0.0,2-Back,1,z,Fri Apr 11 2025 09:57:17 GMT-0400 (Eastern Daylight Time),711697.4000005722,071_y_f_n_a.png,I,z,1299,8,1,2320.4000005722046,709377.0,9011,VNB,A,6
5,test,4,1.0,2-Back,0,m,Fri Apr 11 2025 09:57:17 GMT-0400 (Eastern Daylight Time),714731.0,124_o_f_h_a.png,I,None,2017,9,1,3020.3999996185303,711710.6000003815,9011,VNB,A,7
6,test,4,0.0,2-Back,1,m,Fri Apr 11 2025 09:57:17 GMT-0400 (Eastern Daylight Time),717316.1000003815,165_m_m_h_a.png,I,m,1566,10,1,2571.5,714744.6000003815,9011,VNB,A,8
7,test,4,0.0,2-Back,1,m,Fri Apr 11 2025 09:57:17 GMT-0400 (Eastern Daylight Time),720214.0,071_y_f_d_a.png,I,m,1860,11,1,2883.3999996185303,717330.6000003815,9011,VNB,A,9
7,test,4,0.0,2-Back,0,m,Fri Apr 11 2025 09:57:17 GMT-0400 (Eastern Daylight Time),723247.3000001907,109_y_m_n_a.png,I,None,2015,12,1,3020.3999996185303,720226.9000005722,9011,VNB,A,10
7,test,4,0.0,2-Back,0,z,Fri Apr 11 2025 09:57:17 GMT-0400 (Eastern Daylight Time),725697.9000005722,039_o_m_d_a.png,I,m,1432,13,1,2436.5,723261.4000005722,9011,VNB,A,11
8,test,4,1.0,2-Back,1,m,Fri Apr 11 2025 09:57:17 GMT-0400 (Eastern Daylight Time),728380.8000001907,139_m_f_h_a.png,I,m,1654,14,1,2671.199999809265,725709.6000003815,9011,VNB,A,12
9,test,4,1.0,2-Back,1,m,Fri Apr 11 2025 09:57:17 GMT-0400 (Eastern Daylight Time),730580.6999998093,071_y_f_h_a.png,I,m,1179,15,1,2186.2999992370605,728394.4000005722,9011,VNB,A,13
9,test,4,0.0,2-Back,0,m,Fri Apr 11 2025 09:57:17 GMT-0400 (Eastern Daylight Time),733614.1000003815,124_o_f_n_a.png,I,None,2016,16,1,3020.199999809265,730593.9000005722,9011,VNB,A,14
9,test,4,0.0,2-Back,0,m,Fri Apr 11 2025 09:57:17 GMT-0400 (Eastern Daylight Time),736280.8000001907,109_y_m_d_a.png,I,z,1641,17,1,2653.800000190735,733627.0,9011,VNB,A,15
10,test,4,1.0,2-Back,1,m,Fri Apr 11 2025 09:57:17 GMT-0400 (Eastern Daylight Time),738447.4000005722,165_m_m_d_a.png,I,m,1134,18,1,2152.9000005722046,736294.5,9011,VNB,A,16
0,test,5,1.0,2-Back,,,Fri Apr 11 2025 09:57:17 GMT-0400 (Eastern Daylight Time),738447.4000005722,071_y_f_d_a.png,I,space,4512,1,1,2152.9000005722046,736294.5,9011,VNB,A,0
0,test,5,1.0,2-Back,,,Fri Apr 11 2025 09:57:17 GMT-0400 (Eastern Daylight Time),738447.4000005722,124_o_f_h_a.png,I,space,4512,2,1,2152.9000005722046,736294.5,9011,VNB,A,0
1,test,5,1.0,2-Back,1,z,Fri Apr 11 2025 09:57:17 GMT-0400 (Eastern Daylight Time),750313.9000005722,039_o_m_d_a.png,I,z,1207,3,1,2220.300000190735,748093.6000003815,9011,VNB,A,1
2,test,5,1.0,2-Back,1,m,Fri Apr 11 2025 09:57:17 GMT-0400 (Eastern Daylight Time),752297.4000005722,139_m_f_n_a.png,I,m,957,4,1,1968.9000005722046,750328.5,9011,VNB,A,2
2,test,5,0.0,2-Back,0,m,Fri Apr 11 2025 09:57:17 GMT-0400 (Eastern Daylight Time),755330.5,165_m_m_h_a.png,I,None,2016,5,1,3020.300000190735,752310.1999998093,9011,VNB,A,3
2,test,5,0.0,2-Back,0,z,Fri Apr 11 2025 09:57:17 GMT-0400 (Eastern Daylight Time),757830.6000003815,071_y_f_n_a.png,I,m,1477,6,1,2489.6000003814697,755341.0,9011,VNB,A,4
2,test,5,0.0,2-Back,0,m,Fri Apr 11 2025 09:57:17 GMT-0400 (Eastern Daylight Time),760280.6999998093,124_o_f_d_a.png,I,z,1425,7,1,2436.5,757844.1999998093,9011,VNB,A,5
3,test,5,0.0,2-Back,1,m,Fri Apr 11 2025 09:57:17 GMT-0400 (Eastern Daylight Time),762680.6999998093,039_o_m_h_a.png,I,m,1375,8,1,2386.8999996185303,760293.8000001907,9011,VNB,A,6
4,test,5,1.0,2-Back,1,z,Fri Apr 11 2025 09:57:17 GMT-0400 (Eastern Daylight Time),764647.3000001907,139_m_f_d_a.png,I,z,943,9,1,1952.3000001907349,762695.0,9011,VNB,A,7
5,test,5,0.0,2-Back,1,m,Fri Apr 11 2025 09:57:17 GMT-0400 (Eastern Daylight Time),766563.9000005722,109_y_m_n_a.png,I,m,896,10,1,1903.0,764660.9000005722,9011,VNB,A,8
6,test,5,0.0,2-Back,1,m,Fri Apr 11 2025 09:57:17 GMT-0400 (Eastern Daylight Time),769297.6000003815,165_m_m_n_a.png,I,m,1715,11,1,2720.0,766577.6000003815,9011,VNB,A,9
7,test,5,0.0,2-Back,1,m,Fri Apr 11 2025 09:57:17 GMT-0400 (Eastern Daylight Time),771830.6999998093,071_y_f_h_a.png,I,m,1510,12,1,2521.5,769309.1999998093,9011,VNB,A,10
8,test,5,0.0,2-Back,1,m,Fri Apr 11 2025 09:57:17 GMT-0400 (Eastern Daylight Time),773930.6999998093,109_y_m_d_a.png,I,m,1073,13,1,2086.8999996185303,771843.8000001907,9011,VNB,A,11
9,test,5,1.0,2-Back,1,z,Fri Apr 11 2025 09:57:17 GMT-0400 (Eastern Daylight Time),776697.3000001907,139_m_f_h_a.png,I,z,1740,14,1,2753.199999809265,773944.1000003815,9011,VNB,A,12
10,test,5,0.0,2-Back,1,m,Fri Apr 11 2025 09:57:17 GMT-0400 (Eastern Daylight Time),779213.9000005722,039_o_m_n_a.png,I,m,1486,15,1,2503.6000003814697,776710.3000001907,9011,VNB,A,13
11,test,5,0.0,2-Back,1,m,Fri Apr 11 2025 09:57:17 GMT-0400 (Eastern Daylight Time),781697.4000005722,165_m_m_d_a.png,I,m,1449,16,1,2470.6000003814697,779226.8000001907,9011,VNB,A,14
12,test,5,0.0,2-Back,1,z,Fri Apr 11 2025 09:57:17 GMT-0400 (Eastern Daylight Time),784497.9000005722,124_o_f_n_a.png,I,z,1782,17,1,2786.5,781711.4000005722,9011,VNB,A,15
13,test,5,1.0,2-Back,1,m,Fri Apr 11 2025 09:57:17 GMT-0400 (Eastern Daylight Time),786497.5,109_y_m_h_a.png,I,m,982,18,1,1985.5,784512.0,9011,VNB,A,16
