Q,Q1,Q2,Q3,Q4,acc_sum,block,block_c,correct,correct_response,datetime,endtime,project,response,response_time,row_sel,session_number,squiggle1,squiggle1x,squiggle1y,squiggle2,squiggle2x,squiggle2y,squiggle3,squiggle3x,squiggle3y,squiggle4,squiggle4x,squiggle4y,start_end,starttime,subject_id,target_congruent,task,task_vers,testsquiggle,testsquigglex,testsquiggley,time_practice_delay,time_practice_fixation,time_practice_stimuli,time_practice_study,time_test_delay,time_test_fixation,time_test_stimuli,time_test_study,trial
1,1,0,0,0,1,prac,1,1,z,Thu Mar 27 2025 10:35:00 GMT-0500 (Central Daylight Time),125127.69999999553,O,z,1309,1,1,116.bmp,-120,-120,117.bmp,120,-120,118.bmp,-120,120,119.bmp,120,120,10126.60000000149,115001.09999999404,7102,yes,SM,A,116.bmp,-120,-120,111744,105716,113761,107730,,,,,1
3,0,0,1,0,1,prac,1,0,m,Thu Mar 27 2025 10:35:00 GMT-0500 (Central Daylight Time),135407.8999999985,O,z,1451,2,1,120.bmp,-120,-120,121.bmp,120,-120,122.bmp,-120,120,123.bmp,120,120,10276.10000000149,125131.79999999702,7102,no,SM,A,123.bmp,-120,120,121874,115847,123891,117859,,,,,2
4,0,0,0,1,2,prac,1,1,m,Thu Mar 27 2025 10:35:00 GMT-0500 (Central Daylight Time),145771.5,O,m,1539,3,1,124.bmp,-120,-120,125.bmp,120,-120,126.bmp,-120,120,127.bmp,120,120,10359.80000000447,135411.69999999553,7102,no,SM,A,124.bmp,120,120,132155,126127,134171,128139,,,,,3
2,0,1,0,0,3,prac,1,1,z,Thu Mar 27 2025 10:35:00 GMT-0500 (Central Daylight Time),155818.19999999553,O,z,1224,4,1,128.bmp,-120,-120,129.bmp,120,-120,130.bmp,-120,120,131.bmp,120,120,10042.60000000149,145775.59999999404,7102,yes,SM,A,129.bmp,120,-120,142518,136491,144534,138503,,,,,4
3,0,0,1,0,4,prac,1,1,z,Thu Mar 27 2025 10:35:00 GMT-0500 (Central Daylight Time),165598.3999999985,O,z,961,5,1,132.bmp,-120,-120,133.bmp,120,-120,134.bmp,-120,120,135.bmp,120,120,9776.60000000149,155821.79999999702,7102,yes,SM,A,134.bmp,-120,120,152565,146537,154581,148550,,,,,5
1,1,0,0,0,5,prac,1,1,m,Thu Mar 27 2025 10:35:00 GMT-0500 (Central Daylight Time),175878.3999999985,O,m,1461,6,1,136.bmp,-120,-120,137.bmp,120,-120,138.bmp,-120,120,139.bmp,120,120,10276.30000000447,165602.09999999404,7102,no,SM,A,139.bmp,-120,-120,162345,156317,164361,158330,,,,,6
2,0,1,0,0,6,prac,1,1,m,Thu Mar 27 2025 10:35:00 GMT-0500 (Central Daylight Time),185875.5,O,m,1181,7,1,140.bmp,-120,-120,141.bmp,120,-120,142.bmp,-120,120,143.bmp,120,120,9993.30000000447,175882.19999999553,7102,no,SM,A,140.bmp,120,-120,172625,166598,174641,168610,,,,,7
4,0,0,0,1,7,prac,1,1,z,Thu Mar 27 2025 10:35:00 GMT-0500 (Central Daylight Time),196122.19999999553,O,z,1432,8,1,144.bmp,-120,-120,145.bmp,120,-120,146.bmp,-120,120,147.bmp,120,120,10241.5,185880.69999999553,7102,yes,SM,A,147.bmp,120,120,182622,176596,184638,178607,,,,,8
4,0,0,0,1,1,test,1,1,m,Thu Mar 27 2025 10:35:00 GMT-0500 (Central Daylight Time),214433.09999999404,O,m,1226,1,1,148.bmp,-120,-120,149.bmp,120,-120,150.bmp,-120,120,143.bmp,120,120,9277.79999999702,205155.29999999702,7102,no,SM,A,150.bmp,120,120,182622,176596,184638,178607,201899.0,195871.0,203916.0,197884.0,1
2,0,1,0,0,2,test,1,1,m,Thu Mar 27 2025 10:35:00 GMT-0500 (Central Daylight Time),224147.29999999702,O,m,1666,2,1,101.bmp,-120,-120,102.bmp,120,-120,103.bmp,-120,120,104.bmp,120,120,9710.5,214436.79999999702,7102,no,SM,A,103.bmp,120,-120,182622,176596,184638,178607,211180.0,205152.0,213196.0,207165.0,2
1,1,0,0,0,3,test,1,1,z,Thu Mar 27 2025 10:35:00 GMT-0500 (Central Daylight Time),233343.69999999553,O,z,1136,3,1,105.bmp,-120,-120,106.bmp,120,-120,107.bmp,-120,120,108.bmp,120,120,9193.39999999851,224150.29999999702,7102,yes,SM,A,105.bmp,-120,-120,182622,176596,184638,178607,220893.0,214865.0,222910.0,216878.0,3
3,0,0,1,0,3,test,1,0,m,Thu Mar 27 2025 10:35:00 GMT-0500 (Central Daylight Time),243224.09999999404,O,z,1827,4,1,109.bmp,-120,-120,110.bmp,120,-120,111.bmp,-120,120,112.bmp,120,120,9875.79999999702,233348.29999999702,7102,no,SM,A,109.bmp,-120,120,182622,176596,184638,178607,230090.0,224064.0,232107.0,226075.0,4
2,0,1,0,0,3,test,1,0,z,Thu Mar 27 2025 10:35:00 GMT-0500 (Central Daylight Time),252371.29999999702,O,m,1081,5,1,113.bmp,-120,-120,114.bmp,120,-120,115.bmp,-120,120,116.bmp,120,120,9143.89999999851,243227.3999999985,7102,yes,SM,A,114.bmp,120,-120,182622,176596,184638,178607,239971.0,233943.0,241989.0,235956.0,5
3,0,0,1,0,4,test,1,1,z,Thu Mar 27 2025 10:35:00 GMT-0500 (Central Daylight Time),262068.19999999553,O,z,1648,6,1,117.bmp,-120,-120,118.bmp,120,-120,119.bmp,-120,120,120.bmp,120,120,9693.69999999553,252374.5,7102,yes,SM,A,119.bmp,-120,120,182622,176596,184638,178607,249118.0,243090.0,251134.0,245103.0,6
4,0,0,0,1,5,test,1,1,z,Thu Mar 27 2025 10:35:00 GMT-0500 (Central Daylight Time),271248.69999999553,O,z,1119,7,1,121.bmp,-120,-120,122.bmp,120,-120,123.bmp,-120,120,124.bmp,120,120,9177.0,262071.69999999553,7102,yes,SM,A,124.bmp,120,120,182622,176596,184638,178607,258815.0,252787.0,260831.0,254800.0,7
2,0,1,0,0,6,test,1,1,m,Thu Mar 27 2025 10:35:00 GMT-0500 (Central Daylight Time),280862.19999999553,O,m,1554,8,1,125.bmp,-120,-120,126.bmp,120,-120,127.bmp,-120,120,128.bmp,120,120,9610.10000000149,271252.09999999404,7102,no,SM,A,125.bmp,120,-120,182622,176596,184638,178607,267995.0,261967.0,270012.0,263980.0,8
3,0,0,1,0,6,test,1,0,m,Thu Mar 27 2025 10:35:00 GMT-0500 (Central Daylight Time),290459.09999999404,O,z,1549,9,1,129.bmp,-120,-120,130.bmp,120,-120,131.bmp,-120,120,132.bmp,120,120,9593.5,280865.59999999404,7102,no,SM,A,130.bmp,-120,120,182622,176596,184638,178607,277609.0,271581.0,279625.0,273594.0,9
4,0,0,0,1,6,test,1,0,z,Thu Mar 27 2025 10:35:00 GMT-0500 (Central Daylight Time),300256.19999999553,O,m,1736,10,1,137.bmp,-120,-120,138.bmp,120,-120,139.bmp,-120,120,140.bmp,120,120,9792.69999999553,290463.5,7102,yes,SM,A,140.bmp,120,120,182622,176596,184638,178607,287206.0,281179.0,289222.0,283191.0,10
3,0,0,1,0,7,test,1,1,z,Thu Mar 27 2025 10:35:00 GMT-0500 (Central Daylight Time),309570.0,O,z,1259,11,1,133.bmp,-120,-120,134.bmp,120,-120,135.bmp,-120,120,136.bmp,120,120,9310.30000000447,300259.69999999553,7102,yes,SM,A,135.bmp,-120,120,182622,176596,184638,178607,297003.0,290975.0,299019.0,292987.0,11
2,0,1,0,0,8,test,1,1,m,Thu Mar 27 2025 10:35:00 GMT-0500 (Central Daylight Time),318867.0,O,m,1241,12,1,141.bmp,-120,-120,142.bmp,120,-120,143.bmp,-120,120,144.bmp,120,120,9293.5,309573.5,7102,no,SM,A,141.bmp,120,-120,182622,176596,184638,178607,306316.0,300289.0,308333.0,302301.0,12
3,0,0,1,0,9,test,1,1,m,Thu Mar 27 2025 10:35:00 GMT-0500 (Central Daylight Time),328030.799999997,O,m,1112,13,1,145.bmp,-120,-120,146.bmp,120,-120,147.bmp,-120,120,148.bmp,120,120,9160.10000000149,318870.69999999553,7102,no,SM,A,146.bmp,-120,120,182622,176596,184638,178607,315614.0,309586.0,317630.0,311599.0,13
1,1,0,0,0,9,test,1,0,z,Thu Mar 27 2025 10:35:00 GMT-0500 (Central Daylight Time),337661.0,O,m,1572,14,1,149.bmp,-120,-120,150.bmp,120,-120,104.bmp,-120,120,101.bmp,120,120,9626.40000000596,328034.59999999404,7102,yes,SM,A,149.bmp,-120,-120,182622,176596,184638,178607,324777.0,318750.0,326794.0,320762.0,14
4,0,0,0,1,10,test,1,1,m,Thu Mar 27 2025 10:35:00 GMT-0500 (Central Daylight Time),347074.8999999985,O,m,1350,15,1,110.bmp,-120,-120,111.bmp,120,-120,112.bmp,-120,120,113.bmp,120,120,9410.20000000298,337664.69999999553,7102,no,SM,A,111.bmp,120,120,182622,176596,184638,178607,334408.0,328380.0,336424.0,330393.0,15
1,1,0,0,0,11,test,1,1,m,Thu Mar 27 2025 10:35:00 GMT-0500 (Central Daylight Time),356455.19999999553,O,m,1328,16,1,102.bmp,-120,-120,103.bmp,120,-120,104.bmp,-120,120,105.bmp,120,120,9376.69999999553,347078.5,7102,no,SM,A,105.bmp,-120,-120,182622,176596,184638,178607,343821.0,337794.0,345838.0,339806.0,16
3,0,0,1,0,12,test,1,1,m,Thu Mar 27 2025 10:35:00 GMT-0500 (Central Daylight Time),365918.8999999985,O,m,1412,17,1,122.bmp,-120,-120,123.bmp,120,-120,124.bmp,-120,120,125.bmp,120,120,9460.30000000447,356458.59999999404,7102,no,SM,A,122.bmp,-120,120,182622,176596,184638,178607,353202.0,347174.0,355218.0,349187.0,17
1,1,0,0,0,13,test,1,1,z,Thu Mar 27 2025 10:35:00 GMT-0500 (Central Daylight Time),375216.09999999404,O,z,1236,18,1,106.bmp,-120,-120,107.bmp,120,-120,108.bmp,-120,120,109.bmp,120,120,9293.89999999851,365922.19999999553,7102,yes,SM,A,106.bmp,-120,-120,182622,176596,184638,178607,362665.0,356638.0,364682.0,358651.0,18
2,0,1,0,0,14,test,1,1,z,Thu Mar 27 2025 10:35:00 GMT-0500 (Central Daylight Time),384796.5,O,z,1523,19,1,126.bmp,-120,-120,127.bmp,120,-120,128.bmp,-120,120,129.bmp,120,120,9577.0,375219.5,7102,yes,SM,A,127.bmp,120,-120,182622,176596,184638,178607,371963.0,365935.0,373979.0,367948.0,19
3,0,0,1,0,14,test,1,0,z,Thu Mar 27 2025 10:35:00 GMT-0500 (Central Daylight Time),394860.09999999404,O,None,2016,20,1,130.bmp,-120,-120,131.bmp,120,-120,132.bmp,-120,120,133.bmp,120,120,10059.29999999702,384800.799999997,7102,yes,SM,A,132.bmp,-120,120,182622,176596,184638,178607,381543.0,375516.0,383559.0,377528.0,20
1,1,0,0,0,15,test,1,1,m,Thu Mar 27 2025 10:35:00 GMT-0500 (Central Daylight Time),404324.19999999553,O,m,1415,21,1,114.bmp,-120,-120,115.bmp,120,-120,116.bmp,-120,120,117.bmp,120,120,9460.89999999851,394863.299999997,7102,no,SM,A,116.bmp,-120,-120,182622,176596,184638,178607,391607.0,385579.0,393623.0,387591.0,21
4,0,0,0,1,16,test,1,1,z,Thu Mar 27 2025 10:35:00 GMT-0500 (Central Daylight Time),413637.5,O,z,1255,22,1,118.bmp,-120,-120,119.bmp,120,-120,120.bmp,-120,120,121.bmp,120,120,9310.10000000149,404327.3999999985,7102,yes,SM,A,121.bmp,120,120,182622,176596,184638,178607,401070.0,395043.0,403087.0,397055.0,22
1,1,0,0,0,17,test,1,1,m,Thu Mar 27 2025 10:35:00 GMT-0500 (Central Daylight Time),423017.69999999553,O,m,1326,23,1,134.bmp,-120,-120,135.bmp,120,-120,136.bmp,-120,120,137.bmp,120,120,9376.60000000149,413641.09999999404,7102,no,SM,A,137.bmp,-120,-120,182622,176596,184638,178607,410384.0,404356.0,412400.0,406369.0,23
2,0,1,0,0,17,test,1,0,z,Thu Mar 27 2025 10:35:00 GMT-0500 (Central Daylight Time),432131.799999997,O,m,1065,24,1,142.bmp,-120,-120,143.bmp,120,-120,144.bmp,-120,120,145.bmp,120,120,9111.0,423020.799999997,7102,yes,SM,A,143.bmp,120,-120,182622,176596,184638,178607,419764.0,413736.0,421781.0,415749.0,24
4,0,0,0,1,18,test,1,1,m,Thu Mar 27 2025 10:35:00 GMT-0500 (Central Daylight Time),441362.19999999553,O,m,1176,25,1,146.bmp,-120,-120,147.bmp,120,-120,148.bmp,-120,120,149.bmp,120,120,9226.89999999851,432135.299999997,7102,no,SM,A,148.bmp,120,120,182622,176596,184638,178607,428878.0,422850.0,430894.0,424863.0,25
1,1,0,0,0,19,test,1,1,z,Thu Mar 27 2025 10:35:00 GMT-0500 (Central Daylight Time),451092.19999999553,O,z,1681,26,1,138.bmp,-120,-120,139.bmp,120,-120,140.bmp,-120,120,141.bmp,120,120,9726.60000000149,441365.59999999404,7102,yes,SM,A,138.bmp,-120,-120,182622,176596,184638,178607,438109.0,432081.0,440125.0,434094.0,26
4,0,0,0,1,20,test,1,1,z,Thu Mar 27 2025 10:35:00 GMT-0500 (Central Daylight Time),460306.09999999404,O,z,1159,27,1,150.bmp,-120,-120,111.bmp,120,-120,101.bmp,-120,120,102.bmp,120,120,9210.0,451096.09999999404,7102,yes,SM,A,102.bmp,120,120,182622,176596,184638,178607,447839.0,441811.0,449855.0,443824.0,27
3,0,0,1,0,21,test,1,1,m,Thu Mar 27 2025 10:35:00 GMT-0500 (Central Daylight Time),470136.3999999985,O,m,1777,28,1,103.bmp,-120,-120,104.bmp,120,-120,105.bmp,-120,120,106.bmp,120,120,9827.0,460309.3999999985,7102,no,SM,A,103.bmp,-120,120,182622,176596,184638,178607,457053.0,451025.0,459069.0,453038.0,28
2,0,1,0,0,22,test,1,1,z,Thu Mar 27 2025 10:35:00 GMT-0500 (Central Daylight Time),479183.3999999985,O,z,995,29,1,107.bmp,-120,-120,108.bmp,120,-120,109.bmp,-120,120,110.bmp,120,120,9042.80000000447,470140.59999999404,7102,yes,SM,A,108.bmp,120,-120,182622,176596,184638,178607,466883.0,460856.0,468899.0,462868.0,29
3,0,0,1,0,23,test,1,1,z,Thu Mar 27 2025 10:35:00 GMT-0500 (Central Daylight Time),488880.5,O,z,1644,30,1,111.bmp,-120,-120,112.bmp,120,-120,113.bmp,-120,120,114.bmp,120,120,9693.5,479187.0,7102,yes,SM,A,113.bmp,-120,120,182622,176596,184638,178607,475930.0,469902.0,477946.0,471915.0,30
1,1,0,0,0,24,test,1,1,z,Thu Mar 27 2025 10:35:00 GMT-0500 (Central Daylight Time),498494.19999999553,O,z,1563,31,1,115.bmp,-120,-120,116.bmp,120,-120,117.bmp,-120,120,118.bmp,120,120,9610.5,488883.69999999553,7102,yes,SM,A,115.bmp,-120,-120,182622,176596,184638,178607,485627.0,479599.0,487643.0,481612.0,31
2,0,1,0,0,25,test,1,1,m,Thu Mar 27 2025 10:35:00 GMT-0500 (Central Daylight Time),508291.299999997,O,m,1741,32,1,119.bmp,-120,-120,120.bmp,120,-120,121.bmp,-120,120,122.bmp,120,120,9793.5,498497.799999997,7102,no,SM,A,119.bmp,120,-120,182622,176596,184638,178607,495241.0,489213.0,497257.0,491225.0,32
4,0,0,0,1,26,test,1,1,z,Thu Mar 27 2025 10:35:00 GMT-0500 (Central Daylight Time),517721.59999999404,O,z,1376,33,1,131.bmp,-120,-120,132.bmp,120,-120,133.bmp,-120,120,134.bmp,120,120,9426.59999999404,508295.0,7102,yes,SM,A,134.bmp,120,120,182622,176596,184638,178607,505038.0,499010.0,507054.0,501022.0,33
2,0,1,0,0,27,test,1,1,z,Thu Mar 27 2025 10:35:00 GMT-0500 (Central Daylight Time),526685.299999997,O,z,913,34,1,123.bmp,-120,-120,124.bmp,120,-120,125.bmp,-120,120,126.bmp,120,120,8960.0,517725.299999997,7102,yes,SM,A,124.bmp,120,-120,182622,176596,184638,178607,514468.0,508441.0,516485.0,510453.0,34
4,0,0,0,1,27,test,1,0,m,Thu Mar 27 2025 10:35:00 GMT-0500 (Central Daylight Time),536749.0,O,None,2016,35,1,127.bmp,-120,-120,128.bmp,120,-120,129.bmp,-120,120,130.bmp,120,120,10060.0,526689.0,7102,no,SM,A,129.bmp,120,120,182622,176596,184638,178607,523432.0,517404.0,525448.0,519417.0,35
3,0,0,1,0,27,test,1,0,m,Thu Mar 27 2025 10:35:00 GMT-0500 (Central Daylight Time),546412.5,O,z,1614,36,1,135.bmp,-120,-120,136.bmp,120,-120,137.bmp,-120,120,138.bmp,120,120,9659.70000000298,536752.799999997,7102,no,SM,A,135.bmp,-120,120,182622,176596,184638,178607,533495.0,527468.0,535512.0,529481.0,36
1,1,0,0,0,27,test,1,0,m,Thu Mar 27 2025 10:35:00 GMT-0500 (Central Daylight Time),555709.599999994,O,z,1247,37,1,139.bmp,-120,-120,140.bmp,120,-120,141.bmp,-120,120,142.bmp,120,120,9293.79999999702,546415.799999997,7102,no,SM,A,140.bmp,-120,-120,182622,176596,184638,178607,543159.0,537131.0,545175.0,539144.0,37
2,0,1,0,0,28,test,1,1,m,Thu Mar 27 2025 10:35:00 GMT-0500 (Central Daylight Time),565273.299999997,O,m,1502,38,1,143.bmp,-120,-120,144.bmp,120,-120,145.bmp,-120,120,146.bmp,120,120,9560.29999999702,555713.0,7102,no,SM,A,145.bmp,120,-120,182622,176596,184638,178607,552456.0,546428.0,554472.0,548441.0,38
4,0,0,0,1,28,test,1,0,z,Thu Mar 27 2025 10:35:00 GMT-0500 (Central Daylight Time),574803.5,O,m,1474,39,1,147.bmp,-120,-120,148.bmp,120,-120,149.bmp,-120,120,150.bmp,120,120,9527.0,565276.5,7102,yes,SM,A,150.bmp,120,120,182622,176596,184638,178607,562020.0,555992.0,564036.0,558005.0,39
3,0,0,1,0,29,test,1,1,m,Thu Mar 27 2025 10:35:00 GMT-0500 (Central Daylight Time),584183.8999999985,O,m,1320,40,1,104.bmp,-120,-120,105.bmp,120,-120,106.bmp,-120,120,107.bmp,120,120,9377.0,574806.8999999985,7102,no,SM,A,105.bmp,-120,120,182622,176596,184638,178607,571552.0,565522.0,573566.0,567535.0,40
1,1,0,0,0,30,test,1,1,z,Thu Mar 27 2025 10:35:00 GMT-0500 (Central Daylight Time),593531.0,O,z,1283,41,1,108.bmp,-120,-120,109.bmp,120,-120,110.bmp,-120,120,111.bmp,120,120,9344.0,584187.0,7102,yes,SM,A,108.bmp,-120,-120,182622,176596,184638,178607,580931.0,574902.0,582947.0,576916.0,41
4,0,0,0,1,30,test,1,0,z,Thu Mar 27 2025 10:35:00 GMT-0500 (Central Daylight Time),603294.8999999985,O,m,1704,42,1,112.bmp,-120,-120,113.bmp,120,-120,114.bmp,-120,120,115.bmp,120,120,9760.0,593534.8999999985,7102,yes,SM,A,115.bmp,120,120,182622,176596,184638,178607,590278.0,584250.0,592294.0,586262.0,42
1,1,0,0,0,31,test,1,1,z,Thu Mar 27 2025 10:35:00 GMT-0500 (Central Daylight Time),612242.099999994,O,z,892,43,1,116.bmp,-120,-120,117.bmp,120,-120,118.bmp,-120,120,119.bmp,120,120,8944.29999999702,603297.799999997,7102,yes,SM,A,116.bmp,-120,-120,182622,176596,184638,178607,600041.0,594013.0,602057.0,596026.0,43
4,0,0,0,1,32,test,1,1,m,Thu Mar 27 2025 10:35:00 GMT-0500 (Central Daylight Time),621622.099999994,O,m,1321,44,1,104.bmp,-120,-120,101.bmp,120,-120,102.bmp,-120,120,103.bmp,120,120,9376.19999999553,612245.8999999985,7102,no,SM,A,104.bmp,120,120,182622,176596,184638,178607,608989.0,602961.0,611005.0,604973.0,44
1,1,0,0,0,33,test,1,1,m,Thu Mar 27 2025 10:35:00 GMT-0500 (Central Daylight Time),630936.1999999955,O,m,1169,45,1,128.bmp,-120,-120,129.bmp,120,-120,130.bmp,-120,120,131.bmp,120,120,9310.79999999702,621625.3999999985,7102,no,SM,A,131.bmp,-120,-120,182622,176596,184638,178607,618451.0,612341.0,620469.0,614354.0,45
1,1,0,0,0,34,test,1,1,m,Thu Mar 27 2025 10:35:00 GMT-0500 (Central Daylight Time),640583.0,O,m,1587,46,1,120.bmp,-120,-120,121.bmp,120,-120,122.bmp,-120,120,123.bmp,120,120,9643.40000000596,630939.599999994,7102,no,SM,A,121.bmp,-120,-120,182622,176596,184638,178607,627683.0,621655.0,629699.0,623667.0,46
3,0,0,1,0,34,test,1,0,z,Thu Mar 27 2025 10:35:00 GMT-0500 (Central Daylight Time),650430.0,O,m,1788,47,1,124.bmp,-120,-120,125.bmp,120,-120,126.bmp,-120,120,127.bmp,120,120,9844.10000000149,640585.8999999985,7102,yes,SM,A,126.bmp,-120,120,182622,176596,184638,178607,637330.0,631301.0,639346.0,633314.0,47
3,0,0,1,0,34,test,1,0,z,Thu Mar 27 2025 10:35:00 GMT-0500 (Central Daylight Time),659777.1999999955,O,m,1285,48,1,140.bmp,-120,-120,141.bmp,120,-120,142.bmp,-120,120,143.bmp,120,120,9343.89999999851,650433.299999997,7102,yes,SM,A,142.bmp,-120,120,182622,176596,184638,178607,647177.0,641148.0,649193.0,643161.0,48
2,0,1,0,0,34,test,1,0,z,Thu Mar 27 2025 10:35:00 GMT-0500 (Central Daylight Time),669140.799999997,O,m,1306,49,1,136.bmp,-120,-120,137.bmp,120,-120,138.bmp,-120,120,139.bmp,120,120,9359.89999999851,659780.8999999985,7102,yes,SM,A,137.bmp,120,-120,182622,176596,184638,178607,656524.0,650496.0,658540.0,652508.0,49
3,0,0,1,0,34,test,1,0,m,Thu Mar 27 2025 10:35:00 GMT-0500 (Central Daylight Time),679204.3999999985,O,None,2015,50,1,132.bmp,-120,-120,133.bmp,120,-120,134.bmp,-120,120,135.bmp,120,120,10060.0,669144.3999999985,7102,no,SM,A,132.bmp,-120,120,182622,176596,184638,178607,665887.0,659860.0,667904.0,661873.0,50
2,0,1,0,0,34,test,1,0,z,Thu Mar 27 2025 10:35:00 GMT-0500 (Central Daylight Time),688418.099999994,O,m,1159,51,1,144.bmp,-120,-120,145.bmp,120,-120,146.bmp,-120,120,147.bmp,120,120,9210.19999999553,679207.8999999985,7102,yes,SM,A,145.bmp,120,-120,182622,176596,184638,178607,675951.0,669923.0,677967.0,671936.0,51
4,0,0,0,1,34,test,1,0,m,Thu Mar 27 2025 10:35:00 GMT-0500 (Central Daylight Time),697965.0,O,z,1497,52,1,148.bmp,-120,-120,149.bmp,120,-120,150.bmp,-120,120,131.bmp,120,120,9543.80000000447,688421.1999999955,7102,no,SM,A,148.bmp,120,120,182622,176596,184638,178607,685164.0,679136.0,687181.0,681149.0,52
3,0,0,1,0,35,test,1,1,z,Thu Mar 27 2025 10:35:00 GMT-0500 (Central Daylight Time),707112.099999994,O,z,1086,53,1,101.bmp,-120,-120,102.bmp,120,-120,103.bmp,-120,120,104.bmp,120,120,9144.09999999404,697968.0,7102,yes,SM,A,103.bmp,-120,120,182622,176596,184638,178607,694713.0,688683.0,696728.0,690696.0,53
1,1,0,0,0,36,test,1,1,m,Thu Mar 27 2025 10:35:00 GMT-0500 (Central Daylight Time),716792.599999994,O,m,1619,54,1,105.bmp,-120,-120,106.bmp,120,-120,107.bmp,-120,120,108.bmp,120,120,9677.29999999702,707115.299999997,7102,no,SM,A,107.bmp,-120,-120,182622,176596,184638,178607,703859.0,697830.0,705875.0,699844.0,54
4,0,0,0,1,36,test,1,0,z,Thu Mar 27 2025 10:35:00 GMT-0500 (Central Daylight Time),726656.0,O,m,1803,55,1,109.bmp,-120,-120,110.bmp,120,-120,111.bmp,-120,120,112.bmp,120,120,9859.80000000447,716796.1999999955,7102,yes,SM,A,112.bmp,120,120,182622,176596,184638,178607,713539.0,707511.0,715555.0,709524.0,55
2,0,1,0,0,37,test,1,1,m,Thu Mar 27 2025 10:35:00 GMT-0500 (Central Daylight Time),736319.6999999955,O,m,1603,56,1,113.bmp,-120,-120,114.bmp,120,-120,115.bmp,-120,120,116.bmp,120,120,9660.39999999851,726659.299999997,7102,no,SM,A,113.bmp,120,-120,182622,176596,184638,178607,723403.0,717375.0,725419.0,719388.0,56
4,0,0,0,1,38,test,1,1,m,Thu Mar 27 2025 10:35:00 GMT-0500 (Central Daylight Time),745433.599999994,O,m,1064,57,1,117.bmp,-120,-120,118.bmp,120,-120,119.bmp,-120,120,120.bmp,120,120,9111.0,736322.599999994,7102,no,SM,A,118.bmp,120,120,182622,176596,184638,178607,733066.0,727038.0,735082.0,729051.0,57
3,0,0,1,0,39,test,1,1,z,Thu Mar 27 2025 10:35:00 GMT-0500 (Central Daylight Time),754847.099999994,O,z,1353,58,1,121.bmp,-120,-120,122.bmp,120,-120,123.bmp,-120,120,124.bmp,120,120,9410.29999999702,745436.799999997,7102,yes,SM,A,123.bmp,-120,120,182622,176596,184638,178607,742180.0,736152.0,744197.0,738165.0,58
2,0,1,0,0,40,test,1,1,m,Thu Mar 27 2025 10:35:00 GMT-0500 (Central Daylight Time),764061.099999994,O,m,1156,59,1,125.bmp,-120,-120,126.bmp,120,-120,127.bmp,-120,120,128.bmp,120,120,9210.5,754850.599999994,7102,no,SM,A,128.bmp,120,-120,182622,176596,184638,178607,751594.0,745566.0,753610.0,747579.0,59
1,1,0,0,0,41,test,1,1,z,Thu Mar 27 2025 10:35:00 GMT-0500 (Central Daylight Time),773774.599999994,O,z,1662,60,1,129.bmp,-120,-120,130.bmp,120,-120,131.bmp,-120,120,132.bmp,120,120,9710.5,764064.099999994,7102,yes,SM,A,129.bmp,-120,-120,182622,176596,184638,178607,760808.0,754779.0,762824.0,756792.0,60
2,0,1,0,0,42,test,1,1,z,Thu Mar 27 2025 10:35:00 GMT-0500 (Central Daylight Time),783738.3999999985,O,z,1900,61,1,133.bmp,-120,-120,134.bmp,120,-120,135.bmp,-120,120,136.bmp,120,120,9960.70000000298,773777.6999999955,7102,yes,SM,A,134.bmp,120,-120,182622,176596,184638,178607,770521.0,764493.0,772538.0,766506.0,61
4,0,0,0,1,42,test,1,0,z,Thu Mar 27 2025 10:35:00 GMT-0500 (Central Daylight Time),793035.299999997,O,m,1241,62,1,141.bmp,-120,-120,142.bmp,120,-120,143.bmp,-120,120,144.bmp,120,120,9293.39999999851,783741.8999999985,7102,yes,SM,A,144.bmp,120,120,182622,176596,184638,178607,780485.0,774457.0,782501.0,776470.0,62
1,1,0,0,0,43,test,1,1,m,Thu Mar 27 2025 10:35:00 GMT-0500 (Central Daylight Time),802549.0,O,m,1456,63,1,145.bmp,-120,-120,146.bmp,120,-120,147.bmp,-120,120,148.bmp,120,120,9510.5,793038.5,7102,no,SM,A,145.bmp,-120,120,182622,176596,184638,178607,789782.0,783754.0,791798.0,785767.0,63
2,0,1,0,0,43,test,1,0,z,Thu Mar 27 2025 10:35:00 GMT-0500 (Central Daylight Time),811962.6999999955,O,m,1358,64,1,149.bmp,-120,-120,150.bmp,120,-120,112.bmp,-120,120,101.bmp,120,120,9410.5,802552.1999999955,7102,yes,SM,A,150.bmp,120,-120,182622,176596,184638,178607,799296.0,793267.0,801312.0,795281.0,64
4,0,0,0,1,43,test,1,0,m,Thu Mar 27 2025 10:35:00 GMT-0500 (Central Daylight Time),822026.3999999985,O,None,2015,65,1,102.bmp,-120,-120,103.bmp,120,-120,104.bmp,-120,120,105.bmp,120,120,10060.60000000149,811965.799999997,7102,no,SM,A,104.bmp,120,120,182622,176596,184638,178607,808709.0,802681.0,810726.0,804694.0,65
3,0,0,1,0,44,test,1,1,m,Thu Mar 27 2025 10:35:00 GMT-0500 (Central Daylight Time),831606.599999994,O,m,1529,66,1,106.bmp,-120,-120,107.bmp,120,-120,108.bmp,-120,120,109.bmp,120,120,9577.29999999702,822029.299999997,7102,no,SM,A,109.bmp,-120,120,182622,176596,184638,178607,818773.0,812745.0,820789.0,814758.0,66
2,0,1,0,0,45,test,1,1,m,Thu Mar 27 2025 10:35:00 GMT-0500 (Central Daylight Time),841337.099999994,O,m,1590,67,1,137.bmp,-120,-120,138.bmp,120,-120,139.bmp,-120,120,140.bmp,120,120,9727.79999999702,831609.299999997,7102,no,SM,A,139.bmp,120,-120,182622,176596,184638,178607,828353.0,822325.0,830448.0,824338.0,67
3,0,0,1,0,46,test,1,1,z,Thu Mar 27 2025 10:35:00 GMT-0500 (Central Daylight Time),850967.099999994,O,z,1578,68,1,110.bmp,-120,-120,111.bmp,120,-120,112.bmp,-120,120,113.bmp,120,120,9626.89999999851,841340.1999999955,7102,yes,SM,A,112.bmp,-120,120,182622,176596,184638,178607,838084.0,832055.0,840100.0,834068.0,68
1,1,0,0,0,47,test,1,1,m,Thu Mar 27 2025 10:35:00 GMT-0500 (Central Daylight Time),860597.3999999985,O,m,1580,69,1,114.bmp,-120,-120,115.bmp,120,-120,116.bmp,-120,120,117.bmp,120,120,9626.80000000447,850970.599999994,7102,no,SM,A,115.bmp,-120,-120,182622,176596,184638,178607,847714.0,841686.0,849730.0,843699.0,69
2,0,1,0,0,48,test,1,1,m,Thu Mar 27 2025 10:35:00 GMT-0500 (Central Daylight Time),870127.6999999955,O,m,1478,70,1,118.bmp,-120,-120,119.bmp,120,-120,120.bmp,-120,120,121.bmp,120,120,9527.39999999851,860600.299999997,7102,no,SM,A,120.bmp,120,-120,182622,176596,184638,178607,857344.0,851316.0,859360.0,853329.0,70
4,0,0,0,1,49,test,1,1,z,Thu Mar 27 2025 10:35:00 GMT-0500 (Central Daylight Time),879808.0,O,z,1619,71,1,122.bmp,-120,-120,123.bmp,120,-120,124.bmp,-120,120,125.bmp,120,120,9677.10000000149,870130.8999999985,7102,yes,SM,A,125.bmp,120,120,182622,176596,184638,178607,866874.0,860846.0,868891.0,862859.0,71
1,1,0,0,0,49,test,1,0,z,Thu Mar 27 2025 10:35:00 GMT-0500 (Central Daylight Time),889871.8999999985,O,None,2016,72,1,126.bmp,-120,-120,127.bmp,120,-120,128.bmp,-120,120,129.bmp,120,120,10060.5,879811.3999999985,7102,yes,SM,A,126.bmp,-120,-120,182622,176596,184638,178607,876555.0,870527.0,878571.0,872540.0,72
2,0,1,0,0,49,test,1,0,z,Thu Mar 27 2025 10:35:00 GMT-0500 (Central Daylight Time),899218.599999994,O,m,1283,73,1,130.bmp,-120,-120,131.bmp,120,-120,132.bmp,-120,120,133.bmp,120,120,9343.5,889875.099999994,7102,yes,SM,A,131.bmp,120,-120,182622,176596,184638,178607,886618.0,880590.0,888635.0,882603.0,73
4,0,0,0,1,50,test,1,1,m,Thu Mar 27 2025 10:35:00 GMT-0500 (Central Daylight Time),908499.0,O,m,1225,74,1,134.bmp,-120,-120,135.bmp,120,-120,136.bmp,-120,120,137.bmp,120,120,9277.20000000298,899221.799999997,7102,no,SM,A,136.bmp,120,120,182622,176596,184638,178607,895965.0,889937.0,897982.0,891950.0,74
2,0,1,0,0,51,test,1,1,m,Thu Mar 27 2025 10:35:00 GMT-0500 (Central Daylight Time),917596.299999997,O,m,1048,75,1,138.bmp,-120,-120,139.bmp,120,-120,140.bmp,-120,120,141.bmp,120,120,9094.10000000149,908502.1999999955,7102,no,SM,A,141.bmp,120,-120,182622,176596,184638,178607,905246.0,899217.0,907262.0,901231.0,75
1,1,0,0,0,52,test,1,1,z,Thu Mar 27 2025 10:35:00 GMT-0500 (Central Daylight Time),927276.6999999955,O,z,1623,76,1,142.bmp,-120,-120,143.bmp,120,-120,144.bmp,-120,120,145.bmp,120,120,9677.10000000149,917599.599999994,7102,yes,SM,A,142.bmp,-120,-120,182622,176596,184638,178607,914344.0,908315.0,916359.0,910328.0,76
3,0,0,1,0,53,test,1,1,z,Thu Mar 27 2025 10:35:00 GMT-0500 (Central Daylight Time),936923.3999999985,O,z,1598,77,1,150.bmp,-120,-120,111.bmp,120,-120,101.bmp,-120,120,102.bmp,120,120,9643.10000000149,927280.299999997,7102,yes,SM,A,101.bmp,-120,120,182622,176596,184638,178607,924023.0,917996.0,926040.0,920008.0,77
1,1,0,0,0,54,test,1,1,m,Thu Mar 27 2025 10:35:00 GMT-0500 (Central Daylight Time),946254.1999999955,O,m,1272,78,1,146.bmp,-120,-120,147.bmp,120,-120,148.bmp,-120,120,149.bmp,120,120,9327.10000000149,936927.099999994,7102,no,SM,A,147.bmp,-120,-120,182622,176596,184638,178607,933671.0,927642.0,935687.0,929655.0,78
4,0,0,0,1,54,test,1,0,m,Thu Mar 27 2025 10:35:00 GMT-0500 (Central Daylight Time),955967.799999997,O,z,1661,79,1,107.bmp,-120,-120,108.bmp,120,-120,109.bmp,-120,120,110.bmp,120,120,9705.5,946262.299999997,7102,no,SM,A,107.bmp,120,120,182622,176596,184638,178607,943001.0,936978.0,945017.0,938986.0,79
3,0,0,1,0,54,test,1,0,m,Thu Mar 27 2025 10:35:00 GMT-0500 (Central Daylight Time),966031.5,O,None,2015,80,1,103.bmp,-120,-120,104.bmp,120,-120,105.bmp,-120,120,106.bmp,120,120,10060.40000000596,955971.099999994,7102,no,SM,A,106.bmp,-120,120,182622,176596,184638,178607,952714.0,946686.0,954731.0,948699.0,80
