block_c,block_dur,condition,countdown,datetime,endtime,list,multichar_response,project,response,response_time,session_number,start_end,starttime,subject_id,task,task_vers,trial
,,,,Mon May 05 2025 10:06:06 GMT-0500 (Central Daylight Time),,,,O,space,531,1,,,7146,WL,C,
prac,,0,,Mon May 05 2025 10:06:06 GMT-0500 (Central Daylight Time),,NA,b,O,b,1673,1,,,7146,WL,C,1.0
prac,,0,,Mon May 05 2025 10:06:06 GMT-0500 (Central Daylight Time),,NA,bo,O,o,206,1,,,7146,WL,C,1.0
prac,,0,,Mon May 05 2025 10:06:06 GMT-0500 (Central Daylight Time),,NA,boo,O,o,278,1,,,7146,WL,C,1.0
prac,,0,,Mon May 05 2025 10:06:06 GMT-0500 (Central Daylight Time),,NA,boos,O,s,403,1,,,7146,WL,C,1.0
prac,,0,,Mon May 05 2025 10:06:06 GMT-0500 (Central Daylight Time),,NA,boost,O,t,614,1,,,7146,WL,C,1.0
prac,,0,,Mon May 05 2025 10:06:06 GMT-0500 (Central Daylight Time),,NA,boostenter,O,enter,575,1,,,7146,WL,C,1.0
1,3.0490000247955322,learn,56950.99997520447,Mon May 05 2025 10:06:06 GMT-0500 (Central Daylight Time),124973.60000002384,A,d,O,d,3028,1,3048.699999988079,121924.90000003576,7146,WL,C,1.0
1,3.447999954223633,learn,56552.00004577637,Mon May 05 2025 10:06:06 GMT-0500 (Central Daylight Time),125373.10000002384,A,do,O,o,382,1,3448.199999988079,121924.90000003576,7146,WL,C,1.0
1,3.9660000801086426,learn,56033.99991989136,Mon May 05 2025 10:06:06 GMT-0500 (Central Daylight Time),125890.70000004768,A,doc,O,c,503,1,3965.800000011921,121924.90000003576,7146,WL,C,1.0
1,4.480999946594238,learn,55519.00005340576,Mon May 05 2025 10:06:06 GMT-0500 (Central Daylight Time),126405.5,A,doct,O,t,503,1,4480.599999964237,121924.90000003576,7146,WL,C,1.0
1,4.598999977111816,learn,55401.00002288818,Mon May 05 2025 10:06:06 GMT-0500 (Central Daylight Time),126523.70000004768,A,docto,O,o,113,1,4598.800000011921,121924.90000003576,7146,WL,C,1.0
1,4.7149999141693115,learn,55285.00008583069,Mon May 05 2025 10:06:06 GMT-0500 (Central Daylight Time),126640.0,A,doctor,O,r,102,1,4715.099999964237,121924.90000003576,7146,WL,C,1.0
1,6.296999931335449,learn,53703.00006866455,Mon May 05 2025 10:06:06 GMT-0500 (Central Daylight Time),128221.40000003576,A,doctorenter,O,enter,1572,1,6296.5,121924.90000003576,7146,WL,C,1.0
1,8.079999923706055,learn,51920.000076293945,Mon May 05 2025 10:06:06 GMT-0500 (Central Daylight Time),130004.40000003576,A,s,O,s,1766,1,1782.5,128221.90000003576,7146,WL,C,2.0
1,8.23199987411499,learn,51768.00012588501,Mon May 05 2025 10:06:06 GMT-0500 (Central Daylight Time),130156.30000001192,A,su,O,u,146,1,1934.3999999761581,128221.90000003576,7146,WL,C,2.0
1,8.648000001907349,learn,51351.99999809265,Mon May 05 2025 10:06:06 GMT-0500 (Central Daylight Time),130572.60000002384,A,sug,O,g,407,1,2350.699999988079,128221.90000003576,7146,WL,C,2.0
1,8.77999997138977,learn,51220.00002861023,Mon May 05 2025 10:06:06 GMT-0500 (Central Daylight Time),130704.5,A,suga,O,a,117,1,2482.599999964237,128221.90000003576,7146,WL,C,2.0
1,8.914000034332275,learn,51085.999965667725,Mon May 05 2025 10:06:06 GMT-0500 (Central Daylight Time),130838.30000001192,A,sugar,O,r,115,1,2616.399999976158,128221.90000003576,7146,WL,C,2.0
1,9.463000059127808,learn,50536.99994087219,Mon May 05 2025 10:06:06 GMT-0500 (Central Daylight Time),131387.40000003576,A,sugarenter,O,enter,532,1,3165.5,128221.90000003576,7146,WL,C,2.0
1,10.180999994277954,learn,49819.000005722046,Mon May 05 2025 10:06:06 GMT-0500 (Central Daylight Time),132105.90000003576,A,c,O,c,695,1,718.1000000238419,131387.80000001192,7146,WL,C,3.0
1,10.328999996185303,learn,49671.0000038147,Mon May 05 2025 10:06:06 GMT-0500 (Central Daylight Time),132253.20000004768,A,co,O,o,128,1,865.4000000357628,131387.80000001192,7146,WL,C,3.0
1,10.678999900817871,learn,49321.00009918213,Mon May 05 2025 10:06:06 GMT-0500 (Central Daylight Time),132603.90000003576,A,cow,O,w,344,1,1216.1000000238419,131387.80000001192,7146,WL,C,3.0
1,11.295000076293945,learn,48704.999923706055,Mon May 05 2025 10:06:06 GMT-0500 (Central Daylight Time),133220.0,A,cowenter,O,enter,597,1,1832.199999988079,131387.80000001192,7146,WL,C,3.0
1,11.829999923706055,learn,48170.000076293945,Mon May 05 2025 10:06:06 GMT-0500 (Central Daylight Time),133754.10000002384,A,c,O,c,520,1,533.8000000119209,133220.30000001192,7146,WL,C,4.0
1,11.91100001335144,learn,48088.99998664856,Mon May 05 2025 10:06:06 GMT-0500 (Central Daylight Time),133835.90000003576,A,co,O,o,65,1,615.6000000238419,133220.30000001192,7146,WL,C,4.0
1,12.161999940872192,learn,47838.00005912781,Mon May 05 2025 10:06:06 GMT-0500 (Central Daylight Time),134086.90000003576,A,cor,O,r,231,1,866.6000000238419,133220.30000001192,7146,WL,C,4.0
1,12.861999988555908,learn,47138.00001144409,Mon May 05 2025 10:06:06 GMT-0500 (Central Daylight Time),134786.10000002384,A,corn,O,n,693,1,1565.800000011921,133220.30000001192,7146,WL,C,4.0
1,13.34500002861023,learn,46654.99997138977,Mon May 05 2025 10:06:06 GMT-0500 (Central Daylight Time),135269.90000003576,A,cornenter,O,enter,466,1,2049.600000023842,133220.30000001192,7146,WL,C,4.0
1,13.92799997329712,learn,46072.00002670288,Mon May 05 2025 10:06:06 GMT-0500 (Central Daylight Time),135852.70000004768,A,b,O,b,565,1,582.5,135270.20000004768,7146,WL,C,5.0
1,14.029000043869019,learn,45970.99995613098,Mon May 05 2025 10:06:06 GMT-0500 (Central Daylight Time),135953.5,A,bo,O,o,77,1,683.2999999523163,135270.20000004768,7146,WL,C,5.0
1,14.180000066757202,learn,45819.9999332428,Mon May 05 2025 10:06:06 GMT-0500 (Central Daylight Time),136104.5,A,bod,O,d,137,1,834.2999999523163,135270.20000004768,7146,WL,C,5.0
1,15.128000020980835,learn,44871.999979019165,Mon May 05 2025 10:06:06 GMT-0500 (Central Daylight Time),137052.60000002384,A,body,O,y,931,1,1782.3999999761581,135270.20000004768,7146,WL,C,5.0
1,15.592999935150146,learn,44407.00006484985,Mon May 05 2025 10:06:06 GMT-0500 (Central Daylight Time),137517.30000001192,A,bodyenter,O,enter,454,1,2247.099999964237,135270.20000004768,7146,WL,C,5.0
1,16.295000076293945,learn,43704.999923706055,Mon May 05 2025 10:06:06 GMT-0500 (Central Daylight Time),138219.90000003576,A,q,O,q,688,1,702.1999999880791,137517.70000004768,7146,WL,C,6.0
1,16.51099991798401,learn,43489.00008201599,Mon May 05 2025 10:06:06 GMT-0500 (Central Daylight Time),138435.80000001192,A,qu,O,u,209,1,918.0999999642372,137517.70000004768,7146,WL,C,6.0
1,17.09500002861023,learn,42904.99997138977,Mon May 05 2025 10:06:06 GMT-0500 (Central Daylight Time),139019.90000003576,A,que,O,e,576,1,1502.199999988079,137517.70000004768,7146,WL,C,6.0
1,17.259999990463257,learn,42740.00000953674,Mon May 05 2025 10:06:06 GMT-0500 (Central Daylight Time),139185.0,A,quee,O,e,143,1,1667.2999999523163,137517.70000004768,7146,WL,C,6.0
1,17.39299988746643,learn,42607.00011253357,Mon May 05 2025 10:06:06 GMT-0500 (Central Daylight Time),139317.80000001192,A,queen,O,n,122,1,1800.0999999642372,137517.70000004768,7146,WL,C,6.0
1,17.84500002861023,learn,42154.99997138977,Mon May 05 2025 10:06:06 GMT-0500 (Central Daylight Time),139769.80000001192,A,queenenter,O,enter,446,1,2252.099999964237,137517.70000004768,7146,WL,C,6.0
1,18.394999980926514,learn,41605.000019073486,Mon May 05 2025 10:06:06 GMT-0500 (Central Daylight Time),140319.90000003576,A,t,O,t,539,1,549.8000000119209,139770.10000002384,7146,WL,C,7.0
1,18.542999982833862,learn,41457.00001716614,Mon May 05 2025 10:06:06 GMT-0500 (Central Daylight Time),140467.5,A,to,O,o,140,1,697.3999999761581,139770.10000002384,7146,WL,C,7.0
1,18.710000038146973,learn,41289.99996185303,Mon May 05 2025 10:06:06 GMT-0500 (Central Daylight Time),140634.5,A,tow,O,w,152,1,864.3999999761581,139770.10000002384,7146,WL,C,7.0
1,19.543999910354614,learn,40456.000089645386,Mon May 05 2025 10:06:06 GMT-0500 (Central Daylight Time),141468.40000003576,A,towe,O,e,818,1,1698.300000011921,139770.10000002384,7146,WL,C,7.0
1,19.66000008583069,learn,40339.99991416931,Mon May 05 2025 10:06:06 GMT-0500 (Central Daylight Time),141584.30000001192,A,tower,O,r,93,1,1814.199999988079,139770.10000002384,7146,WL,C,7.0
1,21.39299988746643,learn,38607.00011253357,Mon May 05 2025 10:06:06 GMT-0500 (Central Daylight Time),143317.30000001192,A,towerenter,O,enter,1715,1,3547.199999988079,139770.10000002384,7146,WL,C,7.0
1,24.558000087738037,learn,35441.99991226196,Mon May 05 2025 10:06:06 GMT-0500 (Central Daylight Time),146482.20000004768,A,n,O,n,3150,1,3164.7000000476837,143317.5,7146,WL,C,8.0
1,24.657999992370605,learn,35342.000007629395,Mon May 05 2025 10:06:06 GMT-0500 (Central Daylight Time),146582.5,A,na,O,a,81,1,3265.0,143317.5,7146,WL,C,8.0
1,24.825000047683716,learn,35174.999952316284,Mon May 05 2025 10:06:06 GMT-0500 (Central Daylight Time),146749.5,A,nai,O,i,148,1,3432.0,143317.5,7146,WL,C,8.0
1,24.943000078201294,learn,35056.999921798706,Mon May 05 2025 10:06:06 GMT-0500 (Central Daylight Time),146867.30000001192,A,nail,O,l,111,1,3549.800000011921,143317.5,7146,WL,C,8.0
1,25.341000080108643,learn,34658.99991989136,Mon May 05 2025 10:06:06 GMT-0500 (Central Daylight Time),147265.80000001192,A,nailenter,O,enter,392,1,3948.300000011921,143317.5,7146,WL,C,8.0
1,31.83899998664856,learn,28161.00001335144,Mon May 05 2025 10:06:06 GMT-0500 (Central Daylight Time),153764.0,A,b,O,b,6476,1,6497.899999976158,147266.10000002384,7146,WL,C,9.0
1,32.07299995422363,learn,27927.000045776367,Mon May 05 2025 10:06:06 GMT-0500 (Central Daylight Time),153997.30000001192,A,bo,O,o,223,1,6731.199999988079,147266.10000002384,7146,WL,C,9.0
1,32.23900008201599,learn,27760.99991798401,Mon May 05 2025 10:06:06 GMT-0500 (Central Daylight Time),154163.70000004768,A,boy,O,y,139,1,6897.600000023842,147266.10000002384,7146,WL,C,9.0
1,32.454999923706055,learn,27545.000076293945,Mon May 05 2025 10:06:06 GMT-0500 (Central Daylight Time),154379.90000003576,A,boyenter,O,enter,207,1,7113.800000011921,147266.10000002384,7146,WL,C,9.0
1,59.76200008392334,learn,237.99991607666016,Mon May 05 2025 10:06:06 GMT-0500 (Central Daylight Time),181686.90000003576,A,enter,O,enter,27295,1,27306.69999998808,154380.20000004768,7146,WL,C,10.0
1,60.013999938964844,learn,-13.99993896484375,Mon May 05 2025 10:06:06 GMT-0500 (Central Daylight Time),181938.80000001192,A,None,O,None,246,1,251.5,181687.30000001192,7146,WL,C,11.0
2,0.6510000228881836,learn,59348.99997711182,Mon May 05 2025 10:06:06 GMT-0500 (Central Daylight Time),258081.30000001192,A,s,O,s,630,1,651.0,257430.30000001192,7146,WL,C,1.0
2,0.749000072479248,learn,59250.99992752075,Mon May 05 2025 10:06:06 GMT-0500 (Central Daylight Time),258179.80000001192,A,sh,O,h,82,1,749.5,257430.30000001192,7146,WL,C,1.0
2,0.9160001277923584,learn,59083.99987220764,Mon May 05 2025 10:06:06 GMT-0500 (Central Daylight Time),258346.60000002384,A,sho,O,o,152,1,916.3000000119209,257430.30000001192,7146,WL,C,1.0
2,1.3010001182556152,learn,58698.999881744385,Mon May 05 2025 10:06:06 GMT-0500 (Central Daylight Time),258731.70000004768,A,shor,O,r,377,1,1301.4000000357628,257430.30000001192,7146,WL,C,1.0
2,1.4500000476837158,learn,58549.999952316284,Mon May 05 2025 10:06:06 GMT-0500 (Central Daylight Time),258880.40000003576,A,shore,O,e,136,1,1450.1000000238419,257430.30000001192,7146,WL,C,1.0
2,2.4160001277923584,learn,57583.99987220764,Mon May 05 2025 10:06:06 GMT-0500 (Central Daylight Time),259846.60000002384,A,shoreenter,O,enter,946,1,2416.300000011921,257430.30000001192,7146,WL,C,1.0
2,3.5160000324249268,learn,56483.99996757507,Mon May 05 2025 10:06:06 GMT-0500 (Central Daylight Time),260946.70000004768,A,b,O,b,1085,1,1099.9000000357628,259846.80000001192,7146,WL,C,2.0
2,3.6490001678466797,learn,56350.99983215332,Mon May 05 2025 10:06:06 GMT-0500 (Central Daylight Time),261078.90000003576,A,bo,O,o,112,1,1232.1000000238419,259846.80000001192,7146,WL,C,2.0
2,4.183000087738037,learn,55816.99991226196,Mon May 05 2025 10:06:06 GMT-0500 (Central Daylight Time),261612.90000003576,A,bod,O,d,512,1,1766.1000000238419,259846.80000001192,7146,WL,C,2.0
2,4.333000183105469,learn,55666.99981689453,Mon May 05 2025 10:06:06 GMT-0500 (Central Daylight Time),261763.30000001192,A,body,O,y,143,1,1916.5,259846.80000001192,7146,WL,C,2.0
2,4.765000104904175,learn,55234.999895095825,Mon May 05 2025 10:06:06 GMT-0500 (Central Daylight Time),262195.60000002384,A,bodyenter,O,enter,418,1,2348.800000011921,259846.80000001192,7146,WL,C,2.0
2,5.449000120162964,learn,54550.999879837036,Mon May 05 2025 10:06:06 GMT-0500 (Central Daylight Time),262878.90000003576,A,c,O,c,673,1,683.0,262195.90000003576,7146,WL,C,3.0
2,5.565999984741211,learn,54434.00001525879,Mon May 05 2025 10:06:06 GMT-0500 (Central Daylight Time),262996.2000000477,A,ca,O,a,101,1,800.3000000119209,262195.90000003576,7146,WL,C,3.0
2,5.966000080108643,learn,54033.99991989136,Mon May 05 2025 10:06:06 GMT-0500 (Central Daylight Time),263396.3000000119,A,cat,O,t,394,1,1200.3999999761581,262195.90000003576,7146,WL,C,3.0
2,6.14900016784668,learn,53850.99983215332,Mon May 05 2025 10:06:06 GMT-0500 (Central Daylight Time),263579.10000002384,A,catt,O,t,159,1,1383.199999988079,262195.90000003576,7146,WL,C,3.0
2,6.315000057220459,learn,53684.99994277954,Mon May 05 2025 10:06:06 GMT-0500 (Central Daylight Time),263745.8000000119,A,cattl,O,l,143,1,1549.8999999761581,262195.90000003576,7146,WL,C,3.0
2,6.4150002002716064,learn,53584.99979972839,Mon May 05 2025 10:06:06 GMT-0500 (Central Daylight Time),263845.3000000119,A,cattle,O,e,89,1,1649.3999999761581,262195.90000003576,7146,WL,C,3.0
2,7.015000104904175,learn,52984.999895095825,Mon May 05 2025 10:06:06 GMT-0500 (Central Daylight Time),264445.60000002384,A,cattleenter,O,enter,589,1,2249.699999988079,262195.90000003576,7146,WL,C,3.0
2,7.96399998664856,learn,52036.00001335144,Mon May 05 2025 10:06:06 GMT-0500 (Central Daylight Time),265394.7000000477,A,n,O,n,935,1,948.8000000119209,264445.90000003576,7146,WL,C,4.0
2,8.115000009536743,learn,51884.99999046326,Mon May 05 2025 10:06:06 GMT-0500 (Central Daylight Time),265545.40000003576,A,na,O,a,130,1,1099.5,264445.90000003576,7146,WL,C,4.0
2,8.231000185012817,learn,51768.99981498718,Mon May 05 2025 10:06:06 GMT-0500 (Central Daylight Time),265660.90000003576,A,nai,O,i,97,1,1215.0,264445.90000003576,7146,WL,C,4.0
2,8.313000202178955,learn,51686.999797821045,Mon May 05 2025 10:06:06 GMT-0500 (Central Daylight Time),265743.8000000119,A,nail,O,l,62,1,1297.8999999761581,264445.90000003576,7146,WL,C,4.0
2,8.830000162124634,learn,51169.999837875366,Mon May 05 2025 10:06:06 GMT-0500 (Central Daylight Time),266260.10000002384,A,nailenter,O,enter,498,1,1814.199999988079,264445.90000003576,7146,WL,C,4.0
2,10.196000099182129,learn,49803.99990081787,Mon May 05 2025 10:06:06 GMT-0500 (Central Daylight Time),267626.60000002384,A,f,O,f,1354,1,1366.1000000238419,266260.5,7146,WL,C,5.0
2,10.328999996185303,learn,49671.0000038147,Mon May 05 2025 10:06:06 GMT-0500 (Central Daylight Time),267759.2000000477,A,fl,O,l,120,1,1498.7000000476837,266260.5,7146,WL,C,5.0
2,10.445000171661377,learn,49554.99982833862,Mon May 05 2025 10:06:06 GMT-0500 (Central Daylight Time),267875.2000000477,A,fla,O,a,101,1,1614.7000000476837,266260.5,7146,WL,C,5.0
2,10.94700002670288,learn,49052.99997329712,Mon May 05 2025 10:06:06 GMT-0500 (Central Daylight Time),268377.0,A,flag,O,g,499,1,2116.5,266260.5,7146,WL,C,5.0
2,11.348000049591064,learn,48651.999950408936,Mon May 05 2025 10:06:06 GMT-0500 (Central Daylight Time),268778.10000002384,A,flagenter,O,enter,386,1,2517.600000023842,266260.5,7146,WL,C,5.0
2,12.013000011444092,learn,47986.99998855591,Mon May 05 2025 10:06:06 GMT-0500 (Central Daylight Time),269443.0,A,h,O,h,659,1,664.5999999642372,268778.40000003576,7146,WL,C,6.0
2,12.13100004196167,learn,47868.99995803833,Mon May 05 2025 10:06:06 GMT-0500 (Central Daylight Time),269561.3000000119,A,ho,O,o,104,1,782.8999999761581,268778.40000003576,7146,WL,C,6.0
2,12.281000137329102,learn,47718.9998626709,Mon May 05 2025 10:06:06 GMT-0500 (Central Daylight Time),269711.40000003576,A,hom,O,m,131,1,933.0,268778.40000003576,7146,WL,C,6.0
2,12.448000192642212,learn,47551.99980735779,Mon May 05 2025 10:06:06 GMT-0500 (Central Daylight Time),269877.8000000119,A,home,O,e,147,1,1099.3999999761581,268778.40000003576,7146,WL,C,6.0
2,12.796000003814697,learn,47203.9999961853,Mon May 05 2025 10:06:06 GMT-0500 (Central Daylight Time),270226.2000000477,A,homeenter,O,enter,339,1,1447.800000011921,268778.40000003576,7146,WL,C,6.0
2,13.86300015449524,learn,46136.99984550476,Mon May 05 2025 10:06:06 GMT-0500 (Central Daylight Time),271293.10000002384,A,d,O,d,1059,1,1066.6000000238419,270226.5,7146,WL,C,7.0
2,13.996000051498413,learn,46003.99994850159,Mon May 05 2025 10:06:06 GMT-0500 (Central Daylight Time),271425.90000003576,A,do,O,o,127,1,1199.4000000357628,270226.5,7146,WL,C,7.0
2,14.164000034332275,learn,45835.999965667725,Mon May 05 2025 10:06:06 GMT-0500 (Central Daylight Time),271594.40000003576,A,doc,O,c,156,1,1367.9000000357628,270226.5,7146,WL,C,7.0
2,14.365000009536743,learn,45634.99999046326,Mon May 05 2025 10:06:06 GMT-0500 (Central Daylight Time),271795.3000000119,A,doct,O,t,193,1,1568.800000011921,270226.5,7146,WL,C,7.0
2,14.513000011444092,learn,45486.99998855591,Mon May 05 2025 10:06:06 GMT-0500 (Central Daylight Time),271943.3000000119,A,docto,O,o,138,1,1716.800000011921,270226.5,7146,WL,C,7.0
2,14.614000082015991,learn,45385.99991798401,Mon May 05 2025 10:06:06 GMT-0500 (Central Daylight Time),272044.3000000119,A,doctor,O,r,93,1,1817.800000011921,270226.5,7146,WL,C,7.0
2,14.96500015258789,learn,45034.99984741211,Mon May 05 2025 10:06:06 GMT-0500 (Central Daylight Time),272395.0,A,doctorenter,O,enter,343,1,2168.5,270226.5,7146,WL,C,7.0
2,16.061000108718872,learn,43938.99989128113,Mon May 05 2025 10:06:06 GMT-0500 (Central Daylight Time),273491.7000000477,A,q,O,q,1082,1,1096.5,272395.2000000477,7146,WL,C,8.0
2,16.213000059127808,learn,43786.99994087219,Mon May 05 2025 10:06:06 GMT-0500 (Central Daylight Time),273643.10000002384,A,qu,O,u,133,1,1247.8999999761581,272395.2000000477,7146,WL,C,8.0
2,16.380000114440918,learn,43619.99988555908,Mon May 05 2025 10:06:06 GMT-0500 (Central Daylight Time),273810.10000002384,A,que,O,e,159,1,1414.8999999761581,272395.2000000477,7146,WL,C,8.0
2,16.795000076293945,learn,43204.999923706055,Mon May 05 2025 10:06:06 GMT-0500 (Central Daylight Time),274225.7000000477,A,quee,O,e,409,1,1830.5,272395.2000000477,7146,WL,C,8.0
2,17.111000061035156,learn,42888.999938964844,Mon May 05 2025 10:06:06 GMT-0500 (Central Daylight Time),274541.60000002384,A,queen,O,n,296,1,2146.399999976158,272395.2000000477,7146,WL,C,8.0
2,17.34500002861023,learn,42654.99997138977,Mon May 05 2025 10:06:06 GMT-0500 (Central Daylight Time),274775.7000000477,A,queenenter,O,enter,210,1,2380.5,272395.2000000477,7146,WL,C,8.0
2,18.16200017929077,learn,41837.99982070923,Mon May 05 2025 10:06:06 GMT-0500 (Central Daylight Time),275592.2000000477,A,t,O,t,796,1,816.3000000119209,274775.90000003576,7146,WL,C,9.0
2,18.278000116348267,learn,41721.99988365173,Mon May 05 2025 10:06:06 GMT-0500 (Central Daylight Time),275707.90000003576,A,to,O,o,107,1,932.0,274775.90000003576,7146,WL,C,9.0
2,18.427000045776367,learn,41572.99995422363,Mon May 05 2025 10:06:06 GMT-0500 (Central Daylight Time),275857.7000000477,A,tow,O,w,136,1,1081.800000011921,274775.90000003576,7146,WL,C,9.0
2,19.195000171661377,learn,40804.99982833862,Mon May 05 2025 10:06:06 GMT-0500 (Central Daylight Time),276625.10000002384,A,towe,O,e,745,1,1849.199999988079,274775.90000003576,7146,WL,C,9.0
2,19.263000011444092,learn,40736.99998855591,Mon May 05 2025 10:06:06 GMT-0500 (Central Daylight Time),276692.8000000119,A,tower,O,r,60,1,1916.8999999761581,274775.90000003576,7146,WL,C,9.0
2,19.74500012397766,learn,40254.99987602234,Mon May 05 2025 10:06:06 GMT-0500 (Central Daylight Time),277175.60000002384,A,towerenter,O,enter,469,1,2399.699999988079,274775.90000003576,7146,WL,C,9.0
2,20.294000148773193,learn,39705.99985122681,Mon May 05 2025 10:06:06 GMT-0500 (Central Daylight Time),277724.40000003576,A,w,O,w,541,1,548.6000000238419,277175.8000000119,7146,WL,C,10.0
2,21.22699999809265,learn,38773.00000190735,Mon May 05 2025 10:06:06 GMT-0500 (Central Daylight Time),278657.2000000477,A,wh,O,h,911,1,1481.4000000357628,277175.8000000119,7146,WL,C,10.0
2,21.343000173568726,learn,38656.999826431274,Mon May 05 2025 10:06:06 GMT-0500 (Central Daylight Time),278773.5,A,whe,O,e,105,1,1597.699999988079,277175.8000000119,7146,WL,C,10.0
2,21.526000022888184,learn,38473.99997711182,Mon May 05 2025 10:06:06 GMT-0500 (Central Daylight Time),278956.5,A,whea,O,a,166,1,1780.699999988079,277175.8000000119,7146,WL,C,10.0
2,21.677000045776367,learn,38322.99995422363,Mon May 05 2025 10:06:06 GMT-0500 (Central Daylight Time),279107.8000000119,A,wheat,O,t,127,1,1932.0,277175.8000000119,7146,WL,C,10.0
2,22.110000133514404,learn,37889.999866485596,Mon May 05 2025 10:06:06 GMT-0500 (Central Daylight Time),279540.7000000477,A,wheatenter,O,enter,413,1,2364.900000035763,277175.8000000119,7146,WL,C,10.0
2,22.66000008583069,learn,37339.99991416931,Mon May 05 2025 10:06:06 GMT-0500 (Central Daylight Time),280090.2000000477,A,s,O,s,544,1,549.3000000119209,279540.90000003576,7146,WL,C,11.0
2,22.80900001525879,learn,37190.99998474121,Mon May 05 2025 10:06:06 GMT-0500 (Central Daylight Time),280239.3000000119,A,su,O,u,139,1,698.3999999761581,279540.90000003576,7146,WL,C,11.0
2,22.943000078201294,learn,37056.999921798706,Mon May 05 2025 10:06:06 GMT-0500 (Central Daylight Time),280373.2000000477,A,sur,O,r,125,1,832.3000000119209,279540.90000003576,7146,WL,C,11.0
2,23.41100001335144,learn,36588.99998664856,Mon May 05 2025 10:06:06 GMT-0500 (Central Daylight Time),280841.2000000477,A,surg,O,g,447,1,1300.300000011921,279540.90000003576,7146,WL,C,11.0
2,23.54200005531311,learn,36457.99994468689,Mon May 05 2025 10:06:06 GMT-0500 (Central Daylight Time),280972.2000000477,A,surga,O,a,122,1,1431.300000011921,279540.90000003576,7146,WL,C,11.0
2,23.710000038146973,learn,36289.99996185303,Mon May 05 2025 10:06:06 GMT-0500 (Central Daylight Time),281140.2000000477,A,surgar,O,r,152,1,1599.300000011921,279540.90000003576,7146,WL,C,11.0
2,27.509999990463257,learn,32490.000009536743,Mon May 05 2025 10:06:06 GMT-0500 (Central Daylight Time),284940.40000003576,A,surga,O,backspace,3793,1,5399.5,279540.90000003576,7146,WL,C,11.0
2,27.659000158309937,learn,32340.999841690063,Mon May 05 2025 10:06:06 GMT-0500 (Central Daylight Time),285089.10000002384,A,surg,O,backspace,128,1,5548.199999988079,279540.90000003576,7146,WL,C,11.0
2,27.792999982833862,learn,32207.000017166138,Mon May 05 2025 10:06:06 GMT-0500 (Central Daylight Time),285223.7000000477,A,sur,O,backspace,116,1,5682.800000011921,279540.90000003576,7146,WL,C,11.0
2,27.95900011062622,learn,32040.99988937378,Mon May 05 2025 10:06:06 GMT-0500 (Central Daylight Time),285389.10000002384,A,su,O,backspace,147,1,5848.199999988079,279540.90000003576,7146,WL,C,11.0
2,28.10800004005432,learn,31891.99995994568,Mon May 05 2025 10:06:06 GMT-0500 (Central Daylight Time),285537.90000003576,A,s,O,backspace,142,1,5997.0,279540.90000003576,7146,WL,C,11.0
2,28.741000175476074,learn,31258.999824523926,Mon May 05 2025 10:06:06 GMT-0500 (Central Daylight Time),286171.8000000119,A,su,O,u,618,1,6630.899999976158,279540.90000003576,7146,WL,C,11.0
2,29.058000087738037,learn,30941.999912261963,Mon May 05 2025 10:06:06 GMT-0500 (Central Daylight Time),286488.2000000477,A,sug,O,g,301,1,6947.300000011921,279540.90000003576,7146,WL,C,11.0
2,29.192000150680542,learn,30807.999849319458,Mon May 05 2025 10:06:06 GMT-0500 (Central Daylight Time),286622.10000002384,A,suga,O,a,128,1,7081.199999988079,279540.90000003576,7146,WL,C,11.0
2,29.31000018119812,learn,30689.99981880188,Mon May 05 2025 10:06:06 GMT-0500 (Central Daylight Time),286739.90000003576,A,sugar,O,r,99,1,7199.0,279540.90000003576,7146,WL,C,11.0
2,30.19000005722046,learn,29809.99994277954,Mon May 05 2025 10:06:06 GMT-0500 (Central Daylight Time),287620.60000002384,A,sugarenter,O,enter,869,1,8079.699999988079,279540.90000003576,7146,WL,C,11.0
2,38.98900008201599,learn,21010.99991798401,Mon May 05 2025 10:06:06 GMT-0500 (Central Daylight Time),296420.2000000477,A,h,O,h,8794,1,8799.300000011921,287620.90000003576,7146,WL,C,12.0
2,39.122000217437744,learn,20877.999782562256,Mon May 05 2025 10:06:06 GMT-0500 (Central Daylight Time),296552.40000003576,A,ho,O,o,117,1,8931.5,287620.90000003576,7146,WL,C,12.0
2,39.254000186920166,learn,20745.999813079834,Mon May 05 2025 10:06:06 GMT-0500 (Central Daylight Time),296685.10000002384,A,hom,O,m,122,1,9064.199999988079,287620.90000003576,7146,WL,C,12.0
2,39.40500020980835,learn,20594.99979019165,Mon May 05 2025 10:06:06 GMT-0500 (Central Daylight Time),296835.60000002384,A,home,O,e,142,1,9214.699999988079,287620.90000003576,7146,WL,C,12.0
2,39.8050000667572,learn,20194.999933242798,Mon May 05 2025 10:06:06 GMT-0500 (Central Daylight Time),297235.8000000119,A,homeenter,O,enter,385,1,9614.899999976158,287620.90000003576,7146,WL,C,12.0
2,44.11900019645691,learn,15880.99980354309,Mon May 05 2025 10:06:06 GMT-0500 (Central Daylight Time),301549.40000003576,A,enter,O,enter,4305,1,4313.400000035763,297236.0,7146,WL,C,13.0
2,48.56700015068054,learn,11432.999849319458,Mon May 05 2025 10:06:06 GMT-0500 (Central Daylight Time),305997.90000003576,A,enter,O,enter,4438,1,4448.100000023842,301549.8000000119,7146,WL,C,14.0
2,56.39900016784668,learn,3600.9998321533203,Mon May 05 2025 10:06:06 GMT-0500 (Central Daylight Time),313829.90000003576,A,enter,O,enter,7823,1,7831.600000023842,305998.3000000119,7146,WL,C,15.0
3,1.6329998970031738,learn,58367.000102996826,Mon May 05 2025 10:06:06 GMT-0500 (Central Daylight Time),385207.5,A,b,O,b,1612,1,1632.5999999642372,383574.90000003576,7146,WL,C,1.0
3,1.7660000324249268,learn,58233.99996757507,Mon May 05 2025 10:06:06 GMT-0500 (Central Daylight Time),385339.60000002384,A,bo,O,o,117,1,1764.699999988079,383574.90000003576,7146,WL,C,1.0
3,1.8829998970031738,learn,58117.000102996826,Mon May 05 2025 10:06:06 GMT-0500 (Central Daylight Time),385457.10000002384,A,bod,O,d,103,1,1882.199999988079,383574.90000003576,7146,WL,C,1.0
3,2.0989999771118164,learn,57901.00002288818,Mon May 05 2025 10:06:06 GMT-0500 (Central Daylight Time),385673.40000003576,A,body,O,y,201,1,2098.5,383574.90000003576,7146,WL,C,1.0
3,2.7330000400543213,learn,57266.99995994568,Mon May 05 2025 10:06:06 GMT-0500 (Central Daylight Time),386307.0,A,bodyenter,O,enter,619,1,2732.099999964237,383574.90000003576,7146,WL,C,1.0
3,3.7139999866485596,learn,56286.00001335144,Mon May 05 2025 10:06:06 GMT-0500 (Central Daylight Time),387288.40000003576,A,s,O,s,960,1,981.1000000238419,386307.3000000119,7146,WL,C,2.0
3,3.8980000019073486,learn,56101.99999809265,Mon May 05 2025 10:06:06 GMT-0500 (Central Daylight Time),387472.3000000119,A,sh,O,h,172,1,1165.0,386307.3000000119,7146,WL,C,2.0
3,4.098999977111816,learn,55901.00002288818,Mon May 05 2025 10:06:06 GMT-0500 (Central Daylight Time),387673.5,A,sho,O,o,195,1,1366.199999988079,386307.3000000119,7146,WL,C,2.0
3,4.266000032424927,learn,55733.99996757507,Mon May 05 2025 10:06:06 GMT-0500 (Central Daylight Time),387840.10000002384,A,shor,O,r,144,1,1532.800000011921,386307.3000000119,7146,WL,C,2.0
3,4.549000024795532,learn,55450.99997520447,Mon May 05 2025 10:06:06 GMT-0500 (Central Daylight Time),388123.5,A,shore,O,e,267,1,1816.199999988079,386307.3000000119,7146,WL,C,2.0
3,5.414000034332275,learn,54585.999965667725,Mon May 05 2025 10:06:06 GMT-0500 (Central Daylight Time),388988.10000002384,A,shoreenter,O,enter,858,1,2680.800000011921,386307.3000000119,7146,WL,C,2.0
3,6.2820000648498535,learn,53717.99993515015,Mon May 05 2025 10:06:06 GMT-0500 (Central Daylight Time),389856.2000000477,A,c,O,c,848,1,867.8000000119209,388988.40000003576,7146,WL,C,3.0
3,6.447000026702881,learn,53552.99997329712,Mon May 05 2025 10:06:06 GMT-0500 (Central Daylight Time),390021.2000000477,A,ca,O,a,156,1,1032.800000011921,388988.40000003576,7146,WL,C,3.0
3,6.895999908447266,learn,53104.000091552734,Mon May 05 2025 10:06:06 GMT-0500 (Central Daylight Time),390470.3000000119,A,cat,O,t,428,1,1481.8999999761581,388988.40000003576,7146,WL,C,3.0
3,7.052000045776367,learn,52947.99995422363,Mon May 05 2025 10:06:06 GMT-0500 (Central Daylight Time),390626.40000003576,A,catt,O,t,140,1,1638.0,388988.40000003576,7146,WL,C,3.0
3,7.48199987411499,learn,52518.00012588501,Mon May 05 2025 10:06:06 GMT-0500 (Central Daylight Time),391056.2000000477,A,cattl,O,l,418,1,2067.800000011921,388988.40000003576,7146,WL,C,3.0
3,7.615000009536743,learn,52384.99999046326,Mon May 05 2025 10:06:06 GMT-0500 (Central Daylight Time),391189.40000003576,A,cattle,O,e,126,1,2201.0,388988.40000003576,7146,WL,C,3.0
3,8.263999938964844,learn,51736.000061035156,Mon May 05 2025 10:06:06 GMT-0500 (Central Daylight Time),391838.40000003576,A,cattleenter,O,enter,629,1,2850.0,388988.40000003576,7146,WL,C,3.0
3,8.980999946594238,learn,51019.00005340576,Mon May 05 2025 10:06:06 GMT-0500 (Central Daylight Time),392554.8000000119,A,n,O,n,702,1,716.0999999642372,391838.7000000477,7146,WL,C,4.0
3,9.111999988555908,learn,50888.00001144409,Mon May 05 2025 10:06:06 GMT-0500 (Central Daylight Time),392685.8000000119,A,na,O,a,120,1,847.0999999642372,391838.7000000477,7146,WL,C,4.0
3,9.746999979019165,learn,50253.000020980835,Mon May 05 2025 10:06:06 GMT-0500 (Central Daylight Time),393321.10000002384,A,nai,O,i,616,1,1482.3999999761581,391838.7000000477,7146,WL,C,4.0
3,9.898000001907349,learn,50101.99999809265,Mon May 05 2025 10:06:06 GMT-0500 (Central Daylight Time),393471.90000003576,A,nail,O,l,140,1,1633.199999988079,391838.7000000477,7146,WL,C,4.0
3,10.513999938964844,learn,49486.000061035156,Mon May 05 2025 10:06:06 GMT-0500 (Central Daylight Time),394088.2000000477,A,nailenter,O,enter,597,1,2249.5,391838.7000000477,7146,WL,C,4.0
3,11.361999988555908,learn,48638.00001144409,Mon May 05 2025 10:06:06 GMT-0500 (Central Daylight Time),394936.60000002384,A,c,O,c,836,1,848.1000000238419,394088.5,7146,WL,C,5.0
3,11.463000059127808,learn,48536.99994087219,Mon May 05 2025 10:06:06 GMT-0500 (Central Daylight Time),395036.90000003576,A,co,O,o,82,1,948.4000000357628,394088.5,7146,WL,C,5.0
3,11.69599986076355,learn,48304.00013923645,Mon May 05 2025 10:06:06 GMT-0500 (Central Daylight Time),395270.40000003576,A,cor,O,r,223,1,1181.9000000357628,394088.5,7146,WL,C,5.0
3,12.361999988555908,learn,47638.00001144409,Mon May 05 2025 10:06:06 GMT-0500 (Central Daylight Time),395936.40000003576,A,corn,O,n,643,1,1847.9000000357628,394088.5,7146,WL,C,5.0
3,12.711999893188477,learn,47288.00010681152,Mon May 05 2025 10:06:06 GMT-0500 (Central Daylight Time),396286.0,A,cornenter,O,enter,333,1,2197.5,394088.5,7146,WL,C,5.0
3,13.128999948501587,learn,46871.00005149841,Mon May 05 2025 10:06:06 GMT-0500 (Central Daylight Time),396702.8000000119,A,l,O,l,407,1,416.5999999642372,396286.2000000477,7146,WL,C,6.0
3,13.328999996185303,learn,46671.0000038147,Mon May 05 2025 10:06:06 GMT-0500 (Central Daylight Time),396903.2000000477,A,le,O,e,181,1,617.0,396286.2000000477,7146,WL,C,6.0
3,13.69599986076355,learn,46304.00013923645,Mon May 05 2025 10:06:06 GMT-0500 (Central Daylight Time),397270.0,A,let,O,t,348,1,983.7999999523163,396286.2000000477,7146,WL,C,6.0
3,13.86299991607666,learn,46137.00008392334,Mon May 05 2025 10:06:06 GMT-0500 (Central Daylight Time),397436.5,A,lett,O,t,146,1,1150.2999999523163,396286.2000000477,7146,WL,C,6.0
3,14.02999997138977,learn,45970.00002861023,Mon May 05 2025 10:06:06 GMT-0500 (Central Daylight Time),397604.3000000119,A,lette,O,e,161,1,1318.0999999642372,396286.2000000477,7146,WL,C,6.0
3,14.093999862670898,learn,45906.0001373291,Mon May 05 2025 10:06:06 GMT-0500 (Central Daylight Time),397668.2000000477,A,letter,O,r,44,1,1382.0,396286.2000000477,7146,WL,C,6.0
3,14.295000076293945,learn,45704.999923706055,Mon May 05 2025 10:06:06 GMT-0500 (Central Daylight Time),397868.7000000477,A,letterenter,O,enter,180,1,1582.5,396286.2000000477,7146,WL,C,6.0
3,14.777999877929688,learn,45222.00012207031,Mon May 05 2025 10:06:06 GMT-0500 (Central Daylight Time),398352.60000002384,A,f,O,f,463,1,483.60000002384186,397869.0,7146,WL,C,7.0
3,14.928999900817871,learn,45071.00009918213,Mon May 05 2025 10:06:06 GMT-0500 (Central Daylight Time),398502.7000000477,A,fl,O,l,128,1,633.7000000476837,397869.0,7146,WL,C,7.0
3,15.078999996185303,learn,44921.0000038147,Mon May 05 2025 10:06:06 GMT-0500 (Central Daylight Time),398652.7000000477,A,fla,O,a,133,1,783.7000000476837,397869.0,7146,WL,C,7.0
3,15.293999910354614,learn,44706.000089645386,Mon May 05 2025 10:06:06 GMT-0500 (Central Daylight Time),398868.0,A,flag,O,g,206,1,999.0,397869.0,7146,WL,C,7.0
3,15.82800006866455,learn,44171.99993133545,Mon May 05 2025 10:06:06 GMT-0500 (Central Daylight Time),399402.3000000119,A,flagenter,O,enter,524,1,1533.300000011921,397869.0,7146,WL,C,7.0
3,16.76200008392334,learn,43237.99991607666,Mon May 05 2025 10:06:06 GMT-0500 (Central Daylight Time),400336.0,A,c,O,c,914,1,933.3999999761581,399402.60000002384,7146,WL,C,8.0
3,16.89400005340576,learn,43105.99994659424,Mon May 05 2025 10:06:06 GMT-0500 (Central Daylight Time),400468.3000000119,A,ca,O,a,125,1,1065.699999988079,399402.60000002384,7146,WL,C,8.0
3,17.062999963760376,learn,42937.000036239624,Mon May 05 2025 10:06:06 GMT-0500 (Central Daylight Time),400637.3000000119,A,cam,O,m,164,1,1234.699999988079,399402.60000002384,7146,WL,C,8.0
3,17.312000036239624,learn,42687.999963760376,Mon May 05 2025 10:06:06 GMT-0500 (Central Daylight Time),400886.10000002384,A,camp,O,p,231,1,1483.5,399402.60000002384,7146,WL,C,8.0
3,17.627000093460083,learn,42372.99990653992,Mon May 05 2025 10:06:06 GMT-0500 (Central Daylight Time),401200.90000003576,A,campenter,O,enter,292,1,1798.300000011921,399402.60000002384,7146,WL,C,8.0
3,18.312999963760376,learn,41687.000036239624,Mon May 05 2025 10:06:06 GMT-0500 (Central Daylight Time),401887.2000000477,A,d,O,d,675,1,686.0,401201.2000000477,7146,WL,C,9.0
3,18.41100001335144,learn,41588.99998664856,Mon May 05 2025 10:06:06 GMT-0500 (Central Daylight Time),401985.40000003576,A,do,O,o,91,1,784.1999999880791,401201.2000000477,7146,WL,C,9.0
3,18.661999940872192,learn,41338.00005912781,Mon May 05 2025 10:06:06 GMT-0500 (Central Daylight Time),402236.0,A,doc,O,c,243,1,1034.7999999523163,401201.2000000477,7146,WL,C,9.0
3,18.82800006866455,learn,41171.99993133545,Mon May 05 2025 10:06:06 GMT-0500 (Central Daylight Time),402401.7000000477,A,doct,O,t,151,1,1200.5,401201.2000000477,7146,WL,C,9.0
3,18.979000091552734,learn,41020.999908447266,Mon May 05 2025 10:06:06 GMT-0500 (Central Daylight Time),402552.90000003576,A,docto,O,o,138,1,1351.699999988079,401201.2000000477,7146,WL,C,9.0
3,19.05999994277954,learn,40940.00005722046,Mon May 05 2025 10:06:06 GMT-0500 (Central Daylight Time),402633.8000000119,A,doctor,O,r,73,1,1432.5999999642372,401201.2000000477,7146,WL,C,9.0
3,19.509999990463257,learn,40490.00000953674,Mon May 05 2025 10:06:06 GMT-0500 (Central Daylight Time),403084.0,A,doctorenter,O,enter,442,1,1882.7999999523163,401201.2000000477,7146,WL,C,9.0
3,19.944000005722046,learn,40055.999994277954,Mon May 05 2025 10:06:06 GMT-0500 (Central Daylight Time),403518.10000002384,A,b,O,b,416,1,433.80000001192093,403084.3000000119,7146,WL,C,10.0
3,20.092999935150146,learn,39907.00006484985,Mon May 05 2025 10:06:06 GMT-0500 (Central Daylight Time),403667.40000003576,A,bo,O,o,142,1,583.1000000238419,403084.3000000119,7146,WL,C,10.0
3,20.325999975204468,learn,39674.00002479553,Mon May 05 2025 10:06:06 GMT-0500 (Central Daylight Time),403900.0,A,boy,O,y,227,1,815.6999999880791,403084.3000000119,7146,WL,C,10.0
3,20.759000062942505,learn,39240.999937057495,Mon May 05 2025 10:06:06 GMT-0500 (Central Daylight Time),404333.3000000119,A,boyenter,O,enter,423,1,1249.0,403084.3000000119,7146,WL,C,10.0
3,23.042999982833862,learn,36957.00001716614,Mon May 05 2025 10:06:06 GMT-0500 (Central Daylight Time),406617.2000000477,A,t,O,t,2271,1,2283.5,404333.7000000477,7146,WL,C,11.0
3,23.20899987220764,learn,36791.00012779236,Mon May 05 2025 10:06:06 GMT-0500 (Central Daylight Time),406783.0,A,to,O,o,146,1,2449.2999999523163,404333.7000000477,7146,WL,C,11.0
3,23.342000007629395,learn,36657.999992370605,Mon May 05 2025 10:06:06 GMT-0500 (Central Daylight Time),406916.2000000477,A,tow,O,w,117,1,2582.5,404333.7000000477,7146,WL,C,11.0
3,23.842999935150146,learn,36157.00006484985,Mon May 05 2025 10:06:06 GMT-0500 (Central Daylight Time),407417.40000003576,A,towe,O,e,487,1,3083.699999988079,404333.7000000477,7146,WL,C,11.0
3,23.941999912261963,learn,36058.00008773804,Mon May 05 2025 10:06:06 GMT-0500 (Central Daylight Time),407516.10000002384,A,tower,O,r,79,1,3182.399999976158,404333.7000000477,7146,WL,C,11.0
3,24.158999919891357,learn,35841.00008010864,Mon May 05 2025 10:06:06 GMT-0500 (Central Daylight Time),407732.7000000477,A,towerenter,O,enter,207,1,3399.0,404333.7000000477,7146,WL,C,11.0
3,24.776000022888184,learn,35223.99997711182,Mon May 05 2025 10:06:06 GMT-0500 (Central Daylight Time),408349.90000003576,A,q,O,q,600,1,616.9000000357628,407733.0,7146,WL,C,12.0
3,24.91100001335144,learn,35088.99998664856,Mon May 05 2025 10:06:06 GMT-0500 (Central Daylight Time),408485.2000000477,A,qu,O,u,130,1,752.2000000476837,407733.0,7146,WL,C,12.0
3,25.14299988746643,learn,34857.00011253357,Mon May 05 2025 10:06:06 GMT-0500 (Central Daylight Time),408716.5,A,que,O,e,223,1,983.5,407733.0,7146,WL,C,12.0
3,25.358999967575073,learn,34641.00003242493,Mon May 05 2025 10:06:06 GMT-0500 (Central Daylight Time),408932.5,A,quee,O,e,202,1,1199.5,407733.0,7146,WL,C,12.0
3,26.47699999809265,learn,33523.00000190735,Mon May 05 2025 10:06:06 GMT-0500 (Central Daylight Time),410050.60000002384,A,queen,O,n,1111,1,2317.600000023842,407733.0,7146,WL,C,12.0
3,27.056999921798706,learn,32943.000078201294,Mon May 05 2025 10:06:06 GMT-0500 (Central Daylight Time),410631.5,A,queenenter,O,enter,570,1,2898.5,407733.0,7146,WL,C,12.0
3,27.89199995994568,learn,32108.00004005432,Mon May 05 2025 10:06:06 GMT-0500 (Central Daylight Time),411465.60000002384,A,w,O,w,822,1,833.8999999761581,410631.7000000477,7146,WL,C,13.0
3,28.091000080108643,learn,31908.999919891357,Mon May 05 2025 10:06:06 GMT-0500 (Central Daylight Time),411665.10000002384,A,wh,O,h,195,1,1033.3999999761581,410631.7000000477,7146,WL,C,13.0
3,28.22499990463257,learn,31775.00009536743,Mon May 05 2025 10:06:06 GMT-0500 (Central Daylight Time),411798.5,A,whe,O,e,117,1,1166.7999999523163,410631.7000000477,7146,WL,C,13.0
3,28.54099988937378,learn,31459.00011062622,Mon May 05 2025 10:06:06 GMT-0500 (Central Daylight Time),412115.3000000119,A,whea,O,a,301,1,1483.5999999642372,410631.7000000477,7146,WL,C,13.0
3,28.69099998474121,learn,31309.00001525879,Mon May 05 2025 10:06:06 GMT-0500 (Central Daylight Time),412265.3000000119,A,wheat,O,t,136,1,1633.5999999642372,410631.7000000477,7146,WL,C,13.0
3,29.44000005722046,learn,30559.99994277954,Mon May 05 2025 10:06:06 GMT-0500 (Central Daylight Time),413014.60000002384,A,wheatenter,O,enter,731,1,2382.899999976158,410631.7000000477,7146,WL,C,13.0
3,30.04099988937378,learn,29959.00011062622,Mon May 05 2025 10:06:06 GMT-0500 (Central Daylight Time),413615.5,A,s,O,s,582,1,600.6999999880791,413014.8000000119,7146,WL,C,14.0
3,30.2260000705719,learn,29773.9999294281,Mon May 05 2025 10:06:06 GMT-0500 (Central Daylight Time),413800.40000003576,A,sh,O,h,165,1,785.6000000238419,413014.8000000119,7146,WL,C,14.0
3,30.491999864578247,learn,29508.000135421753,Mon May 05 2025 10:06:06 GMT-0500 (Central Daylight Time),414066.0,A,shu,O,u,253,1,1051.199999988079,413014.8000000119,7146,WL,C,14.0
3,30.94000005722046,learn,29059.99994277954,Mon May 05 2025 10:06:06 GMT-0500 (Central Daylight Time),414514.60000002384,A,sh,O,backspace,438,1,1499.800000011921,413014.8000000119,7146,WL,C,14.0
3,31.10800004005432,learn,28891.99995994568,Mon May 05 2025 10:06:06 GMT-0500 (Central Daylight Time),414681.90000003576,A,s,O,backspace,145,1,1667.1000000238419,413014.8000000119,7146,WL,C,14.0
3,31.325000047683716,learn,28674.999952316284,Mon May 05 2025 10:06:06 GMT-0500 (Central Daylight Time),414899.5,A,su,O,u,210,1,1884.699999988079,413014.8000000119,7146,WL,C,14.0
3,31.841000080108643,learn,28158.999919891357,Mon May 05 2025 10:06:06 GMT-0500 (Central Daylight Time),415415.3000000119,A,sug,O,g,505,1,2400.5,413014.8000000119,7146,WL,C,14.0
3,31.990000009536743,learn,28009.999990463257,Mon May 05 2025 10:06:06 GMT-0500 (Central Daylight Time),415564.0,A,suga,O,a,132,1,2549.199999988079,413014.8000000119,7146,WL,C,14.0
3,32.08899998664856,learn,27911.00001335144,Mon May 05 2025 10:06:06 GMT-0500 (Central Daylight Time),415663.7000000477,A,sugar,O,r,77,1,2648.900000035763,413014.8000000119,7146,WL,C,14.0
3,32.90499997138977,learn,27095.00002861023,Mon May 05 2025 10:06:06 GMT-0500 (Central Daylight Time),416479.3000000119,A,sugarenter,O,enter,796,1,3464.5,413014.8000000119,7146,WL,C,14.0
3,41.26900005340576,learn,18730.99994659424,Mon May 05 2025 10:06:06 GMT-0500 (Central Daylight Time),424843.7000000477,A,enter,O,enter,8349,1,8364.100000023842,416479.60000002384,7146,WL,C,15.0
4,1.4670000076293945,learn,58532.999992370605,Mon May 05 2025 10:06:06 GMT-0500 (Central Daylight Time),493672.3000000119,A,t,O,t,1455,1,1466.699999988079,492205.60000002384,7146,WL,C,1.0
4,1.7000000476837158,learn,58299.999952316284,Mon May 05 2025 10:06:06 GMT-0500 (Central Daylight Time),493906.0,A,to,O,o,228,1,1700.3999999761581,492205.60000002384,7146,WL,C,1.0
4,1.7999999523162842,learn,58200.000047683716,Mon May 05 2025 10:06:06 GMT-0500 (Central Daylight Time),494005.7000000477,A,tow,O,w,81,1,1800.1000000238419,492205.60000002384,7146,WL,C,1.0
4,2.300999879837036,learn,57699.000120162964,Mon May 05 2025 10:06:06 GMT-0500 (Central Daylight Time),494506.5,A,towe,O,e,493,1,2300.899999976158,492205.60000002384,7146,WL,C,1.0
4,2.4159998893737793,learn,57584.00011062622,Mon May 05 2025 10:06:06 GMT-0500 (Central Daylight Time),494621.60000002384,A,tower,O,r,96,1,2416.0,492205.60000002384,7146,WL,C,1.0
4,3.065999984741211,learn,56934.00001525879,Mon May 05 2025 10:06:06 GMT-0500 (Central Daylight Time),495271.8000000119,A,towerenter,O,enter,629,1,3066.199999988079,492205.60000002384,7146,WL,C,1.0
4,3.6649999618530273,learn,56335.00003814697,Mon May 05 2025 10:06:06 GMT-0500 (Central Daylight Time),495871.0,A,q,O,q,588,1,598.8999999761581,495272.10000002384,7146,WL,C,2.0
4,3.865000009536743,learn,56134.99999046326,Mon May 05 2025 10:06:06 GMT-0500 (Central Daylight Time),496070.7000000477,A,qu,O,u,181,1,798.6000000238419,495272.10000002384,7146,WL,C,2.0
4,4.5329999923706055,learn,55467.000007629395,Mon May 05 2025 10:06:06 GMT-0500 (Central Daylight Time),496738.7000000477,A,que,O,e,653,1,1466.6000000238419,495272.10000002384,7146,WL,C,2.0
4,4.797999858856201,learn,55202.0001411438,Mon May 05 2025 10:06:06 GMT-0500 (Central Daylight Time),497004.10000002384,A,quee,O,e,248,1,1732.0,495272.10000002384,7146,WL,C,2.0
4,5.049000024795532,learn,54950.99997520447,Mon May 05 2025 10:06:06 GMT-0500 (Central Daylight Time),497254.60000002384,A,queen,O,n,232,1,1982.5,495272.10000002384,7146,WL,C,2.0
4,7.496999979019165,learn,52503.000020980835,Mon May 05 2025 10:06:06 GMT-0500 (Central Daylight Time),499702.7000000477,A,quee,O,backspace,2437,1,4430.600000023842,495272.10000002384,7146,WL,C,2.0
4,8.299999952316284,learn,51700.000047683716,Mon May 05 2025 10:06:06 GMT-0500 (Central Daylight Time),500505.7000000477,A,queen,O,n,797,1,5233.600000023842,495272.10000002384,7146,WL,C,2.0
4,8.563999891281128,learn,51436.00010871887,Mon May 05 2025 10:06:06 GMT-0500 (Central Daylight Time),500769.8000000119,A,queenenter,O,enter,249,1,5497.699999988079,495272.10000002384,7146,WL,C,2.0
4,9.04699993133545,learn,50953.00006866455,Mon May 05 2025 10:06:06 GMT-0500 (Central Daylight Time),501252.90000003576,A,w,O,w,463,1,482.80000001192093,500770.10000002384,7146,WL,C,3.0
4,9.730999946594238,learn,50269.00005340576,Mon May 05 2025 10:06:06 GMT-0500 (Central Daylight Time),501936.3000000119,A,wh,O,h,662,1,1166.199999988079,500770.10000002384,7146,WL,C,3.0
4,9.912999868392944,learn,50087.000131607056,Mon May 05 2025 10:06:06 GMT-0500 (Central Daylight Time),502119.2000000477,A,whe,O,e,172,1,1349.1000000238419,500770.10000002384,7146,WL,C,3.0
4,10.063999891281128,learn,49936.00010871887,Mon May 05 2025 10:06:06 GMT-0500 (Central Daylight Time),502270.10000002384,A,whea,O,a,132,1,1500.0,500770.10000002384,7146,WL,C,3.0
4,10.246999979019165,learn,49753.000020980835,Mon May 05 2025 10:06:06 GMT-0500 (Central Daylight Time),502453.10000002384,A,wheat,O,t,165,1,1683.0,500770.10000002384,7146,WL,C,3.0
4,11.813999891281128,learn,48186.00010871887,Mon May 05 2025 10:06:06 GMT-0500 (Central Daylight Time),504020.10000002384,A,wheatenter,O,enter,1550,1,3250.0,500770.10000002384,7146,WL,C,3.0
4,13.84500002861023,learn,46154.99997138977,Mon May 05 2025 10:06:06 GMT-0500 (Central Daylight Time),506050.8000000119,A,h,O,h,2016,1,2030.3999999761581,504020.40000003576,7146,WL,C,4.0
4,13.996000051498413,learn,46003.99994850159,Mon May 05 2025 10:06:06 GMT-0500 (Central Daylight Time),506201.5,A,ho,O,o,129,1,2181.099999964237,504020.40000003576,7146,WL,C,4.0
4,14.113999843597412,learn,45886.00015640259,Mon May 05 2025 10:06:06 GMT-0500 (Central Daylight Time),506319.3000000119,A,hom,O,m,97,1,2298.899999976158,504020.40000003576,7146,WL,C,4.0
4,14.263000011444092,learn,45736.99998855591,Mon May 05 2025 10:06:06 GMT-0500 (Central Daylight Time),506468.90000003576,A,home,O,e,143,1,2448.5,504020.40000003576,7146,WL,C,4.0
4,15.19599986076355,learn,44804.00013923645,Mon May 05 2025 10:06:06 GMT-0500 (Central Daylight Time),507401.8000000119,A,homeenter,O,enter,918,1,3381.399999976158,504020.40000003576,7146,WL,C,4.0
4,16.628999948501587,learn,43371.00005149841,Mon May 05 2025 10:06:06 GMT-0500 (Central Daylight Time),508835.10000002384,A,s,O,s,1427,1,1433.0,507402.10000002384,7146,WL,C,5.0
4,16.776999950408936,learn,43223.000049591064,Mon May 05 2025 10:06:06 GMT-0500 (Central Daylight Time),508983.10000002384,A,su,O,u,135,1,1581.0,507402.10000002384,7146,WL,C,5.0
4,17.27900004386902,learn,42720.99995613098,Mon May 05 2025 10:06:06 GMT-0500 (Central Daylight Time),509484.7000000477,A,sug,O,g,485,1,2082.600000023842,507402.10000002384,7146,WL,C,5.0
4,17.42799997329712,learn,42572.00002670288,Mon May 05 2025 10:06:06 GMT-0500 (Central Daylight Time),509634.10000002384,A,suga,O,a,135,1,2232.0,507402.10000002384,7146,WL,C,5.0
4,17.544999837875366,learn,42455.000162124634,Mon May 05 2025 10:06:06 GMT-0500 (Central Daylight Time),509750.3000000119,A,sugar,O,r,105,1,2348.199999988079,507402.10000002384,7146,WL,C,5.0
4,18.109999895095825,learn,41890.000104904175,Mon May 05 2025 10:06:06 GMT-0500 (Central Daylight Time),510316.10000002384,A,sugarenter,O,enter,556,1,2914.0,507402.10000002384,7146,WL,C,5.0
4,18.727999925613403,learn,41272.0000743866,Mon May 05 2025 10:06:06 GMT-0500 (Central Daylight Time),510933.7000000477,A,b,O,b,601,1,617.4000000357628,510316.3000000119,7146,WL,C,6.0
4,18.828999996185303,learn,41171.0000038147,Mon May 05 2025 10:06:06 GMT-0500 (Central Daylight Time),511035.10000002384,A,bo,O,o,92,1,718.8000000119209,510316.3000000119,7146,WL,C,6.0
4,19.378999948501587,learn,40621.00005149841,Mon May 05 2025 10:06:06 GMT-0500 (Central Daylight Time),511584.3000000119,A,boy,O,y,528,1,1268.0,510316.3000000119,7146,WL,C,6.0
4,19.677000045776367,learn,40322.99995422363,Mon May 05 2025 10:06:06 GMT-0500 (Central Daylight Time),511883.2000000477,A,boyenter,O,enter,284,1,1566.9000000357628,510316.3000000119,7146,WL,C,6.0
4,20.14299988746643,learn,39857.00011253357,Mon May 05 2025 10:06:06 GMT-0500 (Central Daylight Time),512349.0,A,d,O,d,458,1,465.5999999642372,511883.40000003576,7146,WL,C,7.0
4,20.277999877929688,learn,39722.00012207031,Mon May 05 2025 10:06:06 GMT-0500 (Central Daylight Time),512483.60000002384,A,do,O,o,118,1,600.1999999880791,511883.40000003576,7146,WL,C,7.0
4,20.51099991798401,learn,39489.00008201599,Mon May 05 2025 10:06:06 GMT-0500 (Central Daylight Time),512716.40000003576,A,doc,O,c,224,1,833.0,511883.40000003576,7146,WL,C,7.0
4,20.727999925613403,learn,39272.0000743866,Mon May 05 2025 10:06:06 GMT-0500 (Central Daylight Time),512933.40000003576,A,doct,O,t,196,1,1050.0,511883.40000003576,7146,WL,C,7.0
4,20.876999855041504,learn,39123.000144958496,Mon May 05 2025 10:06:06 GMT-0500 (Central Daylight Time),513083.2000000477,A,docto,O,o,126,1,1199.800000011921,511883.40000003576,7146,WL,C,7.0
4,20.994999885559082,learn,39005.00011444092,Mon May 05 2025 10:06:06 GMT-0500 (Central Daylight Time),513200.7000000477,A,doctor,O,r,88,1,1317.300000011921,511883.40000003576,7146,WL,C,7.0
4,21.942999839782715,learn,38057.000160217285,Mon May 05 2025 10:06:06 GMT-0500 (Central Daylight Time),514149.10000002384,A,doctorenter,O,enter,927,1,2265.699999988079,511883.40000003576,7146,WL,C,7.0
4,22.925999879837036,learn,37074.000120162964,Mon May 05 2025 10:06:06 GMT-0500 (Central Daylight Time),515131.5,A,c,O,c,968,1,982.1999999880791,514149.3000000119,7146,WL,C,8.0
4,22.993000030517578,learn,37006.99996948242,Mon May 05 2025 10:06:06 GMT-0500 (Central Daylight Time),515199.3000000119,A,ca,O,a,54,1,1050.0,514149.3000000119,7146,WL,C,8.0
4,23.126999855041504,learn,36873.000144958496,Mon May 05 2025 10:06:06 GMT-0500 (Central Daylight Time),515332.60000002384,A,cam,O,m,123,1,1183.300000011921,514149.3000000119,7146,WL,C,8.0
4,23.325999975204468,learn,36674.00002479553,Mon May 05 2025 10:06:06 GMT-0500 (Central Daylight Time),515531.90000003576,A,camp,O,p,187,1,1382.6000000238419,514149.3000000119,7146,WL,C,8.0
4,23.675999879837036,learn,36324.000120162964,Mon May 05 2025 10:06:06 GMT-0500 (Central Daylight Time),515881.40000003576,A,campenter,O,enter,333,1,1732.1000000238419,514149.3000000119,7146,WL,C,8.0
4,24.542999982833862,learn,35457.00001716614,Mon May 05 2025 10:06:06 GMT-0500 (Central Daylight Time),516748.40000003576,A,f,O,f,851,1,866.6999999880791,515881.7000000477,7146,WL,C,9.0
4,24.692999839782715,learn,35307.000160217285,Mon May 05 2025 10:06:06 GMT-0500 (Central Daylight Time),516898.3000000119,A,fl,O,l,145,1,1016.5999999642372,515881.7000000477,7146,WL,C,9.0
4,24.774999856948853,learn,35225.00014305115,Mon May 05 2025 10:06:06 GMT-0500 (Central Daylight Time),516980.5,A,fla,O,a,71,1,1098.7999999523163,515881.7000000477,7146,WL,C,9.0
4,25.342000007629395,learn,34657.999992370605,Mon May 05 2025 10:06:06 GMT-0500 (Central Daylight Time),517548.10000002384,A,flag,O,g,551,1,1666.3999999761581,515881.7000000477,7146,WL,C,9.0
4,25.608999967575073,learn,34391.00003242493,Mon May 05 2025 10:06:06 GMT-0500 (Central Daylight Time),517815.10000002384,A,flagenter,O,enter,247,1,1933.3999999761581,515881.7000000477,7146,WL,C,9.0
4,26.075999975204468,learn,33924.00002479553,Mon May 05 2025 10:06:06 GMT-0500 (Central Daylight Time),518281.90000003576,A,l,O,l,445,1,466.69999998807907,517815.2000000477,7146,WL,C,10.0
4,26.174999952316284,learn,33825.000047683716,Mon May 05 2025 10:06:06 GMT-0500 (Central Daylight Time),518380.60000002384,A,le,O,e,89,1,565.3999999761581,517815.2000000477,7146,WL,C,10.0
4,26.524999856948853,learn,33475.00014305115,Mon May 05 2025 10:06:06 GMT-0500 (Central Daylight Time),518731.10000002384,A,let,O,t,327,1,915.8999999761581,517815.2000000477,7146,WL,C,10.0
4,26.674999952316284,learn,33325.000047683716,Mon May 05 2025 10:06:06 GMT-0500 (Central Daylight Time),518881.0,A,lett,O,t,128,1,1065.7999999523163,517815.2000000477,7146,WL,C,10.0
4,26.89299988746643,learn,33107.00011253357,Mon May 05 2025 10:06:06 GMT-0500 (Central Daylight Time),519099.10000002384,A,lette,O,e,197,1,1283.8999999761581,517815.2000000477,7146,WL,C,10.0
4,26.924000024795532,learn,33075.99997520447,Mon May 05 2025 10:06:06 GMT-0500 (Central Daylight Time),519129.7000000477,A,letter,O,r,20,1,1314.5,517815.2000000477,7146,WL,C,10.0
4,27.14199995994568,learn,32858.00004005432,Mon May 05 2025 10:06:06 GMT-0500 (Central Daylight Time),519347.8000000119,A,letterenter,O,enter,205,1,1532.5999999642372,517815.2000000477,7146,WL,C,10.0
4,28.590999841690063,learn,31409.000158309937,Mon May 05 2025 10:06:06 GMT-0500 (Central Daylight Time),520797.0,A,c,O,c,1433,1,1448.7999999523163,519348.2000000477,7146,WL,C,11.0
4,28.70899987220764,learn,31291.00012779236,Mon May 05 2025 10:06:06 GMT-0500 (Central Daylight Time),520914.8000000119,A,co,O,o,107,1,1566.5999999642372,519348.2000000477,7146,WL,C,11.0
4,28.875,learn,31125.0,Mon May 05 2025 10:06:06 GMT-0500 (Central Daylight Time),521081.0,A,cor,O,r,142,1,1732.7999999523163,519348.2000000477,7146,WL,C,11.0
4,29.241999864578247,learn,30758.000135421753,Mon May 05 2025 10:06:06 GMT-0500 (Central Daylight Time),521447.90000003576,A,corn,O,n,354,1,2099.699999988079,519348.2000000477,7146,WL,C,11.0
4,29.460000038146973,learn,30539.999961853027,Mon May 05 2025 10:06:06 GMT-0500 (Central Daylight Time),521665.8000000119,A,cornenter,O,enter,209,1,2317.599999964237,519348.2000000477,7146,WL,C,11.0
4,29.825000047683716,learn,30174.999952316284,Mon May 05 2025 10:06:06 GMT-0500 (Central Daylight Time),522030.3000000119,A,n,O,n,347,1,364.19999998807907,521666.10000002384,7146,WL,C,12.0
4,29.993000030517578,learn,30006.999969482422,Mon May 05 2025 10:06:06 GMT-0500 (Central Daylight Time),522198.3000000119,A,na,O,a,149,1,532.1999999880791,521666.10000002384,7146,WL,C,12.0
4,30.375999927520752,learn,29624.000072479248,Mon May 05 2025 10:06:06 GMT-0500 (Central Daylight Time),522582.0,A,nai,O,i,374,1,915.8999999761581,521666.10000002384,7146,WL,C,12.0
4,30.54199981689453,learn,29458.00018310547,Mon May 05 2025 10:06:06 GMT-0500 (Central Daylight Time),522748.10000002384,A,nail,O,l,159,1,1082.0,521666.10000002384,7146,WL,C,12.0
4,31.056999921798706,learn,28943.000078201294,Mon May 05 2025 10:06:06 GMT-0500 (Central Daylight Time),523263.0,A,nailenter,O,enter,493,1,1596.8999999761581,521666.10000002384,7146,WL,C,12.0
4,31.710000038146973,learn,28289.999961853027,Mon May 05 2025 10:06:06 GMT-0500 (Central Daylight Time),523915.5,A,c,O,c,647,1,652.2999999523163,523263.2000000477,7146,WL,C,13.0
4,31.825000047683716,learn,28174.999952316284,Mon May 05 2025 10:06:06 GMT-0500 (Central Daylight Time),524030.40000003576,A,ca,O,a,98,1,767.1999999880791,523263.2000000477,7146,WL,C,13.0
4,32.223000049591064,learn,27776.999950408936,Mon May 05 2025 10:06:06 GMT-0500 (Central Daylight Time),524429.3000000119,A,cat,O,t,388,1,1166.0999999642372,523263.2000000477,7146,WL,C,13.0
4,32.389999866485596,learn,27610.000133514404,Mon May 05 2025 10:06:06 GMT-0500 (Central Daylight Time),524596.3000000119,A,catt,O,t,147,1,1333.0999999642372,523263.2000000477,7146,WL,C,13.0
4,32.575000047683716,learn,27424.999952316284,Mon May 05 2025 10:06:06 GMT-0500 (Central Daylight Time),524781.2000000477,A,cattl,O,l,163,1,1518.0,523263.2000000477,7146,WL,C,13.0
4,32.656999826431274,learn,27343.000173568726,Mon May 05 2025 10:06:06 GMT-0500 (Central Daylight Time),524862.7000000477,A,cattle,O,e,64,1,1599.5,523263.2000000477,7146,WL,C,13.0
4,32.888999938964844,learn,27111.000061035156,Mon May 05 2025 10:06:06 GMT-0500 (Central Daylight Time),525094.9000000358,A,cattleenter,O,enter,210,1,1831.699999988079,523263.2000000477,7146,WL,C,13.0
4,33.924999952316284,learn,26075.000047683716,Mon May 05 2025 10:06:06 GMT-0500 (Central Daylight Time),526130.5,A,s,O,s,1022,1,1035.2999999523163,525095.2000000477,7146,WL,C,14.0
4,34.056999921798706,learn,25943.000078201294,Mon May 05 2025 10:06:06 GMT-0500 (Central Daylight Time),526262.5,A,sh,O,h,111,1,1167.2999999523163,525095.2000000477,7146,WL,C,14.0
4,34.156999826431274,learn,25843.000173568726,Mon May 05 2025 10:06:06 GMT-0500 (Central Daylight Time),526362.6000000238,A,sho,O,o,92,1,1267.3999999761581,525095.2000000477,7146,WL,C,14.0
4,34.30799984931946,learn,25692.000150680542,Mon May 05 2025 10:06:06 GMT-0500 (Central Daylight Time),526513.3000000119,A,shor,O,r,125,1,1418.0999999642372,525095.2000000477,7146,WL,C,14.0
4,34.638999938964844,learn,25361.000061035156,Mon May 05 2025 10:06:06 GMT-0500 (Central Daylight Time),526844.8000000119,A,shore,O,e,319,1,1749.5999999642372,525095.2000000477,7146,WL,C,14.0
4,35.55499982833862,learn,24445.000171661377,Mon May 05 2025 10:06:06 GMT-0500 (Central Daylight Time),527760.8000000119,A,shoreenter,O,enter,901,1,2665.599999964237,525095.2000000477,7146,WL,C,14.0
4,35.99000000953674,learn,24009.999990463257,Mon May 05 2025 10:06:06 GMT-0500 (Central Daylight Time),528195.5,A,b,O,b,420,1,434.5,527761.0,7146,WL,C,15.0
4,36.07099986076355,learn,23929.00013923645,Mon May 05 2025 10:06:06 GMT-0500 (Central Daylight Time),528277.3000000119,A,bo,O,o,72,1,516.3000000119209,527761.0,7146,WL,C,15.0
4,36.473000049591064,learn,23526.999950408936,Mon May 05 2025 10:06:06 GMT-0500 (Central Daylight Time),528678.9000000358,A,bod,O,d,376,1,917.9000000357628,527761.0,7146,WL,C,15.0
4,36.58899998664856,learn,23411.00001335144,Mon May 05 2025 10:06:06 GMT-0500 (Central Daylight Time),528794.8000000119,A,body,O,y,97,1,1033.800000011921,527761.0,7146,WL,C,15.0
4,37.08899998664856,learn,22911.00001335144,Mon May 05 2025 10:06:06 GMT-0500 (Central Daylight Time),529294.8000000119,A,bodyenter,O,enter,488,1,1533.800000011921,527761.0,7146,WL,C,15.0
5,2.366000175476074,learn,60000.0,Mon May 05 2025 10:06:06 GMT-0500 (Central Daylight Time),601071.6000000238,A,t,O,t,2355,1,2365.600000023842,598706.0,7146,WL,C,1.0
5,2.633000135421753,learn,60000.0,Mon May 05 2025 10:06:06 GMT-0500 (Central Daylight Time),601338.7000000477,A,to,O,o,246,1,2632.7000000476837,598706.0,7146,WL,C,1.0
5,2.7160000801086426,learn,60000.0,Mon May 05 2025 10:06:06 GMT-0500 (Central Daylight Time),601421.6000000238,A,tow,O,w,76,1,2715.600000023842,598706.0,7146,WL,C,1.0
5,2.8990001678466797,learn,60000.0,Mon May 05 2025 10:06:06 GMT-0500 (Central Daylight Time),601604.8000000119,A,town,O,n,167,1,2898.800000011921,598706.0,7146,WL,C,1.0
5,3.0850000381469727,learn,60000.0,Mon May 05 2025 10:06:06 GMT-0500 (Central Daylight Time),601790.4000000358,A,towne,O,e,175,1,3084.400000035763,598706.0,7146,WL,C,1.0
5,3.1700000762939453,learn,60000.0,Mon May 05 2025 10:06:06 GMT-0500 (Central Daylight Time),601875.3000000119,A,towner,O,r,80,1,3169.300000011921,598706.0,7146,WL,C,1.0
5,3.63100004196167,learn,60000.0,Mon May 05 2025 10:06:06 GMT-0500 (Central Daylight Time),602335.9000000358,A,towne,O,backspace,441,1,3629.900000035763,598706.0,7146,WL,C,1.0
5,3.749000072479248,learn,60000.0,Mon May 05 2025 10:06:06 GMT-0500 (Central Daylight Time),602454.8000000119,A,town,O,backspace,102,1,3748.800000011921,598706.0,7146,WL,C,1.0
5,3.882000207901001,learn,60000.0,Mon May 05 2025 10:06:06 GMT-0500 (Central Daylight Time),602587.8000000119,A,tow,O,backspace,117,1,3881.800000011921,598706.0,7146,WL,C,1.0
5,4.265000104904175,learn,60000.0,Mon May 05 2025 10:06:06 GMT-0500 (Central Daylight Time),602970.5,A,towe,O,e,377,1,4264.5,598706.0,7146,WL,C,1.0
5,4.365000009536743,learn,60000.0,Mon May 05 2025 10:06:06 GMT-0500 (Central Daylight Time),603071.0,A,tower,O,r,82,1,4365.0,598706.0,7146,WL,C,1.0
5,4.634000062942505,learn,60000.0,Mon May 05 2025 10:06:06 GMT-0500 (Central Daylight Time),603339.2000000477,A,towerenter,O,enter,245,1,4633.200000047684,598706.0,7146,WL,C,1.0
5,5.182000160217285,learn,60000.0,Mon May 05 2025 10:06:06 GMT-0500 (Central Daylight Time),603888.0,A,q,O,q,538,1,548.5,603339.5,7146,WL,C,2.0
5,5.39900016784668,learn,60000.0,Mon May 05 2025 10:06:06 GMT-0500 (Central Daylight Time),604104.5,A,qu,O,u,195,1,765.0,603339.5,7146,WL,C,2.0
5,5.614000082015991,learn,60000.0,Mon May 05 2025 10:06:06 GMT-0500 (Central Daylight Time),604319.5,A,que,O,e,204,1,980.0,603339.5,7146,WL,C,2.0
5,6.182000160217285,learn,60000.0,Mon May 05 2025 10:06:06 GMT-0500 (Central Daylight Time),604887.3000000119,A,quee,O,e,548,1,1547.800000011921,603339.5,7146,WL,C,2.0
5,6.4150002002716064,learn,60000.0,Mon May 05 2025 10:06:06 GMT-0500 (Central Daylight Time),605119.9000000358,A,queen,O,n,221,1,1780.4000000357628,603339.5,7146,WL,C,2.0
5,6.96399998664856,learn,60000.0,Mon May 05 2025 10:06:06 GMT-0500 (Central Daylight Time),605669.8000000119,A,queenenter,O,enter,532,1,2330.300000011921,603339.5,7146,WL,C,2.0
5,7.465000152587891,learn,60000.0,Mon May 05 2025 10:06:06 GMT-0500 (Central Daylight Time),606170.2000000477,A,w,O,w,487,1,500.10000002384186,605670.1000000238,7146,WL,C,3.0
5,7.680000066757202,learn,60000.0,Mon May 05 2025 10:06:06 GMT-0500 (Central Daylight Time),606385.6000000238,A,wh,O,h,195,1,715.5,605670.1000000238,7146,WL,C,3.0
5,7.88100004196167,learn,60000.0,Mon May 05 2025 10:06:06 GMT-0500 (Central Daylight Time),606586.1000000238,A,whe,O,e,192,1,916.0,605670.1000000238,7146,WL,C,3.0
5,8.082000017166138,learn,60000.0,Mon May 05 2025 10:06:06 GMT-0500 (Central Daylight Time),606787.1000000238,A,whea,O,a,188,1,1117.0,605670.1000000238,7146,WL,C,3.0
5,8.247000217437744,learn,60000.0,Mon May 05 2025 10:06:06 GMT-0500 (Central Daylight Time),606952.6000000238,A,wheat,O,t,152,1,1282.5,605670.1000000238,7146,WL,C,3.0
5,8.945000171661377,learn,60000.0,Mon May 05 2025 10:06:06 GMT-0500 (Central Daylight Time),607650.9000000358,A,wheatenter,O,enter,684,1,1980.800000011921,605670.1000000238,7146,WL,C,3.0
5,9.580000162124634,learn,60000.0,Mon May 05 2025 10:06:06 GMT-0500 (Central Daylight Time),608285.1000000238,A,s,O,s,618,1,633.8999999761581,607651.2000000477,7146,WL,C,4.0
5,9.73200011253357,learn,60000.0,Mon May 05 2025 10:06:06 GMT-0500 (Central Daylight Time),608436.9000000358,A,su,O,u,146,1,785.6999999880791,607651.2000000477,7146,WL,C,4.0
5,9.898000001907349,learn,60000.0,Mon May 05 2025 10:06:06 GMT-0500 (Central Daylight Time),608603.7000000477,A,sur,O,r,160,1,952.5,607651.2000000477,7146,WL,C,4.0
5,10.347000122070312,learn,60000.0,Mon May 05 2025 10:06:06 GMT-0500 (Central Daylight Time),609052.0,A,surg,O,g,433,1,1400.7999999523163,607651.2000000477,7146,WL,C,4.0
5,10.680999994277954,learn,60000.0,Mon May 05 2025 10:06:06 GMT-0500 (Central Daylight Time),609386.2000000477,A,sur,O,backspace,312,1,1735.0,607651.2000000477,7146,WL,C,4.0
5,10.814000129699707,learn,60000.0,Mon May 05 2025 10:06:06 GMT-0500 (Central Daylight Time),609519.8000000119,A,su,O,backspace,113,1,1868.5999999642372,607651.2000000477,7146,WL,C,4.0
5,10.94700002670288,learn,60000.0,Mon May 05 2025 10:06:06 GMT-0500 (Central Daylight Time),609651.9000000358,A,sug,O,g,115,1,2000.699999988079,607651.2000000477,7146,WL,C,4.0
5,11.064000129699707,learn,60000.0,Mon May 05 2025 10:06:06 GMT-0500 (Central Daylight Time),609769.2000000477,A,suga,O,a,104,1,2118.0,607651.2000000477,7146,WL,C,4.0
5,11.17900013923645,learn,60000.0,Mon May 05 2025 10:06:06 GMT-0500 (Central Daylight Time),609884.8000000119,A,sugar,O,r,107,1,2233.599999964237,607651.2000000477,7146,WL,C,4.0
5,11.597000122070312,learn,60000.0,Mon May 05 2025 10:06:06 GMT-0500 (Central Daylight Time),610302.1000000238,A,sugarenter,O,enter,406,1,2650.899999976158,607651.2000000477,7146,WL,C,4.0
5,12.26200008392334,learn,60000.0,Mon May 05 2025 10:06:06 GMT-0500 (Central Daylight Time),610967.3000000119,A,h,O,h,654,1,664.8999999761581,610302.4000000358,7146,WL,C,5.0
5,12.379000186920166,learn,60000.0,Mon May 05 2025 10:06:06 GMT-0500 (Central Daylight Time),611084.7000000477,A,ho,O,o,101,1,782.3000000119209,610302.4000000358,7146,WL,C,5.0
5,12.547000169754028,learn,60000.0,Mon May 05 2025 10:06:06 GMT-0500 (Central Daylight Time),611252.1000000238,A,hom,O,m,144,1,949.6999999880791,610302.4000000358,7146,WL,C,5.0
5,12.678000211715698,learn,60000.0,Mon May 05 2025 10:06:06 GMT-0500 (Central Daylight Time),611383.7000000477,A,home,O,e,110,1,1081.300000011921,610302.4000000358,7146,WL,C,5.0
5,13.03000020980835,learn,60000.0,Mon May 05 2025 10:06:06 GMT-0500 (Central Daylight Time),611735.0,A,homeenter,O,enter,339,1,1432.5999999642372,610302.4000000358,7146,WL,C,5.0
5,13.496000051498413,learn,60000.0,Mon May 05 2025 10:06:06 GMT-0500 (Central Daylight Time),612201.1000000238,A,b,O,b,454,1,465.80000001192093,611735.3000000119,7146,WL,C,6.0
5,13.57800006866455,learn,60000.0,Mon May 05 2025 10:06:06 GMT-0500 (Central Daylight Time),612283.6000000238,A,bo,O,o,67,1,548.3000000119209,611735.3000000119,7146,WL,C,6.0
5,13.84500002861023,learn,60000.0,Mon May 05 2025 10:06:06 GMT-0500 (Central Daylight Time),612550.7000000477,A,boy,O,y,256,1,815.4000000357628,611735.3000000119,7146,WL,C,6.0
5,14.148000001907349,learn,60000.0,Mon May 05 2025 10:06:06 GMT-0500 (Central Daylight Time),612853.0,A,boyenter,O,enter,285,1,1117.699999988079,611735.3000000119,7146,WL,C,6.0
5,14.611000061035156,learn,60000.0,Mon May 05 2025 10:06:06 GMT-0500 (Central Daylight Time),613316.5,A,d,O,d,456,1,463.2999999523163,612853.2000000477,7146,WL,C,7.0
5,14.730000019073486,learn,60000.0,Mon May 05 2025 10:06:06 GMT-0500 (Central Daylight Time),613435.6000000238,A,do,O,o,112,1,582.3999999761581,612853.2000000477,7146,WL,C,7.0
5,14.912000179290771,learn,60000.0,Mon May 05 2025 10:06:06 GMT-0500 (Central Daylight Time),613617.9000000358,A,doc,O,c,169,1,764.6999999880791,612853.2000000477,7146,WL,C,7.0
5,15.09600019454956,learn,60000.0,Mon May 05 2025 10:06:06 GMT-0500 (Central Daylight Time),613801.3000000119,A,doct,O,t,171,1,948.0999999642372,612853.2000000477,7146,WL,C,7.0
5,15.212000131607056,learn,60000.0,Mon May 05 2025 10:06:06 GMT-0500 (Central Daylight Time),613917.2000000477,A,docto,O,o,100,1,1064.0,612853.2000000477,7146,WL,C,7.0
5,15.696000099182129,learn,60000.0,Mon May 05 2025 10:06:06 GMT-0500 (Central Daylight Time),614401.0,A,doctor,O,r,472,1,1547.7999999523163,612853.2000000477,7146,WL,C,7.0
5,16.394999980926514,learn,60000.0,Mon May 05 2025 10:06:06 GMT-0500 (Central Daylight Time),615100.8000000119,A,doctorenter,O,enter,683,1,2247.599999964237,612853.2000000477,7146,WL,C,7.0
5,16.91200017929077,learn,60000.0,Mon May 05 2025 10:06:06 GMT-0500 (Central Daylight Time),615617.0,A,c,O,c,503,1,516.0,615101.0,7146,WL,C,8.0
5,17.028000116348267,learn,60000.0,Mon May 05 2025 10:06:06 GMT-0500 (Central Daylight Time),615733.5,A,ca,O,a,98,1,632.5,615101.0,7146,WL,C,8.0
5,17.128000020980835,learn,60000.0,Mon May 05 2025 10:06:06 GMT-0500 (Central Daylight Time),615833.5,A,cam,O,m,87,1,732.5,615101.0,7146,WL,C,8.0
5,17.328999996185303,learn,60000.0,Mon May 05 2025 10:06:06 GMT-0500 (Central Daylight Time),616034.4000000358,A,camp,O,p,196,1,933.4000000357628,615101.0,7146,WL,C,8.0
5,17.962000131607056,learn,60000.0,Mon May 05 2025 10:06:06 GMT-0500 (Central Daylight Time),616666.9000000358,A,campenter,O,enter,628,1,1565.9000000357628,615101.0,7146,WL,C,8.0
5,18.461000204086304,learn,60000.0,Mon May 05 2025 10:06:06 GMT-0500 (Central Daylight Time),617166.2000000477,A,f,O,f,490,1,499.0,616667.2000000477,7146,WL,C,9.0
5,18.611999988555908,learn,60000.0,Mon May 05 2025 10:06:06 GMT-0500 (Central Daylight Time),617317.4000000358,A,fl,O,l,145,1,650.1999999880791,616667.2000000477,7146,WL,C,9.0
5,18.74500012397766,learn,60000.0,Mon May 05 2025 10:06:06 GMT-0500 (Central Daylight Time),617450.0,A,fla,O,a,119,1,782.7999999523163,616667.2000000477,7146,WL,C,9.0
5,18.91100001335144,learn,60000.0,Mon May 05 2025 10:06:06 GMT-0500 (Central Daylight Time),617616.2000000477,A,flag,O,g,154,1,949.0,616667.2000000477,7146,WL,C,9.0
5,19.361000061035156,learn,60000.0,Mon May 05 2025 10:06:06 GMT-0500 (Central Daylight Time),618066.3000000119,A,flagenter,O,enter,428,1,1399.0999999642372,616667.2000000477,7146,WL,C,9.0
5,20.527000188827515,learn,60000.0,Mon May 05 2025 10:06:06 GMT-0500 (Central Daylight Time),619232.0,A,l,O,l,1145,1,1165.2999999523163,618066.7000000477,7146,WL,C,10.0
5,20.844000101089478,learn,60000.0,Mon May 05 2025 10:06:06 GMT-0500 (Central Daylight Time),619549.3000000119,A,le,O,e,301,1,1482.5999999642372,618066.7000000477,7146,WL,C,10.0
5,21.176000118255615,learn,60000.0,Mon May 05 2025 10:06:06 GMT-0500 (Central Daylight Time),619881.4000000358,A,let,O,t,319,1,1814.699999988079,618066.7000000477,7146,WL,C,10.0
5,21.344000101089478,learn,60000.0,Mon May 05 2025 10:06:06 GMT-0500 (Central Daylight Time),620049.4000000358,A,lett,O,t,146,1,1982.699999988079,618066.7000000477,7146,WL,C,10.0
5,21.526000022888184,learn,60000.0,Mon May 05 2025 10:06:06 GMT-0500 (Central Daylight Time),620231.6000000238,A,lette,O,e,170,1,2164.899999976158,618066.7000000477,7146,WL,C,10.0
5,21.575000047683716,learn,60000.0,Mon May 05 2025 10:06:06 GMT-0500 (Central Daylight Time),620280.6000000238,A,letter,O,r,43,1,2213.899999976158,618066.7000000477,7146,WL,C,10.0
5,21.777000188827515,learn,60000.0,Mon May 05 2025 10:06:06 GMT-0500 (Central Daylight Time),620482.5,A,letterenter,O,enter,190,1,2415.7999999523163,618066.7000000477,7146,WL,C,10.0
5,22.542999982833862,learn,60000.0,Mon May 05 2025 10:06:06 GMT-0500 (Central Daylight Time),621248.2000000477,A,c,O,c,754,1,765.3000000119209,620482.9000000358,7146,WL,C,11.0
5,22.659000158309937,learn,60000.0,Mon May 05 2025 10:06:06 GMT-0500 (Central Daylight Time),621364.8000000119,A,co,O,o,111,1,881.8999999761581,620482.9000000358,7146,WL,C,11.0
5,22.8270001411438,learn,60000.0,Mon May 05 2025 10:06:06 GMT-0500 (Central Daylight Time),621532.1000000238,A,cor,O,r,152,1,1049.199999988079,620482.9000000358,7146,WL,C,11.0
5,23.29200005531311,learn,60000.0,Mon May 05 2025 10:06:06 GMT-0500 (Central Daylight Time),621997.7000000477,A,corn,O,n,447,1,1514.800000011921,620482.9000000358,7146,WL,C,11.0
5,23.52500009536743,learn,60000.0,Mon May 05 2025 10:06:06 GMT-0500 (Central Daylight Time),622230.7000000477,A,cornenter,O,enter,222,1,1747.800000011921,620482.9000000358,7146,WL,C,11.0
5,24.011000156402588,learn,60000.0,Mon May 05 2025 10:06:06 GMT-0500 (Central Daylight Time),622716.3000000119,A,n,O,n,480,1,485.30000001192093,622231.0,7146,WL,C,12.0
5,24.14300012588501,learn,60000.0,Mon May 05 2025 10:06:06 GMT-0500 (Central Daylight Time),622848.1000000238,A,na,O,a,118,1,617.1000000238419,622231.0,7146,WL,C,12.0
5,24.692000150680542,learn,60000.0,Mon May 05 2025 10:06:06 GMT-0500 (Central Daylight Time),623397.9000000358,A,nai,O,i,532,1,1166.9000000357628,622231.0,7146,WL,C,12.0
5,24.859000205993652,learn,60000.0,Mon May 05 2025 10:06:06 GMT-0500 (Central Daylight Time),623564.7000000477,A,nail,O,l,150,1,1333.7000000476837,622231.0,7146,WL,C,12.0
5,25.593000173568726,learn,60000.0,Mon May 05 2025 10:06:06 GMT-0500 (Central Daylight Time),624298.2000000477,A,nailenter,O,enter,719,1,2067.2000000476837,622231.0,7146,WL,C,12.0
5,26.05900001525879,learn,60000.0,Mon May 05 2025 10:06:06 GMT-0500 (Central Daylight Time),624764.5,A,c,O,c,461,1,465.89999997615814,624298.6000000238,7146,WL,C,13.0
5,26.175000190734863,learn,60000.0,Mon May 05 2025 10:06:06 GMT-0500 (Central Daylight Time),624880.5,A,ca,O,a,94,1,581.8999999761581,624298.6000000238,7146,WL,C,13.0
5,26.55900001525879,learn,60000.0,Mon May 05 2025 10:06:06 GMT-0500 (Central Daylight Time),625264.3000000119,A,cat,O,t,371,1,965.6999999880791,624298.6000000238,7146,WL,C,13.0
5,26.74500012397766,learn,60000.0,Mon May 05 2025 10:06:06 GMT-0500 (Central Daylight Time),625450.4000000358,A,catt,O,t,161,1,1151.800000011921,624298.6000000238,7146,WL,C,13.0
5,26.924000024795532,learn,60000.0,Mon May 05 2025 10:06:06 GMT-0500 (Central Daylight Time),625629.8000000119,A,cattl,O,l,172,1,1331.199999988079,624298.6000000238,7146,WL,C,13.0
5,27.075000047683716,learn,60000.0,Mon May 05 2025 10:06:06 GMT-0500 (Central Daylight Time),625780.8000000119,A,cattle,O,e,144,1,1482.199999988079,624298.6000000238,7146,WL,C,13.0
5,27.55900001525879,learn,60000.0,Mon May 05 2025 10:06:06 GMT-0500 (Central Daylight Time),626264.2000000477,A,cattleenter,O,enter,463,1,1965.6000000238419,624298.6000000238,7146,WL,C,13.0
5,28.69000005722046,learn,60000.0,Mon May 05 2025 10:06:06 GMT-0500 (Central Daylight Time),627395.9000000358,A,s,O,s,1125,1,1131.4000000357628,626264.5,7146,WL,C,14.0
5,28.79100012779236,learn,60000.0,Mon May 05 2025 10:06:06 GMT-0500 (Central Daylight Time),627496.7000000477,A,sh,O,h,86,1,1232.2000000476837,626264.5,7146,WL,C,14.0
5,28.95900011062622,learn,60000.0,Mon May 05 2025 10:06:06 GMT-0500 (Central Daylight Time),627664.1000000238,A,sho,O,o,148,1,1399.6000000238419,626264.5,7146,WL,C,14.0
5,29.073000192642212,learn,60000.0,Mon May 05 2025 10:06:06 GMT-0500 (Central Daylight Time),627778.8000000119,A,shor,O,r,99,1,1514.300000011921,626264.5,7146,WL,C,14.0
5,29.45800018310547,learn,60000.0,Mon May 05 2025 10:06:06 GMT-0500 (Central Daylight Time),628162.9000000358,A,shore,O,e,376,1,1898.4000000357628,626264.5,7146,WL,C,14.0
5,29.722000122070312,learn,60000.0,Mon May 05 2025 10:06:06 GMT-0500 (Central Daylight Time),628427.4000000358,A,shoreenter,O,enter,256,1,2162.900000035763,626264.5,7146,WL,C,14.0
5,30.19099998474121,learn,60000.0,Mon May 05 2025 10:06:06 GMT-0500 (Central Daylight Time),628896.6000000238,A,b,O,b,448,1,469.10000002384186,628427.5,7146,WL,C,15.0
5,30.324000120162964,learn,60000.0,Mon May 05 2025 10:06:06 GMT-0500 (Central Daylight Time),629029.6000000238,A,bo,O,o,114,1,602.1000000238419,628427.5,7146,WL,C,15.0
5,30.491000175476074,learn,60000.0,Mon May 05 2025 10:06:06 GMT-0500 (Central Daylight Time),629196.2000000477,A,bos,O,s,151,1,768.7000000476837,628427.5,7146,WL,C,15.0
5,30.84000015258789,learn,60000.0,Mon May 05 2025 10:06:06 GMT-0500 (Central Daylight Time),629545.8000000119,A,bo,O,backspace,336,1,1118.300000011921,628427.5,7146,WL,C,15.0
5,30.975000143051147,learn,60000.0,Mon May 05 2025 10:06:06 GMT-0500 (Central Daylight Time),629680.5,A,bod,O,d,114,1,1253.0,628427.5,7146,WL,C,15.0
5,31.157999992370605,learn,60000.0,Mon May 05 2025 10:06:06 GMT-0500 (Central Daylight Time),629863.3000000119,A,body,O,y,164,1,1435.800000011921,628427.5,7146,WL,C,15.0
5,31.77300000190735,learn,60000.0,Mon May 05 2025 10:06:06 GMT-0500 (Central Daylight Time),630478.3000000119,A,bodyenter,O,enter,595,1,2050.800000011921,628427.5,7146,WL,C,15.0
6,0.8519999980926514,distr,59148.00000190735,Mon May 05 2025 10:06:06 GMT-0500 (Central Daylight Time),699940.8000000119,B,h,O,h,844,1,851.3000000119209,699089.5,7146,WL,C,1.0
6,1.000999927520752,distr,58999.00007247925,Mon May 05 2025 10:06:06 GMT-0500 (Central Daylight Time),700090.0,B,ho,O,o,143,1,1000.5,699089.5,7146,WL,C,1.0
6,1.4839999675750732,distr,58516.00003242493,Mon May 05 2025 10:06:06 GMT-0500 (Central Daylight Time),700573.0,B,hot,O,t,465,1,1483.5,699089.5,7146,WL,C,1.0
6,2.184999942779541,distr,57815.00005722046,Mon May 05 2025 10:06:06 GMT-0500 (Central Daylight Time),701273.3000000119,B,hote,O,e,679,1,2183.800000011921,699089.5,7146,WL,C,1.0
6,2.3519999980926514,distr,57648.00000190735,Mon May 05 2025 10:06:06 GMT-0500 (Central Daylight Time),701440.4000000358,B,hotel,O,l,146,1,2350.900000035763,699089.5,7146,WL,C,1.0
6,3.0160000324249268,distr,56983.99996757507,Mon May 05 2025 10:06:06 GMT-0500 (Central Daylight Time),702104.3000000119,B,hotelenter,O,enter,644,1,3014.800000011921,699089.5,7146,WL,C,1.0
6,4.116999864578247,distr,55883.00013542175,Mon May 05 2025 10:06:06 GMT-0500 (Central Daylight Time),703206.2000000477,B,s,O,s,1094,1,1101.6000000238419,702104.6000000238,7146,WL,C,2.0
6,4.2179999351501465,distr,55782.00006484985,Mon May 05 2025 10:06:06 GMT-0500 (Central Daylight Time),703307.0,B,sk,O,k,96,1,1202.3999999761581,702104.6000000238,7146,WL,C,2.0
6,4.66700005531311,distr,55332.99994468689,Mon May 05 2025 10:06:06 GMT-0500 (Central Daylight Time),703755.3000000119,B,sky,O,y,431,1,1650.699999988079,702104.6000000238,7146,WL,C,2.0
6,6.415999889373779,distr,53584.00011062622,Mon May 05 2025 10:06:06 GMT-0500 (Central Daylight Time),705504.9000000358,B,skyenter,O,enter,1736,1,3400.300000011921,702104.6000000238,7146,WL,C,2.0
6,6.800999879837036,distr,53199.000120162964,Mon May 05 2025 10:06:06 GMT-0500 (Central Daylight Time),705890.1000000238,B,v,O,v,379,1,384.89999997615814,705505.2000000477,7146,WL,C,3.0
6,6.915999889373779,distr,53084.00011062622,Mon May 05 2025 10:06:06 GMT-0500 (Central Daylight Time),706005.0,B,va,O,a,99,1,499.7999999523163,705505.2000000477,7146,WL,C,3.0
6,7.382999897003174,distr,52617.000102996826,Mon May 05 2025 10:06:06 GMT-0500 (Central Daylight Time),706471.3000000119,B,val,O,l,447,1,966.0999999642372,705505.2000000477,7146,WL,C,3.0
6,7.514999866485596,distr,52485.000133514404,Mon May 05 2025 10:06:06 GMT-0500 (Central Daylight Time),706603.8000000119,B,vall,O,l,126,1,1098.5999999642372,705505.2000000477,7146,WL,C,3.0
6,7.966000080108643,distr,52033.99991989136,Mon May 05 2025 10:06:06 GMT-0500 (Central Daylight Time),707054.5,B,valle,O,e,433,1,1549.2999999523163,705505.2000000477,7146,WL,C,3.0
6,8.132999897003174,distr,51867.000102996826,Mon May 05 2025 10:06:06 GMT-0500 (Central Daylight Time),707222.1000000238,B,valley,O,y,158,1,1716.8999999761581,705505.2000000477,7146,WL,C,3.0
6,8.483000040054321,distr,51516.99995994568,Mon May 05 2025 10:06:06 GMT-0500 (Central Daylight Time),707571.6000000238,B,valleyenter,O,enter,343,1,2066.399999976158,705505.2000000477,7146,WL,C,3.0
6,12.980999946594238,distr,47019.00005340576,Mon May 05 2025 10:06:06 GMT-0500 (Central Daylight Time),712069.6000000238,B,d,O,d,4480,1,4497.699999988079,707571.9000000358,7146,WL,C,4.0
6,13.079999923706055,distr,46920.000076293945,Mon May 05 2025 10:06:06 GMT-0500 (Central Daylight Time),712168.7000000477,B,do,O,o,86,1,4596.800000011921,707571.9000000358,7146,WL,C,4.0
6,13.79699993133545,distr,46203.00006866455,Mon May 05 2025 10:06:06 GMT-0500 (Central Daylight Time),712886.1000000238,B,dol,O,l,699,1,5314.199999988079,707571.9000000358,7146,WL,C,4.0
6,13.94599986076355,distr,46054.00013923645,Mon May 05 2025 10:06:06 GMT-0500 (Central Daylight Time),713035.3000000119,B,doll,O,l,134,1,5463.399999976158,707571.9000000358,7146,WL,C,4.0
6,14.147000074386597,distr,45852.9999256134,Mon May 05 2025 10:06:06 GMT-0500 (Central Daylight Time),713236.4000000358,B,dolla,O,a,195,1,5664.5,707571.9000000358,7146,WL,C,4.0
6,14.280999898910522,distr,45719.00010108948,Mon May 05 2025 10:06:06 GMT-0500 (Central Daylight Time),713370.0,B,dollar,O,r,111,1,5798.099999964237,707571.9000000358,7146,WL,C,4.0
6,14.54699993133545,distr,45453.00006866455,Mon May 05 2025 10:06:06 GMT-0500 (Central Daylight Time),713635.7000000477,B,dollarenter,O,enter,249,1,6063.800000011921,707571.9000000358,7146,WL,C,4.0
6,15.01199984550476,distr,44988.00015449524,Mon May 05 2025 10:06:06 GMT-0500 (Central Daylight Time),714101.0,B,m,O,m,457,1,465.0999999642372,713635.9000000358,7146,WL,C,5.0
6,15.147000074386597,distr,44852.9999256134,Mon May 05 2025 10:06:06 GMT-0500 (Central Daylight Time),714235.7000000477,B,mo,O,o,128,1,599.8000000119209,713635.9000000358,7146,WL,C,5.0
6,15.562000036239624,distr,44437.999963760376,Mon May 05 2025 10:06:06 GMT-0500 (Central Daylight Time),714651.2000000477,B,mon,O,n,403,1,1015.3000000119209,713635.9000000358,7146,WL,C,5.0
6,15.730000019073486,distr,44269.999980926514,Mon May 05 2025 10:06:06 GMT-0500 (Central Daylight Time),714818.7000000477,B,mone,O,e,153,1,1182.800000011921,713635.9000000358,7146,WL,C,5.0
6,15.914000034332275,distr,44085.999965667725,Mon May 05 2025 10:06:06 GMT-0500 (Central Daylight Time),715003.1000000238,B,money,O,y,179,1,1367.199999988079,713635.9000000358,7146,WL,C,5.0
6,16.161999940872192,distr,43838.00005912781,Mon May 05 2025 10:06:06 GMT-0500 (Central Daylight Time),715251.1000000238,B,moneyenter,O,enter,233,1,1615.199999988079,713635.9000000358,7146,WL,C,5.0
6,23.626999855041504,distr,36373.000144958496,Mon May 05 2025 10:06:06 GMT-0500 (Central Daylight Time),722716.4000000358,B,f,O,f,7449,1,7465.0,715251.4000000358,7146,WL,C,6.0
6,23.743000030517578,distr,36256.99996948242,Mon May 05 2025 10:06:06 GMT-0500 (Central Daylight Time),722831.8000000119,B,fo,O,o,102,1,7580.399999976158,715251.4000000358,7146,WL,C,6.0
6,23.842999935150146,distr,36157.00006484985,Mon May 05 2025 10:06:06 GMT-0500 (Central Daylight Time),722932.6000000238,B,for,O,r,93,1,7681.199999988079,715251.4000000358,7146,WL,C,6.0
6,24.276999950408936,distr,35723.000049591064,Mon May 05 2025 10:06:06 GMT-0500 (Central Daylight Time),723365.9000000358,B,fore,O,e,415,1,8114.5,715251.4000000358,7146,WL,C,6.0
6,24.444000005722046,distr,35555.999994277954,Mon May 05 2025 10:06:06 GMT-0500 (Central Daylight Time),723532.8000000119,B,fores,O,s,150,1,8281.399999976158,715251.4000000358,7146,WL,C,6.0
6,24.542999982833862,distr,35457.00001716614,Mon May 05 2025 10:06:06 GMT-0500 (Central Daylight Time),723632.5,B,forest,O,t,86,1,8381.099999964237,715251.4000000358,7146,WL,C,6.0
6,24.859999895095825,distr,35140.000104904175,Mon May 05 2025 10:06:06 GMT-0500 (Central Daylight Time),723948.7000000477,B,forestenter,O,enter,298,1,8697.300000011921,715251.4000000358,7146,WL,C,6.0
6,26.128000020980835,distr,33871.999979019165,Mon May 05 2025 10:06:06 GMT-0500 (Central Daylight Time),725216.8000000119,B,t,O,t,1247,1,1267.8999999761581,723948.9000000358,7146,WL,C,7.0
6,26.460000038146973,distr,33539.99996185303,Mon May 05 2025 10:06:06 GMT-0500 (Central Daylight Time),725548.8000000119,B,to,O,o,325,1,1599.8999999761581,723948.9000000358,7146,WL,C,7.0
6,26.608999967575073,distr,33391.00003242493,Mon May 05 2025 10:06:06 GMT-0500 (Central Daylight Time),725698.5,B,too,O,o,136,1,1749.5999999642372,723948.9000000358,7146,WL,C,7.0
6,26.89299988746643,distr,33107.00011253357,Mon May 05 2025 10:06:06 GMT-0500 (Central Daylight Time),725981.7000000477,B,tool,O,l,266,1,2032.800000011921,723948.9000000358,7146,WL,C,7.0
6,27.177000045776367,distr,32822.99995422363,Mon May 05 2025 10:06:06 GMT-0500 (Central Daylight Time),726265.9000000358,B,toolenter,O,enter,263,1,2317.0,723948.9000000358,7146,WL,C,7.0
6,32.17400002479553,distr,27825.999975204468,Mon May 05 2025 10:06:06 GMT-0500 (Central Daylight Time),731263.4000000358,B,p,O,p,4978,1,4997.300000011921,726266.1000000238,7146,WL,C,8.0
6,32.306999921798706,distr,27693.000078201294,Mon May 05 2025 10:06:06 GMT-0500 (Central Daylight Time),731396.8000000119,B,pl,O,l,116,1,5130.699999988079,726266.1000000238,7146,WL,C,8.0
6,32.45700001716614,distr,27542.999982833862,Mon May 05 2025 10:06:06 GMT-0500 (Central Daylight Time),731546.6000000238,B,pla,O,a,143,1,5280.5,726266.1000000238,7146,WL,C,8.0
6,32.60699987411499,distr,27393.00012588501,Mon May 05 2025 10:06:06 GMT-0500 (Central Daylight Time),731696.6000000238,B,plan,O,n,137,1,5430.5,726266.1000000238,7146,WL,C,8.0
6,32.89199995994568,distr,27108.00004005432,Mon May 05 2025 10:06:06 GMT-0500 (Central Daylight Time),731981.1000000238,B,plant,O,t,267,1,5715.0,726266.1000000238,7146,WL,C,8.0
6,33.27300000190735,distr,26726.99999809265,Mon May 05 2025 10:06:06 GMT-0500 (Central Daylight Time),732362.4000000358,B,plantenter,O,enter,366,1,6096.300000011921,726266.1000000238,7146,WL,C,8.0
6,36.2739999294281,distr,23726.0000705719,Mon May 05 2025 10:06:06 GMT-0500 (Central Daylight Time),735362.8000000119,B,enter,O,enter,2996,1,3000.199999988079,732362.6000000238,7146,WL,C,9.0
6,37.35599994659424,distr,22644.00005340576,Mon May 05 2025 10:06:06 GMT-0500 (Central Daylight Time),736445.3000000119,B,enter,O,enter,1065,1,1082.199999988079,735363.1000000238,7146,WL,C,10.0
6,40.30299997329712,distr,19697.00002670288,Mon May 05 2025 10:06:06 GMT-0500 (Central Daylight Time),739392.0,B,enter,O,enter,2935,1,2946.399999976158,736445.6000000238,7146,WL,C,11.0
6,41.003000020980835,distr,18996.999979019165,Mon May 05 2025 10:06:06 GMT-0500 (Central Daylight Time),740092.0,B,enter,O,enter,694,1,699.7999999523163,739392.2000000477,7146,WL,C,12.0
6,42.45199990272522,distr,17548.00009727478,Mon May 05 2025 10:06:06 GMT-0500 (Central Daylight Time),741541.2000000477,B,enter,O,enter,1433,1,1449.0,740092.2000000477,7146,WL,C,13.0
6,42.82200002670288,distr,17177.99997329712,Mon May 05 2025 10:06:06 GMT-0500 (Central Daylight Time),741911.0,B,enter,O,enter,361,1,369.5999999642372,741541.4000000358,7146,WL,C,14.0
6,43.2720000743866,distr,16727.999925613403,Mon May 05 2025 10:06:06 GMT-0500 (Central Daylight Time),742360.8000000119,B,enter,O,enter,437,1,449.5,741911.3000000119,7146,WL,C,15.0
7,1.7179999351501465,immed,58282.00006484985,Mon May 05 2025 10:06:06 GMT-0500 (Central Daylight Time),753073.2000000477,A,t,O,t,1695,1,1717.4000000357628,751355.8000000119,7146,WL,C,1.0
7,1.8359999656677246,immed,58164.000034332275,Mon May 05 2025 10:06:06 GMT-0500 (Central Daylight Time),753191.3000000119,A,to,O,o,99,1,1835.5,751355.8000000119,7146,WL,C,1.0
7,1.9700000286102295,immed,58029.99997138977,Mon May 05 2025 10:06:06 GMT-0500 (Central Daylight Time),753325.0,A,tow,O,w,117,1,1969.199999988079,751355.8000000119,7146,WL,C,1.0
7,2.5,immed,57500.0,Mon May 05 2025 10:06:06 GMT-0500 (Central Daylight Time),753855.4000000358,A,towe,O,e,506,1,2499.600000023842,751355.8000000119,7146,WL,C,1.0
7,2.6009998321533203,immed,57399.00016784668,Mon May 05 2025 10:06:06 GMT-0500 (Central Daylight Time),753956.5,A,tower,O,r,85,1,2600.699999988079,751355.8000000119,7146,WL,C,1.0
7,2.868000030517578,immed,57131.99996948242,Mon May 05 2025 10:06:06 GMT-0500 (Central Daylight Time),754222.8000000119,A,towerenter,O,enter,255,1,2867.0,751355.8000000119,7146,WL,C,1.0
7,3.7679998874664307,immed,56232.00011253357,Mon May 05 2025 10:06:06 GMT-0500 (Central Daylight Time),755123.5,A,q,O,q,895,1,900.5,754223.0,7146,WL,C,2.0
7,3.9679999351501465,immed,56032.00006484985,Mon May 05 2025 10:06:06 GMT-0500 (Central Daylight Time),755322.9000000358,A,qu,O,u,177,1,1099.9000000357628,754223.0,7146,WL,C,2.0
7,4.383999824523926,immed,55616.000175476074,Mon May 05 2025 10:06:06 GMT-0500 (Central Daylight Time),755739.0,A,que,O,e,410,1,1516.0,754223.0,7146,WL,C,2.0
7,4.550999879837036,immed,55449.000120162964,Mon May 05 2025 10:06:06 GMT-0500 (Central Daylight Time),755905.9000000358,A,quee,O,e,152,1,1682.9000000357628,754223.0,7146,WL,C,2.0
7,4.735999822616577,immed,55264.00017738342,Mon May 05 2025 10:06:06 GMT-0500 (Central Daylight Time),756090.8000000119,A,queen,O,n,177,1,1867.800000011921,754223.0,7146,WL,C,2.0
7,5.616999864578247,immed,54383.00013542175,Mon May 05 2025 10:06:06 GMT-0500 (Central Daylight Time),756972.2000000477,A,queenenter,O,enter,859,1,2749.2000000476837,754223.0,7146,WL,C,2.0
7,6.549999952316284,immed,53450.000047683716,Mon May 05 2025 10:06:06 GMT-0500 (Central Daylight Time),757905.5,A,w,O,w,928,1,933.0,756972.5,7146,WL,C,3.0
7,6.75,immed,53250.0,Mon May 05 2025 10:06:06 GMT-0500 (Central Daylight Time),758105.5,A,wh,O,h,187,1,1133.0,756972.5,7146,WL,C,3.0
7,6.849999904632568,immed,53150.00009536743,Mon May 05 2025 10:06:06 GMT-0500 (Central Daylight Time),758204.7000000477,A,whe,O,e,90,1,1232.2000000476837,756972.5,7146,WL,C,3.0
7,7.016000032424927,immed,52983.99996757507,Mon May 05 2025 10:06:06 GMT-0500 (Central Daylight Time),758371.4000000358,A,whea,O,a,152,1,1398.9000000357628,756972.5,7146,WL,C,3.0
7,7.164999961853027,immed,52835.00003814697,Mon May 05 2025 10:06:06 GMT-0500 (Central Daylight Time),758520.6000000238,A,wheat,O,t,136,1,1548.1000000238419,756972.5,7146,WL,C,3.0
7,7.75,immed,52250.0,Mon May 05 2025 10:06:06 GMT-0500 (Central Daylight Time),759105.2000000477,A,wheatenter,O,enter,578,1,2132.7000000476837,756972.5,7146,WL,C,3.0
7,8.865999937057495,immed,51134.000062942505,Mon May 05 2025 10:06:06 GMT-0500 (Central Daylight Time),760220.8000000119,A,s,O,s,1108,1,1115.3999999761581,759105.4000000358,7146,WL,C,4.0
7,9.016000032424927,immed,50983.99996757507,Mon May 05 2025 10:06:06 GMT-0500 (Central Daylight Time),760371.6000000238,A,su,O,u,145,1,1266.199999988079,759105.4000000358,7146,WL,C,4.0
7,9.549000024795532,immed,50450.99997520447,Mon May 05 2025 10:06:06 GMT-0500 (Central Daylight Time),760904.3000000119,A,sug,O,g,512,1,1798.8999999761581,759105.4000000358,7146,WL,C,4.0
7,9.681999921798706,immed,50318.000078201294,Mon May 05 2025 10:06:06 GMT-0500 (Central Daylight Time),761036.9000000358,A,suga,O,a,124,1,1931.5,759105.4000000358,7146,WL,C,4.0
7,9.781999826431274,immed,50218.000173568726,Mon May 05 2025 10:06:06 GMT-0500 (Central Daylight Time),761136.7000000477,A,sugar,O,r,84,1,2031.300000011921,759105.4000000358,7146,WL,C,4.0
7,10.21399998664856,immed,49786.00001335144,Mon May 05 2025 10:06:06 GMT-0500 (Central Daylight Time),761569.4000000358,A,sugarenter,O,enter,418,1,2464.0,759105.4000000358,7146,WL,C,4.0
7,10.664999961853027,immed,49335.00003814697,Mon May 05 2025 10:06:06 GMT-0500 (Central Daylight Time),762019.6000000238,A,h,O,h,445,1,450.0,761569.6000000238,7146,WL,C,5.0
7,10.799000024795532,immed,49200.99997520447,Mon May 05 2025 10:06:06 GMT-0500 (Central Daylight Time),762154.1000000238,A,ho,O,o,110,1,584.5,761569.6000000238,7146,WL,C,5.0
7,10.934000015258789,immed,49065.99998474121,Mon May 05 2025 10:06:06 GMT-0500 (Central Daylight Time),762289.1000000238,A,hom,O,m,112,1,719.5,761569.6000000238,7146,WL,C,5.0
7,11.131999969482422,immed,48868.00003051758,Mon May 05 2025 10:06:06 GMT-0500 (Central Daylight Time),762487.2000000477,A,home,O,e,177,1,917.6000000238419,761569.6000000238,7146,WL,C,5.0
7,11.316999912261963,immed,48683.00008773804,Mon May 05 2025 10:06:06 GMT-0500 (Central Daylight Time),762672.3000000119,A,homeenter,O,enter,173,1,1102.699999988079,761569.6000000238,7146,WL,C,5.0
7,11.680999994277954,immed,48319.000005722046,Mon May 05 2025 10:06:06 GMT-0500 (Central Daylight Time),763036.5,A,b,O,b,350,1,364.0999999642372,762672.4000000358,7146,WL,C,6.0
7,11.780999898910522,immed,48219.00010108948,Mon May 05 2025 10:06:06 GMT-0500 (Central Daylight Time),763136.4000000358,A,bo,O,o,79,1,464.0,762672.4000000358,7146,WL,C,6.0
7,12.264999866485596,immed,47735.000133514404,Mon May 05 2025 10:06:06 GMT-0500 (Central Daylight Time),763620.6000000238,A,boy,O,y,475,1,948.1999999880791,762672.4000000358,7146,WL,C,6.0
7,12.563999891281128,immed,47436.00010871887,Mon May 05 2025 10:06:06 GMT-0500 (Central Daylight Time),763918.7000000477,A,boyenter,O,enter,285,1,1246.300000011921,762672.4000000358,7146,WL,C,6.0
7,13.431999921798706,immed,46568.000078201294,Mon May 05 2025 10:06:06 GMT-0500 (Central Daylight Time),764786.9000000358,A,d,O,d,854,1,868.0,763918.9000000358,7146,WL,C,7.0
7,13.549000024795532,immed,46450.99997520447,Mon May 05 2025 10:06:06 GMT-0500 (Central Daylight Time),764904.3000000119,A,do,O,o,94,1,985.3999999761581,763918.9000000358,7146,WL,C,7.0
7,13.730999946594238,immed,46269.00005340576,Mon May 05 2025 10:06:06 GMT-0500 (Central Daylight Time),765086.6000000238,A,doc,O,c,176,1,1167.699999988079,763918.9000000358,7146,WL,C,7.0
7,13.914000034332275,immed,46085.999965667725,Mon May 05 2025 10:06:06 GMT-0500 (Central Daylight Time),765268.9000000358,A,doct,O,t,176,1,1350.0,763918.9000000358,7146,WL,C,7.0
7,14.030999898910522,immed,45969.00010108948,Mon May 05 2025 10:06:06 GMT-0500 (Central Daylight Time),765386.5,A,docto,O,o,99,1,1467.5999999642372,763918.9000000358,7146,WL,C,7.0
7,14.146999835968018,immed,45853.00016403198,Mon May 05 2025 10:06:06 GMT-0500 (Central Daylight Time),765501.9000000358,A,doctor,O,r,94,1,1583.0,763918.9000000358,7146,WL,C,7.0
7,14.464999914169312,immed,45535.00008583069,Mon May 05 2025 10:06:06 GMT-0500 (Central Daylight Time),765820.1000000238,A,doctorenter,O,enter,308,1,1901.199999988079,763918.9000000358,7146,WL,C,7.0
7,15.830999851226807,immed,44169.00014877319,Mon May 05 2025 10:06:06 GMT-0500 (Central Daylight Time),767185.7000000477,A,c,O,c,1353,1,1365.4000000357628,765820.3000000119,7146,WL,C,8.0
7,15.878000020980835,immed,44121.999979019165,Mon May 05 2025 10:06:06 GMT-0500 (Central Daylight Time),767233.6000000238,A,co,O,o,42,1,1413.300000011921,765820.3000000119,7146,WL,C,8.0
7,16.02999997138977,immed,43970.00002861023,Mon May 05 2025 10:06:06 GMT-0500 (Central Daylight Time),767385.0,A,com,O,m,141,1,1564.699999988079,765820.3000000119,7146,WL,C,8.0
7,16.17899990081787,immed,43821.00009918213,Mon May 05 2025 10:06:06 GMT-0500 (Central Daylight Time),767534.5,A,comp,O,p,140,1,1714.199999988079,765820.3000000119,7146,WL,C,8.0
7,16.830999851226807,immed,43169.00014877319,Mon May 05 2025 10:06:06 GMT-0500 (Central Daylight Time),768185.7000000477,A,com,O,backspace,645,1,2365.400000035763,765820.3000000119,7146,WL,C,8.0
7,16.961999893188477,immed,43038.00010681152,Mon May 05 2025 10:06:06 GMT-0500 (Central Daylight Time),768317.6000000238,A,co,O,backspace,114,1,2497.300000011921,765820.3000000119,7146,WL,C,8.0
7,17.19599986076355,immed,42804.00013923645,Mon May 05 2025 10:06:06 GMT-0500 (Central Daylight Time),768551.5,A,c,O,backspace,210,1,2731.199999988079,765820.3000000119,7146,WL,C,8.0
7,17.381999969482422,immed,42618.00003051758,Mon May 05 2025 10:06:06 GMT-0500 (Central Daylight Time),768737.0,A,ca,O,a,163,1,2916.699999988079,765820.3000000119,7146,WL,C,8.0
7,17.52999997138977,immed,42470.00002861023,Mon May 05 2025 10:06:06 GMT-0500 (Central Daylight Time),768884.7000000477,A,cam,O,m,131,1,3064.400000035763,765820.3000000119,7146,WL,C,8.0
7,17.69700002670288,immed,42302.99997329712,Mon May 05 2025 10:06:06 GMT-0500 (Central Daylight Time),769052.5,A,camp,O,p,148,1,3232.199999988079,765820.3000000119,7146,WL,C,8.0
7,17.846999883651733,immed,42153.00011634827,Mon May 05 2025 10:06:06 GMT-0500 (Central Daylight Time),769201.9000000358,A,campl,O,l,133,1,3381.600000023842,765820.3000000119,7146,WL,C,8.0
7,18.312999963760376,immed,41687.000036239624,Mon May 05 2025 10:06:06 GMT-0500 (Central Daylight Time),769668.6000000238,A,camp,O,backspace,449,1,3848.300000011921,765820.3000000119,7146,WL,C,8.0
7,18.59599995613098,immed,41404.00004386902,Mon May 05 2025 10:06:06 GMT-0500 (Central Daylight Time),769950.9000000358,A,campenter,O,enter,271,1,4130.600000023842,765820.3000000119,7146,WL,C,8.0
7,19.145999908447266,immed,40854.000091552734,Mon May 05 2025 10:06:06 GMT-0500 (Central Daylight Time),770501.5,A,f,O,f,534,1,550.3999999761581,769951.1000000238,7146,WL,C,9.0
7,19.245999813079834,immed,40754.000186920166,Mon May 05 2025 10:06:06 GMT-0500 (Central Daylight Time),770601.2000000477,A,fl,O,l,87,1,650.1000000238419,769951.1000000238,7146,WL,C,9.0
7,19.444999933242798,immed,40555.0000667572,Mon May 05 2025 10:06:06 GMT-0500 (Central Daylight Time),770800.2000000477,A,fla,O,a,187,1,849.1000000238419,769951.1000000238,7146,WL,C,9.0
7,19.961999893188477,immed,40038.00010681152,Mon May 05 2025 10:06:06 GMT-0500 (Central Daylight Time),771317.4000000358,A,flag,O,g,500,1,1366.300000011921,769951.1000000238,7146,WL,C,9.0
7,20.26099991798401,immed,39739.00008201599,Mon May 05 2025 10:06:06 GMT-0500 (Central Daylight Time),771616.4000000358,A,flagenter,O,enter,286,1,1665.300000011921,769951.1000000238,7146,WL,C,9.0
7,23.16100001335144,immed,36838.99998664856,Mon May 05 2025 10:06:06 GMT-0500 (Central Daylight Time),774516.6000000238,A,l,O,l,2884,1,2900.0,771616.6000000238,7146,WL,C,10.0
7,23.27999997138977,immed,36720.00002861023,Mon May 05 2025 10:06:06 GMT-0500 (Central Daylight Time),774635.9000000358,A,le,O,e,114,1,3019.300000011921,771616.6000000238,7146,WL,C,10.0
7,23.610999822616577,immed,36389.00017738342,Mon May 05 2025 10:06:06 GMT-0500 (Central Daylight Time),774966.2000000477,A,let,O,t,319,1,3349.600000023842,771616.6000000238,7146,WL,C,10.0
7,23.76099991798401,immed,36239.00008201599,Mon May 05 2025 10:06:06 GMT-0500 (Central Daylight Time),775116.2000000477,A,lett,O,t,145,1,3499.600000023842,771616.6000000238,7146,WL,C,10.0
7,23.960999965667725,immed,36039.000034332275,Mon May 05 2025 10:06:06 GMT-0500 (Central Daylight Time),775316.4000000358,A,lette,O,e,184,1,3699.800000011921,771616.6000000238,7146,WL,C,10.0
7,24.007999897003174,immed,35992.000102996826,Mon May 05 2025 10:06:06 GMT-0500 (Central Daylight Time),775363.7000000477,A,letter,O,r,39,1,3747.100000023842,771616.6000000238,7146,WL,C,10.0
7,24.210999965667725,immed,35789.000034332275,Mon May 05 2025 10:06:06 GMT-0500 (Central Daylight Time),775566.3000000119,A,letterenter,O,enter,194,1,3949.699999988079,771616.6000000238,7146,WL,C,10.0
7,25.15999984741211,immed,34840.00015258789,Mon May 05 2025 10:06:06 GMT-0500 (Central Daylight Time),776515.1000000238,A,c,O,c,935,1,948.6000000238419,775566.5,7146,WL,C,11.0
7,25.276999950408936,immed,34723.000049591064,Mon May 05 2025 10:06:06 GMT-0500 (Central Daylight Time),776632.4000000358,A,co,O,o,104,1,1065.9000000357628,775566.5,7146,WL,C,11.0
7,25.427000045776367,immed,34572.99995422363,Mon May 05 2025 10:06:06 GMT-0500 (Central Daylight Time),776782.8000000119,A,cor,O,r,131,1,1216.300000011921,775566.5,7146,WL,C,11.0
7,26.07699990272522,immed,33923.00009727478,Mon May 05 2025 10:06:06 GMT-0500 (Central Daylight Time),777432.9000000358,A,corn,O,n,630,1,1866.4000000357628,775566.5,7146,WL,C,11.0
7,26.625999927520752,immed,33374.00007247925,Mon May 05 2025 10:06:06 GMT-0500 (Central Daylight Time),777981.3000000119,A,cornenter,O,enter,538,1,2414.800000011921,775566.5,7146,WL,C,11.0
7,28.359999895095825,immed,31640.000104904175,Mon May 05 2025 10:06:06 GMT-0500 (Central Daylight Time),779715.3000000119,A,n,O,n,1720,1,1733.699999988079,777981.6000000238,7146,WL,C,12.0
7,28.442999839782715,immed,31557.000160217285,Mon May 05 2025 10:06:06 GMT-0500 (Central Daylight Time),779798.5,A,na,O,a,72,1,1816.8999999761581,777981.6000000238,7146,WL,C,12.0
7,28.575000047683716,immed,31424.999952316284,Mon May 05 2025 10:06:06 GMT-0500 (Central Daylight Time),779930.9000000358,A,nai,O,i,116,1,1949.300000011921,777981.6000000238,7146,WL,C,12.0
7,28.692999839782715,immed,31307.000160217285,Mon May 05 2025 10:06:06 GMT-0500 (Central Daylight Time),780048.0,A,nail,O,l,105,1,2066.399999976158,777981.6000000238,7146,WL,C,12.0
7,28.991999864578247,immed,31008.000135421753,Mon May 05 2025 10:06:06 GMT-0500 (Central Daylight Time),780347.2000000477,A,nailenter,O,enter,283,1,2365.600000023842,777981.6000000238,7146,WL,C,12.0
7,29.325999975204468,immed,30674.000024795532,Mon May 05 2025 10:06:06 GMT-0500 (Central Daylight Time),780681.1000000238,A,c,O,c,316,1,333.60000002384186,780347.5,7146,WL,C,13.0
7,29.490999937057495,immed,30509.000062942505,Mon May 05 2025 10:06:06 GMT-0500 (Central Daylight Time),780847.0,A,ca,O,a,145,1,499.5,780347.5,7146,WL,C,13.0
7,29.858999967575073,immed,30141.000032424927,Mon May 05 2025 10:06:06 GMT-0500 (Central Daylight Time),781214.3000000119,A,cat,O,t,356,1,866.8000000119209,780347.5,7146,WL,C,13.0
7,30.008999824523926,immed,29991.000175476074,Mon May 05 2025 10:06:06 GMT-0500 (Central Daylight Time),781365.0,A,catt,O,t,143,1,1017.5,780347.5,7146,WL,C,13.0
7,30.22499990463257,immed,29775.00009536743,Mon May 05 2025 10:06:06 GMT-0500 (Central Daylight Time),781580.3000000119,A,cattl,O,l,196,1,1232.800000011921,780347.5,7146,WL,C,13.0
7,30.342000007629395,immed,29657.999992370605,Mon May 05 2025 10:06:06 GMT-0500 (Central Daylight Time),781697.1000000238,A,cattle,O,e,102,1,1349.6000000238419,780347.5,7146,WL,C,13.0
7,30.507999897003174,immed,29492.000102996826,Mon May 05 2025 10:06:06 GMT-0500 (Central Daylight Time),781863.6000000238,A,cattleenter,O,enter,154,1,1516.1000000238419,780347.5,7146,WL,C,13.0
7,33.81099987030029,immed,26189.000129699707,Mon May 05 2025 10:06:06 GMT-0500 (Central Daylight Time),785166.4000000358,A,s,O,s,3297,1,3302.600000023842,781863.8000000119,7146,WL,C,14.0
7,33.889999866485596,immed,26110.000133514404,Mon May 05 2025 10:06:06 GMT-0500 (Central Daylight Time),785245.4000000358,A,sh,O,h,61,1,3381.600000023842,781863.8000000119,7146,WL,C,14.0
7,33.990999937057495,immed,26009.000062942505,Mon May 05 2025 10:06:06 GMT-0500 (Central Daylight Time),785346.8000000119,A,sho,O,o,95,1,3483.0,781863.8000000119,7146,WL,C,14.0
7,34.12399983406067,immed,25876.00016593933,Mon May 05 2025 10:06:06 GMT-0500 (Central Daylight Time),785479.5,A,shor,O,r,111,1,3615.699999988079,781863.8000000119,7146,WL,C,14.0
7,34.424999952316284,immed,25575.000047683716,Mon May 05 2025 10:06:06 GMT-0500 (Central Daylight Time),785780.7000000477,A,shore,O,e,294,1,3916.900000035763,781863.8000000119,7146,WL,C,14.0
7,34.639999866485596,immed,25360.000133514404,Mon May 05 2025 10:06:06 GMT-0500 (Central Daylight Time),785995.3000000119,A,shoreenter,O,enter,191,1,4131.5,781863.8000000119,7146,WL,C,14.0
