block_c,block_dur,condition,countdown,datetime,endtime,list,multichar_response,project,response,response_time,session_number,start_end,starttime,subject_id,task,task_vers,trial
,,,,Thu Feb 20 2025 14:21:48 GMT-0600 (Central Standard Time),,,,O,space,1580,1,,,7067,WL,C,
prac,,0,,Thu Feb 20 2025 14:21:48 GMT-0600 (Central Standard Time),,NA,b,O,b,7486,1,,,7067,WL,C,1.0
prac,,0,,Thu Feb 20 2025 14:21:48 GMT-0600 (Central Standard Time),,NA,bo,O,o,771,1,,,7067,WL,C,1.0
prac,,0,,Thu Feb 20 2025 14:21:48 GMT-0600 (Central Standard Time),,NA,boo,O,o,209,1,,,7067,WL,C,1.0
prac,,0,,Thu Feb 20 2025 14:21:48 GMT-0600 (Central Standard Time),,NA,boos,O,s,690,1,,,7067,WL,C,1.0
prac,,0,,Thu Feb 20 2025 14:21:48 GMT-0600 (Central Standard Time),,NA,boost,O,t,66,1,,,7067,WL,C,1.0
prac,,0,,Thu Feb 20 2025 14:21:48 GMT-0600 (Central Standard Time),,NA,boostenter,O,enter,541,1,,,7067,WL,C,1.0
1,1.5830001831054688,learn,58416.99981689453,Thu Feb 20 2025 14:21:48 GMT-0600 (Central Standard Time),165007.30000001192,A,t,O,t,1545,1,1581.9000000357628,163425.39999997616,7067,WL,C,1.0
1,2.1490001678466797,learn,57850.99983215332,Thu Feb 20 2025 14:21:48 GMT-0600 (Central Standard Time),165573.89999997616,A,to,O,o,530,1,2148.5,163425.39999997616,7067,WL,C,1.0
1,3.0820000171661377,learn,56917.99998283386,Thu Feb 20 2025 14:21:48 GMT-0600 (Central Standard Time),166506.19999998808,A,tow,O,w,891,1,3080.800000011921,163425.39999997616,7067,WL,C,1.0
1,3.182000160217285,learn,56817.999839782715,Thu Feb 20 2025 14:21:48 GMT-0600 (Central Standard Time),166606.0,A,towe,O,e,72,1,3180.600000023842,163425.39999997616,7067,WL,C,1.0
1,3.433000087738037,learn,56566.99991226196,Thu Feb 20 2025 14:21:48 GMT-0600 (Central Standard Time),166856.89999997616,A,tower,O,r,219,1,3431.5,163425.39999997616,7067,WL,C,1.0
1,4.664000034332275,learn,55335.999965667725,Thu Feb 20 2025 14:21:48 GMT-0600 (Central Standard Time),168088.39999997616,A,towerenter,O,enter,1189,1,4663.0,163425.39999997616,7067,WL,C,1.0
1,6.430999994277954,learn,53569.000005722046,Thu Feb 20 2025 14:21:48 GMT-0600 (Central Standard Time),169855.80000001192,A,w,O,w,1748,1,1766.9000000357628,168088.89999997616,7067,WL,C,2.0
1,6.547000169754028,learn,53452.99983024597,Thu Feb 20 2025 14:21:48 GMT-0600 (Central Standard Time),169971.19999998808,A,wh,O,h,85,1,1882.300000011921,168088.89999997616,7067,WL,C,2.0
1,6.930000066757202,learn,53069.9999332428,Thu Feb 20 2025 14:21:48 GMT-0600 (Central Standard Time),170354.39999997616,A,whe,O,e,363,1,2265.5,168088.89999997616,7067,WL,C,2.0
1,7.264000177383423,learn,52735.99982261658,Thu Feb 20 2025 14:21:48 GMT-0600 (Central Standard Time),170688.30000001192,A,whea,O,a,307,1,2599.400000035763,168088.89999997616,7067,WL,C,2.0
1,7.414000034332275,learn,52585.999965667725,Thu Feb 20 2025 14:21:48 GMT-0600 (Central Standard Time),170838.39999997616,A,wheat,O,t,105,1,2749.5,168088.89999997616,7067,WL,C,2.0
1,8.313000202178955,learn,51686.999797821045,Thu Feb 20 2025 14:21:48 GMT-0600 (Central Standard Time),171737.10000002384,A,wheatenter,O,enter,869,1,3648.2000000476837,168088.89999997616,7067,WL,C,2.0
1,10.36300015449524,learn,49636.99984550476,Thu Feb 20 2025 14:21:48 GMT-0600 (Central Standard Time),173787.30000001192,A,q,O,q,2027,1,2049.800000011921,171737.5,7067,WL,C,3.0
1,10.529000043869019,learn,49470.99995613098,Thu Feb 20 2025 14:21:48 GMT-0600 (Central Standard Time),173953.69999998808,A,qu,O,u,131,1,2216.199999988079,171737.5,7067,WL,C,3.0
1,10.896000146865845,learn,49103.999853134155,Thu Feb 20 2025 14:21:48 GMT-0600 (Central Standard Time),174320.80000001192,A,que,O,e,345,1,2583.300000011921,171737.5,7067,WL,C,3.0
1,11.078999996185303,learn,48921.0000038147,Thu Feb 20 2025 14:21:48 GMT-0600 (Central Standard Time),174503.60000002384,A,quee,O,e,141,1,2766.100000023842,171737.5,7067,WL,C,3.0
1,11.77999997138977,learn,48220.00002861023,Thu Feb 20 2025 14:21:48 GMT-0600 (Central Standard Time),175204.0,A,queen,O,n,656,1,3466.5,171737.5,7067,WL,C,3.0
1,12.528000116348267,learn,47471.99988365173,Thu Feb 20 2025 14:21:48 GMT-0600 (Central Standard Time),175952.69999998808,A,queenenter,O,enter,709,1,4215.199999988079,171737.5,7067,WL,C,3.0
1,21.194000005722046,learn,38805.999994277954,Thu Feb 20 2025 14:21:48 GMT-0600 (Central Standard Time),184617.80000001192,A,b,O,b,8644,1,8664.800000011921,175953.0,7067,WL,C,4.0
1,21.358999967575073,learn,38641.00003242493,Thu Feb 20 2025 14:21:48 GMT-0600 (Central Standard Time),184783.19999998808,A,bo,O,o,133,1,8830.199999988079,175953.0,7067,WL,C,4.0
1,21.693000078201294,learn,38306.999921798706,Thu Feb 20 2025 14:21:48 GMT-0600 (Central Standard Time),185116.89999997616,A,boy,O,y,312,1,9163.899999976158,175953.0,7067,WL,C,4.0
1,22.30900001525879,learn,37690.99998474121,Thu Feb 20 2025 14:21:48 GMT-0600 (Central Standard Time),185732.60000002384,A,boyenter,O,enter,578,1,9779.600000023842,175953.0,7067,WL,C,4.0
1,24.20900011062622,learn,35790.99988937378,Thu Feb 20 2025 14:21:48 GMT-0600 (Central Standard Time),187633.0,A,d,O,d,1888,1,1900.0,185733.0,7067,WL,C,5.0
1,24.308000087738037,learn,35691.99991226196,Thu Feb 20 2025 14:21:48 GMT-0600 (Central Standard Time),187732.0,A,do,O,o,70,1,1999.0,185733.0,7067,WL,C,5.0
1,24.54200005531311,learn,35457.99994468689,Thu Feb 20 2025 14:21:48 GMT-0600 (Central Standard Time),187966.39999997616,A,doc,O,c,212,1,2233.399999976158,185733.0,7067,WL,C,5.0
1,24.79200005531311,learn,35207.99994468689,Thu Feb 20 2025 14:21:48 GMT-0600 (Central Standard Time),188216.10000002384,A,doct,O,t,214,1,2483.100000023842,185733.0,7067,WL,C,5.0
1,25.325000047683716,learn,34674.999952316284,Thu Feb 20 2025 14:21:48 GMT-0600 (Central Standard Time),188748.5,A,docto,O,o,501,1,3015.5,185733.0,7067,WL,C,5.0
1,25.875,learn,34125.0,Thu Feb 20 2025 14:21:48 GMT-0600 (Central Standard Time),189298.89999997616,A,doctor,O,r,527,1,3565.899999976158,185733.0,7067,WL,C,5.0
1,26.707000017166138,learn,33292.99998283386,Thu Feb 20 2025 14:21:48 GMT-0600 (Central Standard Time),190131.19999998808,A,doctorenter,O,enter,789,1,4398.199999988079,185733.0,7067,WL,C,5.0
1,27.94099998474121,learn,32059.00001525879,Thu Feb 20 2025 14:21:48 GMT-0600 (Central Standard Time),191365.10000002384,A,c,O,c,1225,1,1233.5,190131.60000002384,7067,WL,C,6.0
1,28.391000032424927,learn,31608.999967575073,Thu Feb 20 2025 14:21:48 GMT-0600 (Central Standard Time),191814.80000001192,A,ca,O,a,418,1,1683.199999988079,190131.60000002384,7067,WL,C,6.0
1,28.723999977111816,learn,31276.000022888184,Thu Feb 20 2025 14:21:48 GMT-0600 (Central Standard Time),192148.19999998808,A,cam,O,m,288,1,2016.5999999642372,190131.60000002384,7067,WL,C,6.0
1,29.35700011253357,learn,30642.99988746643,Thu Feb 20 2025 14:21:48 GMT-0600 (Central Standard Time),192781.30000001192,A,camp,O,p,595,1,2649.699999988079,190131.60000002384,7067,WL,C,6.0
1,32.355000019073486,learn,27644.999980926514,Thu Feb 20 2025 14:21:48 GMT-0600 (Central Standard Time),195779.19999998808,A,campenter,O,enter,2972,1,5647.599999964237,190131.60000002384,7067,WL,C,6.0
1,36.15499997138977,learn,23845.00002861023,Thu Feb 20 2025 14:21:48 GMT-0600 (Central Standard Time),199578.80000001192,A,l,O,l,3775,1,3799.199999988079,195779.60000002384,7067,WL,C,7.0
1,36.48800015449524,learn,23511.99984550476,Thu Feb 20 2025 14:21:48 GMT-0600 (Central Standard Time),199912.0,A,le,O,e,311,1,4132.399999976158,195779.60000002384,7067,WL,C,7.0
1,36.705000162124634,learn,23294.999837875366,Thu Feb 20 2025 14:21:48 GMT-0600 (Central Standard Time),200128.69999998808,A,let,O,t,186,1,4349.099999964237,195779.60000002384,7067,WL,C,7.0
1,36.87100005149841,learn,23128.999948501587,Thu Feb 20 2025 14:21:48 GMT-0600 (Central Standard Time),200295.30000001192,A,lett,O,t,126,1,4515.699999988079,195779.60000002384,7067,WL,C,7.0
1,37.021000146865845,learn,22978.999853134155,Thu Feb 20 2025 14:21:48 GMT-0600 (Central Standard Time),200444.69999998808,A,lette,O,e,117,1,4665.099999964237,195779.60000002384,7067,WL,C,7.0
1,37.15400004386902,learn,22845.99995613098,Thu Feb 20 2025 14:21:48 GMT-0600 (Central Standard Time),200578.19999998808,A,letter,O,r,102,1,4798.599999964237,195779.60000002384,7067,WL,C,7.0
1,37.837000131607056,learn,22162.999868392944,Thu Feb 20 2025 14:21:48 GMT-0600 (Central Standard Time),201260.89999997616,A,letterenter,O,enter,654,1,5481.299999952316,195779.60000002384,7067,WL,C,7.0
1,42.95300006866455,learn,17046.99993133545,Thu Feb 20 2025 14:21:48 GMT-0600 (Central Standard Time),206376.60000002384,A,n,O,n,5104,1,5115.300000011921,201261.30000001192,7067,WL,C,8.0
1,45.218000173568726,learn,14781.999826431274,Thu Feb 20 2025 14:21:48 GMT-0600 (Central Standard Time),208642.19999998808,A,na,O,a,2232,1,7380.899999976158,201261.30000001192,7067,WL,C,8.0
1,45.36900019645691,learn,14630.99980354309,Thu Feb 20 2025 14:21:48 GMT-0600 (Central Standard Time),208792.69999998808,A,nai,O,i,123,1,7531.399999976158,201261.30000001192,7067,WL,C,8.0
1,45.66799998283386,learn,14332.000017166138,Thu Feb 20 2025 14:21:48 GMT-0600 (Central Standard Time),209091.89999997616,A,nail,O,l,263,1,7830.599999964237,201261.30000001192,7067,WL,C,8.0
1,46.93400001525879,learn,13065.999984741211,Thu Feb 20 2025 14:21:48 GMT-0600 (Central Standard Time),210358.0,A,nailenter,O,enter,1242,1,9096.699999988079,201261.30000001192,7067,WL,C,8.0
1,48.151000022888184,learn,11848.999977111816,Thu Feb 20 2025 14:21:48 GMT-0600 (Central Standard Time),211574.80000001192,A,c,O,c,1207,1,1216.5,210358.30000001192,7067,WL,C,9.0
1,48.73399996757507,learn,11266.000032424927,Thu Feb 20 2025 14:21:48 GMT-0600 (Central Standard Time),212158.0,A,co,O,o,555,1,1799.699999988079,210358.30000001192,7067,WL,C,9.0
1,49.68300008773804,learn,10316.999912261963,Thu Feb 20 2025 14:21:48 GMT-0600 (Central Standard Time),213106.89999997616,A,cow,O,w,905,1,2748.599999964237,210358.30000001192,7067,WL,C,9.0
1,51.35000014305115,learn,8649.999856948853,Thu Feb 20 2025 14:21:48 GMT-0600 (Central Standard Time),214774.19999998808,A,cowenter,O,enter,1657,1,4415.899999976158,210358.30000001192,7067,WL,C,9.0
1,60.01400017738342,learn,-14.000177383422852,Thu Feb 20 2025 14:21:48 GMT-0600 (Central Standard Time),223438.0,A,None,O,None,8656,1,8663.5,214774.5,7067,WL,C,10.0
2,1.698000192642212,learn,58301.99980735779,Thu Feb 20 2025 14:21:48 GMT-0600 (Central Standard Time),305143.8000000119,A,t,O,t,1667,1,1697.0,303446.8000000119,7067,WL,C,1.0
2,1.814000129699707,learn,58185.99987030029,Thu Feb 20 2025 14:21:48 GMT-0600 (Central Standard Time),305260.10000002384,A,to,O,o,103,1,1813.300000011921,303446.8000000119,7067,WL,C,1.0
2,2.2980000972747803,learn,57701.99990272522,Thu Feb 20 2025 14:21:48 GMT-0600 (Central Standard Time),305743.89999997616,A,tow,O,w,473,1,2297.099999964237,303446.8000000119,7067,WL,C,1.0
2,2.4140000343322754,learn,57585.999965667725,Thu Feb 20 2025 14:21:48 GMT-0600 (Central Standard Time),305860.1999999881,A,towe,O,e,80,1,2413.399999976158,303446.8000000119,7067,WL,C,1.0
2,2.5810000896453857,learn,57418.999910354614,Thu Feb 20 2025 14:21:48 GMT-0600 (Central Standard Time),306027.3000000119,A,tower,O,r,145,1,2580.5,303446.8000000119,7067,WL,C,1.0
2,3.9130001068115234,learn,56086.99989318848,Thu Feb 20 2025 14:21:48 GMT-0600 (Central Standard Time),307359.5,A,towerenter,O,enter,1305,1,3912.699999988079,303446.8000000119,7067,WL,C,1.0
2,5.04800009727478,learn,54951.99990272522,Thu Feb 20 2025 14:21:48 GMT-0600 (Central Standard Time),308494.0,A,w,O,w,1126,1,1134.199999988079,307359.8000000119,7067,WL,C,2.0
2,5.180000066757202,learn,54819.9999332428,Thu Feb 20 2025 14:21:48 GMT-0600 (Central Standard Time),308626.10000002384,A,wh,O,h,101,1,1266.300000011921,307359.8000000119,7067,WL,C,2.0
2,5.547000169754028,learn,54452.99983024597,Thu Feb 20 2025 14:21:48 GMT-0600 (Central Standard Time),308993.3000000119,A,whe,O,e,349,1,1633.5,307359.8000000119,7067,WL,C,2.0
2,5.996999979019165,learn,54003.000020980835,Thu Feb 20 2025 14:21:48 GMT-0600 (Central Standard Time),309442.60000002384,A,whea,O,a,408,1,2082.800000011921,307359.8000000119,7067,WL,C,2.0
2,6.129000186920166,learn,53870.999813079834,Thu Feb 20 2025 14:21:48 GMT-0600 (Central Standard Time),309575.60000002384,A,wheat,O,t,115,1,2215.800000011921,307359.8000000119,7067,WL,C,2.0
2,6.613000154495239,learn,53386.99984550476,Thu Feb 20 2025 14:21:48 GMT-0600 (Central Standard Time),310058.8000000119,A,wheatenter,O,enter,452,1,2699.0,307359.8000000119,7067,WL,C,2.0
2,7.979000091552734,learn,52020.999908447266,Thu Feb 20 2025 14:21:48 GMT-0600 (Central Standard Time),311425.5,A,q,O,q,1346,1,1366.3999999761581,310059.10000002384,7067,WL,C,3.0
2,8.146000146865845,learn,51853.999853134155,Thu Feb 20 2025 14:21:48 GMT-0600 (Central Standard Time),311592.10000002384,A,qu,O,u,125,1,1533.0,310059.10000002384,7067,WL,C,3.0
2,9.945000171661377,learn,50054.99982833862,Thu Feb 20 2025 14:21:48 GMT-0600 (Central Standard Time),313391.5,A,que,O,e,1766,1,3332.399999976158,310059.10000002384,7067,WL,C,3.0
2,10.144999980926514,learn,49855.000019073486,Thu Feb 20 2025 14:21:48 GMT-0600 (Central Standard Time),313591.39999997616,A,quee,O,e,175,1,3532.2999999523163,310059.10000002384,7067,WL,C,3.0
2,10.279000043869019,learn,49720.99995613098,Thu Feb 20 2025 14:21:48 GMT-0600 (Central Standard Time),313724.60000002384,A,queen,O,n,99,1,3665.5,310059.10000002384,7067,WL,C,3.0
2,11.144000053405762,learn,48855.99994659424,Thu Feb 20 2025 14:21:48 GMT-0600 (Central Standard Time),314590.39999997616,A,queenenter,O,enter,826,1,4531.299999952316,310059.10000002384,7067,WL,C,3.0
2,12.328999996185303,learn,47671.0000038147,Thu Feb 20 2025 14:21:48 GMT-0600 (Central Standard Time),315775.5,A,s,O,s,1174,1,1184.800000011921,314590.6999999881,7067,WL,C,4.0
2,12.460999965667725,learn,47539.000034332275,Thu Feb 20 2025 14:21:48 GMT-0600 (Central Standard Time),315906.89999997616,A,su,O,u,95,1,1316.199999988079,314590.6999999881,7067,WL,C,4.0
2,13.110000133514404,learn,46889.999866485596,Thu Feb 20 2025 14:21:48 GMT-0600 (Central Standard Time),316556.3000000119,A,sug,O,g,634,1,1965.6000000238419,314590.6999999881,7067,WL,C,4.0
2,13.294000148773193,learn,46705.99985122681,Thu Feb 20 2025 14:21:48 GMT-0600 (Central Standard Time),316740.10000002384,A,suga,O,a,165,1,2149.400000035763,314590.6999999881,7067,WL,C,4.0
2,13.476999998092651,learn,46523.00000190735,Thu Feb 20 2025 14:21:48 GMT-0600 (Central Standard Time),316923.0,A,sugar,O,r,149,1,2332.300000011921,314590.6999999881,7067,WL,C,4.0
2,14.427000045776367,learn,45572.99995422363,Thu Feb 20 2025 14:21:48 GMT-0600 (Central Standard Time),317872.60000002384,A,sugarenter,O,enter,937,1,3281.900000035763,314590.6999999881,7067,WL,C,4.0
2,14.960999965667725,learn,45039.000034332275,Thu Feb 20 2025 14:21:48 GMT-0600 (Central Standard Time),318406.8000000119,A,h,O,h,517,1,533.9000000357628,317872.89999997616,7067,WL,C,5.0
2,15.277000188827515,learn,44722.999811172485,Thu Feb 20 2025 14:21:48 GMT-0600 (Central Standard Time),318723.39999997616,A,ho,O,o,282,1,850.5,317872.89999997616,7067,WL,C,5.0
2,16.042999982833862,learn,43957.00001716614,Thu Feb 20 2025 14:21:48 GMT-0600 (Central Standard Time),319489.39999997616,A,hom,O,m,725,1,1616.5,317872.89999997616,7067,WL,C,5.0
2,16.193000078201294,learn,43806.999921798706,Thu Feb 20 2025 14:21:48 GMT-0600 (Central Standard Time),319639.1999999881,A,home,O,e,118,1,1766.300000011921,317872.89999997616,7067,WL,C,5.0
2,17.29200005531311,learn,42707.99994468689,Thu Feb 20 2025 14:21:48 GMT-0600 (Central Standard Time),320738.39999997616,A,homeenter,O,enter,1061,1,2865.5,317872.89999997616,7067,WL,C,5.0
2,19.676000118255615,learn,40323.999881744385,Thu Feb 20 2025 14:21:48 GMT-0600 (Central Standard Time),323121.8000000119,A,b,O,b,2371,1,2383.100000023842,320738.6999999881,7067,WL,C,6.0
2,19.892000198364258,learn,40107.99980163574,Thu Feb 20 2025 14:21:48 GMT-0600 (Central Standard Time),323338.3000000119,A,bo,O,o,182,1,2599.600000023842,320738.6999999881,7067,WL,C,6.0
2,20.342000007629395,learn,39657.999992370605,Thu Feb 20 2025 14:21:48 GMT-0600 (Central Standard Time),323788.1999999881,A,boy,O,y,416,1,3049.5,320738.6999999881,7067,WL,C,6.0
2,21.924000024795532,learn,38075.99997520447,Thu Feb 20 2025 14:21:48 GMT-0600 (Central Standard Time),325370.39999997616,A,boyenter,O,enter,1540,1,4631.699999988079,320738.6999999881,7067,WL,C,6.0
2,23.091000080108643,learn,36908.99991989136,Thu Feb 20 2025 14:21:48 GMT-0600 (Central Standard Time),326537.39999997616,A,d,O,d,1155,1,1166.7999999523163,325370.60000002384,7067,WL,C,7.0
2,23.241000175476074,learn,36758.999824523926,Thu Feb 20 2025 14:21:48 GMT-0600 (Central Standard Time),326687.5,A,do,O,o,118,1,1316.8999999761581,325370.60000002384,7067,WL,C,7.0
2,23.473999977111816,learn,36526.00002288818,Thu Feb 20 2025 14:21:48 GMT-0600 (Central Standard Time),326920.39999997616,A,doc,O,c,194,1,1549.7999999523163,325370.60000002384,7067,WL,C,7.0
2,23.975000143051147,learn,36024.99985694885,Thu Feb 20 2025 14:21:48 GMT-0600 (Central Standard Time),327421.39999997616,A,doct,O,t,478,1,2050.7999999523163,325370.60000002384,7067,WL,C,7.0
2,24.141000032424927,learn,35858.99996757507,Thu Feb 20 2025 14:21:48 GMT-0600 (Central Standard Time),327587.10000002384,A,docto,O,o,123,1,2216.5,325370.60000002384,7067,WL,C,7.0
2,25.124000072479248,learn,34875.99992752075,Thu Feb 20 2025 14:21:48 GMT-0600 (Central Standard Time),328569.60000002384,A,doctor,O,r,953,1,3199.0,325370.60000002384,7067,WL,C,7.0
2,25.823000192642212,learn,34176.99980735779,Thu Feb 20 2025 14:21:48 GMT-0600 (Central Standard Time),329268.8000000119,A,doctorenter,O,enter,681,1,3898.199999988079,325370.60000002384,7067,WL,C,7.0
2,26.69000005722046,learn,33309.99994277954,Thu Feb 20 2025 14:21:48 GMT-0600 (Central Standard Time),330135.89999997616,A,c,O,c,856,1,866.7999999523163,329269.10000002384,7067,WL,C,8.0
2,27.290000200271606,learn,32709.999799728394,Thu Feb 20 2025 14:21:48 GMT-0600 (Central Standard Time),330736.1999999881,A,ca,O,a,560,1,1467.0999999642372,329269.10000002384,7067,WL,C,8.0
2,27.390000104904175,learn,32609.999895095825,Thu Feb 20 2025 14:21:48 GMT-0600 (Central Standard Time),330835.6999999881,A,cam,O,m,71,1,1566.5999999642372,329269.10000002384,7067,WL,C,8.0
2,27.790000200271606,learn,32209.999799728394,Thu Feb 20 2025 14:21:48 GMT-0600 (Central Standard Time),331235.8000000119,A,camp,O,p,370,1,1966.699999988079,329269.10000002384,7067,WL,C,8.0
2,28.788000106811523,learn,31211.999893188477,Thu Feb 20 2025 14:21:48 GMT-0600 (Central Standard Time),332234.5,A,campenter,O,enter,955,1,2965.399999976158,329269.10000002384,7067,WL,C,8.0
2,30.6560001373291,learn,29343.9998626709,Thu Feb 20 2025 14:21:48 GMT-0600 (Central Standard Time),334101.8000000119,A,f,O,f,1860,1,1867.0,332234.8000000119,7067,WL,C,9.0
2,30.805000066757202,learn,29194.999933242798,Thu Feb 20 2025 14:21:48 GMT-0600 (Central Standard Time),334250.8000000119,A,fl,O,l,114,1,2016.0,332234.8000000119,7067,WL,C,9.0
2,31.271000146865845,learn,28728.999853134155,Thu Feb 20 2025 14:21:48 GMT-0600 (Central Standard Time),334717.39999997616,A,fla,O,a,449,1,2482.599999964237,332234.8000000119,7067,WL,C,9.0
2,31.42200016975403,learn,28577.99983024597,Thu Feb 20 2025 14:21:48 GMT-0600 (Central Standard Time),334867.8000000119,A,flag,O,g,128,1,2633.0,332234.8000000119,7067,WL,C,9.0
2,33.78700017929077,learn,26212.99982070923,Thu Feb 20 2025 14:21:48 GMT-0600 (Central Standard Time),337233.10000002384,A,flagenter,O,enter,2329,1,4998.300000011921,332234.8000000119,7067,WL,C,9.0
2,34.65400004386902,learn,25345.99995613098,Thu Feb 20 2025 14:21:48 GMT-0600 (Central Standard Time),338100.3000000119,A,l,O,l,860,1,867.0,337233.3000000119,7067,WL,C,10.0
2,34.937000036239624,learn,25062.999963760376,Thu Feb 20 2025 14:21:48 GMT-0600 (Central Standard Time),338383.39999997616,A,le,O,e,262,1,1150.0999999642372,337233.3000000119,7067,WL,C,10.0
2,35.2039999961853,learn,24796.000003814697,Thu Feb 20 2025 14:21:48 GMT-0600 (Central Standard Time),338650.0,A,let,O,t,225,1,1416.699999988079,337233.3000000119,7067,WL,C,10.0
2,35.38700008392334,learn,24612.99991607666,Thu Feb 20 2025 14:21:48 GMT-0600 (Central Standard Time),338833.1999999881,A,lett,O,t,147,1,1599.8999999761581,337233.3000000119,7067,WL,C,10.0
2,35.53700017929077,learn,24462.99982070923,Thu Feb 20 2025 14:21:48 GMT-0600 (Central Standard Time),338982.89999997616,A,lette,O,e,126,1,1749.5999999642372,337233.3000000119,7067,WL,C,10.0
2,35.70300006866455,learn,24296.99993133545,Thu Feb 20 2025 14:21:48 GMT-0600 (Central Standard Time),339149.10000002384,A,letter,O,r,137,1,1915.800000011921,337233.3000000119,7067,WL,C,10.0
2,36.40300011634827,learn,23596.999883651733,Thu Feb 20 2025 14:21:48 GMT-0600 (Central Standard Time),339848.6999999881,A,letterenter,O,enter,669,1,2615.399999976158,337233.3000000119,7067,WL,C,10.0
2,40.569000005722046,learn,19430.999994277954,Thu Feb 20 2025 14:21:48 GMT-0600 (Central Standard Time),344015.3000000119,A,n,O,n,4157,1,4166.400000035763,339848.89999997616,7067,WL,C,11.0
2,40.96900010108948,learn,19030.999898910522,Thu Feb 20 2025 14:21:48 GMT-0600 (Central Standard Time),344414.6999999881,A,na,O,a,362,1,4565.800000011921,339848.89999997616,7067,WL,C,11.0
2,41.152000188827515,learn,18847.999811172485,Thu Feb 20 2025 14:21:48 GMT-0600 (Central Standard Time),344597.6999999881,A,nai,O,i,162,1,4748.800000011921,339848.89999997616,7067,WL,C,11.0
2,41.43500018119812,learn,18564.99981880188,Thu Feb 20 2025 14:21:48 GMT-0600 (Central Standard Time),344881.39999997616,A,nail,O,l,251,1,5032.5,339848.89999997616,7067,WL,C,11.0
2,42.43400001525879,learn,17565.99998474121,Thu Feb 20 2025 14:21:48 GMT-0600 (Central Standard Time),345880.0,A,nailenter,O,enter,968,1,6031.100000023842,339848.89999997616,7067,WL,C,11.0
2,43.968000173568726,learn,16031.999826431274,Thu Feb 20 2025 14:21:48 GMT-0600 (Central Standard Time),347413.89999997616,A,c,O,c,1526,1,1533.5,345880.39999997616,7067,WL,C,12.0
2,44.134000062942505,learn,15865.999937057495,Thu Feb 20 2025 14:21:48 GMT-0600 (Central Standard Time),347580.3000000119,A,ca,O,a,131,1,1699.9000000357628,345880.39999997616,7067,WL,C,12.0
2,44.801000118255615,learn,15198.999881744385,Thu Feb 20 2025 14:21:48 GMT-0600 (Central Standard Time),348246.6999999881,A,cat,O,t,630,1,2366.300000011921,345880.39999997616,7067,WL,C,12.0
2,44.985000133514404,learn,15014.999866485596,Thu Feb 20 2025 14:21:48 GMT-0600 (Central Standard Time),348430.8000000119,A,catt,O,t,150,1,2550.400000035763,345880.39999997616,7067,WL,C,12.0
2,45.16799998283386,learn,14832.000017166138,Thu Feb 20 2025 14:21:48 GMT-0600 (Central Standard Time),348614.0,A,cattl,O,l,147,1,2733.600000023842,345880.39999997616,7067,WL,C,12.0
2,45.651000022888184,learn,14348.999977111816,Thu Feb 20 2025 14:21:48 GMT-0600 (Central Standard Time),349097.10000002384,A,cattle,O,e,441,1,3216.7000000476837,345880.39999997616,7067,WL,C,12.0
2,46.848999977111816,learn,13151.000022888184,Thu Feb 20 2025 14:21:48 GMT-0600 (Central Standard Time),350295.1999999881,A,cattleenter,O,enter,1157,1,4414.800000011921,345880.39999997616,7067,WL,C,12.0
2,60.01300001144409,learn,-13.000011444091797,Thu Feb 20 2025 14:21:48 GMT-0600 (Central Standard Time),363458.5,A,None,O,None,13155,1,13162.800000011921,350295.6999999881,7067,WL,C,13.0
3,3.6630001068115234,learn,56336.99989318848,Thu Feb 20 2025 14:21:48 GMT-0600 (Central Standard Time),441982.6999999881,A,t,O,t,3646,1,3662.899999976158,438319.8000000119,7067,WL,C,1.0
3,4.230000019073486,learn,55769.999980926514,Thu Feb 20 2025 14:21:48 GMT-0600 (Central Standard Time),442549.1999999881,A,to,O,o,528,1,4229.399999976158,438319.8000000119,7067,WL,C,1.0
3,4.713000059127808,learn,55286.99994087219,Thu Feb 20 2025 14:21:48 GMT-0600 (Central Standard Time),443032.3000000119,A,tow,O,w,443,1,4712.5,438319.8000000119,7067,WL,C,1.0
3,4.829999923706055,learn,55170.000076293945,Thu Feb 20 2025 14:21:48 GMT-0600 (Central Standard Time),443149.5,A,towe,O,e,89,1,4829.699999988079,438319.8000000119,7067,WL,C,1.0
3,5.046000003814697,learn,54953.9999961853,Thu Feb 20 2025 14:21:48 GMT-0600 (Central Standard Time),443365.39999997616,A,tower,O,r,179,1,5045.599999964237,438319.8000000119,7067,WL,C,1.0
3,5.878999948501587,learn,54121.00005149841,Thu Feb 20 2025 14:21:48 GMT-0600 (Central Standard Time),444197.89999997616,A,towerenter,O,enter,816,1,5878.099999964237,438319.8000000119,7067,WL,C,1.0
3,6.930000066757202,learn,53069.9999332428,Thu Feb 20 2025 14:21:48 GMT-0600 (Central Standard Time),445249.0,A,w,O,w,1040,1,1050.8999999761581,444198.10000002384,7067,WL,C,2.0
3,7.045000076293945,learn,52954.999923706055,Thu Feb 20 2025 14:21:48 GMT-0600 (Central Standard Time),445364.1999999881,A,wh,O,h,87,1,1166.0999999642372,444198.10000002384,7067,WL,C,2.0
3,7.378999948501587,learn,52621.00005149841,Thu Feb 20 2025 14:21:48 GMT-0600 (Central Standard Time),445698.6999999881,A,whe,O,e,307,1,1500.5999999642372,444198.10000002384,7067,WL,C,2.0
3,7.5290000438690186,learn,52470.99995613098,Thu Feb 20 2025 14:21:48 GMT-0600 (Central Standard Time),445848.10000002384,A,whea,O,a,117,1,1650.0,444198.10000002384,7067,WL,C,2.0
3,7.711999893188477,learn,52288.00010681152,Thu Feb 20 2025 14:21:48 GMT-0600 (Central Standard Time),446031.5,A,wheat,O,t,144,1,1833.3999999761581,444198.10000002384,7067,WL,C,2.0
3,8.611000061035156,learn,51388.999938964844,Thu Feb 20 2025 14:21:48 GMT-0600 (Central Standard Time),446930.3000000119,A,wheatenter,O,enter,856,1,2732.199999988079,444198.10000002384,7067,WL,C,2.0
3,9.694000005722046,learn,50305.999994277954,Thu Feb 20 2025 14:21:48 GMT-0600 (Central Standard Time),448013.8000000119,A,q,O,q,1075,1,1083.199999988079,446930.60000002384,7067,WL,C,3.0
3,9.811000108718872,learn,50188.99989128113,Thu Feb 20 2025 14:21:48 GMT-0600 (Central Standard Time),448130.10000002384,A,qu,O,u,83,1,1199.5,446930.60000002384,7067,WL,C,3.0
3,10.32800006866455,learn,49671.99993133545,Thu Feb 20 2025 14:21:48 GMT-0600 (Central Standard Time),448647.0,A,que,O,e,500,1,1716.3999999761581,446930.60000002384,7067,WL,C,3.0
3,10.510999917984009,learn,49489.00008201599,Thu Feb 20 2025 14:21:48 GMT-0600 (Central Standard Time),448830.39999997616,A,quee,O,e,155,1,1899.7999999523163,446930.60000002384,7067,WL,C,3.0
3,10.66100001335144,learn,49338.99998664856,Thu Feb 20 2025 14:21:48 GMT-0600 (Central Standard Time),448980.5,A,queen,O,n,109,1,2049.899999976158,446930.60000002384,7067,WL,C,3.0
3,13.176000118255615,learn,46823.999881744385,Thu Feb 20 2025 14:21:48 GMT-0600 (Central Standard Time),451495.5,A,queenenter,O,enter,2485,1,4564.899999976158,446930.60000002384,7067,WL,C,3.0
3,14.693000078201294,learn,45306.999921798706,Thu Feb 20 2025 14:21:48 GMT-0600 (Central Standard Time),453012.8000000119,A,s,O,s,1501,1,1517.1000000238419,451495.6999999881,7067,WL,C,4.0
3,14.825999975204468,learn,45174.00002479553,Thu Feb 20 2025 14:21:48 GMT-0600 (Central Standard Time),453145.1999999881,A,su,O,u,99,1,1649.5,451495.6999999881,7067,WL,C,4.0
3,15.210000038146973,learn,44789.99996185303,Thu Feb 20 2025 14:21:48 GMT-0600 (Central Standard Time),453529.0,A,sug,O,g,355,1,2033.300000011921,451495.6999999881,7067,WL,C,4.0
3,15.441999912261963,learn,44558.00008773804,Thu Feb 20 2025 14:21:48 GMT-0600 (Central Standard Time),453761.6999999881,A,suga,O,a,204,1,2266.0,451495.6999999881,7067,WL,C,4.0
3,15.592999935150146,learn,44407.00006484985,Thu Feb 20 2025 14:21:48 GMT-0600 (Central Standard Time),453912.6999999881,A,sugar,O,r,125,1,2417.0,451495.6999999881,7067,WL,C,4.0
3,16.29200005531311,learn,43707.99994468689,Thu Feb 20 2025 14:21:48 GMT-0600 (Central Standard Time),454611.10000002384,A,sugarenter,O,enter,656,1,3115.400000035763,451495.6999999881,7067,WL,C,4.0
3,17.77500009536743,learn,42224.99990463257,Thu Feb 20 2025 14:21:48 GMT-0600 (Central Standard Time),456094.6999999881,A,h,O,h,1474,1,1483.199999988079,454611.5,7067,WL,C,5.0
3,17.908999919891357,learn,42091.00008010864,Thu Feb 20 2025 14:21:48 GMT-0600 (Central Standard Time),456228.60000002384,A,ho,O,o,109,1,1617.1000000238419,454611.5,7067,WL,C,5.0
3,18.342000007629395,learn,41657.999992370605,Thu Feb 20 2025 14:21:48 GMT-0600 (Central Standard Time),456661.1999999881,A,hom,O,m,396,1,2049.699999988079,454611.5,7067,WL,C,5.0
3,18.55900001525879,learn,41440.99998474121,Thu Feb 20 2025 14:21:48 GMT-0600 (Central Standard Time),456877.8000000119,A,home,O,e,181,1,2266.300000011921,454611.5,7067,WL,C,5.0
3,19.141000032424927,learn,40858.99996757507,Thu Feb 20 2025 14:21:48 GMT-0600 (Central Standard Time),457460.10000002384,A,homeenter,O,enter,549,1,2848.600000023842,454611.5,7067,WL,C,5.0
3,20.240999937057495,learn,39759.000062942505,Thu Feb 20 2025 14:21:48 GMT-0600 (Central Standard Time),458559.89999997616,A,b,O,b,1080,1,1099.5,457460.39999997616,7067,WL,C,6.0
3,20.407000064849854,learn,39592.99993515015,Thu Feb 20 2025 14:21:48 GMT-0600 (Central Standard Time),458726.3000000119,A,bo,O,o,155,1,1265.9000000357628,457460.39999997616,7067,WL,C,6.0
3,20.756999969482422,learn,39243.00003051758,Thu Feb 20 2025 14:21:48 GMT-0600 (Central Standard Time),459076.3000000119,A,boy,O,y,342,1,1615.9000000357628,457460.39999997616,7067,WL,C,6.0
3,21.44000005722046,learn,38559.99994277954,Thu Feb 20 2025 14:21:48 GMT-0600 (Central Standard Time),459759.60000002384,A,boyenter,O,enter,671,1,2299.2000000476837,457460.39999997616,7067,WL,C,6.0
3,23.756999969482422,learn,36243.00003051758,Thu Feb 20 2025 14:21:48 GMT-0600 (Central Standard Time),462076.6999999881,A,d,O,d,2309,1,2316.899999976158,459759.8000000119,7067,WL,C,7.0
3,23.907000064849854,learn,36092.99993515015,Thu Feb 20 2025 14:21:48 GMT-0600 (Central Standard Time),462225.8000000119,A,do,O,o,106,1,2466.0,459759.8000000119,7067,WL,C,7.0
3,24.08999991416931,learn,35910.00008583069,Thu Feb 20 2025 14:21:48 GMT-0600 (Central Standard Time),462409.10000002384,A,doc,O,c,144,1,2649.300000011921,459759.8000000119,7067,WL,C,7.0
3,24.42300009727478,learn,35576.99990272522,Thu Feb 20 2025 14:21:48 GMT-0600 (Central Standard Time),462742.39999997616,A,doct,O,t,311,1,2982.599999964237,459759.8000000119,7067,WL,C,7.0
3,24.94000005722046,learn,35059.99994277954,Thu Feb 20 2025 14:21:48 GMT-0600 (Central Standard Time),463259.0,A,docto,O,o,495,1,3499.199999988079,459759.8000000119,7067,WL,C,7.0
3,25.75600004196167,learn,34243.99995803833,Thu Feb 20 2025 14:21:48 GMT-0600 (Central Standard Time),464075.6999999881,A,doctor,O,r,782,1,4315.899999976158,459759.8000000119,7067,WL,C,7.0
3,25.890000104904175,learn,34109.999895095825,Thu Feb 20 2025 14:21:48 GMT-0600 (Central Standard Time),464209.0,A,doctory,O,y,93,1,4449.199999988079,459759.8000000119,7067,WL,C,7.0
3,27.022000074386597,learn,32977.9999256134,Thu Feb 20 2025 14:21:48 GMT-0600 (Central Standard Time),465341.6999999881,A,doctor,O,backspace,1097,1,5581.899999976158,459759.8000000119,7067,WL,C,7.0
3,27.687999963760376,learn,32312.000036239624,Thu Feb 20 2025 14:21:48 GMT-0600 (Central Standard Time),466007.6999999881,A,doctorenter,O,enter,632,1,6247.899999976158,459759.8000000119,7067,WL,C,7.0
3,28.92199993133545,learn,31078.00006866455,Thu Feb 20 2025 14:21:48 GMT-0600 (Central Standard Time),467241.10000002384,A,c,O,c,1214,1,1233.1000000238419,466008.0,7067,WL,C,8.0
3,29.638999938964844,learn,30361.000061035156,Thu Feb 20 2025 14:21:48 GMT-0600 (Central Standard Time),467958.0,A,ca,O,a,687,1,1950.0,466008.0,7067,WL,C,8.0
3,29.755000114440918,learn,30244.999885559082,Thu Feb 20 2025 14:21:48 GMT-0600 (Central Standard Time),468074.10000002384,A,cam,O,m,75,1,2066.100000023842,466008.0,7067,WL,C,8.0
3,30.138000011444092,learn,29861.99998855591,Thu Feb 20 2025 14:21:48 GMT-0600 (Central Standard Time),468457.3000000119,A,camp,O,p,354,1,2449.300000011921,466008.0,7067,WL,C,8.0
3,31.786999940872192,learn,28213.000059127808,Thu Feb 20 2025 14:21:48 GMT-0600 (Central Standard Time),470106.1999999881,A,campenter,O,enter,1618,1,4098.199999988079,466008.0,7067,WL,C,8.0
3,33.58699989318848,learn,26413.000106811523,Thu Feb 20 2025 14:21:48 GMT-0600 (Central Standard Time),471906.6999999881,A,f,O,f,1779,1,1800.0999999642372,470106.60000002384,7067,WL,C,9.0
3,33.72000002861023,learn,26279.99997138977,Thu Feb 20 2025 14:21:48 GMT-0600 (Central Standard Time),472039.0,A,fl,O,l,105,1,1932.3999999761581,470106.60000002384,7067,WL,C,9.0
3,34.28699994087219,learn,25713.000059127808,Thu Feb 20 2025 14:21:48 GMT-0600 (Central Standard Time),472606.39999997616,A,fla,O,a,550,1,2499.7999999523163,470106.60000002384,7067,WL,C,9.0
3,34.4539999961853,learn,25546.000003814697,Thu Feb 20 2025 14:21:48 GMT-0600 (Central Standard Time),472772.8000000119,A,flag,O,g,131,1,2666.199999988079,470106.60000002384,7067,WL,C,9.0
3,35.13599991798401,learn,24864.00008201599,Thu Feb 20 2025 14:21:48 GMT-0600 (Central Standard Time),473455.0,A,flagenter,O,enter,645,1,3348.399999976158,470106.60000002384,7067,WL,C,9.0
3,36.28600001335144,learn,23713.99998664856,Thu Feb 20 2025 14:21:48 GMT-0600 (Central Standard Time),474605.39999997616,A,l,O,l,1142,1,1150.199999988079,473455.1999999881,7067,WL,C,10.0
3,36.53600001335144,learn,23463.99998664856,Thu Feb 20 2025 14:21:48 GMT-0600 (Central Standard Time),474854.8000000119,A,le,O,e,220,1,1399.6000000238419,473455.1999999881,7067,WL,C,10.0
3,36.80200004577637,learn,23197.999954223633,Thu Feb 20 2025 14:21:48 GMT-0600 (Central Standard Time),475121.8000000119,A,let,O,t,242,1,1666.6000000238419,473455.1999999881,7067,WL,C,10.0
3,36.96900010108948,learn,23030.999898910522,Thu Feb 20 2025 14:21:48 GMT-0600 (Central Standard Time),475288.6999999881,A,lett,O,t,142,1,1833.5,473455.1999999881,7067,WL,C,10.0
3,37.13499999046326,learn,22865.000009536743,Thu Feb 20 2025 14:21:48 GMT-0600 (Central Standard Time),475454.60000002384,A,lette,O,e,128,1,1999.4000000357628,473455.1999999881,7067,WL,C,10.0
3,37.269999980926514,learn,22730.000019073486,Thu Feb 20 2025 14:21:48 GMT-0600 (Central Standard Time),475589.1999999881,A,letter,O,r,119,1,2134.0,473455.1999999881,7067,WL,C,10.0
3,38.95099997520447,learn,21049.000024795532,Thu Feb 20 2025 14:21:48 GMT-0600 (Central Standard Time),477270.39999997616,A,letterenter,O,enter,1651,1,3815.199999988079,473455.1999999881,7067,WL,C,10.0
3,39.95199990272522,learn,20048.00009727478,Thu Feb 20 2025 14:21:48 GMT-0600 (Central Standard Time),478270.60000002384,A,c,O,c,991,1,999.9000000357628,477270.6999999881,7067,WL,C,11.0
3,40.08500003814697,learn,19914.999961853027,Thu Feb 20 2025 14:21:48 GMT-0600 (Central Standard Time),478403.6999999881,A,co,O,o,97,1,1133.0,477270.6999999881,7067,WL,C,11.0
3,40.651999950408936,learn,19348.000049591064,Thu Feb 20 2025 14:21:48 GMT-0600 (Central Standard Time),478970.5,A,cor,O,r,534,1,1699.800000011921,477270.6999999881,7067,WL,C,11.0
3,40.78500008583069,learn,19214.99991416931,Thu Feb 20 2025 14:21:48 GMT-0600 (Central Standard Time),479104.39999997616,A,corn,O,n,103,1,1833.699999988079,477270.6999999881,7067,WL,C,11.0
3,41.43400001525879,learn,18565.99998474121,Thu Feb 20 2025 14:21:48 GMT-0600 (Central Standard Time),479753.0,A,cornenter,O,enter,619,1,2482.300000011921,477270.6999999881,7067,WL,C,11.0
3,42.70099997520447,learn,17299.000024795532,Thu Feb 20 2025 14:21:48 GMT-0600 (Central Standard Time),481020.3000000119,A,c,O,c,1254,1,1267.0,479753.3000000119,7067,WL,C,12.0
3,42.8510000705719,learn,17148.9999294281,Thu Feb 20 2025 14:21:48 GMT-0600 (Central Standard Time),481169.5,A,ca,O,a,109,1,1416.199999988079,479753.3000000119,7067,WL,C,12.0
3,43.16799998283386,learn,16832.000017166138,Thu Feb 20 2025 14:21:48 GMT-0600 (Central Standard Time),481486.39999997616,A,cat,O,t,300,1,1733.0999999642372,479753.3000000119,7067,WL,C,12.0
3,43.33500003814697,learn,16664.999961853027,Thu Feb 20 2025 14:21:48 GMT-0600 (Central Standard Time),481653.39999997616,A,catt,O,t,139,1,1900.0999999642372,479753.3000000119,7067,WL,C,12.0
3,44.03500008583069,learn,15964.999914169312,Thu Feb 20 2025 14:21:48 GMT-0600 (Central Standard Time),482353.60000002384,A,cattl,O,l,660,1,2600.300000011921,479753.3000000119,7067,WL,C,12.0
3,44.18400001525879,learn,15815.999984741211,Thu Feb 20 2025 14:21:48 GMT-0600 (Central Standard Time),482502.60000002384,A,cattle,O,e,120,1,2749.300000011921,479753.3000000119,7067,WL,C,12.0
3,45.91600012779236,learn,14083.999872207642,Thu Feb 20 2025 14:21:48 GMT-0600 (Central Standard Time),484234.6999999881,A,cattleenter,O,enter,1699,1,4481.399999976158,479753.3000000119,7067,WL,C,12.0
3,50.83200001716614,learn,9167.999982833862,Thu Feb 20 2025 14:21:48 GMT-0600 (Central Standard Time),489150.5,A,n,O,n,4908,1,4915.5,484235.0,7067,WL,C,13.0
3,51.48200011253357,learn,8517.99988746643,Thu Feb 20 2025 14:21:48 GMT-0600 (Central Standard Time),489800.8000000119,A,na,O,a,612,1,5565.800000011921,484235.0,7067,WL,C,13.0
3,51.598999977111816,learn,8401.000022888184,Thu Feb 20 2025 14:21:48 GMT-0600 (Central Standard Time),489917.39999997616,A,nai,O,i,82,1,5682.399999976158,484235.0,7067,WL,C,13.0
3,51.88199996948242,learn,8118.000030517578,Thu Feb 20 2025 14:21:48 GMT-0600 (Central Standard Time),490200.39999997616,A,nail,O,l,251,1,5965.399999976158,484235.0,7067,WL,C,13.0
3,53.88000011444092,learn,6119.999885559082,Thu Feb 20 2025 14:21:48 GMT-0600 (Central Standard Time),492198.8000000119,A,nailenter,O,enter,1969,1,7963.800000011921,484235.0,7067,WL,C,13.0
3,56.430999994277954,learn,3569.000005722046,Thu Feb 20 2025 14:21:48 GMT-0600 (Central Standard Time),494749.89999997616,A,b,O,b,2543,1,2550.7999999523163,492199.10000002384,7067,WL,C,14.0
3,56.61400008201599,learn,3385.999917984009,Thu Feb 20 2025 14:21:48 GMT-0600 (Central Standard Time),494932.60000002384,A,bo,O,o,138,1,2733.5,492199.10000002384,7067,WL,C,14.0
3,57.63000011444092,learn,2369.999885559082,Thu Feb 20 2025 14:21:48 GMT-0600 (Central Standard Time),495948.89999997616,A,bod,O,d,981,1,3749.7999999523163,492199.10000002384,7067,WL,C,14.0
3,57.746999979019165,learn,2253.000020980835,Thu Feb 20 2025 14:21:48 GMT-0600 (Central Standard Time),496065.5,A,body,O,y,77,1,3866.399999976158,492199.10000002384,7067,WL,C,14.0
3,58.77900004386902,learn,1220.9999561309814,Thu Feb 20 2025 14:21:48 GMT-0600 (Central Standard Time),497097.5,A,bodyenter,O,enter,1000,1,4898.399999976158,492199.10000002384,7067,WL,C,14.0
3,60.01200008392334,learn,-12.000083923339844,Thu Feb 20 2025 14:21:48 GMT-0600 (Central Standard Time),498331.3000000119,A,None,O,None,1227,1,1233.4000000357628,497097.89999997616,7067,WL,C,15.0
4,1.9160001277923584,learn,58083.99987220764,Thu Feb 20 2025 14:21:48 GMT-0600 (Central Standard Time),583969.8999999762,A,w,O,w,1886,1,1915.7999999523163,582054.1000000238,7067,WL,C,1.0
4,2.116000175476074,learn,57883.999824523926,Thu Feb 20 2025 14:21:48 GMT-0600 (Central Standard Time),584169.5,A,wh,O,h,159,1,2115.399999976158,582054.1000000238,7067,WL,C,1.0
4,2.5330002307891846,learn,57466.999769210815,Thu Feb 20 2025 14:21:48 GMT-0600 (Central Standard Time),584586.1999999881,A,whe,O,e,381,1,2532.099999964237,582054.1000000238,7067,WL,C,1.0
4,2.8000001907348633,learn,57199.99980926514,Thu Feb 20 2025 14:21:48 GMT-0600 (Central Standard Time),584853.1999999881,A,whea,O,a,242,1,2799.099999964237,582054.1000000238,7067,WL,C,1.0
4,2.9660000801086426,learn,57033.99991989136,Thu Feb 20 2025 14:21:48 GMT-0600 (Central Standard Time),585019.1999999881,A,wheat,O,t,134,1,2965.099999964237,582054.1000000238,7067,WL,C,1.0
4,4.299000024795532,learn,55700.99997520447,Thu Feb 20 2025 14:21:48 GMT-0600 (Central Standard Time),586352.0,A,whea,O,backspace,1302,1,4297.899999976158,582054.1000000238,7067,WL,C,1.0
4,4.448000192642212,learn,55551.99980735779,Thu Feb 20 2025 14:21:48 GMT-0600 (Central Standard Time),586502.0,A,whe,O,backspace,123,1,4447.899999976158,582054.1000000238,7067,WL,C,1.0
4,4.632000207901001,learn,55367.999792099,Thu Feb 20 2025 14:21:48 GMT-0600 (Central Standard Time),586685.3000000119,A,wh,O,backspace,156,1,4631.199999988079,582054.1000000238,7067,WL,C,1.0
4,4.748000144958496,learn,55251.999855041504,Thu Feb 20 2025 14:21:48 GMT-0600 (Central Standard Time),586801.6000000238,A,w,O,backspace,88,1,4747.5,582054.1000000238,7067,WL,C,1.0
4,4.882000207901001,learn,55117.999792099,Thu Feb 20 2025 14:21:48 GMT-0600 (Central Standard Time),586935.5,A,,O,backspace,109,1,4881.399999976158,582054.1000000238,7067,WL,C,1.0
4,5.016000032424927,learn,54983.99996757507,Thu Feb 20 2025 14:21:48 GMT-0600 (Central Standard Time),587069.0,A,,O,backspace,99,1,5014.899999976158,582054.1000000238,7067,WL,C,1.0
4,6.332000017166138,learn,53667.99998283386,Thu Feb 20 2025 14:21:48 GMT-0600 (Central Standard Time),588385.1999999881,A,t,O,t,1285,1,6331.099999964237,582054.1000000238,7067,WL,C,1.0
4,6.8480000495910645,learn,53151.999950408936,Thu Feb 20 2025 14:21:48 GMT-0600 (Central Standard Time),588901.3000000119,A,to,O,o,489,1,6847.199999988079,582054.1000000238,7067,WL,C,1.0
4,7.215000152587891,learn,52784.99984741211,Thu Feb 20 2025 14:21:48 GMT-0600 (Central Standard Time),589268.0,A,tow,O,w,334,1,7213.899999976158,582054.1000000238,7067,WL,C,1.0
4,7.331000089645386,learn,52668.999910354614,Thu Feb 20 2025 14:21:48 GMT-0600 (Central Standard Time),589384.3000000119,A,towe,O,e,91,1,7330.199999988079,582054.1000000238,7067,WL,C,1.0
4,7.531000137329102,learn,52468.9998626709,Thu Feb 20 2025 14:21:48 GMT-0600 (Central Standard Time),589584.3000000119,A,tower,O,r,172,1,7530.199999988079,582054.1000000238,7067,WL,C,1.0
4,8.480000019073486,learn,51519.999980926514,Thu Feb 20 2025 14:21:48 GMT-0600 (Central Standard Time),590533.1000000238,A,towerenter,O,enter,926,1,8479.0,582054.1000000238,7067,WL,C,1.0
4,9.581000089645386,learn,50418.999910354614,Thu Feb 20 2025 14:21:48 GMT-0600 (Central Standard Time),591634.1999999881,A,w,O,w,1080,1,1100.800000011921,590533.3999999762,7067,WL,C,2.0
4,9.69700002670288,learn,50302.99997329712,Thu Feb 20 2025 14:21:48 GMT-0600 (Central Standard Time),591750.0,A,wh,O,h,81,1,1216.6000000238419,590533.3999999762,7067,WL,C,2.0
4,10.064000129699707,learn,49935.99987030029,Thu Feb 20 2025 14:21:48 GMT-0600 (Central Standard Time),592117.6000000238,A,whe,O,e,351,1,1584.2000000476837,590533.3999999762,7067,WL,C,2.0
4,10.263000011444092,learn,49736.99998855591,Thu Feb 20 2025 14:21:48 GMT-0600 (Central Standard Time),592316.5,A,whea,O,a,160,1,1783.1000000238419,590533.3999999762,7067,WL,C,2.0
4,10.414000034332275,learn,49585.999965667725,Thu Feb 20 2025 14:21:48 GMT-0600 (Central Standard Time),592467.6000000238,A,wheat,O,t,115,1,1934.2000000476837,590533.3999999762,7067,WL,C,2.0
4,11.51200008392334,learn,48487.99991607666,Thu Feb 20 2025 14:21:48 GMT-0600 (Central Standard Time),593565.5,A,wheatenter,O,enter,1067,1,3032.100000023842,590533.3999999762,7067,WL,C,2.0
4,12.696000099182129,learn,47303.99990081787,Thu Feb 20 2025 14:21:48 GMT-0600 (Central Standard Time),594749.5,A,q,O,q,1168,1,1183.699999988079,593565.8000000119,7067,WL,C,3.0
4,12.879000186920166,learn,47120.999813079834,Thu Feb 20 2025 14:21:48 GMT-0600 (Central Standard Time),594932.8000000119,A,qu,O,u,148,1,1367.0,593565.8000000119,7067,WL,C,3.0
4,13.828999996185303,learn,46171.0000038147,Thu Feb 20 2025 14:21:48 GMT-0600 (Central Standard Time),595882.5,A,que,O,e,911,1,2316.699999988079,593565.8000000119,7067,WL,C,3.0
4,14.046000003814697,learn,45953.9999961853,Thu Feb 20 2025 14:21:48 GMT-0600 (Central Standard Time),596099.3999999762,A,quee,O,e,175,1,2533.599999964237,593565.8000000119,7067,WL,C,3.0
4,14.196000099182129,learn,45803.99990081787,Thu Feb 20 2025 14:21:48 GMT-0600 (Central Standard Time),596249.1000000238,A,queen,O,n,111,1,2683.300000011921,593565.8000000119,7067,WL,C,3.0
4,14.59500002861023,learn,45404.99997138977,Thu Feb 20 2025 14:21:48 GMT-0600 (Central Standard Time),596648.0,A,queenenter,O,enter,367,1,3082.199999988079,593565.8000000119,7067,WL,C,3.0
4,15.412000179290771,learn,44587.99982070923,Thu Feb 20 2025 14:21:48 GMT-0600 (Central Standard Time),597465.6000000238,A,s,O,s,806,1,817.3000000119209,596648.3000000119,7067,WL,C,4.0
4,15.578999996185303,learn,44421.0000038147,Thu Feb 20 2025 14:21:48 GMT-0600 (Central Standard Time),597631.6999999881,A,su,O,u,135,1,983.3999999761581,596648.3000000119,7067,WL,C,4.0
4,16.01200008392334,learn,43987.99991607666,Thu Feb 20 2025 14:21:48 GMT-0600 (Central Standard Time),598065.3000000119,A,sud,O,d,404,1,1417.0,596648.3000000119,7067,WL,C,4.0
4,16.728000164031982,learn,43271.99983596802,Thu Feb 20 2025 14:21:48 GMT-0600 (Central Standard Time),598781.3000000119,A,su,O,backspace,681,1,2133.0,596648.3000000119,7067,WL,C,4.0
4,17.112000226974487,learn,42887.99977302551,Thu Feb 20 2025 14:21:48 GMT-0600 (Central Standard Time),599164.8999999762,A,sug,O,g,356,1,2516.599999964237,596648.3000000119,7067,WL,C,4.0
4,17.311000108718872,learn,42688.99989128113,Thu Feb 20 2025 14:21:48 GMT-0600 (Central Standard Time),599364.3000000119,A,suga,O,a,165,1,2716.0,596648.3000000119,7067,WL,C,4.0
4,17.478000164031982,learn,42521.99983596802,Thu Feb 20 2025 14:21:48 GMT-0600 (Central Standard Time),599531.1000000238,A,sugar,O,r,127,1,2882.800000011921,596648.3000000119,7067,WL,C,4.0
4,18.145000219345093,learn,41854.99978065491,Thu Feb 20 2025 14:21:48 GMT-0600 (Central Standard Time),600198.1000000238,A,sugarenter,O,enter,638,1,3549.800000011921,596648.3000000119,7067,WL,C,4.0
4,19.510000228881836,learn,40489.999771118164,Thu Feb 20 2025 14:21:48 GMT-0600 (Central Standard Time),601563.1999999881,A,h,O,h,1344,1,1364.8999999761581,600198.3000000119,7067,WL,C,5.0
4,19.64400005340576,learn,40355.99994659424,Thu Feb 20 2025 14:21:48 GMT-0600 (Central Standard Time),601696.6000000238,A,ho,O,o,104,1,1498.300000011921,600198.3000000119,7067,WL,C,5.0
4,20.094000101089478,learn,39905.99989891052,Thu Feb 20 2025 14:21:48 GMT-0600 (Central Standard Time),602147.0,A,hom,O,m,430,1,1948.699999988079,600198.3000000119,7067,WL,C,5.0
4,20.277000188827515,learn,39722.999811172485,Thu Feb 20 2025 14:21:48 GMT-0600 (Central Standard Time),602329.6999999881,A,home,O,e,151,1,2131.399999976158,600198.3000000119,7067,WL,C,5.0
4,20.760000228881836,learn,39239.999771118164,Thu Feb 20 2025 14:21:48 GMT-0600 (Central Standard Time),602812.6000000238,A,homeenter,O,enter,466,1,2614.300000011921,600198.3000000119,7067,WL,C,5.0
4,22.56000018119812,learn,37439.99981880188,Thu Feb 20 2025 14:21:48 GMT-0600 (Central Standard Time),604613.3999999762,A,b,O,b,1793,1,1800.699999988079,602812.6999999881,7067,WL,C,6.0
4,22.710000038146973,learn,37289.99996185303,Thu Feb 20 2025 14:21:48 GMT-0600 (Central Standard Time),604762.8999999762,A,bo,O,o,107,1,1950.199999988079,602812.6999999881,7067,WL,C,6.0
4,23.009000062942505,learn,36990.999937057495,Thu Feb 20 2025 14:21:48 GMT-0600 (Central Standard Time),605062.5,A,boy,O,y,262,1,2249.800000011921,602812.6999999881,7067,WL,C,6.0
4,23.892000198364258,learn,36107.99980163574,Thu Feb 20 2025 14:21:48 GMT-0600 (Central Standard Time),605944.8999999762,A,boyenter,O,enter,849,1,3132.199999988079,602812.6999999881,7067,WL,C,6.0
4,24.926000118255615,learn,35073.999881744385,Thu Feb 20 2025 14:21:48 GMT-0600 (Central Standard Time),606978.6000000238,A,d,O,d,1013,1,1033.4000000357628,605945.1999999881,7067,WL,C,7.0
4,25.04200005531311,learn,34957.99994468689,Thu Feb 20 2025 14:21:48 GMT-0600 (Central Standard Time),607095.1999999881,A,do,O,o,86,1,1150.0,605945.1999999881,7067,WL,C,7.0
4,25.225000143051147,learn,34774.99985694885,Thu Feb 20 2025 14:21:48 GMT-0600 (Central Standard Time),607278.3999999762,A,doc,O,c,156,1,1333.199999988079,605945.1999999881,7067,WL,C,7.0
4,25.475000143051147,learn,34524.99985694885,Thu Feb 20 2025 14:21:48 GMT-0600 (Central Standard Time),607528.5,A,doct,O,t,221,1,1583.300000011921,605945.1999999881,7067,WL,C,7.0
4,26.058000087738037,learn,33941.99991226196,Thu Feb 20 2025 14:21:48 GMT-0600 (Central Standard Time),608111.5,A,docto,O,o,553,1,2166.300000011921,605945.1999999881,7067,WL,C,7.0
4,26.20800018310547,learn,33791.99981689453,Thu Feb 20 2025 14:21:48 GMT-0600 (Central Standard Time),608260.8999999762,A,doctor,O,r,122,1,2315.699999988079,605945.1999999881,7067,WL,C,7.0
4,29.257000207901,learn,30742.999792099,Thu Feb 20 2025 14:21:48 GMT-0600 (Central Standard Time),611309.8000000119,A,doctorenter,O,enter,3033,1,5364.600000023842,605945.1999999881,7067,WL,C,7.0
4,30.391000032424927,learn,29608.999967575073,Thu Feb 20 2025 14:21:48 GMT-0600 (Central Standard Time),612444.1999999881,A,c,O,c,1121,1,1134.199999988079,611310.0,7067,WL,C,8.0
4,31.04100012779236,learn,28958.99987220764,Thu Feb 20 2025 14:21:48 GMT-0600 (Central Standard Time),613093.6000000238,A,ca,O,a,615,1,1783.6000000238419,611310.0,7067,WL,C,8.0
4,31.157000064849854,learn,28842.999935150146,Thu Feb 20 2025 14:21:48 GMT-0600 (Central Standard Time),613209.5,A,cam,O,m,85,1,1899.5,611310.0,7067,WL,C,8.0
4,31.59000015258789,learn,28409.99984741211,Thu Feb 20 2025 14:21:48 GMT-0600 (Central Standard Time),613643.3000000119,A,camp,O,p,404,1,2333.300000011921,611310.0,7067,WL,C,8.0
4,32.32200002670288,learn,27677.99997329712,Thu Feb 20 2025 14:21:48 GMT-0600 (Central Standard Time),614375.3999999762,A,campenter,O,enter,700,1,3065.399999976158,611310.0,7067,WL,C,8.0
4,35.32100009918213,learn,24678.99990081787,Thu Feb 20 2025 14:21:48 GMT-0600 (Central Standard Time),617374.5,A,f,O,f,2989,1,2998.800000011921,614375.6999999881,7067,WL,C,9.0
4,35.88900017738342,learn,24110.999822616577,Thu Feb 20 2025 14:21:48 GMT-0600 (Central Standard Time),617941.8999999762,A,fl,O,l,545,1,3566.199999988079,614375.6999999881,7067,WL,C,9.0
4,36.42200016975403,learn,23577.99983024597,Thu Feb 20 2025 14:21:48 GMT-0600 (Central Standard Time),618474.8000000119,A,fla,O,a,502,1,4099.100000023842,614375.6999999881,7067,WL,C,9.0
4,36.622000217437744,learn,23377.999782562256,Thu Feb 20 2025 14:21:48 GMT-0600 (Central Standard Time),618674.8000000119,A,flag,O,g,158,1,4299.100000023842,614375.6999999881,7067,WL,C,9.0
4,37.30400013923645,learn,22695.99986076355,Thu Feb 20 2025 14:21:48 GMT-0600 (Central Standard Time),619357.3000000119,A,flagenter,O,enter,645,1,4981.600000023842,614375.6999999881,7067,WL,C,9.0
4,38.75500011444092,learn,21244.999885559082,Thu Feb 20 2025 14:21:48 GMT-0600 (Central Standard Time),620807.6000000238,A,l,O,l,1441,1,1450.1000000238419,619357.5,7067,WL,C,10.0
4,39.05400013923645,learn,20945.99986076355,Thu Feb 20 2025 14:21:48 GMT-0600 (Central Standard Time),621107.1999999881,A,le,O,e,265,1,1749.699999988079,619357.5,7067,WL,C,10.0
4,39.32100009918213,learn,20678.99990081787,Thu Feb 20 2025 14:21:48 GMT-0600 (Central Standard Time),621374.0,A,let,O,t,231,1,2016.5,619357.5,7067,WL,C,10.0
4,39.47100019454956,learn,20528.99980545044,Thu Feb 20 2025 14:21:48 GMT-0600 (Central Standard Time),621524.3000000119,A,lett,O,t,116,1,2166.800000011921,619357.5,7067,WL,C,10.0
4,39.63800001144409,learn,20361.99998855591,Thu Feb 20 2025 14:21:48 GMT-0600 (Central Standard Time),621690.8000000119,A,lette,O,e,134,1,2333.300000011921,619357.5,7067,WL,C,10.0
4,39.771000146865845,learn,20228.999853134155,Thu Feb 20 2025 14:21:48 GMT-0600 (Central Standard Time),621823.6999999881,A,letter,O,r,104,1,2466.199999988079,619357.5,7067,WL,C,10.0
4,40.77000021934509,learn,19229.999780654907,Thu Feb 20 2025 14:21:48 GMT-0600 (Central Standard Time),622822.6999999881,A,letterenter,O,enter,969,1,3465.199999988079,619357.5,7067,WL,C,10.0
4,41.920000076293945,learn,18079.999923706055,Thu Feb 20 2025 14:21:48 GMT-0600 (Central Standard Time),623973.3000000119,A,c,O,c,1127,1,1150.300000011921,622823.0,7067,WL,C,11.0
4,42.0530002117157,learn,17946.9997882843,Thu Feb 20 2025 14:21:48 GMT-0600 (Central Standard Time),624106.3000000119,A,co,O,o,94,1,1283.300000011921,622823.0,7067,WL,C,11.0
4,42.38700008392334,learn,17612.99991607666,Thu Feb 20 2025 14:21:48 GMT-0600 (Central Standard Time),624439.6999999881,A,cor,O,r,311,1,1616.699999988079,622823.0,7067,WL,C,11.0
4,42.60300016403198,learn,17396.999835968018,Thu Feb 20 2025 14:21:48 GMT-0600 (Central Standard Time),624656.5,A,corn,O,n,186,1,1833.5,622823.0,7067,WL,C,11.0
4,43.41900014877319,learn,16580.999851226807,Thu Feb 20 2025 14:21:48 GMT-0600 (Central Standard Time),625471.8000000119,A,cornenter,O,enter,776,1,2648.800000011921,622823.0,7067,WL,C,11.0
4,46.05200004577637,learn,13947.999954223633,Thu Feb 20 2025 14:21:48 GMT-0600 (Central Standard Time),628105.0,A,c,O,c,2622,1,2632.800000011921,625472.1999999881,7067,WL,C,12.0
4,46.91800022125244,learn,13081.999778747559,Thu Feb 20 2025 14:21:48 GMT-0600 (Central Standard Time),628971.3000000119,A,ca,O,a,833,1,3499.100000023842,625472.1999999881,7067,WL,C,12.0
4,48.41800022125244,learn,11581.999778747559,Thu Feb 20 2025 14:21:48 GMT-0600 (Central Standard Time),630471.0,A,cat,O,t,1471,1,4998.800000011921,625472.1999999881,7067,WL,C,12.0
4,48.6010000705719,learn,11398.9999294281,Thu Feb 20 2025 14:21:48 GMT-0600 (Central Standard Time),630653.6000000238,A,catt,O,t,155,1,5181.400000035763,625472.1999999881,7067,WL,C,12.0
4,49.28400015830994,learn,10715.999841690063,Thu Feb 20 2025 14:21:48 GMT-0600 (Central Standard Time),631337.3000000119,A,cattl,O,l,657,1,5865.100000023842,625472.1999999881,7067,WL,C,12.0
4,49.41700005531311,learn,10582.99994468689,Thu Feb 20 2025 14:21:48 GMT-0600 (Central Standard Time),631470.1000000238,A,cattle,O,e,113,1,5997.900000035763,625472.1999999881,7067,WL,C,12.0
4,51.18300008773804,learn,8816.999912261963,Thu Feb 20 2025 14:21:48 GMT-0600 (Central Standard Time),633235.8999999762,A,cattleenter,O,enter,1744,1,7763.699999988079,625472.1999999881,7067,WL,C,12.0
4,54.699000120162964,learn,5300.999879837036,Thu Feb 20 2025 14:21:48 GMT-0600 (Central Standard Time),636752.5,A,n,O,n,3499,1,3516.399999976158,633236.1000000238,7067,WL,C,13.0
4,55.349000215530396,learn,4650.9997844696045,Thu Feb 20 2025 14:21:48 GMT-0600 (Central Standard Time),637402.1000000238,A,na,O,a,610,1,4166.0,633236.1000000238,7067,WL,C,13.0
4,55.46600008010864,learn,4533.999919891357,Thu Feb 20 2025 14:21:48 GMT-0600 (Central Standard Time),637518.6000000238,A,nai,O,i,87,1,4282.5,633236.1000000238,7067,WL,C,13.0
4,55.79900002479553,learn,4200.999975204468,Thu Feb 20 2025 14:21:48 GMT-0600 (Central Standard Time),637851.8999999762,A,nail,O,l,300,1,4615.799999952316,633236.1000000238,7067,WL,C,13.0
4,57.38100004196167,learn,2618.99995803833,Thu Feb 20 2025 14:21:48 GMT-0600 (Central Standard Time),639433.8999999762,A,nailenter,O,enter,1549,1,6197.799999952316,633236.1000000238,7067,WL,C,13.0
4,57.914000034332275,learn,2085.9999656677246,Thu Feb 20 2025 14:21:48 GMT-0600 (Central Standard Time),639967.3000000119,A,s,O,s,515,1,533.1999999880791,639434.1000000238,7067,WL,C,14.0
4,57.998000144958496,learn,2001.999855041504,Thu Feb 20 2025 14:21:48 GMT-0600 (Central Standard Time),640050.6999999881,A,sh,O,h,53,1,616.5999999642372,639434.1000000238,7067,WL,C,14.0
4,58.33200001716614,learn,1667.9999828338623,Thu Feb 20 2025 14:21:48 GMT-0600 (Central Standard Time),640384.6000000238,A,sho,O,o,321,1,950.5,639434.1000000238,7067,WL,C,14.0
4,58.73100018501282,learn,1268.9998149871826,Thu Feb 20 2025 14:21:48 GMT-0600 (Central Standard Time),640784.0,A,shor,O,r,371,1,1349.8999999761581,639434.1000000238,7067,WL,C,14.0
4,58.86500000953674,learn,1134.9999904632568,Thu Feb 20 2025 14:21:48 GMT-0600 (Central Standard Time),640917.5,A,shore,O,e,115,1,1483.3999999761581,639434.1000000238,7067,WL,C,14.0
4,60.0310001373291,learn,-31.000137329101562,Thu Feb 20 2025 14:21:48 GMT-0600 (Central Standard Time),642083.8000000119,A,shoreNone,O,None,1140,1,2649.699999988079,639434.1000000238,7067,WL,C,14.0
5,1.0509998798370361,learn,60000.0,Thu Feb 20 2025 14:21:48 GMT-0600 (Central Standard Time),719975.5,A,t,O,t,1024,1,1050.3999999761581,718925.1000000238,7067,WL,C,1.0
5,1.8839998245239258,learn,60000.0,Thu Feb 20 2025 14:21:48 GMT-0600 (Central Standard Time),720808.3000000119,A,to,O,o,805,1,1883.199999988079,718925.1000000238,7067,WL,C,1.0
5,2.383999824523926,learn,60000.0,Thu Feb 20 2025 14:21:48 GMT-0600 (Central Standard Time),721308.0,A,tow,O,w,466,1,2382.899999976158,718925.1000000238,7067,WL,C,1.0
5,2.5169999599456787,learn,60000.0,Thu Feb 20 2025 14:21:48 GMT-0600 (Central Standard Time),721441.0,A,towe,O,e,102,1,2515.899999976158,718925.1000000238,7067,WL,C,1.0
5,2.732999801635742,learn,60000.0,Thu Feb 20 2025 14:21:48 GMT-0600 (Central Standard Time),721657.6999999881,A,tower,O,r,178,1,2732.599999964237,718925.1000000238,7067,WL,C,1.0
5,3.748999834060669,learn,60000.0,Thu Feb 20 2025 14:21:48 GMT-0600 (Central Standard Time),722673.3000000119,A,towerenter,O,enter,975,1,3748.199999988079,718925.1000000238,7067,WL,C,1.0
5,4.982999801635742,learn,60000.0,Thu Feb 20 2025 14:21:48 GMT-0600 (Central Standard Time),723907.0,A,w,O,w,1213,1,1233.3999999761581,722673.6000000238,7067,WL,C,2.0
5,5.115999937057495,learn,60000.0,Thu Feb 20 2025 14:21:48 GMT-0600 (Central Standard Time),724040.6999999881,A,wh,O,h,97,1,1367.0999999642372,722673.6000000238,7067,WL,C,2.0
5,5.448999881744385,learn,60000.0,Thu Feb 20 2025 14:21:48 GMT-0600 (Central Standard Time),724373.6999999881,A,whe,O,e,305,1,1700.0999999642372,722673.6000000238,7067,WL,C,2.0
5,5.764999866485596,learn,60000.0,Thu Feb 20 2025 14:21:48 GMT-0600 (Central Standard Time),724689.6000000238,A,whea,O,a,283,1,2016.0,722673.6000000238,7067,WL,C,2.0
5,5.931999921798706,learn,60000.0,Thu Feb 20 2025 14:21:48 GMT-0600 (Central Standard Time),724856.5,A,wheat,O,t,143,1,2182.899999976158,722673.6000000238,7067,WL,C,2.0
5,6.531999826431274,learn,60000.0,Thu Feb 20 2025 14:21:48 GMT-0600 (Central Standard Time),725455.6999999881,A,wheatenter,O,enter,571,1,2782.099999964237,722673.6000000238,7067,WL,C,2.0
5,7.430999994277954,learn,60000.0,Thu Feb 20 2025 14:21:48 GMT-0600 (Central Standard Time),726355.3000000119,A,q,O,q,885,1,899.3000000119209,725456.0,7067,WL,C,3.0
5,7.547999858856201,learn,60000.0,Thu Feb 20 2025 14:21:48 GMT-0600 (Central Standard Time),726472.1999999881,A,qu,O,u,104,1,1016.1999999880791,725456.0,7067,WL,C,3.0
5,8.014999866485596,learn,60000.0,Thu Feb 20 2025 14:21:48 GMT-0600 (Central Standard Time),726939.0,A,que,O,e,444,1,1483.0,725456.0,7067,WL,C,3.0
5,8.214999914169312,learn,60000.0,Thu Feb 20 2025 14:21:48 GMT-0600 (Central Standard Time),727139.6999999881,A,quee,O,e,172,1,1683.699999988079,725456.0,7067,WL,C,3.0
5,9.13099980354309,learn,60000.0,Thu Feb 20 2025 14:21:48 GMT-0600 (Central Standard Time),728055.5,A,queen,O,n,878,1,2599.5,725456.0,7067,WL,C,3.0
5,10.013999938964844,learn,60000.0,Thu Feb 20 2025 14:21:48 GMT-0600 (Central Standard Time),728937.8000000119,A,queenenter,O,enter,859,1,3481.800000011921,725456.0,7067,WL,C,3.0
5,11.197999954223633,learn,60000.0,Thu Feb 20 2025 14:21:48 GMT-0600 (Central Standard Time),730122.3000000119,A,s,O,s,1165,1,1184.199999988079,728938.1000000238,7067,WL,C,4.0
5,11.330999851226807,learn,60000.0,Thu Feb 20 2025 14:21:48 GMT-0600 (Central Standard Time),730255.1000000238,A,su,O,u,95,1,1317.0,728938.1000000238,7067,WL,C,4.0
5,11.646999835968018,learn,60000.0,Thu Feb 20 2025 14:21:48 GMT-0600 (Central Standard Time),730571.3999999762,A,sug,O,g,284,1,1633.2999999523163,728938.1000000238,7067,WL,C,4.0
5,11.88099980354309,learn,60000.0,Thu Feb 20 2025 14:21:48 GMT-0600 (Central Standard Time),730804.8000000119,A,suga,O,a,188,1,1866.699999988079,728938.1000000238,7067,WL,C,4.0
5,12.04699993133545,learn,60000.0,Thu Feb 20 2025 14:21:48 GMT-0600 (Central Standard Time),730971.0,A,sugar,O,r,127,1,2032.8999999761581,728938.1000000238,7067,WL,C,4.0
5,12.52999997138977,learn,60000.0,Thu Feb 20 2025 14:21:48 GMT-0600 (Central Standard Time),731453.6999999881,A,sugarenter,O,enter,466,1,2515.599999964237,728938.1000000238,7067,WL,C,4.0
5,13.129999876022339,learn,60000.0,Thu Feb 20 2025 14:21:48 GMT-0600 (Central Standard Time),732054.1000000238,A,h,O,h,593,1,600.1000000238419,731454.0,7067,WL,C,5.0
5,13.52999997138977,learn,60000.0,Thu Feb 20 2025 14:21:48 GMT-0600 (Central Standard Time),732454.3999999762,A,ho,O,o,364,1,1000.3999999761581,731454.0,7067,WL,C,5.0
5,14.27999997138977,learn,60000.0,Thu Feb 20 2025 14:21:48 GMT-0600 (Central Standard Time),733204.6999999881,A,hom,O,m,709,1,1750.699999988079,731454.0,7067,WL,C,5.0
5,14.44599986076355,learn,60000.0,Thu Feb 20 2025 14:21:48 GMT-0600 (Central Standard Time),733370.5,A,home,O,e,127,1,1916.5,731454.0,7067,WL,C,5.0
5,15.27899980545044,learn,60000.0,Thu Feb 20 2025 14:21:48 GMT-0600 (Central Standard Time),734202.8000000119,A,homeenter,O,enter,807,1,2748.800000011921,731454.0,7067,WL,C,5.0
5,16.311999797821045,learn,60000.0,Thu Feb 20 2025 14:21:48 GMT-0600 (Central Standard Time),735236.3999999762,A,b,O,b,1011,1,1033.3999999761581,734203.0,7067,WL,C,6.0
5,16.44599986076355,learn,60000.0,Thu Feb 20 2025 14:21:48 GMT-0600 (Central Standard Time),735370.3000000119,A,bo,O,o,93,1,1167.300000011921,734203.0,7067,WL,C,6.0
5,16.744999885559082,learn,60000.0,Thu Feb 20 2025 14:21:48 GMT-0600 (Central Standard Time),735669.6999999881,A,boy,O,y,276,1,1466.699999988079,734203.0,7067,WL,C,6.0
5,17.679999828338623,learn,60000.0,Thu Feb 20 2025 14:21:48 GMT-0600 (Central Standard Time),736603.8000000119,A,boyenter,O,enter,891,1,2400.800000011921,734203.0,7067,WL,C,6.0
5,18.776999950408936,learn,60000.0,Thu Feb 20 2025 14:21:48 GMT-0600 (Central Standard Time),737701.6999999881,A,d,O,d,1089,1,1097.5999999642372,736604.1000000238,7067,WL,C,7.0
5,18.92899990081787,learn,60000.0,Thu Feb 20 2025 14:21:48 GMT-0600 (Central Standard Time),737852.8999999762,A,do,O,o,135,1,1248.7999999523163,736604.1000000238,7067,WL,C,7.0
5,19.16100001335144,learn,60000.0,Thu Feb 20 2025 14:21:48 GMT-0600 (Central Standard Time),738085.6999999881,A,doc,O,c,197,1,1481.5999999642372,736604.1000000238,7067,WL,C,7.0
5,19.444999933242798,learn,60000.0,Thu Feb 20 2025 14:21:48 GMT-0600 (Central Standard Time),738369.5,A,doct,O,t,242,1,1765.3999999761581,736604.1000000238,7067,WL,C,7.0
5,20.027999877929688,learn,60000.0,Thu Feb 20 2025 14:21:48 GMT-0600 (Central Standard Time),738952.0,A,docto,O,o,544,1,2347.899999976158,736604.1000000238,7067,WL,C,7.0
5,20.16100001335144,learn,60000.0,Thu Feb 20 2025 14:21:48 GMT-0600 (Central Standard Time),739085.1999999881,A,doctor,O,r,98,1,2481.099999964237,736604.1000000238,7067,WL,C,7.0
5,20.776999950408936,learn,60000.0,Thu Feb 20 2025 14:21:48 GMT-0600 (Central Standard Time),739700.8999999762,A,doctorenter,O,enter,591,1,3096.7999999523163,736604.1000000238,7067,WL,C,7.0
5,21.67799997329712,learn,60000.0,Thu Feb 20 2025 14:21:48 GMT-0600 (Central Standard Time),740601.8999999762,A,c,O,c,890,1,900.6999999880791,739701.1999999881,7067,WL,C,8.0
5,21.91100001335144,learn,60000.0,Thu Feb 20 2025 14:21:48 GMT-0600 (Central Standard Time),740834.6999999881,A,ca,O,a,191,1,1133.5,739701.1999999881,7067,WL,C,8.0
5,22.22699999809265,learn,60000.0,Thu Feb 20 2025 14:21:48 GMT-0600 (Central Standard Time),741151.3000000119,A,cam,O,m,278,1,1450.1000000238419,739701.1999999881,7067,WL,C,8.0
5,22.759999990463257,learn,60000.0,Thu Feb 20 2025 14:21:48 GMT-0600 (Central Standard Time),741684.1000000238,A,camp,O,p,500,1,1982.9000000357628,739701.1999999881,7067,WL,C,8.0
5,24.20899987220764,learn,60000.0,Thu Feb 20 2025 14:21:48 GMT-0600 (Central Standard Time),743133.3000000119,A,campenter,O,enter,1422,1,3432.100000023842,739701.1999999881,7067,WL,C,8.0
5,26.45899987220764,learn,60000.0,Thu Feb 20 2025 14:21:48 GMT-0600 (Central Standard Time),745383.1999999881,A,f,O,f,2232,1,2249.599999964237,743133.6000000238,7067,WL,C,9.0
5,26.625,learn,60000.0,Thu Feb 20 2025 14:21:48 GMT-0600 (Central Standard Time),745549.3000000119,A,fl,O,l,140,1,2415.699999988079,743133.6000000238,7067,WL,C,9.0
5,27.342000007629395,learn,60000.0,Thu Feb 20 2025 14:21:48 GMT-0600 (Central Standard Time),746266.3000000119,A,fla,O,a,687,1,3132.699999988079,743133.6000000238,7067,WL,C,9.0
5,27.441999912261963,learn,60000.0,Thu Feb 20 2025 14:21:48 GMT-0600 (Central Standard Time),746365.6999999881,A,flag,O,g,71,1,3232.099999964237,743133.6000000238,7067,WL,C,9.0
5,28.074999809265137,learn,60000.0,Thu Feb 20 2025 14:21:48 GMT-0600 (Central Standard Time),746998.6999999881,A,flagenter,O,enter,607,1,3865.099999964237,743133.6000000238,7067,WL,C,9.0
5,29.257999897003174,learn,60000.0,Thu Feb 20 2025 14:21:48 GMT-0600 (Central Standard Time),748182.5,A,l,O,l,1167,1,1183.6000000238419,746998.8999999762,7067,WL,C,10.0
5,29.54199981689453,learn,60000.0,Thu Feb 20 2025 14:21:48 GMT-0600 (Central Standard Time),748466.1000000238,A,le,O,e,242,1,1467.2000000476837,746998.8999999762,7067,WL,C,10.0
5,29.824999809265137,learn,60000.0,Thu Feb 20 2025 14:21:48 GMT-0600 (Central Standard Time),748749.1000000238,A,let,O,t,248,1,1750.2000000476837,746998.8999999762,7067,WL,C,10.0
5,29.990999937057495,learn,60000.0,Thu Feb 20 2025 14:21:48 GMT-0600 (Central Standard Time),748915.3000000119,A,lett,O,t,133,1,1916.4000000357628,746998.8999999762,7067,WL,C,10.0
5,30.157999992370605,learn,60000.0,Thu Feb 20 2025 14:21:48 GMT-0600 (Central Standard Time),749082.1000000238,A,lette,O,e,127,1,2083.2000000476837,746998.8999999762,7067,WL,C,10.0
5,30.29099988937378,learn,60000.0,Thu Feb 20 2025 14:21:48 GMT-0600 (Central Standard Time),749215.5,A,letter,O,r,102,1,2216.600000023842,746998.8999999762,7067,WL,C,10.0
5,31.5239999294281,learn,60000.0,Thu Feb 20 2025 14:21:48 GMT-0600 (Central Standard Time),750447.6999999881,A,letterenter,O,enter,1193,1,3448.800000011921,746998.8999999762,7067,WL,C,10.0
5,32.556999921798706,learn,60000.0,Thu Feb 20 2025 14:21:48 GMT-0600 (Central Standard Time),751481.5,A,c,O,c,1022,1,1033.5,750448.0,7067,WL,C,11.0
5,32.70599985122681,learn,60000.0,Thu Feb 20 2025 14:21:48 GMT-0600 (Central Standard Time),751630.6999999881,A,co,O,o,125,1,1182.699999988079,750448.0,7067,WL,C,11.0
5,33.4229998588562,learn,60000.0,Thu Feb 20 2025 14:21:48 GMT-0600 (Central Standard Time),752347.1000000238,A,cor,O,r,695,1,1899.1000000238419,750448.0,7067,WL,C,11.0
5,33.556999921798706,learn,60000.0,Thu Feb 20 2025 14:21:48 GMT-0600 (Central Standard Time),752480.8999999762,A,corn,O,n,106,1,2032.8999999761581,750448.0,7067,WL,C,11.0
5,34.25599980354309,learn,60000.0,Thu Feb 20 2025 14:21:48 GMT-0600 (Central Standard Time),753179.8999999762,A,cornenter,O,enter,666,1,2731.899999976158,750448.0,7067,WL,C,11.0
5,35.638999938964844,learn,60000.0,Thu Feb 20 2025 14:21:48 GMT-0600 (Central Standard Time),754563.3999999762,A,n,O,n,1370,1,1383.199999988079,753180.1999999881,7067,WL,C,12.0
5,36.27300000190735,learn,60000.0,Thu Feb 20 2025 14:21:48 GMT-0600 (Central Standard Time),755197.1999999881,A,na,O,a,598,1,2017.0,753180.1999999881,7067,WL,C,12.0
5,36.42199993133545,learn,60000.0,Thu Feb 20 2025 14:21:48 GMT-0600 (Central Standard Time),755346.6000000238,A,nai,O,i,113,1,2166.400000035763,753180.1999999881,7067,WL,C,12.0
5,36.85699987411499,learn,60000.0,Thu Feb 20 2025 14:21:48 GMT-0600 (Central Standard Time),755781.3000000119,A,nail,O,l,408,1,2601.100000023842,753180.1999999881,7067,WL,C,12.0
5,37.47099995613098,learn,60000.0,Thu Feb 20 2025 14:21:48 GMT-0600 (Central Standard Time),756395.5,A,nailenter,O,enter,580,1,3215.300000011921,753180.1999999881,7067,WL,C,12.0
5,38.288999795913696,learn,60000.0,Thu Feb 20 2025 14:21:48 GMT-0600 (Central Standard Time),757213.5,A,c,O,c,810,1,817.5,756396.0,7067,WL,C,13.0
5,38.47199988365173,learn,60000.0,Thu Feb 20 2025 14:21:48 GMT-0600 (Central Standard Time),757395.8000000119,A,ca,O,a,149,1,999.8000000119209,756396.0,7067,WL,C,13.0
5,39.22199988365173,learn,60000.0,Thu Feb 20 2025 14:21:48 GMT-0600 (Central Standard Time),758146.0,A,cat,O,t,718,1,1750.0,756396.0,7067,WL,C,13.0
5,39.40499997138977,learn,60000.0,Thu Feb 20 2025 14:21:48 GMT-0600 (Central Standard Time),758329.3000000119,A,catt,O,t,152,1,1933.300000011921,756396.0,7067,WL,C,13.0
5,39.6710000038147,learn,60000.0,Thu Feb 20 2025 14:21:48 GMT-0600 (Central Standard Time),758595.3999999762,A,cattl,O,l,224,1,2199.399999976158,756396.0,7067,WL,C,13.0
5,39.88800001144409,learn,60000.0,Thu Feb 20 2025 14:21:48 GMT-0600 (Central Standard Time),758812.6999999881,A,cattle,O,e,173,1,2416.699999988079,756396.0,7067,WL,C,13.0
5,40.5699999332428,learn,60000.0,Thu Feb 20 2025 14:21:48 GMT-0600 (Central Standard Time),759494.5,A,cattleenter,O,enter,651,1,3098.5,756396.0,7067,WL,C,13.0
5,43.32099986076355,learn,60000.0,Thu Feb 20 2025 14:21:48 GMT-0600 (Central Standard Time),762245.5,A,s,O,s,2728,1,2750.600000023842,759494.8999999762,7067,WL,C,14.0
5,43.48699998855591,learn,60000.0,Thu Feb 20 2025 14:21:48 GMT-0600 (Central Standard Time),762411.3999999762,A,sh,O,h,125,1,2916.5,759494.8999999762,7067,WL,C,14.0
5,43.96999979019165,learn,60000.0,Thu Feb 20 2025 14:21:48 GMT-0600 (Central Standard Time),762894.1000000238,A,sho,O,o,455,1,3399.2000000476837,759494.8999999762,7067,WL,C,14.0
5,44.40299987792969,learn,60000.0,Thu Feb 20 2025 14:21:48 GMT-0600 (Central Standard Time),763327.3999999762,A,shor,O,r,395,1,3832.5,759494.8999999762,7067,WL,C,14.0
5,44.5699999332428,learn,60000.0,Thu Feb 20 2025 14:21:48 GMT-0600 (Central Standard Time),763493.8999999762,A,shore,O,e,134,1,3999.0,759494.8999999762,7067,WL,C,14.0
5,45.168999910354614,learn,60000.0,Thu Feb 20 2025 14:21:48 GMT-0600 (Central Standard Time),764093.0,A,shoreenter,O,enter,576,1,4598.100000023842,759494.8999999762,7067,WL,C,14.0
5,46.95199990272522,learn,60000.0,Thu Feb 20 2025 14:21:48 GMT-0600 (Central Standard Time),765876.6000000238,A,b,O,b,1762,1,1783.2000000476837,764093.3999999762,7067,WL,C,15.0
5,47.502999782562256,learn,60000.0,Thu Feb 20 2025 14:21:48 GMT-0600 (Central Standard Time),766426.8000000119,A,bo,O,o,513,1,2333.400000035763,764093.3999999762,7067,WL,C,15.0
5,48.20199990272522,learn,60000.0,Thu Feb 20 2025 14:21:48 GMT-0600 (Central Standard Time),767126.5,A,bod,O,d,672,1,3033.100000023842,764093.3999999762,7067,WL,C,15.0
5,48.335999965667725,learn,60000.0,Thu Feb 20 2025 14:21:48 GMT-0600 (Central Standard Time),767259.8000000119,A,body,O,y,98,1,3166.400000035763,764093.3999999762,7067,WL,C,15.0
5,49.150999784469604,learn,60000.0,Thu Feb 20 2025 14:21:48 GMT-0600 (Central Standard Time),768075.1000000238,A,bodyenter,O,enter,794,1,3981.7000000476837,764093.3999999762,7067,WL,C,15.0
6,1.3829998970031738,distr,58617.000102996826,Thu Feb 20 2025 14:21:48 GMT-0600 (Central Standard Time),868326.3999999762,B,s,O,s,1349,1,1382.7999999523163,866943.6000000238,7067,WL,C,1.0
6,1.498999834060669,distr,58501.00016593933,Thu Feb 20 2025 14:21:48 GMT-0600 (Central Standard Time),868442.6999999881,B,sk,O,k,76,1,1499.0999999642372,866943.6000000238,7067,WL,C,1.0
6,1.815999984741211,distr,58184.00001525879,Thu Feb 20 2025 14:21:48 GMT-0600 (Central Standard Time),868759.3999999762,B,sky,O,y,297,1,1815.7999999523163,866943.6000000238,7067,WL,C,1.0
6,2.498999834060669,distr,57501.00016593933,Thu Feb 20 2025 14:21:48 GMT-0600 (Central Standard Time),869442.0,B,skyenter,O,enter,648,1,2498.399999976158,866943.6000000238,7067,WL,C,1.0
6,3.6999998092651367,distr,56300.00019073486,Thu Feb 20 2025 14:21:48 GMT-0600 (Central Standard Time),870643.1999999881,B,d,O,d,1181,1,1200.8999999761581,869442.3000000119,7067,WL,C,2.0
6,3.8320000171661377,distr,56167.99998283386,Thu Feb 20 2025 14:21:48 GMT-0600 (Central Standard Time),870775.3999999762,B,do,O,o,102,1,1333.0999999642372,869442.3000000119,7067,WL,C,2.0
6,4.098999977111816,distr,55901.00002288818,Thu Feb 20 2025 14:21:48 GMT-0600 (Central Standard Time),871042.1999999881,B,dol,O,l,247,1,1599.8999999761581,869442.3000000119,7067,WL,C,2.0
6,4.247999906539917,distr,55752.00009346008,Thu Feb 20 2025 14:21:48 GMT-0600 (Central Standard Time),871191.8999999762,B,doll,O,l,125,1,1749.5999999642372,869442.3000000119,7067,WL,C,2.0
6,4.531999826431274,distr,55468.000173568726,Thu Feb 20 2025 14:21:48 GMT-0600 (Central Standard Time),871475.3999999762,B,dolla,O,a,256,1,2033.0999999642372,869442.3000000119,7067,WL,C,2.0
6,4.681999921798706,distr,55318.000078201294,Thu Feb 20 2025 14:21:48 GMT-0600 (Central Standard Time),871625.6000000238,B,dollar,O,r,122,1,2183.300000011921,869442.3000000119,7067,WL,C,2.0
6,5.980999946594238,distr,54019.00005340576,Thu Feb 20 2025 14:21:48 GMT-0600 (Central Standard Time),872923.8999999762,B,dollarenter,O,enter,1271,1,3481.599999964237,869442.3000000119,7067,WL,C,2.0
6,6.781999826431274,distr,53218.000173568726,Thu Feb 20 2025 14:21:48 GMT-0600 (Central Standard Time),873725.6000000238,B,v,O,v,795,1,801.4000000357628,872924.1999999881,7067,WL,C,3.0
6,6.947000026702881,distr,53052.99997329712,Thu Feb 20 2025 14:21:48 GMT-0600 (Central Standard Time),873890.3999999762,B,va,O,a,134,1,966.1999999880791,872924.1999999881,7067,WL,C,3.0
6,7.330999851226807,distr,52669.00014877319,Thu Feb 20 2025 14:21:48 GMT-0600 (Central Standard Time),874274.3000000119,B,val,O,l,371,1,1350.1000000238419,872924.1999999881,7067,WL,C,3.0
6,7.513999938964844,distr,52486.000061035156,Thu Feb 20 2025 14:21:48 GMT-0600 (Central Standard Time),874457.5,B,vall,O,l,143,1,1533.300000011921,872924.1999999881,7067,WL,C,3.0
6,8.88099980354309,distr,51119.00019645691,Thu Feb 20 2025 14:21:48 GMT-0600 (Central Standard Time),875824.3999999762,B,valle,O,e,1329,1,2900.199999988079,872924.1999999881,7067,WL,C,3.0
6,9.013000011444092,distr,50986.99998855591,Thu Feb 20 2025 14:21:48 GMT-0600 (Central Standard Time),875956.3999999762,B,valley,O,y,99,1,3032.199999988079,872924.1999999881,7067,WL,C,3.0
6,10.745999813079834,distr,49254.000186920166,Thu Feb 20 2025 14:21:48 GMT-0600 (Central Standard Time),877689.1000000238,B,valleyenter,O,enter,1720,1,4764.900000035763,872924.1999999881,7067,WL,C,3.0
6,13.810999870300293,distr,46189.00012969971,Thu Feb 20 2025 14:21:48 GMT-0600 (Central Standard Time),880754.8000000119,B,w,O,w,3044,1,3065.400000035763,877689.3999999762,7067,WL,C,4.0
6,13.92799997329712,distr,46072.00002670288,Thu Feb 20 2025 14:21:48 GMT-0600 (Central Standard Time),880871.3000000119,B,wi,O,i,105,1,3181.900000035763,877689.3999999762,7067,WL,C,4.0
6,14.244999885559082,distr,45755.00011444092,Thu Feb 20 2025 14:21:48 GMT-0600 (Central Standard Time),881188.6999999881,B,win,O,n,295,1,3499.300000011921,877689.3999999762,7067,WL,C,4.0
6,14.560999870300293,distr,45439.00012969971,Thu Feb 20 2025 14:21:48 GMT-0600 (Central Standard Time),881504.6999999881,B,wint,O,t,285,1,3815.300000011921,877689.3999999762,7067,WL,C,4.0
6,14.711999893188477,distr,45288.00010681152,Thu Feb 20 2025 14:21:48 GMT-0600 (Central Standard Time),881654.8000000119,B,winte,O,e,133,1,3965.400000035763,877689.3999999762,7067,WL,C,4.0
6,14.861999988555908,distr,45138.00001144409,Thu Feb 20 2025 14:21:48 GMT-0600 (Central Standard Time),881805.1999999881,B,winter,O,r,123,1,4115.800000011921,877689.3999999762,7067,WL,C,4.0
6,15.393999814987183,distr,44606.00018501282,Thu Feb 20 2025 14:21:48 GMT-0600 (Central Standard Time),882337.8000000119,B,winterenter,O,enter,493,1,4648.400000035763,877689.3999999762,7067,WL,C,4.0
6,16.394999980926514,distr,43605.000019073486,Thu Feb 20 2025 14:21:48 GMT-0600 (Central Standard Time),883338.1999999881,B,m,O,m,988,1,1000.1999999880791,882338.0,7067,WL,C,5.0
6,16.744999885559082,distr,43255.00011444092,Thu Feb 20 2025 14:21:48 GMT-0600 (Central Standard Time),883688.5,B,mo,O,o,309,1,1350.5,882338.0,7067,WL,C,5.0
6,17.17799997329712,distr,42822.00002670288,Thu Feb 20 2025 14:21:48 GMT-0600 (Central Standard Time),884120.8999999762,B,mot,O,t,404,1,1782.8999999761581,882338.0,7067,WL,C,5.0
6,17.460999965667725,distr,42539.000034332275,Thu Feb 20 2025 14:21:48 GMT-0600 (Central Standard Time),884404.1000000238,B,moth,O,h,261,1,2066.100000023842,882338.0,7067,WL,C,5.0
6,17.661999940872192,distr,42338.00005912781,Thu Feb 20 2025 14:21:48 GMT-0600 (Central Standard Time),884605.1000000238,B,mothe,O,e,191,1,2267.100000023842,882338.0,7067,WL,C,5.0
6,17.82799983024597,distr,42172.00016975403,Thu Feb 20 2025 14:21:48 GMT-0600 (Central Standard Time),884771.0,B,mother,O,r,133,1,2433.0,882338.0,7067,WL,C,5.0
6,18.876999855041504,distr,41123.000144958496,Thu Feb 20 2025 14:21:48 GMT-0600 (Central Standard Time),885819.8999999762,B,motherenter,O,enter,1028,1,3481.899999976158,882338.0,7067,WL,C,5.0
6,19.942999839782715,distr,40057.000160217285,Thu Feb 20 2025 14:21:48 GMT-0600 (Central Standard Time),886886.6000000238,B,c,O,c,1059,1,1066.4000000357628,885820.1999999881,7067,WL,C,6.0
6,20.109999895095825,distr,39890.000104904175,Thu Feb 20 2025 14:21:48 GMT-0600 (Central Standard Time),887053.8999999762,B,ch,O,h,124,1,1233.699999988079,885820.1999999881,7067,WL,C,6.0
6,20.57699990272522,distr,39423.00009727478,Thu Feb 20 2025 14:21:48 GMT-0600 (Central Standard Time),887520.0,B,chr,O,r,436,1,1699.800000011921,885820.1999999881,7067,WL,C,6.0
6,20.709999799728394,distr,39290.00020027161,Thu Feb 20 2025 14:21:48 GMT-0600 (Central Standard Time),887653.6000000238,B,chri,O,i,91,1,1833.4000000357628,885820.1999999881,7067,WL,C,6.0
6,21.30999994277954,distr,38690.00005722046,Thu Feb 20 2025 14:21:48 GMT-0600 (Central Standard Time),888253.6999999881,B,chris,O,s,557,1,2433.5,885820.1999999881,7067,WL,C,6.0
6,21.39199995994568,distr,38608.00004005432,Thu Feb 20 2025 14:21:48 GMT-0600 (Central Standard Time),888335.5,B,christ,O,t,57,1,2515.300000011921,885820.1999999881,7067,WL,C,6.0
6,22.14299988746643,distr,37857.00011253357,Thu Feb 20 2025 14:21:48 GMT-0600 (Central Standard Time),889086.0,B,christm,O,m,742,1,3265.800000011921,885820.1999999881,7067,WL,C,6.0
6,22.442999839782715,distr,37557.000160217285,Thu Feb 20 2025 14:21:48 GMT-0600 (Central Standard Time),889386.0,B,christma,O,a,264,1,3565.800000011921,885820.1999999881,7067,WL,C,6.0
6,22.875999927520752,distr,37124.00007247925,Thu Feb 20 2025 14:21:48 GMT-0600 (Central Standard Time),889819.3000000119,B,christmas,O,s,394,1,3999.100000023842,885820.1999999881,7067,WL,C,6.0
6,23.15999984741211,distr,36840.00015258789,Thu Feb 20 2025 14:21:48 GMT-0600 (Central Standard Time),890103.1000000238,B,christmasenter,O,enter,254,1,4282.900000035763,885820.1999999881,7067,WL,C,6.0
6,24.95799994468689,distr,35042.00005531311,Thu Feb 20 2025 14:21:48 GMT-0600 (Central Standard Time),891901.8999999762,B,b,O,b,1792,1,1798.699999988079,890103.1999999881,7067,WL,C,7.0
6,25.39199995994568,distr,34608.00004005432,Thu Feb 20 2025 14:21:48 GMT-0600 (Central Standard Time),892335.1000000238,B,bu,O,u,406,1,2231.900000035763,890103.1999999881,7067,WL,C,7.0
6,25.72499990463257,distr,34275.00009536743,Thu Feb 20 2025 14:21:48 GMT-0600 (Central Standard Time),892668.6999999881,B,but,O,t,300,1,2565.5,890103.1999999881,7067,WL,C,7.0
6,25.924999952316284,distr,34075.000047683716,Thu Feb 20 2025 14:21:48 GMT-0600 (Central Standard Time),892869.0,B,butt,O,t,159,1,2765.800000011921,890103.1999999881,7067,WL,C,7.0
6,26.057999849319458,distr,33942.00015068054,Thu Feb 20 2025 14:21:48 GMT-0600 (Central Standard Time),893001.3000000119,B,butte,O,e,106,1,2898.100000023842,890103.1999999881,7067,WL,C,7.0
6,26.20799994468689,distr,33792.00005531311,Thu Feb 20 2025 14:21:48 GMT-0600 (Central Standard Time),893151.8999999762,B,butter,O,r,134,1,3048.699999988079,890103.1999999881,7067,WL,C,7.0
6,27.58999991416931,distr,32410.00008583069,Thu Feb 20 2025 14:21:48 GMT-0600 (Central Standard Time),894533.6000000238,B,butterenter,O,enter,1352,1,4430.400000035763,890103.1999999881,7067,WL,C,7.0
6,28.69099998474121,distr,31309.00001525879,Thu Feb 20 2025 14:21:48 GMT-0600 (Central Standard Time),895634.1999999881,B,h,O,h,1081,1,1100.3999999761581,894533.8000000119,7067,WL,C,8.0
6,28.924000024795532,distr,31075.999975204468,Thu Feb 20 2025 14:21:48 GMT-0600 (Central Standard Time),895867.1999999881,B,ha,O,a,199,1,1333.3999999761581,894533.8000000119,7067,WL,C,8.0
6,29.323999881744385,distr,30676.000118255615,Thu Feb 20 2025 14:21:48 GMT-0600 (Central Standard Time),896267.5,B,hal,O,l,371,1,1733.699999988079,894533.8000000119,7067,WL,C,8.0
6,29.506999969482422,distr,30493.000030517578,Thu Feb 20 2025 14:21:48 GMT-0600 (Central Standard Time),896450.6999999881,B,hall,O,l,151,1,1916.8999999761581,894533.8000000119,7067,WL,C,8.0
6,30.9229998588562,distr,29077.0001411438,Thu Feb 20 2025 14:21:48 GMT-0600 (Central Standard Time),897865.8999999762,B,hallenter,O,enter,1383,1,3332.099999964237,894533.8000000119,7067,WL,C,8.0
6,60.013999938964844,distr,-13.99993896484375,Thu Feb 20 2025 14:21:48 GMT-0600 (Central Standard Time),926957.1999999881,B,None,O,None,29085,1,29091.0,897866.1999999881,7067,WL,C,9.0
7,1.3819999694824219,immed,58618.00003051758,Thu Feb 20 2025 14:21:48 GMT-0600 (Central Standard Time),949582.1999999881,A,t,O,t,1356,1,1381.3999999761581,948200.8000000119,7067,WL,C,1.0
7,1.9489998817443848,immed,58051.000118255615,Thu Feb 20 2025 14:21:48 GMT-0600 (Central Standard Time),950148.5,A,to,O,o,558,1,1947.699999988079,948200.8000000119,7067,WL,C,1.0
7,2.747999906539917,immed,57252.00009346008,Thu Feb 20 2025 14:21:48 GMT-0600 (Central Standard Time),950948.3000000119,A,tow,O,w,791,1,2747.5,948200.8000000119,7067,WL,C,1.0
7,2.881999969482422,immed,57118.00003051758,Thu Feb 20 2025 14:21:48 GMT-0600 (Central Standard Time),951082.1000000238,A,towe,O,e,120,1,2881.300000011921,948200.8000000119,7067,WL,C,1.0
7,3.0820000171661377,immed,56917.99998283386,Thu Feb 20 2025 14:21:48 GMT-0600 (Central Standard Time),951281.6999999881,A,tower,O,r,186,1,3080.899999976158,948200.8000000119,7067,WL,C,1.0
7,4.0980000495910645,immed,55901.999950408936,Thu Feb 20 2025 14:21:48 GMT-0600 (Central Standard Time),952298.0,A,towerenter,O,enter,995,1,4097.199999988079,948200.8000000119,7067,WL,C,1.0
7,5.049000024795532,immed,54950.99997520447,Thu Feb 20 2025 14:21:48 GMT-0600 (Central Standard Time),953249.0,A,w,O,w,933,1,950.6999999880791,952298.3000000119,7067,WL,C,2.0
7,5.180999994277954,immed,54819.000005722046,Thu Feb 20 2025 14:21:48 GMT-0600 (Central Standard Time),953381.1999999881,A,wh,O,h,97,1,1082.8999999761581,952298.3000000119,7067,WL,C,2.0
7,5.549000024795532,immed,54450.99997520447,Thu Feb 20 2025 14:21:48 GMT-0600 (Central Standard Time),953748.8000000119,A,whe,O,e,349,1,1450.5,952298.3000000119,7067,WL,C,2.0
7,5.7820000648498535,immed,54217.99993515015,Thu Feb 20 2025 14:21:48 GMT-0600 (Central Standard Time),953981.6999999881,A,whea,O,a,196,1,1683.3999999761581,952298.3000000119,7067,WL,C,2.0
7,5.931999921798706,immed,54068.000078201294,Thu Feb 20 2025 14:21:48 GMT-0600 (Central Standard Time),954132.1000000238,A,wheat,O,t,116,1,1833.800000011921,952298.3000000119,7067,WL,C,2.0
7,6.646999835968018,immed,53353.00016403198,Thu Feb 20 2025 14:21:48 GMT-0600 (Central Standard Time),954847.1999999881,A,wheatenter,O,enter,686,1,2548.899999976158,952298.3000000119,7067,WL,C,2.0
7,7.997999906539917,immed,52002.00009346008,Thu Feb 20 2025 14:21:48 GMT-0600 (Central Standard Time),956198.3000000119,A,q,O,q,1344,1,1350.9000000357628,954847.3999999762,7067,WL,C,3.0
7,8.148000001907349,immed,51851.99999809265,Thu Feb 20 2025 14:21:48 GMT-0600 (Central Standard Time),956348.1999999881,A,qu,O,u,112,1,1500.800000011921,954847.3999999762,7067,WL,C,3.0
7,8.513999938964844,immed,51486.000061035156,Thu Feb 20 2025 14:21:48 GMT-0600 (Central Standard Time),956714.3999999762,A,que,O,e,330,1,1867.0,954847.3999999762,7067,WL,C,3.0
7,8.679999828338623,immed,51320.00017166138,Thu Feb 20 2025 14:21:48 GMT-0600 (Central Standard Time),956880.8000000119,A,quee,O,e,135,1,2033.4000000357628,954847.3999999762,7067,WL,C,3.0
7,9.263999938964844,immed,50736.000061035156,Thu Feb 20 2025 14:21:48 GMT-0600 (Central Standard Time),957463.8000000119,A,queen,O,n,547,1,2616.400000035763,954847.3999999762,7067,WL,C,3.0
7,9.763999938964844,immed,50236.000061035156,Thu Feb 20 2025 14:21:48 GMT-0600 (Central Standard Time),957963.5,A,queenenter,O,enter,472,1,3116.100000023842,954847.3999999762,7067,WL,C,3.0
7,10.44700002670288,immed,49552.99997329712,Thu Feb 20 2025 14:21:48 GMT-0600 (Central Standard Time),958646.6999999881,A,s,O,s,668,1,683.0,957963.6999999881,7067,WL,C,4.0
7,10.563999891281128,immed,49436.00010871887,Thu Feb 20 2025 14:21:48 GMT-0600 (Central Standard Time),958763.6000000238,A,su,O,u,83,1,799.9000000357628,957963.6999999881,7067,WL,C,4.0
7,11.113999843597412,immed,48886.00015640259,Thu Feb 20 2025 14:21:48 GMT-0600 (Central Standard Time),959313.5,A,sug,O,g,511,1,1349.800000011921,957963.6999999881,7067,WL,C,4.0
7,11.29699993133545,immed,48703.00006866455,Thu Feb 20 2025 14:21:48 GMT-0600 (Central Standard Time),959496.5,A,suga,O,a,146,1,1532.800000011921,957963.6999999881,7067,WL,C,4.0
7,11.44700002670288,immed,48552.99997329712,Thu Feb 20 2025 14:21:48 GMT-0600 (Central Standard Time),959646.6000000238,A,sugar,O,r,121,1,1682.9000000357628,957963.6999999881,7067,WL,C,4.0
7,12.312000036239624,immed,47687.999963760376,Thu Feb 20 2025 14:21:48 GMT-0600 (Central Standard Time),960512.0,A,sugarenter,O,enter,837,1,2548.300000011921,957963.6999999881,7067,WL,C,4.0
7,13.079999923706055,immed,46920.000076293945,Thu Feb 20 2025 14:21:48 GMT-0600 (Central Standard Time),961279.3000000119,A,h,O,h,751,1,767.1000000238419,960512.1999999881,7067,WL,C,5.0
7,13.513000011444092,immed,46486.99998855591,Thu Feb 20 2025 14:21:48 GMT-0600 (Central Standard Time),961712.3000000119,A,ho,O,o,396,1,1200.1000000238419,960512.1999999881,7067,WL,C,5.0
7,14.11299991607666,immed,45887.00008392334,Thu Feb 20 2025 14:21:48 GMT-0600 (Central Standard Time),962312.5,A,hom,O,m,572,1,1800.300000011921,960512.1999999881,7067,WL,C,5.0
7,14.312000036239624,immed,45687.999963760376,Thu Feb 20 2025 14:21:48 GMT-0600 (Central Standard Time),962512.0,A,home,O,e,164,1,1999.800000011921,960512.1999999881,7067,WL,C,5.0
7,14.911999940872192,immed,45088.00005912781,Thu Feb 20 2025 14:21:48 GMT-0600 (Central Standard Time),963111.1000000238,A,homeenter,O,enter,574,1,2598.900000035763,960512.1999999881,7067,WL,C,5.0
7,17.244999885559082,immed,42755.00011444092,Thu Feb 20 2025 14:21:48 GMT-0600 (Central Standard Time),965444.8000000119,A,b,O,b,2319,1,2333.400000035763,963111.3999999762,7067,WL,C,6.0
7,17.394999980926514,immed,42605.000019073486,Thu Feb 20 2025 14:21:48 GMT-0600 (Central Standard Time),965594.6000000238,A,bo,O,o,117,1,2483.2000000476837,963111.3999999762,7067,WL,C,6.0
7,17.91100001335144,immed,42088.99998664856,Thu Feb 20 2025 14:21:48 GMT-0600 (Central Standard Time),966110.8999999762,A,boy,O,y,485,1,2999.5,963111.3999999762,7067,WL,C,6.0
7,18.74399995803833,immed,41256.00004196167,Thu Feb 20 2025 14:21:48 GMT-0600 (Central Standard Time),966943.3000000119,A,boyenter,O,enter,813,1,3831.900000035763,963111.3999999762,7067,WL,C,6.0
7,19.694000005722046,immed,40305.999994277954,Thu Feb 20 2025 14:21:48 GMT-0600 (Central Standard Time),967893.6999999881,A,d,O,d,935,1,950.1999999880791,966943.5,7067,WL,C,7.0
7,19.8439998626709,immed,40156.0001373291,Thu Feb 20 2025 14:21:48 GMT-0600 (Central Standard Time),968043.5,A,do,O,o,111,1,1100.0,966943.5,7067,WL,C,7.0
7,20.027999877929688,immed,39972.00012207031,Thu Feb 20 2025 14:21:48 GMT-0600 (Central Standard Time),968227.5,A,doc,O,c,145,1,1284.0,966943.5,7067,WL,C,7.0
7,20.32699990272522,immed,39673.00009727478,Thu Feb 20 2025 14:21:48 GMT-0600 (Central Standard Time),968526.6000000238,A,doct,O,t,277,1,1583.1000000238419,966943.5,7067,WL,C,7.0
7,20.91100001335144,immed,39088.99998664856,Thu Feb 20 2025 14:21:48 GMT-0600 (Central Standard Time),969110.3000000119,A,docto,O,o,559,1,2166.800000011921,966943.5,7067,WL,C,7.0
7,21.07699990272522,immed,38923.00009727478,Thu Feb 20 2025 14:21:48 GMT-0600 (Central Standard Time),969277.0,A,doctor,O,r,129,1,2333.5,966943.5,7067,WL,C,7.0
7,22.442999839782715,immed,37557.000160217285,Thu Feb 20 2025 14:21:48 GMT-0600 (Central Standard Time),970642.0,A,doctorenter,O,enter,1328,1,3698.5,966943.5,7067,WL,C,7.0
7,23.22699999809265,immed,36773.00000190735,Thu Feb 20 2025 14:21:48 GMT-0600 (Central Standard Time),971426.3999999762,A,c,O,c,764,1,784.0999999642372,970642.3000000119,7067,WL,C,8.0
7,23.710999965667725,immed,36289.000034332275,Thu Feb 20 2025 14:21:48 GMT-0600 (Central Standard Time),971910.3999999762,A,ca,O,a,456,1,1268.0999999642372,970642.3000000119,7067,WL,C,8.0
7,23.858999967575073,immed,36141.00003242493,Thu Feb 20 2025 14:21:48 GMT-0600 (Central Standard Time),972058.8999999762,A,cam,O,m,109,1,1416.5999999642372,970642.3000000119,7067,WL,C,8.0
7,24.243000030517578,immed,35756.99996948242,Thu Feb 20 2025 14:21:48 GMT-0600 (Central Standard Time),972442.6000000238,A,camp,O,p,352,1,1800.300000011921,970642.3000000119,7067,WL,C,8.0
7,25.325000047683716,immed,34674.999952316284,Thu Feb 20 2025 14:21:48 GMT-0600 (Central Standard Time),973525.0,A,campenter,O,enter,1056,1,2882.699999988079,970642.3000000119,7067,WL,C,8.0
7,27.274999856948853,immed,32725.000143051147,Thu Feb 20 2025 14:21:48 GMT-0600 (Central Standard Time),975474.3999999762,A,f,O,f,1929,1,1949.199999988079,973525.1999999881,7067,WL,C,9.0
7,27.424999952316284,immed,32575.000047683716,Thu Feb 20 2025 14:21:48 GMT-0600 (Central Standard Time),975624.3000000119,A,fl,O,l,126,1,2099.100000023842,973525.1999999881,7067,WL,C,9.0
7,28.240999937057495,immed,31759.000062942505,Thu Feb 20 2025 14:21:48 GMT-0600 (Central Standard Time),976440.6999999881,A,fla,O,a,790,1,2915.5,973525.1999999881,7067,WL,C,9.0
7,28.340999841690063,immed,31659.000158309937,Thu Feb 20 2025 14:21:48 GMT-0600 (Central Standard Time),976540.1000000238,A,flag,O,g,74,1,3014.900000035763,973525.1999999881,7067,WL,C,9.0
7,29.0239999294281,immed,30976.0000705719,Thu Feb 20 2025 14:21:48 GMT-0600 (Central Standard Time),977223.1999999881,A,flagenter,O,enter,662,1,3698.0,973525.1999999881,7067,WL,C,9.0
7,30.04099988937378,immed,29959.00011062622,Thu Feb 20 2025 14:21:48 GMT-0600 (Central Standard Time),978240.3000000119,A,l,O,l,999,1,1016.6999999880791,977223.6000000238,7067,WL,C,10.0
7,30.424000024795532,immed,29575.999975204468,Thu Feb 20 2025 14:21:48 GMT-0600 (Central Standard Time),978623.6000000238,A,le,O,e,355,1,1400.0,977223.6000000238,7067,WL,C,10.0
7,30.723999977111816,immed,29276.000022888184,Thu Feb 20 2025 14:21:48 GMT-0600 (Central Standard Time),978923.8999999762,A,let,O,t,266,1,1700.2999999523163,977223.6000000238,7067,WL,C,10.0
7,30.889999866485596,immed,29110.000133514404,Thu Feb 20 2025 14:21:48 GMT-0600 (Central Standard Time),979090.1000000238,A,lett,O,t,134,1,1866.5,977223.6000000238,7067,WL,C,10.0
7,31.073999881744385,immed,28926.000118255615,Thu Feb 20 2025 14:21:48 GMT-0600 (Central Standard Time),979273.3000000119,A,lette,O,e,151,1,2049.699999988079,977223.6000000238,7067,WL,C,10.0
7,31.240999937057495,immed,28759.000062942505,Thu Feb 20 2025 14:21:48 GMT-0600 (Central Standard Time),979440.3999999762,A,letter,O,r,131,1,2216.7999999523163,977223.6000000238,7067,WL,C,10.0
7,32.52199983596802,immed,27478.000164031982,Thu Feb 20 2025 14:21:48 GMT-0600 (Central Standard Time),980722.0,A,letterenter,O,enter,1250,1,3498.399999976158,977223.6000000238,7067,WL,C,10.0
7,33.50699996948242,immed,26493.000030517578,Thu Feb 20 2025 14:21:48 GMT-0600 (Central Standard Time),981706.1999999881,A,c,O,c,973,1,983.8999999761581,980722.3000000119,7067,WL,C,11.0
7,33.638999938964844,immed,26361.000061035156,Thu Feb 20 2025 14:21:48 GMT-0600 (Central Standard Time),981838.3000000119,A,co,O,o,96,1,1116.0,980722.3000000119,7067,WL,C,11.0
7,34.4229998588562,immed,25577.0001411438,Thu Feb 20 2025 14:21:48 GMT-0600 (Central Standard Time),982622.1000000238,A,cor,O,r,768,1,1899.800000011921,980722.3000000119,7067,WL,C,11.0
7,34.55499982833862,immed,25445.000171661377,Thu Feb 20 2025 14:21:48 GMT-0600 (Central Standard Time),982754.6000000238,A,corn,O,n,94,1,2032.300000011921,980722.3000000119,7067,WL,C,11.0
7,35.305999994277954,immed,24694.000005722046,Thu Feb 20 2025 14:21:48 GMT-0600 (Central Standard Time),983505.1000000238,A,cornenter,O,enter,738,1,2782.800000011921,980722.3000000119,7067,WL,C,11.0
7,36.204999923706055,immed,23795.000076293945,Thu Feb 20 2025 14:21:48 GMT-0600 (Central Standard Time),984405.0,A,n,O,n,886,1,899.6000000238419,983505.3999999762,7067,WL,C,12.0
7,36.73799991607666,immed,23262.00008392334,Thu Feb 20 2025 14:21:48 GMT-0600 (Central Standard Time),984937.1999999881,A,na,O,a,500,1,1431.800000011921,983505.3999999762,7067,WL,C,12.0
7,36.871999979019165,immed,23128.000020980835,Thu Feb 20 2025 14:21:48 GMT-0600 (Central Standard Time),985071.6000000238,A,nai,O,i,118,1,1566.2000000476837,983505.3999999762,7067,WL,C,12.0
7,37.25499987602234,immed,22745.00012397766,Thu Feb 20 2025 14:21:48 GMT-0600 (Central Standard Time),985454.8999999762,A,nail,O,l,344,1,1949.5,983505.3999999762,7067,WL,C,12.0
7,37.63800001144409,immed,22361.99998855591,Thu Feb 20 2025 14:21:48 GMT-0600 (Central Standard Time),985837.1000000238,A,nailenter,O,enter,354,1,2331.7000000476837,983505.3999999762,7067,WL,C,12.0
7,38.437000036239624,immed,21562.999963760376,Thu Feb 20 2025 14:21:48 GMT-0600 (Central Standard Time),986636.6000000238,A,c,O,c,791,1,799.2000000476837,985837.3999999762,7067,WL,C,13.0
7,38.603999853134155,immed,21396.000146865845,Thu Feb 20 2025 14:21:48 GMT-0600 (Central Standard Time),986803.5,A,ca,O,a,150,1,966.1000000238419,985837.3999999762,7067,WL,C,13.0
7,39.40299987792969,immed,20597.000122070312,Thu Feb 20 2025 14:21:48 GMT-0600 (Central Standard Time),987603.0,A,cat,O,t,775,1,1765.6000000238419,985837.3999999762,7067,WL,C,13.0
7,39.603999853134155,immed,20396.000146865845,Thu Feb 20 2025 14:21:48 GMT-0600 (Central Standard Time),987803.0,A,catt,O,t,177,1,1965.6000000238419,985837.3999999762,7067,WL,C,13.0
7,39.80399990081787,immed,20196.00009918213,Thu Feb 20 2025 14:21:48 GMT-0600 (Central Standard Time),988003.0,A,cattl,O,l,185,1,2165.600000023842,985837.3999999762,7067,WL,C,13.0
7,40.68599987030029,immed,19314.000129699707,Thu Feb 20 2025 14:21:48 GMT-0600 (Central Standard Time),988886.0,A,cattle,O,e,866,1,3048.600000023842,985837.3999999762,7067,WL,C,13.0
7,40.88699984550476,immed,19113.00015449524,Thu Feb 20 2025 14:21:48 GMT-0600 (Central Standard Time),989086.0,A,cattleenter,O,enter,183,1,3248.600000023842,985837.3999999762,7067,WL,C,13.0
7,42.1029999256134,immed,17897.000074386597,Thu Feb 20 2025 14:21:48 GMT-0600 (Central Standard Time),990302.1999999881,A,s,O,s,1207,1,1216.0,989086.1999999881,7067,WL,C,14.0
7,42.236000061035156,immed,17763.999938964844,Thu Feb 20 2025 14:21:48 GMT-0600 (Central Standard Time),990435.5,A,sh,O,h,110,1,1349.300000011921,989086.1999999881,7067,WL,C,14.0
7,42.7189998626709,immed,17281.0001373291,Thu Feb 20 2025 14:21:48 GMT-0600 (Central Standard Time),990918.6999999881,A,sho,O,o,465,1,1832.5,989086.1999999881,7067,WL,C,14.0
7,43.13599991798401,immed,16864.00008201599,Thu Feb 20 2025 14:21:48 GMT-0600 (Central Standard Time),991335.1000000238,A,shor,O,r,405,1,2248.900000035763,989086.1999999881,7067,WL,C,14.0
7,43.26900005340576,immed,16730.99994659424,Thu Feb 20 2025 14:21:48 GMT-0600 (Central Standard Time),991468.3000000119,A,shore,O,e,126,1,2382.100000023842,989086.1999999881,7067,WL,C,14.0
7,43.95199990272522,immed,16048.00009727478,Thu Feb 20 2025 14:21:48 GMT-0600 (Central Standard Time),992151.6000000238,A,shoreenter,O,enter,673,1,3065.400000035763,989086.1999999881,7067,WL,C,14.0
7,45.236000061035156,immed,14763.999938964844,Thu Feb 20 2025 14:21:48 GMT-0600 (Central Standard Time),993436.1000000238,A,b,O,b,1271,1,1284.2000000476837,992151.8999999762,7067,WL,C,15.0
7,45.736000061035156,immed,14263.999938964844,Thu Feb 20 2025 14:21:48 GMT-0600 (Central Standard Time),993935.3000000119,A,bo,O,o,470,1,1783.4000000357628,992151.8999999762,7067,WL,C,15.0
7,46.486000061035156,immed,13513.999938964844,Thu Feb 20 2025 14:21:48 GMT-0600 (Central Standard Time),994685.3999999762,A,bod,O,d,717,1,2533.5,992151.8999999762,7067,WL,C,15.0
7,46.60199999809265,immed,13398.000001907349,Thu Feb 20 2025 14:21:48 GMT-0600 (Central Standard Time),994801.3999999762,A,body,O,y,86,1,2649.5,992151.8999999762,7067,WL,C,15.0
7,47.28399991989136,immed,12716.000080108643,Thu Feb 20 2025 14:21:48 GMT-0600 (Central Standard Time),995484.0,A,bodyenter,O,enter,642,1,3332.100000023842,992151.8999999762,7067,WL,C,15.0
