block_c,block_dur,condition,countdown,datetime,endtime,list,multichar_response,project,response,response_time,session_number,start_end,starttime,subject_id,task,task_vers,trial
,,,,Fri Apr 11 2025 10:10:39 GMT-0400 (Eastern Daylight Time),,,,I,space,468,1,,,9011,WL,A,
prac,,0,,Fri Apr 11 2025 10:10:39 GMT-0400 (Eastern Daylight Time),,NA,b,I,b,3800,1,,,9011,WL,A,1.0
prac,,0,,Fri Apr 11 2025 10:10:39 GMT-0400 (Eastern Daylight Time),,NA,bo,I,o,291,1,,,9011,WL,A,1.0
prac,,0,,Fri Apr 11 2025 10:10:39 GMT-0400 (Eastern Daylight Time),,NA,boo,I,o,120,1,,,9011,WL,A,1.0
prac,,0,,Fri Apr 11 2025 10:10:39 GMT-0400 (Eastern Daylight Time),,NA,boos,I,s,50,1,,,9011,WL,A,1.0
prac,,0,,Fri Apr 11 2025 10:10:39 GMT-0400 (Eastern Daylight Time),,NA,boost,I,t,92,1,,,9011,WL,A,1.0
prac,,0,,Fri Apr 11 2025 10:10:39 GMT-0400 (Eastern Daylight Time),,NA,boostenter,I,enter,1635,1,,,9011,WL,A,1.0
1,2.3509998321533203,learn,57649.00016784668,Fri Apr 11 2025 10:10:39 GMT-0400 (Eastern Daylight Time),142231.70000076294,A,a,I,a,2337,1,2350.7000007629395,139881.0,9011,WL,A,1.0
1,3.049999952316284,learn,56950.000047683716,Fri Apr 11 2025 10:10:39 GMT-0400 (Eastern Daylight Time),142931.20000076294,A,,I,backspace,685,1,3050.2000007629395,139881.0,9011,WL,A,1.0
1,3.25,learn,56750.0,Fri Apr 11 2025 10:10:39 GMT-0400 (Eastern Daylight Time),143131.20000076294,A,r,I,r,181,1,3250.2000007629395,139881.0,9011,WL,A,1.0
1,3.3499999046325684,learn,56650.00009536743,Fri Apr 11 2025 10:10:39 GMT-0400 (Eastern Daylight Time),143231.30000019073,A,ra,I,a,67,1,3350.300000190735,139881.0,9011,WL,A,1.0
1,3.4499998092651367,learn,56550.00019073486,Fri Apr 11 2025 10:10:39 GMT-0400 (Eastern Daylight Time),143331.20000076294,A,rat,I,t,86,1,3450.2000007629395,139881.0,9011,WL,A,1.0
1,3.799999952316284,learn,56200.000047683716,Fri Apr 11 2025 10:10:39 GMT-0400 (Eastern Daylight Time),143681.4000005722,A,ratt,I,t,314,1,3800.4000005722046,139881.0,9011,WL,A,1.0
1,4.083999872207642,learn,55916.00012779236,Fri Apr 11 2025 10:10:39 GMT-0400 (Eastern Daylight Time),143964.70000076294,A,rattl,I,l,262,1,4083.7000007629395,139881.0,9011,WL,A,1.0
1,4.166999816894531,learn,55833.00018310547,Fri Apr 11 2025 10:10:39 GMT-0400 (Eastern Daylight Time),144048.10000038147,A,rattle,I,e,58,1,4167.10000038147,139881.0,9011,WL,A,1.0
1,4.4679999351501465,learn,55532.00006484985,Fri Apr 11 2025 10:10:39 GMT-0400 (Eastern Daylight Time),144348.60000038147,A,rattleenter,I,enter,270,1,4467.60000038147,139881.0,9011,WL,A,1.0
1,5.283999919891357,learn,54716.00008010864,Fri Apr 11 2025 10:10:39 GMT-0400 (Eastern Daylight Time),145164.70000076294,A,b,I,b,797,1,815.4000005722046,144349.30000019073,9011,WL,A,2.0
1,5.516999959945679,learn,54483.00004005432,Fri Apr 11 2025 10:10:39 GMT-0400 (Eastern Daylight Time),145398.0,A,bo,I,o,218,1,1048.6999998092651,144349.30000019073,9011,WL,A,2.0
1,5.733999967575073,learn,54266.00003242493,Fri Apr 11 2025 10:10:39 GMT-0400 (Eastern Daylight Time),145614.70000076294,A,boo,I,o,193,1,1265.4000005722046,144349.30000019073,9011,WL,A,2.0
1,5.83299994468689,learn,54167.00005531311,Fri Apr 11 2025 10:10:39 GMT-0400 (Eastern Daylight Time),145714.4000005722,A,book,I,k,72,1,1365.1000003814697,144349.30000019073,9011,WL,A,2.0
1,6.216999769210815,learn,53783.000230789185,Fri Apr 11 2025 10:10:39 GMT-0400 (Eastern Daylight Time),146097.60000038147,A,bookenter,I,enter,370,1,1748.3000001907349,144349.30000019073,9011,WL,A,2.0
1,6.783999919891357,learn,53216.00008010864,Fri Apr 11 2025 10:10:39 GMT-0400 (Eastern Daylight Time),146664.60000038147,A,f,I,f,553,1,566.6000003814697,146098.0,9011,WL,A,3.0
1,6.916999816894531,learn,53083.00018310547,Fri Apr 11 2025 10:10:39 GMT-0400 (Eastern Daylight Time),146797.9000005722,A,fl,I,l,102,1,699.9000005722046,146098.0,9011,WL,A,3.0
1,7.099999904632568,learn,52900.00009536743,Fri Apr 11 2025 10:10:39 GMT-0400 (Eastern Daylight Time),146981.4000005722,A,flo,I,o,170,1,883.4000005722046,146098.0,9011,WL,A,3.0
1,7.199999809265137,learn,52800.00019073486,Fri Apr 11 2025 10:10:39 GMT-0400 (Eastern Daylight Time),147081.30000019073,A,flow,I,w,82,1,983.3000001907349,146098.0,9011,WL,A,3.0
1,7.266999959945679,learn,52733.00004005432,Fri Apr 11 2025 10:10:39 GMT-0400 (Eastern Daylight Time),147147.70000076294,A,flowe,I,e,38,1,1049.7000007629395,146098.0,9011,WL,A,3.0
1,7.349999904632568,learn,52650.00009536743,Fri Apr 11 2025 10:10:39 GMT-0400 (Eastern Daylight Time),147230.80000019073,A,flower,I,r,51,1,1132.8000001907349,146098.0,9011,WL,A,3.0
1,7.6499998569488525,learn,52350.00014305115,Fri Apr 11 2025 10:10:39 GMT-0400 (Eastern Daylight Time),147530.80000019073,A,flowerenter,I,enter,280,1,1432.8000001907349,146098.0,9011,WL,A,3.0
1,8.266999959945679,learn,51733.00004005432,Fri Apr 11 2025 10:10:39 GMT-0400 (Eastern Daylight Time),148147.9000005722,A,m,I,m,607,1,616.6000003814697,147531.30000019073,9011,WL,A,4.0
1,8.366999864578247,learn,51633.00013542175,Fri Apr 11 2025 10:10:39 GMT-0400 (Eastern Daylight Time),148247.80000019073,A,me,I,e,82,1,716.5,147531.30000019073,9011,WL,A,4.0
1,8.449999809265137,learn,51550.00019073486,Fri Apr 11 2025 10:10:39 GMT-0400 (Eastern Daylight Time),148330.9000005722,A,mea,I,a,62,1,799.6000003814697,147531.30000019073,9011,WL,A,4.0
1,8.649999856948853,learn,51350.00014305115,Fri Apr 11 2025 10:10:39 GMT-0400 (Eastern Daylight Time),148530.9000005722,A,mead,I,d,187,1,999.6000003814697,147531.30000019073,9011,WL,A,4.0
1,8.799999952316284,learn,51200.000047683716,Fri Apr 11 2025 10:10:39 GMT-0400 (Eastern Daylight Time),148681.30000019073,A,meado,I,o,133,1,1150.0,147531.30000019073,9011,WL,A,4.0
1,8.916999816894531,learn,51083.00018310547,Fri Apr 11 2025 10:10:39 GMT-0400 (Eastern Daylight Time),148797.9000005722,A,meadow,I,w,85,1,1266.6000003814697,147531.30000019073,9011,WL,A,4.0
1,9.399999856948853,learn,50600.00014305115,Fri Apr 11 2025 10:10:39 GMT-0400 (Eastern Daylight Time),149280.80000019073,A,meadowenter,I,enter,448,1,1749.5,147531.30000019073,9011,WL,A,4.0
1,11.333999872207642,learn,48666.00012779236,Fri Apr 11 2025 10:10:39 GMT-0400 (Eastern Daylight Time),151214.70000076294,A,g,I,g,1913,1,1933.5,149281.20000076294,9011,WL,A,5.0
1,11.466999769210815,learn,48533.000230789185,Fri Apr 11 2025 10:10:39 GMT-0400 (Eastern Daylight Time),151348.0,A,go,I,o,121,1,2066.7999992370605,149281.20000076294,9011,WL,A,5.0
1,11.68399977684021,learn,48316.00022315979,Fri Apr 11 2025 10:10:39 GMT-0400 (Eastern Daylight Time),151564.70000076294,A,gol,I,l,187,1,2283.5,149281.20000076294,9011,WL,A,5.0
1,11.766999959945679,learn,48233.00004005432,Fri Apr 11 2025 10:10:39 GMT-0400 (Eastern Daylight Time),151647.70000076294,A,gold,I,d,59,1,2366.5,149281.20000076294,9011,WL,A,5.0
1,12.265999794006348,learn,47734.00020599365,Fri Apr 11 2025 10:10:39 GMT-0400 (Eastern Daylight Time),152147.4000005722,A,goldenter,I,enter,480,1,2866.199999809265,149281.20000076294,9011,WL,A,5.0
1,13.366999864578247,learn,46633.00013542175,Fri Apr 11 2025 10:10:39 GMT-0400 (Eastern Daylight Time),153247.9000005722,A,s,I,s,1079,1,1100.1000003814697,152147.80000019073,9011,WL,A,6.0
1,13.616999864578247,learn,46383.00013542175,Fri Apr 11 2025 10:10:39 GMT-0400 (Eastern Daylight Time),153498.0,A,sa,I,a,228,1,1350.1999998092651,152147.80000019073,9011,WL,A,6.0
1,13.733999967575073,learn,46266.00003242493,Fri Apr 11 2025 10:10:39 GMT-0400 (Eastern Daylight Time),153614.70000076294,A,sal,I,l,93,1,1466.9000005722046,152147.80000019073,9011,WL,A,6.0
1,13.849999904632568,learn,46150.00009536743,Fri Apr 11 2025 10:10:39 GMT-0400 (Eastern Daylight Time),153730.9000005722,A,salt,I,t,96,1,1583.1000003814697,152147.80000019073,9011,WL,A,6.0
1,14.16599988937378,learn,45834.00011062622,Fri Apr 11 2025 10:10:39 GMT-0400 (Eastern Daylight Time),154047.4000005722,A,saltenter,I,enter,284,1,1899.6000003814697,152147.80000019073,9011,WL,A,6.0
1,15.43399977684021,learn,44566.00022315979,Fri Apr 11 2025 10:10:39 GMT-0400 (Eastern Daylight Time),155314.60000038147,A,r,I,r,1243,1,1266.8000001907349,154047.80000019073,9011,WL,A,7.0
1,15.616999864578247,learn,44383.00013542175,Fri Apr 11 2025 10:10:39 GMT-0400 (Eastern Daylight Time),155498.0,A,ru,I,u,165,1,1450.1999998092651,154047.80000019073,9011,WL,A,7.0
1,15.682999849319458,learn,44317.00015068054,Fri Apr 11 2025 10:10:39 GMT-0400 (Eastern Daylight Time),155564.20000076294,A,rug,I,g,39,1,1516.4000005722046,154047.80000019073,9011,WL,A,7.0
1,16.08299994468689,learn,43917.00005531311,Fri Apr 11 2025 10:10:39 GMT-0400 (Eastern Daylight Time),155964.20000076294,A,rugenter,I,enter,379,1,1916.4000005722046,154047.80000019073,9011,WL,A,7.0
1,25.799999952316284,learn,34200.000047683716,Fri Apr 11 2025 10:10:39 GMT-0400 (Eastern Daylight Time),165681.30000019073,A,l,I,l,9695,1,9716.699999809265,155964.60000038147,9011,WL,A,8.0
1,25.93399977684021,learn,34066.00022315979,Fri Apr 11 2025 10:10:39 GMT-0400 (Eastern Daylight Time),165814.70000076294,A,lo,I,o,117,1,9850.10000038147,155964.60000038147,9011,WL,A,8.0
1,26.049999952316284,learn,33950.000047683716,Fri Apr 11 2025 10:10:39 GMT-0400 (Eastern Daylight Time),165931.20000076294,A,log,I,g,90,1,9966.60000038147,155964.60000038147,9011,WL,A,8.0
1,26.199999809265137,learn,33800.00019073486,Fri Apr 11 2025 10:10:39 GMT-0400 (Eastern Daylight Time),166080.70000076294,A,logenter,I,enter,116,1,10116.10000038147,155964.60000038147,9011,WL,A,8.0
1,36.34999990463257,learn,23650.00009536743,Fri Apr 11 2025 10:10:39 GMT-0400 (Eastern Daylight Time),176231.30000019073,A,f,I,f,10139,1,10150.199999809265,166081.10000038147,9011,WL,A,9.0
1,36.44999980926514,learn,23550.000190734863,Fri Apr 11 2025 10:10:39 GMT-0400 (Eastern Daylight Time),176331.20000076294,A,fi,I,i,81,1,10250.10000038147,166081.10000038147,9011,WL,A,9.0
1,36.51699995994568,learn,23483.00004005432,Fri Apr 11 2025 10:10:39 GMT-0400 (Eastern Daylight Time),176397.5,A,fin,I,n,44,1,10316.39999961853,166081.10000038147,9011,WL,A,9.0
1,36.59999990463257,learn,23400.00009536743,Fri Apr 11 2025 10:10:39 GMT-0400 (Eastern Daylight Time),176481.30000019073,A,fing,I,g,59,1,10400.199999809265,166081.10000038147,9011,WL,A,9.0
1,36.69999980926514,learn,23300.000190734863,Fri Apr 11 2025 10:10:39 GMT-0400 (Eastern Daylight Time),176580.9000005722,A,finge,I,e,79,1,10499.800000190735,166081.10000038147,9011,WL,A,9.0
1,36.81699991226196,learn,23183.000087738037,Fri Apr 11 2025 10:10:39 GMT-0400 (Eastern Daylight Time),176697.80000019073,A,finger,I,r,100,1,10616.699999809265,166081.10000038147,9011,WL,A,9.0
1,37.01599979400635,learn,22984.000205993652,Fri Apr 11 2025 10:10:39 GMT-0400 (Eastern Daylight Time),176897.30000019073,A,fingerenter,I,enter,166,1,10816.199999809265,166081.10000038147,9011,WL,A,9.0
1,37.91699981689453,learn,22083.00018310547,Fri Apr 11 2025 10:10:39 GMT-0400 (Eastern Daylight Time),177797.9000005722,A,b,I,b,889,1,900.1999998092651,176897.70000076294,9011,WL,A,10.0
1,38.049999952316284,learn,21950.000047683716,Fri Apr 11 2025 10:10:39 GMT-0400 (Eastern Daylight Time),177931.4000005722,A,bu,I,u,114,1,1033.6999998092651,176897.70000076294,9011,WL,A,10.0
1,38.18399977684021,learn,21816.00022315979,Fri Apr 11 2025 10:10:39 GMT-0400 (Eastern Daylight Time),178064.60000038147,A,but,I,t,101,1,1166.8999996185303,176897.70000076294,9011,WL,A,10.0
1,38.28399991989136,learn,21716.000080108643,Fri Apr 11 2025 10:10:39 GMT-0400 (Eastern Daylight Time),178164.60000038147,A,butt,I,t,80,1,1266.8999996185303,176897.70000076294,9011,WL,A,10.0
1,38.39999985694885,learn,21600.000143051147,Fri Apr 11 2025 10:10:39 GMT-0400 (Eastern Daylight Time),178281.10000038147,A,butto,I,o,92,1,1383.3999996185303,176897.70000076294,9011,WL,A,10.0
1,38.45099997520447,learn,21549.000024795532,Fri Apr 11 2025 10:10:39 GMT-0400 (Eastern Daylight Time),178331.5,A,button,I,n,22,1,1433.7999992370605,176897.70000076294,9011,WL,A,10.0
1,38.615999937057495,learn,21384.000062942505,Fri Apr 11 2025 10:10:39 GMT-0400 (Eastern Daylight Time),178497.5,A,buttonenter,I,enter,142,1,1599.7999992370605,176897.70000076294,9011,WL,A,10.0
1,45.69999980926514,learn,14300.000190734863,Fri Apr 11 2025 10:10:39 GMT-0400 (Eastern Daylight Time),185581.4000005722,A,t,I,t,7066,1,7083.60000038147,178497.80000019073,9011,WL,A,11.0
1,45.882999897003174,learn,14117.000102996826,Fri Apr 11 2025 10:10:39 GMT-0400 (Eastern Daylight Time),185764.5,A,tr,I,r,170,1,7266.699999809265,178497.80000019073,9011,WL,A,11.0
1,45.93299984931946,learn,14067.000150680542,Fri Apr 11 2025 10:10:39 GMT-0400 (Eastern Daylight Time),185814.0,A,tra,I,a,36,1,7316.199999809265,178497.80000019073,9011,WL,A,11.0
1,46.03399991989136,learn,13966.000080108643,Fri Apr 11 2025 10:10:39 GMT-0400 (Eastern Daylight Time),185914.5,A,trai,I,i,85,1,7416.699999809265,178497.80000019073,9011,WL,A,11.0
1,46.08299994468689,learn,13917.00005531311,Fri Apr 11 2025 10:10:39 GMT-0400 (Eastern Daylight Time),185964.10000038147,A,train,I,n,21,1,7466.300000190735,178497.80000019073,9011,WL,A,11.0
1,46.23299980163574,learn,13767.000198364258,Fri Apr 11 2025 10:10:39 GMT-0400 (Eastern Daylight Time),186114.10000038147,A,trainenter,I,enter,125,1,7616.300000190735,178497.80000019073,9011,WL,A,11.0
1,51.08299994468689,learn,8917.00005531311,Fri Apr 11 2025 10:10:39 GMT-0400 (Eastern Daylight Time),190964.5,A,f,I,f,4841,1,4850.099999427795,186114.4000005722,9011,WL,A,12.0
1,51.19999980926514,learn,8800.000190734863,Fri Apr 11 2025 10:10:39 GMT-0400 (Eastern Daylight Time),191081.10000038147,A,fl,I,l,97,1,4966.699999809265,186114.4000005722,9011,WL,A,12.0
1,51.41699981689453,learn,8583.000183105469,Fri Apr 11 2025 10:10:39 GMT-0400 (Eastern Daylight Time),191297.80000019073,A,flo,I,o,191,1,5183.39999961853,186114.4000005722,9011,WL,A,12.0
1,51.44999980926514,learn,8550.000190734863,Fri Apr 11 2025 10:10:39 GMT-0400 (Eastern Daylight Time),191330.5,A,flow,I,w,21,1,5216.099999427795,186114.4000005722,9011,WL,A,12.0
1,51.51599979400635,learn,8484.000205993652,Fri Apr 11 2025 10:10:39 GMT-0400 (Eastern Daylight Time),191397.4000005722,A,flowe,I,e,55,1,5283.0,186114.4000005722,9011,WL,A,12.0
1,51.61699986457825,learn,8383.000135421753,Fri Apr 11 2025 10:10:39 GMT-0400 (Eastern Daylight Time),191497.80000019073,A,flower,I,r,85,1,5383.39999961853,186114.4000005722,9011,WL,A,12.0
1,54.382999897003174,learn,5617.000102996826,Fri Apr 11 2025 10:10:39 GMT-0400 (Eastern Daylight Time),194264.10000038147,A,flowerenter,I,enter,2742,1,8149.699999809265,186114.4000005722,9011,WL,A,12.0
1,60.01699995994568,learn,-16.99995994567871,Fri Apr 11 2025 10:10:39 GMT-0400 (Eastern Daylight Time),199897.9000005722,A,None,I,None,5626,1,5633.5,194264.4000005722,9011,WL,A,13.0
2,2.1989998817443848,learn,57801.000118255615,Fri Apr 11 2025 10:10:39 GMT-0400 (Eastern Daylight Time),281547.9000005722,A,b,I,b,2180,1,2198.699999809265,279349.20000076294,9011,WL,A,1.0
2,2.3989999294281006,learn,57601.0000705719,Fri Apr 11 2025 10:10:39 GMT-0400 (Eastern Daylight Time),281747.60000038147,A,bo,I,o,185,1,2398.3999996185303,279349.20000076294,9011,WL,A,1.0
2,2.5820000171661377,learn,57417.99998283386,Fri Apr 11 2025 10:10:39 GMT-0400 (Eastern Daylight Time),281931.10000038147,A,boo,I,o,156,1,2581.8999996185303,279349.20000076294,9011,WL,A,1.0
2,2.6649999618530273,learn,57335.00003814697,Fri Apr 11 2025 10:10:39 GMT-0400 (Eastern Daylight Time),282014.0,A,book,I,k,52,1,2664.7999992370605,279349.20000076294,9011,WL,A,1.0
2,2.9819998741149902,learn,57018.00012588501,Fri Apr 11 2025 10:10:39 GMT-0400 (Eastern Daylight Time),282330.5,A,bookenter,I,enter,299,1,2981.2999992370605,279349.20000076294,9011,WL,A,1.0
2,3.5149998664855957,learn,56485.000133514404,Fri Apr 11 2025 10:10:39 GMT-0400 (Eastern Daylight Time),282864.5,A,f,I,f,513,1,533.6999998092651,282330.80000019073,9011,WL,A,2.0
2,3.631999969482422,learn,56368.00003051758,Fri Apr 11 2025 10:10:39 GMT-0400 (Eastern Daylight Time),282981.10000038147,A,fl,I,l,103,1,650.3000001907349,282330.80000019073,9011,WL,A,2.0
2,3.7990000247955322,learn,56200.99997520447,Fri Apr 11 2025 10:10:39 GMT-0400 (Eastern Daylight Time),283147.9000005722,A,flo,I,o,139,1,817.1000003814697,282330.80000019073,9011,WL,A,2.0
2,3.931999921798706,learn,56068.000078201294,Fri Apr 11 2025 10:10:39 GMT-0400 (Eastern Daylight Time),283281.10000038147,A,flow,I,w,106,1,950.3000001907349,282330.80000019073,9011,WL,A,2.0
2,3.9659998416900635,learn,56034.00015830994,Fri Apr 11 2025 10:10:39 GMT-0400 (Eastern Daylight Time),283314.70000076294,A,flowe,I,e,24,1,983.9000005722046,282330.80000019073,9011,WL,A,2.0
2,4.047999858856201,learn,55952.0001411438,Fri Apr 11 2025 10:10:39 GMT-0400 (Eastern Daylight Time),283397.5,A,flower,I,r,70,1,1066.6999998092651,282330.80000019073,9011,WL,A,2.0
2,4.365000009536743,learn,55634.99999046326,Fri Apr 11 2025 10:10:39 GMT-0400 (Eastern Daylight Time),283713.70000076294,A,flowerenter,I,enter,303,1,1382.9000005722046,282330.80000019073,9011,WL,A,2.0
2,5.164999961853027,learn,54835.00003814697,Fri Apr 11 2025 10:10:39 GMT-0400 (Eastern Daylight Time),284514.4000005722,A,m,I,m,793,1,800.4000005722046,283714.0,9011,WL,A,3.0
2,5.264999866485596,learn,54735.000133514404,Fri Apr 11 2025 10:10:39 GMT-0400 (Eastern Daylight Time),284614.30000019073,A,me,I,e,84,1,900.3000001907349,283714.0,9011,WL,A,3.0
2,5.315000057220459,learn,54684.99994277954,Fri Apr 11 2025 10:10:39 GMT-0400 (Eastern Daylight Time),284664.0,A,mea,I,a,32,1,950.0,283714.0,9011,WL,A,3.0
2,6.198999881744385,learn,53801.000118255615,Fri Apr 11 2025 10:10:39 GMT-0400 (Eastern Daylight Time),285547.80000019073,A,mead,I,d,867,1,1833.8000001907349,283714.0,9011,WL,A,3.0
2,6.332000017166138,learn,53667.99998283386,Fri Apr 11 2025 10:10:39 GMT-0400 (Eastern Daylight Time),285681.10000038147,A,meado,I,o,108,1,1967.1000003814697,283714.0,9011,WL,A,3.0
2,6.516000032424927,learn,53483.99996757507,Fri Apr 11 2025 10:10:39 GMT-0400 (Eastern Daylight Time),285864.5,A,meadow,I,w,159,1,2150.5,283714.0,9011,WL,A,3.0
2,6.931999921798706,learn,53068.000078201294,Fri Apr 11 2025 10:10:39 GMT-0400 (Eastern Daylight Time),286280.60000038147,A,meadowenter,I,enter,398,1,2566.6000003814697,283714.0,9011,WL,A,3.0
2,8.8989999294281,learn,51101.0000705719,Fri Apr 11 2025 10:10:39 GMT-0400 (Eastern Daylight Time),288247.70000076294,A,g,I,g,1954,1,1966.6000003814697,286281.10000038147,9011,WL,A,4.0
2,8.965999841690063,learn,51034.00015830994,Fri Apr 11 2025 10:10:39 GMT-0400 (Eastern Daylight Time),288314.5,A,go,I,o,49,1,2033.3999996185303,286281.10000038147,9011,WL,A,4.0
2,9.164999961853027,learn,50835.00003814697,Fri Apr 11 2025 10:10:39 GMT-0400 (Eastern Daylight Time),288514.30000019073,A,gol,I,l,190,1,2233.199999809265,286281.10000038147,9011,WL,A,4.0
2,9.248999834060669,learn,50751.00016593933,Fri Apr 11 2025 10:10:39 GMT-0400 (Eastern Daylight Time),288597.70000076294,A,gold,I,d,71,1,2316.6000003814697,286281.10000038147,9011,WL,A,4.0
2,9.48199987411499,learn,50518.00012588501,Fri Apr 11 2025 10:10:39 GMT-0400 (Eastern Daylight Time),288830.60000038147,A,goldenter,I,enter,203,1,2549.5,286281.10000038147,9011,WL,A,4.0
2,9.815000057220459,learn,50184.99994277954,Fri Apr 11 2025 10:10:39 GMT-0400 (Eastern Daylight Time),289164.5,A,r,I,r,317,1,333.5,288831.0,9011,WL,A,5.0
2,9.914999961853027,learn,50085.00003814697,Fri Apr 11 2025 10:10:39 GMT-0400 (Eastern Daylight Time),289264.5,A,ra,I,a,72,1,433.5,288831.0,9011,WL,A,5.0
2,9.997999906539917,learn,50002.00009346008,Fri Apr 11 2025 10:10:39 GMT-0400 (Eastern Daylight Time),289347.20000076294,A,rat,I,t,62,1,516.2000007629395,288831.0,9011,WL,A,5.0
2,10.1489999294281,learn,49851.0000705719,Fri Apr 11 2025 10:10:39 GMT-0400 (Eastern Daylight Time),289497.70000076294,A,ratl,I,l,135,1,666.7000007629395,288831.0,9011,WL,A,5.0
2,10.73199987411499,learn,49268.00012588501,Fri Apr 11 2025 10:10:39 GMT-0400 (Eastern Daylight Time),290080.9000005722,A,rat,I,backspace,558,1,1249.9000005722046,288831.0,9011,WL,A,5.0
2,10.815000057220459,learn,49184.99994277954,Fri Apr 11 2025 10:10:39 GMT-0400 (Eastern Daylight Time),290164.0,A,ratt,I,t,68,1,1333.0,288831.0,9011,WL,A,5.0
2,10.931999921798706,learn,49068.000078201294,Fri Apr 11 2025 10:10:39 GMT-0400 (Eastern Daylight Time),290280.9000005722,A,rattl,I,l,101,1,1449.9000005722046,288831.0,9011,WL,A,5.0
2,11.098999977111816,learn,48901.00002288818,Fri Apr 11 2025 10:10:39 GMT-0400 (Eastern Daylight Time),290447.70000076294,A,rattle,I,e,144,1,1616.7000007629395,288831.0,9011,WL,A,5.0
2,11.381999969482422,learn,48618.00003051758,Fri Apr 11 2025 10:10:39 GMT-0400 (Eastern Daylight Time),290730.5,A,rattleenter,I,enter,263,1,1899.5,288831.0,9011,WL,A,5.0
2,12.082000017166138,learn,47917.99998283386,Fri Apr 11 2025 10:10:39 GMT-0400 (Eastern Daylight Time),291431.20000076294,A,k,I,k,689,1,700.2000007629395,290731.0,9011,WL,A,6.0
2,12.248999834060669,learn,47751.00016593933,Fri Apr 11 2025 10:10:39 GMT-0400 (Eastern Daylight Time),291597.70000076294,A,ke,I,e,146,1,866.7000007629395,290731.0,9011,WL,A,6.0
2,12.381999969482422,learn,47618.00003051758,Fri Apr 11 2025 10:10:39 GMT-0400 (Eastern Daylight Time),291730.60000038147,A,key,I,y,114,1,999.6000003814697,290731.0,9011,WL,A,6.0
2,12.565000057220459,learn,47434.99994277954,Fri Apr 11 2025 10:10:39 GMT-0400 (Eastern Daylight Time),291913.9000005722,A,keyenter,I,enter,157,1,1182.9000005722046,290731.0,9011,WL,A,6.0
2,12.914999961853027,learn,47085.00003814697,Fri Apr 11 2025 10:10:39 GMT-0400 (Eastern Daylight Time),292264.30000019073,A,l,I,l,337,1,349.8999996185303,291914.4000005722,9011,WL,A,7.0
2,13.115000009536743,learn,46884.99999046326,Fri Apr 11 2025 10:10:39 GMT-0400 (Eastern Daylight Time),292464.4000005722,A,lo,I,o,175,1,550.0,291914.4000005722,9011,WL,A,7.0
2,13.197999954223633,learn,46802.00004577637,Fri Apr 11 2025 10:10:39 GMT-0400 (Eastern Daylight Time),292547.4000005722,A,log,I,g,70,1,633.0,291914.4000005722,9011,WL,A,7.0
2,13.497999906539917,learn,46502.00009346008,Fri Apr 11 2025 10:10:39 GMT-0400 (Eastern Daylight Time),292847.30000019073,A,logenter,I,enter,273,1,932.8999996185303,291914.4000005722,9011,WL,A,7.0
2,14.532000064849854,learn,45467.99993515015,Fri Apr 11 2025 10:10:39 GMT-0400 (Eastern Daylight Time),293881.20000076294,A,r,I,r,1020,1,1033.6000003814697,292847.60000038147,9011,WL,A,8.0
2,14.6489999294281,learn,45351.0000705719,Fri Apr 11 2025 10:10:39 GMT-0400 (Eastern Daylight Time),293997.60000038147,A,ru,I,u,93,1,1150.0,292847.60000038147,9011,WL,A,8.0
2,14.782000064849854,learn,45217.99993515015,Fri Apr 11 2025 10:10:39 GMT-0400 (Eastern Daylight Time),294130.9000005722,A,rug,I,g,113,1,1283.3000001907349,292847.60000038147,9011,WL,A,8.0
2,15.098000049591064,learn,44901.999950408936,Fri Apr 11 2025 10:10:39 GMT-0400 (Eastern Daylight Time),294447.30000019073,A,rugenter,I,enter,285,1,1599.6999998092651,292847.60000038147,9011,WL,A,8.0
2,17.56500005722046,learn,42434.99994277954,Fri Apr 11 2025 10:10:39 GMT-0400 (Eastern Daylight Time),296914.30000019073,A,t,I,t,2460,1,2466.5999994277954,294447.70000076294,9011,WL,A,9.0
2,17.73199987411499,learn,42268.00012588501,Fri Apr 11 2025 10:10:39 GMT-0400 (Eastern Daylight Time),297081.10000038147,A,tr,I,r,153,1,2633.3999996185303,294447.70000076294,9011,WL,A,9.0
2,17.7979998588562,learn,42202.0001411438,Fri Apr 11 2025 10:10:39 GMT-0400 (Eastern Daylight Time),297147.4000005722,A,tra,I,a,46,1,2699.699999809265,294447.70000076294,9011,WL,A,9.0
2,17.931999921798706,learn,42068.000078201294,Fri Apr 11 2025 10:10:39 GMT-0400 (Eastern Daylight Time),297281.0,A,trai,I,i,109,1,2833.2999992370605,294447.70000076294,9011,WL,A,9.0
2,17.98199987411499,learn,42018.00012588501,Fri Apr 11 2025 10:10:39 GMT-0400 (Eastern Daylight Time),297330.60000038147,A,train,I,n,36,1,2882.8999996185303,294447.70000076294,9011,WL,A,9.0
2,18.197999954223633,learn,41802.00004577637,Fri Apr 11 2025 10:10:39 GMT-0400 (Eastern Daylight Time),297547.30000019073,A,trainenter,I,enter,192,1,3099.5999994277954,294447.70000076294,9011,WL,A,9.0
2,23.931999921798706,learn,36068.000078201294,Fri Apr 11 2025 10:10:39 GMT-0400 (Eastern Daylight Time),303281.10000038147,A,h,I,h,5712,1,5733.39999961853,297547.70000076294,9011,WL,A,10.0
2,24.032000064849854,learn,35967.99993515015,Fri Apr 11 2025 10:10:39 GMT-0400 (Eastern Daylight Time),303381.10000038147,A,ha,I,a,87,1,5833.39999961853,297547.70000076294,9011,WL,A,10.0
2,24.115000009536743,learn,35884.99999046326,Fri Apr 11 2025 10:10:39 GMT-0400 (Eastern Daylight Time),303463.80000019073,A,har,I,r,59,1,5916.099999427795,297547.70000076294,9011,WL,A,10.0
2,24.299000024795532,learn,35700.99997520447,Fri Apr 11 2025 10:10:39 GMT-0400 (Eastern Daylight Time),303647.80000019073,A,harp,I,p,164,1,6100.099999427795,297547.70000076294,9011,WL,A,10.0
2,24.598000049591064,learn,35401.999950408936,Fri Apr 11 2025 10:10:39 GMT-0400 (Eastern Daylight Time),303947.10000038147,A,harpenter,I,enter,280,1,6399.39999961853,297547.70000076294,9011,WL,A,10.0
2,25.21499991416931,learn,34785.00008583069,Fri Apr 11 2025 10:10:39 GMT-0400 (Eastern Daylight Time),304564.4000005722,A,f,I,f,608,1,616.8000001907349,303947.60000038147,9011,WL,A,11.0
2,25.31500005722046,learn,34684.99994277954,Fri Apr 11 2025 10:10:39 GMT-0400 (Eastern Daylight Time),304664.20000076294,A,fi,I,i,83,1,716.6000003814697,303947.60000038147,9011,WL,A,11.0
2,25.381999969482422,learn,34618.00003051758,Fri Apr 11 2025 10:10:39 GMT-0400 (Eastern Daylight Time),304730.80000019073,A,fin,I,n,44,1,783.1999998092651,303947.60000038147,9011,WL,A,11.0
2,25.447999954223633,learn,34552.00004577637,Fri Apr 11 2025 10:10:39 GMT-0400 (Eastern Daylight Time),304797.10000038147,A,fing,I,g,37,1,849.5,303947.60000038147,9011,WL,A,11.0
2,25.56500005722046,learn,34434.99994277954,Fri Apr 11 2025 10:10:39 GMT-0400 (Eastern Daylight Time),304914.30000019073,A,finge,I,e,109,1,966.6999998092651,303947.60000038147,9011,WL,A,11.0
2,25.664999961853027,learn,34335.00003814697,Fri Apr 11 2025 10:10:39 GMT-0400 (Eastern Daylight Time),305014.0,A,finger,I,r,77,1,1066.3999996185303,303947.60000038147,9011,WL,A,11.0
2,25.7979998588562,learn,34202.0001411438,Fri Apr 11 2025 10:10:39 GMT-0400 (Eastern Daylight Time),305147.20000076294,A,fingerenter,I,enter,107,1,1199.6000003814697,303947.60000038147,9011,WL,A,11.0
2,26.181999921798706,learn,33818.000078201294,Fri Apr 11 2025 10:10:39 GMT-0400 (Eastern Daylight Time),305530.60000038147,A,b,I,b,367,1,383.0,305147.60000038147,9011,WL,A,12.0
2,26.24899983406067,learn,33751.00016593933,Fri Apr 11 2025 10:10:39 GMT-0400 (Eastern Daylight Time),305597.60000038147,A,bu,I,u,45,1,450.0,305147.60000038147,9011,WL,A,12.0
2,26.348000049591064,learn,33651.999950408936,Fri Apr 11 2025 10:10:39 GMT-0400 (Eastern Daylight Time),305697.30000019073,A,but,I,t,91,1,549.6999998092651,305147.60000038147,9011,WL,A,12.0
2,26.514999866485596,learn,33485.000133514404,Fri Apr 11 2025 10:10:39 GMT-0400 (Eastern Daylight Time),305863.5,A,butt,I,t,153,1,715.8999996185303,305147.60000038147,9011,WL,A,12.0
2,26.615000009536743,learn,33384.99999046326,Fri Apr 11 2025 10:10:39 GMT-0400 (Eastern Daylight Time),305963.5,A,butto,I,o,82,1,815.8999996185303,305147.60000038147,9011,WL,A,12.0
2,26.697999954223633,learn,33302.00004577637,Fri Apr 11 2025 10:10:39 GMT-0400 (Eastern Daylight Time),306046.80000019073,A,button,I,n,62,1,899.1999998092651,305147.60000038147,9011,WL,A,12.0
2,26.881999969482422,learn,33118.00003051758,Fri Apr 11 2025 10:10:39 GMT-0400 (Eastern Daylight Time),306230.5,A,buttonenter,I,enter,171,1,1082.8999996185303,305147.60000038147,9011,WL,A,12.0
2,31.931999921798706,learn,28068.000078201294,Fri Apr 11 2025 10:10:39 GMT-0400 (Eastern Daylight Time),311281.0,A,s,I,s,5029,1,5050.199999809265,306230.80000019073,9011,WL,A,13.0
2,32.098999977111816,learn,27901.000022888184,Fri Apr 11 2025 10:10:39 GMT-0400 (Eastern Daylight Time),311447.80000019073,A,sa,I,a,150,1,5217.0,306230.80000019073,9011,WL,A,13.0
2,32.24899983406067,learn,27751.00016593933,Fri Apr 11 2025 10:10:39 GMT-0400 (Eastern Daylight Time),311597.70000076294,A,sal,I,l,127,1,5366.900000572205,306230.80000019073,9011,WL,A,13.0
2,32.36500000953674,learn,27634.999990463257,Fri Apr 11 2025 10:10:39 GMT-0400 (Eastern Daylight Time),311714.4000005722,A,salt,I,t,98,1,5483.60000038147,306230.80000019073,9011,WL,A,13.0
2,32.49799990653992,learn,27502.000093460083,Fri Apr 11 2025 10:10:39 GMT-0400 (Eastern Daylight Time),311847.20000076294,A,saltenter,I,enter,109,1,5616.400000572205,306230.80000019073,9011,WL,A,13.0
2,56.48199987411499,learn,3518.0001258850098,Fri Apr 11 2025 10:10:39 GMT-0400 (Eastern Daylight Time),335831.0,A,g,I,g,23972,1,23983.29999923706,311847.70000076294,9011,WL,A,14.0
2,56.58200001716614,learn,3417.9999828338623,Fri Apr 11 2025 10:10:39 GMT-0400 (Eastern Daylight Time),335931.10000038147,A,go,I,o,81,1,24083.39999961853,311847.70000076294,9011,WL,A,14.0
2,56.764999866485596,learn,3235.0001335144043,Fri Apr 11 2025 10:10:39 GMT-0400 (Eastern Daylight Time),336114.20000076294,A,gol,I,l,173,1,24266.5,311847.70000076294,9011,WL,A,14.0
2,56.86500000953674,learn,3134.999990463257,Fri Apr 11 2025 10:10:39 GMT-0400 (Eastern Daylight Time),336214.20000076294,A,gold,I,d,87,1,24366.5,311847.70000076294,9011,WL,A,14.0
2,56.98199987411499,learn,3018.0001258850098,Fri Apr 11 2025 10:10:39 GMT-0400 (Eastern Daylight Time),336330.60000038147,A,goldenter,I,enter,89,1,24482.89999961853,311847.70000076294,9011,WL,A,14.0
2,60.014999866485596,learn,-14.999866485595703,Fri Apr 11 2025 10:10:39 GMT-0400 (Eastern Daylight Time),339364.30000019073,A,None,I,None,3026,1,3033.300000190735,336331.0,9011,WL,A,15.0
3,1.9509999752044678,learn,58049.00002479553,Fri Apr 11 2025 10:10:39 GMT-0400 (Eastern Daylight Time),434080.80000019073,A,a,I,a,1926,1,1950.0999994277954,432130.70000076294,9011,WL,A,1.0
3,2.1679999828338623,learn,57832.00001716614,Fri Apr 11 2025 10:10:39 GMT-0400 (Eastern Daylight Time),434297.5,A,ap,I,p,195,1,2166.7999992370605,432130.70000076294,9011,WL,A,1.0
3,2.317000150680542,learn,57682.99984931946,Fri Apr 11 2025 10:10:39 GMT-0400 (Eastern Daylight Time),434447.20000076294,A,app,I,p,120,1,2316.5,432130.70000076294,9011,WL,A,1.0
3,2.5340001583099365,learn,57465.99984169006,Fri Apr 11 2025 10:10:39 GMT-0400 (Eastern Daylight Time),434664.20000076294,A,appl,I,l,203,1,2533.5,432130.70000076294,9011,WL,A,1.0
3,2.6679999828338623,learn,57332.00001716614,Fri Apr 11 2025 10:10:39 GMT-0400 (Eastern Daylight Time),434797.5,A,apple,I,e,104,1,2666.7999992370605,432130.70000076294,9011,WL,A,1.0
3,4.367000102996826,learn,55632.999897003174,Fri Apr 11 2025 10:10:39 GMT-0400 (Eastern Daylight Time),436497.0,A,appleenter,I,enter,1666,1,4366.299999237061,432130.70000076294,9011,WL,A,1.0
3,5.101000070571899,learn,54898.9999294281,Fri Apr 11 2025 10:10:39 GMT-0400 (Eastern Daylight Time),437230.80000019073,A,s,I,s,714,1,733.5,436497.30000019073,9011,WL,A,2.0
3,5.233999967575073,learn,54766.00003242493,Fri Apr 11 2025 10:10:39 GMT-0400 (Eastern Daylight Time),437364.10000038147,A,sa,I,a,121,1,866.8000001907349,436497.30000019073,9011,WL,A,2.0
3,5.367000102996826,learn,54632.999897003174,Fri Apr 11 2025 10:10:39 GMT-0400 (Eastern Daylight Time),437497.4000005722,A,sal,I,l,108,1,1000.1000003814697,436497.30000019073,9011,WL,A,2.0
3,5.483999967575073,learn,54516.00003242493,Fri Apr 11 2025 10:10:39 GMT-0400 (Eastern Daylight Time),437614.20000076294,A,salt,I,t,84,1,1116.9000005722046,436497.30000019073,9011,WL,A,2.0
3,5.650000095367432,learn,54349.99990463257,Fri Apr 11 2025 10:10:39 GMT-0400 (Eastern Daylight Time),437780.4000005722,A,saltenter,I,enter,145,1,1283.1000003814697,436497.30000019073,9011,WL,A,2.0
3,6.884000062942505,learn,53115.999937057495,Fri Apr 11 2025 10:10:39 GMT-0400 (Eastern Daylight Time),439014.20000076294,A,b,I,b,1223,1,1233.4000005722046,437780.80000019073,9011,WL,A,3.0
3,7.0340001583099365,learn,52965.99984169006,Fri Apr 11 2025 10:10:39 GMT-0400 (Eastern Daylight Time),439164.10000038147,A,bo,I,o,131,1,1383.3000001907349,437780.80000019073,9011,WL,A,3.0
3,7.233999967575073,learn,52766.00003242493,Fri Apr 11 2025 10:10:39 GMT-0400 (Eastern Daylight Time),439364.10000038147,A,boo,I,o,180,1,1583.3000001907349,437780.80000019073,9011,WL,A,3.0
3,7.317000150680542,learn,52682.99984931946,Fri Apr 11 2025 10:10:39 GMT-0400 (Eastern Daylight Time),439447.4000005722,A,book,I,k,67,1,1666.6000003814697,437780.80000019073,9011,WL,A,3.0
3,7.5340001583099365,learn,52465.99984169006,Fri Apr 11 2025 10:10:39 GMT-0400 (Eastern Daylight Time),439663.70000076294,A,bookenter,I,enter,192,1,1882.9000005722046,437780.80000019073,9011,WL,A,3.0
3,7.7840001583099365,learn,52215.99984169006,Fri Apr 11 2025 10:10:39 GMT-0400 (Eastern Daylight Time),439914.30000019073,A,f,I,f,235,1,250.19999980926514,439664.10000038147,9011,WL,A,4.0
3,7.884000062942505,learn,52115.999937057495,Fri Apr 11 2025 10:10:39 GMT-0400 (Eastern Daylight Time),440013.9000005722,A,fl,I,l,77,1,349.80000019073486,439664.10000038147,9011,WL,A,4.0
3,8.067000150680542,learn,51932.99984931946,Fri Apr 11 2025 10:10:39 GMT-0400 (Eastern Daylight Time),440197.5,A,flo,I,o,170,1,533.3999996185303,439664.10000038147,9011,WL,A,4.0
3,8.151000022888184,learn,51848.99997711182,Fri Apr 11 2025 10:10:39 GMT-0400 (Eastern Daylight Time),440281.0,A,flow,I,w,65,1,616.8999996185303,439664.10000038147,9011,WL,A,4.0
3,8.217000007629395,learn,51782.999992370605,Fri Apr 11 2025 10:10:39 GMT-0400 (Eastern Daylight Time),440347.5,A,flowe,I,e,46,1,683.3999996185303,439664.10000038147,9011,WL,A,4.0
3,8.284000158309937,learn,51715.99984169006,Fri Apr 11 2025 10:10:39 GMT-0400 (Eastern Daylight Time),440413.5,A,flower,I,r,36,1,749.3999996185303,439664.10000038147,9011,WL,A,4.0
3,8.467000007629395,learn,51532.999992370605,Fri Apr 11 2025 10:10:39 GMT-0400 (Eastern Daylight Time),440597.10000038147,A,flowerenter,I,enter,173,1,933.0,439664.10000038147,9011,WL,A,4.0
3,9.034000158309937,learn,50965.99984169006,Fri Apr 11 2025 10:10:39 GMT-0400 (Eastern Daylight Time),441164.20000076294,A,m,I,m,550,1,566.7000007629395,440597.5,9011,WL,A,5.0
3,9.134000062942505,learn,50865.999937057495,Fri Apr 11 2025 10:10:39 GMT-0400 (Eastern Daylight Time),441264.20000076294,A,me,I,e,75,1,666.7000007629395,440597.5,9011,WL,A,5.0
3,9.184000015258789,learn,50815.99998474121,Fri Apr 11 2025 10:10:39 GMT-0400 (Eastern Daylight Time),441314.5,A,mea,I,a,39,1,717.0,440597.5,9011,WL,A,5.0
3,9.417999982833862,learn,50582.00001716614,Fri Apr 11 2025 10:10:39 GMT-0400 (Eastern Daylight Time),441547.60000038147,A,mead,I,d,207,1,950.1000003814697,440597.5,9011,WL,A,5.0
3,9.58400011062622,learn,50415.99988937378,Fri Apr 11 2025 10:10:39 GMT-0400 (Eastern Daylight Time),441714.20000076294,A,meado,I,o,141,1,1116.7000007629395,440597.5,9011,WL,A,5.0
3,9.684000015258789,learn,50315.99998474121,Fri Apr 11 2025 10:10:39 GMT-0400 (Eastern Daylight Time),441814.30000019073,A,meadow,I,w,85,1,1216.8000001907349,440597.5,9011,WL,A,5.0
3,9.950000047683716,learn,50049.999952316284,Fri Apr 11 2025 10:10:39 GMT-0400 (Eastern Daylight Time),442080.30000019073,A,meadowenter,I,enter,233,1,1482.8000001907349,440597.5,9011,WL,A,5.0
3,10.83400011062622,learn,49165.99988937378,Fri Apr 11 2025 10:10:39 GMT-0400 (Eastern Daylight Time),442964.20000076294,A,g,I,g,874,1,883.5,442080.70000076294,9011,WL,A,6.0
3,10.934000015258789,learn,49065.99998474121,Fri Apr 11 2025 10:10:39 GMT-0400 (Eastern Daylight Time),443064.20000076294,A,go,I,o,84,1,983.5,442080.70000076294,9011,WL,A,6.0
3,11.134000062942505,learn,48865.999937057495,Fri Apr 11 2025 10:10:39 GMT-0400 (Eastern Daylight Time),443264.10000038147,A,gol,I,l,175,1,1183.3999996185303,442080.70000076294,9011,WL,A,6.0
3,11.200999975204468,learn,48799.00002479553,Fri Apr 11 2025 10:10:39 GMT-0400 (Eastern Daylight Time),443330.80000019073,A,gold,I,d,47,1,1250.0999994277954,442080.70000076294,9011,WL,A,6.0
3,11.367000102996826,learn,48632.999897003174,Fri Apr 11 2025 10:10:39 GMT-0400 (Eastern Daylight Time),443497.10000038147,A,goldenter,I,enter,147,1,1416.3999996185303,442080.70000076294,9011,WL,A,6.0
3,11.8510000705719,learn,48148.9999294281,Fri Apr 11 2025 10:10:39 GMT-0400 (Eastern Daylight Time),443980.80000019073,A,s,I,s,465,1,483.30000019073486,443497.5,9011,WL,A,7.0
3,12.002000093460083,learn,47997.99990653992,Fri Apr 11 2025 10:10:39 GMT-0400 (Eastern Daylight Time),444131.80000019073,A,sa,I,a,131,1,634.3000001907349,443497.5,9011,WL,A,7.0
3,12.1010000705719,learn,47898.9999294281,Fri Apr 11 2025 10:10:39 GMT-0400 (Eastern Daylight Time),444230.9000005722,A,sal,I,l,75,1,733.4000005722046,443497.5,9011,WL,A,7.0
3,12.266999959945679,learn,47733.00004005432,Fri Apr 11 2025 10:10:39 GMT-0400 (Eastern Daylight Time),444397.5,A,salt,I,t,139,1,900.0,443497.5,9011,WL,A,7.0
3,12.367000102996826,learn,47632.999897003174,Fri Apr 11 2025 10:10:39 GMT-0400 (Eastern Daylight Time),444497.20000076294,A,saltenter,I,enter,90,1,999.7000007629395,443497.5,9011,WL,A,7.0
3,14.301000118255615,learn,45698.999881744385,Fri Apr 11 2025 10:10:39 GMT-0400 (Eastern Daylight Time),446430.9000005722,A,c,I,c,1914,1,1933.4000005722046,444497.5,9011,WL,A,8.0
3,14.434000015258789,learn,45565.99998474121,Fri Apr 11 2025 10:10:39 GMT-0400 (Eastern Daylight Time),446564.10000038147,A,ch,I,h,121,1,2066.6000003814697,444497.5,9011,WL,A,8.0
3,14.901000022888184,learn,45098.99997711182,Fri Apr 11 2025 10:10:39 GMT-0400 (Eastern Daylight Time),447030.70000076294,A,chi,I,i,453,1,2533.2000007629395,444497.5,9011,WL,A,8.0
3,15.051000118255615,learn,44948.999881744385,Fri Apr 11 2025 10:10:39 GMT-0400 (Eastern Daylight Time),447180.9000005722,A,chim,I,m,129,1,2683.4000005722046,444497.5,9011,WL,A,8.0
3,15.233999967575073,learn,44766.00003242493,Fri Apr 11 2025 10:10:39 GMT-0400 (Eastern Daylight Time),447364.10000038147,A,chimn,I,n,172,1,2866.6000003814697,444497.5,9011,WL,A,8.0
3,15.3510000705719,learn,44648.9999294281,Fri Apr 11 2025 10:10:39 GMT-0400 (Eastern Daylight Time),447480.9000005722,A,chimne,I,e,91,1,2983.4000005722046,444497.5,9011,WL,A,8.0
3,15.467999935150146,learn,44532.00006484985,Fri Apr 11 2025 10:10:39 GMT-0400 (Eastern Daylight Time),447597.5,A,chimney,I,y,96,1,3100.0,444497.5,9011,WL,A,8.0
3,15.617000102996826,learn,44382.999897003174,Fri Apr 11 2025 10:10:39 GMT-0400 (Eastern Daylight Time),447747.10000038147,A,chimneyenter,I,enter,130,1,3249.6000003814697,444497.5,9011,WL,A,8.0
3,15.868000030517578,learn,44131.99996948242,Fri Apr 11 2025 10:10:39 GMT-0400 (Eastern Daylight Time),447997.5,A,h,I,h,232,1,250.0,447747.5,9011,WL,A,9.0
3,15.950999975204468,learn,44049.00002479553,Fri Apr 11 2025 10:10:39 GMT-0400 (Eastern Daylight Time),448080.70000076294,A,ha,I,a,58,1,333.20000076293945,447747.5,9011,WL,A,9.0
3,16.034000158309937,learn,43965.99984169006,Fri Apr 11 2025 10:10:39 GMT-0400 (Eastern Daylight Time),448163.80000019073,A,har,I,r,70,1,416.30000019073486,447747.5,9011,WL,A,9.0
3,16.534000158309937,learn,43465.99984169006,Fri Apr 11 2025 10:10:39 GMT-0400 (Eastern Daylight Time),448664.20000076294,A,harp,I,p,482,1,916.7000007629395,447747.5,9011,WL,A,9.0
3,17.134000062942505,learn,42865.999937057495,Fri Apr 11 2025 10:10:39 GMT-0400 (Eastern Daylight Time),449263.70000076294,A,harpenter,I,enter,575,1,1516.2000007629395,447747.5,9011,WL,A,9.0
3,17.51800012588501,learn,42481.99987411499,Fri Apr 11 2025 10:10:39 GMT-0400 (Eastern Daylight Time),449647.60000038147,A,f,I,f,362,1,383.5,449264.10000038147,9011,WL,A,10.0
3,17.585000038146973,learn,42414.99996185303,Fri Apr 11 2025 10:10:39 GMT-0400 (Eastern Daylight Time),449714.70000076294,A,fi,I,i,56,1,450.6000003814697,449264.10000038147,9011,WL,A,10.0
3,17.66700005531311,learn,42332.99994468689,Fri Apr 11 2025 10:10:39 GMT-0400 (Eastern Daylight Time),449797.30000019073,A,fin,I,n,70,1,533.1999998092651,449264.10000038147,9011,WL,A,10.0
3,17.717000007629395,learn,42282.999992370605,Fri Apr 11 2025 10:10:39 GMT-0400 (Eastern Daylight Time),449847.0,A,fing,I,g,28,1,582.8999996185303,449264.10000038147,9011,WL,A,10.0
3,17.83400011062622,learn,42165.99988937378,Fri Apr 11 2025 10:10:39 GMT-0400 (Eastern Daylight Time),449964.20000076294,A,finge,I,e,100,1,700.1000003814697,449264.10000038147,9011,WL,A,10.0
3,17.93400001525879,learn,42065.99998474121,Fri Apr 11 2025 10:10:39 GMT-0400 (Eastern Daylight Time),450064.4000005722,A,finger,I,r,74,1,800.3000001907349,449264.10000038147,9011,WL,A,10.0
3,17.983999967575073,learn,42016.00003242493,Fri Apr 11 2025 10:10:39 GMT-0400 (Eastern Daylight Time),450113.60000038147,A,fingerenter,I,enter,33,1,849.5,449264.10000038147,9011,WL,A,10.0
3,18.284000158309937,learn,41715.99984169006,Fri Apr 11 2025 10:10:39 GMT-0400 (Eastern Daylight Time),450414.30000019073,A,b,I,b,282,1,300.5,450113.80000019073,9011,WL,A,11.0
3,18.33400011062622,learn,41665.99988937378,Fri Apr 11 2025 10:10:39 GMT-0400 (Eastern Daylight Time),450464.30000019073,A,bu,I,u,26,1,350.5,450113.80000019073,9011,WL,A,11.0
3,18.450999975204468,learn,41549.00002479553,Fri Apr 11 2025 10:10:39 GMT-0400 (Eastern Daylight Time),450580.80000019073,A,but,I,t,102,1,467.0,450113.80000019073,9011,WL,A,11.0
3,18.58400011062622,learn,41415.99988937378,Fri Apr 11 2025 10:10:39 GMT-0400 (Eastern Daylight Time),450714.20000076294,A,buto,I,o,114,1,600.4000005722046,450113.80000019073,9011,WL,A,11.0
3,18.76699995994568,learn,41233.00004005432,Fri Apr 11 2025 10:10:39 GMT-0400 (Eastern Daylight Time),450897.4000005722,A,butoo,I,o,157,1,783.6000003814697,450113.80000019073,9011,WL,A,11.0
3,18.799999952316284,learn,41200.000047683716,Fri Apr 11 2025 10:10:39 GMT-0400 (Eastern Daylight Time),450930.30000019073,A,butoon,I,n,23,1,816.5,450113.80000019073,9011,WL,A,11.0
3,19.384000062942505,learn,40615.999937057495,Fri Apr 11 2025 10:10:39 GMT-0400 (Eastern Daylight Time),451514.30000019073,A,butoo,I,backspace,568,1,1400.5,450113.80000019073,9011,WL,A,11.0
3,19.50100016593933,learn,40498.99983406067,Fri Apr 11 2025 10:10:39 GMT-0400 (Eastern Daylight Time),451630.9000005722,A,buto,I,backspace,93,1,1517.1000003814697,450113.80000019073,9011,WL,A,11.0
3,19.634000062942505,learn,40365.999937057495,Fri Apr 11 2025 10:10:39 GMT-0400 (Eastern Daylight Time),451764.10000038147,A,but,I,backspace,112,1,1650.3000001907349,450113.80000019073,9011,WL,A,11.0
3,19.76699995994568,learn,40233.00004005432,Fri Apr 11 2025 10:10:39 GMT-0400 (Eastern Daylight Time),451897.5,A,butt,I,t,108,1,1783.6999998092651,450113.80000019073,9011,WL,A,11.0
3,20.08400011062622,learn,39915.99988937378,Fri Apr 11 2025 10:10:39 GMT-0400 (Eastern Daylight Time),452214.10000038147,A,butto,I,o,295,1,2100.300000190735,450113.80000019073,9011,WL,A,11.0
3,20.117000102996826,learn,39882.999897003174,Fri Apr 11 2025 10:10:39 GMT-0400 (Eastern Daylight Time),452247.0,A,button,I,n,15,1,2133.199999809265,450113.80000019073,9011,WL,A,11.0
3,20.299999952316284,learn,39700.000047683716,Fri Apr 11 2025 10:10:39 GMT-0400 (Eastern Daylight Time),452430.30000019073,A,buttonenter,I,enter,163,1,2316.5,450113.80000019073,9011,WL,A,11.0
3,22.817000150680542,learn,37182.99984931946,Fri Apr 11 2025 10:10:39 GMT-0400 (Eastern Daylight Time),454947.4000005722,A,l,I,l,2508,1,2516.699999809265,452430.70000076294,9011,WL,A,12.0
3,22.983999967575073,learn,37016.00003242493,Fri Apr 11 2025 10:10:39 GMT-0400 (Eastern Daylight Time),455114.20000076294,A,lo,I,o,148,1,2683.5,452430.70000076294,9011,WL,A,12.0
3,23.1010000705719,learn,36898.9999294281,Fri Apr 11 2025 10:10:39 GMT-0400 (Eastern Daylight Time),455230.60000038147,A,log,I,g,85,1,2799.8999996185303,452430.70000076294,9011,WL,A,12.0
3,23.233999967575073,learn,36766.00003242493,Fri Apr 11 2025 10:10:39 GMT-0400 (Eastern Daylight Time),455363.70000076294,A,logenter,I,enter,114,1,2933.0,452430.70000076294,9011,WL,A,12.0
3,23.58400011062622,learn,36415.99988937378,Fri Apr 11 2025 10:10:39 GMT-0400 (Eastern Daylight Time),455714.30000019073,A,r,I,r,328,1,350.19999980926514,455364.10000038147,9011,WL,A,13.0
3,23.717000007629395,learn,36282.999992370605,Fri Apr 11 2025 10:10:39 GMT-0400 (Eastern Daylight Time),455847.4000005722,A,ru,I,u,117,1,483.30000019073486,455364.10000038147,9011,WL,A,13.0
3,23.817000150680542,learn,36182.99984931946,Fri Apr 11 2025 10:10:39 GMT-0400 (Eastern Daylight Time),455947.4000005722,A,rug,I,g,81,1,583.3000001907349,455364.10000038147,9011,WL,A,13.0
3,24.117000102996826,learn,35882.999897003174,Fri Apr 11 2025 10:10:39 GMT-0400 (Eastern Daylight Time),456247.10000038147,A,rugenter,I,enter,277,1,883.0,455364.10000038147,9011,WL,A,13.0
3,33.25100016593933,learn,26748.99983406067,Fri Apr 11 2025 10:10:39 GMT-0400 (Eastern Daylight Time),465380.70000076294,A,r,I,r,9124,1,9133.300000190735,456247.4000005722,9011,WL,A,14.0
3,33.367000102996826,learn,26632.999897003174,Fri Apr 11 2025 10:10:39 GMT-0400 (Eastern Daylight Time),465497.4000005722,A,ra,I,a,99,1,9250.0,456247.4000005722,9011,WL,A,14.0
3,33.50100016593933,learn,26498.99983406067,Fri Apr 11 2025 10:10:39 GMT-0400 (Eastern Daylight Time),465630.9000005722,A,rat,I,t,110,1,9383.5,456247.4000005722,9011,WL,A,14.0
3,33.68400001525879,learn,26315.99998474121,Fri Apr 11 2025 10:10:39 GMT-0400 (Eastern Daylight Time),465814.20000076294,A,ratt,I,t,159,1,9566.800000190735,456247.4000005722,9011,WL,A,14.0
3,33.83400011062622,learn,26165.99988937378,Fri Apr 11 2025 10:10:39 GMT-0400 (Eastern Daylight Time),465964.20000076294,A,rattl,I,l,130,1,9716.800000190735,456247.4000005722,9011,WL,A,14.0
3,33.93400001525879,learn,26065.99998474121,Fri Apr 11 2025 10:10:39 GMT-0400 (Eastern Daylight Time),466064.20000076294,A,rattle,I,e,76,1,9816.800000190735,456247.4000005722,9011,WL,A,14.0
3,34.08400011062622,learn,25915.99988937378,Fri Apr 11 2025 10:10:39 GMT-0400 (Eastern Daylight Time),466213.60000038147,A,rattleenter,I,enter,127,1,9966.199999809265,456247.4000005722,9011,WL,A,14.0
3,39.51699995994568,learn,20483.00004005432,Fri Apr 11 2025 10:10:39 GMT-0400 (Eastern Daylight Time),471647.4000005722,A,g,I,g,5413,1,5433.400000572205,466214.0,9011,WL,A,15.0
3,39.634000062942505,learn,20365.999937057495,Fri Apr 11 2025 10:10:39 GMT-0400 (Eastern Daylight Time),471764.20000076294,A,go,I,o,104,1,5550.200000762939,466214.0,9011,WL,A,15.0
3,39.8510000705719,learn,20148.9999294281,Fri Apr 11 2025 10:10:39 GMT-0400 (Eastern Daylight Time),471980.80000019073,A,gol,I,l,189,1,5766.800000190735,466214.0,9011,WL,A,15.0
3,39.93400001525879,learn,20065.99998474121,Fri Apr 11 2025 10:10:39 GMT-0400 (Eastern Daylight Time),472064.20000076294,A,gold,I,d,60,1,5850.200000762939,466214.0,9011,WL,A,15.0
3,40.06700015068054,learn,19932.999849319458,Fri Apr 11 2025 10:10:39 GMT-0400 (Eastern Daylight Time),472197.0,A,goldenter,I,enter,111,1,5983.0,466214.0,9011,WL,A,15.0
4,0.7660000324249268,learn,59233.99996757507,Fri Apr 11 2025 10:10:39 GMT-0400 (Eastern Daylight Time),540247.4000005722,A,k,I,k,751,1,766.4000005722046,539481.0,9011,WL,A,1.0
4,0.9159998893737793,learn,59084.00011062622,Fri Apr 11 2025 10:10:39 GMT-0400 (Eastern Daylight Time),540397.3000001907,A,ke,I,e,126,1,916.3000001907349,539481.0,9011,WL,A,1.0
4,1.0329999923706055,learn,58967.000007629395,Fri Apr 11 2025 10:10:39 GMT-0400 (Eastern Daylight Time),540513.9000005722,A,key,I,y,105,1,1032.9000005722046,539481.0,9011,WL,A,1.0
4,1.2330000400543213,learn,58766.99995994568,Fri Apr 11 2025 10:10:39 GMT-0400 (Eastern Daylight Time),540713.6000003815,A,keyenter,I,enter,179,1,1232.6000003814697,539481.0,9011,WL,A,1.0
4,1.7660000324249268,learn,58233.99996757507,Fri Apr 11 2025 10:10:39 GMT-0400 (Eastern Daylight Time),541246.8000001907,A,r,I,r,513,1,532.8999996185303,540713.9000005722,9011,WL,A,2.0
4,1.8659999370574951,learn,58134.000062942505,Fri Apr 11 2025 10:10:39 GMT-0400 (Eastern Daylight Time),541347.2000007629,A,ra,I,a,92,1,633.3000001907349,540713.9000005722,9011,WL,A,2.0
4,2.065999984741211,learn,57934.00001525879,Fri Apr 11 2025 10:10:39 GMT-0400 (Eastern Daylight Time),541547.3000001907,A,rat,I,t,180,1,833.3999996185303,540713.9000005722,9011,WL,A,2.0
4,2.200000047683716,learn,57799.999952316284,Fri Apr 11 2025 10:10:39 GMT-0400 (Eastern Daylight Time),541680.6000003815,A,ratt,I,t,109,1,966.6999998092651,540713.9000005722,9011,WL,A,2.0
4,2.299999952316284,learn,57700.000047683716,Fri Apr 11 2025 10:10:39 GMT-0400 (Eastern Daylight Time),541780.7000007629,A,rattl,I,l,85,1,1066.8000001907349,540713.9000005722,9011,WL,A,2.0
4,2.4159998893737793,learn,57584.00011062622,Fri Apr 11 2025 10:10:39 GMT-0400 (Eastern Daylight Time),541897.4000005722,A,rattle,I,e,92,1,1183.5,540713.9000005722,9011,WL,A,2.0
4,3.0829999446868896,learn,56917.00005531311,Fri Apr 11 2025 10:10:39 GMT-0400 (Eastern Daylight Time),542563.6000003815,A,rattleenter,I,enter,646,1,1849.6999998092651,540713.9000005722,9011,WL,A,2.0
4,3.4489998817443848,learn,56551.000118255615,Fri Apr 11 2025 10:10:39 GMT-0400 (Eastern Daylight Time),542930.3000001907,A,g,I,g,358,1,366.30000019073486,542564.0,9011,WL,A,3.0
4,3.5829999446868896,learn,56417.00005531311,Fri Apr 11 2025 10:10:39 GMT-0400 (Eastern Daylight Time),543064.0,A,go,I,o,115,1,500.0,542564.0,9011,WL,A,3.0
4,3.799999952316284,learn,56200.000047683716,Fri Apr 11 2025 10:10:39 GMT-0400 (Eastern Daylight Time),543280.8000001907,A,gol,I,l,191,1,716.8000001907349,542564.0,9011,WL,A,3.0
4,3.9000000953674316,learn,56099.99990463257,Fri Apr 11 2025 10:10:39 GMT-0400 (Eastern Daylight Time),543380.6000003815,A,gold,I,d,87,1,816.6000003814697,542564.0,9011,WL,A,3.0
4,4.115999937057495,learn,55884.000062942505,Fri Apr 11 2025 10:10:39 GMT-0400 (Eastern Daylight Time),543596.8000001907,A,goldenter,I,enter,191,1,1032.8000001907349,542564.0,9011,WL,A,3.0
4,4.900000095367432,learn,55099.99990463257,Fri Apr 11 2025 10:10:39 GMT-0400 (Eastern Daylight Time),544380.7000007629,A,c,I,c,766,1,783.5,543597.2000007629,9011,WL,A,4.0
4,4.983000040054321,learn,55016.99995994568,Fri Apr 11 2025 10:10:39 GMT-0400 (Eastern Daylight Time),544464.2000007629,A,ch,I,h,57,1,867.0,543597.2000007629,9011,WL,A,4.0
4,5.08299994468689,learn,54917.00005531311,Fri Apr 11 2025 10:10:39 GMT-0400 (Eastern Daylight Time),544564.0,A,chi,I,i,88,1,966.7999992370605,543597.2000007629,9011,WL,A,4.0
4,5.266000032424927,learn,54733.99996757507,Fri Apr 11 2025 10:10:39 GMT-0400 (Eastern Daylight Time),544747.4000005722,A,chim,I,m,155,1,1150.1999998092651,543597.2000007629,9011,WL,A,4.0
4,5.466000080108643,learn,54533.99991989136,Fri Apr 11 2025 10:10:39 GMT-0400 (Eastern Daylight Time),544947.1000003815,A,chimn,I,n,179,1,1349.8999996185303,543597.2000007629,9011,WL,A,4.0
4,5.599999904632568,learn,54400.00009536743,Fri Apr 11 2025 10:10:39 GMT-0400 (Eastern Daylight Time),545080.6000003815,A,chimne,I,e,116,1,1483.3999996185303,543597.2000007629,9011,WL,A,4.0
4,5.75,learn,54250.0,Fri Apr 11 2025 10:10:39 GMT-0400 (Eastern Daylight Time),545230.6000003815,A,chimney,I,y,127,1,1633.3999996185303,543597.2000007629,9011,WL,A,4.0
4,6.016000032424927,learn,53983.99996757507,Fri Apr 11 2025 10:10:39 GMT-0400 (Eastern Daylight Time),545496.9000005722,A,chimneyenter,I,enter,241,1,1899.6999998092651,543597.2000007629,9011,WL,A,4.0
4,6.716000080108643,learn,53283.99991989136,Fri Apr 11 2025 10:10:39 GMT-0400 (Eastern Daylight Time),546197.4000005722,A,b,I,b,689,1,700.1000003814697,545497.3000001907,9011,WL,A,5.0
4,6.766000032424927,learn,53233.99996757507,Fri Apr 11 2025 10:10:39 GMT-0400 (Eastern Daylight Time),546247.1000003815,A,bu,I,u,34,1,749.8000001907349,545497.3000001907,9011,WL,A,5.0
4,6.915999889373779,learn,53084.00011062622,Fri Apr 11 2025 10:10:39 GMT-0400 (Eastern Daylight Time),546397.4000005722,A,but,I,t,128,1,900.1000003814697,545497.3000001907,9011,WL,A,5.0
4,7.049000024795532,learn,52950.99997520447,Fri Apr 11 2025 10:10:39 GMT-0400 (Eastern Daylight Time),546530.4000005722,A,butt,I,t,118,1,1033.1000003814697,545497.3000001907,9011,WL,A,5.0
4,7.216000080108643,learn,52783.99991989136,Fri Apr 11 2025 10:10:39 GMT-0400 (Eastern Daylight Time),546697.3000001907,A,butto,I,o,147,1,1200.0,545497.3000001907,9011,WL,A,5.0
4,7.349999904632568,learn,52650.00009536743,Fri Apr 11 2025 10:10:39 GMT-0400 (Eastern Daylight Time),546830.6000003815,A,button,I,n,110,1,1333.3000001907349,545497.3000001907,9011,WL,A,5.0
4,7.615999937057495,learn,52384.000062942505,Fri Apr 11 2025 10:10:39 GMT-0400 (Eastern Daylight Time),547096.7000007629,A,buttonenter,I,enter,240,1,1599.4000005722046,545497.3000001907,9011,WL,A,5.0
4,8.0,learn,52000.0,Fri Apr 11 2025 10:10:39 GMT-0400 (Eastern Daylight Time),547480.6000003815,A,l,I,l,370,1,383.6000003814697,547097.0,9011,WL,A,6.0
4,8.183000087738037,learn,51816.99991226196,Fri Apr 11 2025 10:10:39 GMT-0400 (Eastern Daylight Time),547664.0,A,lo,I,o,159,1,567.0,547097.0,9011,WL,A,6.0
4,8.266000032424927,learn,51733.99996757507,Fri Apr 11 2025 10:10:39 GMT-0400 (Eastern Daylight Time),547747.1000003815,A,log,I,g,73,1,650.1000003814697,547097.0,9011,WL,A,6.0
4,8.483000040054321,learn,51516.99995994568,Fri Apr 11 2025 10:10:39 GMT-0400 (Eastern Daylight Time),547963.5,A,logenter,I,enter,188,1,866.5,547097.0,9011,WL,A,6.0
4,10.150000095367432,learn,49849.99990463257,Fri Apr 11 2025 10:10:39 GMT-0400 (Eastern Daylight Time),549630.8000001907,A,b,I,b,1648,1,1666.8999996185303,547963.9000005722,9011,WL,A,7.0
4,10.348999977111816,learn,49651.00002288818,Fri Apr 11 2025 10:10:39 GMT-0400 (Eastern Daylight Time),549830.5,A,bo,I,o,182,1,1866.5999994277954,547963.9000005722,9011,WL,A,7.0
4,10.516999959945679,learn,49483.00004005432,Fri Apr 11 2025 10:10:39 GMT-0400 (Eastern Daylight Time),549997.5,A,boo,I,o,143,1,2033.5999994277954,547963.9000005722,9011,WL,A,7.0
4,10.599999904632568,learn,49400.00009536743,Fri Apr 11 2025 10:10:39 GMT-0400 (Eastern Daylight Time),550080.5,A,book,I,k,57,1,2116.5999994277954,547963.9000005722,9011,WL,A,7.0
4,11.782999992370605,learn,48217.000007629395,Fri Apr 11 2025 10:10:39 GMT-0400 (Eastern Daylight Time),551263.6000003815,A,bookenter,I,enter,1154,1,3299.699999809265,547963.9000005722,9011,WL,A,7.0
4,12.33299994468689,learn,47667.00005531311,Fri Apr 11 2025 10:10:39 GMT-0400 (Eastern Daylight Time),551814.0,A,f,I,f,538,1,550.0,551264.0,9011,WL,A,8.0
4,12.466000080108643,learn,47533.99991989136,Fri Apr 11 2025 10:10:39 GMT-0400 (Eastern Daylight Time),551947.2000007629,A,fl,I,l,113,1,683.2000007629395,551264.0,9011,WL,A,8.0
4,12.615999937057495,learn,47384.000062942505,Fri Apr 11 2025 10:10:39 GMT-0400 (Eastern Daylight Time),552097.4000005722,A,flo,I,o,121,1,833.4000005722046,551264.0,9011,WL,A,8.0
4,12.683000087738037,learn,47316.99991226196,Fri Apr 11 2025 10:10:39 GMT-0400 (Eastern Daylight Time),552163.7000007629,A,flow,I,w,54,1,899.7000007629395,551264.0,9011,WL,A,8.0
4,12.749000072479248,learn,47250.99992752075,Fri Apr 11 2025 10:10:39 GMT-0400 (Eastern Daylight Time),552230.3000001907,A,flowe,I,e,53,1,966.3000001907349,551264.0,9011,WL,A,8.0
4,12.799000024795532,learn,47200.99997520447,Fri Apr 11 2025 10:10:39 GMT-0400 (Eastern Daylight Time),552280.1000003815,A,flower,I,r,34,1,1016.1000003814697,551264.0,9011,WL,A,8.0
4,12.983000040054321,learn,47016.99995994568,Fri Apr 11 2025 10:10:39 GMT-0400 (Eastern Daylight Time),552463.5,A,flowerenter,I,enter,163,1,1199.5,551264.0,9011,WL,A,8.0
4,17.34999990463257,learn,42650.00009536743,Fri Apr 11 2025 10:10:39 GMT-0400 (Eastern Daylight Time),556830.6000003815,A,m,I,m,4347,1,4366.800000190735,552463.8000001907,9011,WL,A,9.0
4,17.41599988937378,learn,42584.00011062622,Fri Apr 11 2025 10:10:39 GMT-0400 (Eastern Daylight Time),556896.8000001907,A,me,I,e,40,1,4433.0,552463.8000001907,9011,WL,A,9.0
4,17.466000080108643,learn,42533.99991989136,Fri Apr 11 2025 10:10:39 GMT-0400 (Eastern Daylight Time),556946.8000001907,A,mea,I,a,39,1,4483.0,552463.8000001907,9011,WL,A,9.0
4,17.6489999294281,learn,42351.0000705719,Fri Apr 11 2025 10:10:39 GMT-0400 (Eastern Daylight Time),557130.5,A,mead,I,d,165,1,4666.699999809265,552463.8000001907,9011,WL,A,9.0
4,17.83299994468689,learn,42167.00005531311,Fri Apr 11 2025 10:10:39 GMT-0400 (Eastern Daylight Time),557313.9000005722,A,meado,I,o,149,1,4850.10000038147,552463.8000001907,9011,WL,A,9.0
4,17.966000080108643,learn,42033.99991989136,Fri Apr 11 2025 10:10:39 GMT-0400 (Eastern Daylight Time),557447.3000001907,A,meadow,I,w,117,1,4983.5,552463.8000001907,9011,WL,A,9.0
4,18.433000087738037,learn,41566.99991226196,Fri Apr 11 2025 10:10:39 GMT-0400 (Eastern Daylight Time),557913.6000003815,A,meadowenter,I,enter,449,1,5449.800000190735,552463.8000001907,9011,WL,A,9.0
4,19.06599998474121,learn,40934.00001525879,Fri Apr 11 2025 10:10:39 GMT-0400 (Eastern Daylight Time),558547.3000001907,A,t,I,t,625,1,633.3999996185303,557913.9000005722,9011,WL,A,10.0
4,19.25,learn,40750.0,Fri Apr 11 2025 10:10:39 GMT-0400 (Eastern Daylight Time),558730.8000001907,A,tr,I,r,164,1,816.8999996185303,557913.9000005722,9011,WL,A,10.0
4,19.299999952316284,learn,40700.000047683716,Fri Apr 11 2025 10:10:39 GMT-0400 (Eastern Daylight Time),558780.7000007629,A,tra,I,a,28,1,866.8000001907349,557913.9000005722,9011,WL,A,10.0
4,19.433000087738037,learn,40566.99991226196,Fri Apr 11 2025 10:10:39 GMT-0400 (Eastern Daylight Time),558914.1000003815,A,trai,I,i,101,1,1000.1999998092651,557913.9000005722,9011,WL,A,10.0
4,19.5,learn,40500.0,Fri Apr 11 2025 10:10:39 GMT-0400 (Eastern Daylight Time),558980.6000003815,A,train,I,n,45,1,1066.6999998092651,557913.9000005722,9011,WL,A,10.0
4,19.832000017166138,learn,40167.99998283386,Fri Apr 11 2025 10:10:39 GMT-0400 (Eastern Daylight Time),559313.2000007629,A,trainenter,I,enter,315,1,1399.3000001907349,557913.9000005722,9011,WL,A,10.0
4,22.216000080108643,learn,37783.99991989136,Fri Apr 11 2025 10:10:39 GMT-0400 (Eastern Daylight Time),561697.3000001907,A,s,I,s,2363,1,2383.800000190735,559313.5,9011,WL,A,11.0
4,22.382999897003174,learn,37617.000102996826,Fri Apr 11 2025 10:10:39 GMT-0400 (Eastern Daylight Time),561864.1000003815,A,sa,I,a,147,1,2550.6000003814697,559313.5,9011,WL,A,11.0
4,22.5,learn,37500.0,Fri Apr 11 2025 10:10:39 GMT-0400 (Eastern Daylight Time),561980.7000007629,A,sal,I,l,94,1,2667.2000007629395,559313.5,9011,WL,A,11.0
4,22.632999897003174,learn,37367.000102996826,Fri Apr 11 2025 10:10:39 GMT-0400 (Eastern Daylight Time),562114.0,A,salt,I,t,99,1,2800.5,559313.5,9011,WL,A,11.0
4,22.73300004005432,learn,37266.99995994568,Fri Apr 11 2025 10:10:39 GMT-0400 (Eastern Daylight Time),562213.6000003815,A,saltenter,I,enter,81,1,2900.1000003814697,559313.5,9011,WL,A,11.0
4,22.91599988937378,learn,37084.00011062622,Fri Apr 11 2025 10:10:39 GMT-0400 (Eastern Daylight Time),562397.3000001907,A,a,I,a,165,1,183.39999961853027,562213.9000005722,9011,WL,A,12.0
4,23.049000024795532,learn,36950.99997520447,Fri Apr 11 2025 10:10:39 GMT-0400 (Eastern Daylight Time),562530.2000007629,A,ap,I,p,121,1,316.30000019073486,562213.9000005722,9011,WL,A,12.0
4,23.282999992370605,learn,36717.000007629395,Fri Apr 11 2025 10:10:39 GMT-0400 (Eastern Daylight Time),562764.0,A,apl,I,l,214,1,550.0999994277954,562213.9000005722,9011,WL,A,12.0
4,23.41599988937378,learn,36584.00011062622,Fri Apr 11 2025 10:10:39 GMT-0400 (Eastern Daylight Time),562897.2000007629,A,apll,I,l,108,1,683.3000001907349,562213.9000005722,9011,WL,A,12.0
4,23.532999992370605,learn,36467.000007629395,Fri Apr 11 2025 10:10:39 GMT-0400 (Eastern Daylight Time),563014.1000003815,A,aplle,I,e,95,1,800.1999998092651,562213.9000005722,9011,WL,A,12.0
4,23.66599988937378,learn,36334.00011062622,Fri Apr 11 2025 10:10:39 GMT-0400 (Eastern Daylight Time),563146.8000001907,A,aplleenter,I,enter,106,1,932.8999996185303,562213.9000005722,9011,WL,A,12.0
4,24.865999937057495,learn,35134.000062942505,Fri Apr 11 2025 10:10:39 GMT-0400 (Eastern Daylight Time),564347.4000005722,A,a,I,a,1183,1,1200.1999998092651,563147.2000007629,9011,WL,A,13.0
4,25.34999990463257,learn,34650.00009536743,Fri Apr 11 2025 10:10:39 GMT-0400 (Eastern Daylight Time),564830.6000003815,A,ap,I,p,460,1,1683.3999996185303,563147.2000007629,9011,WL,A,13.0
4,25.48300004005432,learn,34516.99995994568,Fri Apr 11 2025 10:10:39 GMT-0400 (Eastern Daylight Time),564964.0,A,app,I,p,121,1,1816.7999992370605,563147.2000007629,9011,WL,A,13.0
4,25.700000047683716,learn,34299.999952316284,Fri Apr 11 2025 10:10:39 GMT-0400 (Eastern Daylight Time),565180.6000003815,A,appl,I,l,194,1,2033.3999996185303,563147.2000007629,9011,WL,A,13.0
4,25.766000032424927,learn,34233.99996757507,Fri Apr 11 2025 10:10:39 GMT-0400 (Eastern Daylight Time),565246.9000005722,A,apple,I,e,43,1,2099.699999809265,563147.2000007629,9011,WL,A,13.0
4,25.91599988937378,learn,34084.00011062622,Fri Apr 11 2025 10:10:39 GMT-0400 (Eastern Daylight Time),565396.8000001907,A,appleenter,I,enter,135,1,2249.5999994277954,563147.2000007629,9011,WL,A,13.0
4,31.08299994468689,learn,28917.00005531311,Fri Apr 11 2025 10:10:39 GMT-0400 (Eastern Daylight Time),570564.0,A,h,I,h,5158,1,5166.799999237061,565397.2000007629,9011,WL,A,14.0
4,31.200000047683716,learn,28799.999952316284,Fri Apr 11 2025 10:10:39 GMT-0400 (Eastern Daylight Time),570680.5,A,ha,I,a,99,1,5283.299999237061,565397.2000007629,9011,WL,A,14.0
4,31.33299994468689,learn,28667.00005531311,Fri Apr 11 2025 10:10:39 GMT-0400 (Eastern Daylight Time),570814.0,A,har,I,r,112,1,5416.799999237061,565397.2000007629,9011,WL,A,14.0
4,31.48300004005432,learn,28516.99995994568,Fri Apr 11 2025 10:10:39 GMT-0400 (Eastern Daylight Time),570964.0,A,harp,I,p,138,1,5566.799999237061,565397.2000007629,9011,WL,A,14.0
4,31.716000080108643,learn,28283.999919891357,Fri Apr 11 2025 10:10:39 GMT-0400 (Eastern Daylight Time),571196.9000005722,A,harpenter,I,enter,211,1,5799.699999809265,565397.2000007629,9011,WL,A,14.0
4,32.782999992370605,learn,27217.000007629395,Fri Apr 11 2025 10:10:39 GMT-0400 (Eastern Daylight Time),572264.0,A,c,I,c,1054,1,1066.6999998092651,571197.3000001907,9011,WL,A,15.0
4,32.865999937057495,learn,27134.000062942505,Fri Apr 11 2025 10:10:39 GMT-0400 (Eastern Daylight Time),572346.9000005722,A,ch,I,h,61,1,1149.6000003814697,571197.3000001907,9011,WL,A,15.0
4,33.0,learn,27000.0,Fri Apr 11 2025 10:10:39 GMT-0400 (Eastern Daylight Time),572480.7000007629,A,chi,I,i,108,1,1283.4000005722046,571197.3000001907,9011,WL,A,15.0
4,33.53200006484985,learn,26467.999935150146,Fri Apr 11 2025 10:10:39 GMT-0400 (Eastern Daylight Time),573013.3000001907,A,ch,I,backspace,510,1,1816.0,571197.3000001907,9011,WL,A,15.0
4,33.66599988937378,learn,26334.00011062622,Fri Apr 11 2025 10:10:39 GMT-0400 (Eastern Daylight Time),573146.7000007629,A,c,I,backspace,116,1,1949.4000005722046,571197.3000001907,9011,WL,A,15.0
4,33.799999952316284,learn,26200.000047683716,Fri Apr 11 2025 10:10:39 GMT-0400 (Eastern Daylight Time),573280.7000007629,A,,I,backspace,111,1,2083.4000005722046,571197.3000001907,9011,WL,A,15.0
4,33.91599988937378,learn,26084.00011062622,Fri Apr 11 2025 10:10:39 GMT-0400 (Eastern Daylight Time),573397.2000007629,A,,I,backspace,96,1,2199.9000005722046,571197.3000001907,9011,WL,A,15.0
4,36.56599998474121,learn,23434.00001525879,Fri Apr 11 2025 10:10:39 GMT-0400 (Eastern Daylight Time),576047.3000001907,A,l,I,l,2627,1,4850.0,571197.3000001907,9011,WL,A,15.0
4,36.71600008010864,learn,23283.999919891357,Fri Apr 11 2025 10:10:39 GMT-0400 (Eastern Daylight Time),576197.3000001907,A,lo,I,o,136,1,5000.0,571197.3000001907,9011,WL,A,15.0
4,36.81599998474121,learn,23184.00001525879,Fri Apr 11 2025 10:10:39 GMT-0400 (Eastern Daylight Time),576297.0,A,log,I,g,73,1,5099.699999809265,571197.3000001907,9011,WL,A,15.0
4,36.96600008010864,learn,23033.999919891357,Fri Apr 11 2025 10:10:39 GMT-0400 (Eastern Daylight Time),576446.7000007629,A,logenter,I,enter,127,1,5249.400000572205,571197.3000001907,9011,WL,A,15.0
5,1.0,learn,60000.0,Fri Apr 11 2025 10:10:39 GMT-0400 (Eastern Daylight Time),643180.4000005722,A,k,I,k,979,1,999.6000003814697,642180.8000001907,9011,WL,A,1.0
5,1.1670000553131104,learn,60000.0,Fri Apr 11 2025 10:10:39 GMT-0400 (Eastern Daylight Time),643346.7000007629,A,ke,I,e,153,1,1165.9000005722046,642180.8000001907,9011,WL,A,1.0
5,1.317000150680542,learn,60000.0,Fri Apr 11 2025 10:10:39 GMT-0400 (Eastern Daylight Time),643496.9000005722,A,key,I,y,132,1,1316.1000003814697,642180.8000001907,9011,WL,A,1.0
5,2.267000198364258,learn,60000.0,Fri Apr 11 2025 10:10:39 GMT-0400 (Eastern Daylight Time),644446.5,A,keyenter,I,enter,919,1,2265.699999809265,642180.8000001907,9011,WL,A,1.0
5,2.8560001850128174,learn,60000.0,Fri Apr 11 2025 10:10:39 GMT-0400 (Eastern Daylight Time),645036.0,A,r,I,r,572,1,589.1999998092651,644446.8000001907,9011,WL,A,2.0
5,2.951000213623047,learn,60000.0,Fri Apr 11 2025 10:10:39 GMT-0400 (Eastern Daylight Time),645130.5,A,ra,I,a,79,1,683.6999998092651,644446.8000001907,9011,WL,A,2.0
5,3.134000062942505,learn,60000.0,Fri Apr 11 2025 10:10:39 GMT-0400 (Eastern Daylight Time),645313.9000005722,A,rat,I,t,173,1,867.1000003814697,644446.8000001907,9011,WL,A,2.0
5,3.3000001907348633,learn,60000.0,Fri Apr 11 2025 10:10:39 GMT-0400 (Eastern Daylight Time),645480.4000005722,A,ratt,I,t,142,1,1033.6000003814697,644446.8000001907,9011,WL,A,2.0
5,3.767000198364258,learn,60000.0,Fri Apr 11 2025 10:10:39 GMT-0400 (Eastern Daylight Time),645947.2000007629,A,rattl,I,l,447,1,1500.4000005722046,644446.8000001907,9011,WL,A,2.0
5,3.9170000553131104,learn,60000.0,Fri Apr 11 2025 10:10:39 GMT-0400 (Eastern Daylight Time),646097.2000007629,A,rattle,I,e,124,1,1650.4000005722046,644446.8000001907,9011,WL,A,2.0
5,4.083000183105469,learn,60000.0,Fri Apr 11 2025 10:10:39 GMT-0400 (Eastern Daylight Time),646263.4000005722,A,rattleenter,I,enter,142,1,1816.6000003814697,644446.8000001907,9011,WL,A,2.0
5,4.75,learn,60000.0,Fri Apr 11 2025 10:10:39 GMT-0400 (Eastern Daylight Time),646930.0,A,g,I,g,659,1,666.1999998092651,646263.8000001907,9011,WL,A,3.0
5,4.884000062942505,learn,60000.0,Fri Apr 11 2025 10:10:39 GMT-0400 (Eastern Daylight Time),647063.8000001907,A,go,I,o,116,1,800.0,646263.8000001907,9011,WL,A,3.0
5,5.134000062942505,learn,60000.0,Fri Apr 11 2025 10:10:39 GMT-0400 (Eastern Daylight Time),647313.8000001907,A,gol,I,l,224,1,1050.0,646263.8000001907,9011,WL,A,3.0
5,5.251000165939331,learn,60000.0,Fri Apr 11 2025 10:10:39 GMT-0400 (Eastern Daylight Time),647430.5,A,gold,I,d,101,1,1166.6999998092651,646263.8000001907,9011,WL,A,3.0
5,5.7829999923706055,learn,60000.0,Fri Apr 11 2025 10:10:39 GMT-0400 (Eastern Daylight Time),647963.5,A,goldenter,I,enter,512,1,1699.6999998092651,646263.8000001907,9011,WL,A,3.0
5,7.8500001430511475,learn,60000.0,Fri Apr 11 2025 10:10:39 GMT-0400 (Eastern Daylight Time),650030.5,A,s,I,s,2047,1,2066.699999809265,647963.8000001907,9011,WL,A,4.0
5,7.984000205993652,learn,60000.0,Fri Apr 11 2025 10:10:39 GMT-0400 (Eastern Daylight Time),650163.8000001907,A,sa,I,a,117,1,2200.0,647963.8000001907,9011,WL,A,4.0
5,8.151000022888184,learn,60000.0,Fri Apr 11 2025 10:10:39 GMT-0400 (Eastern Daylight Time),650330.6000003815,A,sal,I,l,148,1,2366.800000190735,647963.8000001907,9011,WL,A,4.0
5,8.33400011062622,learn,60000.0,Fri Apr 11 2025 10:10:39 GMT-0400 (Eastern Daylight Time),650513.8000001907,A,salt,I,t,150,1,2550.0,647963.8000001907,9011,WL,A,4.0
5,9.0,learn,60000.0,Fri Apr 11 2025 10:10:39 GMT-0400 (Eastern Daylight Time),651180.1000003815,A,saltenter,I,enter,645,1,3216.300000190735,647963.8000001907,9011,WL,A,4.0
5,9.583000183105469,learn,60000.0,Fri Apr 11 2025 10:10:39 GMT-0400 (Eastern Daylight Time),651763.4000005722,A,b,I,b,573,1,582.9000005722046,651180.5,9011,WL,A,5.0
5,9.66700005531311,learn,60000.0,Fri Apr 11 2025 10:10:39 GMT-0400 (Eastern Daylight Time),651847.0,A,bu,I,u,71,1,666.5,651180.5,9011,WL,A,5.0
5,9.817000150680542,learn,60000.0,Fri Apr 11 2025 10:10:39 GMT-0400 (Eastern Daylight Time),651997.4000005722,A,but,I,t,128,1,816.9000005722046,651180.5,9011,WL,A,5.0
5,9.950000047683716,learn,60000.0,Fri Apr 11 2025 10:10:39 GMT-0400 (Eastern Daylight Time),652130.1000003815,A,butt,I,t,114,1,949.6000003814697,651180.5,9011,WL,A,5.0
5,10.067000150680542,learn,60000.0,Fri Apr 11 2025 10:10:39 GMT-0400 (Eastern Daylight Time),652247.1000003815,A,butto,I,o,94,1,1066.6000003814697,651180.5,9011,WL,A,5.0
5,10.150000095367432,learn,60000.0,Fri Apr 11 2025 10:10:39 GMT-0400 (Eastern Daylight Time),652330.2000007629,A,button,I,n,64,1,1149.7000007629395,651180.5,9011,WL,A,5.0
5,10.433000087738037,learn,60000.0,Fri Apr 11 2025 10:10:39 GMT-0400 (Eastern Daylight Time),652613.4000005722,A,buttonenter,I,enter,268,1,1432.9000005722046,651180.5,9011,WL,A,5.0
5,11.001000165939331,learn,60000.0,Fri Apr 11 2025 10:10:39 GMT-0400 (Eastern Daylight Time),653180.5,A,s,I,s,549,1,566.6999998092651,652613.8000001907,9011,WL,A,6.0
5,11.434000015258789,learn,60000.0,Fri Apr 11 2025 10:10:39 GMT-0400 (Eastern Daylight Time),653614.0,A,,I,backspace,411,1,1000.1999998092651,652613.8000001907,9011,WL,A,6.0
5,11.567000150680542,learn,60000.0,Fri Apr 11 2025 10:10:39 GMT-0400 (Eastern Daylight Time),653747.2000007629,A,a,I,a,121,1,1133.4000005722046,652613.8000001907,9011,WL,A,6.0
5,11.8510000705719,learn,60000.0,Fri Apr 11 2025 10:10:39 GMT-0400 (Eastern Daylight Time),654030.6000003815,A,ap,I,p,252,1,1416.8000001907349,652613.8000001907,9011,WL,A,6.0
5,12.08400011062622,learn,60000.0,Fri Apr 11 2025 10:10:39 GMT-0400 (Eastern Daylight Time),654263.9000005722,A,app,I,p,214,1,1650.1000003814697,652613.8000001907,9011,WL,A,6.0
5,12.350000143051147,learn,60000.0,Fri Apr 11 2025 10:10:39 GMT-0400 (Eastern Daylight Time),654530.1000003815,A,appl,I,l,255,1,1916.3000001907349,652613.8000001907,9011,WL,A,6.0
5,12.467000007629395,learn,60000.0,Fri Apr 11 2025 10:10:39 GMT-0400 (Eastern Daylight Time),654647.2000007629,A,apple,I,e,100,1,2033.4000005722046,652613.8000001907,9011,WL,A,6.0
5,12.700000047683716,learn,60000.0,Fri Apr 11 2025 10:10:39 GMT-0400 (Eastern Daylight Time),654880.0,A,appleenter,I,enter,208,1,2266.199999809265,652613.8000001907,9011,WL,A,6.0
5,15.134000062942505,learn,60000.0,Fri Apr 11 2025 10:10:39 GMT-0400 (Eastern Daylight Time),657314.1000003815,A,k,I,k,2427,1,2433.699999809265,654880.4000005722,9011,WL,A,7.0
5,15.284000158309937,learn,60000.0,Fri Apr 11 2025 10:10:39 GMT-0400 (Eastern Daylight Time),657464.0,A,ke,I,e,134,1,2583.5999994277954,654880.4000005722,9011,WL,A,7.0
5,15.450000047683716,learn,60000.0,Fri Apr 11 2025 10:10:39 GMT-0400 (Eastern Daylight Time),657630.5,A,key,I,y,144,1,2750.0999994277954,654880.4000005722,9011,WL,A,7.0
5,15.717000007629395,learn,60000.0,Fri Apr 11 2025 10:10:39 GMT-0400 (Eastern Daylight Time),657896.7000007629,A,keyenter,I,enter,248,1,3016.300000190735,654880.4000005722,9011,WL,A,7.0
5,16.151000022888184,learn,60000.0,Fri Apr 11 2025 10:10:39 GMT-0400 (Eastern Daylight Time),658330.6000003815,A,g,I,g,418,1,433.6000003814697,657897.0,9011,WL,A,8.0
5,16.284000158309937,learn,60000.0,Fri Apr 11 2025 10:10:39 GMT-0400 (Eastern Daylight Time),658463.5,A,go,I,o,109,1,566.5,657897.0,9011,WL,A,8.0
5,16.484000205993652,learn,60000.0,Fri Apr 11 2025 10:10:39 GMT-0400 (Eastern Daylight Time),658663.9000005722,A,gol,I,l,187,1,766.9000005722046,657897.0,9011,WL,A,8.0
5,16.617000102996826,learn,60000.0,Fri Apr 11 2025 10:10:39 GMT-0400 (Eastern Daylight Time),658797.2000007629,A,gold,I,d,104,1,900.2000007629395,657897.0,9011,WL,A,8.0
5,16.800000190734863,learn,60000.0,Fri Apr 11 2025 10:10:39 GMT-0400 (Eastern Daylight Time),658980.1000003815,A,goldenter,I,enter,167,1,1083.1000003814697,657897.0,9011,WL,A,8.0
5,17.234000205993652,learn,60000.0,Fri Apr 11 2025 10:10:39 GMT-0400 (Eastern Daylight Time),659414.0,A,c,I,c,422,1,433.3999996185303,658980.6000003815,9011,WL,A,9.0
5,17.301000118255615,learn,60000.0,Fri Apr 11 2025 10:10:39 GMT-0400 (Eastern Daylight Time),659480.8000001907,A,ch,I,h,47,1,500.19999980926514,658980.6000003815,9011,WL,A,9.0
5,17.43400001525879,learn,60000.0,Fri Apr 11 2025 10:10:39 GMT-0400 (Eastern Daylight Time),659614.0,A,chi,I,i,109,1,633.3999996185303,658980.6000003815,9011,WL,A,9.0
5,17.567000150680542,learn,60000.0,Fri Apr 11 2025 10:10:39 GMT-0400 (Eastern Daylight Time),659747.1000003815,A,chim,I,m,121,1,766.5,658980.6000003815,9011,WL,A,9.0
5,17.850000143051147,learn,60000.0,Fri Apr 11 2025 10:10:39 GMT-0400 (Eastern Daylight Time),660030.5,A,chimn,I,n,261,1,1049.8999996185303,658980.6000003815,9011,WL,A,9.0
5,17.984000205993652,learn,60000.0,Fri Apr 11 2025 10:10:39 GMT-0400 (Eastern Daylight Time),660163.8000001907,A,chimne,I,e,121,1,1183.1999998092651,658980.6000003815,9011,WL,A,9.0
5,18.16700005531311,learn,60000.0,Fri Apr 11 2025 10:10:39 GMT-0400 (Eastern Daylight Time),660347.2000007629,A,chimney,I,y,164,1,1366.6000003814697,658980.6000003815,9011,WL,A,9.0
5,18.433000087738037,learn,60000.0,Fri Apr 11 2025 10:10:39 GMT-0400 (Eastern Daylight Time),660613.4000005722,A,chimneyenter,I,enter,245,1,1632.8000001907349,658980.6000003815,9011,WL,A,9.0
5,19.901000022888184,learn,60000.0,Fri Apr 11 2025 10:10:39 GMT-0400 (Eastern Daylight Time),662080.5,A,m,I,m,1444,1,1466.7999992370605,660613.7000007629,9011,WL,A,10.0
5,20.451000213623047,learn,60000.0,Fri Apr 11 2025 10:10:39 GMT-0400 (Eastern Daylight Time),662630.6000003815,A,me,I,e,536,1,2016.8999996185303,660613.7000007629,9011,WL,A,10.0
5,20.5,learn,60000.0,Fri Apr 11 2025 10:10:39 GMT-0400 (Eastern Daylight Time),662680.0,A,mea,I,a,32,1,2066.2999992370605,660613.7000007629,9011,WL,A,10.0
5,20.734000205993652,learn,60000.0,Fri Apr 11 2025 10:10:39 GMT-0400 (Eastern Daylight Time),662913.8000001907,A,mead,I,d,210,1,2300.0999994277954,660613.7000007629,9011,WL,A,10.0
5,20.850000143051147,learn,60000.0,Fri Apr 11 2025 10:10:39 GMT-0400 (Eastern Daylight Time),663030.4000005722,A,meado,I,o,101,1,2416.699999809265,660613.7000007629,9011,WL,A,10.0
5,20.967000007629395,learn,60000.0,Fri Apr 11 2025 10:10:39 GMT-0400 (Eastern Daylight Time),663147.1000003815,A,meadow,I,w,89,1,2533.3999996185303,660613.7000007629,9011,WL,A,10.0
5,21.5,learn,60000.0,Fri Apr 11 2025 10:10:39 GMT-0400 (Eastern Daylight Time),663680.0,A,meadowenter,I,enter,500,1,3066.2999992370605,660613.7000007629,9011,WL,A,10.0
5,23.134000062942505,learn,60000.0,Fri Apr 11 2025 10:10:39 GMT-0400 (Eastern Daylight Time),665313.9000005722,A,b,I,b,1610,1,1633.5,663680.4000005722,9011,WL,A,11.0
5,23.284000158309937,learn,60000.0,Fri Apr 11 2025 10:10:39 GMT-0400 (Eastern Daylight Time),665463.9000005722,A,bo,I,o,132,1,1783.5,663680.4000005722,9011,WL,A,11.0
5,23.450000047683716,learn,60000.0,Fri Apr 11 2025 10:10:39 GMT-0400 (Eastern Daylight Time),665630.4000005722,A,boo,I,o,135,1,1950.0,663680.4000005722,9011,WL,A,11.0
5,23.634000062942505,learn,60000.0,Fri Apr 11 2025 10:10:39 GMT-0400 (Eastern Daylight Time),665813.8000001907,A,book,I,k,169,1,2133.3999996185303,663680.4000005722,9011,WL,A,11.0
5,23.967000007629395,learn,60000.0,Fri Apr 11 2025 10:10:39 GMT-0400 (Eastern Daylight Time),666146.7000007629,A,bookenter,I,enter,315,1,2466.300000190735,663680.4000005722,9011,WL,A,11.0
5,24.550000190734863,learn,60000.0,Fri Apr 11 2025 10:10:39 GMT-0400 (Eastern Daylight Time),666730.3000001907,A,f,I,f,568,1,583.3000001907349,666147.0,9011,WL,A,12.0
5,24.651000022888184,learn,60000.0,Fri Apr 11 2025 10:10:39 GMT-0400 (Eastern Daylight Time),666830.7000007629,A,fl,I,l,77,1,683.7000007629395,666147.0,9011,WL,A,12.0
5,24.817000150680542,learn,60000.0,Fri Apr 11 2025 10:10:39 GMT-0400 (Eastern Daylight Time),666997.2000007629,A,flo,I,o,154,1,850.2000007629395,666147.0,9011,WL,A,12.0
5,24.967000007629395,learn,60000.0,Fri Apr 11 2025 10:10:39 GMT-0400 (Eastern Daylight Time),667147.3000001907,A,flow,I,w,122,1,1000.3000001907349,666147.0,9011,WL,A,12.0
5,25.034000158309937,learn,60000.0,Fri Apr 11 2025 10:10:39 GMT-0400 (Eastern Daylight Time),667213.6000003815,A,flowe,I,e,35,1,1066.6000003814697,666147.0,9011,WL,A,12.0
5,25.117000102996826,learn,60000.0,Fri Apr 11 2025 10:10:39 GMT-0400 (Eastern Daylight Time),667297.0,A,flower,I,r,58,1,1150.0,666147.0,9011,WL,A,12.0
5,25.33300018310547,learn,60000.0,Fri Apr 11 2025 10:10:39 GMT-0400 (Eastern Daylight Time),667513.4000005722,A,flowerenter,I,enter,191,1,1366.4000005722046,666147.0,9011,WL,A,12.0
5,25.8510000705719,learn,60000.0,Fri Apr 11 2025 10:10:39 GMT-0400 (Eastern Daylight Time),668030.6000003815,A,l,I,l,497,1,516.8000001907349,667513.8000001907,9011,WL,A,13.0
5,26.017000198364258,learn,60000.0,Fri Apr 11 2025 10:10:39 GMT-0400 (Eastern Daylight Time),668197.1000003815,A,lo,I,o,153,1,683.3000001907349,667513.8000001907,9011,WL,A,13.0
5,26.134000062942505,learn,60000.0,Fri Apr 11 2025 10:10:39 GMT-0400 (Eastern Daylight Time),668313.9000005722,A,log,I,g,99,1,800.1000003814697,667513.8000001907,9011,WL,A,13.0
5,26.41700005531311,learn,60000.0,Fri Apr 11 2025 10:10:39 GMT-0400 (Eastern Daylight Time),668596.5,A,logenter,I,enter,268,1,1082.6999998092651,667513.8000001907,9011,WL,A,13.0
5,28.40000009536743,learn,60000.0,Fri Apr 11 2025 10:10:39 GMT-0400 (Eastern Daylight Time),670580.4000005722,A,h,I,h,1968,1,1983.4000005722046,668597.0,9011,WL,A,14.0
5,28.534000158309937,learn,60000.0,Fri Apr 11 2025 10:10:39 GMT-0400 (Eastern Daylight Time),670713.7000007629,A,ha,I,a,114,1,2116.7000007629395,668597.0,9011,WL,A,14.0
5,28.600000143051147,learn,60000.0,Fri Apr 11 2025 10:10:39 GMT-0400 (Eastern Daylight Time),670779.8000001907,A,har,I,r,38,1,2182.800000190735,668597.0,9011,WL,A,14.0
5,28.75,learn,60000.0,Fri Apr 11 2025 10:10:39 GMT-0400 (Eastern Daylight Time),670930.1000003815,A,harp,I,p,142,1,2333.1000003814697,668597.0,9011,WL,A,14.0
5,29.117000102996826,learn,60000.0,Fri Apr 11 2025 10:10:39 GMT-0400 (Eastern Daylight Time),671296.6000003815,A,harpenter,I,enter,348,1,2699.6000003814697,668597.0,9011,WL,A,14.0
5,30.984000205993652,learn,60000.0,Fri Apr 11 2025 10:10:39 GMT-0400 (Eastern Daylight Time),673163.9000005722,A,t,I,t,1850,1,1866.9000005722046,671297.0,9011,WL,A,15.0
5,31.18400001525879,learn,60000.0,Fri Apr 11 2025 10:10:39 GMT-0400 (Eastern Daylight Time),673363.7000007629,A,tr,I,r,188,1,2066.7000007629395,671297.0,9011,WL,A,15.0
5,31.234000205993652,learn,60000.0,Fri Apr 11 2025 10:10:39 GMT-0400 (Eastern Daylight Time),673414.1000003815,A,tra,I,a,27,1,2117.1000003814697,671297.0,9011,WL,A,15.0
5,31.317000150680542,learn,60000.0,Fri Apr 11 2025 10:10:39 GMT-0400 (Eastern Daylight Time),673497.3000001907,A,trai,I,i,68,1,2200.300000190735,671297.0,9011,WL,A,15.0
5,31.40000009536743,learn,60000.0,Fri Apr 11 2025 10:10:39 GMT-0400 (Eastern Daylight Time),673580.2000007629,A,train,I,n,62,1,2283.2000007629395,671297.0,9011,WL,A,15.0
5,31.550000190734863,learn,60000.0,Fri Apr 11 2025 10:10:39 GMT-0400 (Eastern Daylight Time),673729.9000005722,A,trainenter,I,enter,139,1,2432.9000005722046,671297.0,9011,WL,A,15.0
6,1.317000150680542,distr,58682.99984931946,Fri Apr 11 2025 10:10:39 GMT-0400 (Eastern Daylight Time),742713.9000005722,B,b,I,b,1299,1,1316.5,741397.4000005722,9011,WL,A,1.0
6,1.433000087738037,distr,58566.99991226196,Fri Apr 11 2025 10:10:39 GMT-0400 (Eastern Daylight Time),742830.5,B,bo,I,o,95,1,1433.0999994277954,741397.4000005722,9011,WL,A,1.0
6,1.5830001831054688,distr,58416.99981689453,Fri Apr 11 2025 10:10:39 GMT-0400 (Eastern Daylight Time),742980.1000003815,B,bow,I,w,128,1,1582.6999998092651,741397.4000005722,9011,WL,A,1.0
6,1.7330000400543213,distr,58266.99995994568,Fri Apr 11 2025 10:10:39 GMT-0400 (Eastern Daylight Time),743130.3000001907,B,bowl,I,l,125,1,1732.8999996185303,741397.4000005722,9011,WL,A,1.0
6,2.6500000953674316,distr,57349.99990463257,Fri Apr 11 2025 10:10:39 GMT-0400 (Eastern Daylight Time),744046.6000003815,B,bowlenter,I,enter,885,1,2649.199999809265,741397.4000005722,9011,WL,A,1.0
6,3.3330001831054688,distr,56666.99981689453,Fri Apr 11 2025 10:10:39 GMT-0400 (Eastern Daylight Time),744730.3000001907,B,b,I,b,667,1,683.3000001907349,744047.0,9011,WL,A,2.0
6,3.517000198364258,distr,56482.99980163574,Fri Apr 11 2025 10:10:39 GMT-0400 (Eastern Daylight Time),744913.7000007629,B,bo,I,o,174,1,866.7000007629395,744047.0,9011,WL,A,2.0
6,3.7170000076293945,distr,56282.999992370605,Fri Apr 11 2025 10:10:39 GMT-0400 (Eastern Daylight Time),745113.8000001907,B,bot,I,t,174,1,1066.8000001907349,744047.0,9011,WL,A,2.0
6,3.8500001430511475,distr,56149.99985694885,Fri Apr 11 2025 10:10:39 GMT-0400 (Eastern Daylight Time),745247.1000003815,B,bott,I,t,108,1,1200.1000003814697,744047.0,9011,WL,A,2.0
6,4.0,distr,56000.0,Fri Apr 11 2025 10:10:39 GMT-0400 (Eastern Daylight Time),745397.1000003815,B,bottl,I,l,129,1,1350.1000003814697,744047.0,9011,WL,A,2.0
6,4.25,distr,55750.0,Fri Apr 11 2025 10:10:39 GMT-0400 (Eastern Daylight Time),745647.1000003815,B,bottle,I,e,218,1,1600.1000003814697,744047.0,9011,WL,A,2.0
6,4.433000087738037,distr,55566.99991226196,Fri Apr 11 2025 10:10:39 GMT-0400 (Eastern Daylight Time),745829.9000005722,B,bottleenter,I,enter,168,1,1782.9000005722046,744047.0,9011,WL,A,2.0
6,5.083000183105469,distr,54916.99981689453,Fri Apr 11 2025 10:10:39 GMT-0400 (Eastern Daylight Time),746480.4000005722,B,d,I,d,628,1,650.1000003814697,745830.3000001907,9011,WL,A,3.0
6,5.233000040054321,distr,54766.99995994568,Fri Apr 11 2025 10:10:39 GMT-0400 (Eastern Daylight Time),746630.5,B,da,I,a,135,1,800.1999998092651,745830.3000001907,9011,WL,A,3.0
6,5.3500001430511475,distr,54649.99985694885,Fri Apr 11 2025 10:10:39 GMT-0400 (Eastern Daylight Time),746747.1000003815,B,daw,I,w,97,1,916.8000001907349,745830.3000001907,9011,WL,A,3.0
6,5.5329999923706055,distr,54467.000007629395,Fri Apr 11 2025 10:10:39 GMT-0400 (Eastern Daylight Time),746930.1000003815,B,dawn,I,n,172,1,1099.8000001907349,745830.3000001907,9011,WL,A,3.0
6,6.0,distr,54000.0,Fri Apr 11 2025 10:10:39 GMT-0400 (Eastern Daylight Time),747396.6000003815,B,dawnenter,I,enter,445,1,1566.3000001907349,745830.3000001907,9011,WL,A,3.0
6,7.2829999923706055,distr,52717.000007629395,Fri Apr 11 2025 10:10:39 GMT-0400 (Eastern Daylight Time),748680.4000005722,B,s,I,s,1270,1,1283.4000005722046,747397.0,9011,WL,A,4.0
6,7.400000095367432,distr,52599.99990463257,Fri Apr 11 2025 10:10:39 GMT-0400 (Eastern Daylight Time),748796.8000001907,B,sh,I,h,95,1,1399.8000001907349,747397.0,9011,WL,A,4.0
6,7.650000095367432,distr,52349.99990463257,Fri Apr 11 2025 10:10:39 GMT-0400 (Eastern Daylight Time),749047.1000003815,B,she,I,e,235,1,1650.1000003814697,747397.0,9011,WL,A,4.0
6,7.833000183105469,distr,52166.99981689453,Fri Apr 11 2025 10:10:39 GMT-0400 (Eastern Daylight Time),749230.2000007629,B,shee,I,e,160,1,1833.2000007629395,747397.0,9011,WL,A,4.0
6,7.983000040054321,distr,52016.99995994568,Fri Apr 11 2025 10:10:39 GMT-0400 (Eastern Daylight Time),749380.2000007629,B,sheep,I,p,129,1,1983.2000007629395,747397.0,9011,WL,A,4.0
6,8.600000143051147,distr,51399.99985694885,Fri Apr 11 2025 10:10:39 GMT-0400 (Eastern Daylight Time),749996.6000003815,B,sheepenter,I,enter,593,1,2599.6000003814697,747397.0,9011,WL,A,4.0
6,10.383000135421753,distr,49616.99986457825,Fri Apr 11 2025 10:10:39 GMT-0400 (Eastern Daylight Time),751780.2000007629,B,c,I,c,1773,1,1783.3000001907349,749996.9000005722,9011,WL,A,5.0
6,10.583000183105469,distr,49416.99981689453,Fri Apr 11 2025 10:10:39 GMT-0400 (Eastern Daylight Time),751980.2000007629,B,ch,I,h,178,1,1983.3000001907349,749996.9000005722,9011,WL,A,5.0
6,10.700000047683716,distr,49299.999952316284,Fri Apr 11 2025 10:10:39 GMT-0400 (Eastern Daylight Time),752097.0,B,cha,I,a,87,1,2100.0999994277954,749996.9000005722,9011,WL,A,5.0
6,10.800000190734863,distr,49199.99980926514,Fri Apr 11 2025 10:10:39 GMT-0400 (Eastern Daylight Time),752196.9000005722,B,chai,I,i,78,1,2200.0,749996.9000005722,9011,WL,A,5.0
6,10.983000040054321,distr,49016.99995994568,Fri Apr 11 2025 10:10:39 GMT-0400 (Eastern Daylight Time),752380.4000005722,B,chair,I,r,162,1,2383.5,749996.9000005722,9011,WL,A,5.0
6,11.716000080108643,distr,48283.99991989136,Fri Apr 11 2025 10:10:39 GMT-0400 (Eastern Daylight Time),753113.0,B,chairenter,I,enter,714,1,3116.0999994277954,749996.9000005722,9011,WL,A,5.0
6,13.850000143051147,distr,46149.99985694885,Fri Apr 11 2025 10:10:39 GMT-0400 (Eastern Daylight Time),755247.0,B,j,I,j,2112,1,2133.5999994277954,753113.4000005722,9011,WL,A,6.0
6,13.983000040054321,distr,46016.99995994568,Fri Apr 11 2025 10:10:39 GMT-0400 (Eastern Daylight Time),755380.4000005722,B,ju,I,u,120,1,2267.0,753113.4000005722,9011,WL,A,6.0
6,14.483000040054321,distr,45516.99995994568,Fri Apr 11 2025 10:10:39 GMT-0400 (Eastern Daylight Time),755880.4000005722,B,jud,I,d,476,1,2767.0,753113.4000005722,9011,WL,A,6.0
6,14.598999977111816,distr,45401.00002288818,Fri Apr 11 2025 10:10:39 GMT-0400 (Eastern Daylight Time),755996.5,B,judg,I,g,96,1,2883.0999994277954,753113.4000005722,9011,WL,A,6.0
6,14.717000007629395,distr,45282.999992370605,Fri Apr 11 2025 10:10:39 GMT-0400 (Eastern Daylight Time),756113.8000001907,B,judge,I,e,111,1,3000.3999996185303,753113.4000005722,9011,WL,A,6.0
6,14.850000143051147,distr,45149.99985694885,Fri Apr 11 2025 10:10:39 GMT-0400 (Eastern Daylight Time),756246.7000007629,B,judgeenter,I,enter,109,1,3133.300000190735,753113.4000005722,9011,WL,A,6.0
6,15.5,distr,44500.0,Fri Apr 11 2025 10:10:39 GMT-0400 (Eastern Daylight Time),756897.1000003815,B,g,I,g,628,1,650.1000003814697,756247.0,9011,WL,A,7.0
6,15.66700005531311,distr,44332.99994468689,Fri Apr 11 2025 10:10:39 GMT-0400 (Eastern Daylight Time),757063.8000001907,B,gr,I,r,150,1,816.8000001907349,756247.0,9011,WL,A,7.0
6,15.733000040054321,distr,44266.99995994568,Fri Apr 11 2025 10:10:39 GMT-0400 (Eastern Daylight Time),757130.0,B,gra,I,a,45,1,883.0,756247.0,9011,WL,A,7.0
6,15.867000102996826,distr,44132.999897003174,Fri Apr 11 2025 10:10:39 GMT-0400 (Eastern Daylight Time),757263.8000001907,B,gran,I,n,111,1,1016.8000001907349,756247.0,9011,WL,A,7.0
6,15.966000080108643,distr,44033.99991989136,Fri Apr 11 2025 10:10:39 GMT-0400 (Eastern Daylight Time),757363.3000001907,B,grant,I,t,77,1,1116.3000001907349,756247.0,9011,WL,A,7.0
6,16.133000135421753,distr,43866.99986457825,Fri Apr 11 2025 10:10:39 GMT-0400 (Eastern Daylight Time),757530.0,B,grantenter,I,enter,148,1,1283.0,756247.0,9011,WL,A,7.0
6,17.5,distr,42500.0,Fri Apr 11 2025 10:10:39 GMT-0400 (Eastern Daylight Time),758896.5,B,c,I,c,1344,1,1366.1999998092651,757530.3000001907,9011,WL,A,8.0
6,17.56599998474121,distr,42434.00001525879,Fri Apr 11 2025 10:10:39 GMT-0400 (Eastern Daylight Time),758963.4000005722,B,co,I,o,57,1,1433.1000003814697,757530.3000001907,9011,WL,A,8.0
6,17.617000102996826,distr,42382.999897003174,Fri Apr 11 2025 10:10:39 GMT-0400 (Eastern Daylight Time),759013.6000003815,B,cou,I,u,36,1,1483.3000001907349,757530.3000001907,9011,WL,A,8.0
6,17.83300018310547,distr,42166.99981689453,Fri Apr 11 2025 10:10:39 GMT-0400 (Eastern Daylight Time),759230.3000001907,B,coun,I,n,188,1,1700.0,757530.3000001907,9011,WL,A,8.0
6,17.91700005531311,distr,42082.99994468689,Fri Apr 11 2025 10:10:39 GMT-0400 (Eastern Daylight Time),759314.0,B,count,I,t,73,1,1783.6999998092651,757530.3000001907,9011,WL,A,8.0
6,18.067000150680542,distr,41932.99984931946,Fri Apr 11 2025 10:10:39 GMT-0400 (Eastern Daylight Time),759463.8000001907,B,county,I,y,134,1,1933.5,757530.3000001907,9011,WL,A,8.0
6,18.516000032424927,distr,41483.99996757507,Fri Apr 11 2025 10:10:39 GMT-0400 (Eastern Daylight Time),759913.2000007629,B,countyenter,I,enter,422,1,2382.9000005722046,757530.3000001907,9011,WL,A,8.0
6,18.83300018310547,distr,41166.99981689453,Fri Apr 11 2025 10:10:39 GMT-0400 (Eastern Daylight Time),760230.4000005722,B,p,I,p,305,1,316.9000005722046,759913.5,9011,WL,A,9.0
6,18.950000047683716,distr,41049.999952316284,Fri Apr 11 2025 10:10:39 GMT-0400 (Eastern Daylight Time),760346.6000003815,B,pl,I,l,94,1,433.1000003814697,759913.5,9011,WL,A,9.0
6,19.08400011062622,distr,40915.99988937378,Fri Apr 11 2025 10:10:39 GMT-0400 (Eastern Daylight Time),760480.5,B,pla,I,a,111,1,567.0,759913.5,9011,WL,A,9.0
6,19.217000007629395,distr,40782.999992370605,Fri Apr 11 2025 10:10:39 GMT-0400 (Eastern Daylight Time),760613.6000003815,B,plan,I,n,112,1,700.1000003814697,759913.5,9011,WL,A,9.0
6,19.33300018310547,distr,40666.99981689453,Fri Apr 11 2025 10:10:39 GMT-0400 (Eastern Daylight Time),760730.5,B,plane,I,e,89,1,817.0,759913.5,9011,WL,A,9.0
6,19.700000047683716,distr,40299.999952316284,Fri Apr 11 2025 10:10:39 GMT-0400 (Eastern Daylight Time),761096.6000003815,B,planeenter,I,enter,341,1,1183.1000003814697,759913.5,9011,WL,A,9.0
6,38.31700015068054,distr,21682.999849319458,Fri Apr 11 2025 10:10:39 GMT-0400 (Eastern Daylight Time),779713.7000007629,B,s,I,s,18595,1,18616.800000190735,761096.9000005722,9011,WL,A,10.0
6,38.41700005531311,distr,21582.99994468689,Fri Apr 11 2025 10:10:39 GMT-0400 (Eastern Daylight Time),779813.6000003815,B,sh,I,h,85,1,18716.699999809265,761096.9000005722,9011,WL,A,10.0
6,38.88300013542175,distr,21116.999864578247,Fri Apr 11 2025 10:10:39 GMT-0400 (Eastern Daylight Time),780280.4000005722,B,she,I,e,448,1,19183.5,761096.9000005722,9011,WL,A,10.0
6,39.06700015068054,distr,20932.999849319458,Fri Apr 11 2025 10:10:39 GMT-0400 (Eastern Daylight Time),780463.7000007629,B,shee,I,e,160,1,19366.800000190735,761096.9000005722,9011,WL,A,10.0
6,39.16700005531311,distr,20832.99994468689,Fri Apr 11 2025 10:10:39 GMT-0400 (Eastern Daylight Time),780563.8000001907,B,sheep,I,p,88,1,19466.89999961853,761096.9000005722,9011,WL,A,10.0
6,39.35000014305115,distr,20649.999856948853,Fri Apr 11 2025 10:10:39 GMT-0400 (Eastern Daylight Time),780746.5,B,sheepenter,I,enter,156,1,19649.599999427795,761096.9000005722,9011,WL,A,10.0
6,43.05000019073486,distr,16949.999809265137,Fri Apr 11 2025 10:10:39 GMT-0400 (Eastern Daylight Time),784447.2000007629,B,p,I,p,3679,1,3700.300000190735,780746.9000005722,9011,WL,A,11.0
6,43.13300013542175,distr,16866.999864578247,Fri Apr 11 2025 10:10:39 GMT-0400 (Eastern Daylight Time),784529.7000007629,B,pe,I,e,73,1,3782.800000190735,780746.9000005722,9011,WL,A,11.0
6,43.18300008773804,distr,16816.999912261963,Fri Apr 11 2025 10:10:39 GMT-0400 (Eastern Daylight Time),784580.4000005722,B,pea,I,a,38,1,3833.5,780746.9000005722,9011,WL,A,11.0
6,43.41700005531311,distr,16582.99994468689,Fri Apr 11 2025 10:10:39 GMT-0400 (Eastern Daylight Time),784813.8000001907,B,peac,I,c,211,1,4066.8999996185303,780746.9000005722,9011,WL,A,11.0
6,43.51700019836426,distr,16482.999801635742,Fri Apr 11 2025 10:10:39 GMT-0400 (Eastern Daylight Time),784913.8000001907,B,peach,I,h,74,1,4166.89999961853,780746.9000005722,9011,WL,A,11.0
6,43.65000009536743,distr,16349.999904632568,Fri Apr 11 2025 10:10:39 GMT-0400 (Eastern Daylight Time),785046.6000003815,B,peachenter,I,enter,109,1,4299.699999809265,780746.9000005722,9011,WL,A,11.0
6,60.01700019836426,distr,-17.000198364257812,Fri Apr 11 2025 10:10:39 GMT-0400 (Eastern Daylight Time),801413.8000001907,B,None,I,None,16359,1,16366.89999961853,785046.9000005722,9011,WL,A,12.0
7,9.434000015258789,immed,50565.99998474121,Fri Apr 11 2025 10:10:39 GMT-0400 (Eastern Daylight Time),814897.0,A,t,I,t,9409,1,9433.0,805464.0,9011,WL,A,1.0
7,9.617000102996826,immed,50382.999897003174,Fri Apr 11 2025 10:10:39 GMT-0400 (Eastern Daylight Time),815080.4000005722,A,tr,I,r,167,1,9616.400000572205,805464.0,9011,WL,A,1.0
7,9.66700005531311,immed,50332.99994468689,Fri Apr 11 2025 10:10:39 GMT-0400 (Eastern Daylight Time),815129.9000005722,A,tra,I,a,23,1,9665.900000572205,805464.0,9011,WL,A,1.0
7,9.784000158309937,immed,50215.99984169006,Fri Apr 11 2025 10:10:39 GMT-0400 (Eastern Daylight Time),815247.0,A,trai,I,i,93,1,9783.0,805464.0,9011,WL,A,1.0
7,9.8510000705719,immed,50148.9999294281,Fri Apr 11 2025 10:10:39 GMT-0400 (Eastern Daylight Time),815314.0,A,train,I,n,49,1,9850.0,805464.0,9011,WL,A,1.0
7,10.41700005531311,immed,49582.99994468689,Fri Apr 11 2025 10:10:39 GMT-0400 (Eastern Daylight Time),815879.9000005722,A,trainenter,I,enter,553,1,10415.900000572205,805464.0,9011,WL,A,1.0
7,12.217000007629395,immed,47782.999992370605,Fri Apr 11 2025 10:10:39 GMT-0400 (Eastern Daylight Time),817680.3000001907,A,l,I,l,1779,1,1800.0999994277954,815880.2000007629,9011,WL,A,2.0
7,12.384000062942505,immed,47615.999937057495,Fri Apr 11 2025 10:10:39 GMT-0400 (Eastern Daylight Time),817847.0,A,lo,I,o,150,1,1966.7999992370605,815880.2000007629,9011,WL,A,2.0
7,12.617000102996826,immed,47382.999897003174,Fri Apr 11 2025 10:10:39 GMT-0400 (Eastern Daylight Time),818080.3000001907,A,log,I,g,202,1,2200.0999994277954,815880.2000007629,9011,WL,A,2.0
7,13.41700005531311,immed,46582.99994468689,Fri Apr 11 2025 10:10:39 GMT-0400 (Eastern Daylight Time),818879.7000007629,A,logenter,I,enter,765,1,2999.5,815880.2000007629,9011,WL,A,2.0
7,14.117000102996826,immed,45882.999897003174,Fri Apr 11 2025 10:10:39 GMT-0400 (Eastern Daylight Time),819580.3000001907,A,r,I,r,682,1,700.1999998092651,818880.1000003815,9011,WL,A,3.0
7,14.234000205993652,immed,45765.99979400635,Fri Apr 11 2025 10:10:39 GMT-0400 (Eastern Daylight Time),819696.8000001907,A,ru,I,u,91,1,816.6999998092651,818880.1000003815,9011,WL,A,3.0
7,14.300000190734863,immed,45699.99980926514,Fri Apr 11 2025 10:10:39 GMT-0400 (Eastern Daylight Time),819763.3000001907,A,rug,I,g,53,1,883.1999998092651,818880.1000003815,9011,WL,A,3.0
7,14.583000183105469,immed,45416.99981689453,Fri Apr 11 2025 10:10:39 GMT-0400 (Eastern Daylight Time),820046.4000005722,A,rugenter,I,enter,259,1,1166.3000001907349,818880.1000003815,9011,WL,A,3.0
7,15.16700005531311,immed,44832.99994468689,Fri Apr 11 2025 10:10:39 GMT-0400 (Eastern Daylight Time),820630.4000005722,A,h,I,h,572,1,583.6999998092651,820046.7000007629,9011,WL,A,4.0
7,15.284000158309937,immed,44715.99984169006,Fri Apr 11 2025 10:10:39 GMT-0400 (Eastern Daylight Time),820747.0,A,ha,I,a,97,1,700.2999992370605,820046.7000007629,9011,WL,A,4.0
7,15.384000062942505,immed,44615.999937057495,Fri Apr 11 2025 10:10:39 GMT-0400 (Eastern Daylight Time),820846.8000001907,A,har,I,r,74,1,800.0999994277954,820046.7000007629,9011,WL,A,4.0
7,15.6010000705719,immed,44398.9999294281,Fri Apr 11 2025 10:10:39 GMT-0400 (Eastern Daylight Time),821063.6000003815,A,harp,I,p,200,1,1016.8999996185303,820046.7000007629,9011,WL,A,4.0
7,16.017000198364258,immed,43982.99980163574,Fri Apr 11 2025 10:10:39 GMT-0400 (Eastern Daylight Time),821479.8000001907,A,harpenter,I,enter,391,1,1433.0999994277954,820046.7000007629,9011,WL,A,4.0
7,16.651000022888184,immed,43348.99997711182,Fri Apr 11 2025 10:10:39 GMT-0400 (Eastern Daylight Time),822113.6000003815,A,g,I,g,627,1,633.3999996185303,821480.2000007629,9011,WL,A,5.0
7,16.784000158309937,immed,43215.99984169006,Fri Apr 11 2025 10:10:39 GMT-0400 (Eastern Daylight Time),822247.0,A,go,I,o,118,1,766.7999992370605,821480.2000007629,9011,WL,A,5.0
7,17.00100016593933,immed,42998.99983406067,Fri Apr 11 2025 10:10:39 GMT-0400 (Eastern Daylight Time),822463.6000003815,A,gol,I,l,192,1,983.3999996185303,821480.2000007629,9011,WL,A,5.0
7,17.1010000705719,immed,42898.9999294281,Fri Apr 11 2025 10:10:39 GMT-0400 (Eastern Daylight Time),822563.5,A,gold,I,d,87,1,1083.2999992370605,821480.2000007629,9011,WL,A,5.0
7,17.25,immed,42750.0,Fri Apr 11 2025 10:10:39 GMT-0400 (Eastern Daylight Time),822713.3000001907,A,goldenter,I,enter,122,1,1233.0999994277954,821480.2000007629,9011,WL,A,5.0
7,17.817000150680542,immed,42182.99984931946,Fri Apr 11 2025 10:10:39 GMT-0400 (Eastern Daylight Time),823280.3000001907,A,c,I,c,545,1,566.6999998092651,822713.6000003815,9011,WL,A,6.0
7,17.884000062942505,immed,42115.999937057495,Fri Apr 11 2025 10:10:39 GMT-0400 (Eastern Daylight Time),823346.5,A,ch,I,h,54,1,632.8999996185303,822713.6000003815,9011,WL,A,6.0
7,18.00100016593933,immed,41998.99983406067,Fri Apr 11 2025 10:10:39 GMT-0400 (Eastern Daylight Time),823463.6000003815,A,chi,I,i,102,1,750.0,822713.6000003815,9011,WL,A,6.0
7,18.151000022888184,immed,41848.99997711182,Fri Apr 11 2025 10:10:39 GMT-0400 (Eastern Daylight Time),823613.6000003815,A,chim,I,m,120,1,900.0,822713.6000003815,9011,WL,A,6.0
7,18.33400011062622,immed,41665.99988937378,Fri Apr 11 2025 10:10:39 GMT-0400 (Eastern Daylight Time),823797.0,A,chimn,I,n,162,1,1083.3999996185303,822713.6000003815,9011,WL,A,6.0
7,18.40000009536743,immed,41599.99990463257,Fri Apr 11 2025 10:10:39 GMT-0400 (Eastern Daylight Time),823863.1000003815,A,chimne,I,e,42,1,1149.5,822713.6000003815,9011,WL,A,6.0
7,18.551000118255615,immed,41448.999881744385,Fri Apr 11 2025 10:10:39 GMT-0400 (Eastern Daylight Time),824013.8000001907,A,chimney,I,y,131,1,1300.1999998092651,822713.6000003815,9011,WL,A,6.0
7,18.984000205993652,immed,41015.99979400635,Fri Apr 11 2025 10:10:39 GMT-0400 (Eastern Daylight Time),824446.5,A,chimneyenter,I,enter,400,1,1732.8999996185303,822713.6000003815,9011,WL,A,6.0
7,24.1010000705719,immed,35898.9999294281,Fri Apr 11 2025 10:10:39 GMT-0400 (Eastern Daylight Time),829563.6000003815,A,s,I,s,5100,1,5116.699999809265,824446.9000005722,9011,WL,A,7.0
7,24.25100016593933,immed,35748.99983406067,Fri Apr 11 2025 10:10:39 GMT-0400 (Eastern Daylight Time),829713.7000007629,A,sa,I,a,138,1,5266.800000190735,824446.9000005722,9011,WL,A,7.0
7,24.534000158309937,immed,35465.99984169006,Fri Apr 11 2025 10:10:39 GMT-0400 (Eastern Daylight Time),829996.9000005722,A,sal,I,l,262,1,5550.0,824446.9000005722,9011,WL,A,7.0
7,24.801000118255615,immed,35198.999881744385,Fri Apr 11 2025 10:10:39 GMT-0400 (Eastern Daylight Time),830263.5,A,salt,I,t,251,1,5816.599999427795,824446.9000005722,9011,WL,A,7.0
7,25.08300018310547,immed,34916.99981689453,Fri Apr 11 2025 10:10:39 GMT-0400 (Eastern Daylight Time),830546.4000005722,A,saltenter,I,enter,271,1,6099.5,824446.9000005722,9011,WL,A,7.0
7,25.451000213623047,immed,34548.99978637695,Fri Apr 11 2025 10:10:39 GMT-0400 (Eastern Daylight Time),830913.5,A,a,I,a,360,1,366.79999923706055,830546.7000007629,9011,WL,A,8.0
7,25.767000198364258,immed,34232.99980163574,Fri Apr 11 2025 10:10:39 GMT-0400 (Eastern Daylight Time),831230.4000005722,A,ap,I,p,292,1,683.6999998092651,830546.7000007629,9011,WL,A,8.0
7,25.91700005531311,immed,34082.99994468689,Fri Apr 11 2025 10:10:39 GMT-0400 (Eastern Daylight Time),831380.3000001907,A,app,I,p,137,1,833.5999994277954,830546.7000007629,9011,WL,A,8.0
7,26.18400001525879,immed,33815.99998474121,Fri Apr 11 2025 10:10:39 GMT-0400 (Eastern Daylight Time),831646.9000005722,A,appl,I,l,242,1,1100.1999998092651,830546.7000007629,9011,WL,A,8.0
7,26.484000205993652,immed,33515.99979400635,Fri Apr 11 2025 10:10:39 GMT-0400 (Eastern Daylight Time),831946.9000005722,A,apple,I,e,281,1,1400.1999998092651,830546.7000007629,9011,WL,A,8.0
7,26.93400001525879,immed,33065.99998474121,Fri Apr 11 2025 10:10:39 GMT-0400 (Eastern Daylight Time),832396.5,A,appleenter,I,enter,427,1,1849.7999992370605,830546.7000007629,9011,WL,A,8.0
7,27.567000150680542,immed,32432.999849319458,Fri Apr 11 2025 10:10:39 GMT-0400 (Eastern Daylight Time),833030.2000007629,A,h,I,h,622,1,633.4000005722046,832396.8000001907,9011,WL,A,9.0
7,27.68400001525879,immed,32315.99998474121,Fri Apr 11 2025 10:10:39 GMT-0400 (Eastern Daylight Time),833147.0,A,ha,I,a,98,1,750.1999998092651,832396.8000001907,9011,WL,A,9.0
7,27.817000150680542,immed,32182.999849319458,Fri Apr 11 2025 10:10:39 GMT-0400 (Eastern Daylight Time),833280.1000003815,A,har,I,r,108,1,883.3000001907349,832396.8000001907,9011,WL,A,9.0
7,28.034000158309937,immed,31965.999841690063,Fri Apr 11 2025 10:10:39 GMT-0400 (Eastern Daylight Time),833497.1000003815,A,harp,I,p,191,1,1100.3000001907349,832396.8000001907,9011,WL,A,9.0
7,28.883000135421753,immed,31116.999864578247,Fri Apr 11 2025 10:10:39 GMT-0400 (Eastern Daylight Time),834346.2000007629,A,harpenter,I,enter,830,1,1949.4000005722046,832396.8000001907,9011,WL,A,9.0
7,31.33400011062622,immed,28665.99988937378,Fri Apr 11 2025 10:10:39 GMT-0400 (Eastern Daylight Time),836797.0,A,m,I,m,2432,1,2450.3999996185303,834346.6000003815,9011,WL,A,10.0
7,31.6010000705719,immed,28398.9999294281,Fri Apr 11 2025 10:10:39 GMT-0400 (Eastern Daylight Time),837063.5,A,me,I,e,250,1,2716.8999996185303,834346.6000003815,9011,WL,A,10.0
7,31.683000087738037,immed,28316.999912261963,Fri Apr 11 2025 10:10:39 GMT-0400 (Eastern Daylight Time),837146.1000003815,A,mea,I,a,63,1,2799.5,834346.6000003815,9011,WL,A,10.0
7,31.884000062942505,immed,28115.999937057495,Fri Apr 11 2025 10:10:39 GMT-0400 (Eastern Daylight Time),837346.8000001907,A,mead,I,d,192,1,3000.199999809265,834346.6000003815,9011,WL,A,10.0
