block_c,block_dur,condition,countdown,datetime,endtime,list,multichar_response,project,response,response_time,session_number,start_end,starttime,subject_id,task,task_vers,trial
,,,,Tue Apr 22 2025 18:23:48 GMT-0500 (Central Daylight Time),,,,I,space,358,2,,,8019,WL,C,
prac,,0,,Tue Apr 22 2025 18:23:48 GMT-0500 (Central Daylight Time),,NA,b,I,b,4952,2,,,8019,WL,C,1.0
prac,,0,,Tue Apr 22 2025 18:23:48 GMT-0500 (Central Daylight Time),,NA,bo,I,o,670,2,,,8019,WL,C,1.0
prac,,0,,Tue Apr 22 2025 18:23:48 GMT-0500 (Central Daylight Time),,NA,boo,I,o,116,2,,,8019,WL,C,1.0
prac,,0,,Tue Apr 22 2025 18:23:48 GMT-0500 (Central Daylight Time),,NA,boos,I,s,128,2,,,8019,WL,C,1.0
prac,,0,,Tue Apr 22 2025 18:23:48 GMT-0500 (Central Daylight Time),,NA,boost,I,t,273,2,,,8019,WL,C,1.0
prac,,0,,Tue Apr 22 2025 18:23:48 GMT-0500 (Central Daylight Time),,NA,boostenter,I,enter,2806,2,,,8019,WL,C,1.0
1,1.2160000801086426,learn,58783.99991989136,Tue Apr 22 2025 18:23:48 GMT-0500 (Central Daylight Time),132844.5,A,t,I,t,1204,2,1215.9000000059605,131628.59999999404,8019,WL,C,1.0
1,1.3490002155303955,learn,58650.999784469604,Tue Apr 22 2025 18:23:48 GMT-0500 (Central Daylight Time),132978.0,A,to,I,o,116,2,1349.4000000059605,131628.59999999404,8019,WL,C,1.0
1,4.315000057220459,learn,55684.99994277954,Tue Apr 22 2025 18:23:48 GMT-0500 (Central Daylight Time),135943.5,A,tow,I,w,2943,2,4314.9000000059605,131628.59999999404,8019,WL,C,1.0
1,4.365000009536743,learn,55634.99999046326,Tue Apr 22 2025 18:23:48 GMT-0500 (Central Daylight Time),135993.39999997616,A,towe,I,e,34,2,4364.799999982119,131628.59999999404,8019,WL,C,1.0
1,4.448000192642212,learn,55551.99980735779,Tue Apr 22 2025 18:23:48 GMT-0500 (Central Daylight Time),136077.0,A,tower,I,r,64,2,4448.4000000059605,131628.59999999404,8019,WL,C,1.0
1,5.9150002002716064,learn,54084.99979972839,Tue Apr 22 2025 18:23:48 GMT-0500 (Central Daylight Time),137544.0,A,towerenter,I,enter,1445,2,5915.4000000059605,131628.59999999404,8019,WL,C,1.0
1,7.397000074386597,learn,52602.9999256134,Tue Apr 22 2025 18:23:48 GMT-0500 (Central Daylight Time),139025.69999998808,A,w,I,w,1472,2,1481.0,137544.69999998808,8019,WL,C,2.0
1,7.447000026702881,learn,52552.99997329712,Tue Apr 22 2025 18:23:48 GMT-0500 (Central Daylight Time),139075.69999998808,A,wh,I,h,39,2,1531.0,137544.69999998808,8019,WL,C,2.0
1,7.863000154495239,learn,52136.99984550476,Tue Apr 22 2025 18:23:48 GMT-0500 (Central Daylight Time),139492.19999998808,A,whe,I,e,406,2,1947.5,137544.69999998808,8019,WL,C,2.0
1,8.114000082015991,learn,51885.99991798401,Tue Apr 22 2025 18:23:48 GMT-0500 (Central Daylight Time),139742.19999998808,A,whea,I,a,229,2,2197.5,137544.69999998808,8019,WL,C,2.0
1,8.247000217437744,learn,51752.999782562256,Tue Apr 22 2025 18:23:48 GMT-0500 (Central Daylight Time),139875.5,A,wheat,I,t,114,2,2330.800000011921,137544.69999998808,8019,WL,C,2.0
1,8.680000066757202,learn,51319.9999332428,Tue Apr 22 2025 18:23:48 GMT-0500 (Central Daylight Time),140308.59999999404,A,wheatenter,I,enter,414,2,2763.9000000059605,137544.69999998808,8019,WL,C,2.0
1,9.525000095367432,learn,50474.99990463257,Tue Apr 22 2025 18:23:48 GMT-0500 (Central Daylight Time),141153.39999997616,A,u,I,u,693,2,844.1999999880791,140309.19999998808,8019,WL,C,3.0
1,9.546000003814697,learn,50453.9999961853,Tue Apr 22 2025 18:23:48 GMT-0500 (Central Daylight Time),141174.79999998212,A,ug,I,g,8,2,865.5999999940395,140309.19999998808,8019,WL,C,3.0
1,9.763000011444092,learn,50236.99998855591,Tue Apr 22 2025 18:23:48 GMT-0500 (Central Daylight Time),141391.69999998808,A,uga,I,a,203,2,1082.5,140309.19999998808,8019,WL,C,3.0
1,9.896000146865845,learn,50103.999853134155,Tue Apr 22 2025 18:23:48 GMT-0500 (Central Daylight Time),141524.79999998212,A,ugar,I,r,122,2,1215.5999999940395,140309.19999998808,8019,WL,C,3.0
1,10.246000051498413,learn,49753.99994850159,Tue Apr 22 2025 18:23:48 GMT-0500 (Central Daylight Time),141875.0,A,ugarenter,I,enter,341,2,1565.800000011921,140309.19999998808,8019,WL,C,3.0
1,11.328999996185303,learn,48671.0000038147,Tue Apr 22 2025 18:23:48 GMT-0500 (Central Daylight Time),142957.89999997616,A,c,I,c,1071,2,1082.5999999940395,141875.29999998212,8019,WL,C,4.0
1,11.446000099182129,learn,48553.99990081787,Tue Apr 22 2025 18:23:48 GMT-0500 (Central Daylight Time),143074.39999997616,A,co,I,o,108,2,1199.0999999940395,141875.29999998212,8019,WL,C,4.0
1,11.580000162124634,learn,48419.999837875366,Tue Apr 22 2025 18:23:48 GMT-0500 (Central Daylight Time),143208.79999998212,A,cor,I,r,127,2,1333.5,141875.29999998212,8019,WL,C,4.0
1,12.11300015449524,learn,47886.99984550476,Tue Apr 22 2025 18:23:48 GMT-0500 (Central Daylight Time),143741.19999998808,A,corn,I,n,521,2,1865.9000000059605,141875.29999998212,8019,WL,C,4.0
1,12.496000051498413,learn,47503.99994850159,Tue Apr 22 2025 18:23:48 GMT-0500 (Central Daylight Time),144124.19999998808,A,cornenter,I,enter,365,2,2248.9000000059605,141875.29999998212,8019,WL,C,4.0
1,13.26200008392334,learn,46737.99991607666,Tue Apr 22 2025 18:23:48 GMT-0500 (Central Daylight Time),144890.59999999404,A,c,I,c,750,2,765.8000000119209,144124.79999998212,8019,WL,C,5.0
1,13.34500002861023,learn,46654.99997138977,Tue Apr 22 2025 18:23:48 GMT-0500 (Central Daylight Time),144974.0,A,ca,I,a,70,2,849.2000000178814,144124.79999998212,8019,WL,C,5.0
1,13.611999988555908,learn,46388.00001144409,Tue Apr 22 2025 18:23:48 GMT-0500 (Central Daylight Time),145240.59999999404,A,cat,I,t,260,2,1115.800000011921,144124.79999998212,8019,WL,C,5.0
1,13.745000123977661,learn,46254.99987602234,Tue Apr 22 2025 18:23:48 GMT-0500 (Central Daylight Time),145373.69999998808,A,catt,I,t,112,2,1248.9000000059605,144124.79999998212,8019,WL,C,5.0
1,14.07800006866455,learn,45921.99993133545,Tue Apr 22 2025 18:23:48 GMT-0500 (Central Daylight Time),145707.0,A,cattl,I,l,315,2,1582.2000000178814,144124.79999998212,8019,WL,C,5.0
1,14.230000019073486,learn,45769.999980926514,Tue Apr 22 2025 18:23:48 GMT-0500 (Central Daylight Time),145858.29999998212,A,cattle,I,e,143,2,1733.5,144124.79999998212,8019,WL,C,5.0
1,14.662000179290771,learn,45337.99982070923,Tue Apr 22 2025 18:23:48 GMT-0500 (Central Daylight Time),146290.59999999404,A,cattleenter,I,enter,424,2,2165.800000011921,144124.79999998212,8019,WL,C,5.0
1,23.9760000705719,learn,36023.9999294281,Tue Apr 22 2025 18:23:48 GMT-0500 (Central Daylight Time),155604.19999998808,A,b,I,b,9296,2,9313.300000011921,146290.89999997616,8019,WL,C,6.0
1,24.27500009536743,learn,35724.99990463257,Tue Apr 22 2025 18:23:48 GMT-0500 (Central Daylight Time),155903.59999999404,A,bo,I,o,293,2,9612.700000017881,146290.89999997616,8019,WL,C,6.0
1,24.842000007629395,learn,35157.999992370605,Tue Apr 22 2025 18:23:48 GMT-0500 (Central Daylight Time),156470.39999997616,A,boy,I,y,553,2,10179.5,146290.89999997616,8019,WL,C,6.0
1,25.675000190734863,learn,34324.99980926514,Tue Apr 22 2025 18:23:48 GMT-0500 (Central Daylight Time),157303.19999998808,A,boyenter,I,enter,826,2,11012.300000011921,146290.89999997616,8019,WL,C,6.0
1,37.65400004386902,learn,22345.99995613098,Tue Apr 22 2025 18:23:48 GMT-0500 (Central Daylight Time),169283.0,A,f,I,f,11963,2,11979.5,157303.5,8019,WL,C,7.0
1,37.87100005149841,learn,22128.999948501587,Tue Apr 22 2025 18:23:48 GMT-0500 (Central Daylight Time),169499.59999999404,A,fl,I,l,197,2,12196.09999999404,157303.5,8019,WL,C,7.0
1,37.98699998855591,learn,22013.00001144409,Tue Apr 22 2025 18:23:48 GMT-0500 (Central Daylight Time),169615.89999997616,A,fla,I,a,110,2,12312.399999976158,157303.5,8019,WL,C,7.0
1,38.15400004386902,learn,21845.99995613098,Tue Apr 22 2025 18:23:48 GMT-0500 (Central Daylight Time),169782.69999998808,A,flag,I,g,154,2,12479.199999988079,157303.5,8019,WL,C,7.0
1,38.82000017166138,learn,21179.999828338623,Tue Apr 22 2025 18:23:48 GMT-0500 (Central Daylight Time),170449.09999999404,A,flagenter,I,enter,652,2,13145.59999999404,157303.5,8019,WL,C,7.0
1,56.498000144958496,learn,3501.999855041504,Tue Apr 22 2025 18:23:48 GMT-0500 (Central Daylight Time),188126.79999998212,A,c,I,c,17671,2,17677.29999998212,170449.5,8019,WL,C,8.0
1,56.646000146865845,learn,3353.9998531341553,Tue Apr 22 2025 18:23:48 GMT-0500 (Central Daylight Time),188275.19999998808,A,ca,I,a,140,2,17825.69999998808,170449.5,8019,WL,C,8.0
1,57.348000049591064,learn,2651.9999504089355,Tue Apr 22 2025 18:23:48 GMT-0500 (Central Daylight Time),188976.79999998212,A,cam,I,m,695,2,18527.29999998212,170449.5,8019,WL,C,8.0
1,58.31400012969971,learn,1685.999870300293,Tue Apr 22 2025 18:23:48 GMT-0500 (Central Daylight Time),189943.09999999404,A,camp,I,p,945,2,19493.59999999404,170449.5,8019,WL,C,8.0
1,59.247000217437744,learn,752.9997825622559,Tue Apr 22 2025 18:23:48 GMT-0500 (Central Daylight Time),190876.09999999404,A,campenter,I,enter,915,2,20426.59999999404,170449.5,8019,WL,C,8.0
1,60.01400017738342,learn,-14.000177383422852,Tue Apr 22 2025 18:23:48 GMT-0500 (Central Daylight Time),191642.69999998808,A,None,I,None,761,2,766.1999999880791,190876.5,8019,WL,C,9.0
2,1.0160000324249268,learn,58983.99996757507,Tue Apr 22 2025 18:23:48 GMT-0500 (Central Daylight Time),261704.09999999404,A,t,I,t,1002,2,1016.3000000119209,260687.79999998212,8019,WL,C,1.0
2,1.133000135421753,learn,58866.99986457825,Tue Apr 22 2025 18:23:48 GMT-0500 (Central Daylight Time),261820.79999998212,A,to,I,o,106,2,1133.0,260687.79999998212,8019,WL,C,1.0
2,2.0490000247955322,learn,57950.99997520447,Tue Apr 22 2025 18:23:48 GMT-0500 (Central Daylight Time),262737.2999999821,A,tow,I,w,902,2,2049.5,260687.79999998212,8019,WL,C,1.0
2,2.116000175476074,learn,57883.999824523926,Tue Apr 22 2025 18:23:48 GMT-0500 (Central Daylight Time),262803.6999999881,A,towe,I,e,49,2,2115.9000000059605,260687.79999998212,8019,WL,C,1.0
2,2.249000072479248,learn,57750.99992752075,Tue Apr 22 2025 18:23:48 GMT-0500 (Central Daylight Time),262936.89999997616,A,tower,I,r,127,2,2249.0999999940395,260687.79999998212,8019,WL,C,1.0
2,3.6490001678466797,learn,56350.99983215332,Tue Apr 22 2025 18:23:48 GMT-0500 (Central Daylight Time),264336.7999999821,A,towerenter,I,enter,1386,2,3649.0,260687.79999998212,8019,WL,C,1.0
2,5.5980000495910645,learn,54401.999950408936,Tue Apr 22 2025 18:23:48 GMT-0500 (Central Daylight Time),266286.0,A,w,I,w,1938,2,1948.9000000059605,264337.09999999404,8019,WL,C,2.0
2,5.731000185012817,learn,54268.99981498718,Tue Apr 22 2025 18:23:48 GMT-0500 (Central Daylight Time),266419.39999997616,A,wh,I,h,124,2,2082.2999999821186,264337.09999999404,8019,WL,C,2.0
2,6.21399998664856,learn,53786.00001335144,Tue Apr 22 2025 18:23:48 GMT-0500 (Central Daylight Time),266902.39999997616,A,whe,I,e,470,2,2565.2999999821186,264337.09999999404,8019,WL,C,2.0
2,6.29800009727478,learn,53701.99990272522,Tue Apr 22 2025 18:23:48 GMT-0500 (Central Daylight Time),266985.7999999821,A,whea,I,a,76,2,2648.699999988079,264337.09999999404,8019,WL,C,2.0
2,6.63100004196167,learn,53368.99995803833,Tue Apr 22 2025 18:23:48 GMT-0500 (Central Daylight Time),267318.7999999821,A,wheat,I,t,312,2,2981.699999988079,264337.09999999404,8019,WL,C,2.0
2,7.414000034332275,learn,52585.999965667725,Tue Apr 22 2025 18:23:48 GMT-0500 (Central Daylight Time),268102.1999999881,A,wheatenter,I,enter,762,2,3765.0999999940395,264337.09999999404,8019,WL,C,2.0
2,8.480000019073486,learn,51519.999980926514,Tue Apr 22 2025 18:23:48 GMT-0500 (Central Daylight Time),269168.2999999821,A,q,I,q,1060,2,1065.7999999821186,268102.5,8019,WL,C,3.0
2,8.63100004196167,learn,51368.99995803833,Tue Apr 22 2025 18:23:48 GMT-0500 (Central Daylight Time),269318.59999999404,A,qu,I,u,128,2,1216.0999999940395,268102.5,8019,WL,C,3.0
2,8.996999979019165,learn,51003.000020980835,Tue Apr 22 2025 18:23:48 GMT-0500 (Central Daylight Time),269684.7999999821,A,que,I,e,356,2,1582.2999999821186,268102.5,8019,WL,C,3.0
2,9.130000114440918,learn,50869.99988555908,Tue Apr 22 2025 18:23:48 GMT-0500 (Central Daylight Time),269818.0,A,quee,I,e,126,2,1715.5,268102.5,8019,WL,C,3.0
2,9.263000011444092,learn,50736.99998855591,Tue Apr 22 2025 18:23:48 GMT-0500 (Central Daylight Time),269951.5,A,queen,I,n,120,2,1849.0,268102.5,8019,WL,C,3.0
2,9.980000019073486,learn,50019.999980926514,Tue Apr 22 2025 18:23:48 GMT-0500 (Central Daylight Time),270667.7999999821,A,queenenter,I,enter,699,2,2565.2999999821186,268102.5,8019,WL,C,3.0
2,10.646000146865845,learn,49353.999853134155,Tue Apr 22 2025 18:23:48 GMT-0500 (Central Daylight Time),271334.5,A,s,I,s,646,2,666.4000000059605,270668.09999999404,8019,WL,C,4.0
2,10.796000003814697,learn,49203.9999961853,Tue Apr 22 2025 18:23:48 GMT-0500 (Central Daylight Time),271484.1999999881,A,su,I,u,140,2,816.0999999940395,270668.09999999404,8019,WL,C,4.0
2,11.063000202178955,learn,48936.999797821045,Tue Apr 22 2025 18:23:48 GMT-0500 (Central Daylight Time),271751.1999999881,A,sug,I,g,246,2,1083.0999999940395,270668.09999999404,8019,WL,C,4.0
2,11.130000114440918,learn,48869.99988555908,Tue Apr 22 2025 18:23:48 GMT-0500 (Central Daylight Time),271817.5,A,suga,I,a,59,2,1149.4000000059605,270668.09999999404,8019,WL,C,4.0
2,11.67900013923645,learn,48320.99986076355,Tue Apr 22 2025 18:23:48 GMT-0500 (Central Daylight Time),272367.2999999821,A,sugar,I,r,537,2,1699.199999988079,270668.09999999404,8019,WL,C,4.0
2,11.84600019454956,learn,48153.99980545044,Tue Apr 22 2025 18:23:48 GMT-0500 (Central Daylight Time),272534.0,A,sugarenter,I,enter,155,2,1865.9000000059605,270668.09999999404,8019,WL,C,4.0
2,14.945000171661377,learn,45054.99982833862,Tue Apr 22 2025 18:23:48 GMT-0500 (Central Daylight Time),275632.89999997616,A,b,I,b,3092,2,3098.5,272534.39999997616,8019,WL,C,5.0
2,15.894999980926514,learn,44105.000019073486,Tue Apr 22 2025 18:23:48 GMT-0500 (Central Daylight Time),276582.7999999821,A,bo,I,o,937,2,4048.4000000059605,272534.39999997616,8019,WL,C,5.0
2,16.195000171661377,learn,43804.99982833862,Tue Apr 22 2025 18:23:48 GMT-0500 (Central Daylight Time),276882.6999999881,A,boy,I,y,283,2,4348.300000011921,272534.39999997616,8019,WL,C,5.0
2,16.49400019645691,learn,43505.99980354309,Tue Apr 22 2025 18:23:48 GMT-0500 (Central Daylight Time),277182.59999999404,A,boyenter,I,enter,288,2,4648.200000017881,272534.39999997616,8019,WL,C,5.0
2,18.5770001411438,learn,41422.9998588562,Tue Apr 22 2025 18:23:48 GMT-0500 (Central Daylight Time),279265.39999997616,A,d,I,d,2076,2,2082.5999999940395,277182.7999999821,8019,WL,C,6.0
2,18.72699999809265,learn,41273.00000190735,Tue Apr 22 2025 18:23:48 GMT-0500 (Central Daylight Time),279415.0,A,do,I,o,129,2,2232.2000000178814,277182.7999999821,8019,WL,C,6.0
2,18.8270001411438,learn,41172.9998588562,Tue Apr 22 2025 18:23:48 GMT-0500 (Central Daylight Time),279515.1999999881,A,doc,I,c,91,2,2332.4000000059605,277182.7999999821,8019,WL,C,6.0
2,19.0770001411438,learn,40922.9998588562,Tue Apr 22 2025 18:23:48 GMT-0500 (Central Daylight Time),279765.1999999881,A,doct,I,t,239,2,2582.4000000059605,277182.7999999821,8019,WL,C,6.0
2,19.194000005722046,learn,40805.999994277954,Tue Apr 22 2025 18:23:48 GMT-0500 (Central Daylight Time),279881.6999999881,A,docto,I,o,109,2,2698.9000000059605,277182.7999999821,8019,WL,C,6.0
2,19.427000045776367,learn,40572.99995422363,Tue Apr 22 2025 18:23:48 GMT-0500 (Central Daylight Time),280114.89999997616,A,doctor,I,r,224,2,2932.0999999940395,277182.7999999821,8019,WL,C,6.0
2,20.843000173568726,learn,39156.999826431274,Tue Apr 22 2025 18:23:48 GMT-0500 (Central Daylight Time),281531.39999997616,A,doctorenter,I,enter,1399,2,4348.5999999940395,277182.7999999821,8019,WL,C,6.0
2,26.391000032424927,learn,33608.99996757507,Tue Apr 22 2025 18:23:48 GMT-0500 (Central Daylight Time),287079.2999999821,A,c,I,c,5543,2,5547.5999999940395,281531.6999999881,8019,WL,C,7.0
2,26.508000135421753,learn,33491.99986457825,Tue Apr 22 2025 18:23:48 GMT-0500 (Central Daylight Time),287196.1999999881,A,ca,I,a,107,2,5664.5,281531.6999999881,8019,WL,C,7.0
2,26.79100012779236,learn,33208.99987220764,Tue Apr 22 2025 18:23:48 GMT-0500 (Central Daylight Time),287479.2999999821,A,cam,I,m,270,2,5947.5999999940395,281531.6999999881,8019,WL,C,7.0
2,27.29100012779236,learn,32708.99987220764,Tue Apr 22 2025 18:23:48 GMT-0500 (Central Daylight Time),287979.1999999881,A,camp,I,p,491,2,6447.5,281531.6999999881,8019,WL,C,7.0
2,28.19099998474121,learn,31809.00001525879,Tue Apr 22 2025 18:23:48 GMT-0500 (Central Daylight Time),288878.89999997616,A,campenter,I,enter,887,2,7347.199999988079,281531.6999999881,8019,WL,C,7.0
2,28.891000032424927,learn,31108.999967575073,Tue Apr 22 2025 18:23:48 GMT-0500 (Central Daylight Time),289578.6999999881,A,l,I,l,684,2,699.5,288879.1999999881,8019,WL,C,8.0
2,29.124000072479248,learn,30875.999927520752,Tue Apr 22 2025 18:23:48 GMT-0500 (Central Daylight Time),289811.7999999821,A,le,I,e,224,2,932.5999999940395,288879.1999999881,8019,WL,C,8.0
2,29.740000009536743,learn,30259.999990463257,Tue Apr 22 2025 18:23:48 GMT-0500 (Central Daylight Time),290428.0,A,let,I,t,606,2,1548.800000011921,288879.1999999881,8019,WL,C,8.0
2,29.907000064849854,learn,30092.999935150146,Tue Apr 22 2025 18:23:48 GMT-0500 (Central Daylight Time),290595.0,A,lett,I,t,158,2,1715.800000011921,288879.1999999881,8019,WL,C,8.0
2,30.223999977111816,learn,29776.000022888184,Tue Apr 22 2025 18:23:48 GMT-0500 (Central Daylight Time),290911.5,A,lette,I,e,303,2,2032.300000011921,288879.1999999881,8019,WL,C,8.0
2,30.256999969482422,learn,29743.000030517578,Tue Apr 22 2025 18:23:48 GMT-0500 (Central Daylight Time),290944.7999999821,A,letter,I,r,18,2,2065.5999999940395,288879.1999999881,8019,WL,C,8.0
2,31.006999969482422,learn,28993.000030517578,Tue Apr 22 2025 18:23:48 GMT-0500 (Central Daylight Time),291694.6999999881,A,letterenter,I,enter,738,2,2815.5,288879.1999999881,8019,WL,C,8.0
2,31.740000009536743,learn,28259.999990463257,Tue Apr 22 2025 18:23:48 GMT-0500 (Central Daylight Time),292427.59999999404,A,f,I,f,715,2,732.5,291695.09999999404,8019,WL,C,9.0
2,31.92300009727478,learn,28076.99990272522,Tue Apr 22 2025 18:23:48 GMT-0500 (Central Daylight Time),292610.7999999821,A,fl,I,l,173,2,915.6999999880791,291695.09999999404,8019,WL,C,9.0
2,32.52300000190735,learn,27476.99999809265,Tue Apr 22 2025 18:23:48 GMT-0500 (Central Daylight Time),293210.6999999881,A,fla,I,a,591,2,1515.5999999940395,291695.09999999404,8019,WL,C,9.0
2,32.92300009727478,learn,27076.99990272522,Tue Apr 22 2025 18:23:48 GMT-0500 (Central Daylight Time),293610.7999999821,A,flag,I,g,392,2,1915.699999988079,291695.09999999404,8019,WL,C,9.0
2,33.23900008201599,learn,26760.99991798401,Tue Apr 22 2025 18:23:48 GMT-0500 (Central Daylight Time),293927.39999997616,A,flagenter,I,enter,303,2,2232.2999999821186,291695.09999999404,8019,WL,C,9.0
2,34.23900008201599,learn,25760.99991798401,Tue Apr 22 2025 18:23:48 GMT-0500 (Central Daylight Time),294927.09999999404,A,c,I,c,986,2,999.4000000059605,293927.6999999881,8019,WL,C,10.0
2,34.371999979019165,learn,25628.000020980835,Tue Apr 22 2025 18:23:48 GMT-0500 (Central Daylight Time),295060.2999999821,A,co,I,o,114,2,1132.5999999940395,293927.6999999881,8019,WL,C,10.0
2,34.955000162124634,learn,25044.999837875366,Tue Apr 22 2025 18:23:48 GMT-0500 (Central Daylight Time),295643.59999999404,A,cor,I,r,566,2,1715.9000000059605,293927.6999999881,8019,WL,C,10.0
2,35.2720000743866,learn,24727.999925613403,Tue Apr 22 2025 18:23:48 GMT-0500 (Central Daylight Time),295960.09999999404,A,corn,I,n,303,2,2032.4000000059605,293927.6999999881,8019,WL,C,10.0
2,36.48800015449524,learn,23511.99984550476,Tue Apr 22 2025 18:23:48 GMT-0500 (Central Daylight Time),297176.1999999881,A,cornenter,I,enter,1202,2,3248.5,293927.6999999881,8019,WL,C,10.0
2,37.53800010681152,learn,22461.999893188477,Tue Apr 22 2025 18:23:48 GMT-0500 (Central Daylight Time),298225.89999997616,A,c,I,c,1041,2,1049.2999999821186,297176.59999999404,8019,WL,C,11.0
2,37.65499997138977,learn,22345.00002861023,Tue Apr 22 2025 18:23:48 GMT-0500 (Central Daylight Time),298342.6999999881,A,ca,I,a,104,2,1166.0999999940395,297176.59999999404,8019,WL,C,11.0
2,38.021000146865845,learn,21978.999853134155,Tue Apr 22 2025 18:23:48 GMT-0500 (Central Daylight Time),298709.09999999404,A,cat,I,t,348,2,1532.5,297176.59999999404,8019,WL,C,11.0
2,38.15400004386902,learn,21845.99995613098,Tue Apr 22 2025 18:23:48 GMT-0500 (Central Daylight Time),298842.2999999821,A,catt,I,t,125,2,1665.699999988079,297176.59999999404,8019,WL,C,11.0
2,38.37100005149841,learn,21628.999948501587,Tue Apr 22 2025 18:23:48 GMT-0500 (Central Daylight Time),299059.0,A,cattl,I,l,200,2,1882.4000000059605,297176.59999999404,8019,WL,C,11.0
2,38.80400013923645,learn,21195.99986076355,Tue Apr 22 2025 18:23:48 GMT-0500 (Central Daylight Time),299492.09999999404,A,cattle,I,e,416,2,2315.5,297176.59999999404,8019,WL,C,11.0
2,39.53700017929077,learn,20462.99982070923,Tue Apr 22 2025 18:23:48 GMT-0500 (Central Daylight Time),300225.2999999821,A,cattleenter,I,enter,718,2,3048.699999988079,297176.59999999404,8019,WL,C,11.0
2,42.65300011634827,learn,17346.999883651733,Tue Apr 22 2025 18:23:48 GMT-0500 (Central Daylight Time),303340.7999999821,A,s,I,s,3096,2,3115.199999988079,300225.59999999404,8019,WL,C,12.0
2,42.769999980926514,learn,17230.000019073486,Tue Apr 22 2025 18:23:48 GMT-0500 (Central Daylight Time),303457.89999997616,A,sh,I,h,102,2,3232.2999999821186,300225.59999999404,8019,WL,C,12.0
2,43.253000020980835,learn,16746.999979019165,Tue Apr 22 2025 18:23:48 GMT-0500 (Central Daylight Time),303940.7999999821,A,sho,I,o,465,2,3715.199999988079,300225.59999999404,8019,WL,C,12.0
2,43.503000020980835,learn,16496.999979019165,Tue Apr 22 2025 18:23:48 GMT-0500 (Central Daylight Time),304190.7999999821,A,shor,I,r,245,2,3965.199999988079,300225.59999999404,8019,WL,C,12.0
2,43.55299997329712,learn,16447.00002670288,Tue Apr 22 2025 18:23:48 GMT-0500 (Central Daylight Time),304240.6999999881,A,shore,I,e,44,2,4015.0999999940395,300225.59999999404,8019,WL,C,12.0
2,45.735000133514404,learn,14264.999866485596,Tue Apr 22 2025 18:23:48 GMT-0500 (Central Daylight Time),306423.2999999821,A,shoreenter,I,enter,2178,2,6197.699999988079,300225.59999999404,8019,WL,C,12.0
2,51.950000047683716,learn,8049.999952316284,Tue Apr 22 2025 18:23:48 GMT-0500 (Central Daylight Time),312638.09999999404,A,enter,I,enter,6203,2,6214.5,306423.59999999404,8019,WL,C,13.0
2,53.08300018310547,learn,6916.999816894531,Tue Apr 22 2025 18:23:48 GMT-0500 (Central Daylight Time),313771.0,A,enter,I,enter,1115,2,1132.6000000238419,312638.39999997616,8019,WL,C,14.0
2,53.49900007247925,learn,6500.999927520752,Tue Apr 22 2025 18:23:48 GMT-0500 (Central Daylight Time),314187.59999999404,A,enter,I,enter,405,2,416.2000000178814,313771.39999997616,8019,WL,C,15.0
3,1.065999984741211,learn,58934.00001525879,Tue Apr 22 2025 18:23:48 GMT-0500 (Central Daylight Time),382632.6999999881,A,t,I,t,1053,2,1066.0999999940395,381566.59999999404,8019,WL,C,1.0
3,1.183000087738037,learn,58816.99991226196,Tue Apr 22 2025 18:23:48 GMT-0500 (Central Daylight Time),382749.59999999404,A,to,I,o,106,2,1183.0,381566.59999999404,8019,WL,C,1.0
3,1.3329999446868896,learn,58667.00005531311,Tue Apr 22 2025 18:23:48 GMT-0500 (Central Daylight Time),382899.5,A,tow,I,w,141,2,1332.9000000059605,381566.59999999404,8019,WL,C,1.0
3,1.4170000553131104,learn,58582.99994468689,Tue Apr 22 2025 18:23:48 GMT-0500 (Central Daylight Time),382983.09999999404,A,towe,I,e,71,2,1416.5,381566.59999999404,8019,WL,C,1.0
3,1.4830000400543213,learn,58516.99995994568,Tue Apr 22 2025 18:23:48 GMT-0500 (Central Daylight Time),383049.39999997616,A,tower,I,r,59,2,1482.7999999821186,381566.59999999404,8019,WL,C,1.0
3,2.1660001277923584,learn,57833.99987220764,Tue Apr 22 2025 18:23:48 GMT-0500 (Central Daylight Time),383732.5,A,towerenter,I,enter,673,2,2165.9000000059605,381566.59999999404,8019,WL,C,1.0
3,3.2669999599456787,learn,56733.00004005432,Tue Apr 22 2025 18:23:48 GMT-0500 (Central Daylight Time),384833.2999999821,A,w,I,w,1094,2,1100.4000000059605,383732.89999997616,8019,WL,C,2.0
3,3.366000175476074,learn,56633.999824523926,Tue Apr 22 2025 18:23:48 GMT-0500 (Central Daylight Time),384932.2999999821,A,wh,I,h,89,2,1199.4000000059605,383732.89999997616,8019,WL,C,2.0
3,3.499000072479248,learn,56500.99992752075,Tue Apr 22 2025 18:23:48 GMT-0500 (Central Daylight Time),385065.5,A,whe,I,e,126,2,1332.6000000238419,383732.89999997616,8019,WL,C,2.0
3,3.6490001678466797,learn,56350.99983215332,Tue Apr 22 2025 18:23:48 GMT-0500 (Central Daylight Time),385215.1999999881,A,whea,I,a,137,2,1482.300000011921,383732.89999997616,8019,WL,C,2.0
3,3.881999969482422,learn,56118.00003051758,Tue Apr 22 2025 18:23:48 GMT-0500 (Central Daylight Time),385448.39999997616,A,wheat,I,t,227,2,1715.5,383732.89999997616,8019,WL,C,2.0
3,4.065000057220459,learn,55934.99994277954,Tue Apr 22 2025 18:23:48 GMT-0500 (Central Daylight Time),385631.6999999881,A,wheatenter,I,enter,178,2,1898.800000011921,383732.89999997616,8019,WL,C,2.0
3,6.79800009727478,learn,53201.99990272522,Tue Apr 22 2025 18:23:48 GMT-0500 (Central Daylight Time),388364.5,A,q,I,q,2714,2,2732.5,385632.0,8019,WL,C,3.0
3,6.982000112533569,learn,53017.99988746643,Tue Apr 22 2025 18:23:48 GMT-0500 (Central Daylight Time),388547.7999999821,A,qu,I,u,166,2,2915.7999999821186,385632.0,8019,WL,C,3.0
3,7.215000152587891,learn,52784.99984741211,Tue Apr 22 2025 18:23:48 GMT-0500 (Central Daylight Time),388780.89999997616,A,que,I,e,223,2,3148.899999976158,385632.0,8019,WL,C,3.0
3,7.3480000495910645,learn,52651.999950408936,Tue Apr 22 2025 18:23:48 GMT-0500 (Central Daylight Time),388914.09999999404,A,quee,I,e,117,2,3282.0999999940395,385632.0,8019,WL,C,3.0
3,7.46399998664856,learn,52536.00001335144,Tue Apr 22 2025 18:23:48 GMT-0500 (Central Daylight Time),389030.7999999821,A,queen,I,n,97,2,3398.7999999821186,385632.0,8019,WL,C,3.0
3,8.21399998664856,learn,51786.00001335144,Tue Apr 22 2025 18:23:48 GMT-0500 (Central Daylight Time),389780.6999999881,A,queenenter,I,enter,731,2,4148.699999988079,385632.0,8019,WL,C,3.0
3,10.180000066757202,learn,49819.9999332428,Tue Apr 22 2025 18:23:48 GMT-0500 (Central Daylight Time),391746.7999999821,A,s,I,s,1958,2,1965.699999988079,389781.09999999404,8019,WL,C,4.0
3,10.297000169754028,learn,49702.99983024597,Tue Apr 22 2025 18:23:48 GMT-0500 (Central Daylight Time),391863.09999999404,A,su,I,u,111,2,2082.0,389781.09999999404,8019,WL,C,4.0
3,10.496999979019165,learn,49503.000020980835,Tue Apr 22 2025 18:23:48 GMT-0500 (Central Daylight Time),392063.09999999404,A,sug,I,g,179,2,2282.0,389781.09999999404,8019,WL,C,4.0
3,10.580000162124634,learn,49419.999837875366,Tue Apr 22 2025 18:23:48 GMT-0500 (Central Daylight Time),392146.59999999404,A,suga,I,a,75,2,2365.5,389781.09999999404,8019,WL,C,4.0
3,10.914000034332275,learn,49085.999965667725,Tue Apr 22 2025 18:23:48 GMT-0500 (Central Daylight Time),392480.7999999821,A,sugar,I,r,328,2,2699.699999988079,389781.09999999404,8019,WL,C,4.0
3,11.630000114440918,learn,48369.99988555908,Tue Apr 22 2025 18:23:48 GMT-0500 (Central Daylight Time),393196.0,A,sugarenter,I,enter,705,2,3414.9000000059605,389781.09999999404,8019,WL,C,4.0
3,13.913000106811523,learn,46086.99989318848,Tue Apr 22 2025 18:23:48 GMT-0500 (Central Daylight Time),395479.0,A,h,I,h,2278,2,2282.7000000178814,393196.2999999821,8019,WL,C,5.0
3,14.878999948501587,learn,45121.00005149841,Tue Apr 22 2025 18:23:48 GMT-0500 (Central Daylight Time),396445.09999999404,A,ho,I,o,956,2,3248.800000011921,393196.2999999821,8019,WL,C,5.0
3,15.67900013923645,learn,44320.99986076355,Tue Apr 22 2025 18:23:48 GMT-0500 (Central Daylight Time),397245.1999999881,A,hom,I,m,789,2,4048.9000000059605,393196.2999999821,8019,WL,C,5.0
3,15.828999996185303,learn,44171.0000038147,Tue Apr 22 2025 18:23:48 GMT-0500 (Central Daylight Time),397395.09999999404,A,home,I,e,141,2,4198.800000011921,393196.2999999821,8019,WL,C,5.0
3,16.394999980926514,learn,43605.000019073486,Tue Apr 22 2025 18:23:48 GMT-0500 (Central Daylight Time),397961.2999999821,A,homeenter,I,enter,551,2,4765.0,393196.2999999821,8019,WL,C,5.0
3,17.361000061035156,learn,42638.999938964844,Tue Apr 22 2025 18:23:48 GMT-0500 (Central Daylight Time),398927.5,A,b,I,b,961,2,965.8000000119209,397961.6999999881,8019,WL,C,6.0
3,17.710999965667725,learn,42289.000034332275,Tue Apr 22 2025 18:23:48 GMT-0500 (Central Daylight Time),399277.59999999404,A,bi,I,i,331,2,1315.9000000059605,397961.6999999881,8019,WL,C,6.0
3,18.57100009918213,learn,41428.99990081787,Tue Apr 22 2025 18:23:48 GMT-0500 (Central Daylight Time),400137.6999999881,A,b,I,backspace,855,2,2176.0,397961.6999999881,8019,WL,C,6.0
3,19.344000101089478,learn,40655.99989891052,Tue Apr 22 2025 18:23:48 GMT-0500 (Central Daylight Time),400910.39999997616,A,bo,I,o,753,2,2948.699999988079,397961.6999999881,8019,WL,C,6.0
3,19.611000061035156,learn,40388.999938964844,Tue Apr 22 2025 18:23:48 GMT-0500 (Central Daylight Time),401177.0,A,boy,I,y,260,2,3215.300000011921,397961.6999999881,8019,WL,C,6.0
3,20.0770001411438,learn,39922.9998588562,Tue Apr 22 2025 18:23:48 GMT-0500 (Central Daylight Time),401643.6999999881,A,boyenter,I,enter,457,2,3682.0,397961.6999999881,8019,WL,C,6.0
3,20.8270001411438,learn,39172.9998588562,Tue Apr 22 2025 18:23:48 GMT-0500 (Central Daylight Time),402393.2999999821,A,d,I,d,735,2,749.1999999880791,401644.09999999404,8019,WL,C,7.0
3,20.944000005722046,learn,39055.999994277954,Tue Apr 22 2025 18:23:48 GMT-0500 (Central Daylight Time),402510.0,A,do,I,o,105,2,865.9000000059605,401644.09999999404,8019,WL,C,7.0
3,21.045000076293945,learn,38954.999923706055,Tue Apr 22 2025 18:23:48 GMT-0500 (Central Daylight Time),402611.0,A,doc,I,c,92,2,966.9000000059605,401644.09999999404,8019,WL,C,7.0
3,21.493000030517578,learn,38506.99996948242,Tue Apr 22 2025 18:23:48 GMT-0500 (Central Daylight Time),403059.6999999881,A,doct,I,t,439,2,1415.5999999940395,401644.09999999404,8019,WL,C,7.0
3,21.610000133514404,learn,38389.999866485596,Tue Apr 22 2025 18:23:48 GMT-0500 (Central Daylight Time),403176.39999997616,A,docto,I,o,103,2,1532.2999999821186,401644.09999999404,8019,WL,C,7.0
3,21.72699999809265,learn,38273.00000190735,Tue Apr 22 2025 18:23:48 GMT-0500 (Central Daylight Time),403293.1999999881,A,doctor,I,r,106,2,1649.0999999940395,401644.09999999404,8019,WL,C,7.0
3,22.610000133514404,learn,37389.999866485596,Tue Apr 22 2025 18:23:48 GMT-0500 (Central Daylight Time),404176.09999999404,A,doctorenter,I,enter,876,2,2532.0,401644.09999999404,8019,WL,C,7.0
3,24.426000118255615,learn,35573.999881744385,Tue Apr 22 2025 18:23:48 GMT-0500 (Central Daylight Time),405992.1999999881,A,c,I,c,1811,2,1815.699999988079,404176.5,8019,WL,C,8.0
3,24.509000062942505,learn,35490.999937057495,Tue Apr 22 2025 18:23:48 GMT-0500 (Central Daylight Time),406075.6999999881,A,ca,I,a,74,2,1899.199999988079,404176.5,8019,WL,C,8.0
3,24.64300012588501,learn,35356.99987411499,Tue Apr 22 2025 18:23:48 GMT-0500 (Central Daylight Time),406208.89999997616,A,cam,I,m,127,2,2032.3999999761581,404176.5,8019,WL,C,8.0
3,25.276000022888184,learn,34723.99997711182,Tue Apr 22 2025 18:23:48 GMT-0500 (Central Daylight Time),406842.0,A,camp,I,p,626,2,2665.5,404176.5,8019,WL,C,8.0
3,26.009000062942505,learn,33990.999937057495,Tue Apr 22 2025 18:23:48 GMT-0500 (Central Daylight Time),407575.1999999881,A,campenter,I,enter,729,2,3398.699999988079,404176.5,8019,WL,C,8.0
3,28.341000080108643,learn,31658.999919891357,Tue Apr 22 2025 18:23:48 GMT-0500 (Central Daylight Time),409907.6999999881,A,f,I,f,2323,2,2332.199999988079,407575.5,8019,WL,C,9.0
3,28.52400016784668,learn,31475.99983215332,Tue Apr 22 2025 18:23:48 GMT-0500 (Central Daylight Time),410090.59999999404,A,fl,I,l,174,2,2515.0999999940395,407575.5,8019,WL,C,9.0
3,28.624000072479248,learn,31375.999927520752,Tue Apr 22 2025 18:23:48 GMT-0500 (Central Daylight Time),410190.7999999821,A,fla,I,a,95,2,2615.2999999821186,407575.5,8019,WL,C,9.0
3,28.79100012779236,learn,31208.99987220764,Tue Apr 22 2025 18:23:48 GMT-0500 (Central Daylight Time),410357.6999999881,A,flag,I,g,156,2,2782.199999988079,407575.5,8019,WL,C,9.0
3,29.54100012779236,learn,30458.99987220764,Tue Apr 22 2025 18:23:48 GMT-0500 (Central Daylight Time),411107.09999999404,A,flagenter,I,enter,741,2,3531.5999999940395,407575.5,8019,WL,C,9.0
3,30.258000135421753,learn,29741.999864578247,Tue Apr 22 2025 18:23:48 GMT-0500 (Central Daylight Time),411824.0,A,l,I,l,703,2,716.5,411107.5,8019,WL,C,10.0
3,30.424000024795532,learn,29575.999975204468,Tue Apr 22 2025 18:23:48 GMT-0500 (Central Daylight Time),411990.59999999404,A,le,I,e,146,2,883.0999999940395,411107.5,8019,WL,C,10.0
3,30.756999969482422,learn,29243.000030517578,Tue Apr 22 2025 18:23:48 GMT-0500 (Central Daylight Time),412323.6999999881,A,let,I,t,316,2,1216.199999988079,411107.5,8019,WL,C,10.0
3,30.891000032424927,learn,29108.999967575073,Tue Apr 22 2025 18:23:48 GMT-0500 (Central Daylight Time),412457.1999999881,A,lett,I,t,127,2,1349.699999988079,411107.5,8019,WL,C,10.0
3,31.074000120162964,learn,28925.999879837036,Tue Apr 22 2025 18:23:48 GMT-0500 (Central Daylight Time),412640.09999999404,A,lette,I,e,177,2,1532.5999999940395,411107.5,8019,WL,C,10.0
3,31.124000072479248,learn,28875.999927520752,Tue Apr 22 2025 18:23:48 GMT-0500 (Central Daylight Time),412690.0,A,letter,I,r,43,2,1582.5,411107.5,8019,WL,C,10.0
3,31.907000064849854,learn,28092.999935150146,Tue Apr 22 2025 18:23:48 GMT-0500 (Central Daylight Time),413473.09999999404,A,letterenter,I,enter,768,2,2365.5999999940395,411107.5,8019,WL,C,10.0
3,33.057000160217285,learn,26942.999839782715,Tue Apr 22 2025 18:23:48 GMT-0500 (Central Daylight Time),414622.89999997616,A,c,I,c,1129,2,1149.3999999761581,413473.5,8019,WL,C,11.0
3,33.17300009727478,learn,26826.99990272522,Tue Apr 22 2025 18:23:48 GMT-0500 (Central Daylight Time),414739.59999999404,A,co,I,o,107,2,1266.0999999940395,413473.5,8019,WL,C,11.0
3,33.58899998664856,learn,26411.00001335144,Tue Apr 22 2025 18:23:48 GMT-0500 (Central Daylight Time),415155.89999997616,A,cor,I,r,407,2,1682.3999999761581,413473.5,8019,WL,C,11.0
3,33.77300000190735,learn,26226.99999809265,Tue Apr 22 2025 18:23:48 GMT-0500 (Central Daylight Time),415339.1999999881,A,corn,I,n,174,2,1865.699999988079,413473.5,8019,WL,C,11.0
3,34.32299995422363,learn,25677.000045776367,Tue Apr 22 2025 18:23:48 GMT-0500 (Central Daylight Time),415889.39999997616,A,cornenter,I,enter,535,2,2415.899999976158,413473.5,8019,WL,C,11.0
3,36.07200002670288,learn,23927.99997329712,Tue Apr 22 2025 18:23:48 GMT-0500 (Central Daylight Time),417638.5,A,n,I,n,1729,2,1748.7000000178814,415889.7999999821,8019,WL,C,12.0
3,36.2720000743866,learn,23727.999925613403,Tue Apr 22 2025 18:23:48 GMT-0500 (Central Daylight Time),417838.5,A,na,I,a,188,2,1948.7000000178814,415889.7999999821,8019,WL,C,12.0
3,36.38900017738342,learn,23610.999822616577,Tue Apr 22 2025 18:23:48 GMT-0500 (Central Daylight Time),417955.09999999404,A,nai,I,i,100,2,2065.300000011921,415889.7999999821,8019,WL,C,12.0
3,36.873000144958496,learn,23126.999855041504,Tue Apr 22 2025 18:23:48 GMT-0500 (Central Daylight Time),418439.39999997616,A,nail,I,l,471,2,2549.5999999940395,415889.7999999821,8019,WL,C,12.0
3,38.50500011444092,learn,21494.999885559082,Tue Apr 22 2025 18:23:48 GMT-0500 (Central Daylight Time),420071.09999999404,A,nailenter,I,enter,1619,2,4181.300000011921,415889.7999999821,8019,WL,C,12.0
3,40.08800005912781,learn,19911.999940872192,Tue Apr 22 2025 18:23:48 GMT-0500 (Central Daylight Time),421654.2999999821,A,s,I,s,1562,2,1582.7999999821186,420071.5,8019,WL,C,13.0
3,40.1710000038147,learn,19828.999996185303,Tue Apr 22 2025 18:23:48 GMT-0500 (Central Daylight Time),421737.1999999881,A,sh,I,h,76,2,1665.699999988079,420071.5,8019,WL,C,13.0
3,40.72099995613098,learn,19279.00004386902,Tue Apr 22 2025 18:23:48 GMT-0500 (Central Daylight Time),422287.0,A,sho,I,o,545,2,2215.5,420071.5,8019,WL,C,13.0
3,40.9210000038147,learn,19078.999996185303,Tue Apr 22 2025 18:23:48 GMT-0500 (Central Daylight Time),422487.2999999821,A,shor,I,r,195,2,2415.7999999821186,420071.5,8019,WL,C,13.0
3,40.98800015449524,learn,19011.99984550476,Tue Apr 22 2025 18:23:48 GMT-0500 (Central Daylight Time),422554.1999999881,A,shore,I,e,59,2,2482.699999988079,420071.5,8019,WL,C,13.0
3,41.47000002861023,learn,18529.99997138977,Tue Apr 22 2025 18:23:48 GMT-0500 (Central Daylight Time),423037.0,A,shoreenter,I,enter,464,2,2965.5,420071.5,8019,WL,C,13.0
3,42.82000017166138,learn,17179.999828338623,Tue Apr 22 2025 18:23:48 GMT-0500 (Central Daylight Time),424386.5,A,c,I,c,1333,2,1349.2000000178814,423037.2999999821,8019,WL,C,14.0
3,42.920000076293945,learn,17079.999923706055,Tue Apr 22 2025 18:23:48 GMT-0500 (Central Daylight Time),424486.59999999404,A,ca,I,a,88,2,1449.300000011921,423037.2999999821,8019,WL,C,14.0
3,43.23699998855591,learn,16763.00001144409,Tue Apr 22 2025 18:23:48 GMT-0500 (Central Daylight Time),424803.0,A,cat,I,t,300,2,1765.7000000178814,423037.2999999821,8019,WL,C,14.0
3,43.37000012397766,learn,16629.99987602234,Tue Apr 22 2025 18:23:48 GMT-0500 (Central Daylight Time),424936.1999999881,A,catt,I,t,119,2,1898.9000000059605,423037.2999999821,8019,WL,C,14.0
3,43.62000012397766,learn,16379.999876022339,Tue Apr 22 2025 18:23:48 GMT-0500 (Central Daylight Time),425186.1999999881,A,cattl,I,l,242,2,2148.9000000059605,423037.2999999821,8019,WL,C,14.0
3,43.88600015640259,learn,16113.999843597412,Tue Apr 22 2025 18:23:48 GMT-0500 (Central Daylight Time),425452.7999999821,A,cattle,I,e,248,2,2415.5,423037.2999999821,8019,WL,C,14.0
3,44.569000005722046,learn,15430.999994277954,Tue Apr 22 2025 18:23:48 GMT-0500 (Central Daylight Time),426135.6999999881,A,cattleenter,I,enter,677,2,3098.4000000059605,423037.2999999821,8019,WL,C,14.0
3,60.015000104904175,learn,-15.000104904174805,Tue Apr 22 2025 18:23:48 GMT-0500 (Central Daylight Time),441581.2999999821,A,None,I,None,15441,2,15445.40000000596,426135.89999997616,8019,WL,C,15.0
4,1.7000000476837158,learn,58299.999952316284,Tue Apr 22 2025 18:23:48 GMT-0500 (Central Daylight Time),512192.2999999821,A,t,I,t,1694,2,1699.199999988079,510493.09999999404,8019,WL,C,1.0
4,1.7999999523162842,learn,58200.000047683716,Tue Apr 22 2025 18:23:48 GMT-0500 (Central Daylight Time),512292.39999997616,A,to,I,o,89,2,1799.2999999821186,510493.09999999404,8019,WL,C,1.0
4,3.2660000324249268,learn,56733.99996757507,Tue Apr 22 2025 18:23:48 GMT-0500 (Central Daylight Time),513758.59999999404,A,tow,I,w,1454,2,3265.5,510493.09999999404,8019,WL,C,1.0
4,3.315999984741211,learn,56684.00001525879,Tue Apr 22 2025 18:23:48 GMT-0500 (Central Daylight Time),513808.39999997616,A,towe,I,e,36,2,3315.2999999821186,510493.09999999404,8019,WL,C,1.0
4,3.3989999294281006,learn,56601.0000705719,Tue Apr 22 2025 18:23:48 GMT-0500 (Central Daylight Time),513891.89999997616,A,tower,I,r,65,2,3398.7999999821186,510493.09999999404,8019,WL,C,1.0
4,3.931999921798706,learn,56068.000078201294,Tue Apr 22 2025 18:23:48 GMT-0500 (Central Daylight Time),514424.89999997616,A,towerenter,I,enter,518,2,3931.7999999821186,510493.09999999404,8019,WL,C,1.0
4,5.131999969482422,learn,54868.00003051758,Tue Apr 22 2025 18:23:48 GMT-0500 (Central Daylight Time),515624.59999999404,A,w,I,w,1186,2,1199.4000000059605,514425.1999999881,8019,WL,C,2.0
4,5.23199987411499,learn,54768.00012588501,Tue Apr 22 2025 18:23:48 GMT-0500 (Central Daylight Time),515724.6999999881,A,wh,I,h,82,2,1299.5,514425.1999999881,8019,WL,C,2.0
4,5.7149999141693115,learn,54285.00008583069,Tue Apr 22 2025 18:23:48 GMT-0500 (Central Daylight Time),516207.6999999881,A,whe,I,e,469,2,1782.5,514425.1999999881,8019,WL,C,2.0
4,5.914999961853027,learn,54085.00003814697,Tue Apr 22 2025 18:23:48 GMT-0500 (Central Daylight Time),516407.59999999404,A,whea,I,a,195,2,1982.4000000059605,514425.1999999881,8019,WL,C,2.0
4,6.014999866485596,learn,53985.000133514404,Tue Apr 22 2025 18:23:48 GMT-0500 (Central Daylight Time),516507.7999999821,A,wheat,I,t,91,2,2082.5999999940395,514425.1999999881,8019,WL,C,2.0
4,6.264999866485596,learn,53735.000133514404,Tue Apr 22 2025 18:23:48 GMT-0500 (Central Daylight Time),516757.39999997616,A,wheatenter,I,enter,231,2,2332.199999988079,514425.1999999881,8019,WL,C,2.0
4,7.197999954223633,learn,52802.00004577637,Tue Apr 22 2025 18:23:48 GMT-0500 (Central Daylight Time),517690.6999999881,A,q,I,q,925,2,932.9000000059605,516757.7999999821,8019,WL,C,3.0
4,7.5920000076293945,learn,52407.999992370605,Tue Apr 22 2025 18:23:48 GMT-0500 (Central Daylight Time),518084.39999997616,A,qu,I,u,243,2,1326.5999999940395,516757.7999999821,8019,WL,C,3.0
4,7.664000034332275,learn,52335.999965667725,Tue Apr 22 2025 18:23:48 GMT-0500 (Central Daylight Time),518156.89999997616,A,que,I,e,55,2,1399.0999999940395,516757.7999999821,8019,WL,C,3.0
4,7.813999891281128,learn,52186.00010871887,Tue Apr 22 2025 18:23:48 GMT-0500 (Central Daylight Time),518306.89999997616,A,quee,I,e,139,2,1549.0999999940395,516757.7999999821,8019,WL,C,3.0
4,7.930999994277954,learn,52069.000005722046,Tue Apr 22 2025 18:23:48 GMT-0500 (Central Daylight Time),518423.39999997616,A,queen,I,n,112,2,1665.5999999940395,516757.7999999821,8019,WL,C,3.0
4,8.648000001907349,learn,51351.99999809265,Tue Apr 22 2025 18:23:48 GMT-0500 (Central Daylight Time),519140.39999997616,A,queenenter,I,enter,707,2,2382.5999999940395,516757.7999999821,8019,WL,C,3.0
4,10.363999843597412,learn,49636.00015640259,Tue Apr 22 2025 18:23:48 GMT-0500 (Central Daylight Time),520856.2999999821,A,s,I,s,1702,2,1715.699999988079,519140.59999999404,8019,WL,C,4.0
4,11.246999979019165,learn,48753.000020980835,Tue Apr 22 2025 18:23:48 GMT-0500 (Central Daylight Time),521739.1999999881,A,su,I,u,866,2,2598.5999999940395,519140.59999999404,8019,WL,C,4.0
4,11.379999876022339,learn,48620.00012397766,Tue Apr 22 2025 18:23:48 GMT-0500 (Central Daylight Time),521872.7999999821,A,sug,I,g,119,2,2732.199999988079,519140.59999999404,8019,WL,C,4.0
4,11.52999997138977,learn,48470.00002861023,Tue Apr 22 2025 18:23:48 GMT-0500 (Central Daylight Time),522022.6999999881,A,suga,I,a,129,2,2882.0999999940395,519140.59999999404,8019,WL,C,4.0
4,11.662999868392944,learn,48337.000131607056,Tue Apr 22 2025 18:23:48 GMT-0500 (Central Daylight Time),522155.7999999821,A,sugar,I,r,124,2,3015.199999988079,519140.59999999404,8019,WL,C,4.0
4,12.496000051498413,learn,47503.99994850159,Tue Apr 22 2025 18:23:48 GMT-0500 (Central Daylight Time),522989.0,A,sugarenter,I,enter,814,2,3848.4000000059605,519140.59999999404,8019,WL,C,4.0
4,13.529000043869019,learn,46470.99995613098,Tue Apr 22 2025 18:23:48 GMT-0500 (Central Daylight Time),524022.0,A,h,I,h,1013,2,1032.7000000178814,522989.2999999821,8019,WL,C,5.0
4,13.678999900817871,learn,46321.00009918213,Tue Apr 22 2025 18:23:48 GMT-0500 (Central Daylight Time),524171.7999999821,A,hi,I,i,140,2,1182.5,522989.2999999821,8019,WL,C,5.0
4,13.796000003814697,learn,46203.9999961853,Tue Apr 22 2025 18:23:48 GMT-0500 (Central Daylight Time),524288.5,A,him,I,m,102,2,1299.2000000178814,522989.2999999821,8019,WL,C,5.0
4,14.562000036239624,learn,45437.999963760376,Tue Apr 22 2025 18:23:48 GMT-0500 (Central Daylight Time),525055.0,A,hi,I,backspace,762,2,2065.7000000178814,522989.2999999821,8019,WL,C,5.0
4,14.812000036239624,learn,45187.999963760376,Tue Apr 22 2025 18:23:48 GMT-0500 (Central Daylight Time),525305.0,A,h,I,backspace,243,2,2315.7000000178814,522989.2999999821,8019,WL,C,5.0
4,15.911999940872192,learn,44088.00005912781,Tue Apr 22 2025 18:23:48 GMT-0500 (Central Daylight Time),526404.599999994,A,ho,I,o,1090,2,3415.300000011921,522989.2999999821,8019,WL,C,5.0
4,16.411999940872192,learn,43588.00005912781,Tue Apr 22 2025 18:23:48 GMT-0500 (Central Daylight Time),526904.3999999762,A,hom,I,m,494,2,3915.0999999940395,522989.2999999821,8019,WL,C,5.0
4,16.578999996185303,learn,43421.0000038147,Tue Apr 22 2025 18:23:48 GMT-0500 (Central Daylight Time),527071.1999999881,A,home,I,e,146,2,4081.9000000059605,522989.2999999821,8019,WL,C,5.0
4,17.194999933242798,learn,42805.0000667572,Tue Apr 22 2025 18:23:48 GMT-0500 (Central Daylight Time),527687.2999999821,A,homeenter,I,enter,611,2,4698.0,522989.2999999821,8019,WL,C,5.0
4,19.026999950408936,learn,40973.000049591064,Tue Apr 22 2025 18:23:48 GMT-0500 (Central Daylight Time),529520.099999994,A,b,I,b,1819,2,1832.5,527687.599999994,8019,WL,C,6.0
4,19.161999940872192,learn,40838.00005912781,Tue Apr 22 2025 18:23:48 GMT-0500 (Central Daylight Time),529655.0,A,bo,I,o,113,2,1967.4000000059605,527687.599999994,8019,WL,C,6.0
4,19.39400005340576,learn,40605.99994659424,Tue Apr 22 2025 18:23:48 GMT-0500 (Central Daylight Time),529887.099999994,A,boy,I,y,227,2,2199.5,527687.599999994,8019,WL,C,6.0
4,20.0939998626709,learn,39906.0001373291,Tue Apr 22 2025 18:23:48 GMT-0500 (Central Daylight Time),530586.1999999881,A,boyenter,I,enter,690,2,2898.5999999940395,527687.599999994,8019,WL,C,6.0
4,21.210000038146973,learn,38789.99996185303,Tue Apr 22 2025 18:23:48 GMT-0500 (Central Daylight Time),531702.8999999762,A,d,I,d,1112,2,1116.3999999761581,530586.5,8019,WL,C,7.0
4,21.342999935150146,learn,38657.00006484985,Tue Apr 22 2025 18:23:48 GMT-0500 (Central Daylight Time),531835.8999999762,A,do,I,o,123,2,1249.3999999761581,530586.5,8019,WL,C,7.0
4,21.444000005722046,learn,38555.999994277954,Tue Apr 22 2025 18:23:48 GMT-0500 (Central Daylight Time),531936.3999999762,A,doc,I,c,86,2,1349.8999999761581,530586.5,8019,WL,C,7.0
4,21.993000030517578,learn,38006.99996948242,Tue Apr 22 2025 18:23:48 GMT-0500 (Central Daylight Time),532486.099999994,A,doct,I,t,538,2,1899.5999999940395,530586.5,8019,WL,C,7.0
4,22.126999855041504,learn,37873.000144958496,Tue Apr 22 2025 18:23:48 GMT-0500 (Central Daylight Time),532619.2999999821,A,docto,I,o,116,2,2032.7999999821186,530586.5,8019,WL,C,7.0
4,22.243000030517578,learn,37756.99996948242,Tue Apr 22 2025 18:23:48 GMT-0500 (Central Daylight Time),532736.099999994,A,doctor,I,r,103,2,2149.5999999940395,530586.5,8019,WL,C,7.0
4,22.759999990463257,learn,37240.00000953674,Tue Apr 22 2025 18:23:48 GMT-0500 (Central Daylight Time),533252.3999999762,A,doctorenter,I,enter,498,2,2665.899999976158,530586.5,8019,WL,C,7.0
4,23.675999879837036,learn,36324.000120162964,Tue Apr 22 2025 18:23:48 GMT-0500 (Central Daylight Time),534168.599999994,A,c,I,c,902,2,915.8000000119209,533252.7999999821,8019,WL,C,8.0
4,23.792999982833862,learn,36207.00001716614,Tue Apr 22 2025 18:23:48 GMT-0500 (Central Daylight Time),534285.3999999762,A,ca,I,a,98,2,1032.5999999940395,533252.7999999821,8019,WL,C,8.0
4,23.875999927520752,learn,36124.00007247925,Tue Apr 22 2025 18:23:48 GMT-0500 (Central Daylight Time),534368.599999994,A,cam,I,m,77,2,1115.800000011921,533252.7999999821,8019,WL,C,8.0
4,24.408999919891357,learn,35591.00008010864,Tue Apr 22 2025 18:23:48 GMT-0500 (Central Daylight Time),534901.8999999762,A,camp,I,p,514,2,1649.0999999940395,533252.7999999821,8019,WL,C,8.0
4,25.29200005531311,learn,34707.99994468689,Tue Apr 22 2025 18:23:48 GMT-0500 (Central Daylight Time),535784.8999999762,A,campenter,I,enter,869,2,2532.0999999940395,533252.7999999821,8019,WL,C,8.0
4,27.407999992370605,learn,32592.000007629395,Tue Apr 22 2025 18:23:48 GMT-0500 (Central Daylight Time),537901.0,A,f,I,f,2097,2,2115.7000000178814,535785.2999999821,8019,WL,C,9.0
4,27.64199995994568,learn,32358.00004005432,Tue Apr 22 2025 18:23:48 GMT-0500 (Central Daylight Time),538134.5,A,fl,I,l,213,2,2349.2000000178814,535785.2999999821,8019,WL,C,9.0
4,28.274999856948853,learn,31725.000143051147,Tue Apr 22 2025 18:23:48 GMT-0500 (Central Daylight Time),538767.2999999821,A,fla,I,a,628,2,2982.0,535785.2999999821,8019,WL,C,9.0
4,28.907999992370605,learn,31092.000007629395,Tue Apr 22 2025 18:23:48 GMT-0500 (Central Daylight Time),539400.3999999762,A,flag,I,g,619,2,3615.0999999940395,535785.2999999821,8019,WL,C,9.0
4,29.473999977111816,learn,30526.000022888184,Tue Apr 22 2025 18:23:48 GMT-0500 (Central Daylight Time),539966.8999999762,A,flagenter,I,enter,554,2,4181.5999999940395,535785.2999999821,8019,WL,C,9.0
4,30.656999826431274,learn,29343.000173568726,Tue Apr 22 2025 18:23:48 GMT-0500 (Central Daylight Time),541149.7999999821,A,l,I,l,1171,2,1182.5,539967.2999999821,8019,WL,C,10.0
4,30.83999991416931,learn,29160.00008583069,Tue Apr 22 2025 18:23:48 GMT-0500 (Central Daylight Time),541333.1999999881,A,le,I,e,173,2,1365.9000000059605,539967.2999999821,8019,WL,C,10.0
4,31.223000049591064,learn,28776.999950408936,Tue Apr 22 2025 18:23:48 GMT-0500 (Central Daylight Time),541716.0,A,let,I,t,374,2,1748.7000000178814,539967.2999999821,8019,WL,C,10.0
4,31.37399983406067,learn,28626.00016593933,Tue Apr 22 2025 18:23:48 GMT-0500 (Central Daylight Time),541866.3999999762,A,lett,I,t,132,2,1899.0999999940395,539967.2999999821,8019,WL,C,10.0
4,31.740000009536743,learn,28259.999990463257,Tue Apr 22 2025 18:23:48 GMT-0500 (Central Daylight Time),542233.0,A,lette,I,e,360,2,2265.7000000178814,539967.2999999821,8019,WL,C,10.0
4,31.789999961853027,learn,28210.000038146973,Tue Apr 22 2025 18:23:48 GMT-0500 (Central Daylight Time),542282.8999999762,A,letter,I,r,41,2,2315.5999999940395,539967.2999999821,8019,WL,C,10.0
4,31.990000009536743,learn,28009.999990463257,Tue Apr 22 2025 18:23:48 GMT-0500 (Central Daylight Time),542483.0,A,letterenter,I,enter,184,2,2515.7000000178814,539967.2999999821,8019,WL,C,10.0
4,33.723000049591064,learn,26276.999950408936,Tue Apr 22 2025 18:23:48 GMT-0500 (Central Daylight Time),544215.5,A,c,I,c,1712,2,1732.0,542483.5,8019,WL,C,11.0
4,33.90599989891052,learn,26094.000101089478,Tue Apr 22 2025 18:23:48 GMT-0500 (Central Daylight Time),544399.099999994,A,co,I,o,163,2,1915.5999999940395,542483.5,8019,WL,C,11.0
4,34.055999994277954,learn,25944.000005722046,Tue Apr 22 2025 18:23:48 GMT-0500 (Central Daylight Time),544549.099999994,A,cor,I,r,139,2,2065.5999999940395,542483.5,8019,WL,C,11.0
4,34.388999938964844,learn,25611.000061035156,Tue Apr 22 2025 18:23:48 GMT-0500 (Central Daylight Time),544882.0,A,corn,I,n,317,2,2398.5,542483.5,8019,WL,C,11.0
4,35.18899989128113,learn,24811.000108718872,Tue Apr 22 2025 18:23:48 GMT-0500 (Central Daylight Time),545682.1999999881,A,cornenter,I,enter,784,2,3198.699999988079,542483.5,8019,WL,C,11.0
4,35.90499997138977,learn,24095.00002861023,Tue Apr 22 2025 18:23:48 GMT-0500 (Central Daylight Time),546398.2999999821,A,c,I,c,704,2,715.7999999821186,545682.5,8019,WL,C,12.0
4,36.02199983596802,learn,23978.000164031982,Tue Apr 22 2025 18:23:48 GMT-0500 (Central Daylight Time),546515.0,A,ca,I,a,108,2,832.5,545682.5,8019,WL,C,12.0
4,36.371999979019165,learn,23628.000020980835,Tue Apr 22 2025 18:23:48 GMT-0500 (Central Daylight Time),546864.7999999821,A,cat,I,t,335,2,1182.2999999821186,545682.5,8019,WL,C,12.0
4,36.50600004196167,learn,23493.99995803833,Tue Apr 22 2025 18:23:48 GMT-0500 (Central Daylight Time),546998.3999999762,A,catt,I,t,121,2,1315.8999999761581,545682.5,8019,WL,C,12.0
4,36.72199988365173,learn,23278.000116348267,Tue Apr 22 2025 18:23:48 GMT-0500 (Central Daylight Time),547214.7999999821,A,cattl,I,l,196,2,1532.2999999821186,545682.5,8019,WL,C,12.0
4,37.121999979019165,learn,22878.000020980835,Tue Apr 22 2025 18:23:48 GMT-0500 (Central Daylight Time),547614.599999994,A,cattle,I,e,388,2,1932.0999999940395,545682.5,8019,WL,C,12.0
4,37.68899989128113,learn,22311.000108718872,Tue Apr 22 2025 18:23:48 GMT-0500 (Central Daylight Time),548182.1999999881,A,cattleenter,I,enter,556,2,2499.699999988079,545682.5,8019,WL,C,12.0
4,39.33800005912781,learn,20661.999940872192,Tue Apr 22 2025 18:23:48 GMT-0500 (Central Daylight Time),549830.599999994,A,s,I,s,1628,2,1648.0999999940395,548182.5,8019,WL,C,13.0
4,39.38800001144409,learn,20611.99998855591,Tue Apr 22 2025 18:23:48 GMT-0500 (Central Daylight Time),549880.6999999881,A,sh,I,h,44,2,1698.199999988079,548182.5,8019,WL,C,13.0
4,40.32099986076355,learn,19679.00013923645,Tue Apr 22 2025 18:23:48 GMT-0500 (Central Daylight Time),550813.5,A,sho,I,o,922,2,2631.0,548182.5,8019,WL,C,13.0
4,40.8199999332428,learn,19180.000066757202,Tue Apr 22 2025 18:23:48 GMT-0500 (Central Daylight Time),551313.2999999821,A,shor,I,r,485,2,3130.7999999821186,548182.5,8019,WL,C,13.0
4,40.90400004386902,learn,19095.99995613098,Tue Apr 22 2025 18:23:48 GMT-0500 (Central Daylight Time),551396.8999999762,A,shore,I,e,73,2,3214.399999976158,548182.5,8019,WL,C,13.0
4,42.019999980926514,learn,17980.000019073486,Tue Apr 22 2025 18:23:48 GMT-0500 (Central Daylight Time),552512.8999999762,A,shoreenter,I,enter,1109,2,4330.399999976158,548182.5,8019,WL,C,13.0
4,44.90299987792969,learn,15097.000122070312,Tue Apr 22 2025 18:23:48 GMT-0500 (Central Daylight Time),555395.5,A,b,I,b,2866,2,2882.2000000178814,552513.2999999821,8019,WL,C,14.0
4,45.18599987030029,learn,14814.000129699707,Tue Apr 22 2025 18:23:48 GMT-0500 (Central Daylight Time),555678.599999994,A,bo,I,o,263,2,3165.300000011921,552513.2999999821,8019,WL,C,14.0
4,45.95199990272522,learn,14048.00009727478,Tue Apr 22 2025 18:23:48 GMT-0500 (Central Daylight Time),556445.0,A,bod,I,d,748,2,3931.7000000178814,552513.2999999821,8019,WL,C,14.0
4,46.085999965667725,learn,13914.000034332275,Tue Apr 22 2025 18:23:48 GMT-0500 (Central Daylight Time),556578.3999999762,A,body,I,y,126,2,4065.0999999940395,552513.2999999821,8019,WL,C,14.0
4,47.4689998626709,learn,12531.000137329102,Tue Apr 22 2025 18:23:48 GMT-0500 (Central Daylight Time),557961.2999999821,A,bodyenter,I,enter,1376,2,5448.0,552513.2999999821,8019,WL,C,14.0
4,60.014999866485596,learn,-14.999866485595703,Tue Apr 22 2025 18:23:48 GMT-0500 (Central Daylight Time),570507.3999999762,A,None,I,None,12541,2,12545.59999999404,557961.7999999821,8019,WL,C,15.0
5,1.4500000476837158,learn,60000.0,Tue Apr 22 2025 18:23:48 GMT-0500 (Central Daylight Time),640519.0,A,t,I,t,1430,2,1449.4000000059605,639069.599999994,8019,WL,C,1.0
5,1.6329998970031738,learn,60000.0,Tue Apr 22 2025 18:23:48 GMT-0500 (Central Daylight Time),640702.1999999881,A,to,I,o,163,2,1632.5999999940395,639069.599999994,8019,WL,C,1.0
5,1.8329999446868896,learn,60000.0,Tue Apr 22 2025 18:23:48 GMT-0500 (Central Daylight Time),640901.8999999762,A,tow,I,w,188,2,1832.2999999821186,639069.599999994,8019,WL,C,1.0
5,2.183000087738037,learn,60000.0,Tue Apr 22 2025 18:23:48 GMT-0500 (Central Daylight Time),641252.0,A,towe,I,e,341,2,2182.4000000059605,639069.599999994,8019,WL,C,1.0
5,2.2339999675750732,learn,60000.0,Tue Apr 22 2025 18:23:48 GMT-0500 (Central Daylight Time),641303.3999999762,A,tower,I,r,39,2,2233.7999999821186,639069.599999994,8019,WL,C,1.0
5,3.1989998817443848,learn,60000.0,Tue Apr 22 2025 18:23:48 GMT-0500 (Central Daylight Time),642268.2999999821,A,towerenter,I,enter,947,2,3198.699999988079,639069.599999994,8019,WL,C,1.0
5,4.915999889373779,learn,60000.0,Tue Apr 22 2025 18:23:48 GMT-0500 (Central Daylight Time),643984.6999999881,A,w,I,w,1702,2,1716.0999999940395,642268.599999994,8019,WL,C,2.0
5,5.065000057220459,learn,60000.0,Tue Apr 22 2025 18:23:48 GMT-0500 (Central Daylight Time),644134.2999999821,A,wh,I,h,130,2,1865.699999988079,642268.599999994,8019,WL,C,2.0
5,5.148999929428101,learn,60000.0,Tue Apr 22 2025 18:23:48 GMT-0500 (Central Daylight Time),644217.7999999821,A,whe,I,e,76,2,1949.199999988079,642268.599999994,8019,WL,C,2.0
5,5.264999866485596,learn,60000.0,Tue Apr 22 2025 18:23:48 GMT-0500 (Central Daylight Time),644334.099999994,A,whea,I,a,96,2,2065.5,642268.599999994,8019,WL,C,2.0
5,5.414999961853027,learn,60000.0,Tue Apr 22 2025 18:23:48 GMT-0500 (Central Daylight Time),644484.1999999881,A,wheat,I,t,132,2,2215.5999999940395,642268.599999994,8019,WL,C,2.0
5,5.631999969482422,learn,60000.0,Tue Apr 22 2025 18:23:48 GMT-0500 (Central Daylight Time),644700.7999999821,A,wheatenter,I,enter,206,2,2432.199999988079,642268.599999994,8019,WL,C,2.0
5,9.013999938964844,learn,60000.0,Tue Apr 22 2025 18:23:48 GMT-0500 (Central Daylight Time),648083.0,A,q,I,q,3366,2,3381.800000011921,644701.1999999881,8019,WL,C,3.0
5,9.147000074386597,learn,60000.0,Tue Apr 22 2025 18:23:48 GMT-0500 (Central Daylight Time),648216.3999999762,A,qu,I,u,127,2,3515.199999988079,644701.1999999881,8019,WL,C,3.0
5,9.530999898910522,learn,60000.0,Tue Apr 22 2025 18:23:48 GMT-0500 (Central Daylight Time),648599.599999994,A,que,I,e,370,2,3898.4000000059605,644701.1999999881,8019,WL,C,3.0
5,9.647000074386597,learn,60000.0,Tue Apr 22 2025 18:23:48 GMT-0500 (Central Daylight Time),648716.2999999821,A,quee,I,e,99,2,4015.0999999940395,644701.1999999881,8019,WL,C,3.0
5,9.730000019073486,learn,60000.0,Tue Apr 22 2025 18:23:48 GMT-0500 (Central Daylight Time),648799.2999999821,A,queen,I,n,78,2,4098.0999999940395,644701.1999999881,8019,WL,C,3.0
5,10.364000082015991,learn,60000.0,Tue Apr 22 2025 18:23:48 GMT-0500 (Central Daylight Time),649432.5,A,queenenter,I,enter,627,2,4731.300000011921,644701.1999999881,8019,WL,C,3.0
5,11.312999963760376,learn,60000.0,Tue Apr 22 2025 18:23:48 GMT-0500 (Central Daylight Time),650382.0,A,s,I,s,938,2,949.2000000178814,649432.7999999821,8019,WL,C,4.0
5,11.44599986076355,learn,60000.0,Tue Apr 22 2025 18:23:48 GMT-0500 (Central Daylight Time),650515.2999999821,A,su,I,u,123,2,1082.5,649432.7999999821,8019,WL,C,4.0
5,11.730000019073486,learn,60000.0,Tue Apr 22 2025 18:23:48 GMT-0500 (Central Daylight Time),650798.7999999821,A,sug,I,g,278,2,1366.0,649432.7999999821,8019,WL,C,4.0
5,11.812999963760376,learn,60000.0,Tue Apr 22 2025 18:23:48 GMT-0500 (Central Daylight Time),650881.8999999762,A,suga,I,a,75,2,1449.0999999940395,649432.7999999821,8019,WL,C,4.0
5,12.095999956130981,learn,60000.0,Tue Apr 22 2025 18:23:48 GMT-0500 (Central Daylight Time),651165.099999994,A,sugar,I,r,264,2,1732.300000011921,649432.7999999821,8019,WL,C,4.0
5,12.397000074386597,learn,60000.0,Tue Apr 22 2025 18:23:48 GMT-0500 (Central Daylight Time),651465.6999999881,A,sugarenter,I,enter,285,2,2032.9000000059605,649432.7999999821,8019,WL,C,4.0
5,13.978999853134155,learn,60000.0,Tue Apr 22 2025 18:23:48 GMT-0500 (Central Daylight Time),653048.099999994,A,h,I,h,1577,2,1582.0999999940395,651466.0,8019,WL,C,5.0
5,14.529000043869019,learn,60000.0,Tue Apr 22 2025 18:23:48 GMT-0500 (Central Daylight Time),653598.2999999821,A,ho,I,o,530,2,2132.2999999821186,651466.0,8019,WL,C,5.0
5,15.046000003814697,learn,60000.0,Tue Apr 22 2025 18:23:48 GMT-0500 (Central Daylight Time),654114.5,A,hom,I,m,500,2,2648.5,651466.0,8019,WL,C,5.0
5,15.296000003814697,learn,60000.0,Tue Apr 22 2025 18:23:48 GMT-0500 (Central Daylight Time),654364.5,A,home,I,e,240,2,2898.5,651466.0,8019,WL,C,5.0
5,15.744999885559082,learn,60000.0,Tue Apr 22 2025 18:23:48 GMT-0500 (Central Daylight Time),654814.3999999762,A,homeenter,I,enter,430,2,3348.399999976158,651466.0,8019,WL,C,5.0
5,16.661999940872192,learn,60000.0,Tue Apr 22 2025 18:23:48 GMT-0500 (Central Daylight Time),655731.0,A,b,I,b,900,2,916.3000000119209,654814.6999999881,8019,WL,C,6.0
5,17.17799997329712,learn,60000.0,Tue Apr 22 2025 18:23:48 GMT-0500 (Central Daylight Time),656247.1999999881,A,bo,I,o,495,2,1432.5,654814.6999999881,8019,WL,C,6.0
5,17.460999965667725,learn,60000.0,Tue Apr 22 2025 18:23:48 GMT-0500 (Central Daylight Time),656530.3999999762,A,boy,I,y,267,2,1715.699999988079,654814.6999999881,8019,WL,C,6.0
5,18.144999980926514,learn,60000.0,Tue Apr 22 2025 18:23:48 GMT-0500 (Central Daylight Time),657213.7999999821,A,boyenter,I,enter,672,2,2399.0999999940395,654814.6999999881,8019,WL,C,6.0
5,19.043999910354614,learn,60000.0,Tue Apr 22 2025 18:23:48 GMT-0500 (Central Daylight Time),658113.2999999821,A,d,I,d,885,2,899.0999999940395,657214.1999999881,8019,WL,C,7.0
5,19.194000005722046,learn,60000.0,Tue Apr 22 2025 18:23:48 GMT-0500 (Central Daylight Time),658263.099999994,A,do,I,o,145,2,1048.9000000059605,657214.1999999881,8019,WL,C,7.0
5,19.376999855041504,learn,60000.0,Tue Apr 22 2025 18:23:48 GMT-0500 (Central Daylight Time),658446.599999994,A,doc,I,c,163,2,1232.4000000059605,657214.1999999881,8019,WL,C,7.0
5,19.710999965667725,learn,60000.0,Tue Apr 22 2025 18:23:48 GMT-0500 (Central Daylight Time),658779.7999999821,A,doct,I,t,315,2,1565.5999999940395,657214.1999999881,8019,WL,C,7.0
5,19.82800006866455,learn,60000.0,Tue Apr 22 2025 18:23:48 GMT-0500 (Central Daylight Time),658897.2999999821,A,docto,I,o,110,2,1683.0999999940395,657214.1999999881,8019,WL,C,7.0
5,19.961999893188477,learn,60000.0,Tue Apr 22 2025 18:23:48 GMT-0500 (Central Daylight Time),659031.099999994,A,doctor,I,r,129,2,1816.9000000059605,657214.1999999881,8019,WL,C,7.0
5,20.710999965667725,learn,60000.0,Tue Apr 22 2025 18:23:48 GMT-0500 (Central Daylight Time),659779.6999999881,A,doctorenter,I,enter,731,2,2565.5,657214.1999999881,8019,WL,C,7.0
5,22.825999975204468,learn,60000.0,Tue Apr 22 2025 18:23:48 GMT-0500 (Central Daylight Time),661895.5,A,c,I,c,2111,2,2115.5,659780.0,8019,WL,C,8.0
5,22.943000078201294,learn,60000.0,Tue Apr 22 2025 18:23:48 GMT-0500 (Central Daylight Time),662012.099999994,A,ca,I,a,107,2,2232.0999999940395,659780.0,8019,WL,C,8.0
5,23.14299988746643,learn,60000.0,Tue Apr 22 2025 18:23:48 GMT-0500 (Central Daylight Time),662211.8999999762,A,cam,I,m,183,2,2431.899999976158,659780.0,8019,WL,C,8.0
5,23.875999927520752,learn,60000.0,Tue Apr 22 2025 18:23:48 GMT-0500 (Central Daylight Time),662945.1999999881,A,camp,I,p,719,2,3165.199999988079,659780.0,8019,WL,C,8.0
5,24.693000078201294,learn,60000.0,Tue Apr 22 2025 18:23:48 GMT-0500 (Central Daylight Time),663761.599999994,A,campenter,I,enter,802,2,3981.5999999940395,659780.0,8019,WL,C,8.0
5,28.375,learn,60000.0,Tue Apr 22 2025 18:23:48 GMT-0500 (Central Daylight Time),667443.6999999881,A,f,I,f,3665,2,3681.699999988079,663762.0,8019,WL,C,9.0
5,28.54099988937378,learn,60000.0,Tue Apr 22 2025 18:23:48 GMT-0500 (Central Daylight Time),667610.3999999762,A,fl,I,l,159,2,3848.399999976158,663762.0,8019,WL,C,9.0
5,28.70799994468689,learn,60000.0,Tue Apr 22 2025 18:23:48 GMT-0500 (Central Daylight Time),667776.7999999821,A,fla,I,a,152,2,4014.7999999821186,663762.0,8019,WL,C,9.0
5,29.45799994468689,learn,60000.0,Tue Apr 22 2025 18:23:48 GMT-0500 (Central Daylight Time),668526.8999999762,A,flag,I,g,738,2,4764.899999976158,663762.0,8019,WL,C,9.0
5,30.29099988937378,learn,60000.0,Tue Apr 22 2025 18:23:48 GMT-0500 (Central Daylight Time),669359.8999999762,A,flagenter,I,enter,820,2,5597.899999976158,663762.0,8019,WL,C,9.0
5,31.556999921798706,learn,60000.0,Tue Apr 22 2025 18:23:48 GMT-0500 (Central Daylight Time),670626.0,A,l,I,l,1251,2,1265.800000011921,669360.1999999881,8019,WL,C,10.0
5,31.674000024795532,learn,60000.0,Tue Apr 22 2025 18:23:48 GMT-0500 (Central Daylight Time),670742.7999999821,A,le,I,e,104,2,1382.5999999940395,669360.1999999881,8019,WL,C,10.0
5,31.973000049591064,learn,60000.0,Tue Apr 22 2025 18:23:48 GMT-0500 (Central Daylight Time),671042.5,A,let,I,t,284,2,1682.300000011921,669360.1999999881,8019,WL,C,10.0
5,32.10699987411499,learn,60000.0,Tue Apr 22 2025 18:23:48 GMT-0500 (Central Daylight Time),671175.599999994,A,lett,I,t,128,2,1815.4000000059605,669360.1999999881,8019,WL,C,10.0
5,32.32299995422363,learn,60000.0,Tue Apr 22 2025 18:23:48 GMT-0500 (Central Daylight Time),671392.5,A,lette,I,e,203,2,2032.300000011921,669360.1999999881,8019,WL,C,10.0
5,32.4229998588562,learn,60000.0,Tue Apr 22 2025 18:23:48 GMT-0500 (Central Daylight Time),671492.3999999762,A,letter,I,r,82,2,2132.199999988079,669360.1999999881,8019,WL,C,10.0
5,32.889999866485596,learn,60000.0,Tue Apr 22 2025 18:23:48 GMT-0500 (Central Daylight Time),671959.0,A,letterenter,I,enter,454,2,2598.800000011921,669360.1999999881,8019,WL,C,10.0
5,34.10599994659424,learn,60000.0,Tue Apr 22 2025 18:23:48 GMT-0500 (Central Daylight Time),673175.3999999762,A,c,I,c,1203,2,1216.0999999940395,671959.2999999821,8019,WL,C,11.0
5,34.24000000953674,learn,60000.0,Tue Apr 22 2025 18:23:48 GMT-0500 (Central Daylight Time),673308.6999999881,A,co,I,o,123,2,1349.4000000059605,671959.2999999821,8019,WL,C,11.0
5,34.4229998588562,learn,60000.0,Tue Apr 22 2025 18:23:48 GMT-0500 (Central Daylight Time),673492.099999994,A,cor,I,r,174,2,1532.800000011921,671959.2999999821,8019,WL,C,11.0
5,34.62299990653992,learn,60000.0,Tue Apr 22 2025 18:23:48 GMT-0500 (Central Daylight Time),673691.8999999762,A,corn,I,n,191,2,1732.5999999940395,671959.2999999821,8019,WL,C,11.0
5,35.25600004196167,learn,60000.0,Tue Apr 22 2025 18:23:48 GMT-0500 (Central Daylight Time),674325.099999994,A,cornenter,I,enter,615,2,2365.800000011921,671959.2999999821,8019,WL,C,11.0
5,36.00600004196167,learn,60000.0,Tue Apr 22 2025 18:23:48 GMT-0500 (Central Daylight Time),675074.8999999762,A,n,I,n,741,2,749.3999999761581,674325.5,8019,WL,C,12.0
5,36.17199993133545,learn,60000.0,Tue Apr 22 2025 18:23:48 GMT-0500 (Central Daylight Time),675241.099999994,A,na,I,a,152,2,915.5999999940395,674325.5,8019,WL,C,12.0
5,36.371999979019165,learn,60000.0,Tue Apr 22 2025 18:23:48 GMT-0500 (Central Daylight Time),675441.3999999762,A,nai,I,i,193,2,1115.8999999761581,674325.5,8019,WL,C,12.0
5,36.888999938964844,learn,60000.0,Tue Apr 22 2025 18:23:48 GMT-0500 (Central Daylight Time),675957.6999999881,A,nail,I,l,497,2,1632.199999988079,674325.5,8019,WL,C,12.0
5,37.63800001144409,learn,60000.0,Tue Apr 22 2025 18:23:48 GMT-0500 (Central Daylight Time),676707.3999999762,A,nailenter,I,enter,741,2,2381.899999976158,674325.5,8019,WL,C,12.0
5,38.42199993133545,learn,60000.0,Tue Apr 22 2025 18:23:48 GMT-0500 (Central Daylight Time),677490.599999994,A,c,I,c,775,2,782.8000000119209,676707.7999999821,8019,WL,C,13.0
5,38.537999868392944,learn,60000.0,Tue Apr 22 2025 18:23:48 GMT-0500 (Central Daylight Time),677607.2999999821,A,ca,I,a,96,2,899.5,676707.7999999821,8019,WL,C,13.0
5,39.037999868392944,learn,60000.0,Tue Apr 22 2025 18:23:48 GMT-0500 (Central Daylight Time),678107.0,A,cat,I,t,491,2,1399.2000000178814,676707.7999999821,8019,WL,C,13.0
5,39.204999923706055,learn,60000.0,Tue Apr 22 2025 18:23:48 GMT-0500 (Central Daylight Time),678273.6999999881,A,catt,I,t,151,2,1565.9000000059605,676707.7999999821,8019,WL,C,13.0
5,39.33800005912781,learn,60000.0,Tue Apr 22 2025 18:23:48 GMT-0500 (Central Daylight Time),678407.1999999881,A,cattl,I,l,129,2,1699.4000000059605,676707.7999999821,8019,WL,C,13.0
5,39.605000019073486,learn,60000.0,Tue Apr 22 2025 18:23:48 GMT-0500 (Central Daylight Time),678673.599999994,A,cattle,I,e,259,2,1965.800000011921,676707.7999999821,8019,WL,C,13.0
5,40.63700008392334,learn,60000.0,Tue Apr 22 2025 18:23:48 GMT-0500 (Central Daylight Time),679706.5,A,cattleenter,I,enter,1017,2,2998.7000000178814,676707.7999999821,8019,WL,C,13.0
5,42.30399990081787,learn,60000.0,Tue Apr 22 2025 18:23:48 GMT-0500 (Central Daylight Time),681372.7999999821,A,s,I,s,1648,2,1665.699999988079,679707.099999994,8019,WL,C,14.0
5,42.38800001144409,learn,60000.0,Tue Apr 22 2025 18:23:48 GMT-0500 (Central Daylight Time),681457.099999994,A,sh,I,h,78,2,1750.0,679707.099999994,8019,WL,C,14.0
5,42.97000002861023,learn,60000.0,Tue Apr 22 2025 18:23:48 GMT-0500 (Central Daylight Time),682039.5,A,sho,I,o,561,2,2332.4000000059605,679707.099999994,8019,WL,C,14.0
5,43.08699989318848,learn,60000.0,Tue Apr 22 2025 18:23:48 GMT-0500 (Central Daylight Time),682155.8999999762,A,shor,I,r,107,2,2448.7999999821186,679707.099999994,8019,WL,C,14.0
5,43.1710000038147,learn,60000.0,Tue Apr 22 2025 18:23:48 GMT-0500 (Central Daylight Time),682240.2999999821,A,shore,I,e,63,2,2533.199999988079,679707.099999994,8019,WL,C,14.0
5,43.967000007629395,learn,60000.0,Tue Apr 22 2025 18:23:48 GMT-0500 (Central Daylight Time),683035.7999999821,A,shoreenter,I,enter,771,2,3328.699999988079,679707.099999994,8019,WL,C,14.0
5,45.835999965667725,learn,60000.0,Tue Apr 22 2025 18:23:48 GMT-0500 (Central Daylight Time),684905.0,A,b,I,b,1862,2,1868.9000000059605,683036.099999994,8019,WL,C,15.0
5,46.001999855041504,learn,60000.0,Tue Apr 22 2025 18:23:48 GMT-0500 (Central Daylight Time),685071.2999999821,A,bo,I,o,161,2,2035.199999988079,683036.099999994,8019,WL,C,15.0
5,46.76900005340576,learn,60000.0,Tue Apr 22 2025 18:23:48 GMT-0500 (Central Daylight Time),685837.8999999762,A,bod,I,d,747,2,2801.7999999821186,683036.099999994,8019,WL,C,15.0
5,46.88599991798401,learn,60000.0,Tue Apr 22 2025 18:23:48 GMT-0500 (Central Daylight Time),685954.6999999881,A,body,I,y,108,2,2918.5999999940395,683036.099999994,8019,WL,C,15.0
5,47.63499999046326,learn,60000.0,Tue Apr 22 2025 18:23:48 GMT-0500 (Central Daylight Time),686704.3999999762,A,bodyenter,I,enter,735,2,3668.2999999821186,683036.099999994,8019,WL,C,15.0
6,1.8499999046325684,distr,58150.00009536743,Tue Apr 22 2025 18:23:48 GMT-0500 (Central Daylight Time),757982.3999999762,B,h,I,h,1830,2,1849.3999999761581,756133.0,8019,WL,C,1.0
6,2.3329999446868896,distr,57667.00005531311,Tue Apr 22 2025 18:23:48 GMT-0500 (Central Daylight Time),758465.5,B,ho,I,o,468,2,2332.5,756133.0,8019,WL,C,1.0
6,2.450000047683716,distr,57549.999952316284,Tue Apr 22 2025 18:23:48 GMT-0500 (Central Daylight Time),758582.0,B,hot,I,t,105,2,2449.0,756133.0,8019,WL,C,1.0
6,2.9159998893737793,distr,57084.00011062622,Tue Apr 22 2025 18:23:48 GMT-0500 (Central Daylight Time),759048.3999999762,B,hote,I,e,460,2,2915.399999976158,756133.0,8019,WL,C,1.0
6,3.0329999923706055,distr,56967.000007629395,Tue Apr 22 2025 18:23:48 GMT-0500 (Central Daylight Time),759165.0,B,hotel,I,l,98,2,3032.0,756133.0,8019,WL,C,1.0
6,4.582000017166138,distr,55417.99998283386,Tue Apr 22 2025 18:23:48 GMT-0500 (Central Daylight Time),760714.599999994,B,hotelenter,I,enter,1533,2,4581.5999999940395,756133.0,8019,WL,C,1.0
6,5.449000120162964,distr,54550.999879837036,Tue Apr 22 2025 18:23:48 GMT-0500 (Central Daylight Time),761580.8999999762,B,p,I,p,848,2,866.0,760714.8999999762,8019,WL,C,2.0
6,5.648999929428101,distr,54351.0000705719,Tue Apr 22 2025 18:23:48 GMT-0500 (Central Daylight Time),761780.8999999762,B,pl,I,l,182,2,1066.0,760714.8999999762,8019,WL,C,2.0
6,5.765000104904175,distr,54234.999895095825,Tue Apr 22 2025 18:23:48 GMT-0500 (Central Daylight Time),761897.2999999821,B,pla,I,a,109,2,1182.4000000059605,760714.8999999762,8019,WL,C,2.0
6,5.914999961853027,distr,54085.00003814697,Tue Apr 22 2025 18:23:48 GMT-0500 (Central Daylight Time),762047.2999999821,B,plan,I,n,145,2,1332.4000000059605,760714.8999999762,8019,WL,C,2.0
6,6.365000009536743,distr,53634.99999046326,Tue Apr 22 2025 18:23:48 GMT-0500 (Central Daylight Time),762497.2999999821,B,plant,I,t,443,2,1782.4000000059605,760714.8999999762,8019,WL,C,2.0
6,6.582000017166138,distr,53417.99998283386,Tue Apr 22 2025 18:23:48 GMT-0500 (Central Daylight Time),762714.099999994,B,plantenter,I,enter,201,2,1999.2000000178814,760714.8999999762,8019,WL,C,2.0
6,7.398000001907349,distr,52601.99999809265,Tue Apr 22 2025 18:23:48 GMT-0500 (Central Daylight Time),763530.5,B,n,I,n,808,2,816.1000000238419,762714.3999999762,8019,WL,C,3.0
6,8.598000049591064,distr,51401.999950408936,Tue Apr 22 2025 18:23:48 GMT-0500 (Central Daylight Time),764730.0,B,nm,I,m,1192,2,2015.6000000238419,762714.3999999762,8019,WL,C,3.0
6,8.71399998664856,distr,51286.00001335144,Tue Apr 22 2025 18:23:48 GMT-0500 (Central Daylight Time),764846.6999999881,B,nmo,I,o,97,2,2132.300000011921,762714.3999999762,8019,WL,C,3.0
6,8.88100004196167,distr,51118.99995803833,Tue Apr 22 2025 18:23:48 GMT-0500 (Central Daylight Time),765013.3999999762,B,nmon,I,n,148,2,2299.0,762714.3999999762,8019,WL,C,3.0
6,10.230999946594238,distr,49769.00005340576,Tue Apr 22 2025 18:23:48 GMT-0500 (Central Daylight Time),766362.7999999821,B,nmo,I,backspace,1341,2,3648.4000000059605,762714.3999999762,8019,WL,C,3.0
6,10.414000034332275,distr,49585.999965667725,Tue Apr 22 2025 18:23:48 GMT-0500 (Central Daylight Time),766546.0,B,nm,I,backspace,176,2,3831.600000023842,762714.3999999762,8019,WL,C,3.0
6,10.597000122070312,distr,49402.99987792969,Tue Apr 22 2025 18:23:48 GMT-0500 (Central Daylight Time),766729.5,B,n,I,backspace,168,2,4015.100000023842,762714.3999999762,8019,WL,C,3.0
6,10.746999979019165,distr,49253.000020980835,Tue Apr 22 2025 18:23:48 GMT-0500 (Central Daylight Time),766879.2999999821,B,,I,backspace,129,2,4164.9000000059605,762714.3999999762,8019,WL,C,3.0
6,11.414000034332275,distr,48585.999965667725,Tue Apr 22 2025 18:23:48 GMT-0500 (Central Daylight Time),767545.7999999821,B,n,I,n,652,2,4831.4000000059605,762714.3999999762,8019,WL,C,3.0
6,11.61299991607666,distr,48387.00008392334,Tue Apr 22 2025 18:23:48 GMT-0500 (Central Daylight Time),767745.599999994,B,no,I,o,193,2,5031.200000017881,762714.3999999762,8019,WL,C,3.0
6,13.27999997138977,distr,46720.00002861023,Tue Apr 22 2025 18:23:48 GMT-0500 (Central Daylight Time),769411.8999999762,B,n,I,backspace,1657,2,6697.5,762714.3999999762,8019,WL,C,3.0
6,13.546000003814697,distr,46453.9999961853,Tue Apr 22 2025 18:23:48 GMT-0500 (Central Daylight Time),769678.3999999762,B,,I,backspace,246,2,6964.0,762714.3999999762,8019,WL,C,3.0
6,14.145999908447266,distr,45854.000091552734,Tue Apr 22 2025 18:23:48 GMT-0500 (Central Daylight Time),770277.8999999762,B,m,I,m,580,2,7563.5,762714.3999999762,8019,WL,C,3.0
6,14.495000123977661,distr,45504.99987602234,Tue Apr 22 2025 18:23:48 GMT-0500 (Central Daylight Time),770627.6999999881,B,mo,I,o,333,2,7913.300000011921,762714.3999999762,8019,WL,C,3.0
6,14.611999988555908,distr,45388.00001144409,Tue Apr 22 2025 18:23:48 GMT-0500 (Central Daylight Time),770744.599999994,B,mon,I,n,103,2,8030.200000017881,762714.3999999762,8019,WL,C,3.0
6,14.944999933242798,distr,45055.0000667572,Tue Apr 22 2025 18:23:48 GMT-0500 (Central Daylight Time),771077.599999994,B,mone,I,e,321,2,8363.200000017881,762714.3999999762,8019,WL,C,3.0
6,15.029000043869019,distr,44970.99995613098,Tue Apr 22 2025 18:23:48 GMT-0500 (Central Daylight Time),771160.7999999821,B,money,I,y,68,2,8446.40000000596,762714.3999999762,8019,WL,C,3.0
6,15.729000091552734,distr,44270.999908447266,Tue Apr 22 2025 18:23:48 GMT-0500 (Central Daylight Time),771861.1999999881,B,moneyenter,I,enter,690,2,9146.800000011921,762714.3999999762,8019,WL,C,3.0
6,16.74500012397766,distr,43254.99987602234,Tue Apr 22 2025 18:23:48 GMT-0500 (Central Daylight Time),772877.2999999821,B,m,I,m,997,2,1015.6999999880791,771861.599999994,8019,WL,C,4.0
6,16.99500012397766,distr,43004.99987602234,Tue Apr 22 2025 18:23:48 GMT-0500 (Central Daylight Time),773127.2999999821,B,mo,I,o,245,2,1265.699999988079,771861.599999994,8019,WL,C,4.0
6,17.24500012397766,distr,42754.99987602234,Tue Apr 22 2025 18:23:48 GMT-0500 (Central Daylight Time),773377.099999994,B,mot,I,t,235,2,1515.5,771861.599999994,8019,WL,C,4.0
6,17.36299991607666,distr,42637.00008392334,Tue Apr 22 2025 18:23:48 GMT-0500 (Central Daylight Time),773495.2999999821,B,moth,I,h,114,2,1633.699999988079,771861.599999994,8019,WL,C,4.0
6,17.477999925613403,distr,42522.0000743866,Tue Apr 22 2025 18:23:48 GMT-0500 (Central Daylight Time),773610.5,B,mothe,I,e,99,2,1748.9000000059605,771861.599999994,8019,WL,C,4.0
6,17.528000116348267,distr,42471.99988365173,Tue Apr 22 2025 18:23:48 GMT-0500 (Central Daylight Time),773660.2999999821,B,mother,I,r,40,2,1798.699999988079,771861.599999994,8019,WL,C,4.0
6,17.878000020980835,distr,42121.999979019165,Tue Apr 22 2025 18:23:48 GMT-0500 (Central Daylight Time),774010.3999999762,B,motherenter,I,enter,342,2,2148.7999999821186,771861.599999994,8019,WL,C,4.0
6,18.51099991798401,distr,41489.00008201599,Tue Apr 22 2025 18:23:48 GMT-0500 (Central Daylight Time),774643.5,B,d,I,d,624,2,632.8000000119209,774010.6999999881,8019,WL,C,5.0
6,18.59500002861023,distr,41404.99997138977,Tue Apr 22 2025 18:23:48 GMT-0500 (Central Daylight Time),774727.0,B,di,I,i,63,2,716.3000000119209,774010.6999999881,8019,WL,C,5.0
6,18.74500012397766,distr,41254.99987602234,Tue Apr 22 2025 18:23:48 GMT-0500 (Central Daylight Time),774876.8999999762,B,dia,I,a,132,2,866.1999999880791,774010.6999999881,8019,WL,C,5.0
6,18.878000020980835,distr,41121.999979019165,Tue Apr 22 2025 18:23:48 GMT-0500 (Central Daylight Time),775009.8999999762,B,diam,I,m,118,2,999.1999999880791,774010.6999999881,8019,WL,C,5.0
6,19.64400005340576,distr,40355.99994659424,Tue Apr 22 2025 18:23:48 GMT-0500 (Central Daylight Time),775776.5,B,diamo,I,o,761,2,1765.800000011921,774010.6999999881,8019,WL,C,5.0
6,19.727999925613403,distr,40272.0000743866,Tue Apr 22 2025 18:23:48 GMT-0500 (Central Daylight Time),775860.099999994,B,diamon,I,n,66,2,1849.4000000059605,774010.6999999881,8019,WL,C,5.0
6,20.344000101089478,distr,39655.99989891052,Tue Apr 22 2025 18:23:48 GMT-0500 (Central Daylight Time),776476.2999999821,B,diamond,I,d,606,2,2465.5999999940395,774010.6999999881,8019,WL,C,5.0
6,20.627000093460083,distr,39372.99990653992,Tue Apr 22 2025 18:23:48 GMT-0500 (Central Daylight Time),776759.5,B,diamondenter,I,enter,262,2,2748.800000011921,774010.6999999881,8019,WL,C,5.0
6,21.609999895095825,distr,38390.000104904175,Tue Apr 22 2025 18:23:48 GMT-0500 (Central Daylight Time),777742.5,B,h,I,h,971,2,982.7000000178814,776759.7999999821,8019,WL,C,6.0
6,21.759999990463257,distr,38240.00000953674,Tue Apr 22 2025 18:23:48 GMT-0500 (Central Daylight Time),777892.599999994,B,ha,I,a,140,2,1132.800000011921,776759.7999999821,8019,WL,C,6.0
6,22.14400005340576,distr,37855.99994659424,Tue Apr 22 2025 18:23:48 GMT-0500 (Central Daylight Time),778275.7999999821,B,hal,I,l,374,2,1516.0,776759.7999999821,8019,WL,C,6.0
6,22.276999950408936,distr,37723.000049591064,Tue Apr 22 2025 18:23:48 GMT-0500 (Central Daylight Time),778409.0,B,hall,I,l,127,2,1649.2000000178814,776759.7999999821,8019,WL,C,6.0
6,22.493000030517578,distr,37506.99996948242,Tue Apr 22 2025 18:23:48 GMT-0500 (Central Daylight Time),778625.599999994,B,hallenter,I,enter,209,2,1865.800000011921,776759.7999999821,8019,WL,C,6.0
6,23.092999935150146,distr,36907.00006484985,Tue Apr 22 2025 18:23:48 GMT-0500 (Central Daylight Time),779225.2999999821,B,b,I,b,585,2,599.4000000059605,778625.8999999762,8019,WL,C,7.0
6,23.293999910354614,distr,36706.000089645386,Tue Apr 22 2025 18:23:48 GMT-0500 (Central Daylight Time),779426.3999999762,B,bu,I,u,185,2,800.5,778625.8999999762,8019,WL,C,7.0
6,23.55999994277954,distr,36440.00005722046,Tue Apr 22 2025 18:23:48 GMT-0500 (Central Daylight Time),779691.8999999762,B,but,I,t,248,2,1066.0,778625.8999999762,8019,WL,C,7.0
6,23.7260000705719,distr,36273.9999294281,Tue Apr 22 2025 18:23:48 GMT-0500 (Central Daylight Time),779858.5,B,butt,I,t,151,2,1232.6000000238419,778625.8999999762,8019,WL,C,7.0
6,23.89299988746643,distr,36107.00011253357,Tue Apr 22 2025 18:23:48 GMT-0500 (Central Daylight Time),780025.1999999881,B,butte,I,e,152,2,1399.300000011921,778625.8999999762,8019,WL,C,7.0
6,23.960000038146973,distr,36039.99996185303,Tue Apr 22 2025 18:23:48 GMT-0500 (Central Daylight Time),780092.0,B,butter,I,r,57,2,1466.1000000238419,778625.8999999762,8019,WL,C,7.0
6,24.743000030517578,distr,35256.99996948242,Tue Apr 22 2025 18:23:48 GMT-0500 (Central Daylight Time),780874.8999999762,B,butterenter,I,enter,766,2,2249.0,778625.8999999762,8019,WL,C,7.0
6,25.276000022888184,distr,34723.99997711182,Tue Apr 22 2025 18:23:48 GMT-0500 (Central Daylight Time),781407.8999999762,B,c,I,c,527,2,532.5999999940395,780875.2999999821,8019,WL,C,8.0
6,25.375999927520752,distr,34624.00007247925,Tue Apr 22 2025 18:23:48 GMT-0500 (Central Daylight Time),781508.1999999881,B,ch,I,h,91,2,632.9000000059605,780875.2999999821,8019,WL,C,8.0
6,25.592000007629395,distr,34407.999992370605,Tue Apr 22 2025 18:23:48 GMT-0500 (Central Daylight Time),781724.599999994,B,chr,I,r,198,2,849.3000000119209,780875.2999999821,8019,WL,C,8.0
6,25.759000062942505,distr,34240.999937057495,Tue Apr 22 2025 18:23:48 GMT-0500 (Central Daylight Time),781891.099999994,B,chri,I,i,150,2,1015.8000000119209,780875.2999999821,8019,WL,C,8.0
6,25.908999919891357,distr,34091.00008010864,Tue Apr 22 2025 18:23:48 GMT-0500 (Central Daylight Time),782041.2999999821,B,chris,I,s,143,2,1166.0,780875.2999999821,8019,WL,C,8.0
6,27.092000007629395,distr,32907.999992370605,Tue Apr 22 2025 18:23:48 GMT-0500 (Central Daylight Time),783223.8999999762,B,chrism,I,m,1177,2,2348.5999999940395,780875.2999999821,8019,WL,C,8.0
6,27.27500009536743,distr,32724.99990463257,Tue Apr 22 2025 18:23:48 GMT-0500 (Central Daylight Time),783407.2999999821,B,chrisma,I,a,163,2,2532.0,780875.2999999821,8019,WL,C,8.0
6,27.808000087738037,distr,32191.999912261963,Tue Apr 22 2025 18:23:48 GMT-0500 (Central Daylight Time),783940.5,B,chrism,I,backspace,515,2,3065.2000000178814,780875.2999999821,8019,WL,C,8.0
6,27.924999952316284,distr,32075.000047683716,Tue Apr 22 2025 18:23:48 GMT-0500 (Central Daylight Time),784057.3999999762,B,chris,I,backspace,102,2,3182.0999999940395,780875.2999999821,8019,WL,C,8.0
6,28.075000047683716,distr,31924.999952316284,Tue Apr 22 2025 18:23:48 GMT-0500 (Central Daylight Time),784207.2999999821,B,christ,I,t,145,2,3332.0,780875.2999999821,8019,WL,C,8.0
6,28.657999992370605,distr,31342.000007629395,Tue Apr 22 2025 18:23:48 GMT-0500 (Central Daylight Time),784790.1999999881,B,christm,I,m,563,2,3914.9000000059605,780875.2999999821,8019,WL,C,8.0
6,28.77500009536743,distr,31224.99990463257,Tue Apr 22 2025 18:23:48 GMT-0500 (Central Daylight Time),784907.0,B,christma,I,a,108,2,4031.7000000178814,780875.2999999821,8019,WL,C,8.0
6,29.54099988937378,distr,30459.00011062622,Tue Apr 22 2025 18:23:48 GMT-0500 (Central Daylight Time),785673.1999999881,B,christmas,I,s,751,2,4797.9000000059605,780875.2999999821,8019,WL,C,8.0
6,29.79099988937378,distr,30209.00011062622,Tue Apr 22 2025 18:23:48 GMT-0500 (Central Daylight Time),785923.1999999881,B,christmasenter,I,enter,233,2,5047.9000000059605,780875.2999999821,8019,WL,C,8.0
6,30.641000032424927,distr,29358.999967575073,Tue Apr 22 2025 18:23:48 GMT-0500 (Central Daylight Time),786772.8999999762,B,m,I,m,839,2,849.5,785923.3999999762,8019,WL,C,9.0
6,30.789999961853027,distr,29210.000038146973,Tue Apr 22 2025 18:23:48 GMT-0500 (Central Daylight Time),786922.8999999762,B,me,I,e,141,2,999.5,785923.3999999762,8019,WL,C,9.0
6,30.990999937057495,distr,29009.000062942505,Tue Apr 22 2025 18:23:48 GMT-0500 (Central Daylight Time),787123.0,B,mea,I,a,184,2,1199.6000000238419,785923.3999999762,8019,WL,C,9.0
6,31.223000049591064,distr,28776.999950408936,Tue Apr 22 2025 18:23:48 GMT-0500 (Central Daylight Time),787355.7999999821,B,meat,I,t,215,2,1432.4000000059605,785923.3999999762,8019,WL,C,9.0
6,31.973000049591064,distr,28026.999950408936,Tue Apr 22 2025 18:23:48 GMT-0500 (Central Daylight Time),788105.7999999821,B,meatenter,I,enter,743,2,2182.4000000059605,785923.3999999762,8019,WL,C,9.0
6,33.12299990653992,distr,26877.000093460083,Tue Apr 22 2025 18:23:48 GMT-0500 (Central Daylight Time),789255.3999999762,B,p,I,p,1144,2,1149.2999999821186,788106.099999994,8019,WL,C,10.0
6,33.33999991416931,distr,26660.00008583069,Tue Apr 22 2025 18:23:48 GMT-0500 (Central Daylight Time),789472.0,B,pl,I,l,211,2,1365.9000000059605,788106.099999994,8019,WL,C,10.0
6,33.50699996948242,distr,26493.000030517578,Tue Apr 22 2025 18:23:48 GMT-0500 (Central Daylight Time),789638.8999999762,B,pla,I,a,154,2,1532.7999999821186,788106.099999994,8019,WL,C,10.0
6,33.956000089645386,distr,26043.999910354614,Tue Apr 22 2025 18:23:48 GMT-0500 (Central Daylight Time),790088.8999999762,B,plan,I,n,444,2,1982.7999999821186,788106.099999994,8019,WL,C,10.0
6,34.33899998664856,distr,25661.00001335144,Tue Apr 22 2025 18:23:48 GMT-0500 (Central Daylight Time),790471.7999999821,B,plant,I,t,378,2,2365.699999988079,788106.099999994,8019,WL,C,10.0
6,35.37299990653992,distr,24627.000093460083,Tue Apr 22 2025 18:23:48 GMT-0500 (Central Daylight Time),791505.0,B,plantenter,I,enter,1027,2,3398.9000000059605,788106.099999994,8019,WL,C,10.0
6,39.48799991607666,distr,20512.00008392334,Tue Apr 22 2025 18:23:48 GMT-0500 (Central Daylight Time),795620.5,B,enter,I,enter,4097,2,4115.100000023842,791505.3999999762,8019,WL,C,11.0
6,39.687999963760376,distr,20312.000036239624,Tue Apr 22 2025 18:23:48 GMT-0500 (Central Daylight Time),795820.099999994,B,enter,I,enter,182,2,199.30000001192093,795620.7999999821,8019,WL,C,12.0
6,39.88800001144409,distr,20111.99998855591,Tue Apr 22 2025 18:23:48 GMT-0500 (Central Daylight Time),796020.099999994,B,enter,I,enter,190,2,199.59999999403954,795820.5,8019,WL,C,13.0
6,40.604000091552734,distr,19395.999908447266,Tue Apr 22 2025 18:23:48 GMT-0500 (Central Daylight Time),796736.599999994,B,enter,I,enter,711,2,716.0,796020.599999994,8019,WL,C,14.0
6,41.37100005149841,distr,18628.999948501587,Tue Apr 22 2025 18:23:48 GMT-0500 (Central Daylight Time),797503.099999994,B,enter,I,enter,754,2,766.2000000178814,796736.8999999762,8019,WL,C,15.0
7,1.2170000076293945,immed,58782.999992370605,Tue Apr 22 2025 18:23:48 GMT-0500 (Central Daylight Time),808382.8999999762,A,t,I,t,1205,2,1216.2999999821186,807166.599999994,8019,WL,C,1.0
7,1.3500001430511475,immed,58649.99985694885,Tue Apr 22 2025 18:23:48 GMT-0500 (Central Daylight Time),808516.3999999762,A,to,I,o,115,2,1349.7999999821186,807166.599999994,8019,WL,C,1.0
7,1.4670000076293945,immed,58532.999992370605,Tue Apr 22 2025 18:23:48 GMT-0500 (Central Daylight Time),808632.8999999762,A,tow,I,w,102,2,1466.2999999821186,807166.599999994,8019,WL,C,1.0
7,2.0329999923706055,immed,57967.000007629395,Tue Apr 22 2025 18:23:48 GMT-0500 (Central Daylight Time),809199.2999999821,A,towe,I,e,562,2,2032.699999988079,807166.599999994,8019,WL,C,1.0
7,2.116000175476074,immed,57883.999824523926,Tue Apr 22 2025 18:23:48 GMT-0500 (Central Daylight Time),809282.6999999881,A,tower,I,r,67,2,2116.0999999940395,807166.599999994,8019,WL,C,1.0
7,2.3000001907348633,immed,57699.99980926514,Tue Apr 22 2025 18:23:48 GMT-0500 (Central Daylight Time),809466.0,A,towerenter,I,enter,176,2,2299.4000000059605,807166.599999994,8019,WL,C,1.0
7,3.449000120162964,immed,56550.999879837036,Tue Apr 22 2025 18:23:48 GMT-0500 (Central Daylight Time),810615.3999999762,A,w,I,w,1145,2,1149.0,809466.3999999762,8019,WL,C,2.0
7,3.5989999771118164,immed,56401.00002288818,Tue Apr 22 2025 18:23:48 GMT-0500 (Central Daylight Time),810765.599999994,A,wh,I,h,139,2,1299.2000000178814,809466.3999999762,8019,WL,C,2.0
7,3.7160000801086426,immed,56283.99991989136,Tue Apr 22 2025 18:23:48 GMT-0500 (Central Daylight Time),810882.2999999821,A,whe,I,e,109,2,1415.9000000059605,809466.3999999762,8019,WL,C,2.0
7,3.8489999771118164,immed,56151.00002288818,Tue Apr 22 2025 18:23:48 GMT-0500 (Central Daylight Time),811015.5,A,whea,I,a,120,2,1549.1000000238419,809466.3999999762,8019,WL,C,2.0
7,3.9660000801086426,immed,56033.99991989136,Tue Apr 22 2025 18:23:48 GMT-0500 (Central Daylight Time),811132.099999994,A,wheat,I,t,107,2,1665.7000000178814,809466.3999999762,8019,WL,C,2.0
7,4.766000032424927,immed,55233.99996757507,Tue Apr 22 2025 18:23:48 GMT-0500 (Central Daylight Time),811931.8999999762,A,wheatenter,I,enter,790,2,2465.5,809466.3999999762,8019,WL,C,2.0
7,6.765000104904175,immed,53234.999895095825,Tue Apr 22 2025 18:23:48 GMT-0500 (Central Daylight Time),813931.2999999821,A,q,I,q,1991,2,1999.0999999940395,811932.1999999881,8019,WL,C,3.0
7,6.930999994277954,immed,53069.000005722046,Tue Apr 22 2025 18:23:48 GMT-0500 (Central Daylight Time),814097.6999999881,A,qu,I,u,151,2,2165.5,811932.1999999881,8019,WL,C,3.0
7,7.0980000495910645,immed,52901.999950408936,Tue Apr 22 2025 18:23:48 GMT-0500 (Central Daylight Time),814264.2999999821,A,que,I,e,161,2,2332.0999999940395,811932.1999999881,8019,WL,C,3.0
7,7.232000112533569,immed,52767.99988746643,Tue Apr 22 2025 18:23:48 GMT-0500 (Central Daylight Time),814397.8999999762,A,quee,I,e,122,2,2465.699999988079,811932.1999999881,8019,WL,C,3.0
7,7.331000089645386,immed,52668.999910354614,Tue Apr 22 2025 18:23:48 GMT-0500 (Central Daylight Time),814497.6999999881,A,queen,I,n,93,2,2565.5,811932.1999999881,8019,WL,C,3.0
7,7.9150002002716064,immed,52084.99979972839,Tue Apr 22 2025 18:23:48 GMT-0500 (Central Daylight Time),815081.0,A,queenenter,I,enter,568,2,3148.800000011921,811932.1999999881,8019,WL,C,3.0
7,9.581000089645386,immed,50418.999910354614,Tue Apr 22 2025 18:23:48 GMT-0500 (Central Daylight Time),816746.8999999762,A,s,I,s,1649,2,1665.5999999940395,815081.2999999821,8019,WL,C,4.0
7,9.781000137329102,immed,50218.9998626709,Tue Apr 22 2025 18:23:48 GMT-0500 (Central Daylight Time),816947.0,A,su,I,u,184,2,1865.7000000178814,815081.2999999821,8019,WL,C,4.0
7,10.496999979019165,immed,49503.000020980835,Tue Apr 22 2025 18:23:48 GMT-0500 (Central Daylight Time),817663.5,A,sug,I,g,712,2,2582.2000000178814,815081.2999999821,8019,WL,C,4.0
7,10.69700002670288,immed,49302.99997329712,Tue Apr 22 2025 18:23:48 GMT-0500 (Central Daylight Time),817863.5,A,suge,I,e,179,2,2782.2000000178814,815081.2999999821,8019,WL,C,4.0
7,10.746999979019165,immed,49253.000020980835,Tue Apr 22 2025 18:23:48 GMT-0500 (Central Daylight Time),817913.7999999821,A,suger,I,r,35,2,2832.5,815081.2999999821,8019,WL,C,4.0
7,10.996999979019165,immed,49003.000020980835,Tue Apr 22 2025 18:23:48 GMT-0500 (Central Daylight Time),818163.1999999881,A,sugerenter,I,enter,241,2,3081.9000000059605,815081.2999999821,8019,WL,C,4.0
7,14.36300015449524,immed,45636.99984550476,Tue Apr 22 2025 18:23:48 GMT-0500 (Central Daylight Time),821529.0,A,h,I,h,3351,2,3365.4000000059605,818163.599999994,8019,WL,C,5.0
7,14.578999996185303,immed,45421.0000038147,Tue Apr 22 2025 18:23:48 GMT-0500 (Central Daylight Time),821745.3999999762,A,ho,I,o,210,2,3581.7999999821186,818163.599999994,8019,WL,C,5.0
7,14.696000099182129,immed,45303.99990081787,Tue Apr 22 2025 18:23:48 GMT-0500 (Central Daylight Time),821862.099999994,A,hom,I,m,105,2,3698.5,818163.599999994,8019,WL,C,5.0
7,14.84600019454956,immed,45153.99980545044,Tue Apr 22 2025 18:23:48 GMT-0500 (Central Daylight Time),822012.5,A,home,I,e,132,2,3848.9000000059605,818163.599999994,8019,WL,C,5.0
7,15.229000091552734,immed,44770.999908447266,Tue Apr 22 2025 18:23:48 GMT-0500 (Central Daylight Time),822395.1999999881,A,homeenter,I,enter,374,2,4231.5999999940395,818163.599999994,8019,WL,C,5.0
7,17.175000190734863,immed,42824.99980926514,Tue Apr 22 2025 18:23:48 GMT-0500 (Central Daylight Time),824341.1999999881,A,b,I,b,1923,2,1945.699999988079,822395.5,8019,WL,C,6.0
7,17.294000148773193,immed,42705.99985122681,Tue Apr 22 2025 18:23:48 GMT-0500 (Central Daylight Time),824460.8999999762,A,bo,I,o,101,2,2065.399999976158,822395.5,8019,WL,C,6.0
7,17.611000061035156,immed,42388.999938964844,Tue Apr 22 2025 18:23:48 GMT-0500 (Central Daylight Time),824777.7999999821,A,boy,I,y,301,2,2382.2999999821186,822395.5,8019,WL,C,6.0
7,18.278000116348267,immed,41721.99988365173,Tue Apr 22 2025 18:23:48 GMT-0500 (Central Daylight Time),825444.1999999881,A,boyenter,I,enter,657,2,3048.699999988079,822395.5,8019,WL,C,6.0
7,19.377000093460083,immed,40622.99990653992,Tue Apr 22 2025 18:23:48 GMT-0500 (Central Daylight Time),826543.7999999821,A,d,I,d,1094,2,1099.199999988079,825444.599999994,8019,WL,C,7.0
7,19.528000116348267,immed,40471.99988365173,Tue Apr 22 2025 18:23:48 GMT-0500 (Central Daylight Time),826693.8999999762,A,do,I,o,139,2,1249.2999999821186,825444.599999994,8019,WL,C,7.0
7,19.66100001335144,immed,40338.99998664856,Tue Apr 22 2025 18:23:48 GMT-0500 (Central Daylight Time),826827.0,A,doc,I,c,125,2,1382.4000000059605,825444.599999994,8019,WL,C,7.0
7,20.64400005340576,immed,39355.99994659424,Tue Apr 22 2025 18:23:48 GMT-0500 (Central Daylight Time),827810.1999999881,A,doco,I,o,967,2,2365.5999999940395,825444.599999994,8019,WL,C,7.0
7,20.777000188827515,immed,39222.999811172485,Tue Apr 22 2025 18:23:48 GMT-0500 (Central Daylight Time),827943.3999999762,A,docot,I,t,128,2,2498.7999999821186,825444.599999994,8019,WL,C,7.0
7,21.41000008583069,immed,38589.99991416931,Tue Apr 22 2025 18:23:48 GMT-0500 (Central Daylight Time),828576.3999999762,A,doco,I,backspace,627,2,3131.7999999821186,825444.599999994,8019,WL,C,7.0
7,21.97699999809265,immed,38023.00000190735,Tue Apr 22 2025 18:23:48 GMT-0500 (Central Daylight Time),829143.3999999762,A,doc,I,backspace,546,2,3698.7999999821186,825444.599999994,8019,WL,C,7.0
7,22.41000008583069,immed,37589.99991416931,Tue Apr 22 2025 18:23:48 GMT-0500 (Central Daylight Time),829576.099999994,A,doct,I,t,427,2,4131.5,825444.599999994,8019,WL,C,7.0
7,23.14300012588501,immed,36856.99987411499,Tue Apr 22 2025 18:23:48 GMT-0500 (Central Daylight Time),830309.0,A,docto,I,o,715,2,4864.4000000059605,825444.599999994,8019,WL,C,7.0
7,23.292999982833862,immed,36707.00001716614,Tue Apr 22 2025 18:23:48 GMT-0500 (Central Daylight Time),830459.0,A,doctor,I,r,133,2,5014.4000000059605,825444.599999994,8019,WL,C,7.0
7,24.292999982833862,immed,35707.00001716614,Tue Apr 22 2025 18:23:48 GMT-0500 (Central Daylight Time),831459.1999999881,A,doctorenter,I,enter,983,2,6014.5999999940395,825444.599999994,8019,WL,C,7.0
7,24.9760000705719,immed,35023.9999294281,Tue Apr 22 2025 18:23:48 GMT-0500 (Central Daylight Time),832142.099999994,A,c,I,c,671,2,682.5999999940395,831459.5,8019,WL,C,8.0
7,25.093000173568726,immed,34906.999826431274,Tue Apr 22 2025 18:23:48 GMT-0500 (Central Daylight Time),832258.8999999762,A,ca,I,a,100,2,799.3999999761581,831459.5,8019,WL,C,8.0
7,25.192000150680542,immed,34807.99984931946,Tue Apr 22 2025 18:23:48 GMT-0500 (Central Daylight Time),832358.6999999881,A,cam,I,m,88,2,899.1999999880791,831459.5,8019,WL,C,8.0
7,25.509000062942505,immed,34490.999937057495,Tue Apr 22 2025 18:23:48 GMT-0500 (Central Daylight Time),832675.3999999762,A,camp,I,p,307,2,1215.8999999761581,831459.5,8019,WL,C,8.0
7,26.12600016593933,immed,33873.99983406067,Tue Apr 22 2025 18:23:48 GMT-0500 (Central Daylight Time),833291.8999999762,A,campenter,I,enter,607,2,1832.3999999761581,831459.5,8019,WL,C,8.0
7,28.391000032424927,immed,31608.999967575073,Tue Apr 22 2025 18:23:48 GMT-0500 (Central Daylight Time),835557.7999999821,A,f,I,f,2247,2,2265.5999999940395,833292.1999999881,8019,WL,C,9.0
7,28.52500009536743,immed,31474.99990463257,Tue Apr 22 2025 18:23:48 GMT-0500 (Central Daylight Time),835691.099999994,A,fl,I,l,124,2,2398.9000000059605,833292.1999999881,8019,WL,C,9.0
7,28.54200005531311,immed,31457.99994468689,Tue Apr 22 2025 18:23:48 GMT-0500 (Central Daylight Time),835708.0,A,fla,I,a,8,2,2415.800000011921,833292.1999999881,8019,WL,C,9.0
7,29.45800018310547,immed,30541.99981689453,Tue Apr 22 2025 18:23:48 GMT-0500 (Central Daylight Time),836624.1999999881,A,flag,I,g,903,2,3332.0,833292.1999999881,8019,WL,C,9.0
7,29.891000032424927,immed,30108.999967575073,Tue Apr 22 2025 18:23:48 GMT-0500 (Central Daylight Time),837057.2999999821,A,flagenter,I,enter,426,2,3765.0999999940395,833292.1999999881,8019,WL,C,9.0
7,30.741000175476074,immed,29258.999824523926,Tue Apr 22 2025 18:23:48 GMT-0500 (Central Daylight Time),837907.1999999881,A,l,I,l,841,2,849.5,837057.6999999881,8019,WL,C,10.0
7,30.891000032424927,immed,29108.999967575073,Tue Apr 22 2025 18:23:48 GMT-0500 (Central Daylight Time),838057.099999994,A,le,I,e,143,2,999.4000000059605,837057.6999999881,8019,WL,C,10.0
7,31.174000024795532,immed,28825.999975204468,Tue Apr 22 2025 18:23:48 GMT-0500 (Central Daylight Time),838340.2999999821,A,let,I,t,265,2,1282.5999999940395,837057.6999999881,8019,WL,C,10.0
7,31.307000160217285,immed,28692.999839782715,Tue Apr 22 2025 18:23:48 GMT-0500 (Central Daylight Time),838473.5,A,lett,I,t,126,2,1415.800000011921,837057.6999999881,8019,WL,C,10.0
7,31.506999969482422,immed,28493.000030517578,Tue Apr 22 2025 18:23:48 GMT-0500 (Central Daylight Time),838673.599999994,A,lette,I,e,193,2,1615.9000000059605,837057.6999999881,8019,WL,C,10.0
7,31.574000120162964,immed,28425.999879837036,Tue Apr 22 2025 18:23:48 GMT-0500 (Central Daylight Time),838740.2999999821,A,letter,I,r,49,2,1682.5999999940395,837057.6999999881,8019,WL,C,10.0
7,32.20700001716614,immed,27792.999982833862,Tue Apr 22 2025 18:23:48 GMT-0500 (Central Daylight Time),839373.3999999762,A,letterenter,I,enter,614,2,2315.699999988079,837057.6999999881,8019,WL,C,10.0
7,32.85600018501282,immed,27143.999814987183,Tue Apr 22 2025 18:23:48 GMT-0500 (Central Daylight Time),840022.8999999762,A,c,I,c,629,2,649.1999999880791,839373.6999999881,8019,WL,C,11.0
7,32.99000000953674,immed,27009.999990463257,Tue Apr 22 2025 18:23:48 GMT-0500 (Central Daylight Time),840156.2999999821,A,co,I,o,116,2,782.5999999940395,839373.6999999881,8019,WL,C,11.0
7,33.17300009727478,immed,26826.99990272522,Tue Apr 22 2025 18:23:48 GMT-0500 (Central Daylight Time),840339.6999999881,A,cor,I,r,166,2,966.0,839373.6999999881,8019,WL,C,11.0
7,34.09100008010864,immed,25908.999919891357,Tue Apr 22 2025 18:23:48 GMT-0500 (Central Daylight Time),841257.099999994,A,corn,I,n,911,2,1883.4000000059605,839373.6999999881,8019,WL,C,11.0
7,34.623000144958496,immed,25376.999855041504,Tue Apr 22 2025 18:23:48 GMT-0500 (Central Daylight Time),841789.099999994,A,cornenter,I,enter,521,2,2415.4000000059605,839373.6999999881,8019,WL,C,11.0
7,35.539000034332275,immed,24460.999965667725,Tue Apr 22 2025 18:23:48 GMT-0500 (Central Daylight Time),842705.6999999881,A,n,I,n,910,2,916.4000000059605,841789.2999999821,8019,WL,C,12.0
7,35.706000089645386,immed,24293.999910354614,Tue Apr 22 2025 18:23:48 GMT-0500 (Central Daylight Time),842872.5,A,na,I,a,153,2,1083.2000000178814,841789.2999999821,8019,WL,C,12.0
7,35.92200016975403,immed,24077.99983024597,Tue Apr 22 2025 18:23:48 GMT-0500 (Central Daylight Time),843088.6999999881,A,nai,I,i,202,2,1299.4000000059605,841789.2999999821,8019,WL,C,12.0
7,36.2720000743866,immed,23727.999925613403,Tue Apr 22 2025 18:23:48 GMT-0500 (Central Daylight Time),843438.6999999881,A,nail,I,l,338,2,1649.4000000059605,841789.2999999821,8019,WL,C,12.0
7,36.83899998664856,immed,23161.00001335144,Tue Apr 22 2025 18:23:48 GMT-0500 (Central Daylight Time),844005.1999999881,A,nailenter,I,enter,548,2,2215.9000000059605,841789.2999999821,8019,WL,C,12.0
7,37.63800001144409,immed,22361.99998855591,Tue Apr 22 2025 18:23:48 GMT-0500 (Central Daylight Time),844804.8999999762,A,c,I,c,781,2,799.2999999821186,844005.599999994,8019,WL,C,13.0
7,37.8050000667572,immed,22194.999933242798,Tue Apr 22 2025 18:23:48 GMT-0500 (Central Daylight Time),844971.5,A,ca,I,a,150,2,965.9000000059605,844005.599999994,8019,WL,C,13.0
7,38.2720000743866,immed,21727.999925613403,Tue Apr 22 2025 18:23:48 GMT-0500 (Central Daylight Time),845438.2999999821,A,cat,I,t,455,2,1432.699999988079,844005.599999994,8019,WL,C,13.0
7,38.4210000038147,immed,21578.999996185303,Tue Apr 22 2025 18:23:48 GMT-0500 (Central Daylight Time),845588.099999994,A,catt,I,t,132,2,1582.5,844005.599999994,8019,WL,C,13.0
7,38.62100005149841,immed,21378.999948501587,Tue Apr 22 2025 18:23:48 GMT-0500 (Central Daylight Time),845788.0,A,cattl,I,l,183,2,1782.4000000059605,844005.599999994,8019,WL,C,13.0
7,38.73800015449524,immed,21261.99984550476,Tue Apr 22 2025 18:23:48 GMT-0500 (Central Daylight Time),845904.3999999762,A,cattle,I,e,110,2,1898.7999999821186,844005.599999994,8019,WL,C,13.0
7,39.28800010681152,immed,20711.999893188477,Tue Apr 22 2025 18:23:48 GMT-0500 (Central Daylight Time),846454.3999999762,A,cattleenter,I,enter,530,2,2448.7999999821186,844005.599999994,8019,WL,C,13.0
7,40.937000036239624,immed,19062.999963760376,Tue Apr 22 2025 18:23:48 GMT-0500 (Central Daylight Time),848103.599999994,A,s,I,s,1644,2,1648.9000000059605,846454.6999999881,8019,WL,C,14.0
7,41.004000186920166,immed,18995.999813079834,Tue Apr 22 2025 18:23:48 GMT-0500 (Central Daylight Time),848170.6999999881,A,sh,I,h,59,2,1716.0,846454.6999999881,8019,WL,C,14.0
7,41.271000146865845,immed,18728.999853134155,Tue Apr 22 2025 18:23:48 GMT-0500 (Central Daylight Time),848437.1999999881,A,sho,I,o,255,2,1982.5,846454.6999999881,8019,WL,C,14.0
7,41.4210000038147,immed,18578.999996185303,Tue Apr 22 2025 18:23:48 GMT-0500 (Central Daylight Time),848587.0,A,shor,I,r,141,2,2132.300000011921,846454.6999999881,8019,WL,C,14.0
7,41.48699998855591,immed,18513.00001144409,Tue Apr 22 2025 18:23:48 GMT-0500 (Central Daylight Time),848653.6999999881,A,shore,I,e,56,2,2199.0,846454.6999999881,8019,WL,C,14.0
7,42.07000017166138,immed,17929.999828338623,Tue Apr 22 2025 18:23:48 GMT-0500 (Central Daylight Time),849236.8999999762,A,shoreenter,I,enter,564,2,2782.199999988079,846454.6999999881,8019,WL,C,14.0
7,42.87000012397766,immed,17129.99987602234,Tue Apr 22 2025 18:23:48 GMT-0500 (Central Daylight Time),850036.5,A,b,I,b,790,2,799.3000000119209,849237.1999999881,8019,WL,C,15.0
7,43.12000012397766,immed,16879.99987602234,Tue Apr 22 2025 18:23:48 GMT-0500 (Central Daylight Time),850286.3999999762,A,bo,I,o,230,2,1049.199999988079,849237.1999999881,8019,WL,C,15.0
