block_c,block_dur,condition,countdown,datetime,endtime,list,multichar_response,project,response,response_time,session_number,start_end,starttime,subject_id,task,task_vers,trial
,,,,Mon Jan 27 2025 18:32:20 GMT-0600 (Central Standard Time),,,,I,space,456,1,,,8019,WL,A,
prac,,0,,Mon Jan 27 2025 18:32:20 GMT-0600 (Central Standard Time),,NA,b,I,b,6977,1,,,8019,WL,A,1.0
prac,,0,,Mon Jan 27 2025 18:32:20 GMT-0600 (Central Standard Time),,NA,bo,I,o,1252,1,,,8019,WL,A,1.0
prac,,0,,Mon Jan 27 2025 18:32:20 GMT-0600 (Central Standard Time),,NA,boo,I,o,131,1,,,8019,WL,A,1.0
prac,,0,,Mon Jan 27 2025 18:32:20 GMT-0600 (Central Standard Time),,NA,boos,I,s,84,1,,,8019,WL,A,1.0
prac,,0,,Mon Jan 27 2025 18:32:20 GMT-0600 (Central Standard Time),,NA,boost,I,t,106,1,,,8019,WL,A,1.0
prac,,0,,Mon Jan 27 2025 18:32:20 GMT-0600 (Central Standard Time),,NA,boostenter,I,enter,1101,1,,,8019,WL,A,1.0
1,1.25,learn,58750.0,Mon Jan 27 2025 18:32:20 GMT-0600 (Central Standard Time),145041.40000009537,A,b,I,b,1227,1,1250.0,143791.40000009537,8019,WL,A,1.0
1,1.4839999675750732,learn,58516.00003242493,Mon Jan 27 2025 18:32:20 GMT-0600 (Central Standard Time),145274.69999980927,A,bo,I,o,217,1,1483.2999997138977,143791.40000009537,8019,WL,A,1.0
1,1.6159999370574951,learn,58384.000062942505,Mon Jan 27 2025 18:32:20 GMT-0600 (Central Standard Time),145407.09999990463,A,boo,I,o,120,1,1615.6999998092651,143791.40000009537,8019,WL,A,1.0
1,1.7669999599456787,learn,58233.00004005432,Mon Jan 27 2025 18:32:20 GMT-0600 (Central Standard Time),145557.40000009537,A,book,I,k,143,1,1766.0,143791.40000009537,8019,WL,A,1.0
1,2.932999849319458,learn,57067.00015068054,Mon Jan 27 2025 18:32:20 GMT-0600 (Central Standard Time),146723.59999990463,A,bookf,I,f,1158,1,2932.199999809265,143791.40000009537,8019,WL,A,1.0
1,3.0999999046325684,learn,56900.00009536743,Mon Jan 27 2025 18:32:20 GMT-0600 (Central Standard Time),146890.59999990463,A,bookfl,I,l,154,1,3099.199999809265,143791.40000009537,8019,WL,A,1.0
1,3.249000072479248,learn,56750.99992752075,Mon Jan 27 2025 18:32:20 GMT-0600 (Central Standard Time),147039.69999980927,A,bookflo,I,o,137,1,3248.2999997138977,143791.40000009537,8019,WL,A,1.0
1,3.365000009536743,learn,56634.99999046326,Mon Jan 27 2025 18:32:20 GMT-0600 (Central Standard Time),147156.09999990463,A,bookflow,I,w,108,1,3364.699999809265,143791.40000009537,8019,WL,A,1.0
1,3.4129998683929443,learn,56587.000131607056,Mon Jan 27 2025 18:32:20 GMT-0600 (Central Standard Time),147204.09999990463,A,bookflowe,I,e,34,1,3412.699999809265,143791.40000009537,8019,WL,A,1.0
1,3.4809999465942383,learn,56519.00005340576,Mon Jan 27 2025 18:32:20 GMT-0600 (Central Standard Time),147272.19999980927,A,bookflower,I,r,57,1,3480.7999997138977,143791.40000009537,8019,WL,A,1.0
1,5.88100004196167,learn,54118.99995803833,Mon Jan 27 2025 18:32:20 GMT-0600 (Central Standard Time),149672.40000009537,A,bookflowe,I,backspace,2380,1,5881.0,143791.40000009537,8019,WL,A,1.0
1,6.230999946594238,learn,53769.00005340576,Mon Jan 27 2025 18:32:20 GMT-0600 (Central Standard Time),150022.2999997139,A,bookflow,I,backspace,326,1,6230.89999961853,143791.40000009537,8019,WL,A,1.0
1,6.381999969482422,learn,53618.00003051758,Mon Jan 27 2025 18:32:20 GMT-0600 (Central Standard Time),150172.90000009537,A,bookflo,I,backspace,133,1,6381.5,143791.40000009537,8019,WL,A,1.0
1,6.549000024795532,learn,53450.99997520447,Mon Jan 27 2025 18:32:20 GMT-0600 (Central Standard Time),150339.5,A,bookfl,I,backspace,148,1,6548.099999904633,143791.40000009537,8019,WL,A,1.0
1,6.897000074386597,learn,53102.9999256134,Mon Jan 27 2025 18:32:20 GMT-0600 (Central Standard Time),150688.09999990463,A,bookf,I,backspace,334,1,6896.699999809265,143791.40000009537,8019,WL,A,1.0
1,7.447000026702881,learn,52552.99997329712,Mon Jan 27 2025 18:32:20 GMT-0600 (Central Standard Time),151238.19999980927,A,book,I,backspace,532,1,7446.799999713898,143791.40000009537,8019,WL,A,1.0
1,10.079999923706055,learn,49920.000076293945,Mon Jan 27 2025 18:32:20 GMT-0600 (Central Standard Time),153871.19999980927,A,bookenter,I,enter,2622,1,10079.799999713898,143791.40000009537,8019,WL,A,1.0
1,11.51199984550476,learn,48488.00015449524,Mon Jan 27 2025 18:32:20 GMT-0600 (Central Standard Time),155303.19999980927,A,t,I,t,1411,1,1431.5999999046326,153871.59999990463,8019,WL,A,2.0
1,11.662999868392944,learn,48337.000131607056,Mon Jan 27 2025 18:32:20 GMT-0600 (Central Standard Time),155454.09999990463,A,tr,I,r,140,1,1582.5,153871.59999990463,8019,WL,A,2.0
1,11.845999956130981,learn,48154.00004386902,Mon Jan 27 2025 18:32:20 GMT-0600 (Central Standard Time),155637.2999997139,A,tra,I,a,176,1,1765.6999998092651,153871.59999990463,8019,WL,A,2.0
1,11.996999979019165,learn,48003.000020980835,Mon Jan 27 2025 18:32:20 GMT-0600 (Central Standard Time),155788.19999980927,A,trai,I,i,135,1,1916.5999999046326,153871.59999990463,8019,WL,A,2.0
1,12.078999996185303,learn,47921.0000038147,Mon Jan 27 2025 18:32:20 GMT-0600 (Central Standard Time),155869.90000009537,A,train,I,n,70,1,1998.3000001907349,153871.59999990463,8019,WL,A,2.0
1,12.746999979019165,learn,47253.000020980835,Mon Jan 27 2025 18:32:20 GMT-0600 (Central Standard Time),156537.69999980927,A,trainenter,I,enter,643,1,2666.0999999046326,153871.59999990463,8019,WL,A,2.0
1,13.246999979019165,learn,46753.000020980835,Mon Jan 27 2025 18:32:20 GMT-0600 (Central Standard Time),157038.09999990463,A,m,I,m,492,1,499.90000009536743,156538.19999980927,8019,WL,A,3.0
1,13.38100004196167,learn,46618.99995803833,Mon Jan 27 2025 18:32:20 GMT-0600 (Central Standard Time),157171.59999990463,A,me,I,e,126,1,633.4000000953674,156538.19999980927,8019,WL,A,3.0
1,13.579999923706055,learn,46420.000076293945,Mon Jan 27 2025 18:32:20 GMT-0600 (Central Standard Time),157371.2999997139,A,mea,I,a,184,1,833.0999999046326,156538.19999980927,8019,WL,A,3.0
1,13.963000059127808,learn,46036.99994087219,Mon Jan 27 2025 18:32:20 GMT-0600 (Central Standard Time),157753.59999990463,A,mead,I,d,366,1,1215.4000000953674,156538.19999980927,8019,WL,A,3.0
1,14.178999900817871,learn,45821.00009918213,Mon Jan 27 2025 18:32:20 GMT-0600 (Central Standard Time),157970.09999990463,A,meado,I,o,195,1,1431.9000000953674,156538.19999980927,8019,WL,A,3.0
1,14.527999877929688,learn,45472.00012207031,Mon Jan 27 2025 18:32:20 GMT-0600 (Central Standard Time),158319.09999990463,A,meadow,I,w,337,1,1780.9000000953674,156538.19999980927,8019,WL,A,3.0
1,15.126999855041504,learn,44873.000144958496,Mon Jan 27 2025 18:32:20 GMT-0600 (Central Standard Time),158918.2999997139,A,meadowenter,I,enter,581,1,2380.0999999046326,156538.19999980927,8019,WL,A,3.0
1,16.661999940872192,learn,43338.00005912781,Mon Jan 27 2025 18:32:20 GMT-0600 (Central Standard Time),160452.59999990463,A,k,I,k,1516,1,1534.0,158918.59999990463,8019,WL,A,4.0
1,16.828999996185303,learn,43171.0000038147,Mon Jan 27 2025 18:32:20 GMT-0600 (Central Standard Time),160620.2999997139,A,ke,I,e,159,1,1701.6999998092651,158918.59999990463,8019,WL,A,4.0
1,16.960999965667725,learn,43039.000034332275,Mon Jan 27 2025 18:32:20 GMT-0600 (Central Standard Time),160752.0,A,key,I,y,118,1,1833.4000000953674,158918.59999990463,8019,WL,A,4.0
1,17.560999870300293,learn,42439.00012969971,Mon Jan 27 2025 18:32:20 GMT-0600 (Central Standard Time),161351.5,A,keyenter,I,enter,586,1,2432.9000000953674,158918.59999990463,8019,WL,A,4.0
1,18.17799997329712,learn,41822.00002670288,Mon Jan 27 2025 18:32:20 GMT-0600 (Central Standard Time),161969.40000009537,A,a,I,a,603,1,617.6000003814697,161351.7999997139,8019,WL,A,5.0
1,19.244999885559082,learn,40755.00011444092,Mon Jan 27 2025 18:32:20 GMT-0600 (Central Standard Time),163036.0,A,ap,I,p,1042,1,1684.2000002861023,161351.7999997139,8019,WL,A,5.0
1,19.378000020980835,learn,40621.999979019165,Mon Jan 27 2025 18:32:20 GMT-0600 (Central Standard Time),163169.19999980927,A,app,I,p,109,1,1817.4000000953674,161351.7999997139,8019,WL,A,5.0
1,19.542999982833862,learn,40457.00001716614,Mon Jan 27 2025 18:32:20 GMT-0600 (Central Standard Time),163333.59999990463,A,appl,I,l,155,1,1981.8000001907349,161351.7999997139,8019,WL,A,5.0
1,19.694000005722046,learn,40305.999994277954,Mon Jan 27 2025 18:32:20 GMT-0600 (Central Standard Time),163484.69999980927,A,apple,I,e,136,1,2132.9000000953674,161351.7999997139,8019,WL,A,5.0
1,20.01199984550476,learn,39988.00015449524,Mon Jan 27 2025 18:32:20 GMT-0600 (Central Standard Time),163802.7999997139,A,appleenter,I,enter,312,1,2451.0,161351.7999997139,8019,WL,A,5.0
1,20.67799997329712,learn,39322.00002670288,Mon Jan 27 2025 18:32:20 GMT-0600 (Central Standard Time),164468.69999980927,A,m,I,m,658,1,665.5999999046326,163803.09999990463,8019,WL,A,6.0
1,20.82800006866455,learn,39171.99993133545,Mon Jan 27 2025 18:32:20 GMT-0600 (Central Standard Time),164618.40000009537,A,me,I,e,126,1,815.3000001907349,163803.09999990463,8019,WL,A,6.0
1,20.927000045776367,learn,39072.99995422363,Mon Jan 27 2025 18:32:20 GMT-0600 (Central Standard Time),164718.19999980927,A,mew,I,w,82,1,915.0999999046326,163803.09999990463,8019,WL,A,6.0
1,21.710000038146973,learn,38289.99996185303,Mon Jan 27 2025 18:32:20 GMT-0600 (Central Standard Time),165500.5,A,me,I,backspace,765,1,1697.4000000953674,163803.09999990463,8019,WL,A,6.0
1,21.859999895095825,learn,38140.000104904175,Mon Jan 27 2025 18:32:20 GMT-0600 (Central Standard Time),165650.90000009537,A,mea,I,a,135,1,1847.8000001907349,163803.09999990463,8019,WL,A,6.0
1,22.07800006866455,learn,37921.99993133545,Mon Jan 27 2025 18:32:20 GMT-0600 (Central Standard Time),165869.19999980927,A,mead,I,d,211,1,2066.0999999046326,163803.09999990463,8019,WL,A,6.0
1,22.526000022888184,learn,37473.99997711182,Mon Jan 27 2025 18:32:20 GMT-0600 (Central Standard Time),166316.90000009537,A,meado,I,o,439,1,2513.800000190735,163803.09999990463,8019,WL,A,6.0
1,22.64400005340576,learn,37355.99994659424,Mon Jan 27 2025 18:32:20 GMT-0600 (Central Standard Time),166434.5,A,meadow,I,w,93,1,2631.4000000953674,163803.09999990463,8019,WL,A,6.0
1,23.460000038146973,learn,36539.99996185303,Mon Jan 27 2025 18:32:20 GMT-0600 (Central Standard Time),167250.69999980927,A,meadowenter,I,enter,793,1,3447.5999999046326,163803.09999990463,8019,WL,A,6.0
1,24.542999982833862,learn,35457.00001716614,Mon Jan 27 2025 18:32:20 GMT-0600 (Central Standard Time),168333.69999980927,A,t,I,t,1063,1,1082.6999998092651,167251.0,8019,WL,A,7.0
1,24.776000022888184,learn,35223.99997711182,Mon Jan 27 2025 18:32:20 GMT-0600 (Central Standard Time),168566.5,A,tr,I,r,224,1,1315.5,167251.0,8019,WL,A,7.0
1,25.042999982833862,learn,34957.00001716614,Mon Jan 27 2025 18:32:20 GMT-0600 (Central Standard Time),168833.59999990463,A,tra,I,a,254,1,1582.5999999046326,167251.0,8019,WL,A,7.0
1,25.191999912261963,learn,34808.00008773804,Mon Jan 27 2025 18:32:20 GMT-0600 (Central Standard Time),168982.69999980927,A,trai,I,i,139,1,1731.6999998092651,167251.0,8019,WL,A,7.0
1,25.256999969482422,learn,34743.00003051758,Mon Jan 27 2025 18:32:20 GMT-0600 (Central Standard Time),169048.09999990463,A,train,I,n,52,1,1797.0999999046326,167251.0,8019,WL,A,7.0
1,26.007999897003174,learn,33992.000102996826,Mon Jan 27 2025 18:32:20 GMT-0600 (Central Standard Time),169798.69999980927,A,trainenter,I,enter,739,1,2547.699999809265,167251.0,8019,WL,A,7.0
1,42.019999980926514,learn,17980.000019073486,Mon Jan 27 2025 18:32:20 GMT-0600 (Central Standard Time),185811.19999980927,A,s,I,s,15992,1,16012.199999809265,169799.0,8019,WL,A,8.0
1,42.068000078201294,learn,17931.999921798706,Mon Jan 27 2025 18:32:20 GMT-0600 (Central Standard Time),185859.40000009537,A,sa,I,a,31,1,16060.400000095367,169799.0,8019,WL,A,8.0
1,42.22000002861023,learn,17779.99997138977,Mon Jan 27 2025 18:32:20 GMT-0600 (Central Standard Time),186011.90000009537,A,sal,I,l,137,1,16212.900000095367,169799.0,8019,WL,A,8.0
1,42.486000061035156,learn,17513.999938964844,Mon Jan 27 2025 18:32:20 GMT-0600 (Central Standard Time),186278.0,A,salt,I,t,248,1,16479.0,169799.0,8019,WL,A,8.0
1,42.769999980926514,learn,17230.000019073486,Mon Jan 27 2025 18:32:20 GMT-0600 (Central Standard Time),186561.19999980927,A,saltenter,I,enter,269,1,16762.199999809265,169799.0,8019,WL,A,8.0
1,43.603999853134155,learn,16396.000146865845,Mon Jan 27 2025 18:32:20 GMT-0600 (Central Standard Time),187396.19999980927,A,f,I,f,811,1,834.6999998092651,186561.5,8019,WL,A,9.0
1,43.70199990272522,learn,16298.00009727478,Mon Jan 27 2025 18:32:20 GMT-0600 (Central Standard Time),187493.5,A,fi,I,i,87,1,932.0,186561.5,8019,WL,A,9.0
1,43.75099992752075,learn,16249.000072479248,Mon Jan 27 2025 18:32:20 GMT-0600 (Central Standard Time),187542.5,A,fin,I,n,36,1,981.0,186561.5,8019,WL,A,9.0
1,43.8529999256134,learn,16147.000074386597,Mon Jan 27 2025 18:32:20 GMT-0600 (Central Standard Time),187645.0,A,fing,I,g,96,1,1083.5,186561.5,8019,WL,A,9.0
1,43.98699998855591,learn,16013.000011444092,Mon Jan 27 2025 18:32:20 GMT-0600 (Central Standard Time),187778.2999997139,A,finge,I,e,118,1,1216.7999997138977,186561.5,8019,WL,A,9.0
1,44.068000078201294,learn,15931.999921798706,Mon Jan 27 2025 18:32:20 GMT-0600 (Central Standard Time),187859.5,A,finger,I,r,63,1,1298.0,186561.5,8019,WL,A,9.0
1,44.236000061035156,learn,15763.999938964844,Mon Jan 27 2025 18:32:20 GMT-0600 (Central Standard Time),188027.90000009537,A,fingerenter,I,enter,160,1,1466.4000000953674,186561.5,8019,WL,A,9.0
1,54.21499991416931,learn,5785.0000858306885,Mon Jan 27 2025 18:32:20 GMT-0600 (Central Standard Time),198006.7999997139,A,enter,I,enter,9959,1,9978.599999904633,188028.19999980927,8019,WL,A,10.0
1,60.014999866485596,learn,-14.999866485595703,Mon Jan 27 2025 18:32:20 GMT-0600 (Central Standard Time),203806.90000009537,A,None,I,None,5794,1,5799.800000190735,198007.09999990463,8019,WL,A,11.0
2,1.2160000801086426,learn,58783.99991989136,Mon Jan 27 2025 18:32:20 GMT-0600 (Central Standard Time),275148.2999997139,A,g,I,g,1206,1,1215.3999996185303,273932.90000009537,8019,WL,A,1.0
2,1.317000150680542,learn,58682.99984931946,Mon Jan 27 2025 18:32:20 GMT-0600 (Central Standard Time),275249.40000009537,A,go,I,o,76,1,1316.5,273932.90000009537,8019,WL,A,1.0
2,1.4680001735687256,learn,58531.999826431274,Mon Jan 27 2025 18:32:20 GMT-0600 (Central Standard Time),275399.90000009537,A,gol,I,l,129,1,1467.0,273932.90000009537,8019,WL,A,1.0
2,1.633000135421753,learn,58366.99986457825,Mon Jan 27 2025 18:32:20 GMT-0600 (Central Standard Time),275565.5,A,gold,I,d,156,1,1632.5999999046326,273932.90000009537,8019,WL,A,1.0
2,1.883000135421753,learn,58116.99986457825,Mon Jan 27 2025 18:32:20 GMT-0600 (Central Standard Time),275815.0,A,goldenter,I,enter,229,1,1882.0999999046326,273932.90000009537,8019,WL,A,1.0
2,2.265000104904175,learn,57734.999895095825,Mon Jan 27 2025 18:32:20 GMT-0600 (Central Standard Time),276197.0,A,c,I,c,371,1,381.80000019073486,275815.19999980927,8019,WL,A,2.0
2,2.4210000038146973,learn,57578.9999961853,Mon Jan 27 2025 18:32:20 GMT-0600 (Central Standard Time),276353.2999997139,A,ch,I,h,131,1,538.0999999046326,275815.19999980927,8019,WL,A,2.0
2,2.5989999771118164,learn,57401.00002288818,Mon Jan 27 2025 18:32:20 GMT-0600 (Central Standard Time),276531.19999980927,A,chi,I,i,164,1,716.0,275815.19999980927,8019,WL,A,2.0
2,2.7340002059936523,learn,57265.99979400635,Mon Jan 27 2025 18:32:20 GMT-0600 (Central Standard Time),276666.09999990463,A,chim,I,m,123,1,850.9000000953674,275815.19999980927,8019,WL,A,2.0
2,3.700000047683716,learn,56299.999952316284,Mon Jan 27 2025 18:32:20 GMT-0600 (Central Standard Time),277632.40000009537,A,chimn,I,n,944,1,1817.2000002861023,275815.19999980927,8019,WL,A,2.0
2,3.932000160217285,learn,56067.999839782715,Mon Jan 27 2025 18:32:20 GMT-0600 (Central Standard Time),277864.09999990463,A,chimns,I,s,208,1,2048.9000000953674,275815.19999980927,8019,WL,A,2.0
2,4.516000032424927,learn,55483.99996757507,Mon Jan 27 2025 18:32:20 GMT-0600 (Central Standard Time),278448.2999997139,A,chimn,I,backspace,569,1,2633.0999999046326,275815.19999980927,8019,WL,A,2.0
2,4.700000047683716,learn,55299.999952316284,Mon Jan 27 2025 18:32:20 GMT-0600 (Central Standard Time),278632.0,A,chimne,I,e,163,1,2816.800000190735,275815.19999980927,8019,WL,A,2.0
2,6.182000160217285,learn,53817.999839782715,Mon Jan 27 2025 18:32:20 GMT-0600 (Central Standard Time),280114.90000009537,A,chimney,I,y,1458,1,4299.700000286102,275815.19999980927,8019,WL,A,2.0
2,6.680999994277954,learn,53319.000005722046,Mon Jan 27 2025 18:32:20 GMT-0600 (Central Standard Time),280613.2999997139,A,chimneyenter,I,enter,482,1,4798.099999904633,275815.19999980927,8019,WL,A,2.0
2,7.115000009536743,learn,52884.99999046326,Mon Jan 27 2025 18:32:20 GMT-0600 (Central Standard Time),281047.59999990463,A,t,I,t,421,1,434.0,280613.59999990463,8019,WL,A,3.0
2,7.333000183105469,learn,52666.99981689453,Mon Jan 27 2025 18:32:20 GMT-0600 (Central Standard Time),281265.69999980927,A,tr,I,r,195,1,652.0999999046326,280613.59999990463,8019,WL,A,3.0
2,7.396000146865845,learn,52603.999853134155,Mon Jan 27 2025 18:32:20 GMT-0600 (Central Standard Time),281328.90000009537,A,tra,I,a,49,1,715.3000001907349,280613.59999990463,8019,WL,A,3.0
2,7.549000024795532,learn,52450.99997520447,Mon Jan 27 2025 18:32:20 GMT-0600 (Central Standard Time),281481.0,A,trai,I,i,137,1,867.4000000953674,280613.59999990463,8019,WL,A,3.0
2,7.5970001220703125,learn,52402.99987792969,Mon Jan 27 2025 18:32:20 GMT-0600 (Central Standard Time),281529.5,A,train,I,n,33,1,915.9000000953674,280613.59999990463,8019,WL,A,3.0
2,8.249000072479248,learn,51750.99992752075,Mon Jan 27 2025 18:32:20 GMT-0600 (Central Standard Time),282181.09999990463,A,trainenter,I,enter,637,1,1567.5,280613.59999990463,8019,WL,A,3.0
2,8.981000185012817,learn,51018.99981498718,Mon Jan 27 2025 18:32:20 GMT-0600 (Central Standard Time),282913.69999980927,A,b,I,b,719,1,732.4000000953674,282181.2999997139,8019,WL,A,4.0
2,9.186000108718872,learn,50813.99989128113,Mon Jan 27 2025 18:32:20 GMT-0600 (Central Standard Time),283118.19999980927,A,bo,I,o,195,1,936.9000000953674,282181.2999997139,8019,WL,A,4.0
2,9.331000089645386,learn,50668.999910354614,Mon Jan 27 2025 18:32:20 GMT-0600 (Central Standard Time),283264.0,A,boo,I,o,125,1,1082.7000002861023,282181.2999997139,8019,WL,A,4.0
2,9.449000120162964,learn,50550.999879837036,Mon Jan 27 2025 18:32:20 GMT-0600 (Central Standard Time),283381.5,A,book,I,k,109,1,1200.2000002861023,282181.2999997139,8019,WL,A,4.0
2,9.731000185012817,learn,50268.99981498718,Mon Jan 27 2025 18:32:20 GMT-0600 (Central Standard Time),283663.5,A,bookenter,I,enter,268,1,1482.2000002861023,282181.2999997139,8019,WL,A,4.0
2,10.481000185012817,learn,49518.99981498718,Mon Jan 27 2025 18:32:20 GMT-0600 (Central Standard Time),284413.7999997139,A,f,I,f,743,1,749.8999996185303,283663.90000009537,8019,WL,A,5.0
2,10.581000089645386,learn,49418.999910354614,Mon Jan 27 2025 18:32:20 GMT-0600 (Central Standard Time),284513.2999997139,A,fl,I,l,85,1,849.3999996185303,283663.90000009537,8019,WL,A,5.0
2,10.749000072479248,learn,49250.99992752075,Mon Jan 27 2025 18:32:20 GMT-0600 (Central Standard Time),284681.19999980927,A,flo,I,o,144,1,1017.2999997138977,283663.90000009537,8019,WL,A,5.0
2,11.014000177383423,learn,48985.99982261658,Mon Jan 27 2025 18:32:20 GMT-0600 (Central Standard Time),284946.5,A,flow,I,w,252,1,1282.5999999046326,283663.90000009537,8019,WL,A,5.0
2,11.062000036239624,learn,48937.999963760376,Mon Jan 27 2025 18:32:20 GMT-0600 (Central Standard Time),284994.0,A,flowe,I,e,31,1,1330.0999999046326,283663.90000009537,8019,WL,A,5.0
2,11.147000074386597,learn,48852.9999256134,Mon Jan 27 2025 18:32:20 GMT-0600 (Central Standard Time),285079.7999997139,A,flower,I,r,74,1,1415.8999996185303,283663.90000009537,8019,WL,A,5.0
2,11.880000114440918,learn,48119.99988555908,Mon Jan 27 2025 18:32:20 GMT-0600 (Central Standard Time),285812.5,A,flowerenter,I,enter,725,1,2148.5999999046326,283663.90000009537,8019,WL,A,5.0
2,12.364000082015991,learn,47635.99991798401,Mon Jan 27 2025 18:32:20 GMT-0600 (Central Standard Time),286296.2999997139,A,s,I,s,463,1,483.59999990463257,285812.69999980927,8019,WL,A,6.0
2,12.563000202178955,learn,47436.999797821045,Mon Jan 27 2025 18:32:20 GMT-0600 (Central Standard Time),286495.40000009537,A,sa,I,a,187,1,682.7000002861023,285812.69999980927,8019,WL,A,6.0
2,12.680000066757202,learn,47319.9999332428,Mon Jan 27 2025 18:32:20 GMT-0600 (Central Standard Time),286612.59999990463,A,sal,I,l,102,1,799.9000000953674,285812.69999980927,8019,WL,A,6.0
2,12.981000185012817,learn,47018.99981498718,Mon Jan 27 2025 18:32:20 GMT-0600 (Central Standard Time),286913.59999990463,A,salt,I,t,277,1,1100.9000000953674,285812.69999980927,8019,WL,A,6.0
2,13.231000185012817,learn,46768.99981498718,Mon Jan 27 2025 18:32:20 GMT-0600 (Central Standard Time),287163.69999980927,A,saltenter,I,enter,234,1,1351.0,285812.69999980927,8019,WL,A,6.0
2,13.912000179290771,learn,46087.99982070923,Mon Jan 27 2025 18:32:20 GMT-0600 (Central Standard Time),287844.7999997139,A,f,I,f,666,1,680.8999996185303,287163.90000009537,8019,WL,A,7.0
2,14.064000129699707,learn,45935.99987030029,Mon Jan 27 2025 18:32:20 GMT-0600 (Central Standard Time),287996.59999990463,A,fi,I,i,136,1,832.6999998092651,287163.90000009537,8019,WL,A,7.0
2,14.128000020980835,learn,45871.999979019165,Mon Jan 27 2025 18:32:20 GMT-0600 (Central Standard Time),288060.2999997139,A,fin,I,n,55,1,896.3999996185303,287163.90000009537,8019,WL,A,7.0
2,14.228000164031982,learn,45771.99983596802,Mon Jan 27 2025 18:32:20 GMT-0600 (Central Standard Time),288160.5,A,fing,I,g,85,1,996.5999999046326,287163.90000009537,8019,WL,A,7.0
2,14.397000074386597,learn,45602.9999256134,Mon Jan 27 2025 18:32:20 GMT-0600 (Central Standard Time),288329.09999990463,A,finge,I,e,157,1,1165.1999998092651,287163.90000009537,8019,WL,A,7.0
2,14.462000131607056,learn,45537.999868392944,Mon Jan 27 2025 18:32:20 GMT-0600 (Central Standard Time),288394.69999980927,A,finger,I,r,49,1,1230.7999997138977,287163.90000009537,8019,WL,A,7.0
2,14.662000179290771,learn,45337.99982070923,Mon Jan 27 2025 18:32:20 GMT-0600 (Central Standard Time),288594.69999980927,A,fingerenter,I,enter,186,1,1430.7999997138977,287163.90000009537,8019,WL,A,7.0
2,15.513000011444092,learn,44486.99998855591,Mon Jan 27 2025 18:32:20 GMT-0600 (Central Standard Time),289445.19999980927,A,h,I,h,832,1,850.2999997138977,288594.90000009537,8019,WL,A,8.0
2,15.629000186920166,learn,44370.999813079834,Mon Jan 27 2025 18:32:20 GMT-0600 (Central Standard Time),289561.5,A,ha,I,a,103,1,966.5999999046326,288594.90000009537,8019,WL,A,8.0
2,15.76200008392334,learn,44237.99991607666,Mon Jan 27 2025 18:32:20 GMT-0600 (Central Standard Time),289694.59999990463,A,har,I,r,113,1,1099.6999998092651,288594.90000009537,8019,WL,A,8.0
2,16.062000036239624,learn,43937.999963760376,Mon Jan 27 2025 18:32:20 GMT-0600 (Central Standard Time),289994.90000009537,A,harp,I,p,292,1,1400.0,288594.90000009537,8019,WL,A,8.0
2,16.59600019454956,learn,43403.99980545044,Mon Jan 27 2025 18:32:20 GMT-0600 (Central Standard Time),290528.09999990463,A,harpenter,I,enter,521,1,1933.1999998092651,288594.90000009537,8019,WL,A,8.0
2,17.294000148773193,learn,42705.99985122681,Mon Jan 27 2025 18:32:20 GMT-0600 (Central Standard Time),291226.19999980927,A,r,I,r,684,1,697.7999997138977,290528.40000009537,8019,WL,A,9.0
2,17.41100001335144,learn,42588.99998664856,Mon Jan 27 2025 18:32:20 GMT-0600 (Central Standard Time),291343.5,A,ru,I,u,108,1,815.0999999046326,290528.40000009537,8019,WL,A,9.0
2,18.027000188827515,learn,41972.999811172485,Mon Jan 27 2025 18:32:20 GMT-0600 (Central Standard Time),291960.19999980927,A,rug,I,g,598,1,1431.7999997138977,290528.40000009537,8019,WL,A,9.0
2,18.59500002861023,learn,41404.99997138977,Mon Jan 27 2025 18:32:20 GMT-0600 (Central Standard Time),292527.69999980927,A,rugenter,I,enter,557,1,1999.2999997138977,290528.40000009537,8019,WL,A,9.0
2,19.32800006866455,learn,40671.99993133545,Mon Jan 27 2025 18:32:20 GMT-0600 (Central Standard Time),293260.59999990463,A,c,I,c,725,1,732.5999999046326,292528.0,8019,WL,A,10.0
2,19.427000045776367,learn,40572.99995422363,Mon Jan 27 2025 18:32:20 GMT-0600 (Central Standard Time),293360.5,A,ch,I,h,84,1,832.5,292528.0,8019,WL,A,10.0
2,19.66100001335144,learn,40338.99998664856,Mon Jan 27 2025 18:32:20 GMT-0600 (Central Standard Time),293594.09999990463,A,chi,I,i,220,1,1066.0999999046326,292528.0,8019,WL,A,10.0
2,19.81000018119812,learn,40189.99981880188,Mon Jan 27 2025 18:32:20 GMT-0600 (Central Standard Time),293743.19999980927,A,chim,I,m,142,1,1215.1999998092651,292528.0,8019,WL,A,10.0
2,20.426000118255615,learn,39573.999881744385,Mon Jan 27 2025 18:32:20 GMT-0600 (Central Standard Time),294359.09999990463,A,chimn,I,n,597,1,1831.0999999046326,292528.0,8019,WL,A,10.0
2,20.812000036239624,learn,39187.999963760376,Mon Jan 27 2025 18:32:20 GMT-0600 (Central Standard Time),294744.7999997139,A,chimne,I,e,363,1,2216.7999997138977,292528.0,8019,WL,A,10.0
2,20.927000045776367,learn,39072.99995422363,Mon Jan 27 2025 18:32:20 GMT-0600 (Central Standard Time),294859.59999990463,A,chimney,I,y,108,1,2331.5999999046326,292528.0,8019,WL,A,10.0
2,21.609000205993652,learn,38390.99979400635,Mon Jan 27 2025 18:32:20 GMT-0600 (Central Standard Time),295542.5,A,chimneyenter,I,enter,672,1,3014.5,292528.0,8019,WL,A,10.0
2,26.35800004005432,learn,33641.99995994568,Mon Jan 27 2025 18:32:20 GMT-0600 (Central Standard Time),300290.90000009537,A,b,I,b,4733,1,4748.10000038147,295542.7999997139,8019,WL,A,11.0
2,26.592000007629395,learn,33407.999992370605,Mon Jan 27 2025 18:32:20 GMT-0600 (Central Standard Time),300524.69999980927,A,bo,I,o,227,1,4981.900000095367,295542.7999997139,8019,WL,A,11.0
2,26.7260000705719,learn,33273.9999294281,Mon Jan 27 2025 18:32:20 GMT-0600 (Central Standard Time),300658.59999990463,A,boo,I,o,119,1,5115.800000190735,295542.7999997139,8019,WL,A,11.0
2,26.875,learn,33125.0,Mon Jan 27 2025 18:32:20 GMT-0600 (Central Standard Time),300807.5,A,book,I,k,130,1,5264.700000286102,295542.7999997139,8019,WL,A,11.0
2,27.259000062942505,learn,32740.999937057495,Mon Jan 27 2025 18:32:20 GMT-0600 (Central Standard Time),301191.69999980927,A,bookenter,I,enter,365,1,5648.900000095367,295542.7999997139,8019,WL,A,11.0
2,27.56000018119812,learn,32439.99981880188,Mon Jan 27 2025 18:32:20 GMT-0600 (Central Standard Time),301492.7999997139,A,f,I,f,278,1,300.8999996185303,301191.90000009537,8019,WL,A,12.0
2,27.824000120162964,learn,32175.999879837036,Mon Jan 27 2025 18:32:20 GMT-0600 (Central Standard Time),301757.5,A,fl,I,l,258,1,565.5999999046326,301191.90000009537,8019,WL,A,12.0
2,28.02500009536743,learn,31974.99990463257,Mon Jan 27 2025 18:32:20 GMT-0600 (Central Standard Time),301957.7999997139,A,flo,I,o,182,1,765.8999996185303,301191.90000009537,8019,WL,A,12.0
2,28.174000024795532,learn,31825.999975204468,Mon Jan 27 2025 18:32:20 GMT-0600 (Central Standard Time),302106.59999990463,A,flow,I,w,134,1,914.6999998092651,301191.90000009537,8019,WL,A,12.0
2,28.52400016784668,learn,31475.99983215332,Mon Jan 27 2025 18:32:20 GMT-0600 (Central Standard Time),302457.19999980927,A,flowe,I,e,339,1,1265.2999997138977,301191.90000009537,8019,WL,A,12.0
2,28.67300009727478,learn,31326.99990272522,Mon Jan 27 2025 18:32:20 GMT-0600 (Central Standard Time),302606.5,A,floweenter,I,enter,130,1,1414.5999999046326,301191.90000009537,8019,WL,A,12.0
2,30.159000158309937,learn,29840.999841690063,Mon Jan 27 2025 18:32:20 GMT-0600 (Central Standard Time),304092.0,A,t,I,t,1478,1,1485.3000001907349,302606.69999980927,8019,WL,A,13.0
2,30.359000205993652,learn,29640.999794006348,Mon Jan 27 2025 18:32:20 GMT-0600 (Central Standard Time),304292.0,A,tr,I,r,175,1,1685.3000001907349,302606.69999980927,8019,WL,A,13.0
2,30.44000005722046,learn,29559.99994277954,Mon Jan 27 2025 18:32:20 GMT-0600 (Central Standard Time),304373.2999997139,A,tra,I,a,63,1,1766.5999999046326,302606.69999980927,8019,WL,A,13.0
2,30.54200005531311,learn,29457.99994468689,Mon Jan 27 2025 18:32:20 GMT-0600 (Central Standard Time),304474.7999997139,A,trai,I,i,90,1,1868.0999999046326,302606.69999980927,8019,WL,A,13.0
2,30.62600016593933,learn,29373.99983406067,Mon Jan 27 2025 18:32:20 GMT-0600 (Central Standard Time),304558.7999997139,A,train,I,n,65,1,1952.0999999046326,302606.69999980927,8019,WL,A,13.0
2,33.289000034332275,learn,26710.999965667725,Mon Jan 27 2025 18:32:20 GMT-0600 (Central Standard Time),307222.09999990463,A,trai,I,backspace,2654,1,4615.400000095367,302606.69999980927,8019,WL,A,13.0
2,34.223000049591064,learn,25776.999950408936,Mon Jan 27 2025 18:32:20 GMT-0600 (Central Standard Time),308156.40000009537,A,tra,I,backspace,928,1,5549.700000286102,302606.69999980927,8019,WL,A,13.0
2,34.52300000190735,learn,25476.99999809265,Mon Jan 27 2025 18:32:20 GMT-0600 (Central Standard Time),308456.0,A,tr,I,backspace,277,1,5849.300000190735,302606.69999980927,8019,WL,A,13.0
2,34.67400002479553,learn,25325.999975204468,Mon Jan 27 2025 18:32:20 GMT-0600 (Central Standard Time),308607.40000009537,A,t,I,backspace,129,1,6000.700000286102,302606.69999980927,8019,WL,A,13.0
2,34.77300000190735,learn,25226.99999809265,Mon Jan 27 2025 18:32:20 GMT-0600 (Central Standard Time),308706.2999997139,A,,I,backspace,92,1,6099.599999904633,302606.69999980927,8019,WL,A,13.0
2,35.688000202178955,learn,24311.999797821045,Mon Jan 27 2025 18:32:20 GMT-0600 (Central Standard Time),309620.69999980927,A,h,I,h,897,1,7014.0,302606.69999980927,8019,WL,A,13.0
2,35.805999994277954,learn,24194.000005722046,Mon Jan 27 2025 18:32:20 GMT-0600 (Central Standard Time),309739.2999997139,A,ha,I,a,96,1,7132.599999904633,302606.69999980927,8019,WL,A,13.0
2,35.955000162124634,learn,24044.999837875366,Mon Jan 27 2025 18:32:20 GMT-0600 (Central Standard Time),309887.5,A,har,I,r,136,1,7280.800000190735,302606.69999980927,8019,WL,A,13.0
2,36.07200002670288,learn,23927.99997329712,Mon Jan 27 2025 18:32:20 GMT-0600 (Central Standard Time),310005.5,A,harp,I,p,110,1,7398.800000190735,302606.69999980927,8019,WL,A,13.0
2,36.771000146865845,learn,23228.999853134155,Mon Jan 27 2025 18:32:20 GMT-0600 (Central Standard Time),310704.5,A,harpr,I,r,675,1,8097.800000190735,302606.69999980927,8019,WL,A,13.0
2,36.973000049591064,learn,23026.999950408936,Mon Jan 27 2025 18:32:20 GMT-0600 (Central Standard Time),310906.40000009537,A,harpru,I,u,175,1,8299.700000286102,302606.69999980927,8019,WL,A,13.0
2,37.15500020980835,learn,22844.99979019165,Mon Jan 27 2025 18:32:20 GMT-0600 (Central Standard Time),311088.40000009537,A,harprug,I,g,168,1,8481.700000286102,302606.69999980927,8019,WL,A,13.0
2,38.121999979019165,learn,21878.000020980835,Mon Jan 27 2025 18:32:20 GMT-0600 (Central Standard Time),312054.59999990463,A,harprugg,I,g,955,1,9447.900000095367,302606.69999980927,8019,WL,A,13.0
2,38.187000036239624,learn,21812.999963760376,Mon Jan 27 2025 18:32:20 GMT-0600 (Central Standard Time),312119.59999990463,A,harpruggo,I,o,53,1,9512.900000095367,302606.69999980927,8019,WL,A,13.0
2,38.371999979019165,learn,21628.000020980835,Mon Jan 27 2025 18:32:20 GMT-0600 (Central Standard Time),312305.09999990463,A,harpruggol,I,l,172,1,9698.400000095367,302606.69999980927,8019,WL,A,13.0
2,38.55400013923645,learn,21445.99986076355,Mon Jan 27 2025 18:32:20 GMT-0600 (Central Standard Time),312487.40000009537,A,harpruggold,I,d,162,1,9880.700000286102,302606.69999980927,8019,WL,A,13.0
2,39.42200016975403,learn,20577.99983024597,Mon Jan 27 2025 18:32:20 GMT-0600 (Central Standard Time),313355.5,A,harpruggol,I,backspace,844,1,10748.800000190735,302606.69999980927,8019,WL,A,13.0
2,40.0550000667572,learn,19944.999933242798,Mon Jan 27 2025 18:32:20 GMT-0600 (Central Standard Time),313987.90000009537,A,harpruggo,I,backspace,615,1,11381.200000286102,302606.69999980927,8019,WL,A,13.0
2,40.205000162124634,learn,19794.999837875366,Mon Jan 27 2025 18:32:20 GMT-0600 (Central Standard Time),314138.2999997139,A,harprugg,I,backspace,126,1,11531.599999904633,302606.69999980927,8019,WL,A,13.0
2,40.40400004386902,learn,19595.99995613098,Mon Jan 27 2025 18:32:20 GMT-0600 (Central Standard Time),314337.19999980927,A,harprug,I,backspace,177,1,11730.5,302606.69999980927,8019,WL,A,13.0
2,40.53600001335144,learn,19463.99998664856,Mon Jan 27 2025 18:32:20 GMT-0600 (Central Standard Time),314469.40000009537,A,harpru,I,backspace,122,1,11862.700000286102,302606.69999980927,8019,WL,A,13.0
2,40.67200016975403,learn,19327.99983024597,Mon Jan 27 2025 18:32:20 GMT-0600 (Central Standard Time),314605.0,A,harpr,I,backspace,130,1,11998.300000190735,302606.69999980927,8019,WL,A,13.0
2,41.3050000667572,learn,18694.999933242798,Mon Jan 27 2025 18:32:20 GMT-0600 (Central Standard Time),315237.90000009537,A,harp,I,backspace,621,1,12631.200000286102,302606.69999980927,8019,WL,A,13.0
2,41.95300006866455,learn,18046.99993133545,Mon Jan 27 2025 18:32:20 GMT-0600 (Central Standard Time),315886.40000009537,A,harpenter,I,enter,635,1,13279.700000286102,302606.69999980927,8019,WL,A,13.0
2,42.85199999809265,learn,17148.00000190735,Mon Jan 27 2025 18:32:20 GMT-0600 (Central Standard Time),316784.90000009537,A,r,I,r,879,1,898.2000002861023,315886.69999980927,8019,WL,A,14.0
2,42.937000036239624,learn,17062.999963760376,Mon Jan 27 2025 18:32:20 GMT-0600 (Central Standard Time),316869.59999990463,A,ru,I,u,76,1,982.9000000953674,315886.69999980927,8019,WL,A,14.0
2,43.12000012397766,learn,16879.99987602234,Mon Jan 27 2025 18:32:20 GMT-0600 (Central Standard Time),317053.09999990463,A,rug,I,g,164,1,1166.4000000953674,315886.69999980927,8019,WL,A,14.0
2,43.336000204086304,learn,16663.999795913696,Mon Jan 27 2025 18:32:20 GMT-0600 (Central Standard Time),317268.90000009537,A,rugenter,I,enter,196,1,1382.2000002861023,315886.69999980927,8019,WL,A,14.0
2,44.32000017166138,learn,15679.999828338623,Mon Jan 27 2025 18:32:20 GMT-0600 (Central Standard Time),318253.5,A,g,I,g,961,1,984.3000001907349,317269.19999980927,8019,WL,A,15.0
2,44.43600010871887,learn,15563.999891281128,Mon Jan 27 2025 18:32:20 GMT-0600 (Central Standard Time),318369.2999997139,A,go,I,o,90,1,1100.0999999046326,317269.19999980927,8019,WL,A,15.0
2,44.95300006866455,learn,15046.99993133545,Mon Jan 27 2025 18:32:20 GMT-0600 (Central Standard Time),318886.0,A,gol,I,l,498,1,1616.8000001907349,317269.19999980927,8019,WL,A,15.0
2,45.236000061035156,learn,14763.999938964844,Mon Jan 27 2025 18:32:20 GMT-0600 (Central Standard Time),319168.90000009537,A,gold,I,d,271,1,1899.7000002861023,317269.19999980927,8019,WL,A,15.0
2,45.87100005149841,learn,14128.999948501587,Mon Jan 27 2025 18:32:20 GMT-0600 (Central Standard Time),319803.5,A,goldenter,I,enter,627,1,2534.300000190735,317269.19999980927,8019,WL,A,15.0
3,0.8989999294281006,learn,59101.0000705719,Mon Jan 27 2025 18:32:20 GMT-0600 (Central Standard Time),387846.7999997139,A,b,I,b,879,1,898.6999998092651,386948.09999990463,8019,WL,A,1.0
3,1.2170000076293945,learn,58782.999992370605,Mon Jan 27 2025 18:32:20 GMT-0600 (Central Standard Time),388164.7999997139,A,bo,I,o,309,1,1216.6999998092651,386948.09999990463,8019,WL,A,1.0
3,1.3650000095367432,learn,58634.99999046326,Mon Jan 27 2025 18:32:20 GMT-0600 (Central Standard Time),388312.90000009537,A,boo,I,o,126,1,1364.8000001907349,386948.09999990463,8019,WL,A,1.0
3,1.4819998741149902,learn,58518.00012588501,Mon Jan 27 2025 18:32:20 GMT-0600 (Central Standard Time),388429.40000009537,A,book,I,k,97,1,1481.3000001907349,386948.09999990463,8019,WL,A,1.0
3,1.8489999771118164,learn,58151.00002288818,Mon Jan 27 2025 18:32:20 GMT-0600 (Central Standard Time),388796.09999990463,A,bookenter,I,enter,352,1,1848.0,386948.09999990463,8019,WL,A,1.0
3,2.5490000247955322,learn,57450.99997520447,Mon Jan 27 2025 18:32:20 GMT-0600 (Central Standard Time),389496.7999997139,A,f,I,f,679,1,700.3999996185303,388796.40000009537,8019,WL,A,2.0
3,2.6989998817443848,learn,57301.000118255615,Mon Jan 27 2025 18:32:20 GMT-0600 (Central Standard Time),389646.69999980927,A,fl,I,l,138,1,850.2999997138977,388796.40000009537,8019,WL,A,2.0
3,2.865000009536743,learn,57134.99999046326,Mon Jan 27 2025 18:32:20 GMT-0600 (Central Standard Time),389813.09999990463,A,flo,I,o,149,1,1016.6999998092651,388796.40000009537,8019,WL,A,2.0
3,2.982999801635742,learn,57017.00019836426,Mon Jan 27 2025 18:32:20 GMT-0600 (Central Standard Time),389930.40000009537,A,flow,I,w,94,1,1134.0,388796.40000009537,8019,WL,A,2.0
3,3.0299999713897705,learn,56970.00002861023,Mon Jan 27 2025 18:32:20 GMT-0600 (Central Standard Time),389977.90000009537,A,flowe,I,e,23,1,1181.5,388796.40000009537,8019,WL,A,2.0
3,3.115999937057495,learn,56884.000062942505,Mon Jan 27 2025 18:32:20 GMT-0600 (Central Standard Time),390063.2999997139,A,flower,I,r,66,1,1266.8999996185303,388796.40000009537,8019,WL,A,2.0
3,3.5309998989105225,learn,56469.00010108948,Mon Jan 27 2025 18:32:20 GMT-0600 (Central Standard Time),390478.2999997139,A,flowerenter,I,enter,397,1,1681.8999996185303,388796.40000009537,8019,WL,A,2.0
3,4.016999959945679,learn,55983.00004005432,Mon Jan 27 2025 18:32:20 GMT-0600 (Central Standard Time),390964.19999980927,A,t,I,t,469,1,485.59999990463257,390478.59999990463,8019,WL,A,3.0
3,4.2159998416900635,learn,55784.00015830994,Mon Jan 27 2025 18:32:20 GMT-0600 (Central Standard Time),391164.19999980927,A,tr,I,r,194,1,685.5999999046326,390478.59999990463,8019,WL,A,3.0
3,4.297999858856201,learn,55702.0001411438,Mon Jan 27 2025 18:32:20 GMT-0600 (Central Standard Time),391245.2999997139,A,tra,I,a,72,1,766.6999998092651,390478.59999990463,8019,WL,A,3.0
3,4.46399998664856,learn,55536.00001335144,Mon Jan 27 2025 18:32:20 GMT-0600 (Central Standard Time),391411.59999990463,A,trai,I,i,151,1,933.0,390478.59999990463,8019,WL,A,3.0
3,4.5299999713897705,learn,55470.00002861023,Mon Jan 27 2025 18:32:20 GMT-0600 (Central Standard Time),391477.40000009537,A,train,I,n,46,1,998.8000001907349,390478.59999990463,8019,WL,A,3.0
3,5.113999843597412,learn,54886.00015640259,Mon Jan 27 2025 18:32:20 GMT-0600 (Central Standard Time),392061.59999990463,A,trainenter,I,enter,574,1,1583.0,390478.59999990463,8019,WL,A,3.0
3,5.898000001907349,learn,54101.99999809265,Mon Jan 27 2025 18:32:20 GMT-0600 (Central Standard Time),392845.40000009537,A,m,I,m,776,1,783.5,392061.90000009537,8019,WL,A,4.0
3,6.0309998989105225,learn,53969.00010108948,Mon Jan 27 2025 18:32:20 GMT-0600 (Central Standard Time),392978.69999980927,A,me,I,e,116,1,916.7999997138977,392061.90000009537,8019,WL,A,4.0
3,6.247999906539917,learn,53752.00009346008,Mon Jan 27 2025 18:32:20 GMT-0600 (Central Standard Time),393195.90000009537,A,mea,I,a,194,1,1134.0,392061.90000009537,8019,WL,A,4.0
3,6.48199987411499,learn,53518.00012588501,Mon Jan 27 2025 18:32:20 GMT-0600 (Central Standard Time),393429.19999980927,A,mead,I,d,214,1,1367.2999997138977,392061.90000009537,8019,WL,A,4.0
3,6.797999858856201,learn,53202.0001411438,Mon Jan 27 2025 18:32:20 GMT-0600 (Central Standard Time),393746.0,A,meado,I,o,301,1,1684.0999999046326,392061.90000009537,8019,WL,A,4.0
3,6.96399998664856,learn,53036.00001335144,Mon Jan 27 2025 18:32:20 GMT-0600 (Central Standard Time),393911.90000009537,A,meadow,I,w,147,1,1850.0,392061.90000009537,8019,WL,A,4.0
3,7.297999858856201,learn,52702.0001411438,Mon Jan 27 2025 18:32:20 GMT-0600 (Central Standard Time),394245.90000009537,A,meadowenter,I,enter,315,1,2184.0,392061.90000009537,8019,WL,A,4.0
3,8.031999826431274,learn,51968.000173568726,Mon Jan 27 2025 18:32:20 GMT-0600 (Central Standard Time),394979.19999980927,A,r,I,r,726,1,733.0,394246.19999980927,8019,WL,A,5.0
3,8.146999835968018,learn,51853.00016403198,Mon Jan 27 2025 18:32:20 GMT-0600 (Central Standard Time),395094.5,A,ru,I,u,104,1,848.3000001907349,394246.19999980927,8019,WL,A,5.0
3,8.347999811172485,learn,51652.000188827515,Mon Jan 27 2025 18:32:20 GMT-0600 (Central Standard Time),395296.09999990463,A,run,I,n,188,1,1049.9000000953674,394246.19999980927,8019,WL,A,5.0
3,8.513000011444092,learn,51486.99998855591,Mon Jan 27 2025 18:32:20 GMT-0600 (Central Standard Time),395460.5,A,rung,I,g,157,1,1214.3000001907349,394246.19999980927,8019,WL,A,5.0
3,8.863999843597412,learn,51136.00015640259,Mon Jan 27 2025 18:32:20 GMT-0600 (Central Standard Time),395811.69999980927,A,rungenter,I,enter,345,1,1565.5,394246.19999980927,8019,WL,A,5.0
3,10.077999830245972,learn,49922.00016975403,Mon Jan 27 2025 18:32:20 GMT-0600 (Central Standard Time),397025.90000009537,A,r,I,r,1207,1,1213.9000000953674,395812.0,8019,WL,A,6.0
3,10.230000019073486,learn,49769.999980926514,Mon Jan 27 2025 18:32:20 GMT-0600 (Central Standard Time),397177.59999990463,A,ru,I,u,141,1,1365.5999999046326,395812.0,8019,WL,A,6.0
3,10.497999906539917,learn,49502.00009346008,Mon Jan 27 2025 18:32:20 GMT-0600 (Central Standard Time),397445.5,A,rug,I,g,261,1,1633.5,395812.0,8019,WL,A,6.0
3,10.863999843597412,learn,49136.00015640259,Mon Jan 27 2025 18:32:20 GMT-0600 (Central Standard Time),397811.2999997139,A,rugenter,I,enter,358,1,1999.2999997138977,395812.0,8019,WL,A,6.0
3,11.760999917984009,learn,48239.00008201599,Mon Jan 27 2025 18:32:20 GMT-0600 (Central Standard Time),398708.59999990463,A,c,I,c,879,1,896.9000000953674,397811.69999980927,8019,WL,A,7.0
3,11.842999935150146,learn,48157.00006484985,Mon Jan 27 2025 18:32:20 GMT-0600 (Central Standard Time),398790.90000009537,A,ch,I,h,72,1,979.2000002861023,397811.69999980927,8019,WL,A,7.0
3,12.044999837875366,learn,47955.000162124634,Mon Jan 27 2025 18:32:20 GMT-0600 (Central Standard Time),398993.09999990463,A,chi,I,i,183,1,1181.4000000953674,397811.69999980927,8019,WL,A,7.0
3,12.178999900817871,learn,47821.00009918213,Mon Jan 27 2025 18:32:20 GMT-0600 (Central Standard Time),399127.09999990463,A,chim,I,m,110,1,1315.4000000953674,397811.69999980927,8019,WL,A,7.0
3,13.111999988555908,learn,46888.00001144409,Mon Jan 27 2025 18:32:20 GMT-0600 (Central Standard Time),400059.2999997139,A,chimn,I,n,915,1,2247.5999999046326,397811.69999980927,8019,WL,A,7.0
3,13.57699990272522,learn,46423.00009727478,Mon Jan 27 2025 18:32:20 GMT-0600 (Central Standard Time),400525.0,A,chimne,I,e,458,1,2713.300000190735,397811.69999980927,8019,WL,A,7.0
3,13.712999820709229,learn,46287.00017929077,Mon Jan 27 2025 18:32:20 GMT-0600 (Central Standard Time),400661.0,A,chimney,I,y,128,1,2849.300000190735,397811.69999980927,8019,WL,A,7.0
3,14.459999799728394,learn,45540.00020027161,Mon Jan 27 2025 18:32:20 GMT-0600 (Central Standard Time),401408.09999990463,A,chimneyenter,I,enter,725,1,3596.4000000953674,397811.69999980927,8019,WL,A,7.0
3,16.5939998626709,learn,43406.0001373291,Mon Jan 27 2025 18:32:20 GMT-0600 (Central Standard Time),403542.09999990463,A,r,I,r,2117,1,2133.699999809265,401408.40000009537,8019,WL,A,8.0
3,16.694000005722046,learn,43305.999994277954,Mon Jan 27 2025 18:32:20 GMT-0600 (Central Standard Time),403641.2999997139,A,ra,I,a,86,1,2232.8999996185303,401408.40000009537,8019,WL,A,8.0
3,17.110999822616577,learn,42889.00017738342,Mon Jan 27 2025 18:32:20 GMT-0600 (Central Standard Time),404058.7999997139,A,rat,I,t,395,1,2650.3999996185303,401408.40000009537,8019,WL,A,8.0
3,17.24399995803833,learn,42756.00004196167,Mon Jan 27 2025 18:32:20 GMT-0600 (Central Standard Time),404191.7999997139,A,ratt,I,t,113,1,2783.3999996185303,401408.40000009537,8019,WL,A,8.0
3,17.361999988555908,learn,42638.00001144409,Mon Jan 27 2025 18:32:20 GMT-0600 (Central Standard Time),404309.19999980927,A,rattl,I,l,109,1,2900.7999997138977,401408.40000009537,8019,WL,A,8.0
3,17.477999925613403,learn,42522.0000743866,Mon Jan 27 2025 18:32:20 GMT-0600 (Central Standard Time),404425.7999997139,A,rattle,I,e,94,1,3017.3999996185303,401408.40000009537,8019,WL,A,8.0
3,17.72699999809265,learn,42273.00000190735,Mon Jan 27 2025 18:32:20 GMT-0600 (Central Standard Time),404675.0,A,rattleenter,I,enter,232,1,3266.5999999046326,401408.40000009537,8019,WL,A,8.0
3,18.41100001335144,learn,41588.99998664856,Mon Jan 27 2025 18:32:20 GMT-0600 (Central Standard Time),405358.5,A,g,I,g,664,1,683.2000002861023,404675.2999997139,8019,WL,A,9.0
3,18.575999975204468,learn,41424.00002479553,Mon Jan 27 2025 18:32:20 GMT-0600 (Central Standard Time),405524.0,A,go,I,o,149,1,848.7000002861023,404675.2999997139,8019,WL,A,9.0
3,18.90999984741211,learn,41090.00015258789,Mon Jan 27 2025 18:32:20 GMT-0600 (Central Standard Time),405857.40000009537,A,gol,I,l,320,1,1182.1000003814697,404675.2999997139,8019,WL,A,9.0
3,19.22699999809265,learn,40773.00000190735,Mon Jan 27 2025 18:32:20 GMT-0600 (Central Standard Time),406175.09999990463,A,gold,I,d,297,1,1499.8000001907349,404675.2999997139,8019,WL,A,9.0
3,19.359999895095825,learn,40640.000104904175,Mon Jan 27 2025 18:32:20 GMT-0600 (Central Standard Time),406307.2999997139,A,goldenter,I,enter,116,1,1632.0,404675.2999997139,8019,WL,A,9.0
3,20.126999855041504,learn,39873.000144958496,Mon Jan 27 2025 18:32:20 GMT-0600 (Central Standard Time),407074.5,A,k,I,k,744,1,766.9000000953674,406307.59999990463,8019,WL,A,10.0
3,20.29199981689453,learn,39708.00018310547,Mon Jan 27 2025 18:32:20 GMT-0600 (Central Standard Time),407239.59999990463,A,ke,I,e,146,1,932.0,406307.59999990463,8019,WL,A,10.0
3,20.509999990463257,learn,39490.00000953674,Mon Jan 27 2025 18:32:20 GMT-0600 (Central Standard Time),407458.0,A,key,I,y,204,1,1150.4000000953674,406307.59999990463,8019,WL,A,10.0
3,21.674999952316284,learn,38325.000047683716,Mon Jan 27 2025 18:32:20 GMT-0600 (Central Standard Time),408622.5,A,keyb,I,b,1154,1,2314.9000000953674,406307.59999990463,8019,WL,A,10.0
3,21.95799994468689,learn,38042.00005531311,Mon Jan 27 2025 18:32:20 GMT-0600 (Central Standard Time),408906.09999990463,A,keybu,I,u,271,1,2598.5,406307.59999990463,8019,WL,A,10.0
3,22.258999824523926,learn,37741.000175476074,Mon Jan 27 2025 18:32:20 GMT-0600 (Central Standard Time),409206.19999980927,A,keybut,I,t,282,1,2898.5999999046326,406307.59999990463,8019,WL,A,10.0
3,22.375999927520752,learn,37624.00007247925,Mon Jan 27 2025 18:32:20 GMT-0600 (Central Standard Time),409323.59999990463,A,keybutt,I,t,102,1,3016.0,406307.59999990463,8019,WL,A,10.0
3,23.026000022888184,learn,36973.99997711182,Mon Jan 27 2025 18:32:20 GMT-0600 (Central Standard Time),409973.90000009537,A,keybut,I,backspace,643,1,3666.300000190735,406307.59999990463,8019,WL,A,10.0
3,23.143999814987183,learn,36856.00018501282,Mon Jan 27 2025 18:32:20 GMT-0600 (Central Standard Time),410091.09999990463,A,keybu,I,backspace,109,1,3783.5,406307.59999990463,8019,WL,A,10.0
3,23.276000022888184,learn,36723.99997711182,Mon Jan 27 2025 18:32:20 GMT-0600 (Central Standard Time),410223.5,A,keyb,I,backspace,120,1,3915.9000000953674,406307.59999990463,8019,WL,A,10.0
3,23.793999910354614,learn,36206.000089645386,Mon Jan 27 2025 18:32:20 GMT-0600 (Central Standard Time),410741.2999997139,A,key,I,backspace,511,1,4433.699999809265,406307.59999990463,8019,WL,A,10.0
3,24.375,learn,35625.0,Mon Jan 27 2025 18:32:20 GMT-0600 (Central Standard Time),411322.09999990463,A,keyenter,I,enter,568,1,5014.5,406307.59999990463,8019,WL,A,10.0
3,24.840999841690063,learn,35159.00015830994,Mon Jan 27 2025 18:32:20 GMT-0600 (Central Standard Time),411788.90000009537,A,b,I,b,457,1,466.6000003814697,411322.2999997139,8019,WL,A,11.0
3,25.090999841690063,learn,34909.00015830994,Mon Jan 27 2025 18:32:20 GMT-0600 (Central Standard Time),412038.7999997139,A,bu,I,u,230,1,716.5,411322.2999997139,8019,WL,A,11.0
3,25.54099988937378,learn,34459.00011062622,Mon Jan 27 2025 18:32:20 GMT-0600 (Central Standard Time),412489.90000009537,A,but,I,t,430,1,1167.6000003814697,411322.2999997139,8019,WL,A,11.0
3,25.656999826431274,learn,34343.000173568726,Mon Jan 27 2025 18:32:20 GMT-0600 (Central Standard Time),412605.2999997139,A,butt,I,t,98,1,1283.0,411322.2999997139,8019,WL,A,11.0
3,25.79199981689453,learn,34208.00018310547,Mon Jan 27 2025 18:32:20 GMT-0600 (Central Standard Time),412740.0,A,butto,I,o,128,1,1417.7000002861023,411322.2999997139,8019,WL,A,11.0
3,25.85699987411499,learn,34143.00012588501,Mon Jan 27 2025 18:32:20 GMT-0600 (Central Standard Time),412805.19999980927,A,button,I,n,55,1,1482.9000000953674,411322.2999997139,8019,WL,A,11.0
3,26.674000024795532,learn,33325.99997520447,Mon Jan 27 2025 18:32:20 GMT-0600 (Central Standard Time),413622.19999980927,A,buttonenter,I,enter,806,1,2299.9000000953674,411322.2999997139,8019,WL,A,11.0
3,27.490000009536743,learn,32509.999990463257,Mon Jan 27 2025 18:32:20 GMT-0600 (Central Standard Time),414438.59999990463,A,c,I,c,807,1,816.0999999046326,413622.5,8019,WL,A,12.0
3,27.607999801635742,learn,32392.000198364258,Mon Jan 27 2025 18:32:20 GMT-0600 (Central Standard Time),414556.5,A,ch,I,h,105,1,934.0,413622.5,8019,WL,A,12.0
3,27.79099988937378,learn,32209.00011062622,Mon Jan 27 2025 18:32:20 GMT-0600 (Central Standard Time),414739.40000009537,A,chu,I,u,171,1,1116.9000000953674,413622.5,8019,WL,A,12.0
3,28.256999969482422,learn,31743.000030517578,Mon Jan 27 2025 18:32:20 GMT-0600 (Central Standard Time),415205.5,A,ch,I,backspace,451,1,1583.0,413622.5,8019,WL,A,12.0
3,28.592000007629395,learn,31407.999992370605,Mon Jan 27 2025 18:32:20 GMT-0600 (Central Standard Time),415539.90000009537,A,chi,I,i,305,1,1917.4000000953674,413622.5,8019,WL,A,12.0
3,28.83899998664856,learn,31161.00001335144,Mon Jan 27 2025 18:32:20 GMT-0600 (Central Standard Time),415787.59999990463,A,chim,I,m,237,1,2165.0999999046326,413622.5,8019,WL,A,12.0
3,29.757999897003174,learn,30242.000102996826,Mon Jan 27 2025 18:32:20 GMT-0600 (Central Standard Time),416706.5,A,chimn,I,n,910,1,3084.0,413622.5,8019,WL,A,12.0
3,29.93999981880188,learn,30060.00018119812,Mon Jan 27 2025 18:32:20 GMT-0600 (Central Standard Time),416888.19999980927,A,chimne,I,e,160,1,3265.699999809265,413622.5,8019,WL,A,12.0
3,30.02300000190735,learn,29976.99999809265,Mon Jan 27 2025 18:32:20 GMT-0600 (Central Standard Time),416971.59999990463,A,chimney,I,y,75,1,3349.0999999046326,413622.5,8019,WL,A,12.0
3,30.371999979019165,learn,29628.000020980835,Mon Jan 27 2025 18:32:20 GMT-0600 (Central Standard Time),417320.0,A,chimneyenter,I,enter,326,1,3697.5,413622.5,8019,WL,A,12.0
3,31.391000032424927,learn,28608.999967575073,Mon Jan 27 2025 18:32:20 GMT-0600 (Central Standard Time),418339.09999990463,A,h,I,h,1012,1,1018.8000001907349,417320.2999997139,8019,WL,A,13.0
3,31.539999961853027,learn,28460.000038146973,Mon Jan 27 2025 18:32:20 GMT-0600 (Central Standard Time),418487.90000009537,A,ha,I,a,135,1,1167.6000003814697,417320.2999997139,8019,WL,A,13.0
3,31.721999883651733,learn,28278.000116348267,Mon Jan 27 2025 18:32:20 GMT-0600 (Central Standard Time),418670.69999980927,A,har,I,r,169,1,1350.4000000953674,417320.2999997139,8019,WL,A,13.0
3,32.00599980354309,learn,27994.00019645691,Mon Jan 27 2025 18:32:20 GMT-0600 (Central Standard Time),418954.2999997139,A,harp,I,p,260,1,1634.0,417320.2999997139,8019,WL,A,13.0
3,33.07099986076355,learn,26929.00013923645,Mon Jan 27 2025 18:32:20 GMT-0600 (Central Standard Time),420019.59999990463,A,harpenter,I,enter,1048,1,2699.300000190735,417320.2999997139,8019,WL,A,13.0
3,34.23899984359741,learn,25761.000156402588,Mon Jan 27 2025 18:32:20 GMT-0600 (Central Standard Time),421187.40000009537,A,s,I,s,1160,1,1167.5,420019.90000009537,8019,WL,A,14.0
3,34.30499982833862,learn,25695.000171661377,Mon Jan 27 2025 18:32:20 GMT-0600 (Central Standard Time),421253.59999990463,A,sa,I,a,46,1,1233.6999998092651,420019.90000009537,8019,WL,A,14.0
3,34.437000036239624,learn,25562.999963760376,Mon Jan 27 2025 18:32:20 GMT-0600 (Central Standard Time),421385.69999980927,A,sal,I,l,119,1,1365.7999997138977,420019.90000009537,8019,WL,A,14.0
3,34.621999979019165,learn,25378.000020980835,Mon Jan 27 2025 18:32:20 GMT-0600 (Central Standard Time),421569.90000009537,A,salt,I,t,160,1,1550.0,420019.90000009537,8019,WL,A,14.0
3,35.03699994087219,learn,24963.000059127808,Mon Jan 27 2025 18:32:20 GMT-0600 (Central Standard Time),421985.59999990463,A,saltenter,I,enter,385,1,1965.6999998092651,420019.90000009537,8019,WL,A,14.0
3,35.57099986076355,learn,24429.00013923645,Mon Jan 27 2025 18:32:20 GMT-0600 (Central Standard Time),422519.19999980927,A,f,I,f,523,1,533.2999997138977,421985.90000009537,8019,WL,A,15.0
3,35.72199988365173,learn,24278.000116348267,Mon Jan 27 2025 18:32:20 GMT-0600 (Central Standard Time),422670.09999990463,A,fi,I,i,130,1,684.1999998092651,421985.90000009537,8019,WL,A,15.0
3,35.76899981498718,learn,24231.000185012817,Mon Jan 27 2025 18:32:20 GMT-0600 (Central Standard Time),422717.19999980927,A,fin,I,n,23,1,731.2999997138977,421985.90000009537,8019,WL,A,15.0
3,35.871999979019165,learn,24128.000020980835,Mon Jan 27 2025 18:32:20 GMT-0600 (Central Standard Time),422820.59999990463,A,fing,I,g,95,1,834.6999998092651,421985.90000009537,8019,WL,A,15.0
3,36.03999996185303,learn,23960.000038146973,Mon Jan 27 2025 18:32:20 GMT-0600 (Central Standard Time),422988.0,A,finge,I,e,153,1,1002.0999999046326,421985.90000009537,8019,WL,A,15.0
3,36.10199999809265,learn,23898.00000190735,Mon Jan 27 2025 18:32:20 GMT-0600 (Central Standard Time),423050.2999997139,A,finger,I,r,39,1,1064.3999996185303,421985.90000009537,8019,WL,A,15.0
3,36.82200002670288,learn,23177.99997329712,Mon Jan 27 2025 18:32:20 GMT-0600 (Central Standard Time),423769.7999997139,A,fingerenter,I,enter,705,1,1783.8999996185303,421985.90000009537,8019,WL,A,15.0
4,0.9159998893737793,learn,59084.00011062622,Mon Jan 27 2025 18:32:20 GMT-0600 (Central Standard Time),493046.69999980927,A,b,I,b,903,1,915.2999997138977,492131.40000009537,8019,WL,A,1.0
4,1.1500000953674316,learn,58849.99990463257,Mon Jan 27 2025 18:32:20 GMT-0600 (Central Standard Time),493280.5,A,bo,I,o,212,1,1149.0999999046326,492131.40000009537,8019,WL,A,1.0
4,1.2990000247955322,learn,58700.99997520447,Mon Jan 27 2025 18:32:20 GMT-0600 (Central Standard Time),493429.69999980927,A,boo,I,o,128,1,1298.2999997138977,492131.40000009537,8019,WL,A,1.0
4,1.4509999752044678,learn,58549.00002479553,Mon Jan 27 2025 18:32:20 GMT-0600 (Central Standard Time),493581.2999997139,A,book,I,k,144,1,1449.8999996185303,492131.40000009537,8019,WL,A,1.0
4,2.815999984741211,learn,57184.00001525879,Mon Jan 27 2025 18:32:20 GMT-0600 (Central Standard Time),494946.90000009537,A,bookenter,I,enter,1350,1,2815.5,492131.40000009537,8019,WL,A,1.0
4,3.181999921798706,learn,56818.000078201294,Mon Jan 27 2025 18:32:20 GMT-0600 (Central Standard Time),495313.09999990463,A,f,I,f,353,1,365.90000009536743,494947.19999980927,8019,WL,A,2.0
4,3.315999984741211,learn,56684.00001525879,Mon Jan 27 2025 18:32:20 GMT-0600 (Central Standard Time),495447.0,A,fl,I,l,115,1,499.80000019073486,494947.19999980927,8019,WL,A,2.0
4,3.4660000801086426,learn,56533.99991989136,Mon Jan 27 2025 18:32:20 GMT-0600 (Central Standard Time),495596.40000009537,A,flo,I,o,133,1,649.2000002861023,494947.19999980927,8019,WL,A,2.0
4,3.5480000972747803,learn,56451.99990272522,Mon Jan 27 2025 18:32:20 GMT-0600 (Central Standard Time),495679.19999980927,A,flow,I,w,71,1,732.0,494947.19999980927,8019,WL,A,2.0
4,3.5989999771118164,learn,56401.00002288818,Mon Jan 27 2025 18:32:20 GMT-0600 (Central Standard Time),495729.40000009537,A,flowe,I,e,36,1,782.2000002861023,494947.19999980927,8019,WL,A,2.0
4,3.6649999618530273,learn,56335.00003814697,Mon Jan 27 2025 18:32:20 GMT-0600 (Central Standard Time),495795.90000009537,A,flower,I,r,42,1,848.7000002861023,494947.19999980927,8019,WL,A,2.0
4,4.04800009727478,learn,55951.99990272522,Mon Jan 27 2025 18:32:20 GMT-0600 (Central Standard Time),496179.19999980927,A,flowerenter,I,enter,376,1,1232.0,494947.19999980927,8019,WL,A,2.0
4,4.680999994277954,learn,55319.000005722046,Mon Jan 27 2025 18:32:20 GMT-0600 (Central Standard Time),496811.7999997139,A,t,I,t,617,1,632.2999997138977,496179.5,8019,WL,A,3.0
4,4.881999969482422,learn,55118.00003051758,Mon Jan 27 2025 18:32:20 GMT-0600 (Central Standard Time),497013.2999997139,A,tr,I,r,193,1,833.7999997138977,496179.5,8019,WL,A,3.0
4,4.96399998664856,learn,55036.00001335144,Mon Jan 27 2025 18:32:20 GMT-0600 (Central Standard Time),497095.09999990463,A,tra,I,a,61,1,915.5999999046326,496179.5,8019,WL,A,3.0
4,5.115000009536743,learn,54884.99999046326,Mon Jan 27 2025 18:32:20 GMT-0600 (Central Standard Time),497245.69999980927,A,trai,I,i,133,1,1066.1999998092651,496179.5,8019,WL,A,3.0
4,5.197000026702881,learn,54802.99997329712,Mon Jan 27 2025 18:32:20 GMT-0600 (Central Standard Time),497327.5,A,train,I,n,62,1,1148.0,496179.5,8019,WL,A,3.0
4,5.680000066757202,learn,54319.9999332428,Mon Jan 27 2025 18:32:20 GMT-0600 (Central Standard Time),497810.2999997139,A,trainenter,I,enter,475,1,1630.7999997138977,496179.5,8019,WL,A,3.0
4,7.11299991607666,learn,52887.00008392334,Mon Jan 27 2025 18:32:20 GMT-0600 (Central Standard Time),499243.69999980927,A,h,I,h,1420,1,1433.1999998092651,497810.5,8019,WL,A,4.0
4,7.263999938964844,learn,52736.000061035156,Mon Jan 27 2025 18:32:20 GMT-0600 (Central Standard Time),499395.0,A,ha,I,a,136,1,1584.5,497810.5,8019,WL,A,4.0
4,7.397000074386597,learn,52602.9999256134,Mon Jan 27 2025 18:32:20 GMT-0600 (Central Standard Time),499527.5,A,har,I,r,120,1,1717.0,497810.5,8019,WL,A,4.0
4,7.746999979019165,learn,52253.000020980835,Mon Jan 27 2025 18:32:20 GMT-0600 (Central Standard Time),499878.09999990463,A,harp,I,p,332,1,2067.5999999046326,497810.5,8019,WL,A,4.0
4,8.480999946594238,learn,51519.00005340576,Mon Jan 27 2025 18:32:20 GMT-0600 (Central Standard Time),500612.0,A,harpenter,I,enter,717,1,2801.5,497810.5,8019,WL,A,4.0
4,9.230000019073486,learn,50769.999980926514,Mon Jan 27 2025 18:32:20 GMT-0600 (Central Standard Time),501361.09999990463,A,r,I,r,735,1,748.9000000953674,500612.19999980927,8019,WL,A,5.0
4,9.361000061035156,learn,50638.999938964844,Mon Jan 27 2025 18:32:20 GMT-0600 (Central Standard Time),501492.19999980927,A,ru,I,u,115,1,880.0,500612.19999980927,8019,WL,A,5.0
4,9.510999917984009,learn,50489.00008201599,Mon Jan 27 2025 18:32:20 GMT-0600 (Central Standard Time),501642.09999990463,A,rug,I,g,145,1,1029.9000000953674,500612.19999980927,8019,WL,A,5.0
4,9.763000011444092,learn,50236.99998855591,Mon Jan 27 2025 18:32:20 GMT-0600 (Central Standard Time),501893.5,A,rugenter,I,enter,237,1,1281.3000001907349,500612.19999980927,8019,WL,A,5.0
4,10.579999923706055,learn,49420.000076293945,Mon Jan 27 2025 18:32:20 GMT-0600 (Central Standard Time),502710.69999980927,A,m,I,m,797,1,816.9000000953674,501893.7999997139,8019,WL,A,6.0
4,10.73200011253357,learn,49267.99988746643,Mon Jan 27 2025 18:32:20 GMT-0600 (Central Standard Time),502862.40000009537,A,me,I,e,130,1,968.6000003814697,501893.7999997139,8019,WL,A,6.0
4,10.928999900817871,learn,49071.00009918213,Mon Jan 27 2025 18:32:20 GMT-0600 (Central Standard Time),503059.59999990463,A,mea,I,a,179,1,1165.8000001907349,501893.7999997139,8019,WL,A,6.0
4,11.230000019073486,learn,48769.999980926514,Mon Jan 27 2025 18:32:20 GMT-0600 (Central Standard Time),503360.5,A,mead,I,d,279,1,1466.7000002861023,501893.7999997139,8019,WL,A,6.0
4,11.378999948501587,learn,48621.00005149841,Mon Jan 27 2025 18:32:20 GMT-0600 (Central Standard Time),503509.5,A,meado,I,o,131,1,1615.7000002861023,501893.7999997139,8019,WL,A,6.0
4,11.513000011444092,learn,48486.99998855591,Mon Jan 27 2025 18:32:20 GMT-0600 (Central Standard Time),503643.69999980927,A,meadow,I,w,118,1,1749.9000000953674,501893.7999997139,8019,WL,A,6.0
4,12.128999948501587,learn,47871.00005149841,Mon Jan 27 2025 18:32:20 GMT-0600 (Central Standard Time),504259.59999990463,A,meadowenter,I,enter,600,1,2365.800000190735,501893.7999997139,8019,WL,A,6.0
4,13.644000053405762,learn,46355.99994659424,Mon Jan 27 2025 18:32:20 GMT-0600 (Central Standard Time),505774.90000009537,A,s,I,s,1495,1,1515.0,504259.90000009537,8019,WL,A,7.0
4,13.746000051498413,learn,46253.99994850159,Mon Jan 27 2025 18:32:20 GMT-0600 (Central Standard Time),505876.40000009537,A,sa,I,a,85,1,1616.5,504259.90000009537,8019,WL,A,7.0
4,13.944999933242798,learn,46055.0000667572,Mon Jan 27 2025 18:32:20 GMT-0600 (Central Standard Time),506075.5,A,sal,I,l,183,1,1815.5999999046326,504259.90000009537,8019,WL,A,7.0
4,14.07800006866455,learn,45921.99993133545,Mon Jan 27 2025 18:32:20 GMT-0600 (Central Standard Time),506209.09999990463,A,salt,I,t,120,1,1949.1999998092651,504259.90000009537,8019,WL,A,7.0
4,15.061000108718872,learn,44938.99989128113,Mon Jan 27 2025 18:32:20 GMT-0600 (Central Standard Time),507191.40000009537,A,saltenter,I,enter,970,1,2931.5,504259.90000009537,8019,WL,A,7.0
4,15.811000108718872,learn,44188.99989128113,Mon Jan 27 2025 18:32:20 GMT-0600 (Central Standard Time),507942.19999980927,A,f,I,f,732,1,750.5,507191.69999980927,8019,WL,A,8.0
4,15.927000045776367,learn,44072.99995422363,Mon Jan 27 2025 18:32:20 GMT-0600 (Central Standard Time),508057.5,A,fi,I,i,103,1,865.8000001907349,507191.69999980927,8019,WL,A,8.0
4,15.993000030517578,learn,44006.99996948242,Mon Jan 27 2025 18:32:20 GMT-0600 (Central Standard Time),508124.09999990463,A,fin,I,n,52,1,932.4000000953674,507191.69999980927,8019,WL,A,8.0
4,16.09500002861023,learn,43904.99997138977,Mon Jan 27 2025 18:32:20 GMT-0600 (Central Standard Time),508225.40000009537,A,fing,I,g,80,1,1033.7000002861023,507191.69999980927,8019,WL,A,8.0
4,16.27900004386902,learn,43720.99995613098,Mon Jan 27 2025 18:32:20 GMT-0600 (Central Standard Time),508409.90000009537,A,finge,I,e,170,1,1218.2000002861023,507191.69999980927,8019,WL,A,8.0
4,16.32699990272522,learn,43673.00009727478,Mon Jan 27 2025 18:32:20 GMT-0600 (Central Standard Time),508458.09999990463,A,finger,I,r,26,1,1266.4000000953674,507191.69999980927,8019,WL,A,8.0
4,16.594000101089478,learn,43405.99989891052,Mon Jan 27 2025 18:32:20 GMT-0600 (Central Standard Time),508724.59999990463,A,fingerenter,I,enter,251,1,1532.9000000953674,507191.69999980927,8019,WL,A,8.0
4,17.161999940872192,learn,42838.00005912781,Mon Jan 27 2025 18:32:20 GMT-0600 (Central Standard Time),509293.0,A,a,I,a,561,1,568.2000002861023,508724.7999997139,8019,WL,A,9.0
4,17.48099994659424,learn,42519.00005340576,Mon Jan 27 2025 18:32:20 GMT-0600 (Central Standard Time),509611.40000009537,A,ap,I,p,311,1,886.6000003814697,508724.7999997139,8019,WL,A,9.0
4,17.627000093460083,learn,42372.99990653992,Mon Jan 27 2025 18:32:20 GMT-0600 (Central Standard Time),509757.7999997139,A,app,I,p,131,1,1033.0,508724.7999997139,8019,WL,A,9.0
4,17.82800006866455,learn,42171.99993133545,Mon Jan 27 2025 18:32:20 GMT-0600 (Central Standard Time),509958.40000009537,A,appl,I,l,182,1,1233.6000003814697,508724.7999997139,8019,WL,A,9.0
4,17.960999965667725,learn,42039.000034332275,Mon Jan 27 2025 18:32:20 GMT-0600 (Central Standard Time),510091.7999997139,A,apple,I,e,119,1,1367.0,508724.7999997139,8019,WL,A,9.0
4,18.109999895095825,learn,41890.000104904175,Mon Jan 27 2025 18:32:20 GMT-0600 (Central Standard Time),510240.2999997139,A,appleenter,I,enter,128,1,1515.5,508724.7999997139,8019,WL,A,9.0
4,21.842999935150146,learn,38157.00006484985,Mon Jan 27 2025 18:32:20 GMT-0600 (Central Standard Time),513973.90000009537,A,c,I,c,3725,1,3733.300000190735,510240.59999990463,8019,WL,A,10.0
4,21.925999879837036,learn,38074.000120162964,Mon Jan 27 2025 18:32:20 GMT-0600 (Central Standard Time),514056.59999990463,A,ch,I,h,69,1,3816.0,510240.59999990463,8019,WL,A,10.0
4,22.14199995994568,learn,37858.00004005432,Mon Jan 27 2025 18:32:20 GMT-0600 (Central Standard Time),514273.09999990463,A,chu,I,u,204,1,4032.5,510240.59999990463,8019,WL,A,10.0
4,22.97699999809265,learn,37023.00000190735,Mon Jan 27 2025 18:32:20 GMT-0600 (Central Standard Time),515107.69999980927,A,ch,I,backspace,829,1,4867.099999904633,510240.59999990463,8019,WL,A,10.0
4,23.64299988746643,learn,36357.00011253357,Mon Jan 27 2025 18:32:20 GMT-0600 (Central Standard Time),515773.40000009537,A,chu,I,u,649,1,5532.800000190735,510240.59999990463,8019,WL,A,10.0
4,24.026999950408936,learn,35973.000049591064,Mon Jan 27 2025 18:32:20 GMT-0600 (Central Standard Time),516157.69999980927,A,ch,I,backspace,374,1,5917.099999904633,510240.59999990463,8019,WL,A,10.0
4,24.924999952316284,learn,35075.000047683716,Mon Jan 27 2025 18:32:20 GMT-0600 (Central Standard Time),517055.2999997139,A,chi,I,i,883,1,6814.699999809265,510240.59999990463,8019,WL,A,10.0
4,25.141000032424927,learn,34858.99996757507,Mon Jan 27 2025 18:32:20 GMT-0600 (Central Standard Time),517272.09999990463,A,chim,I,m,205,1,7031.5,510240.59999990463,8019,WL,A,10.0
4,25.44099998474121,learn,34559.00001525879,Mon Jan 27 2025 18:32:20 GMT-0600 (Central Standard Time),517572.0,A,chimn,I,n,283,1,7331.400000095367,510240.59999990463,8019,WL,A,10.0
4,25.592000007629395,learn,34407.999992370605,Mon Jan 27 2025 18:32:20 GMT-0600 (Central Standard Time),517722.59999990463,A,chimne,I,e,133,1,7482.0,510240.59999990463,8019,WL,A,10.0
4,25.69000005722046,learn,34309.99994277954,Mon Jan 27 2025 18:32:20 GMT-0600 (Central Standard Time),517821.19999980927,A,chimney,I,y,89,1,7580.599999904633,510240.59999990463,8019,WL,A,10.0
4,26.657999992370605,learn,33342.000007629395,Mon Jan 27 2025 18:32:20 GMT-0600 (Central Standard Time),518788.5,A,chimneyenter,I,enter,943,1,8547.900000095367,510240.59999990463,8019,WL,A,10.0
4,28.20900011062622,learn,31790.99988937378,Mon Jan 27 2025 18:32:20 GMT-0600 (Central Standard Time),520339.90000009537,A,b,I,b,1544,1,1551.1000003814697,518788.7999997139,8019,WL,A,11.0
4,29.242000102996826,learn,30757.999897003174,Mon Jan 27 2025 18:32:20 GMT-0600 (Central Standard Time),521372.69999980927,A,bu,I,u,1024,1,2583.9000000953674,518788.7999997139,8019,WL,A,11.0
4,29.622999906539917,learn,30377.000093460083,Mon Jan 27 2025 18:32:20 GMT-0600 (Central Standard Time),521753.90000009537,A,but,I,t,366,1,2965.1000003814697,518788.7999997139,8019,WL,A,11.0
4,29.756999969482422,learn,30243.000030517578,Mon Jan 27 2025 18:32:20 GMT-0600 (Central Standard Time),521887.7999997139,A,butt,I,t,114,1,3099.0,518788.7999997139,8019,WL,A,11.0
4,30.073999881744385,learn,29926.000118255615,Mon Jan 27 2025 18:32:20 GMT-0600 (Central Standard Time),522204.59999990463,A,butto,I,o,310,1,3415.800000190735,518788.7999997139,8019,WL,A,11.0
4,30.257999897003174,learn,29742.000102996826,Mon Jan 27 2025 18:32:20 GMT-0600 (Central Standard Time),522389.2999997139,A,button,I,n,177,1,3600.5,518788.7999997139,8019,WL,A,11.0
4,31.105000019073486,learn,28894.999980926514,Mon Jan 27 2025 18:32:20 GMT-0600 (Central Standard Time),523235.59999990463,A,buttonenter,I,enter,829,1,4446.800000190735,518788.7999997139,8019,WL,A,11.0
4,31.924999952316284,learn,28075.000047683716,Mon Jan 27 2025 18:32:20 GMT-0600 (Central Standard Time),524056.19999980927,A,l,I,l,799,1,820.2999997138977,523235.90000009537,8019,WL,A,12.0
4,32.10599994659424,learn,27894.00005340576,Mon Jan 27 2025 18:32:20 GMT-0600 (Central Standard Time),524237.2999997139,A,lo,I,o,163,1,1001.3999996185303,523235.90000009537,8019,WL,A,12.0
4,32.29099988937378,learn,27709.00011062622,Mon Jan 27 2025 18:32:20 GMT-0600 (Central Standard Time),524421.5999999046,A,log,I,g,177,1,1185.6999998092651,523235.90000009537,8019,WL,A,12.0
4,32.956000089645386,learn,27043.999910354614,Mon Jan 27 2025 18:32:20 GMT-0600 (Central Standard Time),525086.9000000954,A,logenter,I,enter,644,1,1851.0,523235.90000009537,8019,WL,A,12.0
4,36.27300000190735,learn,23726.99999809265,Mon Jan 27 2025 18:32:20 GMT-0600 (Central Standard Time),528404.0,A,k,I,k,3310,1,3316.800000190735,525087.1999998093,8019,WL,A,13.0
4,36.473000049591064,learn,23526.999950408936,Mon Jan 27 2025 18:32:20 GMT-0600 (Central Standard Time),528603.5,A,ke,I,e,192,1,3516.300000190735,525087.1999998093,8019,WL,A,13.0
4,36.65499997138977,learn,23345.00002861023,Mon Jan 27 2025 18:32:20 GMT-0600 (Central Standard Time),528786.0999999046,A,key,I,y,170,1,3698.9000000953674,525087.1999998093,8019,WL,A,13.0
4,37.13800001144409,learn,22861.99998855591,Mon Jan 27 2025 18:32:20 GMT-0600 (Central Standard Time),529268.5,A,keyenter,I,enter,476,1,4181.300000190735,525087.1999998093,8019,WL,A,13.0
4,38.83699989318848,learn,21163.000106811523,Mon Jan 27 2025 18:32:20 GMT-0600 (Central Standard Time),530967.5,A,r,I,r,1679,1,1698.8000001907349,529268.6999998093,8019,WL,A,14.0
4,38.937000036239624,learn,21062.999963760376,Mon Jan 27 2025 18:32:20 GMT-0600 (Central Standard Time),531067.6999998093,A,ra,I,a,85,1,1799.0,529268.6999998093,8019,WL,A,14.0
4,39.2039999961853,learn,20796.000003814697,Mon Jan 27 2025 18:32:20 GMT-0600 (Central Standard Time),531334.7999997139,A,rat,I,t,255,1,2066.0999999046326,529268.6999998093,8019,WL,A,14.0
4,39.33800005912781,learn,20661.999940872192,Mon Jan 27 2025 18:32:20 GMT-0600 (Central Standard Time),531468.6999998093,A,ratt,I,t,118,1,2200.0,529268.6999998093,8019,WL,A,14.0
4,39.6710000038147,learn,20328.999996185303,Mon Jan 27 2025 18:32:20 GMT-0600 (Central Standard Time),531802.0,A,rattl,I,l,310,1,2533.300000190735,529268.6999998093,8019,WL,A,14.0
4,39.80299997329712,learn,20197.00002670288,Mon Jan 27 2025 18:32:20 GMT-0600 (Central Standard Time),531934.5,A,rattle,I,e,114,1,2665.800000190735,529268.6999998093,8019,WL,A,14.0
4,41.11999988555908,learn,18880.000114440918,Mon Jan 27 2025 18:32:20 GMT-0600 (Central Standard Time),533251.6999998093,A,rattleenter,I,enter,1312,1,3983.0,529268.6999998093,8019,WL,A,14.0
4,42.18600010871887,learn,17813.999891281128,Mon Jan 27 2025 18:32:20 GMT-0600 (Central Standard Time),534317.5999999046,A,g,I,g,1047,1,1065.5999999046326,533252.0,8019,WL,A,15.0
4,42.38599991798401,learn,17614.00008201599,Mon Jan 27 2025 18:32:20 GMT-0600 (Central Standard Time),534517.5999999046,A,go,I,o,188,1,1265.5999999046326,533252.0,8019,WL,A,15.0
4,42.569000005722046,learn,17430.999994277954,Mon Jan 27 2025 18:32:20 GMT-0600 (Central Standard Time),534700.4000000954,A,gol,I,l,173,1,1448.4000000953674,533252.0,8019,WL,A,15.0
4,42.72000002861023,learn,17279.99997138977,Mon Jan 27 2025 18:32:20 GMT-0600 (Central Standard Time),534851.2999997139,A,gold,I,d,133,1,1599.2999997138977,533252.0,8019,WL,A,15.0
4,43.736000061035156,learn,16263.999938964844,Mon Jan 27 2025 18:32:20 GMT-0600 (Central Standard Time),535866.9000000954,A,goldenter,I,enter,1000,1,2614.9000000953674,533252.0,8019,WL,A,15.0
5,1.3840000629425049,learn,60000.0,Mon Jan 27 2025 18:32:20 GMT-0600 (Central Standard Time),608445.0999999046,A,b,I,b,1364,1,1383.4000000953674,607061.6999998093,8019,WL,A,1.0
5,1.565999984741211,learn,60000.0,Mon Jan 27 2025 18:32:20 GMT-0600 (Central Standard Time),608627.0,A,bo,I,o,167,1,1565.3000001907349,607061.6999998093,8019,WL,A,1.0
5,2.366000175476074,learn,60000.0,Mon Jan 27 2025 18:32:20 GMT-0600 (Central Standard Time),609426.4000000954,A,boo,I,o,784,1,2364.7000002861023,607061.6999998093,8019,WL,A,1.0
5,2.5329999923706055,learn,60000.0,Mon Jan 27 2025 18:32:20 GMT-0600 (Central Standard Time),609593.5999999046,A,book,I,k,145,1,2531.9000000953674,607061.6999998093,8019,WL,A,1.0
5,2.866000175476074,learn,60000.0,Mon Jan 27 2025 18:32:20 GMT-0600 (Central Standard Time),609926.6999998093,A,bookenter,I,enter,323,1,2865.0,607061.6999998093,8019,WL,A,1.0
5,3.4160001277923584,learn,60000.0,Mon Jan 27 2025 18:32:20 GMT-0600 (Central Standard Time),610476.6999998093,A,f,I,f,535,1,549.6999998092651,609927.0,8019,WL,A,2.0
5,3.565999984741211,learn,60000.0,Mon Jan 27 2025 18:32:20 GMT-0600 (Central Standard Time),610626.5999999046,A,fl,I,l,135,1,699.5999999046326,609927.0,8019,WL,A,2.0
5,3.7150001525878906,learn,60000.0,Mon Jan 27 2025 18:32:20 GMT-0600 (Central Standard Time),610776.1999998093,A,flo,I,o,136,1,849.1999998092651,609927.0,8019,WL,A,2.0
5,3.7990000247955322,learn,60000.0,Mon Jan 27 2025 18:32:20 GMT-0600 (Central Standard Time),610859.6999998093,A,flow,I,w,76,1,932.6999998092651,609927.0,8019,WL,A,2.0
5,3.864000082015991,learn,60000.0,Mon Jan 27 2025 18:32:20 GMT-0600 (Central Standard Time),610924.9000000954,A,flowe,I,e,49,1,997.9000000953674,609927.0,8019,WL,A,2.0
5,3.930999994277954,learn,60000.0,Mon Jan 27 2025 18:32:20 GMT-0600 (Central Standard Time),610991.5,A,flower,I,r,53,1,1064.5,609927.0,8019,WL,A,2.0
5,4.39900016784668,learn,60000.0,Mon Jan 27 2025 18:32:20 GMT-0600 (Central Standard Time),611459.5999999046,A,flowerenter,I,enter,454,1,1532.5999999046326,609927.0,8019,WL,A,2.0
5,5.082000017166138,learn,60000.0,Mon Jan 27 2025 18:32:20 GMT-0600 (Central Standard Time),612143.0,A,t,I,t,661,1,683.2000002861023,611459.7999997139,8019,WL,A,3.0
5,5.266000032424927,learn,60000.0,Mon Jan 27 2025 18:32:20 GMT-0600 (Central Standard Time),612326.5999999046,A,tr,I,r,166,1,866.8000001907349,611459.7999997139,8019,WL,A,3.0
5,5.365000009536743,learn,60000.0,Mon Jan 27 2025 18:32:20 GMT-0600 (Central Standard Time),612425.7999997139,A,tra,I,a,86,1,966.0,611459.7999997139,8019,WL,A,3.0
5,5.5320000648498535,learn,60000.0,Mon Jan 27 2025 18:32:20 GMT-0600 (Central Standard Time),612592.5999999046,A,trai,I,i,146,1,1132.8000001907349,611459.7999997139,8019,WL,A,3.0
5,5.5970001220703125,learn,60000.0,Mon Jan 27 2025 18:32:20 GMT-0600 (Central Standard Time),612658.0,A,train,I,n,51,1,1198.2000002861023,611459.7999997139,8019,WL,A,3.0
5,6.21399998664856,learn,60000.0,Mon Jan 27 2025 18:32:20 GMT-0600 (Central Standard Time),613275.1999998093,A,trainenter,I,enter,610,1,1815.4000000953674,611459.7999997139,8019,WL,A,3.0
5,7.514000177383423,learn,60000.0,Mon Jan 27 2025 18:32:20 GMT-0600 (Central Standard Time),614574.5999999046,A,r,I,r,1281,1,1299.0999999046326,613275.5,8019,WL,A,4.0
5,7.648000001907349,learn,60000.0,Mon Jan 27 2025 18:32:20 GMT-0600 (Central Standard Time),614708.7999997139,A,ru,I,u,126,1,1433.2999997138977,613275.5,8019,WL,A,4.0
5,7.96399998664856,learn,60000.0,Mon Jan 27 2025 18:32:20 GMT-0600 (Central Standard Time),615025.0,A,rug,I,g,304,1,1749.5,613275.5,8019,WL,A,4.0
5,8.880000114440918,learn,60000.0,Mon Jan 27 2025 18:32:20 GMT-0600 (Central Standard Time),615940.7999997139,A,rugenter,I,enter,908,1,2665.2999997138977,613275.5,8019,WL,A,4.0
5,10.163000106811523,learn,60000.0,Mon Jan 27 2025 18:32:20 GMT-0600 (Central Standard Time),617224.0,A,m,I,m,1264,1,1283.0,615941.0,8019,WL,A,5.0
5,10.263000011444092,learn,60000.0,Mon Jan 27 2025 18:32:20 GMT-0600 (Central Standard Time),617324.1999998093,A,me,I,e,83,1,1383.1999998092651,615941.0,8019,WL,A,5.0
5,10.79800009727478,learn,60000.0,Mon Jan 27 2025 18:32:20 GMT-0600 (Central Standard Time),617859.1999998093,A,mea,I,a,529,1,1918.1999998092651,615941.0,8019,WL,A,5.0
5,10.996999979019165,learn,60000.0,Mon Jan 27 2025 18:32:20 GMT-0600 (Central Standard Time),618057.6999998093,A,mead,I,d,186,1,2116.699999809265,615941.0,8019,WL,A,5.0
5,11.146000146865845,learn,60000.0,Mon Jan 27 2025 18:32:20 GMT-0600 (Central Standard Time),618207.2999997139,A,meado,I,o,132,1,2266.2999997138977,615941.0,8019,WL,A,5.0
5,11.263000011444092,learn,60000.0,Mon Jan 27 2025 18:32:20 GMT-0600 (Central Standard Time),618324.0,A,meadow,I,w,101,1,2383.0,615941.0,8019,WL,A,5.0
5,11.696000099182129,learn,60000.0,Mon Jan 27 2025 18:32:20 GMT-0600 (Central Standard Time),618757.1999998093,A,meadowenter,I,enter,415,1,2816.199999809265,615941.0,8019,WL,A,5.0
5,12.263000011444092,learn,60000.0,Mon Jan 27 2025 18:32:20 GMT-0600 (Central Standard Time),619324.1999998093,A,h,I,h,559,1,566.7999997138977,618757.4000000954,8019,WL,A,6.0
5,12.396000146865845,learn,60000.0,Mon Jan 27 2025 18:32:20 GMT-0600 (Central Standard Time),619456.6999998093,A,ha,I,a,119,1,699.2999997138977,618757.4000000954,8019,WL,A,6.0
5,12.547000169754028,learn,60000.0,Mon Jan 27 2025 18:32:20 GMT-0600 (Central Standard Time),619608.1999998093,A,har,I,r,132,1,850.7999997138977,618757.4000000954,8019,WL,A,6.0
5,12.84500002861023,learn,60000.0,Mon Jan 27 2025 18:32:20 GMT-0600 (Central Standard Time),619906.0999999046,A,harp,I,p,284,1,1148.6999998092651,618757.4000000954,8019,WL,A,6.0
5,13.128000020980835,learn,60000.0,Mon Jan 27 2025 18:32:20 GMT-0600 (Central Standard Time),620189.2999997139,A,harpenter,I,enter,277,1,1431.8999996185303,618757.4000000954,8019,WL,A,6.0
5,15.611999988555908,learn,60000.0,Mon Jan 27 2025 18:32:20 GMT-0600 (Central Standard Time),622672.9000000954,A,s,I,s,2472,1,2483.300000190735,620189.5999999046,8019,WL,A,7.0
5,15.677000045776367,learn,60000.0,Mon Jan 27 2025 18:32:20 GMT-0600 (Central Standard Time),622738.1999998093,A,sa,I,a,42,1,2548.5999999046326,620189.5999999046,8019,WL,A,7.0
5,16.061000108718872,learn,60000.0,Mon Jan 27 2025 18:32:20 GMT-0600 (Central Standard Time),623121.9000000954,A,sal,I,l,363,1,2932.300000190735,620189.5999999046,8019,WL,A,7.0
5,16.344000101089478,learn,60000.0,Mon Jan 27 2025 18:32:20 GMT-0600 (Central Standard Time),623404.5,A,salt,I,t,266,1,3214.9000000953674,620189.5999999046,8019,WL,A,7.0
5,16.544000148773193,learn,60000.0,Mon Jan 27 2025 18:32:20 GMT-0600 (Central Standard Time),623604.9000000954,A,saltenter,I,enter,193,1,3415.300000190735,620189.5999999046,8019,WL,A,7.0
5,17.028000116348267,learn,60000.0,Mon Jan 27 2025 18:32:20 GMT-0600 (Central Standard Time),624088.4000000954,A,f,I,f,471,1,483.30000019073486,623605.0999999046,8019,WL,A,8.0
5,17.127000093460083,learn,60000.0,Mon Jan 27 2025 18:32:20 GMT-0600 (Central Standard Time),624187.5,A,fi,I,i,81,1,582.4000000953674,623605.0999999046,8019,WL,A,8.0
5,17.211000204086304,learn,60000.0,Mon Jan 27 2025 18:32:20 GMT-0600 (Central Standard Time),624272.2999997139,A,fin,I,n,64,1,667.1999998092651,623605.0999999046,8019,WL,A,8.0
5,17.34500002861023,learn,60000.0,Mon Jan 27 2025 18:32:20 GMT-0600 (Central Standard Time),624405.4000000954,A,fing,I,g,114,1,800.3000001907349,623605.0999999046,8019,WL,A,8.0
5,17.51200008392334,learn,60000.0,Mon Jan 27 2025 18:32:20 GMT-0600 (Central Standard Time),624573.0,A,finge,I,e,158,1,967.9000000953674,623605.0999999046,8019,WL,A,8.0
5,17.5770001411438,learn,60000.0,Mon Jan 27 2025 18:32:20 GMT-0600 (Central Standard Time),624637.9000000954,A,finger,I,r,46,1,1032.8000001907349,623605.0999999046,8019,WL,A,8.0
5,18.009999990463257,learn,60000.0,Mon Jan 27 2025 18:32:20 GMT-0600 (Central Standard Time),625070.5999999046,A,fingerenter,I,enter,424,1,1465.5,623605.0999999046,8019,WL,A,8.0
5,21.377000093460083,learn,60000.0,Mon Jan 27 2025 18:32:20 GMT-0600 (Central Standard Time),628438.0,A,a,I,a,3350,1,3367.0,625071.0,8019,WL,A,9.0
5,21.62600016593933,learn,60000.0,Mon Jan 27 2025 18:32:20 GMT-0600 (Central Standard Time),628686.5,A,ap,I,p,229,1,3615.5,625071.0,8019,WL,A,9.0
5,21.743000030517578,learn,60000.0,Mon Jan 27 2025 18:32:20 GMT-0600 (Central Standard Time),628803.4000000954,A,app,I,p,95,1,3732.4000000953674,625071.0,8019,WL,A,9.0
5,21.927000045776367,learn,60000.0,Mon Jan 27 2025 18:32:20 GMT-0600 (Central Standard Time),628987.5999999046,A,appl,I,l,180,1,3916.5999999046326,625071.0,8019,WL,A,9.0
5,22.09500002861023,learn,60000.0,Mon Jan 27 2025 18:32:20 GMT-0600 (Central Standard Time),629156.2999997139,A,apple,I,e,147,1,4085.2999997138977,625071.0,8019,WL,A,9.0
5,22.742000102996826,learn,60000.0,Mon Jan 27 2025 18:32:20 GMT-0600 (Central Standard Time),629803.1999998093,A,appleenter,I,enter,633,1,4732.199999809265,625071.0,8019,WL,A,9.0
5,23.409000158309937,learn,60000.0,Mon Jan 27 2025 18:32:20 GMT-0600 (Central Standard Time),630469.5,A,c,I,c,659,1,666.0,629803.5,8019,WL,A,10.0
5,23.942000150680542,learn,60000.0,Mon Jan 27 2025 18:32:20 GMT-0600 (Central Standard Time),631002.7999997139,A,ch,I,h,525,1,1199.2999997138977,629803.5,8019,WL,A,10.0
5,24.127000093460083,learn,60000.0,Mon Jan 27 2025 18:32:20 GMT-0600 (Central Standard Time),631187.5999999046,A,chi,I,i,177,1,1384.0999999046326,629803.5,8019,WL,A,10.0
5,24.37600016593933,learn,60000.0,Mon Jan 27 2025 18:32:20 GMT-0600 (Central Standard Time),631436.9000000954,A,chim,I,m,231,1,1633.4000000953674,629803.5,8019,WL,A,10.0
5,24.676000118255615,learn,60000.0,Mon Jan 27 2025 18:32:20 GMT-0600 (Central Standard Time),631736.5,A,chimn,I,n,286,1,1933.0,629803.5,8019,WL,A,10.0
5,24.842000007629395,learn,60000.0,Mon Jan 27 2025 18:32:20 GMT-0600 (Central Standard Time),631902.5,A,chimne,I,e,148,1,2099.0,629803.5,8019,WL,A,10.0
5,24.992000102996826,learn,60000.0,Mon Jan 27 2025 18:32:20 GMT-0600 (Central Standard Time),632052.9000000954,A,chimney,I,y,134,1,2249.4000000953674,629803.5,8019,WL,A,10.0
5,26.343000173568726,learn,60000.0,Mon Jan 27 2025 18:32:20 GMT-0600 (Central Standard Time),633403.7999997139,A,chimneyenter,I,enter,1345,1,3600.2999997138977,629803.5,8019,WL,A,10.0
5,29.69000005722046,learn,60000.0,Mon Jan 27 2025 18:32:20 GMT-0600 (Central Standard Time),636751.1999998093,A,b,I,b,3327,1,3347.199999809265,633404.0,8019,WL,A,11.0
5,29.890000104904175,learn,60000.0,Mon Jan 27 2025 18:32:20 GMT-0600 (Central Standard Time),636951.2999997139,A,bu,I,u,181,1,3547.2999997138977,633404.0,8019,WL,A,11.0
5,30.44099998474121,learn,60000.0,Mon Jan 27 2025 18:32:20 GMT-0600 (Central Standard Time),637501.2999997139,A,but,I,t,534,1,4097.299999713898,633404.0,8019,WL,A,11.0
5,30.59000015258789,learn,60000.0,Mon Jan 27 2025 18:32:20 GMT-0600 (Central Standard Time),637651.0,A,butt,I,t,133,1,4247.0,633404.0,8019,WL,A,11.0
5,30.757000207901,learn,60000.0,Mon Jan 27 2025 18:32:20 GMT-0600 (Central Standard Time),637818.0,A,butto,I,o,143,1,4414.0,633404.0,8019,WL,A,11.0
5,30.957000017166138,learn,60000.0,Mon Jan 27 2025 18:32:20 GMT-0600 (Central Standard Time),638017.4000000954,A,button,I,n,185,1,4613.400000095367,633404.0,8019,WL,A,11.0
5,31.27300000190735,learn,60000.0,Mon Jan 27 2025 18:32:20 GMT-0600 (Central Standard Time),638334.0999999046,A,buttonenter,I,enter,307,1,4930.099999904633,633404.0,8019,WL,A,11.0
5,32.33899998664856,learn,60000.0,Mon Jan 27 2025 18:32:20 GMT-0600 (Central Standard Time),639399.7999997139,A,l,I,l,1045,1,1065.3999996185303,638334.4000000954,8019,WL,A,12.0
5,32.507000207901,learn,60000.0,Mon Jan 27 2025 18:32:20 GMT-0600 (Central Standard Time),639567.5999999046,A,lo,I,o,153,1,1233.1999998092651,638334.4000000954,8019,WL,A,12.0
5,32.688000202178955,learn,60000.0,Mon Jan 27 2025 18:32:20 GMT-0600 (Central Standard Time),639749.1999998093,A,log,I,g,173,1,1414.7999997138977,638334.4000000954,8019,WL,A,12.0
5,33.38900017738342,learn,60000.0,Mon Jan 27 2025 18:32:20 GMT-0600 (Central Standard Time),640449.2999997139,A,logenter,I,enter,677,1,2114.8999996185303,638334.4000000954,8019,WL,A,12.0
5,34.0220000743866,learn,60000.0,Mon Jan 27 2025 18:32:20 GMT-0600 (Central Standard Time),641083.2999997139,A,k,I,k,619,1,633.6999998092651,640449.5999999046,8019,WL,A,13.0
5,34.19099998474121,learn,60000.0,Mon Jan 27 2025 18:32:20 GMT-0600 (Central Standard Time),641251.4000000954,A,ke,I,e,161,1,801.8000001907349,640449.5999999046,8019,WL,A,13.0
5,34.371999979019165,learn,60000.0,Mon Jan 27 2025 18:32:20 GMT-0600 (Central Standard Time),641432.5,A,key,I,y,166,1,982.9000000953674,640449.5999999046,8019,WL,A,13.0
5,34.90500020980835,learn,60000.0,Mon Jan 27 2025 18:32:20 GMT-0600 (Central Standard Time),641966.2999997139,A,keyenter,I,enter,523,1,1516.6999998092651,640449.5999999046,8019,WL,A,13.0
5,36.58800005912781,learn,60000.0,Mon Jan 27 2025 18:32:20 GMT-0600 (Central Standard Time),643649.1999998093,A,r,I,r,1671,1,1682.6999998092651,641966.5,8019,WL,A,14.0
5,36.670000076293945,learn,60000.0,Mon Jan 27 2025 18:32:20 GMT-0600 (Central Standard Time),643731.1999998093,A,ra,I,a,73,1,1764.6999998092651,641966.5,8019,WL,A,14.0
5,37.48900008201599,learn,60000.0,Mon Jan 27 2025 18:32:20 GMT-0600 (Central Standard Time),644549.5999999046,A,rat,I,t,810,1,2583.0999999046326,641966.5,8019,WL,A,14.0
5,37.621999979019165,learn,60000.0,Mon Jan 27 2025 18:32:20 GMT-0600 (Central Standard Time),644683.0,A,ratt,I,t,125,1,2716.5,641966.5,8019,WL,A,14.0
5,37.80400013923645,learn,60000.0,Mon Jan 27 2025 18:32:20 GMT-0600 (Central Standard Time),644864.6999998093,A,rattl,I,l,166,1,2898.199999809265,641966.5,8019,WL,A,14.0
5,37.938000202178955,learn,60000.0,Mon Jan 27 2025 18:32:20 GMT-0600 (Central Standard Time),644999.1999998093,A,rattle,I,e,114,1,3032.699999809265,641966.5,8019,WL,A,14.0
5,38.28700017929077,learn,60000.0,Mon Jan 27 2025 18:32:20 GMT-0600 (Central Standard Time),645348.1999998093,A,rattleenter,I,enter,338,1,3381.699999809265,641966.5,8019,WL,A,14.0
5,39.004000186920166,learn,60000.0,Mon Jan 27 2025 18:32:20 GMT-0600 (Central Standard Time),646064.9000000954,A,g,I,g,696,1,716.5,645348.4000000954,8019,WL,A,15.0
5,39.17200016975403,learn,60000.0,Mon Jan 27 2025 18:32:20 GMT-0600 (Central Standard Time),646232.5999999046,A,go,I,o,147,1,884.1999998092651,645348.4000000954,8019,WL,A,15.0
5,39.37100005149841,learn,60000.0,Mon Jan 27 2025 18:32:20 GMT-0600 (Central Standard Time),646431.4000000954,A,gol,I,l,187,1,1083.0,645348.4000000954,8019,WL,A,15.0
5,40.07100009918213,learn,60000.0,Mon Jan 27 2025 18:32:20 GMT-0600 (Central Standard Time),647131.5,A,gold,I,d,683,1,1783.0999999046326,645348.4000000954,8019,WL,A,15.0
5,40.9210000038147,learn,60000.0,Mon Jan 27 2025 18:32:20 GMT-0600 (Central Standard Time),647981.4000000954,A,goldenter,I,enter,834,1,2633.0,645348.4000000954,8019,WL,A,15.0
6,3.313999891281128,distr,56686.00010871887,Mon Jan 27 2025 18:32:20 GMT-0600 (Central Standard Time),719424.4000000954,B,s,I,s,3305,1,3314.800000190735,716109.5999999046,8019,WL,A,1.0
6,3.364000082015991,distr,56635.99991798401,Mon Jan 27 2025 18:32:20 GMT-0600 (Central Standard Time),719474.0999999046,B,sh,I,h,28,1,3364.5,716109.5999999046,8019,WL,A,1.0
6,3.565000057220459,distr,56434.99994277954,Mon Jan 27 2025 18:32:20 GMT-0600 (Central Standard Time),719674.7999997139,B,she,I,e,196,1,3565.199999809265,716109.5999999046,8019,WL,A,1.0
6,3.7149999141693115,distr,56285.00008583069,Mon Jan 27 2025 18:32:20 GMT-0600 (Central Standard Time),719825.5,B,shee,I,e,128,1,3715.9000000953674,716109.5999999046,8019,WL,A,1.0
6,4.131999969482422,distr,55868.00003051758,Mon Jan 27 2025 18:32:20 GMT-0600 (Central Standard Time),720241.5999999046,B,sheep,I,p,394,1,4132.0,716109.5999999046,8019,WL,A,1.0
6,5.431999921798706,distr,54568.000078201294,Mon Jan 27 2025 18:32:20 GMT-0600 (Central Standard Time),721542.0,B,sheepenter,I,enter,1283,1,5432.400000095367,716109.5999999046,8019,WL,A,1.0
6,6.13100004196167,distr,53868.99995803833,Mon Jan 27 2025 18:32:20 GMT-0600 (Central Standard Time),722241.0999999046,B,s,I,s,679,1,698.9000000953674,721542.1999998093,8019,WL,A,2.0
6,6.312999963760376,distr,53687.000036239624,Mon Jan 27 2025 18:32:20 GMT-0600 (Central Standard Time),722422.7999997139,B,se,I,e,171,1,880.5999999046326,721542.1999998093,8019,WL,A,2.0
6,6.480000019073486,distr,53519.999980926514,Mon Jan 27 2025 18:32:20 GMT-0600 (Central Standard Time),722590.2999997139,B,see,I,e,157,1,1048.0999999046326,721542.1999998093,8019,WL,A,2.0
6,6.697999954223633,distr,53302.00004577637,Mon Jan 27 2025 18:32:20 GMT-0600 (Central Standard Time),722808.2999997139,B,seed,I,d,199,1,1266.0999999046326,721542.1999998093,8019,WL,A,2.0
6,6.86299991607666,distr,53137.00008392334,Mon Jan 27 2025 18:32:20 GMT-0600 (Central Standard Time),722973.2999997139,B,seedenter,I,enter,147,1,1431.0999999046326,721542.1999998093,8019,WL,A,2.0
6,7.596999883651733,distr,52403.00011634827,Mon Jan 27 2025 18:32:20 GMT-0600 (Central Standard Time),723707.0,B,c,I,c,727,1,733.5,722973.5,8019,WL,A,3.0
6,7.71399998664856,distr,52286.00001335144,Mon Jan 27 2025 18:32:20 GMT-0600 (Central Standard Time),723824.1999998093,B,ch,I,h,105,1,850.6999998092651,722973.5,8019,WL,A,3.0
6,7.832000017166138,distr,52167.99998283386,Mon Jan 27 2025 18:32:20 GMT-0600 (Central Standard Time),723941.9000000954,B,cha,I,a,109,1,968.4000000953674,722973.5,8019,WL,A,3.0
6,7.996999979019165,distr,52003.000020980835,Mon Jan 27 2025 18:32:20 GMT-0600 (Central Standard Time),724106.7999997139,B,chai,I,i,157,1,1133.2999997138977,722973.5,8019,WL,A,3.0
6,8.280999898910522,distr,51719.00010108948,Mon Jan 27 2025 18:32:20 GMT-0600 (Central Standard Time),724390.6999998093,B,chair,I,r,266,1,1417.1999998092651,722973.5,8019,WL,A,3.0
6,8.496000051498413,distr,51503.99994850159,Mon Jan 27 2025 18:32:20 GMT-0600 (Central Standard Time),724605.9000000954,B,chairenter,I,enter,197,1,1632.4000000953674,722973.5,8019,WL,A,3.0
6,9.296000003814697,distr,50703.9999961853,Mon Jan 27 2025 18:32:20 GMT-0600 (Central Standard Time),725406.0,B,c,I,c,791,1,799.8000001907349,724606.1999998093,8019,WL,A,4.0
6,9.463000059127808,distr,50536.99994087219,Mon Jan 27 2025 18:32:20 GMT-0600 (Central Standard Time),725573.2999997139,B,co,I,o,158,1,967.0999999046326,724606.1999998093,8019,WL,A,4.0
6,9.596999883651733,distr,50403.00011634827,Mon Jan 27 2025 18:32:20 GMT-0600 (Central Standard Time),725706.5,B,cou,I,u,109,1,1100.3000001907349,724606.1999998093,8019,WL,A,4.0
6,9.796000003814697,distr,50203.9999961853,Mon Jan 27 2025 18:32:20 GMT-0600 (Central Standard Time),725906.2999997139,B,coun,I,n,185,1,1300.0999999046326,724606.1999998093,8019,WL,A,4.0
6,9.980000019073486,distr,50019.999980926514,Mon Jan 27 2025 18:32:20 GMT-0600 (Central Standard Time),726090.0999999046,B,count,I,t,170,1,1483.9000000953674,724606.1999998093,8019,WL,A,4.0
6,10.062000036239624,distr,49937.999963760376,Mon Jan 27 2025 18:32:20 GMT-0600 (Central Standard Time),726172.2999997139,B,county,I,y,75,1,1566.0999999046326,724606.1999998093,8019,WL,A,4.0
6,10.312999963760376,distr,49687.000036239624,Mon Jan 27 2025 18:32:20 GMT-0600 (Central Standard Time),726423.1999998093,B,countyenter,I,enter,239,1,1817.0,724606.1999998093,8019,WL,A,4.0
6,10.96399998664856,distr,49036.00001335144,Mon Jan 27 2025 18:32:20 GMT-0600 (Central Standard Time),727073.6999998093,B,p,I,p,636,1,650.1999998092651,726423.5,8019,WL,A,5.0
6,11.279000043869019,distr,48720.99995613098,Mon Jan 27 2025 18:32:20 GMT-0600 (Central Standard Time),727389.2999997139,B,po,I,o,298,1,965.7999997138977,726423.5,8019,WL,A,5.0
6,11.395999908447266,distr,48604.000091552734,Mon Jan 27 2025 18:32:20 GMT-0600 (Central Standard Time),727506.2999997139,B,poo,I,o,96,1,1082.7999997138977,726423.5,8019,WL,A,5.0
6,11.595999956130981,distr,48404.00004386902,Mon Jan 27 2025 18:32:20 GMT-0600 (Central Standard Time),727706.0999999046,B,pool,I,l,177,1,1282.5999999046326,726423.5,8019,WL,A,5.0
6,11.82800006866455,distr,48171.99993133545,Mon Jan 27 2025 18:32:20 GMT-0600 (Central Standard Time),727937.4000000954,B,poolenter,I,enter,216,1,1513.9000000953674,726423.5,8019,WL,A,5.0
6,16.194000005722046,distr,43805.999994277954,Mon Jan 27 2025 18:32:20 GMT-0600 (Central Standard Time),732303.6999998093,B,b,I,b,4346,1,4366.0,727937.6999998093,8019,WL,A,6.0
6,16.378000020980835,distr,43621.999979019165,Mon Jan 27 2025 18:32:20 GMT-0600 (Central Standard Time),732487.7999997139,B,bo,I,o,173,1,4550.099999904633,727937.6999998093,8019,WL,A,6.0
6,16.943000078201294,distr,43056.999921798706,Mon Jan 27 2025 18:32:20 GMT-0600 (Central Standard Time),733053.1999998093,B,bow,I,w,547,1,5115.5,727937.6999998093,8019,WL,A,6.0
6,17.111999988555908,distr,42888.00001144409,Mon Jan 27 2025 18:32:20 GMT-0600 (Central Standard Time),733222.0999999046,B,bowl,I,l,162,1,5284.400000095367,727937.6999998093,8019,WL,A,6.0
6,17.609999895095825,distr,42390.000104904175,Mon Jan 27 2025 18:32:20 GMT-0600 (Central Standard Time),733719.4000000954,B,bowlenter,I,enter,479,1,5781.700000286102,727937.6999998093,8019,WL,A,6.0
6,24.70900011062622,distr,35290.99988937378,Mon Jan 27 2025 18:32:20 GMT-0600 (Central Standard Time),740819.2999997139,B,p,I,p,7085,1,7099.699999809265,733719.5999999046,8019,WL,A,7.0
6,24.823999881744385,distr,35176.000118255615,Mon Jan 27 2025 18:32:20 GMT-0600 (Central Standard Time),740933.6999998093,B,pe,I,e,104,1,7214.099999904633,733719.5999999046,8019,WL,A,7.0
6,24.924000024795532,distr,35075.99997520447,Mon Jan 27 2025 18:32:20 GMT-0600 (Central Standard Time),741034.2999997139,B,pea,I,a,76,1,7314.699999809265,733719.5999999046,8019,WL,A,7.0
6,25.092000007629395,distr,34907.999992370605,Mon Jan 27 2025 18:32:20 GMT-0600 (Central Standard Time),741202.0999999046,B,peac,I,c,151,1,7482.5,733719.5999999046,8019,WL,A,7.0
6,25.22499990463257,distr,34775.00009536743,Mon Jan 27 2025 18:32:20 GMT-0600 (Central Standard Time),741335.0,B,peach,I,h,115,1,7615.400000095367,733719.5999999046,8019,WL,A,7.0
6,26.473999977111816,distr,33526.00002288818,Mon Jan 27 2025 18:32:20 GMT-0600 (Central Standard Time),742584.2999997139,B,peachenter,I,enter,1229,1,8864.699999809265,733719.5999999046,8019,WL,A,7.0
6,27.058000087738037,distr,32941.99991226196,Mon Jan 27 2025 18:32:20 GMT-0600 (Central Standard Time),743167.9000000954,B,m,I,m,562,1,583.3000001907349,742584.5999999046,8019,WL,A,8.0
6,27.175999879837036,distr,32824.000120162964,Mon Jan 27 2025 18:32:20 GMT-0600 (Central Standard Time),743286.0999999046,B,me,I,e,112,1,701.5,742584.5999999046,8019,WL,A,8.0
6,27.341000080108643,distr,32658.999919891357,Mon Jan 27 2025 18:32:20 GMT-0600 (Central Standard Time),743450.6999998093,B,mea,I,a,144,1,866.0999999046326,742584.5999999046,8019,WL,A,8.0
6,27.509000062942505,distr,32490.999937057495,Mon Jan 27 2025 18:32:20 GMT-0600 (Central Standard Time),743618.6999998093,B,meal,I,l,155,1,1034.0999999046326,742584.5999999046,8019,WL,A,8.0
6,27.808000087738037,distr,32191.999912261963,Mon Jan 27 2025 18:32:20 GMT-0600 (Central Standard Time),743918.0,B,mealenter,I,enter,282,1,1333.4000000953674,742584.5999999046,8019,WL,A,8.0
6,42.236000061035156,distr,17763.999938964844,Mon Jan 27 2025 18:32:20 GMT-0600 (Central Standard Time),758345.9000000954,B,d,I,d,14415,1,14427.60000038147,743918.2999997139,8019,WL,A,9.0
6,42.35199999809265,distr,17648.00000190735,Mon Jan 27 2025 18:32:20 GMT-0600 (Central Standard Time),758461.5,B,da,I,a,98,1,14543.200000286102,743918.2999997139,8019,WL,A,9.0
6,42.62100005149841,distr,17378.999948501587,Mon Jan 27 2025 18:32:20 GMT-0600 (Central Standard Time),758731.0,B,dae,I,e,259,1,14812.700000286102,743918.2999997139,8019,WL,A,9.0
6,42.76900005340576,distr,17230.99994659424,Mon Jan 27 2025 18:32:20 GMT-0600 (Central Standard Time),758878.5999999046,B,daen,I,n,128,1,14960.300000190735,743918.2999997139,8019,WL,A,9.0
6,44.05200004577637,distr,15947.999954223633,Mon Jan 27 2025 18:32:20 GMT-0600 (Central Standard Time),760161.4000000954,B,dae,I,backspace,1269,1,16243.10000038147,743918.2999997139,8019,WL,A,9.0
6,44.20199990272522,distr,15798.00009727478,Mon Jan 27 2025 18:32:20 GMT-0600 (Central Standard Time),760311.5999999046,B,da,I,backspace,132,1,16393.300000190735,743918.2999997139,8019,WL,A,9.0
6,44.46799993515015,distr,15532.000064849854,Mon Jan 27 2025 18:32:20 GMT-0600 (Central Standard Time),760578.2999997139,B,daw,I,w,252,1,16660.0,743918.2999997139,8019,WL,A,9.0
6,45.151000022888184,distr,14848.999977111816,Mon Jan 27 2025 18:32:20 GMT-0600 (Central Standard Time),761261.1999998093,B,dawn,I,n,675,1,17342.900000095367,743918.2999997139,8019,WL,A,9.0
6,45.38499999046326,distr,14615.000009536743,Mon Jan 27 2025 18:32:20 GMT-0600 (Central Standard Time),761494.9000000954,B,dawnenter,I,enter,221,1,17576.60000038147,743918.2999997139,8019,WL,A,9.0
6,60.013999938964844,distr,-13.99993896484375,Mon Jan 27 2025 18:32:20 GMT-0600 (Central Standard Time),776124.0,B,None,I,None,14622,1,14628.800000190735,761495.1999998093,8019,WL,A,10.0
7,5.7809998989105225,immed,54219.00010108948,Mon Jan 27 2025 18:32:20 GMT-0600 (Central Standard Time),791552.5999999046,A,b,I,b,5768,1,5781.099999904633,785771.5,8019,WL,A,1.0
7,6.180999994277954,immed,53819.000005722046,Mon Jan 27 2025 18:32:20 GMT-0600 (Central Standard Time),791952.0999999046,A,bo,I,o,386,1,6180.599999904633,785771.5,8019,WL,A,1.0
7,6.331000089645386,immed,53668.999910354614,Mon Jan 27 2025 18:32:20 GMT-0600 (Central Standard Time),792102.4000000954,A,boo,I,o,124,1,6330.900000095367,785771.5,8019,WL,A,1.0
7,6.496999979019165,immed,53503.000020980835,Mon Jan 27 2025 18:32:20 GMT-0600 (Central Standard Time),792268.5999999046,A,book,I,k,148,1,6497.099999904633,785771.5,8019,WL,A,1.0
7,7.046999931335449,immed,52953.00006866455,Mon Jan 27 2025 18:32:20 GMT-0600 (Central Standard Time),792818.0,A,bookenter,I,enter,535,1,7046.5,785771.5,8019,WL,A,1.0
7,7.596999883651733,immed,52403.00011634827,Mon Jan 27 2025 18:32:20 GMT-0600 (Central Standard Time),793368.0999999046,A,f,I,f,539,1,549.8000001907349,792818.2999997139,8019,WL,A,2.0
7,7.698999881744385,immed,52301.000118255615,Mon Jan 27 2025 18:32:20 GMT-0600 (Central Standard Time),793470.2999997139,A,fl,I,l,90,1,652.0,792818.2999997139,8019,WL,A,2.0
7,7.868000030517578,immed,52131.99996948242,Mon Jan 27 2025 18:32:20 GMT-0600 (Central Standard Time),793639.0999999046,A,flo,I,o,145,1,820.8000001907349,792818.2999997139,8019,WL,A,2.0
7,7.9649999141693115,immed,52035.00008583069,Mon Jan 27 2025 18:32:20 GMT-0600 (Central Standard Time),793736.0,A,flow,I,w,78,1,917.7000002861023,792818.2999997139,8019,WL,A,2.0
7,8.346999883651733,immed,51653.00011634827,Mon Jan 27 2025 18:32:20 GMT-0600 (Central Standard Time),794118.0999999046,A,flowe,I,e,376,1,1299.8000001907349,792818.2999997139,8019,WL,A,2.0
7,8.529000043869019,immed,51470.99995613098,Mon Jan 27 2025 18:32:20 GMT-0600 (Central Standard Time),794300.5,A,flower,I,r,163,1,1482.2000002861023,792818.2999997139,8019,WL,A,2.0
7,8.746000051498413,immed,51253.99994850159,Mon Jan 27 2025 18:32:20 GMT-0600 (Central Standard Time),794517.1999998093,A,flowerenter,I,enter,207,1,1698.9000000953674,792818.2999997139,8019,WL,A,2.0
7,9.263999938964844,immed,50736.000061035156,Mon Jan 27 2025 18:32:20 GMT-0600 (Central Standard Time),795035.0999999046,A,t,I,t,504,1,517.5999999046326,794517.5,8019,WL,A,3.0
7,9.46399998664856,immed,50536.00001335144,Mon Jan 27 2025 18:32:20 GMT-0600 (Central Standard Time),795235.2999997139,A,tr,I,r,184,1,717.7999997138977,794517.5,8019,WL,A,3.0
7,9.562999963760376,immed,50437.000036239624,Mon Jan 27 2025 18:32:20 GMT-0600 (Central Standard Time),795334.4000000954,A,tra,I,a,72,1,816.9000000953674,794517.5,8019,WL,A,3.0
7,9.746000051498413,immed,50253.99994850159,Mon Jan 27 2025 18:32:20 GMT-0600 (Central Standard Time),795517.4000000954,A,trai,I,i,173,1,999.9000000953674,794517.5,8019,WL,A,3.0
7,9.812999963760376,immed,50187.000036239624,Mon Jan 27 2025 18:32:20 GMT-0600 (Central Standard Time),795584.9000000954,A,train,I,n,49,1,1067.4000000953674,794517.5,8019,WL,A,3.0
7,10.17799997329712,immed,49822.00002670288,Mon Jan 27 2025 18:32:20 GMT-0600 (Central Standard Time),795949.9000000954,A,trainenter,I,enter,347,1,1432.4000000953674,794517.5,8019,WL,A,3.0
7,11.062999963760376,immed,48937.000036239624,Mon Jan 27 2025 18:32:20 GMT-0600 (Central Standard Time),796834.1999998093,A,r,I,r,871,1,884.0999999046326,795950.0999999046,8019,WL,A,4.0
7,11.19700002670288,immed,48802.99997329712,Mon Jan 27 2025 18:32:20 GMT-0600 (Central Standard Time),796968.1999998093,A,ru,I,u,107,1,1018.0999999046326,795950.0999999046,8019,WL,A,4.0
7,11.446000099182129,immed,48553.99990081787,Mon Jan 27 2025 18:32:20 GMT-0600 (Central Standard Time),797217.4000000954,A,rug,I,g,219,1,1267.3000001907349,795950.0999999046,8019,WL,A,4.0
7,11.727999925613403,immed,48272.0000743866,Mon Jan 27 2025 18:32:20 GMT-0600 (Central Standard Time),797499.5,A,rugenter,I,enter,262,1,1549.4000000953674,795950.0999999046,8019,WL,A,4.0
7,12.946000099182129,immed,47053.99990081787,Mon Jan 27 2025 18:32:20 GMT-0600 (Central Standard Time),798717.5,A,m,I,m,1210,1,1217.8000001907349,797499.6999998093,8019,WL,A,5.0
7,13.062000036239624,immed,46937.999963760376,Mon Jan 27 2025 18:32:20 GMT-0600 (Central Standard Time),798833.6999998093,A,me,I,e,100,1,1334.0,797499.6999998093,8019,WL,A,5.0
7,13.744999885559082,immed,46255.00011444092,Mon Jan 27 2025 18:32:20 GMT-0600 (Central Standard Time),799516.0999999046,A,mea,I,a,663,1,2016.4000000953674,797499.6999998093,8019,WL,A,5.0
7,13.894999980926514,immed,46105.000019073486,Mon Jan 27 2025 18:32:20 GMT-0600 (Central Standard Time),799666.7999997139,A,mead,I,d,134,1,2167.0999999046326,797499.6999998093,8019,WL,A,5.0
7,14.444999933242798,immed,45555.0000667572,Mon Jan 27 2025 18:32:20 GMT-0600 (Central Standard Time),800216.9000000954,A,meadw,I,w,537,1,2717.2000002861023,797499.6999998093,8019,WL,A,5.0
7,14.729000091552734,immed,45270.999908447266,Mon Jan 27 2025 18:32:20 GMT-0600 (Central Standard Time),800500.0,A,meadwo,I,o,264,1,3000.300000190735,797499.6999998093,8019,WL,A,5.0
7,15.312999963760376,immed,44687.000036239624,Mon Jan 27 2025 18:32:20 GMT-0600 (Central Standard Time),801084.0999999046,A,meadw,I,backspace,568,1,3584.4000000953674,797499.6999998093,8019,WL,A,5.0
