block_c,block_dur,condition,countdown,datetime,endtime,list,multichar_response,project,response,response_time,session_number,start_end,starttime,subject_id,task,task_vers,trial
,,,,Fri Mar 07 2025 10:10:08 GMT-0600 (Central Standard Time),,,,I,space,1620,1,,,8024,WL,B,
prac,,0,,Fri Mar 07 2025 10:10:08 GMT-0600 (Central Standard Time),,NA,b,I,b,3576,1,,,8024,WL,B,1.0
prac,,0,,Fri Mar 07 2025 10:10:08 GMT-0600 (Central Standard Time),,NA,bo,I,o,510,1,,,8024,WL,B,1.0
prac,,0,,Fri Mar 07 2025 10:10:08 GMT-0600 (Central Standard Time),,NA,boo,I,o,86,1,,,8024,WL,B,1.0
prac,,0,,Fri Mar 07 2025 10:10:08 GMT-0600 (Central Standard Time),,NA,boos,I,s,137,1,,,8024,WL,B,1.0
prac,,0,,Fri Mar 07 2025 10:10:08 GMT-0600 (Central Standard Time),,NA,boost,I,t,246,1,,,8024,WL,B,1.0
prac,,0,,Fri Mar 07 2025 10:10:08 GMT-0600 (Central Standard Time),,NA,boostenter,I,enter,986,1,,,8024,WL,B,1.0
1,5.9659998416900635,learn,54034.00015830994,Fri Mar 07 2025 10:10:08 GMT-0600 (Central Standard Time),139420.30000000447,A,f,I,f,5945,1,5965.70000000298,133454.6000000015,8024,WL,B,1.0
1,6.116999864578247,learn,53883.00013542175,Fri Mar 07 2025 10:10:08 GMT-0600 (Central Standard Time),139571.20000000298,A,fi,I,i,143,1,6116.60000000149,133454.6000000015,8024,WL,B,1.0
1,6.299000024795532,learn,53700.99997520447,Fri Mar 07 2025 10:10:08 GMT-0600 (Central Standard Time),139753.20000000298,A,fir,I,r,167,1,6298.60000000149,133454.6000000015,8024,WL,B,1.0
1,7.549999952316284,learn,52450.000047683716,Fri Mar 07 2025 10:10:08 GMT-0600 (Central Standard Time),141004.1000000015,A,fire,I,e,1242,1,7549.5,133454.6000000015,8024,WL,B,1.0
1,9.115000009536743,learn,50884.99999046326,Fri Mar 07 2025 10:10:08 GMT-0600 (Central Standard Time),142568.6000000015,A,fires,I,s,1551,1,9114.0,133454.6000000015,8024,WL,B,1.0
1,9.398000001907349,learn,50601.99999809265,Fri Mar 07 2025 10:10:08 GMT-0600 (Central Standard Time),142852.20000000298,A,firest,I,t,268,1,9397.60000000149,133454.6000000015,8024,WL,B,1.0
1,9.680999994277954,learn,50319.000005722046,Fri Mar 07 2025 10:10:08 GMT-0600 (Central Standard Time),143135.20000000298,A,firestr,I,r,262,1,9680.60000000149,133454.6000000015,8024,WL,B,1.0
1,9.8989999294281,learn,50101.0000705719,Fri Mar 07 2025 10:10:08 GMT-0600 (Central Standard Time),143352.5,A,firestre,I,e,195,1,9897.89999999851,133454.6000000015,8024,WL,B,1.0
1,10.065000057220459,learn,49934.99994277954,Fri Mar 07 2025 10:10:08 GMT-0600 (Central Standard Time),143518.30000000447,A,firestree,I,e,154,1,10063.70000000298,133454.6000000015,8024,WL,B,1.0
1,10.549000024795532,learn,49450.99997520447,Fri Mar 07 2025 10:10:08 GMT-0600 (Central Standard Time),144003.0,A,firestreet,I,t,478,1,10548.39999999851,133454.6000000015,8024,WL,B,1.0
1,12.148000001907349,learn,47851.99999809265,Fri Mar 07 2025 10:10:08 GMT-0600 (Central Standard Time),145601.90000000596,A,firestree,I,backspace,1582,1,12147.30000000447,133454.6000000015,8024,WL,B,1.0
1,12.365999937057495,learn,47634.000062942505,Fri Mar 07 2025 10:10:08 GMT-0600 (Central Standard Time),145819.70000000298,A,firestre,I,backspace,211,1,12365.10000000149,133454.6000000015,8024,WL,B,1.0
1,12.598000049591064,learn,47401.999950408936,Fri Mar 07 2025 10:10:08 GMT-0600 (Central Standard Time),146052.0,A,firestr,I,backspace,224,1,12597.39999999851,133454.6000000015,8024,WL,B,1.0
1,12.914999961853027,learn,47085.00003814697,Fri Mar 07 2025 10:10:08 GMT-0600 (Central Standard Time),146368.40000000596,A,firest,I,backspace,297,1,12913.80000000447,133454.6000000015,8024,WL,B,1.0
1,13.246000051498413,learn,46753.99994850159,Fri Mar 07 2025 10:10:08 GMT-0600 (Central Standard Time),146700.20000000298,A,fires,I,backspace,324,1,13245.60000000149,133454.6000000015,8024,WL,B,1.0
1,14.062999963760376,learn,45937.000036239624,Fri Mar 07 2025 10:10:08 GMT-0600 (Central Standard Time),147516.6000000015,A,firesenter,I,enter,806,1,14062.0,133454.6000000015,8024,WL,B,1.0
1,14.681999921798706,learn,45318.000078201294,Fri Mar 07 2025 10:10:08 GMT-0600 (Central Standard Time),148135.30000000447,A,s,I,s,607,1,618.3000000044703,147517.0,8024,WL,B,2.0
1,14.94700002670288,learn,45052.99997329712,Fri Mar 07 2025 10:10:08 GMT-0600 (Central Standard Time),148400.30000000447,A,st,I,t,252,1,883.3000000044703,147517.0,8024,WL,B,2.0
1,15.21399998664856,learn,44786.00001335144,Fri Mar 07 2025 10:10:08 GMT-0600 (Central Standard Time),148667.70000000298,A,str,I,r,251,1,1150.7000000029802,147517.0,8024,WL,B,2.0
1,15.414000034332275,learn,44585.999965667725,Fri Mar 07 2025 10:10:08 GMT-0600 (Central Standard Time),148867.30000000447,A,stre,I,e,192,1,1350.3000000044703,147517.0,8024,WL,B,2.0
1,15.596999883651733,learn,44403.00011634827,Fri Mar 07 2025 10:10:08 GMT-0600 (Central Standard Time),149050.90000000596,A,stree,I,e,160,1,1533.9000000059605,147517.0,8024,WL,B,2.0
1,15.79699993133545,learn,44203.00006866455,Fri Mar 07 2025 10:10:08 GMT-0600 (Central Standard Time),149250.70000000298,A,street,I,t,181,1,1733.7000000029802,147517.0,8024,WL,B,2.0
1,16.961999893188477,learn,43038.00010681152,Fri Mar 07 2025 10:10:08 GMT-0600 (Central Standard Time),150415.80000000447,A,streetenter,I,enter,1153,1,2898.8000000044703,147517.0,8024,WL,B,2.0
1,29.092000007629395,learn,30907.999992370605,Fri Mar 07 2025 10:10:08 GMT-0600 (Central Standard Time),162545.80000000447,A,t,I,t,12116,1,12129.60000000149,150416.20000000298,8024,WL,B,3.0
1,29.30900001525879,learn,30690.99998474121,Fri Mar 07 2025 10:10:08 GMT-0600 (Central Standard Time),162762.90000000596,A,ti,I,i,202,1,12346.70000000298,150416.20000000298,8024,WL,B,3.0
1,29.493000030517578,learn,30506.999969482422,Fri Mar 07 2025 10:10:08 GMT-0600 (Central Standard Time),162946.30000000447,A,tir,I,r,167,1,12530.10000000149,150416.20000000298,8024,WL,B,3.0
1,29.793999910354614,learn,30206.000089645386,Fri Mar 07 2025 10:10:08 GMT-0600 (Central Standard Time),163247.30000000447,A,tire,I,e,280,1,12831.10000000149,150416.20000000298,8024,WL,B,3.0
1,30.80900001525879,learn,29190.99998474121,Fri Mar 07 2025 10:10:08 GMT-0600 (Central Standard Time),164262.40000000596,A,tireenter,I,enter,996,1,13846.20000000298,150416.20000000298,8024,WL,B,3.0
1,33.40599989891052,learn,26594.000101089478,Fri Mar 07 2025 10:10:08 GMT-0600 (Central Standard Time),166860.20000000298,A,enter,I,enter,2588,1,2597.39999999851,164262.80000000447,8024,WL,B,4.0
1,34.17400002479553,learn,25825.999975204468,Fri Mar 07 2025 10:10:08 GMT-0600 (Central Standard Time),167627.40000000596,A,enter,I,enter,761,1,766.9000000059605,166860.5,8024,WL,B,5.0
1,34.70799994468689,learn,25292.00005531311,Fri Mar 07 2025 10:10:08 GMT-0600 (Central Standard Time),168161.6000000015,A,enter,I,enter,520,1,533.6999999955297,167627.90000000596,8024,WL,B,6.0
1,35.306999921798706,learn,24693.000078201294,Fri Mar 07 2025 10:10:08 GMT-0600 (Central Standard Time),168761.1000000015,A,enter,I,enter,593,1,599.1000000014901,168162.0,8024,WL,B,7.0
1,35.83899998664856,learn,24161.00001335144,Fri Mar 07 2025 10:10:08 GMT-0600 (Central Standard Time),169293.1000000015,A,enter,I,enter,522,1,531.6999999955297,168761.40000000596,8024,WL,B,8.0
1,36.17400002479553,learn,23825.999975204468,Fri Mar 07 2025 10:10:08 GMT-0600 (Central Standard Time),169627.6000000015,A,enter,I,enter,318,1,334.1000000014901,169293.5,8024,WL,B,9.0
1,36.388999938964844,learn,23611.000061035156,Fri Mar 07 2025 10:10:08 GMT-0600 (Central Standard Time),169843.40000000596,A,enter,I,enter,209,1,215.40000000596046,169628.0,8024,WL,B,10.0
1,36.60599994659424,learn,23394.00005340576,Fri Mar 07 2025 10:10:08 GMT-0600 (Central Standard Time),170060.1000000015,A,enter,I,enter,209,1,216.39999999850988,169843.70000000298,8024,WL,B,11.0
1,36.80499982833862,learn,23195.000171661377,Fri Mar 07 2025 10:10:08 GMT-0600 (Central Standard Time),170259.6000000015,A,enter,I,enter,177,1,199.19999999552965,170060.40000000596,8024,WL,B,12.0
1,40.287999868392944,learn,19712.000131607056,Fri Mar 07 2025 10:10:08 GMT-0600 (Central Standard Time),173742.20000000298,A,enter,I,enter,3464,1,3482.2999999970198,170259.90000000596,8024,WL,B,13.0
1,40.53699994087219,learn,19463.000059127808,Fri Mar 07 2025 10:10:08 GMT-0600 (Central Standard Time),173991.90000000596,A,enter,I,enter,230,1,249.30000000447035,173742.6000000015,8024,WL,B,14.0
1,40.80399990081787,learn,19196.00009918213,Fri Mar 07 2025 10:10:08 GMT-0600 (Central Standard Time),174258.5,A,enter,I,enter,260,1,266.29999999701977,173992.20000000298,8024,WL,B,15.0
2,2.1660001277923584,learn,57833.99987220764,Fri Mar 07 2025 10:10:08 GMT-0600 (Central Standard Time),247402.5,A,w,I,w,2150,1,2166.0999999940395,245236.40000000596,8024,WL,B,1.0
2,2.4149999618530273,learn,57585.00003814697,Fri Mar 07 2025 10:10:08 GMT-0600 (Central Standard Time),247651.70000000298,A,wi,I,i,243,1,2415.2999999970198,245236.40000000596,8024,WL,B,1.0
2,2.633000135421753,learn,57366.99986457825,Fri Mar 07 2025 10:10:08 GMT-0600 (Central Standard Time),247868.6000000015,A,wif,I,f,212,1,2632.1999999955297,245236.40000000596,8024,WL,B,1.0
2,2.933000087738037,learn,57066.99991226196,Fri Mar 07 2025 10:10:08 GMT-0600 (Central Standard Time),248169.0,A,wife,I,e,277,1,2932.5999999940395,245236.40000000596,8024,WL,B,1.0
2,3.950000047683716,learn,56049.999952316284,Fri Mar 07 2025 10:10:08 GMT-0600 (Central Standard Time),249186.1000000015,A,wifeenter,I,enter,1012,1,3949.6999999955297,245236.40000000596,8024,WL,B,1.0
2,4.549999952316284,learn,55450.000047683716,Fri Mar 07 2025 10:10:08 GMT-0600 (Central Standard Time),249786.20000000298,A,f,I,f,595,1,599.7999999970198,249186.40000000596,8024,WL,B,2.0
2,5.016000032424927,learn,54983.99996757507,Fri Mar 07 2025 10:10:08 GMT-0600 (Central Standard Time),250252.0,A,fi,I,i,448,1,1065.5999999940395,249186.40000000596,8024,WL,B,2.0
2,5.180999994277954,learn,54819.000005722046,Fri Mar 07 2025 10:10:08 GMT-0600 (Central Standard Time),250417.40000000596,A,fir,I,r,158,1,1231.0,249186.40000000596,8024,WL,B,2.0
2,5.414999961853027,learn,54585.00003814697,Fri Mar 07 2025 10:10:08 GMT-0600 (Central Standard Time),250651.30000000447,A,fire,I,e,230,1,1464.8999999985099,249186.40000000596,8024,WL,B,2.0
2,5.914999961853027,learn,54085.00003814697,Fri Mar 07 2025 10:10:08 GMT-0600 (Central Standard Time),251151.0,A,fireenter,I,enter,489,1,1964.5999999940395,249186.40000000596,8024,WL,B,2.0
2,6.465000152587891,learn,53534.99984741211,Fri Mar 07 2025 10:10:08 GMT-0600 (Central Standard Time),251701.5,A,d,I,d,543,1,550.2999999970198,251151.20000000298,8024,WL,B,3.0
2,6.748000144958496,learn,53251.999855041504,Fri Mar 07 2025 10:10:08 GMT-0600 (Central Standard Time),251984.1000000015,A,do,I,o,261,1,832.8999999985099,251151.20000000298,8024,WL,B,3.0
2,6.914999961853027,learn,53085.00003814697,Fri Mar 07 2025 10:10:08 GMT-0600 (Central Standard Time),252150.90000000596,A,doo,I,o,146,1,999.7000000029802,251151.20000000298,8024,WL,B,3.0
2,7.13100004196167,learn,52868.99995803833,Fri Mar 07 2025 10:10:08 GMT-0600 (Central Standard Time),252367.20000000298,A,door,I,r,196,1,1216.0,251151.20000000298,8024,WL,B,3.0
2,7.581000089645386,learn,52418.999910354614,Fri Mar 07 2025 10:10:08 GMT-0600 (Central Standard Time),252817.5,A,doorenter,I,enter,435,1,1666.2999999970198,251151.20000000298,8024,WL,B,3.0
2,7.947999954223633,learn,52052.00004577637,Fri Mar 07 2025 10:10:08 GMT-0600 (Central Standard Time),253183.80000000447,A,s,I,s,356,1,366.0,252817.80000000447,8024,WL,B,4.0
2,8.998000144958496,learn,51001.999855041504,Fri Mar 07 2025 10:10:08 GMT-0600 (Central Standard Time),254234.40000000596,A,,I,backspace,1044,1,1416.6000000014901,252817.80000000447,8024,WL,B,4.0
2,9.765000104904175,learn,50234.999895095825,Fri Mar 07 2025 10:10:08 GMT-0600 (Central Standard Time),255001.30000000447,A,a,I,a,745,1,2183.5,252817.80000000447,8024,WL,B,4.0
2,9.930000066757202,learn,50069.9999332428,Fri Mar 07 2025 10:10:08 GMT-0600 (Central Standard Time),255166.40000000596,A,ar,I,r,145,1,2348.60000000149,252817.80000000447,8024,WL,B,4.0
2,10.598000049591064,learn,49401.999950408936,Fri Mar 07 2025 10:10:08 GMT-0600 (Central Standard Time),255834.20000000298,A,arn,I,n,650,1,3016.39999999851,252817.80000000447,8024,WL,B,4.0
2,11.147000074386597,learn,48852.9999256134,Fri Mar 07 2025 10:10:08 GMT-0600 (Central Standard Time),256383.1000000015,A,arnenter,I,enter,537,1,3565.2999999970198,252817.80000000447,8024,WL,B,4.0
2,14.92900013923645,learn,45070.99986076355,Fri Mar 07 2025 10:10:08 GMT-0600 (Central Standard Time),260165.6000000015,A,w,I,w,3764,1,3782.2999999970198,256383.30000000447,8024,WL,B,5.0
2,15.11300015449524,learn,44886.99984550476,Fri Mar 07 2025 10:10:08 GMT-0600 (Central Standard Time),260348.70000000298,A,wi,I,i,177,1,3965.39999999851,256383.30000000447,8024,WL,B,5.0
2,15.394000053405762,learn,44605.99994659424,Fri Mar 07 2025 10:10:08 GMT-0600 (Central Standard Time),260630.40000000596,A,win,I,n,272,1,4247.10000000149,256383.30000000447,8024,WL,B,5.0
2,15.761000156402588,learn,44238.99984359741,Fri Mar 07 2025 10:10:08 GMT-0600 (Central Standard Time),260997.20000000298,A,wind,I,d,349,1,4613.89999999851,256383.30000000447,8024,WL,B,5.0
2,15.977999925613403,learn,44022.0000743866,Fri Mar 07 2025 10:10:08 GMT-0600 (Central Standard Time),261214.5,A,windo,I,o,205,1,4831.19999999553,256383.30000000447,8024,WL,B,5.0
2,16.32800006866455,learn,43671.99993133545,Fri Mar 07 2025 10:10:08 GMT-0600 (Central Standard Time),261564.40000000596,A,window,I,w,329,1,5181.10000000149,256383.30000000447,8024,WL,B,5.0
2,17.89400005340576,learn,42105.99994659424,Fri Mar 07 2025 10:10:08 GMT-0600 (Central Standard Time),263129.90000000596,A,windowenter,I,enter,1550,1,6746.60000000149,256383.30000000447,8024,WL,B,5.0
2,18.677000045776367,learn,41322.99995422363,Fri Mar 07 2025 10:10:08 GMT-0600 (Central Standard Time),263913.30000000447,A,l,I,l,763,1,783.0,263130.30000000447,8024,WL,B,6.0
2,19.227999925613403,learn,40772.0000743866,Fri Mar 07 2025 10:10:08 GMT-0600 (Central Standard Time),264464.200000003,A,la,I,a,528,1,1333.8999999985099,263130.30000000447,8024,WL,B,6.0
2,19.463000059127808,learn,40536.99994087219,Fri Mar 07 2025 10:10:08 GMT-0600 (Central Standard Time),264698.80000000447,A,lak,I,k,226,1,1568.5,263130.30000000447,8024,WL,B,6.0
2,19.743000030517578,learn,40256.99996948242,Fri Mar 07 2025 10:10:08 GMT-0600 (Central Standard Time),264979.30000000447,A,lake,I,e,264,1,1849.0,263130.30000000447,8024,WL,B,6.0
2,20.2260000705719,learn,39773.9999294281,Fri Mar 07 2025 10:10:08 GMT-0600 (Central Standard Time),265462.6000000015,A,lakeenter,I,enter,472,1,2332.2999999970198,263130.30000000447,8024,WL,B,6.0
2,20.64300012588501,learn,39356.99987411499,Fri Mar 07 2025 10:10:08 GMT-0600 (Central Standard Time),265878.80000000447,A,p,I,p,396,1,415.8999999985099,265462.90000000596,8024,WL,B,7.0
2,21.026000022888184,learn,38973.99997711182,Fri Mar 07 2025 10:10:08 GMT-0600 (Central Standard Time),266261.80000000447,A,pu,I,u,364,1,798.8999999985099,265462.90000000596,8024,WL,B,7.0
2,21.424999952316284,learn,38575.000047683716,Fri Mar 07 2025 10:10:08 GMT-0600 (Central Standard Time),266661.30000000447,A,pup,I,p,383,1,1198.3999999985099,265462.90000000596,8024,WL,B,7.0
2,21.727999925613403,learn,38272.0000743866,Fri Mar 07 2025 10:10:08 GMT-0600 (Central Standard Time),266963.6000000015,A,pupi,I,i,298,1,1500.6999999955297,265462.90000000596,8024,WL,B,7.0
2,22.042999982833862,learn,37957.00001716614,Fri Mar 07 2025 10:10:08 GMT-0600 (Central Standard Time),267278.90000000596,A,pupil,I,l,293,1,1816.0,265462.90000000596,8024,WL,B,7.0
2,22.64199995994568,learn,37358.00004005432,Fri Mar 07 2025 10:10:08 GMT-0600 (Central Standard Time),267878.200000003,A,pupilenter,I,enter,579,1,2415.2999999970198,265462.90000000596,8024,WL,B,7.0
2,23.159000158309937,learn,36840.99984169006,Fri Mar 07 2025 10:10:08 GMT-0600 (Central Standard Time),268394.80000000447,A,g,I,g,501,1,516.3000000044703,267878.5,8024,WL,B,8.0
2,23.442000150680542,learn,36557.99984931946,Fri Mar 07 2025 10:10:08 GMT-0600 (Central Standard Time),268678.30000000447,A,gr,I,r,273,1,799.8000000044703,267878.5,8024,WL,B,8.0
2,23.960000038146973,learn,36039.99996185303,Fri Mar 07 2025 10:10:08 GMT-0600 (Central Standard Time),269196.1000000015,A,gra,I,a,512,1,1317.6000000014901,267878.5,8024,WL,B,8.0
2,24.261000156402588,learn,35738.99984359741,Fri Mar 07 2025 10:10:08 GMT-0600 (Central Standard Time),269497.30000000447,A,gras,I,s,290,1,1618.8000000044703,267878.5,8024,WL,B,8.0
2,24.460000038146973,learn,35539.99996185303,Fri Mar 07 2025 10:10:08 GMT-0600 (Central Standard Time),269695.6000000015,A,grass,I,s,177,1,1817.1000000014901,267878.5,8024,WL,B,8.0
2,25.457000017166138,learn,34542.99998283386,Fri Mar 07 2025 10:10:08 GMT-0600 (Central Standard Time),270692.90000000596,A,grassenter,I,enter,978,1,2814.4000000059605,267878.5,8024,WL,B,8.0
2,27.058000087738037,learn,32941.99991226196,Fri Mar 07 2025 10:10:08 GMT-0600 (Central Standard Time),272294.0,A,s,I,s,1585,1,1600.8999999985099,270693.1000000015,8024,WL,B,9.0
2,27.308000087738037,learn,32691.999912261963,Fri Mar 07 2025 10:10:08 GMT-0600 (Central Standard Time),272544.5,A,st,I,t,229,1,1851.3999999985099,270693.1000000015,8024,WL,B,9.0
2,27.54200005531311,learn,32457.99994468689,Fri Mar 07 2025 10:10:08 GMT-0600 (Central Standard Time),272777.80000000447,A,str,I,r,218,1,2084.7000000029802,270693.1000000015,8024,WL,B,9.0
2,27.740999937057495,learn,32259.000062942505,Fri Mar 07 2025 10:10:08 GMT-0600 (Central Standard Time),272976.80000000447,A,stre,I,e,186,1,2283.7000000029802,270693.1000000015,8024,WL,B,9.0
2,27.891000032424927,learn,32108.999967575073,Fri Mar 07 2025 10:10:08 GMT-0600 (Central Standard Time),273127.1000000015,A,stree,I,e,138,1,2434.0,270693.1000000015,8024,WL,B,9.0
2,28.10800004005432,learn,31891.99995994568,Fri Mar 07 2025 10:10:08 GMT-0600 (Central Standard Time),273343.700000003,A,street,I,t,204,1,2650.60000000149,270693.1000000015,8024,WL,B,9.0
2,28.740000009536743,learn,31259.999990463257,Fri Mar 07 2025 10:10:08 GMT-0600 (Central Standard Time),273976.1000000015,A,streetenter,I,enter,610,1,3283.0,270693.1000000015,8024,WL,B,9.0
2,37.223000049591064,learn,22776.999950408936,Fri Mar 07 2025 10:10:08 GMT-0600 (Central Standard Time),282459.200000003,A,s,I,s,8462,1,8482.89999999851,273976.30000000447,8024,WL,B,10.0
2,37.937999963760376,learn,22062.000036239624,Fri Mar 07 2025 10:10:08 GMT-0600 (Central Standard Time),283174.0,A,sk,I,k,697,1,9197.69999999553,273976.30000000447,8024,WL,B,10.0
2,38.15400004386902,learn,21845.99995613098,Fri Mar 07 2025 10:10:08 GMT-0600 (Central Standard Time),283390.40000000596,A,ski,I,i,196,1,9414.10000000149,273976.30000000447,8024,WL,B,10.0
2,38.40400004386902,learn,21595.99995613098,Fri Mar 07 2025 10:10:08 GMT-0600 (Central Standard Time),283640.5,A,skin,I,n,229,1,9664.19999999553,273976.30000000447,8024,WL,B,10.0
2,39.13800001144409,learn,20861.99998855591,Fri Mar 07 2025 10:10:08 GMT-0600 (Central Standard Time),284373.6000000015,A,skinenter,I,enter,716,1,10397.29999999702,273976.30000000447,8024,WL,B,10.0
2,51.467000007629395,learn,8532.999992370605,Fri Mar 07 2025 10:10:08 GMT-0600 (Central Standard Time),296704.0,A,c,I,c,12310,1,12330.09999999404,284373.90000000596,8024,WL,B,11.0
2,51.98200011253357,learn,8017.999887466431,Fri Mar 07 2025 10:10:08 GMT-0600 (Central Standard Time),297218.700000003,A,ca,I,a,501,1,12844.79999999702,284373.90000000596,8024,WL,B,11.0
2,52.46500015258789,learn,7534.999847412109,Fri Mar 07 2025 10:10:08 GMT-0600 (Central Standard Time),297701.80000000447,A,car,I,r,463,1,13327.89999999851,284373.90000000596,8024,WL,B,11.0
2,53.181999921798706,learn,6818.000078201294,Fri Mar 07 2025 10:10:08 GMT-0600 (Central Standard Time),298419.200000003,A,carenter,I,enter,712,1,14045.29999999702,284373.90000000596,8024,WL,B,11.0
2,54.949000120162964,learn,5050.999879837036,Fri Mar 07 2025 10:10:08 GMT-0600 (Central Standard Time),300185.90000000596,A,enter,I,enter,1754,1,1766.5,298419.40000000596,8024,WL,B,12.0
2,55.23200011253357,learn,4767.999887466431,Fri Mar 07 2025 10:10:08 GMT-0600 (Central Standard Time),300468.40000000596,A,enter,I,enter,266,1,282.20000000298023,300186.200000003,8024,WL,B,13.0
2,55.46500015258789,learn,4534.999847412109,Fri Mar 07 2025 10:10:08 GMT-0600 (Central Standard Time),300701.30000000447,A,enter,I,enter,223,1,232.70000000298023,300468.6000000015,8024,WL,B,14.0
2,55.63199996948242,learn,4368.000030517578,Fri Mar 07 2025 10:10:08 GMT-0600 (Central Standard Time),300869.0,A,enter,I,enter,160,1,167.39999999850988,300701.6000000015,8024,WL,B,15.0
3,1.6159999370574951,learn,58384.000062942505,Fri Mar 07 2025 10:10:08 GMT-0600 (Central Standard Time),375411.30000000447,A,w,I,w,1608,1,1615.0,373796.30000000447,8024,WL,B,1.0
3,1.866999864578247,learn,58133.00013542175,Fri Mar 07 2025 10:10:08 GMT-0600 (Central Standard Time),375661.80000000447,A,wi,I,i,230,1,1865.5,373796.30000000447,8024,WL,B,1.0
3,2.1670000553131104,learn,57832.99994468689,Fri Mar 07 2025 10:10:08 GMT-0600 (Central Standard Time),375962.0,A,wif,I,f,294,1,2165.6999999955297,373796.30000000447,8024,WL,B,1.0
3,2.4659998416900635,learn,57534.00015830994,Fri Mar 07 2025 10:10:08 GMT-0600 (Central Standard Time),376261.5,A,wife,I,e,280,1,2465.1999999955297,373796.30000000447,8024,WL,B,1.0
3,4.148000001907349,learn,55851.99999809265,Fri Mar 07 2025 10:10:08 GMT-0600 (Central Standard Time),377943.5,A,wifeenter,I,enter,1669,1,4147.19999999553,373796.30000000447,8024,WL,B,1.0
3,4.948999881744385,learn,55051.000118255615,Fri Mar 07 2025 10:10:08 GMT-0600 (Central Standard Time),378744.6000000015,A,w,I,w,780,1,800.8999999985099,377943.700000003,8024,WL,B,2.0
3,4.961999893188477,learn,55038.00010681152,Fri Mar 07 2025 10:10:08 GMT-0600 (Central Standard Time),378757.700000003,A,we,I,e,1,1,814.0,377943.700000003,8024,WL,B,2.0
3,6.582000017166138,learn,53417.99998283386,Fri Mar 07 2025 10:10:08 GMT-0600 (Central Standard Time),380377.30000000447,A,w,I,backspace,1600,1,2433.60000000149,377943.700000003,8024,WL,B,2.0
3,7.180999994277954,learn,52819.000005722046,Fri Mar 07 2025 10:10:08 GMT-0600 (Central Standard Time),380976.6000000015,A,wi,I,i,585,1,3032.89999999851,377943.700000003,8024,WL,B,2.0
3,7.513999938964844,learn,52486.000061035156,Fri Mar 07 2025 10:10:08 GMT-0600 (Central Standard Time),381309.30000000447,A,win,I,n,323,1,3365.60000000149,377943.700000003,8024,WL,B,2.0
3,7.812999963760376,learn,52187.000036239624,Fri Mar 07 2025 10:10:08 GMT-0600 (Central Standard Time),381608.80000000447,A,wind,I,d,285,1,3665.10000000149,377943.700000003,8024,WL,B,2.0
3,8.098000049591064,learn,51901.999950408936,Fri Mar 07 2025 10:10:08 GMT-0600 (Central Standard Time),381893.200000003,A,windo,I,o,274,1,3949.5,377943.700000003,8024,WL,B,2.0
3,8.381999969482422,learn,51618.00003051758,Fri Mar 07 2025 10:10:08 GMT-0600 (Central Standard Time),382177.80000000447,A,window,I,w,278,1,4234.10000000149,377943.700000003,8024,WL,B,2.0
3,8.963000059127808,learn,51036.99994087219,Fri Mar 07 2025 10:10:08 GMT-0600 (Central Standard Time),382758.700000003,A,windowenter,I,enter,569,1,4815.0,377943.700000003,8024,WL,B,2.0
3,10.661999940872192,learn,49338.00005912781,Fri Mar 07 2025 10:10:08 GMT-0600 (Central Standard Time),384457.200000003,A,l,I,l,1693,1,1698.2999999970198,382758.90000000596,8024,WL,B,3.0
3,11.013999938964844,learn,48986.000061035156,Fri Mar 07 2025 10:10:08 GMT-0600 (Central Standard Time),384809.1000000015,A,la,I,a,341,1,2050.1999999955297,382758.90000000596,8024,WL,B,3.0
3,11.246999979019165,learn,48753.000020980835,Fri Mar 07 2025 10:10:08 GMT-0600 (Central Standard Time),385042.1000000015,A,lak,I,k,227,1,2283.1999999955297,382758.90000000596,8024,WL,B,3.0
3,11.513000011444092,learn,48486.99998855591,Fri Mar 07 2025 10:10:08 GMT-0600 (Central Standard Time),385308.5,A,lake,I,e,260,1,2549.5999999940395,382758.90000000596,8024,WL,B,3.0
3,12.095999956130981,learn,47904.00004386902,Fri Mar 07 2025 10:10:08 GMT-0600 (Central Standard Time),385891.700000003,A,lakeenter,I,enter,564,1,3132.7999999970198,382758.90000000596,8024,WL,B,3.0
3,12.461999893188477,learn,47538.00010681152,Fri Mar 07 2025 10:10:08 GMT-0600 (Central Standard Time),386257.5,A,s,I,s,351,1,365.59999999403954,385891.90000000596,8024,WL,B,4.0
3,12.829999923706055,learn,47170.000076293945,Fri Mar 07 2025 10:10:08 GMT-0600 (Central Standard Time),386625.6000000015,A,st,I,t,344,1,733.6999999955297,385891.90000000596,8024,WL,B,4.0
3,12.996000051498413,learn,47003.99994850159,Fri Mar 07 2025 10:10:08 GMT-0600 (Central Standard Time),386791.0,A,sta,I,a,152,1,899.0999999940395,385891.90000000596,8024,WL,B,4.0
3,13.213000059127808,learn,46786.99994087219,Fri Mar 07 2025 10:10:08 GMT-0600 (Central Standard Time),387007.90000000596,A,star,I,r,205,1,1116.0,385891.90000000596,8024,WL,B,4.0
3,13.746000051498413,learn,46253.99994850159,Fri Mar 07 2025 10:10:08 GMT-0600 (Central Standard Time),387541.5,A,starenter,I,enter,515,1,1649.5999999940395,385891.90000000596,8024,WL,B,4.0
3,14.211999893188477,learn,45788.00010681152,Fri Mar 07 2025 10:10:08 GMT-0600 (Central Standard Time),388006.80000000447,A,p,I,p,454,1,465.0,387541.80000000447,8024,WL,B,5.0
3,14.496999979019165,learn,45503.000020980835,Fri Mar 07 2025 10:10:08 GMT-0600 (Central Standard Time),388292.0,A,pi,I,i,282,1,750.1999999955297,387541.80000000447,8024,WL,B,5.0
3,15.144999980926514,learn,44855.000019073486,Fri Mar 07 2025 10:10:08 GMT-0600 (Central Standard Time),388940.5,A,pip,I,p,642,1,1398.6999999955297,387541.80000000447,8024,WL,B,5.0
3,15.496000051498413,learn,44503.99994850159,Fri Mar 07 2025 10:10:08 GMT-0600 (Central Standard Time),389291.0,A,pipe,I,e,335,1,1749.1999999955297,387541.80000000447,8024,WL,B,5.0
3,15.94599986076355,learn,44054.00013923645,Fri Mar 07 2025 10:10:08 GMT-0600 (Central Standard Time),389741.1000000015,A,pipeenter,I,enter,441,1,2199.2999999970198,387541.80000000447,8024,WL,B,5.0
3,16.378000020980835,learn,43621.999979019165,Fri Mar 07 2025 10:10:08 GMT-0600 (Central Standard Time),390173.40000000596,A,p,I,p,424,1,432.1000000014901,389741.30000000447,8024,WL,B,6.0
3,16.8439998626709,learn,43156.0001373291,Fri Mar 07 2025 10:10:08 GMT-0600 (Central Standard Time),390639.30000000447,A,pu,I,u,445,1,898.0,389741.30000000447,8024,WL,B,6.0
3,17.51099991798401,learn,42489.00008201599,Fri Mar 07 2025 10:10:08 GMT-0600 (Central Standard Time),391306.40000000596,A,pup,I,p,651,1,1565.1000000014901,389741.30000000447,8024,WL,B,6.0
3,17.810999870300293,learn,42189.00012969971,Fri Mar 07 2025 10:10:08 GMT-0600 (Central Standard Time),391606.80000000447,A,pupi,I,i,280,1,1865.5,389741.30000000447,8024,WL,B,6.0
3,18.09500002861023,learn,41904.99997138977,Fri Mar 07 2025 10:10:08 GMT-0600 (Central Standard Time),391890.40000000596,A,pupil,I,l,269,1,2149.10000000149,389741.30000000447,8024,WL,B,6.0
3,19.361000061035156,learn,40638.999938964844,Fri Mar 07 2025 10:10:08 GMT-0600 (Central Standard Time),393156.1000000015,A,pupilenter,I,enter,1248,1,3414.7999999970198,389741.30000000447,8024,WL,B,6.0
3,22.194000005722046,learn,37805.999994277954,Fri Mar 07 2025 10:10:08 GMT-0600 (Central Standard Time),395989.200000003,A,s,I,s,2817,1,2832.7999999970198,393156.40000000596,8024,WL,B,7.0
3,26.191999912261963,learn,33808.00008773804,Fri Mar 07 2025 10:10:08 GMT-0600 (Central Standard Time),399987.80000000447,A,sg,I,g,3983,1,6831.39999999851,393156.40000000596,8024,WL,B,7.0
3,26.509000062942505,learn,33490.999937057495,Fri Mar 07 2025 10:10:08 GMT-0600 (Central Standard Time),400304.30000000447,A,sgr,I,r,295,1,7147.89999999851,393156.40000000596,8024,WL,B,7.0
3,27.408999919891357,learn,32591.000080108643,Fri Mar 07 2025 10:10:08 GMT-0600 (Central Standard Time),401204.1000000015,A,sg,I,backspace,892,1,8047.69999999553,393156.40000000596,8024,WL,B,7.0
3,27.625,learn,32375.0,Fri Mar 07 2025 10:10:08 GMT-0600 (Central Standard Time),401420.30000000447,A,s,I,backspace,198,1,8263.89999999851,393156.40000000596,8024,WL,B,7.0
3,27.85800004005432,learn,32141.99995994568,Fri Mar 07 2025 10:10:08 GMT-0600 (Central Standard Time),401653.5,A,,I,backspace,214,1,8497.09999999404,393156.40000000596,8024,WL,B,7.0
3,28.506999969482422,learn,31493.000030517578,Fri Mar 07 2025 10:10:08 GMT-0600 (Central Standard Time),402302.700000003,A,g,I,g,638,1,9146.29999999702,393156.40000000596,8024,WL,B,7.0
3,28.79200005531311,learn,31207.99994468689,Fri Mar 07 2025 10:10:08 GMT-0600 (Central Standard Time),402587.6000000015,A,gr,I,r,278,1,9431.19999999553,393156.40000000596,8024,WL,B,7.0
3,29.056999921798706,learn,30943.000078201294,Fri Mar 07 2025 10:10:08 GMT-0600 (Central Standard Time),402852.700000003,A,gra,I,a,257,1,9696.29999999702,393156.40000000596,8024,WL,B,7.0
3,29.39299988746643,learn,30607.00011253357,Fri Mar 07 2025 10:10:08 GMT-0600 (Central Standard Time),403188.30000000447,A,gras,I,s,319,1,10031.89999999851,393156.40000000596,8024,WL,B,7.0
3,29.542999982833862,learn,30457.000017166138,Fri Mar 07 2025 10:10:08 GMT-0600 (Central Standard Time),403338.200000003,A,grass,I,s,144,1,10181.79999999702,393156.40000000596,8024,WL,B,7.0
3,30.256999969482422,learn,29743.000030517578,Fri Mar 07 2025 10:10:08 GMT-0600 (Central Standard Time),404052.1000000015,A,grassenter,I,enter,699,1,10895.69999999553,393156.40000000596,8024,WL,B,7.0
3,30.62399983406067,learn,29376.00016593933,Fri Mar 07 2025 10:10:08 GMT-0600 (Central Standard Time),404418.90000000596,A,l,I,l,351,1,366.5,404052.40000000596,8024,WL,B,8.0
3,30.738999843597412,learn,29261.000156402588,Fri Mar 07 2025 10:10:08 GMT-0600 (Central Standard Time),404534.5,A,la,I,a,104,1,482.09999999403954,404052.40000000596,8024,WL,B,8.0
3,30.94000005722046,learn,29059.99994277954,Fri Mar 07 2025 10:10:08 GMT-0600 (Central Standard Time),404735.0,A,lak,I,k,180,1,682.5999999940395,404052.40000000596,8024,WL,B,8.0
3,31.122999906539917,learn,28877.000093460083,Fri Mar 07 2025 10:10:08 GMT-0600 (Central Standard Time),404918.30000000447,A,lake,I,e,164,1,865.8999999985099,404052.40000000596,8024,WL,B,8.0
3,31.506999969482422,learn,28493.000030517578,Fri Mar 07 2025 10:10:08 GMT-0600 (Central Standard Time),405302.700000003,A,lakeenter,I,enter,371,1,1250.2999999970198,404052.40000000596,8024,WL,B,8.0
3,33.45700001716614,learn,26542.999982833862,Fri Mar 07 2025 10:10:08 GMT-0600 (Central Standard Time),407252.40000000596,A,c,I,c,1944,1,1949.4000000059605,405303.0,8024,WL,B,9.0
3,33.639999866485596,learn,26360.000133514404,Fri Mar 07 2025 10:10:08 GMT-0600 (Central Standard Time),407435.5,A,ca,I,a,166,1,2132.5,405303.0,8024,WL,B,9.0
3,34.15599989891052,learn,25844.000101089478,Fri Mar 07 2025 10:10:08 GMT-0600 (Central Standard Time),407951.700000003,A,cab,I,b,504,1,2648.7000000029802,405303.0,8024,WL,B,9.0
3,34.42199993133545,learn,25578.00006866455,Fri Mar 07 2025 10:10:08 GMT-0600 (Central Standard Time),408217.700000003,A,cabi,I,i,252,1,2914.7000000029802,405303.0,8024,WL,B,9.0
3,34.60699987411499,learn,25393.00012588501,Fri Mar 07 2025 10:10:08 GMT-0600 (Central Standard Time),408402.200000003,A,cabin,I,n,180,1,3099.2000000029802,405303.0,8024,WL,B,9.0
3,35.687999963760376,learn,24312.000036239624,Fri Mar 07 2025 10:10:08 GMT-0600 (Central Standard Time),409483.5,A,cabinenter,I,enter,1072,1,4180.5,405303.0,8024,WL,B,9.0
3,40.01900005340576,learn,19980.99994659424,Fri Mar 07 2025 10:10:08 GMT-0600 (Central Standard Time),413815.0,A,d,I,d,4311,1,4331.0999999940395,409483.90000000596,8024,WL,B,10.0
3,40.28699994087219,learn,19713.000059127808,Fri Mar 07 2025 10:10:08 GMT-0600 (Central Standard Time),414083.1000000015,A,do,I,o,245,1,4599.19999999553,409483.90000000596,8024,WL,B,10.0
3,40.58699989318848,learn,19413.000106811523,Fri Mar 07 2025 10:10:08 GMT-0600 (Central Standard Time),414382.6000000015,A,doo,I,o,288,1,4898.69999999553,409483.90000000596,8024,WL,B,10.0
3,40.83699989318848,learn,19163.000106811523,Fri Mar 07 2025 10:10:08 GMT-0600 (Central Standard Time),414633.30000000447,A,door,I,r,238,1,5149.39999999851,409483.90000000596,8024,WL,B,10.0
3,41.270999908447266,learn,18729.000091552734,Fri Mar 07 2025 10:10:08 GMT-0600 (Central Standard Time),415067.30000000447,A,doorenter,I,enter,418,1,5583.39999999851,409483.90000000596,8024,WL,B,10.0
3,42.319000005722046,learn,17680.999994277954,Fri Mar 07 2025 10:10:08 GMT-0600 (Central Standard Time),416115.40000000596,A,w,I,w,1032,1,1047.8000000044703,415067.6000000015,8024,WL,B,11.0
3,42.55200004577637,learn,17447.999954223633,Fri Mar 07 2025 10:10:08 GMT-0600 (Central Standard Time),416348.0,A,wi,I,i,227,1,1280.3999999985099,415067.6000000015,8024,WL,B,11.0
3,42.80299997329712,learn,17197.00002670288,Fri Mar 07 2025 10:10:08 GMT-0600 (Central Standard Time),416598.700000003,A,win,I,n,232,1,1531.1000000014901,415067.6000000015,8024,WL,B,11.0
3,43.251999855041504,learn,16748.000144958496,Fri Mar 07 2025 10:10:08 GMT-0600 (Central Standard Time),417047.700000003,A,wind,I,d,428,1,1980.1000000014901,415067.6000000015,8024,WL,B,11.0
3,43.419999837875366,learn,16580.000162124634,Fri Mar 07 2025 10:10:08 GMT-0600 (Central Standard Time),417215.6000000015,A,windo,I,o,147,1,2148.0,415067.6000000015,8024,WL,B,11.0
3,43.88599991798401,learn,16114.000082015991,Fri Mar 07 2025 10:10:08 GMT-0600 (Central Standard Time),417681.6000000015,A,window,I,w,452,1,2614.0,415067.6000000015,8024,WL,B,11.0
3,44.71799993515015,learn,15282.000064849854,Fri Mar 07 2025 10:10:08 GMT-0600 (Central Standard Time),418513.90000000596,A,windowenter,I,enter,818,1,3446.3000000044703,415067.6000000015,8024,WL,B,11.0
3,47.11800003051758,learn,12881.999969482422,Fri Mar 07 2025 10:10:08 GMT-0600 (Central Standard Time),420914.1000000015,A,s,I,s,2395,1,2399.89999999851,418514.200000003,8024,WL,B,12.0
3,47.35199999809265,learn,12648.000001907349,Fri Mar 07 2025 10:10:08 GMT-0600 (Central Standard Time),421147.80000000447,A,st,I,t,228,1,2633.60000000149,418514.200000003,8024,WL,B,12.0
3,47.61800003051758,learn,12381.999969482422,Fri Mar 07 2025 10:10:08 GMT-0600 (Central Standard Time),421414.0,A,str,I,r,247,1,2899.7999999970198,418514.200000003,8024,WL,B,12.0
3,47.86800003051758,learn,12131.999969482422,Fri Mar 07 2025 10:10:08 GMT-0600 (Central Standard Time),421664.200000003,A,stre,I,e,237,1,3150.0,418514.200000003,8024,WL,B,12.0
3,48.03499984741211,learn,11965.00015258789,Fri Mar 07 2025 10:10:08 GMT-0600 (Central Standard Time),421830.80000000447,A,stree,I,e,148,1,3316.60000000149,418514.200000003,8024,WL,B,12.0
3,48.21799993515015,learn,11782.000064849854,Fri Mar 07 2025 10:10:08 GMT-0600 (Central Standard Time),422013.5,A,street,I,t,164,1,3499.2999999970198,418514.200000003,8024,WL,B,12.0
3,48.68400001525879,learn,11315.999984741211,Fri Mar 07 2025 10:10:08 GMT-0600 (Central Standard Time),422480.1000000015,A,streetenter,I,enter,447,1,3965.89999999851,418514.200000003,8024,WL,B,12.0
3,60.014999866485596,learn,-14.999866485595703,Fri Mar 07 2025 10:10:08 GMT-0600 (Central Standard Time),433810.80000000447,A,None,I,None,11324,1,11330.39999999851,422480.40000000596,8024,WL,B,13.0
4,0.41700005531311035,learn,59582.99994468689,Fri Mar 07 2025 10:10:08 GMT-0600 (Central Standard Time),502938.1000000015,A,c,I,c,413,1,415.8999999985099,502522.200000003,8024,WL,B,1.0
4,0.6679999828338623,learn,59332.00001716614,Fri Mar 07 2025 10:10:08 GMT-0600 (Central Standard Time),503189.30000000447,A,cl,I,l,231,1,667.1000000014901,502522.200000003,8024,WL,B,1.0
4,0.8500001430511475,learn,59149.99985694885,Fri Mar 07 2025 10:10:08 GMT-0600 (Central Standard Time),503371.30000000447,A,clo,I,o,176,1,849.1000000014901,502522.200000003,8024,WL,B,1.0
4,2.617000102996826,learn,57382.999897003174,Fri Mar 07 2025 10:10:08 GMT-0600 (Central Standard Time),505138.0,A,cloc,I,c,1760,1,2615.7999999970198,502522.200000003,8024,WL,B,1.0
4,2.802999973297119,learn,57197.00002670288,Fri Mar 07 2025 10:10:08 GMT-0600 (Central Standard Time),505324.5,A,clock,I,k,163,1,2802.2999999970198,502522.200000003,8024,WL,B,1.0
4,3.8310000896453857,learn,56168.999910354614,Fri Mar 07 2025 10:10:08 GMT-0600 (Central Standard Time),506352.6000000015,A,clockenter,I,enter,1017,1,3830.39999999851,502522.200000003,8024,WL,B,1.0
4,4.331000089645386,learn,55668.999910354614,Fri Mar 07 2025 10:10:08 GMT-0600 (Central Standard Time),506852.1000000015,A,s,I,s,483,1,499.3999999985099,506352.700000003,8024,WL,B,2.0
4,4.631999969482422,learn,55368.00003051758,Fri Mar 07 2025 10:10:08 GMT-0600 (Central Standard Time),507153.200000003,A,st,I,t,287,1,800.5,506352.700000003,8024,WL,B,2.0
4,4.815000057220459,learn,55184.99994277954,Fri Mar 07 2025 10:10:08 GMT-0600 (Central Standard Time),507336.30000000447,A,sta,I,a,172,1,983.6000000014901,506352.700000003,8024,WL,B,2.0
4,5.065999984741211,learn,54934.00001525879,Fri Mar 07 2025 10:10:08 GMT-0600 (Central Standard Time),507587.90000000596,A,star,I,r,244,1,1235.2000000029802,506352.700000003,8024,WL,B,2.0
4,5.447999954223633,learn,54552.00004577637,Fri Mar 07 2025 10:10:08 GMT-0600 (Central Standard Time),507969.90000000596,A,starenter,I,enter,374,1,1617.2000000029802,506352.700000003,8024,WL,B,2.0
4,5.996999979019165,learn,54003.000020980835,Fri Mar 07 2025 10:10:08 GMT-0600 (Central Standard Time),508518.80000000447,A,p,I,p,538,1,548.3000000044703,507970.5,8024,WL,B,3.0
4,6.266000032424927,learn,53733.99996757507,Fri Mar 07 2025 10:10:08 GMT-0600 (Central Standard Time),508787.1000000015,A,pi,I,i,264,1,816.6000000014901,507970.5,8024,WL,B,3.0
4,6.546999931335449,learn,53453.00006866455,Fri Mar 07 2025 10:10:08 GMT-0600 (Central Standard Time),509068.6000000015,A,pip,I,p,274,1,1098.1000000014901,507970.5,8024,WL,B,3.0
4,6.796999931335449,learn,53203.00006866455,Fri Mar 07 2025 10:10:08 GMT-0600 (Central Standard Time),509318.200000003,A,pipe,I,e,231,1,1347.7000000029802,507970.5,8024,WL,B,3.0
4,7.230999946594238,learn,52769.00005340576,Fri Mar 07 2025 10:10:08 GMT-0600 (Central Standard Time),509752.6000000015,A,pipeenter,I,enter,420,1,1782.1000000014901,507970.5,8024,WL,B,3.0
4,7.5980000495910645,learn,52401.999950408936,Fri Mar 07 2025 10:10:08 GMT-0600 (Central Standard Time),510119.700000003,A,l,I,l,355,1,366.79999999701977,509752.90000000596,8024,WL,B,4.0
4,7.697999954223633,learn,52302.00004577637,Fri Mar 07 2025 10:10:08 GMT-0600 (Central Standard Time),510219.700000003,A,la,I,a,94,1,466.79999999701977,509752.90000000596,8024,WL,B,4.0
4,7.897000074386597,learn,52102.9999256134,Fri Mar 07 2025 10:10:08 GMT-0600 (Central Standard Time),510418.6000000015,A,lak,I,k,182,1,665.6999999955297,509752.90000000596,8024,WL,B,4.0
4,8.081000089645386,learn,51918.999910354614,Fri Mar 07 2025 10:10:08 GMT-0600 (Central Standard Time),510602.1000000015,A,lake,I,e,169,1,849.1999999955297,509752.90000000596,8024,WL,B,4.0
4,8.597000122070312,learn,51402.99987792969,Fri Mar 07 2025 10:10:08 GMT-0600 (Central Standard Time),511118.700000003,A,lakeenter,I,enter,497,1,1365.7999999970198,509752.90000000596,8024,WL,B,4.0
4,10.63100004196167,learn,49368.99995803833,Fri Mar 07 2025 10:10:08 GMT-0600 (Central Standard Time),513152.5,A,s,I,s,2021,1,2033.5,511119.0,8024,WL,B,5.0
4,10.98200011253357,learn,49017.99988746643,Fri Mar 07 2025 10:10:08 GMT-0600 (Central Standard Time),513503.700000003,A,st,I,t,331,1,2384.7000000029802,511119.0,8024,WL,B,5.0
4,11.296000003814697,learn,48703.9999961853,Fri Mar 07 2025 10:10:08 GMT-0600 (Central Standard Time),513817.200000003,A,str,I,r,302,1,2698.2000000029802,511119.0,8024,WL,B,5.0
4,12.246000051498413,learn,47753.99994850159,Fri Mar 07 2025 10:10:08 GMT-0600 (Central Standard Time),514767.30000000447,A,stre,I,e,939,1,3648.3000000044703,511119.0,8024,WL,B,5.0
4,12.444999933242798,learn,47555.0000667572,Fri Mar 07 2025 10:10:08 GMT-0600 (Central Standard Time),514966.6000000015,A,stree,I,e,181,1,3847.60000000149,511119.0,8024,WL,B,5.0
4,12.67900013923645,learn,47320.99986076355,Fri Mar 07 2025 10:10:08 GMT-0600 (Central Standard Time),515200.1000000015,A,street,I,t,220,1,4081.10000000149,511119.0,8024,WL,B,5.0
4,13.529000043869019,learn,46470.99995613098,Fri Mar 07 2025 10:10:08 GMT-0600 (Central Standard Time),516050.90000000596,A,streetenter,I,enter,836,1,4931.9000000059605,511119.0,8024,WL,B,5.0
4,14.312000036239624,learn,45687.999963760376,Fri Mar 07 2025 10:10:08 GMT-0600 (Central Standard Time),516833.700000003,A,c,I,c,769,1,782.5,516051.200000003,8024,WL,B,6.0
4,14.529000043869019,learn,45470.99995613098,Fri Mar 07 2025 10:10:08 GMT-0600 (Central Standard Time),517050.5,A,ci,I,i,202,1,999.2999999970198,516051.200000003,8024,WL,B,6.0
4,14.746000051498413,learn,45253.99994850159,Fri Mar 07 2025 10:10:08 GMT-0600 (Central Standard Time),517267.30000000447,A,cit,I,t,201,1,1216.1000000014901,516051.200000003,8024,WL,B,6.0
4,14.92900013923645,learn,45070.99986076355,Fri Mar 07 2025 10:10:08 GMT-0600 (Central Standard Time),517450.700000003,A,city,I,y,167,1,1399.5,516051.200000003,8024,WL,B,6.0
4,15.478000164031982,learn,44521.99983596802,Fri Mar 07 2025 10:10:08 GMT-0600 (Central Standard Time),517999.5,A,cityenter,I,enter,528,1,1948.2999999970198,516051.200000003,8024,WL,B,6.0
4,15.746000051498413,learn,44253.99994850159,Fri Mar 07 2025 10:10:08 GMT-0600 (Central Standard Time),518267.1000000015,A,s,I,s,262,1,267.29999999701977,517999.80000000447,8024,WL,B,7.0
4,15.99399995803833,learn,44006.00004196167,Fri Mar 07 2025 10:10:08 GMT-0600 (Central Standard Time),518515.30000000447,A,st,I,t,241,1,515.5,517999.80000000447,8024,WL,B,7.0
4,16.177000045776367,learn,43822.99995422363,Fri Mar 07 2025 10:10:08 GMT-0600 (Central Standard Time),518698.6000000015,A,sta,I,a,166,1,698.7999999970198,517999.80000000447,8024,WL,B,7.0
4,16.41100001335144,learn,43588.99998664856,Fri Mar 07 2025 10:10:08 GMT-0600 (Central Standard Time),518932.40000000596,A,star,I,r,217,1,932.6000000014901,517999.80000000447,8024,WL,B,7.0
4,16.729000091552734,learn,43270.999908447266,Fri Mar 07 2025 10:10:08 GMT-0600 (Central Standard Time),519250.200000003,A,starenter,I,enter,303,1,1250.3999999985099,517999.80000000447,8024,WL,B,7.0
4,17.2260000705719,learn,42773.9999294281,Fri Mar 07 2025 10:10:08 GMT-0600 (Central Standard Time),519747.700000003,A,d,I,d,490,1,497.29999999701977,519250.40000000596,8024,WL,B,8.0
4,17.41100001335144,learn,42588.99998664856,Fri Mar 07 2025 10:10:08 GMT-0600 (Central Standard Time),519932.200000003,A,do,I,o,166,1,681.7999999970198,519250.40000000596,8024,WL,B,8.0
4,17.592999935150146,learn,42407.00006484985,Fri Mar 07 2025 10:10:08 GMT-0600 (Central Standard Time),520114.700000003,A,doo,I,o,169,1,864.2999999970198,519250.40000000596,8024,WL,B,8.0
4,17.877000093460083,learn,42122.99990653992,Fri Mar 07 2025 10:10:08 GMT-0600 (Central Standard Time),520398.80000000447,A,door,I,r,272,1,1148.3999999985099,519250.40000000596,8024,WL,B,8.0
4,18.193000078201294,learn,41806.999921798706,Fri Mar 07 2025 10:10:08 GMT-0600 (Central Standard Time),520714.90000000596,A,doorenter,I,enter,310,1,1464.5,519250.40000000596,8024,WL,B,8.0
4,18.794000148773193,learn,41205.99985122681,Fri Mar 07 2025 10:10:08 GMT-0600 (Central Standard Time),521315.40000000596,A,s,I,s,595,1,600.1000000014901,520715.30000000447,8024,WL,B,9.0
4,19.193000078201294,learn,40806.999921798706,Fri Mar 07 2025 10:10:08 GMT-0600 (Central Standard Time),521714.200000003,A,st,I,t,383,1,998.8999999985099,520715.30000000447,8024,WL,B,9.0
4,19.47699999809265,learn,40523.00000190735,Fri Mar 07 2025 10:10:08 GMT-0600 (Central Standard Time),521998.700000003,A,sta,I,a,263,1,1283.3999999985099,520715.30000000447,8024,WL,B,9.0
4,19.76200008392334,learn,40237.99991607666,Fri Mar 07 2025 10:10:08 GMT-0600 (Central Standard Time),522283.30000000447,A,star,I,r,269,1,1568.0,520715.30000000447,8024,WL,B,9.0
4,20.37600016593933,learn,39623.99983406067,Fri Mar 07 2025 10:10:08 GMT-0600 (Central Standard Time),522897.200000003,A,starenter,I,enter,600,1,2181.89999999851,520715.30000000447,8024,WL,B,9.0
4,22.210000038146973,learn,37789.99996185303,Fri Mar 07 2025 10:10:08 GMT-0600 (Central Standard Time),524731.1000000015,A,g,I,g,1828,1,1833.6000000014901,522897.5,8024,WL,B,10.0
4,22.493000030517578,learn,37506.99996948242,Fri Mar 07 2025 10:10:08 GMT-0600 (Central Standard Time),525014.1000000015,A,gr,I,r,272,1,2116.60000000149,522897.5,8024,WL,B,10.0
4,22.7260000705719,learn,37273.9999294281,Fri Mar 07 2025 10:10:08 GMT-0600 (Central Standard Time),525247.6000000015,A,gra,I,a,220,1,2350.10000000149,522897.5,8024,WL,B,10.0
4,23.575000047683716,learn,36424.999952316284,Fri Mar 07 2025 10:10:08 GMT-0600 (Central Standard Time),526096.200000003,A,gras,I,s,836,1,3198.7000000029802,522897.5,8024,WL,B,10.0
4,23.776999950408936,learn,36223.000049591064,Fri Mar 07 2025 10:10:08 GMT-0600 (Central Standard Time),526298.0,A,grass,I,s,196,1,3400.5,522897.5,8024,WL,B,10.0
4,24.45900011062622,learn,35540.99988937378,Fri Mar 07 2025 10:10:08 GMT-0600 (Central Standard Time),526980.6000000015,A,grassenter,I,enter,671,1,4083.10000000149,522897.5,8024,WL,B,10.0
4,25.659000158309937,learn,34340.99984169006,Fri Mar 07 2025 10:10:08 GMT-0600 (Central Standard Time),528180.8000000045,A,w,I,w,1184,1,1200.0,526980.8000000045,8024,WL,B,11.0
4,25.942000150680542,learn,34057.99984931946,Fri Mar 07 2025 10:10:08 GMT-0600 (Central Standard Time),528463.3000000045,A,wi,I,i,262,1,1482.5,526980.8000000045,8024,WL,B,11.0
4,26.361000061035156,learn,33638.999938964844,Fri Mar 07 2025 10:10:08 GMT-0600 (Central Standard Time),528882.6000000015,A,win,I,n,402,1,1901.7999999970198,526980.8000000045,8024,WL,B,11.0
4,26.659000158309937,learn,33340.99984169006,Fri Mar 07 2025 10:10:08 GMT-0600 (Central Standard Time),529180.6000000015,A,wind,I,d,277,1,2199.7999999970198,526980.8000000045,8024,WL,B,11.0
4,27.125,learn,32875.0,Fri Mar 07 2025 10:10:08 GMT-0600 (Central Standard Time),529646.200000003,A,windo,I,o,453,1,2665.39999999851,526980.8000000045,8024,WL,B,11.0
4,27.407999992370605,learn,32592.000007629395,Fri Mar 07 2025 10:10:08 GMT-0600 (Central Standard Time),529929.8000000045,A,window,I,w,261,1,2949.0,526980.8000000045,8024,WL,B,11.0
4,27.807000160217285,learn,32192.999839782715,Fri Mar 07 2025 10:10:08 GMT-0600 (Central Standard Time),530329.400000006,A,windowenter,I,enter,374,1,3348.60000000149,526980.8000000045,8024,WL,B,11.0
4,34.705000162124634,learn,25294.999837875366,Fri Mar 07 2025 10:10:08 GMT-0600 (Central Standard Time),537226.6000000015,A,a,I,a,6882,1,6896.89999999851,530329.700000003,8024,WL,B,12.0
4,34.97200012207031,learn,25027.999877929688,Fri Mar 07 2025 10:10:08 GMT-0600 (Central Standard Time),537493.700000003,A,ar,I,r,248,1,7164.0,530329.700000003,8024,WL,B,12.0
4,35.4210000038147,learn,24578.999996185303,Fri Mar 07 2025 10:10:08 GMT-0600 (Central Standard Time),537943.3000000045,A,arm,I,m,429,1,7613.60000000149,530329.700000003,8024,WL,B,12.0
4,36.25500011444092,learn,23744.999885559082,Fri Mar 07 2025 10:10:08 GMT-0600 (Central Standard Time),538776.700000003,A,armenter,I,enter,819,1,8447.0,530329.700000003,8024,WL,B,12.0
4,36.57100009918213,learn,23428.99990081787,Fri Mar 07 2025 10:10:08 GMT-0600 (Central Standard Time),539093.3000000045,A,s,I,s,309,1,316.3999999985099,538776.900000006,8024,WL,B,13.0
4,36.92199993133545,learn,23078.00006866455,Fri Mar 07 2025 10:10:08 GMT-0600 (Central Standard Time),539443.8000000045,A,sk,I,k,344,1,666.8999999985099,538776.900000006,8024,WL,B,13.0
4,37.13700008392334,learn,22862.99991607666,Fri Mar 07 2025 10:10:08 GMT-0600 (Central Standard Time),539659.3000000045,A,ski,I,i,209,1,882.3999999985099,538776.900000006,8024,WL,B,13.0
4,37.35300016403198,learn,22646.999835968018,Fri Mar 07 2025 10:10:08 GMT-0600 (Central Standard Time),539875.3000000045,A,skin,I,n,200,1,1098.3999999985099,538776.900000006,8024,WL,B,13.0
4,38.25500011444092,learn,21744.999885559082,Fri Mar 07 2025 10:10:08 GMT-0600 (Central Standard Time),540777.0,A,skinenter,I,enter,879,1,2000.0999999940395,538776.900000006,8024,WL,B,13.0
4,43.63499999046326,learn,16365.000009536743,Fri Mar 07 2025 10:10:08 GMT-0600 (Central Standard Time),546157.200000003,A,d,I,d,5363,1,5379.89999999851,540777.3000000045,8024,WL,B,14.0
4,43.920000076293945,learn,16079.999923706055,Fri Mar 07 2025 10:10:08 GMT-0600 (Central Standard Time),546442.3000000045,A,do,I,o,279,1,5665.0,540777.3000000045,8024,WL,B,14.0
4,44.10199999809265,learn,15898.000001907349,Fri Mar 07 2025 10:10:08 GMT-0600 (Central Standard Time),546624.200000003,A,doo,I,o,161,1,5846.89999999851,540777.3000000045,8024,WL,B,14.0
4,44.30200004577637,learn,15697.999954223633,Fri Mar 07 2025 10:10:08 GMT-0600 (Central Standard Time),546823.700000003,A,door,I,r,178,1,6046.39999999851,540777.3000000045,8024,WL,B,14.0
4,45.36800003051758,learn,14631.999969482422,Fri Mar 07 2025 10:10:08 GMT-0600 (Central Standard Time),547890.0,A,doorenter,I,enter,1062,1,7112.69999999553,540777.3000000045,8024,WL,B,14.0
4,58.265000104904175,learn,1734.9998950958252,Fri Mar 07 2025 10:10:08 GMT-0600 (Central Standard Time),560786.6000000015,A,l,I,l,12875,1,12896.29999999702,547890.3000000045,8024,WL,B,15.0
4,58.3970000743866,learn,1602.9999256134033,Fri Mar 07 2025 10:10:08 GMT-0600 (Central Standard Time),560919.1000000015,A,la,I,a,119,1,13028.79999999702,547890.3000000045,8024,WL,B,15.0
4,58.562999963760376,learn,1437.000036239624,Fri Mar 07 2025 10:10:08 GMT-0600 (Central Standard Time),561085.3000000045,A,lak,I,k,155,1,13195.0,547890.3000000045,8024,WL,B,15.0
4,58.7810001373291,learn,1218.9998626708984,Fri Mar 07 2025 10:10:08 GMT-0600 (Central Standard Time),561302.6000000015,A,lake,I,e,207,1,13412.29999999702,547890.3000000045,8024,WL,B,15.0
4,59.59700012207031,learn,402.9998779296875,Fri Mar 07 2025 10:10:08 GMT-0600 (Central Standard Time),562118.6000000015,A,lakeenter,I,enter,802,1,14228.29999999702,547890.3000000045,8024,WL,B,15.0
5,0.931999921798706,learn,60000.0,Fri Mar 07 2025 10:10:08 GMT-0600 (Central Standard Time),630430.5,A,f,I,f,919,1,931.5999999940395,629498.900000006,8024,WL,B,1.0
5,1.1150000095367432,learn,60000.0,Fri Mar 07 2025 10:10:08 GMT-0600 (Central Standard Time),630613.8000000045,A,fi,I,i,166,1,1114.8999999985099,629498.900000006,8024,WL,B,1.0
5,2.0,learn,60000.0,Fri Mar 07 2025 10:10:08 GMT-0600 (Central Standard Time),631498.200000003,A,fir,I,r,878,1,1999.2999999970198,629498.900000006,8024,WL,B,1.0
5,2.1640000343322754,learn,60000.0,Fri Mar 07 2025 10:10:08 GMT-0600 (Central Standard Time),631662.700000003,A,fire,I,e,155,1,2163.7999999970198,629498.900000006,8024,WL,B,1.0
5,3.13100004196167,learn,60000.0,Fri Mar 07 2025 10:10:08 GMT-0600 (Central Standard Time),632629.200000003,A,fireenter,I,enter,956,1,3130.2999999970198,629498.900000006,8024,WL,B,1.0
5,3.4660000801086426,learn,60000.0,Fri Mar 07 2025 10:10:08 GMT-0600 (Central Standard Time),632964.6000000015,A,w,I,w,330,1,335.1000000014901,632629.5,8024,WL,B,2.0
5,3.796999931335449,learn,60000.0,Fri Mar 07 2025 10:10:08 GMT-0600 (Central Standard Time),633296.0,A,wi,I,i,318,1,666.5,632629.5,8024,WL,B,2.0
5,4.400000095367432,learn,60000.0,Fri Mar 07 2025 10:10:08 GMT-0600 (Central Standard Time),633898.3000000045,A,wif,I,f,587,1,1268.8000000044703,632629.5,8024,WL,B,2.0
5,4.664000034332275,learn,60000.0,Fri Mar 07 2025 10:10:08 GMT-0600 (Central Standard Time),634163.0,A,wife,I,e,260,1,1533.5,632629.5,8024,WL,B,2.0
5,5.198999881744385,learn,60000.0,Fri Mar 07 2025 10:10:08 GMT-0600 (Central Standard Time),634697.200000003,A,wifeenter,I,enter,528,1,2067.7000000029802,632629.5,8024,WL,B,2.0
5,5.763999938964844,learn,60000.0,Fri Mar 07 2025 10:10:08 GMT-0600 (Central Standard Time),635262.5,A,c,I,c,547,1,564.8999999985099,634697.6000000015,8024,WL,B,3.0
5,5.94599986076355,learn,60000.0,Fri Mar 07 2025 10:10:08 GMT-0600 (Central Standard Time),635445.0,A,cl,I,l,172,1,747.3999999985099,634697.6000000015,8024,WL,B,3.0
5,6.246999979019165,learn,60000.0,Fri Mar 07 2025 10:10:08 GMT-0600 (Central Standard Time),635745.400000006,A,clo,I,o,296,1,1047.8000000044703,634697.6000000015,8024,WL,B,3.0
5,7.744999885559082,learn,60000.0,Fri Mar 07 2025 10:10:08 GMT-0600 (Central Standard Time),637243.900000006,A,cloc,I,c,1491,1,2546.3000000044703,634697.6000000015,8024,WL,B,3.0
5,8.529000043869019,learn,60000.0,Fri Mar 07 2025 10:10:08 GMT-0600 (Central Standard Time),638027.3000000045,A,clock,I,k,767,1,3329.7000000029802,634697.6000000015,8024,WL,B,3.0
5,9.812000036239624,learn,60000.0,Fri Mar 07 2025 10:10:08 GMT-0600 (Central Standard Time),639310.8000000045,A,clockenter,I,enter,1272,1,4613.20000000298,634697.6000000015,8024,WL,B,3.0
5,12.378000020980835,learn,60000.0,Fri Mar 07 2025 10:10:08 GMT-0600 (Central Standard Time),641876.8000000045,A,p,I,p,2558,1,2565.8000000044703,639311.0,8024,WL,B,4.0
5,12.828999996185303,learn,60000.0,Fri Mar 07 2025 10:10:08 GMT-0600 (Central Standard Time),642327.700000003,A,pu,I,u,439,1,3016.7000000029802,639311.0,8024,WL,B,4.0
5,13.897000074386597,learn,60000.0,Fri Mar 07 2025 10:10:08 GMT-0600 (Central Standard Time),643395.8000000045,A,pup,I,p,1046,1,4084.8000000044703,639311.0,8024,WL,B,4.0
5,14.210000038146973,learn,60000.0,Fri Mar 07 2025 10:10:08 GMT-0600 (Central Standard Time),643708.400000006,A,pupi,I,i,303,1,4397.4000000059605,639311.0,8024,WL,B,4.0
5,14.510999917984009,learn,60000.0,Fri Mar 07 2025 10:10:08 GMT-0600 (Central Standard Time),644009.8000000045,A,pupil,I,l,288,1,4698.80000000447,639311.0,8024,WL,B,4.0
5,15.39299988746643,learn,60000.0,Fri Mar 07 2025 10:10:08 GMT-0600 (Central Standard Time),644891.8000000045,A,pupilenter,I,enter,875,1,5580.80000000447,639311.0,8024,WL,B,4.0
5,16.51200008392334,learn,60000.0,Fri Mar 07 2025 10:10:08 GMT-0600 (Central Standard Time),646010.5,A,l,I,l,1114,1,1118.3999999985099,644892.1000000015,8024,WL,B,5.0
5,16.67799997329712,learn,60000.0,Fri Mar 07 2025 10:10:08 GMT-0600 (Central Standard Time),646177.0,A,la,I,a,159,1,1284.8999999985099,644892.1000000015,8024,WL,B,5.0
5,16.878000020980835,learn,60000.0,Fri Mar 07 2025 10:10:08 GMT-0600 (Central Standard Time),646376.200000003,A,lak,I,k,177,1,1484.1000000014901,644892.1000000015,8024,WL,B,5.0
5,17.081000089645386,learn,60000.0,Fri Mar 07 2025 10:10:08 GMT-0600 (Central Standard Time),646579.200000003,A,lake,I,e,186,1,1687.1000000014901,644892.1000000015,8024,WL,B,5.0
5,17.55999994277954,learn,60000.0,Fri Mar 07 2025 10:10:08 GMT-0600 (Central Standard Time),647058.900000006,A,lakeenter,I,enter,466,1,2166.8000000044703,644892.1000000015,8024,WL,B,5.0
5,19.72699999809265,learn,60000.0,Fri Mar 07 2025 10:10:08 GMT-0600 (Central Standard Time),649225.900000006,A,w,I,w,2145,1,2166.8000000044703,647059.1000000015,8024,WL,B,6.0
5,20.026000022888184,learn,60000.0,Fri Mar 07 2025 10:10:08 GMT-0600 (Central Standard Time),649524.5,A,wi,I,i,281,1,2465.39999999851,647059.1000000015,8024,WL,B,6.0
5,20.29200005531311,learn,60000.0,Fri Mar 07 2025 10:10:08 GMT-0600 (Central Standard Time),649790.900000006,A,win,I,n,246,1,2731.8000000044703,647059.1000000015,8024,WL,B,6.0
5,20.55900001525879,learn,60000.0,Fri Mar 07 2025 10:10:08 GMT-0600 (Central Standard Time),650058.200000003,A,wind,I,d,261,1,2999.10000000149,647059.1000000015,8024,WL,B,6.0
5,20.776000022888184,learn,60000.0,Fri Mar 07 2025 10:10:08 GMT-0600 (Central Standard Time),650275.0,A,windo,I,o,208,1,3215.89999999851,647059.1000000015,8024,WL,B,6.0
5,21.191999912261963,learn,60000.0,Fri Mar 07 2025 10:10:08 GMT-0600 (Central Standard Time),650691.3000000045,A,window,I,w,410,1,3632.2000000029802,647059.1000000015,8024,WL,B,6.0
5,21.677000045776367,learn,60000.0,Fri Mar 07 2025 10:10:08 GMT-0600 (Central Standard Time),651176.0,A,windowenter,I,enter,463,1,4116.89999999851,647059.1000000015,8024,WL,B,6.0
5,22.308000087738037,learn,60000.0,Fri Mar 07 2025 10:10:08 GMT-0600 (Central Standard Time),651807.0,A,d,I,d,611,1,630.6999999955297,651176.3000000045,8024,WL,B,7.0
5,22.509000062942505,learn,60000.0,Fri Mar 07 2025 10:10:08 GMT-0600 (Central Standard Time),652007.6000000015,A,do,I,o,180,1,831.2999999970198,651176.3000000045,8024,WL,B,7.0
5,22.70799994468689,learn,60000.0,Fri Mar 07 2025 10:10:08 GMT-0600 (Central Standard Time),652207.0,A,doo,I,o,178,1,1030.6999999955297,651176.3000000045,8024,WL,B,7.0
5,22.95899987220764,learn,60000.0,Fri Mar 07 2025 10:10:08 GMT-0600 (Central Standard Time),652458.400000006,A,door,I,r,245,1,1282.1000000014901,651176.3000000045,8024,WL,B,7.0
5,23.341000080108643,learn,60000.0,Fri Mar 07 2025 10:10:08 GMT-0600 (Central Standard Time),652840.1000000015,A,doorenter,I,enter,369,1,1663.7999999970198,651176.3000000045,8024,WL,B,7.0
5,24.306999921798706,learn,60000.0,Fri Mar 07 2025 10:10:08 GMT-0600 (Central Standard Time),653806.200000003,A,s,I,s,958,1,965.7999999970198,652840.400000006,8024,WL,B,8.0
5,24.85699987411499,learn,60000.0,Fri Mar 07 2025 10:10:08 GMT-0600 (Central Standard Time),654355.6000000015,A,st,I,t,532,1,1515.1999999955297,652840.400000006,8024,WL,B,8.0
5,25.223999977111816,learn,60000.0,Fri Mar 07 2025 10:10:08 GMT-0600 (Central Standard Time),654722.900000006,A,str,I,r,353,1,1882.5,652840.400000006,8024,WL,B,8.0
5,25.94099998474121,learn,60000.0,Fri Mar 07 2025 10:10:08 GMT-0600 (Central Standard Time),655440.200000003,A,stre,I,e,697,1,2599.7999999970198,652840.400000006,8024,WL,B,8.0
5,26.139999866485596,learn,60000.0,Fri Mar 07 2025 10:10:08 GMT-0600 (Central Standard Time),655639.200000003,A,stree,I,e,187,1,2798.7999999970198,652840.400000006,8024,WL,B,8.0
5,26.7739999294281,learn,60000.0,Fri Mar 07 2025 10:10:08 GMT-0600 (Central Standard Time),656273.3000000045,A,street,I,t,628,1,3432.89999999851,652840.400000006,8024,WL,B,8.0
5,27.323999881744385,learn,60000.0,Fri Mar 07 2025 10:10:08 GMT-0600 (Central Standard Time),656823.400000006,A,streetenter,I,enter,530,1,3983.0,652840.400000006,8024,WL,B,8.0
5,28.23900008201599,learn,60000.0,Fri Mar 07 2025 10:10:08 GMT-0600 (Central Standard Time),657738.1000000015,A,l,I,l,901,1,914.3999999985099,656823.700000003,8024,WL,B,9.0
5,28.372999906539917,learn,60000.0,Fri Mar 07 2025 10:10:08 GMT-0600 (Central Standard Time),657872.400000006,A,la,I,a,112,1,1048.7000000029802,656823.700000003,8024,WL,B,9.0
5,28.50499987602234,learn,60000.0,Fri Mar 07 2025 10:10:08 GMT-0600 (Central Standard Time),658004.3000000045,A,lak,I,k,113,1,1180.6000000014901,656823.700000003,8024,WL,B,9.0
5,28.721999883651733,learn,60000.0,Fri Mar 07 2025 10:10:08 GMT-0600 (Central Standard Time),658220.900000006,A,lake,I,e,205,1,1397.2000000029802,656823.700000003,8024,WL,B,9.0
5,29.638999938964844,learn,60000.0,Fri Mar 07 2025 10:10:08 GMT-0600 (Central Standard Time),659138.0,A,lakeenter,I,enter,911,1,2314.2999999970198,656823.700000003,8024,WL,B,9.0
5,34.25499987602234,learn,60000.0,Fri Mar 07 2025 10:10:08 GMT-0600 (Central Standard Time),663753.900000006,A,c,I,c,4594,1,4615.60000000149,659138.3000000045,8024,WL,B,10.0
5,34.47000002861023,learn,60000.0,Fri Mar 07 2025 10:10:08 GMT-0600 (Central Standard Time),663969.0,A,ci,I,i,202,1,4830.69999999553,659138.3000000045,8024,WL,B,10.0
5,34.687000036239624,learn,60000.0,Fri Mar 07 2025 10:10:08 GMT-0600 (Central Standard Time),664186.5,A,cit,I,t,211,1,5048.19999999553,659138.3000000045,8024,WL,B,10.0
5,35.05399990081787,learn,60000.0,Fri Mar 07 2025 10:10:08 GMT-0600 (Central Standard Time),664553.0,A,city,I,y,352,1,5414.69999999553,659138.3000000045,8024,WL,B,10.0
5,36.0699999332428,learn,60000.0,Fri Mar 07 2025 10:10:08 GMT-0600 (Central Standard Time),665568.700000003,A,cityenter,I,enter,1002,1,6430.39999999851,659138.3000000045,8024,WL,B,10.0
5,39.76799988746643,learn,60000.0,Fri Mar 07 2025 10:10:08 GMT-0600 (Central Standard Time),669267.5,A,g,I,g,3692,1,3698.5999999940395,665568.900000006,8024,WL,B,11.0
5,40.05399990081787,learn,60000.0,Fri Mar 07 2025 10:10:08 GMT-0600 (Central Standard Time),669553.1000000015,A,gr,I,r,279,1,3984.1999999955297,665568.900000006,8024,WL,B,11.0
5,40.37400007247925,learn,60000.0,Fri Mar 07 2025 10:10:08 GMT-0600 (Central Standard Time),669872.900000006,A,grs,I,s,297,1,4304.0,665568.900000006,8024,WL,B,11.0
5,40.75200009346008,learn,60000.0,Fri Mar 07 2025 10:10:08 GMT-0600 (Central Standard Time),670251.5,A,grsa,I,a,375,1,4682.5999999940395,665568.900000006,8024,WL,B,11.0
5,41.58399987220764,learn,60000.0,Fri Mar 07 2025 10:10:08 GMT-0600 (Central Standard Time),671082.900000006,A,grs,I,backspace,823,1,5514.0,665568.900000006,8024,WL,B,11.0
5,42.1010000705719,learn,60000.0,Fri Mar 07 2025 10:10:08 GMT-0600 (Central Standard Time),671600.3000000045,A,gr,I,backspace,496,1,6031.39999999851,665568.900000006,8024,WL,B,11.0
5,42.36800003051758,learn,60000.0,Fri Mar 07 2025 10:10:08 GMT-0600 (Central Standard Time),671867.1000000015,A,grs,I,s,251,1,6298.19999999553,665568.900000006,8024,WL,B,11.0
5,42.93499994277954,learn,60000.0,Fri Mar 07 2025 10:10:08 GMT-0600 (Central Standard Time),672433.700000003,A,gr,I,backspace,554,1,6864.79999999702,665568.900000006,8024,WL,B,11.0
5,43.10199999809265,learn,60000.0,Fri Mar 07 2025 10:10:08 GMT-0600 (Central Standard Time),672601.3000000045,A,gra,I,a,156,1,7032.39999999851,665568.900000006,8024,WL,B,11.0
5,43.47000002861023,learn,60000.0,Fri Mar 07 2025 10:10:08 GMT-0600 (Central Standard Time),672969.400000006,A,gras,I,s,355,1,7400.5,665568.900000006,8024,WL,B,11.0
5,43.9689998626709,learn,60000.0,Fri Mar 07 2025 10:10:08 GMT-0600 (Central Standard Time),673468.1000000015,A,grass,I,s,493,1,7899.19999999553,665568.900000006,8024,WL,B,11.0
5,44.76799988746643,learn,60000.0,Fri Mar 07 2025 10:10:08 GMT-0600 (Central Standard Time),674267.1000000015,A,grassenter,I,enter,793,1,8698.19999999553,665568.900000006,8024,WL,B,11.0
5,54.74799990653992,learn,60000.0,Fri Mar 07 2025 10:10:08 GMT-0600 (Central Standard Time),684247.5,A,a,I,a,9961,1,9980.09999999404,674267.400000006,8024,WL,B,12.0
5,55.03200006484985,learn,60000.0,Fri Mar 07 2025 10:10:08 GMT-0600 (Central Standard Time),684531.5,A,ar,I,r,276,1,10264.09999999404,674267.400000006,8024,WL,B,12.0
5,55.365999937057495,learn,60000.0,Fri Mar 07 2025 10:10:08 GMT-0600 (Central Standard Time),684865.1000000015,A,arm,I,m,321,1,10597.69999999553,674267.400000006,8024,WL,B,12.0
5,56.61500000953674,learn,60000.0,Fri Mar 07 2025 10:10:08 GMT-0600 (Central Standard Time),686113.900000006,A,armenter,I,enter,1242,1,11846.5,674267.400000006,8024,WL,B,12.0
5,68.4430000782013,learn,60000.0,Fri Mar 07 2025 10:10:08 GMT-0600 (Central Standard Time),697942.5,A,p,I,p,11819,1,11828.39999999851,686114.1000000015,8024,WL,B,13.0
6,0.7310001850128174,distr,59268.99981498718,Fri Mar 07 2025 10:10:08 GMT-0600 (Central Standard Time),764804.6000000015,B,c,I,c,724,1,730.5,764074.1000000015,8024,WL,B,1.0
6,1.2320001125335693,distr,58767.99988746643,Fri Mar 07 2025 10:10:08 GMT-0600 (Central Standard Time),765305.3000000045,B,ce,I,e,495,1,1231.2000000029802,764074.1000000015,8024,WL,B,1.0
6,2.0310001373291016,distr,57968.9998626709,Fri Mar 07 2025 10:10:08 GMT-0600 (Central Standard Time),766104.3000000045,B,cel,I,l,778,1,2030.2000000029802,764074.1000000015,8024,WL,B,1.0
6,2.2300000190734863,distr,57769.999980926514,Fri Mar 07 2025 10:10:08 GMT-0600 (Central Standard Time),766303.700000003,B,cell,I,l,187,1,2229.60000000149,764074.1000000015,8024,WL,B,1.0
6,3.197000026702881,distr,56802.99997329712,Fri Mar 07 2025 10:10:08 GMT-0600 (Central Standard Time),767270.400000006,B,cellenter,I,enter,955,1,3196.3000000044703,764074.1000000015,8024,WL,B,1.0
6,3.8630001544952393,distr,56136.99984550476,Fri Mar 07 2025 10:10:08 GMT-0600 (Central Standard Time),767937.0,B,b,I,b,654,1,666.3999999985099,767270.6000000015,8024,WL,B,2.0
6,4.063000202178955,distr,55936.999797821045,Fri Mar 07 2025 10:10:08 GMT-0600 (Central Standard Time),768136.700000003,B,ba,I,a,187,1,866.1000000014901,767270.6000000015,8024,WL,B,2.0
6,4.313000202178955,distr,55686.999797821045,Fri Mar 07 2025 10:10:08 GMT-0600 (Central Standard Time),768387.0,B,bab,I,b,245,1,1116.3999999985099,767270.6000000015,8024,WL,B,2.0
6,4.680999994277954,distr,55319.000005722046,Fri Mar 07 2025 10:10:08 GMT-0600 (Central Standard Time),768754.400000006,B,baby,I,y,360,1,1483.8000000044703,767270.6000000015,8024,WL,B,2.0
6,5.16100001335144,distr,54838.99998664856,Fri Mar 07 2025 10:10:08 GMT-0600 (Central Standard Time),769235.1000000015,B,babyenter,I,enter,466,1,1964.5,767270.6000000015,8024,WL,B,2.0
6,6.194000005722046,distr,53805.999994277954,Fri Mar 07 2025 10:10:08 GMT-0600 (Central Standard Time),770268.200000003,B,b,I,b,1025,1,1032.7000000029802,769235.5,8024,WL,B,3.0
6,6.330000162124634,distr,53669.999837875366,Fri Mar 07 2025 10:10:08 GMT-0600 (Central Standard Time),770403.900000006,B,ba,I,a,131,1,1168.4000000059605,769235.5,8024,WL,B,3.0
6,6.5950000286102295,distr,53404.99997138977,Fri Mar 07 2025 10:10:08 GMT-0600 (Central Standard Time),770668.8000000045,B,bar,I,r,256,1,1433.3000000044703,769235.5,8024,WL,B,3.0
6,7.463000059127808,distr,52536.99994087219,Fri Mar 07 2025 10:10:08 GMT-0600 (Central Standard Time),771536.700000003,B,barenter,I,enter,855,1,2301.2000000029802,769235.5,8024,WL,B,3.0
6,8.897000074386597,distr,51102.9999256134,Fri Mar 07 2025 10:10:08 GMT-0600 (Central Standard Time),772970.8000000045,B,c,I,c,1420,1,1433.8999999985099,771536.900000006,8024,WL,B,4.0
6,9.128000020980835,distr,50871.999979019165,Fri Mar 07 2025 10:10:08 GMT-0600 (Central Standard Time),773202.0,B,co,I,o,218,1,1665.0999999940395,771536.900000006,8024,WL,B,4.0
6,9.327000141143799,distr,50672.9998588562,Fri Mar 07 2025 10:10:08 GMT-0600 (Central Standard Time),773401.5,B,coi,I,i,186,1,1864.5999999940395,771536.900000006,8024,WL,B,4.0
6,9.594000101089478,distr,50405.99989891052,Fri Mar 07 2025 10:10:08 GMT-0600 (Central Standard Time),773668.1000000015,B,coin,I,n,258,1,2131.1999999955297,771536.900000006,8024,WL,B,4.0
6,10.344000101089478,distr,49655.99989891052,Fri Mar 07 2025 10:10:08 GMT-0600 (Central Standard Time),774417.900000006,B,coinenter,I,enter,734,1,2881.0,771536.900000006,8024,WL,B,4.0
6,12.226999998092651,distr,47773.00000190735,Fri Mar 07 2025 10:10:08 GMT-0600 (Central Standard Time),776301.400000006,B,p,I,p,1863,1,1883.3000000044703,774418.1000000015,8024,WL,B,5.0
6,12.394000053405762,distr,47605.99994659424,Fri Mar 07 2025 10:10:08 GMT-0600 (Central Standard Time),776468.0,B,pa,I,a,160,1,2049.89999999851,774418.1000000015,8024,WL,B,5.0
6,12.59000015258789,distr,47409.99984741211,Fri Mar 07 2025 10:10:08 GMT-0600 (Central Standard Time),776664.5,B,pal,I,l,190,1,2246.39999999851,774418.1000000015,8024,WL,B,5.0
6,12.826000213623047,distr,47173.99978637695,Fri Mar 07 2025 10:10:08 GMT-0600 (Central Standard Time),776899.6000000015,B,pala,I,a,216,1,2481.5,774418.1000000015,8024,WL,B,5.0
6,13.377000093460083,distr,46622.99990653992,Fri Mar 07 2025 10:10:08 GMT-0600 (Central Standard Time),777451.5,B,palac,I,c,544,1,3033.39999999851,774418.1000000015,8024,WL,B,5.0
6,13.610000133514404,distr,46389.999866485596,Fri Mar 07 2025 10:10:08 GMT-0600 (Central Standard Time),777683.8000000045,B,palace,I,e,214,1,3265.7000000029802,774418.1000000015,8024,WL,B,5.0
6,14.176000118255615,distr,45823.999881744385,Fri Mar 07 2025 10:10:08 GMT-0600 (Central Standard Time),778249.6000000015,B,palaceenter,I,enter,552,1,3831.5,774418.1000000015,8024,WL,B,5.0
6,16.657999992370605,distr,43342.000007629395,Fri Mar 07 2025 10:10:08 GMT-0600 (Central Standard Time),780732.0,B,a,I,a,2477,1,2482.0999999940395,778249.900000006,8024,WL,B,6.0
6,19.124000072479248,distr,40875.99992752075,Fri Mar 07 2025 10:10:08 GMT-0600 (Central Standard Time),783198.1000000015,B,,I,backspace,2456,1,4948.19999999553,778249.900000006,8024,WL,B,6.0
6,24.473999977111816,distr,35526.00002288818,Fri Mar 07 2025 10:10:08 GMT-0600 (Central Standard Time),788548.0,B,v,I,v,5345,1,10298.09999999404,778249.900000006,8024,WL,B,6.0
6,24.689000129699707,distr,35310.99987030029,Fri Mar 07 2025 10:10:08 GMT-0600 (Central Standard Time),788763.200000003,B,vi,I,i,201,1,10513.29999999702,778249.900000006,8024,WL,B,6.0
6,25.32200002670288,distr,34677.99997329712,Fri Mar 07 2025 10:10:08 GMT-0600 (Central Standard Time),789396.400000006,B,vil,I,l,616,1,11146.5,778249.900000006,8024,WL,B,6.0
6,25.457000017166138,distr,34542.99998283386,Fri Mar 07 2025 10:10:08 GMT-0600 (Central Standard Time),789530.6000000015,B,vill,I,l,128,1,11280.69999999553,778249.900000006,8024,WL,B,6.0
6,25.58899998664856,distr,34411.00001335144,Fri Mar 07 2025 10:10:08 GMT-0600 (Central Standard Time),789662.8000000045,B,villa,I,a,121,1,11412.89999999851,778249.900000006,8024,WL,B,6.0
6,26.055000066757202,distr,33944.9999332428,Fri Mar 07 2025 10:10:08 GMT-0600 (Central Standard Time),790129.6000000015,B,villag,I,g,452,1,11879.69999999553,778249.900000006,8024,WL,B,6.0
6,26.32100009918213,distr,33678.99990081787,Fri Mar 07 2025 10:10:08 GMT-0600 (Central Standard Time),790395.6000000015,B,village,I,e,259,1,12145.69999999553,778249.900000006,8024,WL,B,6.0
6,26.856000185012817,distr,33143.99981498718,Fri Mar 07 2025 10:10:08 GMT-0600 (Central Standard Time),790929.900000006,B,villageenter,I,enter,530,1,12680.0,778249.900000006,8024,WL,B,6.0
6,44.551000118255615,distr,15448.999881744385,Fri Mar 07 2025 10:10:08 GMT-0600 (Central Standard Time),808624.900000006,B,o,I,o,17683,1,17694.70000000298,790930.200000003,8024,WL,B,7.0
6,45.116000175476074,distr,14883.999824523926,Fri Mar 07 2025 10:10:08 GMT-0600 (Central Standard Time),809190.1000000015,B,oc,I,c,555,1,18259.89999999851,790930.200000003,8024,WL,B,7.0
6,45.366000175476074,distr,14633.999824523926,Fri Mar 07 2025 10:10:08 GMT-0600 (Central Standard Time),809440.5,B,oce,I,e,231,1,18510.29999999702,790930.200000003,8024,WL,B,7.0
6,45.569000005722046,distr,14430.999994277954,Fri Mar 07 2025 10:10:08 GMT-0600 (Central Standard Time),809643.0,B,ocea,I,a,195,1,18712.79999999702,790930.200000003,8024,WL,B,7.0
6,46.44800019264221,distr,13551.999807357788,Fri Mar 07 2025 10:10:08 GMT-0600 (Central Standard Time),810522.6000000015,B,ocean,I,n,866,1,19592.39999999851,790930.200000003,8024,WL,B,7.0
6,47.165000200271606,distr,12834.999799728394,Fri Mar 07 2025 10:10:08 GMT-0600 (Central Standard Time),811239.5,B,oceanenter,I,enter,694,1,20309.29999999702,790930.200000003,8024,WL,B,7.0
6,52.36400008201599,distr,7635.999917984009,Fri Mar 07 2025 10:10:08 GMT-0600 (Central Standard Time),816438.5,B,enter,I,enter,5188,1,5198.69999999553,811239.8000000045,8024,WL,B,8.0
6,52.53000020980835,distr,7469.99979019165,Fri Mar 07 2025 10:10:08 GMT-0600 (Central Standard Time),816604.400000006,B,enter,I,enter,157,1,165.5,816438.900000006,8024,WL,B,9.0
6,52.6800000667572,distr,7319.999933242798,Fri Mar 07 2025 10:10:08 GMT-0600 (Central Standard Time),816754.200000003,B,enter,I,enter,144,1,149.5,816604.700000003,8024,WL,B,10.0
6,52.83200001716614,distr,7167.999982833862,Fri Mar 07 2025 10:10:08 GMT-0600 (Central Standard Time),816906.0,B,enter,I,enter,146,1,151.29999999701977,816754.700000003,8024,WL,B,11.0
6,53.06400012969971,distr,6935.999870300293,Fri Mar 07 2025 10:10:08 GMT-0600 (Central Standard Time),817138.5,B,enter,I,enter,211,1,232.19999999552965,816906.3000000045,8024,WL,B,12.0
6,53.3970000743866,distr,6602.999925613403,Fri Mar 07 2025 10:10:08 GMT-0600 (Central Standard Time),817471.0,B,enter,I,enter,321,1,332.19999999552965,817138.8000000045,8024,WL,B,13.0
6,53.729000091552734,distr,6270.999908447266,Fri Mar 07 2025 10:10:08 GMT-0600 (Central Standard Time),817803.200000003,B,enter,I,enter,325,1,331.8999999985099,817471.3000000045,8024,WL,B,14.0
6,54.11400008201599,distr,5885.999917984009,Fri Mar 07 2025 10:10:08 GMT-0600 (Central Standard Time),818188.1000000015,B,enter,I,enter,377,1,384.6000000014901,817803.5,8024,WL,B,15.0
7,0.8839998245239258,immed,59116.000175476074,Fri Mar 07 2025 10:10:08 GMT-0600 (Central Standard Time),834748.900000006,A,w,I,w,866,1,884.2000000029802,833864.700000003,8024,WL,B,1.0
7,1.1509997844696045,immed,58849.000215530396,Fri Mar 07 2025 10:10:08 GMT-0600 (Central Standard Time),835016.0,A,wi,I,i,247,1,1151.2999999970198,833864.700000003,8024,WL,B,1.0
7,1.5169999599456787,immed,58483.00004005432,Fri Mar 07 2025 10:10:08 GMT-0600 (Central Standard Time),835382.0,A,wif,I,f,345,1,1517.2999999970198,833864.700000003,8024,WL,B,1.0
7,1.8839998245239258,immed,58116.000175476074,Fri Mar 07 2025 10:10:08 GMT-0600 (Central Standard Time),835748.5,A,wife,I,e,358,1,1883.7999999970198,833864.700000003,8024,WL,B,1.0
7,2.5839998722076416,immed,57416.00012779236,Fri Mar 07 2025 10:10:08 GMT-0600 (Central Standard Time),836448.5,A,wifea,I,a,680,1,2583.7999999970198,833864.700000003,8024,WL,B,1.0
7,2.883999824523926,immed,57116.000175476074,Fri Mar 07 2025 10:10:08 GMT-0600 (Central Standard Time),836748.1000000015,A,wifear,I,r,285,1,2883.39999999851,833864.700000003,8024,WL,B,1.0
7,3.816999912261963,immed,56183.00008773804,Fri Mar 07 2025 10:10:08 GMT-0600 (Central Standard Time),837681.400000006,A,wifearn,I,n,920,1,3816.7000000029802,833864.700000003,8024,WL,B,1.0
7,4.798999786376953,immed,55201.00021362305,Fri Mar 07 2025 10:10:08 GMT-0600 (Central Standard Time),838663.400000006,A,wifear,I,backspace,973,1,4798.70000000298,833864.700000003,8024,WL,B,1.0
7,4.983999967575073,immed,55016.00003242493,Fri Mar 07 2025 10:10:08 GMT-0600 (Central Standard Time),838848.200000003,A,wifea,I,backspace,174,1,4983.5,833864.700000003,8024,WL,B,1.0
7,5.333999872207642,immed,54666.00012779236,Fri Mar 07 2025 10:10:08 GMT-0600 (Central Standard Time),839198.700000003,A,wife,I,backspace,333,1,5334.0,833864.700000003,8024,WL,B,1.0
7,6.218999862670898,immed,53781.0001373291,Fri Mar 07 2025 10:10:08 GMT-0600 (Central Standard Time),840084.0,A,wifeenter,I,enter,863,1,6219.29999999702,833864.700000003,8024,WL,B,1.0
7,6.947999954223633,immed,53052.00004577637,Fri Mar 07 2025 10:10:08 GMT-0600 (Central Standard Time),840813.1000000015,A,a,I,a,711,1,728.7999999970198,840084.3000000045,8024,WL,B,2.0
7,7.265999794006348,immed,52734.00020599365,Fri Mar 07 2025 10:10:08 GMT-0600 (Central Standard Time),841130.1000000015,A,ar,I,r,303,1,1045.7999999970198,840084.3000000045,8024,WL,B,2.0
7,7.598999977111816,immed,52401.00002288818,Fri Mar 07 2025 10:10:08 GMT-0600 (Central Standard Time),841463.700000003,A,arn,I,n,323,1,1379.3999999985099,840084.3000000045,8024,WL,B,2.0
7,12.280999898910522,immed,47719.00010108948,Fri Mar 07 2025 10:10:08 GMT-0600 (Central Standard Time),846145.3000000045,A,arnl,I,l,4670,1,6061.0,840084.3000000045,8024,WL,B,2.0
7,12.412999868392944,immed,47587.000131607056,Fri Mar 07 2025 10:10:08 GMT-0600 (Central Standard Time),846278.1000000015,A,arnla,I,a,112,1,6193.79999999702,840084.3000000045,8024,WL,B,2.0
7,12.680999994277954,immed,47319.000005722046,Fri Mar 07 2025 10:10:08 GMT-0600 (Central Standard Time),846545.200000003,A,arnlak,I,k,252,1,6460.89999999851,840084.3000000045,8024,WL,B,2.0
7,12.962999820709229,immed,47037.00017929077,Fri Mar 07 2025 10:10:08 GMT-0600 (Central Standard Time),846828.1000000015,A,arnlake,I,e,277,1,6743.79999999702,840084.3000000045,8024,WL,B,2.0
7,13.462999820709229,immed,46537.00017929077,Fri Mar 07 2025 10:10:08 GMT-0600 (Central Standard Time),847327.700000003,A,arnlakeenter,I,enter,479,1,7243.39999999851,840084.3000000045,8024,WL,B,2.0
7,13.830999851226807,immed,46169.00014877319,Fri Mar 07 2025 10:10:08 GMT-0600 (Central Standard Time),847695.400000006,A,c,I,c,348,1,367.40000000596046,847328.0,8024,WL,B,3.0
7,14.013000011444092,immed,45986.99998855591,Fri Mar 07 2025 10:10:08 GMT-0600 (Central Standard Time),847877.700000003,A,ca,I,a,163,1,549.7000000029802,847328.0,8024,WL,B,3.0
7,14.345999956130981,immed,45654.00004386902,Fri Mar 07 2025 10:10:08 GMT-0600 (Central Standard Time),848210.400000006,A,cab,I,b,326,1,882.4000000059605,847328.0,8024,WL,B,3.0
7,14.744999885559082,immed,45255.00011444092,Fri Mar 07 2025 10:10:08 GMT-0600 (Central Standard Time),848610.1000000015,A,cabi,I,i,384,1,1282.1000000014901,847328.0,8024,WL,B,3.0
7,14.96399998664856,immed,45036.00001335144,Fri Mar 07 2025 10:10:08 GMT-0600 (Central Standard Time),848828.1000000015,A,cabin,I,n,200,1,1500.1000000014901,847328.0,8024,WL,B,3.0
7,16.44599986076355,immed,43554.00013923645,Fri Mar 07 2025 10:10:08 GMT-0600 (Central Standard Time),850310.5,A,cabinenter,I,enter,1471,1,2982.5,847328.0,8024,WL,B,3.0
7,17.395999908447266,immed,42604.000091552734,Fri Mar 07 2025 10:10:08 GMT-0600 (Central Standard Time),851260.6000000015,A,p,I,p,933,1,949.8999999985099,850310.700000003,8024,WL,B,4.0
7,17.644999980926514,immed,42355.000019073486,Fri Mar 07 2025 10:10:08 GMT-0600 (Central Standard Time),851509.900000006,A,pi,I,i,238,1,1199.2000000029802,850310.700000003,8024,WL,B,4.0
7,17.912999868392944,immed,42087.000131607056,Fri Mar 07 2025 10:10:08 GMT-0600 (Central Standard Time),851778.0,A,pip,I,p,263,1,1467.2999999970198,850310.700000003,8024,WL,B,4.0
7,18.562999963760376,immed,41437.000036239624,Fri Mar 07 2025 10:10:08 GMT-0600 (Central Standard Time),852427.900000006,A,pipe,I,e,644,1,2117.2000000029802,850310.700000003,8024,WL,B,4.0
7,18.861999988555908,immed,41138.00001144409,Fri Mar 07 2025 10:10:08 GMT-0600 (Central Standard Time),852726.1000000015,A,pipeenter,I,enter,287,1,2415.39999999851,850310.700000003,8024,WL,B,4.0
7,19.328999996185303,immed,40671.0000038147,Fri Mar 07 2025 10:10:08 GMT-0600 (Central Standard Time),853194.1000000015,A,s,I,s,454,1,467.6000000014901,852726.5,8024,WL,B,5.0
7,19.580999851226807,immed,40419.00014877319,Fri Mar 07 2025 10:10:08 GMT-0600 (Central Standard Time),853445.1000000015,A,st,I,t,246,1,718.6000000014901,852726.5,8024,WL,B,5.0
7,19.811999797821045,immed,40188.000202178955,Fri Mar 07 2025 10:10:08 GMT-0600 (Central Standard Time),853676.5,A,sta,I,a,215,1,950.0,852726.5,8024,WL,B,5.0
7,20.127999782562256,immed,39872.000217437744,Fri Mar 07 2025 10:10:08 GMT-0600 (Central Standard Time),853992.400000006,A,star,I,r,304,1,1265.9000000059605,852726.5,8024,WL,B,5.0
7,20.47699999809265,immed,39523.00000190735,Fri Mar 07 2025 10:10:08 GMT-0600 (Central Standard Time),854341.700000003,A,starenter,I,enter,339,1,1615.2000000029802,852726.5,8024,WL,B,5.0
7,24.179999828338623,immed,35820.00017166138,Fri Mar 07 2025 10:10:08 GMT-0600 (Central Standard Time),858044.8000000045,A,s,I,s,3696,1,3702.89999999851,854341.900000006,8024,WL,B,6.0
7,24.47599983215332,immed,35524.00016784668,Fri Mar 07 2025 10:10:08 GMT-0600 (Central Standard Time),858341.0,A,st,I,t,281,1,3999.0999999940395,854341.900000006,8024,WL,B,6.0
7,24.792999982833862,immed,35207.00001716614,Fri Mar 07 2025 10:10:08 GMT-0600 (Central Standard Time),858658.0,A,str,I,r,312,1,4316.0999999940395,854341.900000006,8024,WL,B,6.0
7,25.043999910354614,immed,34956.000089645386,Fri Mar 07 2025 10:10:08 GMT-0600 (Central Standard Time),858908.3000000045,A,stre,I,e,245,1,4566.39999999851,854341.900000006,8024,WL,B,6.0
7,25.22699999809265,immed,34773.00000190735,Fri Mar 07 2025 10:10:08 GMT-0600 (Central Standard Time),859091.700000003,A,stree,I,e,176,1,4749.79999999702,854341.900000006,8024,WL,B,6.0
7,25.492999792099,immed,34507.000207901,Fri Mar 07 2025 10:10:08 GMT-0600 (Central Standard Time),859357.900000006,A,street,I,t,246,1,5016.0,854341.900000006,8024,WL,B,6.0
7,25.824999809265137,immed,34175.00019073486,Fri Mar 07 2025 10:10:08 GMT-0600 (Central Standard Time),859689.700000003,A,streetenter,I,enter,317,1,5347.79999999702,854341.900000006,8024,WL,B,6.0
7,26.358999967575073,immed,33641.00003242493,Fri Mar 07 2025 10:10:08 GMT-0600 (Central Standard Time),860224.0,A,c,I,c,513,1,534.0999999940395,859689.900000006,8024,WL,B,7.0
7,26.575999975204468,immed,33424.00002479553,Fri Mar 07 2025 10:10:08 GMT-0600 (Central Standard Time),860440.400000006,A,ci,I,i,203,1,750.5,859689.900000006,8024,WL,B,7.0
7,26.793999910354614,immed,33206.000089645386,Fri Mar 07 2025 10:10:08 GMT-0600 (Central Standard Time),860658.700000003,A,cit,I,t,212,1,968.7999999970198,859689.900000006,8024,WL,B,7.0
7,27.009999990463257,immed,32990.00000953674,Fri Mar 07 2025 10:10:08 GMT-0600 (Central Standard Time),860874.5,A,city,I,y,201,1,1184.5999999940395,859689.900000006,8024,WL,B,7.0
7,27.691999912261963,immed,32308.000087738037,Fri Mar 07 2025 10:10:08 GMT-0600 (Central Standard Time),861556.8000000045,A,cityenter,I,enter,664,1,1866.8999999985099,859689.900000006,8024,WL,B,7.0
7,30.157999992370605,immed,29842.000007629395,Fri Mar 07 2025 10:10:08 GMT-0600 (Central Standard Time),864022.900000006,A,d,I,d,2446,1,2465.8000000044703,861557.1000000015,8024,WL,B,8.0
7,30.45799994468689,immed,29542.00005531311,Fri Mar 07 2025 10:10:08 GMT-0600 (Central Standard Time),864322.900000006,A,do,I,o,285,1,2765.8000000044703,861557.1000000015,8024,WL,B,8.0
7,30.625,immed,29375.0,Fri Mar 07 2025 10:10:08 GMT-0600 (Central Standard Time),864489.6000000015,A,doo,I,o,153,1,2932.5,861557.1000000015,8024,WL,B,8.0
7,30.857999801635742,immed,29142.000198364258,Fri Mar 07 2025 10:10:08 GMT-0600 (Central Standard Time),864723.0,A,door,I,r,217,1,3165.89999999851,861557.1000000015,8024,WL,B,8.0
7,31.29099988937378,immed,28709.00011062622,Fri Mar 07 2025 10:10:08 GMT-0600 (Central Standard Time),865155.200000003,A,doorenter,I,enter,424,1,3598.10000000149,861557.1000000015,8024,WL,B,8.0
7,31.906999826431274,immed,28093.000173568726,Fri Mar 07 2025 10:10:08 GMT-0600 (Central Standard Time),865771.8000000045,A,w,I,w,609,1,616.3999999985099,865155.400000006,8024,WL,B,9.0
7,32.12399983406067,immed,27876.00016593933,Fri Mar 07 2025 10:10:08 GMT-0600 (Central Standard Time),865988.700000003,A,wi,I,i,210,1,833.2999999970198,865155.400000006,8024,WL,B,9.0
7,32.389999866485596,immed,27610.000133514404,Fri Mar 07 2025 10:10:08 GMT-0600 (Central Standard Time),866254.400000006,A,win,I,n,246,1,1099.0,865155.400000006,8024,WL,B,9.0
7,32.60899996757507,immed,27391.000032424927,Fri Mar 07 2025 10:10:08 GMT-0600 (Central Standard Time),866473.5,A,wind,I,d,212,1,1318.0999999940395,865155.400000006,8024,WL,B,9.0
7,33.08999991416931,immed,26910.00008583069,Fri Mar 07 2025 10:10:08 GMT-0600 (Central Standard Time),866955.0,A,windo,I,o,476,1,1799.5999999940395,865155.400000006,8024,WL,B,9.0
7,33.306999921798706,immed,26693.000078201294,Fri Mar 07 2025 10:10:08 GMT-0600 (Central Standard Time),867171.3000000045,A,window,I,w,208,1,2015.8999999985099,865155.400000006,8024,WL,B,9.0
7,33.85799980163574,immed,26142.000198364258,Fri Mar 07 2025 10:10:08 GMT-0600 (Central Standard Time),867722.6000000015,A,windowenter,I,enter,543,1,2567.1999999955297,865155.400000006,8024,WL,B,9.0
7,40.47099995613098,immed,19529.00004386902,Fri Mar 07 2025 10:10:08 GMT-0600 (Central Standard Time),874335.8000000045,A,c,I,c,6593,1,6613.0,867722.8000000045,8024,WL,B,10.0
7,40.63800001144409,immed,19361.99998855591,Fri Mar 07 2025 10:10:08 GMT-0600 (Central Standard Time),874503.0,A,ca,I,a,148,1,6780.19999999553,867722.8000000045,8024,WL,B,10.0
7,40.92199993133545,immed,19078.00006866455,Fri Mar 07 2025 10:10:08 GMT-0600 (Central Standard Time),874786.3000000045,A,cab,I,b,268,1,7063.5,867722.8000000045,8024,WL,B,10.0
7,41.15499997138977,immed,18845.00002861023,Fri Mar 07 2025 10:10:08 GMT-0600 (Central Standard Time),875019.5,A,cabi,I,i,217,1,7296.69999999553,867722.8000000045,8024,WL,B,10.0
7,41.40399980545044,immed,18596.00019454956,Fri Mar 07 2025 10:10:08 GMT-0600 (Central Standard Time),875268.1000000015,A,cabin,I,n,231,1,7545.29999999702,867722.8000000045,8024,WL,B,10.0
7,42.10599994659424,immed,17894.00005340576,Fri Mar 07 2025 10:10:08 GMT-0600 (Central Standard Time),875970.1000000015,A,cabinenter,I,enter,687,1,8247.29999999702,867722.8000000045,8024,WL,B,10.0
7,45.55299997329712,immed,14447.00002670288,Fri Mar 07 2025 10:10:08 GMT-0600 (Central Standard Time),879417.700000003,A,p,I,p,3425,1,3447.2999999970198,875970.400000006,8024,WL,B,11.0
7,45.88599991798401,immed,14114.000082015991,Fri Mar 07 2025 10:10:08 GMT-0600 (Central Standard Time),879751.1000000015,A,pu,I,u,312,1,3780.6999999955297,875970.400000006,8024,WL,B,11.0
7,46.401999950408936,immed,13598.000049591064,Fri Mar 07 2025 10:10:08 GMT-0600 (Central Standard Time),880266.8000000045,A,pup,I,p,500,1,4296.39999999851,875970.400000006,8024,WL,B,11.0
7,46.71999979019165,immed,13280.00020980835,Fri Mar 07 2025 10:10:08 GMT-0600 (Central Standard Time),880584.5,A,pupi,I,i,296,1,4614.0999999940395,875970.400000006,8024,WL,B,11.0
7,47.00399994850159,immed,12996.000051498413,Fri Mar 07 2025 10:10:08 GMT-0600 (Central Standard Time),880868.6000000015,A,pupil,I,l,278,1,4898.19999999553,875970.400000006,8024,WL,B,11.0
7,47.67199993133545,immed,12328.00006866455,Fri Mar 07 2025 10:10:08 GMT-0600 (Central Standard Time),881536.200000003,A,pupilenter,I,enter,652,1,5565.79999999702,875970.400000006,8024,WL,B,11.0
7,50.617999792099,immed,9382.000207901001,Fri Mar 07 2025 10:10:08 GMT-0600 (Central Standard Time),884482.900000006,A,s,I,s,2943,1,2946.60000000149,881536.3000000045,8024,WL,B,12.0
7,50.91799998283386,immed,9082.000017166138,Fri Mar 07 2025 10:10:08 GMT-0600 (Central Standard Time),884782.900000006,A,st,I,t,288,1,3246.60000000149,881536.3000000045,8024,WL,B,12.0
7,51.234999895095825,immed,8765.000104904175,Fri Mar 07 2025 10:10:08 GMT-0600 (Central Standard Time),885100.1000000015,A,str,I,r,313,1,3563.7999999970198,881536.3000000045,8024,WL,B,12.0
7,51.5,immed,8500.0,Fri Mar 07 2025 10:10:08 GMT-0600 (Central Standard Time),885364.8000000045,A,stre,I,e,255,1,3828.5,881536.3000000045,8024,WL,B,12.0
7,51.66799998283386,immed,8332.000017166138,Fri Mar 07 2025 10:10:08 GMT-0600 (Central Standard Time),885532.6000000015,A,stree,I,e,160,1,3996.2999999970198,881536.3000000045,8024,WL,B,12.0
7,51.98399996757507,immed,8016.000032424927,Fri Mar 07 2025 10:10:08 GMT-0600 (Central Standard Time),885848.900000006,A,street,I,t,304,1,4312.60000000149,881536.3000000045,8024,WL,B,12.0
7,52.50099992752075,immed,7499.000072479248,Fri Mar 07 2025 10:10:08 GMT-0600 (Central Standard Time),886365.6000000015,A,streetenter,I,enter,498,1,4829.29999999702,881536.3000000045,8024,WL,B,12.0
7,52.88499999046326,immed,7115.000009536743,Fri Mar 07 2025 10:10:08 GMT-0600 (Central Standard Time),886749.1000000015,A,c,I,c,366,1,383.3999999985099,886365.700000003,8024,WL,B,13.0
7,53.2189998626709,immed,6781.000137329102,Fri Mar 07 2025 10:10:08 GMT-0600 (Central Standard Time),887083.200000003,A,ci,I,i,318,1,717.5,886365.700000003,8024,WL,B,13.0
7,53.401999950408936,immed,6598.000049591064,Fri Mar 07 2025 10:10:08 GMT-0600 (Central Standard Time),887266.200000003,A,cit,I,t,177,1,900.5,886365.700000003,8024,WL,B,13.0
7,53.60099983215332,immed,6399.00016784668,Fri Mar 07 2025 10:10:08 GMT-0600 (Central Standard Time),887465.700000003,A,city,I,y,193,1,1100.0,886365.700000003,8024,WL,B,13.0
7,54.10099983215332,immed,5899.00016784668,Fri Mar 07 2025 10:10:08 GMT-0600 (Central Standard Time),887965.700000003,A,cityenter,I,enter,480,1,1600.0,886365.700000003,8024,WL,B,13.0
7,54.35099983215332,immed,5649.00016784668,Fri Mar 07 2025 10:10:08 GMT-0600 (Central Standard Time),888215.8000000045,A,s,I,s,230,1,250.0,887965.8000000045,8024,WL,B,14.0
7,54.66699981689453,immed,5333.000183105469,Fri Mar 07 2025 10:10:08 GMT-0600 (Central Standard Time),888531.5,A,st,I,t,298,1,565.6999999955297,887965.8000000045,8024,WL,B,14.0
7,54.89999985694885,immed,5100.0001430511475,Fri Mar 07 2025 10:10:08 GMT-0600 (Central Standard Time),888765.0,A,sta,I,a,226,1,799.1999999955297,887965.8000000045,8024,WL,B,14.0
7,55.16599988937378,immed,4834.000110626221,Fri Mar 07 2025 10:10:08 GMT-0600 (Central Standard Time),889030.200000003,A,star,I,r,245,1,1064.3999999985099,887965.8000000045,8024,WL,B,14.0
7,55.531999826431274,immed,4468.000173568726,Fri Mar 07 2025 10:10:08 GMT-0600 (Central Standard Time),889397.0,A,starenter,I,enter,357,1,1431.1999999955297,887965.8000000045,8024,WL,B,14.0
7,60.014999866485596,immed,-14.999866485595703,Fri Mar 07 2025 10:10:08 GMT-0600 (Central Standard Time),893880.200000003,A,None,I,None,4478,1,4482.89999999851,889397.3000000045,8024,WL,B,15.0
