acc_sum,block,block_c,condition,correct,correct_response,datetime,endtime,flanker,jitter,project,response,response_test_buffer_response,response_test_target_response,response_time,response_time_test_buffer_response,response_time_test_target_response,row_sel,session_number,start_end,starttime,subject_id,target,task,task_vers,time_test_buffer,time_test_buffer_response,time_test_constants,time_test_flanker,time_test_jitter,time_test_logger,time_test_target,time_test_target_response,time_test_variables,trial
0,prac,1,inc,0,m,Fri Mar 28 2025 15:17:47 GMT-0500 (Central Daylight Time),172817.19999999553,cherry,900,I,z,,,1234,,,10,1,3444.5999999940395,169372.6000000015,8034,copper,NF,C,,,,,,,,,,1
0,prac,1,inc,0,z,Fri Mar 28 2025 15:17:47 GMT-0500 (Central Daylight Time),175799.69999999553,lead,1100,I,m,,,577,,,8,1,2975.0,172824.69999999553,8034,plum,NF,C,,,,,,,,,,2
1,prac,1,inc,1,m,Fri Mar 28 2025 15:17:47 GMT-0500 (Central Daylight Time),179148.29999999702,plum,1100,I,m,,,945,,,16,1,3343.7999999970198,175804.5,8034,lead,NF,C,,,,,,,,,,3
2,prac,1,con,1,z,Fri Mar 28 2025 15:17:47 GMT-0500 (Central Daylight Time),181881.1000000015,orange,1000,I,z,,,423,,,3,1,2728.3000000044703,179152.79999999702,8034,orange,NF,C,,,,,,,,,,4
3,prac,1,con,1,m,Fri Mar 28 2025 15:17:47 GMT-0500 (Central Daylight Time),184979.79999999702,silver,1000,I,m,,,796,,,11,1,3093.6999999955297,181886.1000000015,8034,silver,NF,C,,,,,,,,,,5
4,prac,1,con,1,z,Fri Mar 28 2025 15:17:47 GMT-0500 (Central Daylight Time),187729.19999999553,lime,800,I,z,,,650,,,5,1,2744.7999999970198,184984.3999999985,8034,lime,NF,C,,,,,,,,,,6
5,prac,1,con,1,m,Fri Mar 28 2025 15:17:47 GMT-0500 (Central Daylight Time),190261.79999999702,gold,800,I,m,,,420,,,13,1,2527.39999999851,187734.3999999985,8034,gold,NF,C,,,,,,,,,,7
6,prac,1,con,1,m,Fri Mar 28 2025 15:17:47 GMT-0500 (Central Daylight Time),192911.0,bronze,800,I,m,,,535,,,9,1,2644.8000000044703,190266.19999999553,8034,bronze,NF,C,,,,,,,,,,8
7,prac,1,inc,1,z,Fri Mar 28 2025 15:17:47 GMT-0500 (Central Daylight Time),196054.29999999702,cobalt,1100,I,z,,,682,,,4,1,3138.7999999970198,192915.5,8034,raisin,NF,C,,,,,,,,,,9
8,prac,1,con,1,z,Fri Mar 28 2025 15:17:47 GMT-0500 (Central Daylight Time),198609.1000000015,banana,800,I,z,,,441,,,1,1,2549.3000000044703,196059.79999999702,8034,banana,NF,C,,,,,,,,,,10
8,prac,1,inc,0,m,Fri Mar 28 2025 15:17:47 GMT-0500 (Central Daylight Time),201408.1000000015,raisin,1100,I,z,,,392,,,12,1,2794.10000000149,198614.0,8034,cobalt,NF,C,,,,,,,,,,11
8,prac,1,inc,0,z,Fri Mar 28 2025 15:17:47 GMT-0500 (Central Daylight Time),204190.69999999553,copper,900,I,m,,,569,,,2,1,2778.1999999955297,201412.5,8034,cherry,NF,C,,,,,,,,,,12
9,prac,1,con,1,m,Fri Mar 28 2025 15:17:47 GMT-0500 (Central Daylight Time),206923.19999999553,zinc,1000,I,m,,,421,,,15,1,2727.6999999955297,204195.5,8034,zinc,NF,C,,,,,,,,,,13
10,prac,1,inc,1,z,Fri Mar 28 2025 15:17:47 GMT-0500 (Central Daylight Time),209805.69999999553,iron,900,I,z,,,670,,,6,1,2877.6999999955297,206928.0,8034,pear,NF,C,,,,,,,,,,14
11,prac,1,inc,1,m,Fri Mar 28 2025 15:17:47 GMT-0500 (Central Daylight Time),212571.19999999553,pear,900,I,m,,,555,,,14,1,2760.7999999970198,209810.3999999985,8034,iron,NF,C,,,,,,,,,,15
12,prac,1,con,1,z,Fri Mar 28 2025 15:17:47 GMT-0500 (Central Daylight Time),215304.0,kiwi,1000,I,z,,,417,,,7,1,2728.7000000029802,212575.29999999702,8034,kiwi,NF,C,,,,,,,,,,16
1,test,1,con,1,m,Fri Mar 28 2025 15:17:47 GMT-0500 (Central Daylight Time),229116.3999999985,gold,1000,I,m,m,None,573,373.0,200.0,99,1,2112.39999999851,227004.0,8034,gold,NF,C,224513,224513,222784,223797,222785,224896,224313,224313,224896,1
2,test,1,inc,1,m,Fri Mar 28 2025 15:17:47 GMT-0500 (Central Daylight Time),231182.1000000015,kiwi,1000,I,m,m,None,529,329.0,200.0,103,1,2060.7000000029802,229121.3999999985,8034,gold,NF,C,226629,226629,224901,225913,224902,226962,226429,226429,226962,2
3,test,1,con,1,m,Fri Mar 28 2025 15:17:47 GMT-0500 (Central Daylight Time),233031.5,cobalt,900,I,m,m,None,411,211.0,200.0,90,1,1844.8999999985099,231186.6000000015,8034,cobalt,NF,C,228595,228595,226967,227879,226967,228812,228395,228395,228812,3
4,test,1,con,1,z,Fri Mar 28 2025 15:17:47 GMT-0500 (Central Daylight Time),234747.79999999702,banana,800,I,z,z,None,381,182.0,199.0,1,1,1711.8999999985099,233035.8999999985,8034,banana,NF,C,230345,230345,228816,229628,228816,230528,230145,230145,230528,4
5,test,1,con,1,m,Fri Mar 28 2025 15:17:47 GMT-0500 (Central Daylight Time),236913.6000000015,bronze,1000,I,m,m,None,616,417.0,199.0,67,1,2161.2000000029802,234752.3999999985,8034,bronze,NF,C,232261,232261,230532,231545,230533,232694,232061,232061,232694,5
6,test,1,inc,1,m,Fri Mar 28 2025 15:17:47 GMT-0500 (Central Daylight Time),239162.79999999702,orange,1000,I,m,m,None,706,507.0,199.0,95,1,2245.1999999955297,236917.6000000015,8034,cobalt,NF,C,234427,234427,232698,233710,232698,234943,234227,234227,234943,6
7,test,1,inc,1,z,Fri Mar 28 2025 15:17:47 GMT-0500 (Central Daylight Time),241095.69999999553,gold,800,I,z,z,None,586,386.0,200.0,37,1,1928.6999999955297,239167.0,8034,lime,NF,C,236476,236476,234947,235760,234947,236876,236276,236276,236876,7
8,test,1,con,1,z,Fri Mar 28 2025 15:17:47 GMT-0500 (Central Daylight Time),243263.5,lime,1100,I,z,z,None,529,251.0,278.0,36,1,2163.5,241100.0,8034,lime,NF,C,238788,238788,236880,237992,236880,239044,238509,238509,239043,8
9,test,1,inc,1,m,Fri Mar 28 2025 15:17:47 GMT-0500 (Central Daylight Time),245494.19999999553,raisin,1100,I,m,m,None,587,387.0,200.0,80,1,2225.7999999970198,243268.3999999985,8034,copper,NF,C,240875,240875,239048,240158,239049,241274,240675,240675,241274,9
10,test,1,inc,1,z,Fri Mar 28 2025 15:17:47 GMT-0500 (Central Daylight Time),247810.19999999553,silver,1000,I,z,z,None,767,567.0,200.0,7,1,2311.89999999851,245498.29999999702,8034,banana,NF,C,243007,243007,241278,242291,241279,243590,242807,242807,243590,10
11,test,1,con,1,m,Fri Mar 28 2025 15:17:47 GMT-0500 (Central Daylight Time),249776.19999999553,lead,900,I,m,m,None,526,327.0,199.0,122,1,1961.6999999955297,247814.5,8034,lead,NF,C,245223,245223,243594,244507,243595,245556,245024,245024,245556,11
12,test,1,inc,1,z,Fri Mar 28 2025 15:17:47 GMT-0500 (Central Daylight Time),251675.69999999553,gold,800,I,z,z,None,565,365.0,200.0,45,1,1894.8999999985099,249780.79999999702,8034,pear,NF,C,247089,247089,245561,246373,245561,247456,246889,246889,247456,12
13,test,1,con,1,m,Fri Mar 28 2025 15:17:47 GMT-0500 (Central Daylight Time),253758.29999999702,bronze,800,I,m,m,None,737,537.0,200.0,65,1,2079.0,251679.29999999702,8034,bronze,NF,C,248989,248989,247459,248273,247460,249538,248789,248789,249538,13
14,test,1,inc,1,z,Fri Mar 28 2025 15:17:47 GMT-0500 (Central Daylight Time),255874.79999999702,copper,900,I,z,z,None,681,482.0,199.0,30,1,2112.6999999955297,253762.1000000015,8034,raisin,NF,C,251172,251172,249542,250455,249543,251655,250972,250972,251655,14
15,test,1,con,1,m,Fri Mar 28 2025 15:17:47 GMT-0500 (Central Daylight Time),257873.79999999702,gold,800,I,m,m,None,657,458.0,199.0,97,1,1994.8999999985099,255878.8999999985,8034,gold,NF,C,253188,253188,251659,252471,251659,253654,252988,252988,253654,15
16,test,1,inc,1,z,Fri Mar 28 2025 15:17:47 GMT-0500 (Central Daylight Time),260089.79999999702,silver,1000,I,z,z,None,667,467.0,200.0,31,1,2212.10000000149,257877.69999999553,8034,raisin,NF,C,255387,255387,253658,254670,253658,255870,255187,255187,255870,16
17,test,1,con,1,z,Fri Mar 28 2025 15:17:47 GMT-0500 (Central Daylight Time),262055.69999999553,banana,1000,I,z,z,None,418,219.0,199.0,3,1,1961.5999999940395,260094.1000000015,8034,banana,NF,C,257603,257603,255874,256886,255875,257836,257403,257403,257836,17
18,test,1,con,1,m,Fri Mar 28 2025 15:17:47 GMT-0500 (Central Daylight Time),264321.799999997,silver,1000,I,m,m,None,717,517.0,200.0,83,1,2262.10000000149,262059.69999999553,8034,silver,NF,C,259569,259569,257840,258852,257840,260102,259369,259369,260102,18
19,test,1,inc,1,m,Fri Mar 28 2025 15:17:47 GMT-0500 (Central Daylight Time),266713.6000000015,orange,1000,I,m,m,None,857,658.0,199.0,87,1,2387.5,264326.1000000015,8034,silver,NF,C,261835,261835,260106,261119,260106,262494,261635,261635,262494,19
20,test,1,inc,1,z,Fri Mar 28 2025 15:17:47 GMT-0500 (Central Daylight Time),268787.0,bronze,800,I,z,z,None,739,540.0,199.0,13,1,2068.60000000149,266718.3999999985,8034,cherry,NF,C,264018,264018,262498,263301,262499,264567,263818,263818,264567,20
21,test,1,inc,1,m,Fri Mar 28 2025 15:17:47 GMT-0500 (Central Daylight Time),270703.1000000015,banana,800,I,m,m,None,570,370.0,200.0,93,1,1911.7000000029802,268791.3999999985,8034,cobalt,NF,C,266100,266100,264571,265384,264572,266483,265900,265900,266483,21
22,test,1,con,1,z,Fri Mar 28 2025 15:17:47 GMT-0500 (Central Daylight Time),272735.69999999553,pear,1100,I,z,z,None,394,194.0,200.0,44,1,2026.8999999985099,270708.799999997,8034,pear,NF,C,268316,268316,266489,267600,266489,268516,268116,268116,268516,22
23,test,1,con,1,m,Fri Mar 28 2025 15:17:47 GMT-0500 (Central Daylight Time),274651.799999997,iron,800,I,m,m,None,581,381.0,200.0,105,1,1911.6000000014901,272740.19999999553,8034,iron,NF,C,270049,270049,268520,269333,268521,270432,269849,269849,270432,23
24,test,1,con,1,m,Fri Mar 28 2025 15:17:47 GMT-0500 (Central Daylight Time),276701.3999999985,lead,1000,I,m,m,None,505,305.0,200.0,123,1,2045.7000000029802,274655.69999999553,8034,lead,NF,C,272165,272165,270436,271448,270436,272481,271965,271965,272481,24
25,test,1,con,1,z,Fri Mar 28 2025 15:17:47 GMT-0500 (Central Daylight Time),278850.5,plum,1100,I,z,z,None,516,316.0,200.0,60,1,2144.8000000044703,276705.69999999553,8034,plum,NF,C,274314,274314,272486,273598,272486,274631,274114,274114,274630,25
26,test,1,inc,1,m,Fri Mar 28 2025 15:17:47 GMT-0500 (Central Daylight Time),280966.6000000015,cherry,900,I,m,m,None,678,479.0,199.0,94,1,2112.0,278854.6000000015,8034,cobalt,NF,C,276264,276264,274635,275547,274635,276747,276064,276064,276747,26
27,test,1,con,1,z,Fri Mar 28 2025 15:17:47 GMT-0500 (Central Daylight Time),283082.799999997,raisin,1100,I,z,z,None,466,267.0,199.0,28,1,2112.0,280970.799999997,8034,raisin,NF,C,278580,278580,276751,277863,276751,278863,278380,278380,278863,27
28,test,1,con,1,z,Fri Mar 28 2025 15:17:47 GMT-0500 (Central Daylight Time),285331.8999999985,kiwi,900,I,z,z,None,805,606.0,199.0,50,1,2245.0,283086.8999999985,8034,kiwi,NF,C,280496,280496,278867,279779,278867,281112,280296,280296,281112,28
29,test,1,con,1,z,Fri Mar 28 2025 15:17:47 GMT-0500 (Central Daylight Time),287347.8999999985,pear,1000,I,z,z,None,473,273.0,200.0,43,1,2012.2999999970198,285335.6000000015,8034,pear,NF,C,282845,282845,281116,282128,281116,283128,282645,282645,283128,29
30,test,1,con,1,z,Fri Mar 28 2025 15:17:47 GMT-0500 (Central Daylight Time),289380.69999999553,lime,1000,I,z,z,None,497,297.0,200.0,35,1,2028.5,287352.19999999553,8034,lime,NF,C,284861,284861,283132,284144,283133,285161,284661,284661,285161,30
31,test,1,inc,1,z,Fri Mar 28 2025 15:17:47 GMT-0500 (Central Daylight Time),291396.69999999553,bronze,800,I,z,z,None,606,407.0,199.0,21,1,2012.0,289384.69999999553,8034,orange,NF,C,286760,286760,285165,286058,285165,287177,286561,286561,287177,31
32,test,1,inc,1,m,Fri Mar 28 2025 15:17:47 GMT-0500 (Central Daylight Time),293362.799999997,pear,900,I,m,m,None,532,333.0,199.0,102,1,1962.3999999985099,291400.3999999985,8034,gold,NF,C,288810,288810,287180,288093,287181,289143,288610,288610,289143,32
33,test,1,inc,1,z,Fri Mar 28 2025 15:17:47 GMT-0500 (Central Daylight Time),295378.799999997,gold,800,I,z,z,None,674,473.0,201.0,61,1,2012.1000000014901,293366.69999999553,8034,plum,NF,C,290677,290677,289147,289959,289147,291159,290476,290476,291159,33
34,test,1,inc,1,z,Fri Mar 28 2025 15:17:47 GMT-0500 (Central Daylight Time),297594.6000000015,iron,900,I,z,z,None,767,567.0,200.0,38,1,2211.9000000059605,295382.69999999553,8034,lime,NF,C,292792,292792,291163,292075,291163,293375,292592,292592,293375,34
34,test,1,inc,0,z,Fri Mar 28 2025 15:17:47 GMT-0500 (Central Daylight Time),299660.799999997,cobalt,1100,I,m,m,None,422,222.0,200.0,24,1,2062.2999999970198,297598.5,8034,orange,NF,C,295208,295208,293379,294491,293379,295441,295008,295008,295441,35
35,test,1,con,1,m,Fri Mar 28 2025 15:17:47 GMT-0500 (Central Daylight Time),301726.6000000015,lead,800,I,m,m,None,719,519.0,200.0,121,1,2062.10000000149,299664.5,8034,lead,NF,C,296975,296975,295445,296257,295445,297507,296774,296774,297507,36
36,test,1,con,1,m,Fri Mar 28 2025 15:17:47 GMT-0500 (Central Daylight Time),303876.1000000015,iron,900,I,m,m,None,706,506.0,200.0,106,1,2145.3000000044703,301730.799999997,8034,iron,NF,C,299140,299140,297511,298423,297511,299656,298940,298940,299656,37
37,test,1,con,1,z,Fri Mar 28 2025 15:17:47 GMT-0500 (Central Daylight Time),305991.8999999985,cherry,900,I,z,z,None,669,469.0,200.0,10,1,2111.7999999970198,303880.1000000015,8034,cherry,NF,C,301289,301289,299660,300573,299660,301772,301089,301089,301772,38
38,test,1,inc,1,m,Fri Mar 28 2025 15:17:47 GMT-0500 (Central Daylight Time),308108.0,lime,800,I,m,m,None,782,582.0,200.0,125,1,2111.89999999851,305996.1000000015,8034,lead,NF,C,303305,303305,301776,302589,301776,303888,303105,303105,303888,39
39,test,1,inc,1,z,Fri Mar 28 2025 15:17:47 GMT-0500 (Central Daylight Time),310174.0,bronze,800,I,z,z,None,721,521.0,200.0,29,1,2061.7000000029802,308112.299999997,8034,raisin,NF,C,305421,305421,303892,304705,303893,305954,305221,305221,305954,40
40,test,1,inc,1,m,Fri Mar 28 2025 15:17:47 GMT-0500 (Central Daylight Time),312423.3999999985,orange,1000,I,m,m,None,702,503.0,199.0,71,1,2245.2999999970198,310178.1000000015,8034,bronze,NF,C,307687,307687,305958,306971,305959,308203,307488,307488,308203,41
41,test,1,inc,1,z,Fri Mar 28 2025 15:17:47 GMT-0500 (Central Daylight Time),314772.69999999553,cobalt,1100,I,z,z,None,706,505.0,201.0,16,1,2345.0999999940395,312427.6000000015,8034,cherry,NF,C,310037,310037,308208,309320,308208,310553,309836,309836,310553,42
42,test,1,con,1,z,Fri Mar 28 2025 15:17:47 GMT-0500 (Central Daylight Time),316938.69999999553,raisin,1000,I,z,z,None,632,433.0,199.0,27,1,2162.39999999851,314776.299999997,8034,raisin,NF,C,312286,312286,310556,311569,310557,312719,312086,312086,312719,43
43,test,1,inc,1,m,Fri Mar 28 2025 15:17:47 GMT-0500 (Central Daylight Time),319471.1000000015,plum,1100,I,m,m,None,894,695.0,199.0,120,1,2528.2000000029802,316942.8999999985,8034,zinc,NF,C,314552,314552,312723,313835,312723,315251,314352,314352,315251,44
44,test,1,con,1,z,Fri Mar 28 2025 15:17:47 GMT-0500 (Central Daylight Time),321570.69999999553,cherry,800,I,z,z,None,767,567.0,200.0,9,1,2095.1999999955297,319475.5,8034,cherry,NF,C,316784,316784,315256,316068,315256,317351,316584,316584,317351,45
45,test,1,con,1,m,Fri Mar 28 2025 15:17:47 GMT-0500 (Central Daylight Time),323686.3999999985,silver,800,I,m,m,None,771,572.0,199.0,81,1,2111.10000000149,321575.299999997,8034,silver,NF,C,318883,318883,317355,318167,317356,319466,318684,318684,319466,46
46,test,1,inc,1,m,Fri Mar 28 2025 15:17:47 GMT-0500 (Central Daylight Time),326002.3999999985,lime,800,I,m,m,None,974,775.0,199.0,101,1,2311.7000000029802,323690.69999999553,8034,gold,NF,C,321000,321000,319471,320283,319471,321782,320800,320800,321782,47
47,test,1,inc,1,z,Fri Mar 28 2025 15:17:47 GMT-0500 (Central Daylight Time),328351.5,zinc,1000,I,z,z,None,810,611.0,199.0,63,1,2345.2000000029802,326006.299999997,8034,plum,NF,C,323515,323515,321786,322799,321787,324132,323316,323316,324132,48
48,test,1,inc,1,z,Fri Mar 28 2025 15:17:47 GMT-0500 (Central Daylight Time),330634.299999997,silver,1000,I,z,z,None,741,541.0,200.0,15,1,2278.39999999851,328355.8999999985,8034,cherry,NF,C,325865,325865,324136,325149,324136,326414,325665,325665,326414,49
49,test,1,inc,1,m,Fri Mar 28 2025 15:17:47 GMT-0500 (Central Daylight Time),332916.8999999985,raisin,1100,I,m,m,None,647,447.0,200.0,96,1,2278.7000000029802,330638.19999999553,8034,cobalt,NF,C,328247,328247,326418,327531,326419,328697,328047,328047,328697,50
50,test,1,con,1,m,Fri Mar 28 2025 15:17:47 GMT-0500 (Central Daylight Time),335366.0,silver,1100,I,m,m,None,803,604.0,199.0,84,1,2445.2000000029802,332920.799999997,8034,silver,NF,C,330530,330530,328701,329814,328701,331146,330330,330330,331146,51
51,test,1,con,1,z,Fri Mar 28 2025 15:17:47 GMT-0500 (Central Daylight Time),337502.0,pear,900,I,z,z,None,692,492.0,200.0,42,1,2132.0,335370.0,8034,pear,NF,C,332779,332779,331150,332063,331150,333282,332579,332579,333282,52
52,test,1,inc,1,m,Fri Mar 28 2025 15:17:47 GMT-0500 (Central Daylight Time),339731.3999999985,plum,1100,I,m,m,None,589,390.0,199.0,128,1,2222.89999999851,337508.5,8034,lead,NF,C,335112,335112,333289,334395,333289,335511,334912,334912,335511,53
53,test,1,inc,1,m,Fri Mar 28 2025 15:17:47 GMT-0500 (Central Daylight Time),341764.19999999553,lime,800,I,m,m,None,696,497.0,199.0,109,1,2029.0,339735.19999999553,8034,iron,NF,C,337045,337045,335515,336328,335516,337544,336845,336845,337544,54
54,test,1,con,1,m,Fri Mar 28 2025 15:17:47 GMT-0500 (Central Daylight Time),344146.69999999553,copper,1000,I,m,m,None,834,634.0,200.0,75,1,2378.39999999851,341768.299999997,8034,copper,NF,C,339277,339277,337548,338561,337549,339927,339077,339077,339927,55
55,test,1,inc,1,m,Fri Mar 28 2025 15:17:47 GMT-0500 (Central Daylight Time),346412.799999997,pear,900,I,m,m,None,831,631.0,200.0,118,1,2262.10000000149,344150.69999999553,8034,zinc,NF,C,341560,341560,339931,340844,339931,342193,341360,341360,342193,56
56,test,1,con,1,z,Fri Mar 28 2025 15:17:47 GMT-0500 (Central Daylight Time),348828.3999999985,plum,1000,I,z,z,None,880,680.0,200.0,59,1,2411.7000000029802,346416.69999999553,8034,plum,NF,C,343926,343926,342197,343209,342197,344608,343726,343726,344608,57
57,test,1,con,1,z,Fri Mar 28 2025 15:17:47 GMT-0500 (Central Daylight Time),350861.3999999985,plum,800,I,z,z,None,704,505.0,199.0,57,1,2029.2000000029802,348832.19999999553,8034,plum,NF,C,346125,346125,344612,345425,344613,346641,345926,345926,346641,58
58,test,1,con,1,z,Fri Mar 28 2025 15:17:47 GMT-0500 (Central Daylight Time),353260.5,orange,800,I,z,z,None,1064,864.0,200.0,17,1,2395.0,350865.5,8034,orange,NF,C,348174,348174,346646,347458,346646,349041,347974,347974,349041,59
59,test,1,inc,1,m,Fri Mar 28 2025 15:17:47 GMT-0500 (Central Daylight Time),355343.1000000015,cherry,900,I,m,m,None,636,437.0,199.0,78,1,2078.7000000029802,353264.3999999985,8034,copper,NF,C,350673,350673,349044,349957,349045,351123,350474,350474,351123,60
60,test,1,con,1,m,Fri Mar 28 2025 15:17:47 GMT-0500 (Central Daylight Time),358242.19999999553,copper,1100,I,m,m,None,1250,1050.0,200.0,76,1,2895.1999999955297,355347.0,8034,copper,NF,C,352956,352956,351127,352240,351127,354022,352756,352756,354022,61
61,test,1,inc,1,z,Fri Mar 28 2025 15:17:47 GMT-0500 (Central Daylight Time),360558.3999999985,lead,1100,I,z,z,None,670,471.0,199.0,64,1,2311.89999999851,358246.5,8034,plum,NF,C,355855,355855,354027,355139,354027,356338,355655,355656,356338,62
62,test,1,inc,1,z,Fri Mar 28 2025 15:17:47 GMT-0500 (Central Daylight Time),362757.5,zinc,1000,I,z,z,None,664,464.0,200.0,55,1,2195.0,360562.5,8034,kiwi,NF,C,358071,358071,356342,357355,356343,358538,357871,357871,358538,63
63,test,1,inc,1,z,Fri Mar 28 2025 15:17:47 GMT-0500 (Central Daylight Time),365156.799999997,lead,1100,I,z,z,None,762,562.0,200.0,40,1,2395.39999999851,362761.3999999985,8034,lime,NF,C,360372,360372,358541,359654,358542,360937,360171,360171,360937,64
64,test,1,inc,1,z,Fri Mar 28 2025 15:17:47 GMT-0500 (Central Daylight Time),367206.1000000015,copper,900,I,z,z,None,612,412.0,200.0,14,1,2045.7000000029802,365160.3999999985,8034,cherry,NF,C,362570,362570,360940,361854,360941,362986,362370,362370,362986,65
65,test,1,con,1,m,Fri Mar 28 2025 15:17:47 GMT-0500 (Central Daylight Time),369272.19999999553,gold,900,I,m,m,None,627,427.0,200.0,98,1,2062.1999999955297,367210.0,8034,gold,NF,C,364619,364619,362990,363903,362990,365052,364419,364419,365052,66
66,test,1,inc,1,z,Fri Mar 28 2025 15:17:47 GMT-0500 (Central Daylight Time),371554.69999999553,cobalt,1100,I,z,z,None,641,441.0,200.0,32,1,2278.2999999970198,369276.3999999985,8034,raisin,NF,C,366885,366885,365056,366169,365057,367335,366685,366685,367335,67
67,test,1,con,1,m,Fri Mar 28 2025 15:17:47 GMT-0500 (Central Daylight Time),373604.1000000015,copper,800,I,m,m,None,706,506.0,200.0,73,1,2045.7000000029802,371558.3999999985,8034,copper,NF,C,368868,368868,367338,368152,367339,369384,368668,368668,369384,68
68,test,1,inc,1,m,Fri Mar 28 2025 15:17:47 GMT-0500 (Central Daylight Time),375720.0,cherry,900,I,m,m,None,668,469.0,199.0,86,1,2111.8000000044703,373608.19999999553,8034,silver,NF,C,371017,371017,369388,370301,369389,371500,370818,370818,371500,69
69,test,1,con,1,z,Fri Mar 28 2025 15:17:47 GMT-0500 (Central Daylight Time),378136.1000000015,orange,1000,I,z,z,None,869,669.0,200.0,19,1,2412.3000000044703,375723.799999997,8034,orange,NF,C,373233,373233,371504,372517,371504,373916,373033,373033,373916,70
70,test,1,con,1,z,Fri Mar 28 2025 15:17:47 GMT-0500 (Central Daylight Time),380551.8999999985,banana,1100,I,z,z,None,770,570.0,200.0,4,1,2411.89999999851,378140.0,8034,banana,NF,C,375749,375749,373920,375033,373920,376332,375549,375549,376332,71
71,test,1,con,1,m,Fri Mar 28 2025 15:17:47 GMT-0500 (Central Daylight Time),382818.0,lead,1100,I,m,m,None,617,417.0,200.0,124,1,2262.39999999851,380555.6000000015,8034,lead,NF,C,378165,378165,376336,377448,376336,378598,377965,377965,378598,72
72,test,1,con,1,m,Fri Mar 28 2025 15:17:47 GMT-0500 (Central Daylight Time),385150.6000000015,iron,1100,I,m,m,None,644,437.0,207.0,108,1,2328.5,382822.1000000015,8034,iron,NF,C,380481,380481,378602,379715,378603,380931,380274,380274,380931,73
73,test,1,inc,1,z,Fri Mar 28 2025 15:17:47 GMT-0500 (Central Daylight Time),387133.1000000015,iron,900,I,z,z,None,537,338.0,199.0,54,1,1978.6000000014901,385154.5,8034,kiwi,NF,C,382564,382564,380935,381847,380935,382913,382364,382364,382913,74
74,test,1,con,1,z,Fri Mar 28 2025 15:17:47 GMT-0500 (Central Daylight Time),389415.69999999553,lime,900,I,z,z,None,844,644.0,200.0,34,1,2278.89999999851,387136.799999997,8034,lime,NF,C,384546,384546,382917,383830,382917,385196,384346,384346,385196,75
75,test,1,inc,1,z,Fri Mar 28 2025 15:17:47 GMT-0500 (Central Daylight Time),391398.5,gold,800,I,z,z,None,646,446.0,200.0,53,1,1979.1000000014901,389419.3999999985,8034,kiwi,NF,C,386729,386729,385199,386012,385200,387179,386529,386529,387179,76
76,test,1,inc,1,m,Fri Mar 28 2025 15:17:47 GMT-0500 (Central Daylight Time),393431.19999999553,banana,800,I,m,m,None,694,494.0,200.0,69,1,2028.6999999955297,391402.5,8034,bronze,NF,C,388712,388712,387183,387995,387183,389211,388512,388512,389211,77
77,test,1,con,1,z,Fri Mar 28 2025 15:17:47 GMT-0500 (Central Daylight Time),395364.0,raisin,800,I,z,z,None,589,390.0,199.0,25,1,1929.0,393435.0,8034,raisin,NF,C,390744,390744,389215,390028,389216,391144,390545,390545,391144,78
77,test,1,inc,0,z,Fri Mar 28 2025 15:17:47 GMT-0500 (Central Daylight Time),397296.799999997,iron,900,I,m,m,None,485,285.0,200.0,46,1,1928.2999999970198,395368.5,8034,pear,NF,C,392777,392777,391149,392061,391149,393077,392577,392577,393077,79
78,test,1,inc,1,z,Fri Mar 28 2025 15:17:47 GMT-0500 (Central Daylight Time),399446.0,zinc,1000,I,z,z,None,603,404.0,199.0,39,1,2145.2000000029802,397300.799999997,8034,lime,NF,C,394810,394810,393081,394093,393081,395226,394610,394610,395226,80
79,test,1,con,1,m,Fri Mar 28 2025 15:17:47 GMT-0500 (Central Daylight Time),401495.3999999985,copper,900,I,m,m,None,603,403.0,200.0,74,1,2045.6000000014901,399449.799999997,8034,copper,NF,C,396859,396859,395230,396143,395230,397276,396659,396659,397275,81
80,test,1,inc,1,m,Fri Mar 28 2025 15:17:47 GMT-0500 (Central Daylight Time),403727.8999999985,pear,900,I,m,m,None,785,586.0,199.0,126,1,2228.7000000029802,401499.19999999553,8034,lead,NF,C,398908,398908,397279,398192,397280,399508,398709,398709,399508,82
81,test,1,con,1,z,Fri Mar 28 2025 15:17:47 GMT-0500 (Central Daylight Time),405760.69999999553,lime,800,I,z,z,None,685,485.0,200.0,33,1,2029.0,403731.69999999553,8034,lime,NF,C,401041,401041,399512,400325,399512,401541,400841,400841,401541,83
82,test,1,con,1,m,Fri Mar 28 2025 15:17:47 GMT-0500 (Central Daylight Time),408076.69999999553,iron,1000,I,m,m,None,782,582.0,200.0,107,1,2312.1999999955297,405764.5,8034,iron,NF,C,403274,403274,401545,402557,401545,403857,403074,403074,403857,84
83,test,1,con,1,m,Fri Mar 28 2025 15:17:47 GMT-0500 (Central Daylight Time),410325.8999999985,cobalt,1000,I,m,m,None,712,513.0,199.0,91,1,2244.7000000029802,408081.19999999553,8034,cobalt,NF,C,405590,405590,403861,404873,403862,406106,405390,405390,406106,85
84,test,1,inc,1,z,Fri Mar 28 2025 15:17:47 GMT-0500 (Central Daylight Time),412408.799999997,iron,900,I,z,z,None,636,436.0,200.0,62,1,2079.10000000149,410329.69999999553,8034,plum,NF,C,407739,407739,406110,407023,406110,408189,407539,407539,408189,86
85,test,1,con,1,z,Fri Mar 28 2025 15:17:47 GMT-0500 (Central Daylight Time),414307.8999999985,raisin,900,I,z,z,None,464,264.0,200.0,26,1,1895.2000000029802,412412.69999999553,8034,raisin,NF,C,409822,409822,408193,409105,408193,410088,409622,409622,410088,87
86,test,1,inc,1,m,Fri Mar 28 2025 15:17:47 GMT-0500 (Central Daylight Time),416524.0,plum,1100,I,m,m,None,581,381.0,200.0,104,1,2212.3000000044703,414311.69999999553,8034,gold,NF,C,411921,411921,410092,411205,410092,412304,411721,411721,412304,88
87,test,1,inc,1,m,Fri Mar 28 2025 15:17:47 GMT-0500 (Central Daylight Time),418373.5,banana,800,I,m,m,None,505,305.0,200.0,77,1,1845.8999999985099,416527.6000000015,8034,copper,NF,C,413837,413837,412308,413121,412308,414154,413637,413637,414154,89
88,test,1,con,1,z,Fri Mar 28 2025 15:17:47 GMT-0500 (Central Daylight Time),420356.19999999553,orange,1100,I,z,z,None,346,147.0,199.0,20,1,1978.8999999985099,418377.299999997,8034,orange,NF,C,415987,415987,414157,415270,414158,416136,415787,415787,416136,90
89,test,1,con,1,z,Fri Mar 28 2025 15:17:47 GMT-0500 (Central Daylight Time),422238.8999999985,orange,900,I,z,z,None,436,237.0,199.0,18,1,1878.7000000029802,420360.19999999553,8034,orange,NF,C,417769,417769,416140,417053,416141,418019,417570,417570,418019,91
90,test,1,con,1,z,Fri Mar 28 2025 15:17:47 GMT-0500 (Central Daylight Time),424155.1000000015,banana,900,I,z,z,None,466,266.0,200.0,2,1,1912.2000000029802,422242.8999999985,8034,banana,NF,C,419652,419652,418023,418936,418023,419935,419452,419452,419935,92
91,test,1,con,1,z,Fri Mar 28 2025 15:17:47 GMT-0500 (Central Daylight Time),426037.69999999553,kiwi,800,I,z,z,None,538,338.0,200.0,49,1,1878.6999999955297,424159.0,8034,kiwi,NF,C,421468,421468,419939,420753,419939,421818,421268,421268,421818,93
92,test,1,inc,1,m,Fri Mar 28 2025 15:17:47 GMT-0500 (Central Daylight Time),428253.69999999553,plum,1100,I,m,m,None,578,379.0,199.0,112,1,2212.2999999970198,426041.3999999985,8034,iron,NF,C,423651,423651,421821,422934,421822,424034,423451,423451,424034,94
92,test,1,inc,0,m,Fri Mar 28 2025 15:17:47 GMT-0500 (Central Daylight Time),430186.5,orange,1000,I,z,z,None,398,199.0,199.0,79,1,1929.0,428257.5,8034,copper,NF,C,425767,425767,424038,425050,424038,425967,425567,425567,425967,95
93,test,1,inc,1,m,Fri Mar 28 2025 15:17:47 GMT-0500 (Central Daylight Time),432535.69999999553,raisin,1100,I,m,m,None,627,427.0,200.0,88,1,2344.89999999851,430190.799999997,8034,silver,NF,C,427883,427883,425971,427180,425971,428316,427683,427683,428316,96
94,test,1,inc,1,m,Fri Mar 28 2025 15:17:47 GMT-0500 (Central Daylight Time),434535.0,pear,900,I,m,m,None,561,362.0,199.0,110,1,1995.8999999985099,432539.1000000015,8034,iron,NF,C,429949,429949,428319,429232,428320,430315,429749,429749,430315,97
95,test,1,inc,1,z,Fri Mar 28 2025 15:17:47 GMT-0500 (Central Daylight Time),436551.19999999553,copper,900,I,z,z,None,570,370.0,200.0,6,1,2012.0,434539.19999999553,8034,banana,NF,C,431948,431948,430319,431232,430320,432331,431748,431748,432331,98
96,test,1,inc,1,m,Fri Mar 28 2025 15:17:47 GMT-0500 (Central Daylight Time),438750.299999997,kiwi,1000,I,m,m,None,662,462.0,200.0,119,1,2194.89999999851,436555.3999999985,8034,zinc,NF,C,434064,434064,432335,433348,432336,434530,433864,433864,434530,99
97,test,1,inc,1,z,Fri Mar 28 2025 15:17:47 GMT-0500 (Central Daylight Time),440649.8999999985,bronze,800,I,z,z,None,566,367.0,199.0,5,1,1895.7999999970198,438754.1000000015,8034,banana,NF,C,436047,436047,434534,435347,434535,436430,435848,435848,436430,100
98,test,1,con,1,m,Fri Mar 28 2025 15:17:47 GMT-0500 (Central Daylight Time),442949.1000000015,zinc,1100,I,m,m,None,654,455.0,199.0,116,1,2295.2000000029802,440653.8999999985,8034,zinc,NF,C,438263,438263,436434,437546,436434,438729,438063,438063,438729,101
99,test,1,inc,1,z,Fri Mar 28 2025 15:17:47 GMT-0500 (Central Daylight Time),445181.69999999553,cobalt,1100,I,z,z,None,588,388.0,200.0,8,1,2229.0,442952.69999999553,8034,banana,NF,C,440562,440562,438733,439846,438733,440962,440362,440362,440962,102
100,test,1,con,1,m,Fri Mar 28 2025 15:17:47 GMT-0500 (Central Daylight Time),446881.19999999553,zinc,800,I,m,m,None,360,160.0,200.0,113,1,1695.3999999985099,445185.799999997,8034,zinc,NF,C,442495,442495,440966,441778,440966,442661,442295,442295,442661,103
101,test,1,inc,1,z,Fri Mar 28 2025 15:17:47 GMT-0500 (Central Daylight Time),449013.799999997,silver,1000,I,z,z,None,596,396.0,200.0,23,1,2128.7999999970198,446885.0,8034,orange,NF,C,444394,444394,442665,443678,442665,444794,444194,444194,444794,104
102,test,1,inc,1,z,Fri Mar 28 2025 15:17:47 GMT-0500 (Central Daylight Time),451313.1000000015,lead,1100,I,z,z,None,658,459.0,199.0,48,1,2295.4000000059605,449017.69999999553,8034,pear,NF,C,446627,446627,444798,445911,444798,447093,446427,446427,447093,105
103,test,1,con,1,z,Fri Mar 28 2025 15:17:47 GMT-0500 (Central Daylight Time),453462.3999999985,kiwi,1000,I,z,z,None,612,412.0,200.0,51,1,2145.2999999970198,451317.1000000015,8034,kiwi,NF,C,448826,448826,447097,448110,447097,449242,448626,448626,449242,106
104,test,1,inc,1,m,Fri Mar 28 2025 15:17:47 GMT-0500 (Central Daylight Time),455428.5,cherry,900,I,m,m,None,441,239.0,202.0,70,1,1962.3000000044703,453466.19999999553,8034,bronze,NF,C,450959,450959,449246,450159,449247,451209,450757,450757,451209,107
105,test,1,con,1,m,Fri Mar 28 2025 15:17:47 GMT-0500 (Central Daylight Time),457444.6000000015,zinc,900,I,m,m,None,571,372.0,199.0,114,1,2012.1000000014901,455432.5,8034,zinc,NF,C,452841,452842,451213,452125,451213,453225,452642,452642,453225,108
106,test,1,inc,1,m,Fri Mar 28 2025 15:17:47 GMT-0500 (Central Daylight Time),459593.8999999985,raisin,1100,I,m,m,None,499,300.0,199.0,72,1,2145.10000000149,457448.799999997,8034,bronze,NF,C,455057,455058,453229,454341,453229,455374,454858,454858,455374,109
106,test,1,con,0,z,Fri Mar 28 2025 15:17:47 GMT-0500 (Central Daylight Time),461626.6000000015,kiwi,1100,I,m,m,None,383,183.0,200.0,52,1,2028.4000000059605,459598.19999999553,8034,kiwi,NF,C,457207,457207,455378,456490,455379,457407,457007,457007,457407,110
107,test,1,con,1,z,Fri Mar 28 2025 15:17:47 GMT-0500 (Central Daylight Time),463709.19999999553,cherry,1000,I,z,z,None,545,346.0,199.0,11,1,2078.39999999851,461630.799999997,8034,cherry,NF,C,459140,459140,457411,458423,457411,459489,458940,458940,459489,111
108,test,1,con,1,m,Fri Mar 28 2025 15:17:47 GMT-0500 (Central Daylight Time),465758.6000000015,bronze,900,I,m,m,None,612,413.0,199.0,66,1,2045.4000000059605,463713.19999999553,8034,bronze,NF,C,461122,461122,459493,460406,459494,461539,460923,460923,461539,112
109,test,1,con,1,z,Fri Mar 28 2025 15:17:47 GMT-0500 (Central Daylight Time),467874.799999997,plum,900,I,z,z,None,682,483.0,199.0,58,1,2112.1999999955297,465762.6000000015,8034,plum,NF,C,463172,463172,461543,462455,461543,463655,462972,462972,463655,113
110,test,1,con,1,z,Fri Mar 28 2025 15:17:47 GMT-0500 (Central Daylight Time),470090.6000000015,cherry,1100,I,z,z,None,574,375.0,199.0,12,1,2212.2000000029802,467878.3999999985,8034,cherry,NF,C,465487,465487,463658,464771,463659,465871,465288,465288,465871,114
110,test,1,inc,0,z,Fri Mar 28 2025 15:17:47 GMT-0500 (Central Daylight Time),472006.6000000015,lead,1100,I,m,m,None,270,71.0,199.0,56,1,1912.1000000014901,470094.5,8034,kiwi,NF,C,467704,467704,465875,466987,465875,467787,467504,467504,467787,115
111,test,1,inc,1,m,Fri Mar 28 2025 15:17:47 GMT-0500 (Central Daylight Time),474006.19999999553,banana,800,I,m,m,None,653,454.0,199.0,85,1,1995.6999999955297,472010.5,8034,silver,NF,C,469320,469320,467791,468603,467791,469786,469120,469120,469786,116
112,test,1,inc,1,z,Fri Mar 28 2025 15:17:47 GMT-0500 (Central Daylight Time),476038.6000000015,copper,900,I,z,z,None,596,396.0,200.0,22,1,2028.6000000014901,474010.0,8034,orange,NF,C,471419,471419,469790,470703,469790,471819,471219,471219,471819,117
112,test,1,con,0,z,Fri Mar 28 2025 15:17:47 GMT-0500 (Central Daylight Time),477638.19999999553,pear,800,I,m,m,None,253,54.0,199.0,41,1,1595.5,476042.69999999553,8034,pear,NF,C,473352,473352,471823,472635,471823,473418,473152,473152,473418,118
113,test,1,con,1,m,Fri Mar 28 2025 15:17:47 GMT-0500 (Central Daylight Time),480004.19999999553,cobalt,1100,I,m,m,None,723,523.0,200.0,92,1,2361.89999999851,477642.299999997,8034,cobalt,NF,C,475251,475251,473422,474537,473423,475784,475051,475051,475784,119
114,test,1,con,1,m,Fri Mar 28 2025 15:17:47 GMT-0500 (Central Daylight Time),482070.19999999553,gold,1100,I,m,m,None,421,221.0,200.0,100,1,2062.0,480008.19999999553,8034,gold,NF,C,477617,477617,475788,476901,475788,477850,477417,477417,477850,120
115,test,1,con,1,m,Fri Mar 28 2025 15:17:47 GMT-0500 (Central Daylight Time),484002.799999997,zinc,1000,I,m,m,None,383,183.0,200.0,115,1,1928.6999999955297,482074.1000000015,8034,zinc,NF,C,479583,479583,477854,478867,477855,479783,479383,479383,479783,121
116,test,1,inc,1,m,Fri Mar 28 2025 15:17:47 GMT-0500 (Central Daylight Time),486002.1000000015,lime,800,I,m,m,None,650,450.0,200.0,117,1,1995.3000000044703,484006.799999997,8034,zinc,NF,C,481316,481316,479787,480600,479787,481782,481116,481116,481782,122
117,test,1,inc,1,z,Fri Mar 28 2025 15:17:47 GMT-0500 (Central Daylight Time),488068.19999999553,zinc,1000,I,z,z,None,523,323.0,200.0,47,1,2061.89999999851,486006.299999997,8034,pear,NF,C,483515,483515,481786,482799,481787,483848,483315,483315,483848,123
118,test,1,con,1,m,Fri Mar 28 2025 15:17:47 GMT-0500 (Central Daylight Time),489817.69999999553,cobalt,800,I,m,m,None,408,209.0,199.0,89,1,1745.6999999955297,488072.0,8034,cobalt,NF,C,485381,485381,483852,484665,483852,485598,485182,485182,485598,124
119,test,1,inc,1,m,Fri Mar 28 2025 15:17:47 GMT-0500 (Central Daylight Time),492033.6000000015,kiwi,1000,I,m,m,None,667,467.0,200.0,127,1,2211.9000000059605,489821.69999999553,8034,lead,NF,C,487331,487331,485602,486614,485602,487814,487131,487131,487814,125
120,test,1,con,1,m,Fri Mar 28 2025 15:17:47 GMT-0500 (Central Daylight Time),494149.5,silver,900,I,m,m,None,670,471.0,199.0,82,1,2112.0,492037.5,8034,silver,NF,C,489447,489447,487818,488730,487818,489930,489247,489247,489930,126
121,test,1,con,1,m,Fri Mar 28 2025 15:17:47 GMT-0500 (Central Daylight Time),496332.6000000015,bronze,1100,I,m,m,None,546,347.0,199.0,68,1,2179.0,494153.6000000015,8034,bronze,NF,C,491762,491763,489934,491046,489934,492113,491563,491563,492113,127
122,test,1,inc,1,m,Fri Mar 28 2025 15:17:47 GMT-0500 (Central Daylight Time),498531.6000000015,kiwi,1000,I,m,m,None,665,465.0,200.0,111,1,2195.3000000044703,496336.299999997,8034,iron,NF,C,493845,493845,492116,493129,492117,494312,493645,493645,494312,128
