Number,acc_sum,block,block_c,block_cond,con_img,correct,correct_response,datetime,endtime,jitter,project,response,response_time,row_sel,session_number,start_end,starttime,subject_id,task,task_vers,trial
8,0,prac,1,A,circle.png,0,m,Wed Apr 09 2025 16:28:12 GMT-0500 (Central Daylight Time),90168.19999999925,1600,O,None,1515,7,1,3892.599999997765,86275.60000000149,7124,NTS,B,1
4,0,prac,1,A,circle.png,0,z,Wed Apr 09 2025 16:28:12 GMT-0500 (Central Daylight Time),93978.60000000149,1400,O,None,1515,4,1,3803.60000000149,90175.0,7124,NTS,B,2
1,0,prac,1,A,circle.png,0,z,Wed Apr 09 2025 16:28:12 GMT-0500 (Central Daylight Time),96615.90000000224,1000,O,m,835,1,1,2631.60000000149,93984.30000000075,7124,NTS,B,3
9,0,prac,1,A,circle.png,0,m,Wed Apr 09 2025 16:28:12 GMT-0500 (Central Daylight Time),100414.5,1500,O,None,1515,8,1,3793.099999997765,96621.40000000224,7124,NTS,B,4
6,1,prac,1,A,circle.png,1,m,Wed Apr 09 2025 16:28:12 GMT-0500 (Central Daylight Time),103980.30000000075,1900,O,m,872,5,1,3559.800000000745,100420.5,7124,NTS,B,5
1,2,prac,1,A,circle.png,1,z,Wed Apr 09 2025 16:28:12 GMT-0500 (Central Daylight Time),106546.19999999925,1000,O,z,782,1,1,2559.7999999970198,103986.40000000224,7124,NTS,B,6
2,3,prac,1,A,circle.png,1,z,Wed Apr 09 2025 16:28:12 GMT-0500 (Central Daylight Time),110494.90000000224,2000,O,z,1160,2,1,3942.5,106552.40000000224,7124,NTS,B,7
7,4,prac,1,A,circle.png,1,m,Wed Apr 09 2025 16:28:12 GMT-0500 (Central Daylight Time),113477.19999999925,1700,O,m,495,6,1,2976.2999999970198,110500.90000000224,7124,NTS,B,8
7,5,prac,1,A,circle.png,1,m,Wed Apr 09 2025 16:28:12 GMT-0500 (Central Daylight Time),116659.40000000224,1700,O,m,689,6,1,3176.60000000149,113482.80000000075,7124,NTS,B,9
3,6,prac,1,A,circle.png,1,z,Wed Apr 09 2025 16:28:12 GMT-0500 (Central Daylight Time),119608.69999999925,1200,O,z,959,3,1,2943.599999997765,116665.10000000149,7124,NTS,B,10
8,7,prac,1,A,circle.png,1,m,Wed Apr 09 2025 16:28:12 GMT-0500 (Central Daylight Time),122891.0,1600,O,m,888,7,1,3277.099999997765,119613.90000000224,7124,NTS,B,11
4,8,prac,1,A,circle.png,1,z,Wed Apr 09 2025 16:28:12 GMT-0500 (Central Daylight Time),125990.0,1400,O,z,903,4,1,3094.0,122896.0,7124,NTS,B,12
8,1,prac,2,A,circle.png,1,m,Wed Apr 09 2025 16:28:12 GMT-0500 (Central Daylight Time),134770.40000000224,1600,O,m,1007,7,1,3392.900000002235,131377.5,7124,NTS,B,1
7,2,prac,2,A,circle.png,1,m,Wed Apr 09 2025 16:28:12 GMT-0500 (Central Daylight Time),137819.30000000075,1700,O,m,556,6,1,3042.300000000745,134777.0,7124,NTS,B,2
4,3,prac,2,A,circle.png,1,z,Wed Apr 09 2025 16:28:12 GMT-0500 (Central Daylight Time),140452.19999999925,1400,O,z,446,4,1,2627.0,137825.19999999925,7124,NTS,B,3
8,4,prac,2,A,circle.png,1,m,Wed Apr 09 2025 16:28:12 GMT-0500 (Central Daylight Time),143267.90000000224,1600,O,m,430,7,1,2810.400000002235,140457.5,7124,NTS,B,4
2,5,prac,2,A,circle.png,1,z,Wed Apr 09 2025 16:28:12 GMT-0500 (Central Daylight Time),146716.90000000224,2000,O,z,663,2,1,3443.0,143273.90000000224,7124,NTS,B,5
7,6,prac,2,A,circle.png,1,m,Wed Apr 09 2025 16:28:12 GMT-0500 (Central Daylight Time),149515.80000000075,1700,O,m,305,6,1,2793.10000000149,146722.69999999925,7124,NTS,B,6
4,7,prac,2,A,circle.png,1,z,Wed Apr 09 2025 16:28:12 GMT-0500 (Central Daylight Time),152065.30000000075,1400,O,z,350,4,1,2544.5,149520.80000000075,7124,NTS,B,7
1,7,prac,2,A,circle.png,0,z,Wed Apr 09 2025 16:28:12 GMT-0500 (Central Daylight Time),154281.0,1000,O,m,425,1,1,2210.599999997765,152070.40000000224,7124,NTS,B,8
3,8,prac,2,A,circle.png,1,z,Wed Apr 09 2025 16:28:12 GMT-0500 (Central Daylight Time),157213.6000000015,1200,O,z,945,3,1,2927.800000000745,154285.80000000075,7124,NTS,B,9
9,9,prac,2,A,circle.png,1,m,Wed Apr 09 2025 16:28:12 GMT-0500 (Central Daylight Time),160079.40000000224,1500,O,m,577,8,1,2860.800000000745,157218.6000000015,7124,NTS,B,10
3,10,prac,2,A,circle.png,1,z,Wed Apr 09 2025 16:28:12 GMT-0500 (Central Daylight Time),162944.90000000224,1200,O,z,883,3,1,2859.5,160085.40000000224,7124,NTS,B,11
6,11,prac,2,A,circle.png,1,m,Wed Apr 09 2025 16:28:12 GMT-0500 (Central Daylight Time),166060.90000000224,1900,O,m,429,5,1,3110.5,162950.40000000224,7124,NTS,B,12
9,0,prac,1,B,triangle.png,0,z,Wed Apr 09 2025 16:28:12 GMT-0500 (Central Daylight Time),206464.69999999925,1400,O,None,1516,8,1,3692.599999997765,202772.1000000015,7124,NTS,B,1
7,1,prac,1,B,triangle.png,1,z,Wed Apr 09 2025 16:28:12 GMT-0500 (Central Daylight Time),209780.6000000015,2000,O,z,530,6,1,3308.5,206472.1000000015,7124,NTS,B,2
1,2,prac,1,B,triangle.png,1,z,Wed Apr 09 2025 16:28:12 GMT-0500 (Central Daylight Time),213662.5,1900,O,z,1142,1,1,3876.89999999851,209785.6000000015,7124,NTS,B,3
1,3,prac,1,B,triangle.png,1,z,Wed Apr 09 2025 16:28:12 GMT-0500 (Central Daylight Time),216928.0,1900,O,z,568,1,1,3260.199999999255,213667.80000000075,7124,NTS,B,4
6,4,prac,1,B,triangle.png,1,m,Wed Apr 09 2025 16:28:12 GMT-0500 (Central Daylight Time),219344.0,1000,O,m,626,5,1,2410.89999999851,216933.1000000015,7124,NTS,B,5
2,5,prac,1,B,triangle.png,1,m,Wed Apr 09 2025 16:28:12 GMT-0500 (Central Daylight Time),222459.80000000075,1700,O,m,622,2,1,3110.699999999255,219349.1000000015,7124,NTS,B,6
8,6,prac,1,B,triangle.png,1,m,Wed Apr 09 2025 16:28:12 GMT-0500 (Central Daylight Time),224859.0,1200,O,m,414,7,1,2393.599999997765,222465.40000000224,7124,NTS,B,7
9,7,prac,1,B,triangle.png,1,z,Wed Apr 09 2025 16:28:12 GMT-0500 (Central Daylight Time),227641.5,1400,O,z,591,8,1,2777.0,224864.5,7124,NTS,B,8
3,8,prac,1,B,triangle.png,1,z,Wed Apr 09 2025 16:28:12 GMT-0500 (Central Daylight Time),230590.69999999925,1600,O,z,553,3,1,2943.89999999851,227646.80000000075,7124,NTS,B,9
7,9,prac,1,B,triangle.png,1,z,Wed Apr 09 2025 16:28:12 GMT-0500 (Central Daylight Time),233889.40000000224,2000,O,z,516,6,1,3292.5,230596.90000000224,7124,NTS,B,10
2,10,prac,1,B,triangle.png,1,m,Wed Apr 09 2025 16:28:12 GMT-0500 (Central Daylight Time),236838.69999999925,1700,O,m,461,2,1,2944.199999999255,233894.5,7124,NTS,B,11
4,11,prac,1,B,triangle.png,1,m,Wed Apr 09 2025 16:28:12 GMT-0500 (Central Daylight Time),239821.19999999925,1500,O,m,696,4,1,2977.5,236843.69999999925,7124,NTS,B,12
4,0,test,1,A,circle.png,0,z,Wed Apr 09 2025 16:28:12 GMT-0500 (Central Daylight Time),262947.0,1400,O,m,1466,4,1,2895.89999999851,260051.1000000015,7124,NTS,B,1
4,1,test,1,A,circle.png,1,z,Wed Apr 09 2025 16:28:12 GMT-0500 (Central Daylight Time),265179.69999999925,1400,O,z,807,4,1,2228.699999999255,262951.0,7124,NTS,B,2
9,2,test,1,A,circle.png,1,m,Wed Apr 09 2025 16:28:12 GMT-0500 (Central Daylight Time),267412.40000000224,1500,O,m,715,8,1,2228.800000000745,265183.6000000015,7124,NTS,B,3
7,3,test,1,A,circle.png,1,m,Wed Apr 09 2025 16:28:12 GMT-0500 (Central Daylight Time),269828.40000000224,1700,O,m,690,6,1,2412.300000000745,267416.1000000015,7124,NTS,B,4
6,4,test,1,A,circle.png,1,m,Wed Apr 09 2025 16:28:12 GMT-0500 (Central Daylight Time),272227.69999999925,1900,O,m,474,5,1,2395.599999997765,269832.1000000015,7124,NTS,B,5
3,5,test,1,A,circle.png,1,z,Wed Apr 09 2025 16:28:12 GMT-0500 (Central Daylight Time),274110.19999999925,1200,O,z,663,3,1,1878.699999999255,272231.5,7124,NTS,B,6
9,6,test,1,A,circle.png,1,m,Wed Apr 09 2025 16:28:12 GMT-0500 (Central Daylight Time),276026.30000000075,1500,O,m,391,8,1,1912.199999999255,274114.1000000015,7124,NTS,B,7
2,7,test,1,A,circle.png,1,z,Wed Apr 09 2025 16:28:12 GMT-0500 (Central Daylight Time),278608.69999999925,2000,O,z,560,2,1,2578.5,276030.19999999925,7124,NTS,B,8
1,8,test,1,A,circle.png,1,z,Wed Apr 09 2025 16:28:12 GMT-0500 (Central Daylight Time),280291.6000000015,1000,O,z,657,1,1,1679.300000000745,278612.30000000075,7124,NTS,B,9
8,9,test,1,A,circle.png,1,m,Wed Apr 09 2025 16:28:12 GMT-0500 (Central Daylight Time),282641.0,1600,O,m,727,7,1,2345.39999999851,280295.6000000015,7124,NTS,B,10
1,10,test,1,A,circle.png,1,z,Wed Apr 09 2025 16:28:12 GMT-0500 (Central Daylight Time),284257.0,1000,O,z,585,1,1,1612.0,282645.0,7124,NTS,B,11
7,11,test,1,A,circle.png,1,m,Wed Apr 09 2025 16:28:12 GMT-0500 (Central Daylight Time),286489.6000000015,1700,O,m,501,6,1,2228.5,284261.1000000015,7124,NTS,B,12
6,11,test,1,A,circle.png,0,m,Wed Apr 09 2025 16:28:12 GMT-0500 (Central Daylight Time),289155.5,1900,O,z,741,5,1,2662.300000000745,286493.19999999925,7124,NTS,B,13
2,12,test,1,A,circle.png,1,z,Wed Apr 09 2025 16:28:12 GMT-0500 (Central Daylight Time),292038.0,2000,O,z,855,2,1,2878.599999997765,289159.40000000224,7124,NTS,B,14
1,13,test,1,A,circle.png,1,z,Wed Apr 09 2025 16:28:12 GMT-0500 (Central Daylight Time),293920.69999999925,1000,O,z,852,1,1,1878.5999999977648,292042.1000000015,7124,NTS,B,15
3,14,test,1,A,circle.png,1,z,Wed Apr 09 2025 16:28:12 GMT-0500 (Central Daylight Time),295936.80000000075,1200,O,z,785,3,1,2012.300000000745,293924.5,7124,NTS,B,16
9,15,test,1,A,circle.png,1,m,Wed Apr 09 2025 16:28:12 GMT-0500 (Central Daylight Time),298019.5,1500,O,m,565,8,1,2078.699999999255,295940.80000000075,7124,NTS,B,17
7,16,test,1,A,circle.png,1,m,Wed Apr 09 2025 16:28:12 GMT-0500 (Central Daylight Time),300418.6000000015,1700,O,m,667,6,1,2394.699999999255,298023.90000000224,7124,NTS,B,18
4,17,test,1,A,circle.png,1,z,Wed Apr 09 2025 16:28:12 GMT-0500 (Central Daylight Time),302501.40000000224,1400,O,z,663,4,1,2079.0,300422.40000000224,7124,NTS,B,19
8,18,test,1,A,circle.png,1,m,Wed Apr 09 2025 16:28:12 GMT-0500 (Central Daylight Time),304667.30000000075,1600,O,m,533,7,1,2162.199999999255,302505.1000000015,7124,NTS,B,20
8,19,test,1,A,circle.png,1,m,Wed Apr 09 2025 16:28:12 GMT-0500 (Central Daylight Time),306783.30000000075,1600,O,m,495,7,1,2111.800000000745,304671.5,7124,NTS,B,21
2,20,test,1,A,circle.png,1,z,Wed Apr 09 2025 16:28:12 GMT-0500 (Central Daylight Time),309632.40000000224,2000,O,z,818,2,1,2845.0,306787.40000000224,7124,NTS,B,22
3,21,test,1,A,circle.png,1,z,Wed Apr 09 2025 16:28:12 GMT-0500 (Central Daylight Time),311881.69999999925,1200,O,z,1026,3,1,2245.39999999851,309636.30000000075,7124,NTS,B,23
9,22,test,1,A,circle.png,1,m,Wed Apr 09 2025 16:28:12 GMT-0500 (Central Daylight Time),313964.5,1500,O,m,556,8,1,2078.89999999851,311885.6000000015,7124,NTS,B,24
9,1,test,1,B,triangle.png,1,z,Wed Apr 09 2025 16:28:12 GMT-0500 (Central Daylight Time),332541.80000000075,1900,O,z,730,16,1,2645.10000000149,329896.69999999925,7124,NTS,B,1
8,2,test,1,B,triangle.png,1,m,Wed Apr 09 2025 16:28:12 GMT-0500 (Central Daylight Time),334324.69999999925,1200,O,m,556,7,1,1778.699999999255,332546.0,7124,NTS,B,2
8,3,test,1,B,triangle.png,1,m,Wed Apr 09 2025 16:28:12 GMT-0500 (Central Daylight Time),336740.6000000015,1700,O,m,698,15,1,2412.199999999255,334328.40000000224,7124,NTS,B,3
2,3,test,1,B,triangle.png,0,m,Wed Apr 09 2025 16:28:12 GMT-0500 (Central Daylight Time),338956.69999999925,1700,O,z,490,2,1,2211.7999999970198,336744.90000000224,7124,NTS,B,4
1,4,test,1,B,triangle.png,1,z,Wed Apr 09 2025 16:28:12 GMT-0500 (Central Daylight Time),341006.0,1400,O,z,622,9,1,2045.300000000745,338960.69999999925,7124,NTS,B,5
3,5,test,1,B,triangle.png,1,z,Wed Apr 09 2025 16:28:12 GMT-0500 (Central Daylight Time),344071.80000000075,2000,O,z,1037,11,1,3062.199999999255,341009.6000000015,7124,NTS,B,6
8,6,test,1,B,triangle.png,1,m,Wed Apr 09 2025 16:28:12 GMT-0500 (Central Daylight Time),346320.90000000224,1700,O,m,519,15,1,2245.2000000029802,344075.69999999925,7124,NTS,B,7
2,7,test,1,B,triangle.png,1,m,Wed Apr 09 2025 16:28:12 GMT-0500 (Central Daylight Time),348120.5,1200,O,m,569,10,1,1796.0,346324.5,7124,NTS,B,8
4,8,test,1,B,triangle.png,1,m,Wed Apr 09 2025 16:28:12 GMT-0500 (Central Daylight Time),350136.30000000075,1500,O,m,494,4,1,2011.3999999985099,348124.90000000224,7124,NTS,B,9
8,9,test,1,B,triangle.png,1,m,Wed Apr 09 2025 16:28:12 GMT-0500 (Central Daylight Time),351886.0,1200,O,m,530,7,1,1745.699999999255,350140.30000000075,7124,NTS,B,10
9,10,test,1,B,triangle.png,1,z,Wed Apr 09 2025 16:28:12 GMT-0500 (Central Daylight Time),353818.5,1400,O,z,509,8,1,1929.0999999977648,351889.40000000224,7124,NTS,B,11
4,11,test,1,B,triangle.png,1,m,Wed Apr 09 2025 16:28:12 GMT-0500 (Central Daylight Time),356267.90000000224,1500,O,m,924,4,1,2445.2000000029802,353822.69999999925,7124,NTS,B,12
3,12,test,1,B,triangle.png,1,z,Wed Apr 09 2025 16:28:12 GMT-0500 (Central Daylight Time),358867.1000000015,2000,O,z,567,11,1,2594.800000000745,356272.30000000075,7124,NTS,B,13
9,13,test,1,B,triangle.png,1,z,Wed Apr 09 2025 16:28:12 GMT-0500 (Central Daylight Time),361199.69999999925,1400,O,z,911,8,1,2329.0,358870.69999999925,7124,NTS,B,14
7,14,test,1,B,triangle.png,1,z,Wed Apr 09 2025 16:28:12 GMT-0500 (Central Daylight Time),363365.80000000075,1600,O,z,539,14,1,2162.199999999255,361203.6000000015,7124,NTS,B,15
7,15,test,1,B,triangle.png,1,z,Wed Apr 09 2025 16:28:12 GMT-0500 (Central Daylight Time),365864.80000000075,2000,O,z,477,6,1,2494.89999999851,363369.90000000224,7124,NTS,B,16
1,16,test,1,B,triangle.png,1,z,Wed Apr 09 2025 16:28:12 GMT-0500 (Central Daylight Time),368364.1000000015,1900,O,z,582,1,1,2495.800000000745,365868.30000000075,7124,NTS,B,17
9,17,test,1,B,triangle.png,1,z,Wed Apr 09 2025 16:28:12 GMT-0500 (Central Daylight Time),370830.1000000015,1900,O,z,538,16,1,2462.400000002235,368367.69999999925,7124,NTS,B,18
4,18,test,1,B,triangle.png,1,m,Wed Apr 09 2025 16:28:12 GMT-0500 (Central Daylight Time),372596.1000000015,1000,O,m,740,12,1,1761.699999999255,370834.40000000224,7124,NTS,B,19
6,19,test,1,B,triangle.png,1,m,Wed Apr 09 2025 16:28:12 GMT-0500 (Central Daylight Time),374128.80000000075,1000,O,m,502,5,1,1528.5,372600.30000000075,7124,NTS,B,20
2,20,test,1,B,triangle.png,1,m,Wed Apr 09 2025 16:28:12 GMT-0500 (Central Daylight Time),375845.19999999925,1200,O,m,497,10,1,1712.699999999255,374132.5,7124,NTS,B,21
3,21,test,1,B,triangle.png,1,z,Wed Apr 09 2025 16:28:12 GMT-0500 (Central Daylight Time),378094.30000000075,1600,O,z,621,3,1,2245.5,375848.80000000075,7124,NTS,B,22
7,21,test,1,B,triangle.png,0,z,Wed Apr 09 2025 16:28:12 GMT-0500 (Central Daylight Time),380693.69999999925,2000,O,m,572,6,1,2595.5,378098.19999999925,7124,NTS,B,23
6,22,test,1,B,triangle.png,1,m,Wed Apr 09 2025 16:28:12 GMT-0500 (Central Daylight Time),382976.30000000075,1500,O,m,753,13,1,2278.60000000149,380697.69999999925,7124,NTS,B,24
7,0,prac,1,C,triangle.png,0,z,Wed Apr 09 2025 16:28:12 GMT-0500 (Central Daylight Time),445240.19999999925,1200,O,None,1516,6,1,3494.199999999255,441746.0,7124,NTS,B,1
9,0,prac,1,C,circle.png,0,m,Wed Apr 09 2025 16:28:12 GMT-0500 (Central Daylight Time),449472.19999999925,1900,O,None,1502,8,1,4226.199999999255,445246.0,7124,NTS,B,2
8,0,prac,1,C,triangle.png,0,m,Wed Apr 09 2025 16:28:12 GMT-0500 (Central Daylight Time),452521.1000000015,1400,O,z,866,7,1,3043.900000002235,449477.19999999925,7124,NTS,B,3
3,0,prac,1,C,triangle.png,0,z,Wed Apr 09 2025 16:28:12 GMT-0500 (Central Daylight Time),455636.69999999925,1500,O,m,829,3,1,3110.89999999851,452525.80000000075,7124,NTS,B,4
6,1,prac,1,C,circle.png,1,m,Wed Apr 09 2025 16:28:12 GMT-0500 (Central Daylight Time),459152.40000000224,2000,O,m,726,5,1,3510.0,455642.40000000224,7124,NTS,B,5
6,1,prac,1,C,circle.png,0,m,Wed Apr 09 2025 16:28:12 GMT-0500 (Central Daylight Time),463450.80000000075,2000,O,None,1517,5,1,4293.300000000745,459157.5,7124,NTS,B,6
4,1,prac,1,C,circle.png,0,z,Wed Apr 09 2025 16:28:12 GMT-0500 (Central Daylight Time),466083.6000000015,1000,O,m,839,4,1,2627.900000002235,463455.69999999925,7124,NTS,B,7
7,2,prac,1,C,triangle.png,1,z,Wed Apr 09 2025 16:28:12 GMT-0500 (Central Daylight Time),468732.69999999925,1200,O,z,655,6,1,2643.7999999970198,466088.90000000224,7124,NTS,B,8
2,3,prac,1,C,triangle.png,1,m,Wed Apr 09 2025 16:28:12 GMT-0500 (Central Daylight Time),472065.1000000015,1600,O,m,934,2,1,3327.300000000745,468737.80000000075,7124,NTS,B,9
1,4,prac,1,C,circle.png,1,z,Wed Apr 09 2025 16:28:12 GMT-0500 (Central Daylight Time),476013.80000000075,1700,O,z,1462,1,1,3943.60000000149,472070.19999999925,7124,NTS,B,10
8,5,prac,1,C,triangle.png,1,m,Wed Apr 09 2025 16:28:12 GMT-0500 (Central Daylight Time),479379.5,1400,O,m,1181,7,1,3360.599999997765,476018.90000000224,7124,NTS,B,11
2,5,prac,1,C,triangle.png,0,m,Wed Apr 09 2025 16:28:12 GMT-0500 (Central Daylight Time),482761.80000000075,1600,O,z,991,2,1,3377.199999999255,479384.6000000015,7124,NTS,B,12
9,0,prac,2,C,circle.png,0,m,Wed Apr 09 2025 16:28:12 GMT-0500 (Central Daylight Time),497973.40000000224,1900,O,None,1516,8,1,4193.70000000298,493779.69999999925,7124,NTS,B,1
9,1,prac,2,C,circle.png,1,m,Wed Apr 09 2025 16:28:12 GMT-0500 (Central Daylight Time),501222.6000000015,1900,O,m,561,8,1,3241.60000000149,497981.0,7124,NTS,B,2
2,1,prac,2,C,triangle.png,0,m,Wed Apr 09 2025 16:28:12 GMT-0500 (Central Daylight Time),504588.19999999925,1600,O,z,972,2,1,3359.699999999255,501228.5,7124,NTS,B,3
2,2,prac,2,C,triangle.png,1,m,Wed Apr 09 2025 16:28:12 GMT-0500 (Central Daylight Time),507754.0,1600,O,m,774,2,1,3160.699999999255,504593.30000000075,7124,NTS,B,4
3,3,prac,2,C,triangle.png,1,z,Wed Apr 09 2025 16:28:12 GMT-0500 (Central Daylight Time),511004.1000000015,1500,O,z,957,3,1,3244.800000000745,507759.30000000075,7124,NTS,B,5
1,4,prac,2,C,circle.png,1,z,Wed Apr 09 2025 16:28:12 GMT-0500 (Central Daylight Time),514451.90000000224,1700,O,z,956,1,1,3442.400000002235,511009.5,7124,NTS,B,6
8,5,prac,2,C,triangle.png,1,m,Wed Apr 09 2025 16:28:12 GMT-0500 (Central Daylight Time),517684.0,1400,O,m,1047,7,1,3226.800000000745,514457.19999999925,7124,NTS,B,7
7,6,prac,2,C,triangle.png,1,z,Wed Apr 09 2025 16:28:12 GMT-0500 (Central Daylight Time),520649.80000000075,1200,O,z,966,6,1,2960.39999999851,517689.40000000224,7124,NTS,B,8
1,7,prac,2,C,circle.png,1,z,Wed Apr 09 2025 16:28:12 GMT-0500 (Central Daylight Time),523998.90000000224,1700,O,z,861,1,1,3344.10000000149,520654.80000000075,7124,NTS,B,9
4,8,prac,2,C,circle.png,1,z,Wed Apr 09 2025 16:28:12 GMT-0500 (Central Daylight Time),527097.6000000015,1000,O,z,1300,4,1,3091.60000000149,524006.0,7124,NTS,B,10
4,9,prac,2,C,circle.png,1,z,Wed Apr 09 2025 16:28:12 GMT-0500 (Central Daylight Time),530230.1999999993,1000,O,z,1344,4,1,3127.2999999970198,527102.9000000022,7124,NTS,B,11
6,10,prac,2,C,circle.png,1,m,Wed Apr 09 2025 16:28:12 GMT-0500 (Central Daylight Time),534029.1000000015,2000,O,m,1005,5,1,3794.10000000149,530235.0,7124,NTS,B,12
6,1,test,1,C,triangle.png,1,m,Wed Apr 09 2025 16:28:12 GMT-0500 (Central Daylight Time),572217.1000000015,1000,O,m,1035,13,1,2062.900000002235,570154.1999999993,7124,NTS,B,1
1,2,test,1,C,triangle.png,1,z,Wed Apr 09 2025 16:28:12 GMT-0500 (Central Daylight Time),574832.8000000007,1900,O,z,694,17,1,2611.60000000149,572221.1999999993,7124,NTS,B,2
2,3,test,1,C,triangle.png,1,m,Wed Apr 09 2025 16:28:12 GMT-0500 (Central Daylight Time),577848.5,2000,O,m,994,2,1,3012.300000000745,574836.1999999993,7124,NTS,B,3
1,4,test,1,C,circle.png,1,z,Wed Apr 09 2025 16:28:12 GMT-0500 (Central Daylight Time),579598.1000000015,1000,O,z,721,1,1,1746.1000000014901,577852.0,7124,NTS,B,4
7,4,test,1,C,triangle.png,0,z,Wed Apr 09 2025 16:28:12 GMT-0500 (Central Daylight Time),582830.4000000022,1700,O,None,1515,6,1,3228.400000002235,579602.0,7124,NTS,B,5
8,5,test,1,C,triangle.png,1,m,Wed Apr 09 2025 16:28:12 GMT-0500 (Central Daylight Time),585129.8000000007,1600,O,m,676,23,1,2295.60000000149,582834.1999999993,7124,NTS,B,6
7,6,test,1,C,circle.png,1,m,Wed Apr 09 2025 16:28:12 GMT-0500 (Central Daylight Time),588328.6999999993,2000,O,m,1177,14,1,3195.0,585133.6999999993,7124,NTS,B,7
2,6,test,1,C,circle.png,0,z,Wed Apr 09 2025 16:28:12 GMT-0500 (Central Daylight Time),591294.3000000007,1700,O,m,1238,18,1,2961.699999999255,588332.6000000015,7124,NTS,B,8
6,7,test,1,C,circle.png,1,m,Wed Apr 09 2025 16:28:12 GMT-0500 (Central Daylight Time),593826.9000000022,1900,O,m,608,21,1,2528.800000000745,591298.1000000015,7124,NTS,B,9
4,7,test,1,C,circle.png,0,z,Wed Apr 09 2025 16:28:12 GMT-0500 (Central Daylight Time),595926.3000000007,1400,O,m,679,4,1,2095.300000000745,593831.0,7124,NTS,B,10
6,8,test,1,C,circle.png,1,m,Wed Apr 09 2025 16:28:12 GMT-0500 (Central Daylight Time),598342.1999999993,1900,O,m,496,5,1,2411.599999997765,595930.6000000015,7124,NTS,B,11
1,9,test,1,C,triangle.png,1,z,Wed Apr 09 2025 16:28:12 GMT-0500 (Central Daylight Time),600991.4000000022,1900,O,z,728,9,1,2644.7000000029802,598346.6999999993,7124,NTS,B,12
3,10,test,1,C,circle.png,1,z,Wed Apr 09 2025 16:28:12 GMT-0500 (Central Daylight Time),603457.3000000007,1600,O,z,843,11,1,2462.0,600995.3000000007,7124,NTS,B,13
3,11,test,1,C,triangle.png,1,z,Wed Apr 09 2025 16:28:12 GMT-0500 (Central Daylight Time),605923.0,1200,O,z,1233,3,1,2461.89999999851,603461.1000000015,7124,NTS,B,14
7,12,test,1,C,triangle.png,1,z,Wed Apr 09 2025 16:28:12 GMT-0500 (Central Daylight Time),608339.1000000015,1700,O,z,683,22,1,2412.10000000149,605927.0,7124,NTS,B,15
9,12,test,1,C,circle.png,0,m,Wed Apr 09 2025 16:28:12 GMT-0500 (Central Daylight Time),611121.6000000015,1500,O,z,1251,24,1,2778.60000000149,608343.0,7124,NTS,B,16
2,12,test,1,C,circle.png,0,z,Wed Apr 09 2025 16:28:12 GMT-0500 (Central Daylight Time),614070.6000000015,1700,O,m,1229,10,1,2945.300000000745,611125.3000000007,7124,NTS,B,17
8,12,test,1,C,circle.png,0,m,Wed Apr 09 2025 16:28:12 GMT-0500 (Central Daylight Time),616803.3000000007,1200,O,None,1516,15,1,2728.60000000149,614074.6999999993,7124,NTS,B,18
9,12,test,1,C,triangle.png,0,z,Wed Apr 09 2025 16:28:12 GMT-0500 (Central Daylight Time),619735.5,1400,O,None,1516,16,1,2927.699999999255,616807.8000000007,7124,NTS,B,19
9,12,test,1,C,circle.png,0,m,Wed Apr 09 2025 16:28:12 GMT-0500 (Central Daylight Time),622051.5,1500,O,z,783,8,1,2312.300000000745,619739.1999999993,7124,NTS,B,20
4,13,test,1,C,triangle.png,1,m,Wed Apr 09 2025 16:28:12 GMT-0500 (Central Daylight Time),624367.5,1500,O,m,787,20,1,2312.300000000745,622055.1999999993,7124,NTS,B,21
4,14,test,1,C,triangle.png,1,m,Wed Apr 09 2025 16:28:12 GMT-0500 (Central Daylight Time),626750.0,1500,O,m,855,12,1,2378.300000000745,624371.6999999993,7124,NTS,B,22
3,14,test,1,C,circle.png,0,z,Wed Apr 09 2025 16:28:12 GMT-0500 (Central Daylight Time),629882.3000000007,1600,O,None,1515,19,1,3127.800000000745,626754.5,7124,NTS,B,23
8,15,test,1,C,triangle.png,1,m,Wed Apr 09 2025 16:28:12 GMT-0500 (Central Daylight Time),632198.1999999993,1600,O,m,688,7,1,2311.7999999970198,629886.4000000022,7124,NTS,B,24
8,1,test,2,C,circle.png,1,m,Wed Apr 09 2025 16:28:12 GMT-0500 (Central Daylight Time),655591.1000000015,1200,O,m,829,23,1,2046.0,653545.1000000015,7124,NTS,B,1
9,1,test,2,C,triangle.png,0,z,Wed Apr 09 2025 16:28:12 GMT-0500 (Central Daylight Time),658523.4000000022,1400,O,None,1515,16,1,2928.400000002235,655595.0,7124,NTS,B,2
3,1,test,2,C,circle.png,0,z,Wed Apr 09 2025 16:28:12 GMT-0500 (Central Daylight Time),660772.6000000015,1600,O,m,623,19,1,2245.60000000149,658527.0,7124,NTS,B,3
8,2,test,2,C,circle.png,1,m,Wed Apr 09 2025 16:28:12 GMT-0500 (Central Daylight Time),662855.3000000007,1200,O,m,854,15,1,2078.699999999255,660776.6000000015,7124,NTS,B,4
4,3,test,2,C,triangle.png,1,m,Wed Apr 09 2025 16:28:12 GMT-0500 (Central Daylight Time),664988.0,1500,O,m,615,20,1,2128.89999999851,662859.1000000015,7124,NTS,B,5
8,4,test,2,C,triangle.png,1,m,Wed Apr 09 2025 16:28:12 GMT-0500 (Central Daylight Time),667787.3000000007,1600,O,m,1166,7,1,2795.60000000149,664991.6999999993,7124,NTS,B,6
7,5,test,2,C,triangle.png,1,z,Wed Apr 09 2025 16:28:12 GMT-0500 (Central Daylight Time),670319.8000000007,1700,O,z,803,6,1,2528.5,667791.3000000007,7124,NTS,B,7
4,5,test,2,C,triangle.png,0,m,Wed Apr 09 2025 16:28:12 GMT-0500 (Central Daylight Time),672835.5,1500,O,z,991,12,1,2512.0,670323.5,7124,NTS,B,8
6,6,test,2,C,circle.png,1,m,Wed Apr 09 2025 16:28:12 GMT-0500 (Central Daylight Time),675701.3000000007,1900,O,m,947,5,1,2862.10000000149,672839.1999999993,7124,NTS,B,9
9,6,test,2,C,triangle.png,0,z,Wed Apr 09 2025 16:28:12 GMT-0500 (Central Daylight Time),678183.8000000007,1400,O,m,1053,24,1,2478.60000000149,675705.1999999993,7124,NTS,B,10
2,6,test,2,C,circle.png,0,z,Wed Apr 09 2025 16:28:12 GMT-0500 (Central Daylight Time),680549.9000000022,1700,O,m,638,18,1,2362.2000000029802,678187.6999999993,7124,NTS,B,11
6,7,test,2,C,triangle.png,1,m,Wed Apr 09 2025 16:28:12 GMT-0500 (Central Daylight Time),682415.8000000007,1000,O,m,836,21,1,1861.3999999985099,680554.4000000022,7124,NTS,B,12
7,8,test,2,C,circle.png,1,m,Wed Apr 09 2025 16:28:12 GMT-0500 (Central Daylight Time),685748.3000000007,2000,O,m,1306,14,1,3328.699999999255,682419.6000000015,7124,NTS,B,13
4,8,test,2,C,circle.png,0,z,Wed Apr 09 2025 16:28:12 GMT-0500 (Central Daylight Time),688113.9000000022,1400,O,m,934,4,1,2362.2000000029802,685751.6999999993,7124,NTS,B,14
1,9,test,2,C,triangle.png,1,z,Wed Apr 09 2025 16:28:12 GMT-0500 (Central Daylight Time),690830.1000000015,1900,O,z,788,9,1,2712.699999999255,688117.4000000022,7124,NTS,B,15
3,10,test,2,C,triangle.png,1,z,Wed Apr 09 2025 16:28:12 GMT-0500 (Central Daylight Time),692629.3000000007,1200,O,z,580,3,1,1795.6000000014901,690833.6999999993,7124,NTS,B,16
2,10,test,2,C,triangle.png,0,m,Wed Apr 09 2025 16:28:12 GMT-0500 (Central Daylight Time),695512.0,2000,O,z,861,2,1,2877.699999999255,692634.3000000007,7124,NTS,B,17
1,11,test,2,C,triangle.png,1,z,Wed Apr 09 2025 16:28:12 GMT-0500 (Central Daylight Time),697944.3000000007,1900,O,z,510,17,1,2428.300000000745,695516.0,7124,NTS,B,18
3,11,test,2,C,circle.png,0,z,Wed Apr 09 2025 16:28:12 GMT-0500 (Central Daylight Time),700943.5,1600,O,m,1378,11,1,2995.39999999851,697948.1000000015,7124,NTS,B,19
1,12,test,2,C,circle.png,1,z,Wed Apr 09 2025 16:28:12 GMT-0500 (Central Daylight Time),702892.6999999993,1000,O,z,923,1,1,1945.2999999970198,700947.4000000022,7124,NTS,B,20
9,13,test,2,C,circle.png,1,m,Wed Apr 09 2025 16:28:12 GMT-0500 (Central Daylight Time),705442.1999999993,1500,O,m,1018,8,1,2545.599999997765,702896.6000000015,7124,NTS,B,21
2,13,test,2,C,circle.png,0,z,Wed Apr 09 2025 16:28:12 GMT-0500 (Central Daylight Time),708424.5,1700,O,m,1252,10,1,2978.0,705446.5,7124,NTS,B,22
7,13,test,2,C,circle.png,0,m,Wed Apr 09 2025 16:28:12 GMT-0500 (Central Daylight Time),711923.4000000022,2000,O,z,1466,22,1,3495.0,708428.4000000022,7124,NTS,B,23
6,14,test,2,C,triangle.png,1,m,Wed Apr 09 2025 16:28:12 GMT-0500 (Central Daylight Time),714122.6999999993,1000,O,m,1175,13,1,2195.39999999851,711927.3000000007,7124,NTS,B,24
2,1,test,3,C,triangle.png,1,m,Wed Apr 09 2025 16:28:12 GMT-0500 (Central Daylight Time),740464.5,2000,O,m,710,18,1,2729.199999999255,737735.3000000007,7124,NTS,B,1
1,2,test,3,C,triangle.png,1,z,Wed Apr 09 2025 16:28:12 GMT-0500 (Central Daylight Time),743613.5,1900,O,z,1230,9,1,3144.5,740469.0,7124,NTS,B,2
7,3,test,3,C,circle.png,1,m,Wed Apr 09 2025 16:28:12 GMT-0500 (Central Daylight Time),746595.9000000022,2000,O,m,957,14,1,2978.5,743617.4000000022,7124,NTS,B,3
2,3,test,3,C,circle.png,0,z,Wed Apr 09 2025 16:28:12 GMT-0500 (Central Daylight Time),749311.6000000015,1700,O,m,995,10,1,2711.10000000149,746600.5,7124,NTS,B,4
2,3,test,3,C,triangle.png,0,m,Wed Apr 09 2025 16:28:12 GMT-0500 (Central Daylight Time),752094.1000000015,2000,O,z,755,2,1,2778.300000000745,749315.8000000007,7124,NTS,B,5
4,3,test,3,C,circle.png,0,z,Wed Apr 09 2025 16:28:12 GMT-0500 (Central Daylight Time),754510.0,1400,O,m,887,4,1,2412.199999999255,752097.8000000007,7124,NTS,B,6
9,4,test,3,C,circle.png,1,m,Wed Apr 09 2025 16:28:12 GMT-0500 (Central Daylight Time),757026.1000000015,1500,O,m,984,8,1,2512.0,754514.1000000015,7124,NTS,B,7
7,4,test,3,C,triangle.png,0,z,Wed Apr 09 2025 16:28:12 GMT-0500 (Central Daylight Time),759775.1000000015,1700,O,m,1021,22,1,2745.300000000745,757029.8000000007,7124,NTS,B,8
6,4,test,3,C,triangle.png,0,m,Wed Apr 09 2025 16:28:12 GMT-0500 (Central Daylight Time),762007.6000000015,1000,O,z,1203,13,1,2228.699999999255,759778.9000000022,7124,NTS,B,9
8,5,test,3,C,triangle.png,1,m,Wed Apr 09 2025 16:28:12 GMT-0500 (Central Daylight Time),764956.8000000007,1600,O,m,1331,7,1,2945.0,762011.8000000007,7124,NTS,B,10
4,6,test,3,C,triangle.png,1,m,Wed Apr 09 2025 16:28:12 GMT-0500 (Central Daylight Time),767422.6000000015,1500,O,m,938,12,1,2461.800000000745,764960.8000000007,7124,NTS,B,11
6,7,test,3,C,circle.png,1,m,Wed Apr 09 2025 16:28:12 GMT-0500 (Central Daylight Time),770271.6999999993,1900,O,m,920,21,1,2845.599999997765,767426.1000000015,7124,NTS,B,12
1,8,test,3,C,circle.png,1,z,Wed Apr 09 2025 16:28:12 GMT-0500 (Central Daylight Time),772071.1000000015,1000,O,z,771,17,1,1795.300000000745,770275.8000000007,7124,NTS,B,13
7,9,test,3,C,triangle.png,1,z,Wed Apr 09 2025 16:28:12 GMT-0500 (Central Daylight Time),775136.9000000022,1700,O,z,1335,6,1,3062.0,772074.9000000022,7124,NTS,B,14
9,9,test,3,C,triangle.png,0,z,Wed Apr 09 2025 16:28:12 GMT-0500 (Central Daylight Time),778069.5,1400,O,None,1515,16,1,2928.5,775141.0,7124,NTS,B,15
3,9,test,3,C,triangle.png,0,z,Wed Apr 09 2025 16:28:12 GMT-0500 (Central Daylight Time),780802.5,1200,O,None,1516,19,1,2729.099999997765,778073.4000000022,7124,NTS,B,16
8,10,test,3,C,circle.png,1,m,Wed Apr 09 2025 16:28:12 GMT-0500 (Central Daylight Time),782734.5,1200,O,m,713,15,1,1928.199999999255,780806.3000000007,7124,NTS,B,17
3,10,test,3,C,circle.png,0,z,Wed Apr 09 2025 16:28:12 GMT-0500 (Central Daylight Time),785550.3000000007,1600,O,m,1196,11,1,2812.39999999851,782737.9000000022,7124,NTS,B,18
1,11,test,3,C,circle.png,1,z,Wed Apr 09 2025 16:28:12 GMT-0500 (Central Daylight Time),787249.9000000022,1000,O,z,668,1,1,1695.300000000745,785554.6000000015,7124,NTS,B,19
4,12,test,3,C,circle.png,1,z,Wed Apr 09 2025 16:28:12 GMT-0500 (Central Daylight Time),789882.1999999993,1400,O,z,1209,20,1,2628.599999997765,787253.6000000015,7124,NTS,B,20
8,13,test,3,C,triangle.png,1,m,Wed Apr 09 2025 16:28:12 GMT-0500 (Central Daylight Time),792714.6999999993,1600,O,m,1208,23,1,2828.599999997765,789886.1000000015,7124,NTS,B,21
9,13,test,3,C,circle.png,0,m,Wed Apr 09 2025 16:28:12 GMT-0500 (Central Daylight Time),795413.9000000022,1500,O,z,1180,24,1,2695.7000000029802,792718.1999999993,7124,NTS,B,22
6,14,test,3,C,circle.png,1,m,Wed Apr 09 2025 16:28:12 GMT-0500 (Central Daylight Time),797963.1000000015,1900,O,m,617,5,1,2545.5,795417.6000000015,7124,NTS,B,23
3,15,test,3,C,triangle.png,1,z,Wed Apr 09 2025 16:28:12 GMT-0500 (Central Daylight Time),800195.6999999993,1200,O,z,1015,3,1,2228.699999999255,797967.0,7124,NTS,B,24
2,0,test,4,C,triangle.png,0,m,Wed Apr 09 2025 16:28:12 GMT-0500 (Central Daylight Time),808643.3000000007,2000,O,None,1516,18,1,3529.5,805113.8000000007,7124,NTS,B,1
2,0,test,4,C,triangle.png,0,m,Wed Apr 09 2025 16:28:12 GMT-0500 (Central Daylight Time),811642.3000000007,2000,O,z,975,2,1,2994.699999999255,808647.6000000015,7124,NTS,B,2
1,0,test,4,C,circle.png,0,z,Wed Apr 09 2025 16:28:12 GMT-0500 (Central Daylight Time),814174.6999999993,1000,O,None,1516,1,1,2528.699999999255,811646.0,7124,NTS,B,3
3,0,test,4,C,triangle.png,0,z,Wed Apr 09 2025 16:28:12 GMT-0500 (Central Daylight Time),816907.1999999993,1200,O,None,1516,3,1,2728.7999999970198,814178.4000000022,7124,NTS,B,4
9,1,test,4,C,circle.png,1,m,Wed Apr 09 2025 16:28:12 GMT-0500 (Central Daylight Time),819289.8000000007,1500,O,m,851,24,1,2379.300000000745,816910.5,7124,NTS,B,5
8,1,test,4,C,triangle.png,0,m,Wed Apr 09 2025 16:28:12 GMT-0500 (Central Daylight Time),822422.1000000015,1600,O,None,1516,7,1,3128.60000000149,819293.5,7124,NTS,B,6
9,1,test,4,C,circle.png,0,m,Wed Apr 09 2025 16:28:12 GMT-0500 (Central Daylight Time),825087.9000000022,1500,O,z,1144,8,1,2661.7000000029802,822426.1999999993,7124,NTS,B,7
6,2,test,4,C,circle.png,1,m,Wed Apr 09 2025 16:28:12 GMT-0500 (Central Daylight Time),827587.4000000022,1900,O,m,582,5,1,2495.60000000149,825091.8000000007,7124,NTS,B,8
7,2,test,4,C,triangle.png,0,z,Wed Apr 09 2025 16:28:12 GMT-0500 (Central Daylight Time),830819.5,1700,O,None,1516,6,1,3228.39999999851,827591.1000000015,7124,NTS,B,9
3,3,test,4,C,triangle.png,1,z,Wed Apr 09 2025 16:28:12 GMT-0500 (Central Daylight Time),833002.1000000015,1200,O,z,951,19,1,2178.400000002235,830823.6999999993,7124,NTS,B,10
8,4,test,4,C,triangle.png,1,m,Wed Apr 09 2025 16:28:12 GMT-0500 (Central Daylight Time),835734.5,1600,O,m,1103,23,1,2728.300000000745,833006.1999999993,7124,NTS,B,11
8,5,test,4,C,circle.png,1,m,Wed Apr 09 2025 16:28:12 GMT-0500 (Central Daylight Time),837800.5,1200,O,m,844,15,1,2062.0,835738.5,7124,NTS,B,12
1,6,test,4,C,triangle.png,1,z,Wed Apr 09 2025 16:28:12 GMT-0500 (Central Daylight Time),840549.9000000022,1900,O,z,822,9,1,2745.900000002235,837804.0,7124,NTS,B,13
7,6,test,4,C,triangle.png,0,z,Wed Apr 09 2025 16:28:12 GMT-0500 (Central Daylight Time),843049.1999999993,1700,O,m,769,22,1,2495.7999999970198,840553.4000000022,7124,NTS,B,14
7,6,test,4,C,circle.png,0,m,Wed Apr 09 2025 16:28:12 GMT-0500 (Central Daylight Time),846131.5,2000,O,z,1049,14,1,3078.599999997765,843052.9000000022,7124,NTS,B,15
9,7,test,4,C,triangle.png,1,z,Wed Apr 09 2025 16:28:12 GMT-0500 (Central Daylight Time),848547.3000000007,1400,O,z,991,16,1,2412.39999999851,846134.9000000022,7124,NTS,B,16
6,8,test,4,C,circle.png,1,m,Wed Apr 09 2025 16:28:12 GMT-0500 (Central Daylight Time),851146.4000000022,1900,O,m,667,21,1,2595.5,848550.9000000022,7124,NTS,B,17
4,8,test,4,C,triangle.png,0,m,Wed Apr 09 2025 16:28:12 GMT-0500 (Central Daylight Time),853612.5,1500,O,z,940,12,1,2462.099999997765,851150.4000000022,7124,NTS,B,18
4,8,test,4,C,circle.png,0,z,Wed Apr 09 2025 16:28:12 GMT-0500 (Central Daylight Time),855661.9000000022,1400,O,m,622,20,1,2045.4000000022352,853616.5,7124,NTS,B,19
3,9,test,4,C,circle.png,1,z,Wed Apr 09 2025 16:28:12 GMT-0500 (Central Daylight Time),858011.0,1600,O,z,716,11,1,2345.199999999255,855665.8000000007,7124,NTS,B,20
6,10,test,4,C,triangle.png,1,m,Wed Apr 09 2025 16:28:12 GMT-0500 (Central Daylight Time),860327.0,1000,O,m,1295,13,1,2312.199999999255,858014.8000000007,7124,NTS,B,21
1,11,test,4,C,circle.png,1,z,Wed Apr 09 2025 16:28:12 GMT-0500 (Central Daylight Time),862542.8000000007,1000,O,z,1194,17,1,2212.300000000745,860330.5,7124,NTS,B,22
2,11,test,4,C,circle.png,0,z,Wed Apr 09 2025 16:28:12 GMT-0500 (Central Daylight Time),864908.9000000022,1700,O,m,648,10,1,2362.0,862546.9000000022,7124,NTS,B,23
4,11,test,4,C,circle.png,0,z,Wed Apr 09 2025 16:28:12 GMT-0500 (Central Daylight Time),867508.1000000015,1400,O,m,1174,4,1,2595.900000002235,864912.1999999993,7124,NTS,B,24
