acc_sum,block,block_c,change,condition,correct,correct_response,datetime,endtime,face,project,response,response_time,row_sel,session_number,start_end,starttime,subject_id,task,task_vers,trial
0,prac,1,,1-Back,,,Mon Oct 28 2024 15:46:24 GMT-0400 (Eastern Daylight Time),,005_o_f_d_a.png,I,space,15095,1,1,,,9004,VNB,B,0
0,prac,1,0.0,1-Back,0,m,Mon Oct 28 2024 15:46:24 GMT-0400 (Eastern Daylight Time),186128.19999980927,020_y_f_n_a.png,I,None,2008,2,1,2923.199999809265,183205.0,9004,VNB,B,1
0,prac,1,0.0,1-Back,0,m,Mon Oct 28 2024 15:46:24 GMT-0400 (Eastern Daylight Time),188761.5,007_m_m_h_a.png,I,z,1689,3,1,2619.800000190735,186141.69999980927,9004,VNB,B,2
1,prac,1,0.0,1-Back,1,m,Mon Oct 28 2024 15:46:24 GMT-0400 (Eastern Daylight Time),190911.40000009537,016_y_m_d_a.png,I,m,1198,4,1,2137.0,188774.40000009537,9004,VNB,B,3
2,prac,1,0.0,1-Back,1,m,Mon Oct 28 2024 15:46:24 GMT-0400 (Eastern Daylight Time),193711.40000009537,005_o_f_n_a.png,I,m,1861,5,1,2787.4000000953674,190924.0,9004,VNB,B,4
3,prac,1,1.0,1-Back,1,z,Mon Oct 28 2024 15:46:24 GMT-0400 (Eastern Daylight Time),195594.69999980927,016_y_m_n_a.png,I,z,932,6,1,1868.7999997138977,193725.90000009537,9004,VNB,B,5
4,prac,1,0.0,1-Back,1,m,Mon Oct 28 2024 15:46:24 GMT-0400 (Eastern Daylight Time),197894.7999997139,004_o_m_h_a.png,I,m,1393,7,1,2286.5999999046326,195608.19999980927,9004,VNB,B,6
4,prac,1,0.0,1-Back,0,m,Mon Oct 28 2024 15:46:24 GMT-0400 (Eastern Daylight Time),199728.0,011_m_f_d_a.png,I,z,892,8,1,1819.0,197909.0,9004,VNB,B,7
4,prac,1,1.0,1-Back,0,z,Mon Oct 28 2024 15:46:24 GMT-0400 (Eastern Daylight Time),202344.69999980927,020_y_f_d_a.png,I,m,1693,9,1,2602.7999997138977,199741.90000009537,9004,VNB,B,8
4,prac,1,0.0,1-Back,0,m,Mon Oct 28 2024 15:46:24 GMT-0400 (Eastern Daylight Time),204694.59999990463,007_m_m_n_a.png,I,z,1407,10,1,2334.699999809265,202359.90000009537,9004,VNB,B,9
5,prac,1,0.0,1-Back,1,m,Mon Oct 28 2024 15:46:24 GMT-0400 (Eastern Daylight Time),206744.59999990463,005_o_f_h_a.png,I,m,1116,11,1,2036.4000000953674,204708.19999980927,9004,VNB,B,10
6,prac,1,0.0,1-Back,1,m,Mon Oct 28 2024 15:46:24 GMT-0400 (Eastern Daylight Time),209078.19999980927,016_y_m_d_a.png,I,m,1386,12,1,2319.699999809265,206758.5,9004,VNB,B,11
0,prac,2,0.0,1-Back,,,Mon Oct 28 2024 15:46:24 GMT-0400 (Eastern Daylight Time),209078.19999980927,005_o_f_d_a.png,I,a,4591,1,1,2319.699999809265,206758.5,9004,VNB,B,0
1,prac,2,0.0,1-Back,1,m,Mon Oct 28 2024 15:46:24 GMT-0400 (Eastern Daylight Time),219428.19999980927,020_y_f_n_a.png,I,m,1770,2,1,2682.2999997138977,216745.90000009537,9004,VNB,B,1
2,prac,2,0.0,1-Back,1,m,Mon Oct 28 2024 15:46:24 GMT-0400 (Eastern Daylight Time),221494.59999990463,007_m_m_h_a.png,I,m,1126,3,1,2051.0999999046326,219443.5,9004,VNB,B,2
3,prac,2,0.0,1-Back,1,m,Mon Oct 28 2024 15:46:24 GMT-0400 (Eastern Daylight Time),223311.5,016_y_m_d_a.png,I,m,1021,4,1,1798.8000001907349,221512.69999980927,9004,VNB,B,3
4,prac,2,0.0,1-Back,1,m,Mon Oct 28 2024 15:46:24 GMT-0400 (Eastern Daylight Time),225461.5,005_o_f_n_a.png,I,m,1203,5,1,2135.300000190735,223326.19999980927,9004,VNB,B,4
5,prac,2,1.0,1-Back,1,z,Mon Oct 28 2024 15:46:24 GMT-0400 (Eastern Daylight Time),227561.40000009537,016_y_m_n_a.png,I,z,1153,6,1,2087.800000190735,225473.59999990463,9004,VNB,B,5
6,prac,2,0.0,1-Back,1,m,Mon Oct 28 2024 15:46:24 GMT-0400 (Eastern Daylight Time),229611.40000009537,004_o_m_h_a.png,I,m,1135,7,1,2037.2000002861023,227574.19999980927,9004,VNB,B,6
6,prac,2,0.0,1-Back,0,m,Mon Oct 28 2024 15:46:24 GMT-0400 (Eastern Daylight Time),231528.0,011_m_f_d_a.png,I,z,983,8,1,1903.3000001907349,229624.69999980927,9004,VNB,B,7
6,prac,2,1.0,1-Back,0,z,Mon Oct 28 2024 15:46:24 GMT-0400 (Eastern Daylight Time),234044.7999997139,020_y_f_d_a.png,I,m,1595,9,1,2503.699999809265,231541.09999990463,9004,VNB,B,8
7,prac,2,0.0,1-Back,1,m,Mon Oct 28 2024 15:46:24 GMT-0400 (Eastern Daylight Time),236294.90000009537,007_m_m_n_a.png,I,m,1308,10,1,2238.7000002861023,234056.19999980927,9004,VNB,B,9
8,prac,2,0.0,1-Back,1,m,Mon Oct 28 2024 15:46:24 GMT-0400 (Eastern Daylight Time),238328.19999980927,005_o_f_h_a.png,I,m,1102,11,1,2020.1999998092651,236308.0,9004,VNB,B,10
9,prac,2,0.0,1-Back,1,m,Mon Oct 28 2024 15:46:24 GMT-0400 (Eastern Daylight Time),240161.40000009537,016_y_m_d_a.png,I,m,879,12,1,1819.5,238341.90000009537,9004,VNB,B,11
0,test,1,0.0,1-Back,,,Mon Oct 28 2024 15:46:24 GMT-0400 (Eastern Daylight Time),240161.40000009537,020_y_f_d_a.png,I,space,11894,1,1,1819.5,238341.90000009537,9004,VNB,B,0
0,test,1,0.0,1-Back,0,m,Mon Oct 28 2024 15:46:24 GMT-0400 (Eastern Daylight Time),268244.7999997139,011_m_f_n_a.png,I,z,1251,2,1,2271.199999809265,265973.59999990463,9004,VNB,B,1
1,test,1,0.0,1-Back,1,m,Mon Oct 28 2024 15:46:24 GMT-0400 (Eastern Daylight Time),270294.7999997139,004_o_m_h_a.png,I,m,1032,3,1,2039.5,268255.2999997139,9004,VNB,B,2
2,test,1,1.0,1-Back,1,z,Mon Oct 28 2024 15:46:24 GMT-0400 (Eastern Daylight Time),272411.0,007_m_m_h_a.png,I,z,1094,4,1,2107.300000190735,270303.69999980927,9004,VNB,B,3
3,test,1,0.0,1-Back,1,m,Mon Oct 28 2024 15:46:24 GMT-0400 (Eastern Daylight Time),274278.0,005_o_f_n_a.png,I,m,833,5,1,1860.5,272417.5,9004,VNB,B,4
4,test,1,0.0,1-Back,1,m,Mon Oct 28 2024 15:46:24 GMT-0400 (Eastern Daylight Time),276527.90000009537,016_y_m_d_a.png,I,m,1139,6,1,2235.800000190735,274292.09999990463,9004,VNB,B,5
4,test,1,1.0,1-Back,0,z,Mon Oct 28 2024 15:46:24 GMT-0400 (Eastern Daylight Time),278528.0,011_m_f_d_a.png,I,m,906,7,1,1989.8000001907349,276538.19999980927,9004,VNB,B,6
5,test,1,0.0,1-Back,1,m,Mon Oct 28 2024 15:46:24 GMT-0400 (Eastern Daylight Time),280677.7999997139,020_y_f_h_a.png,I,m,1049,8,1,2139.699999809265,278538.09999990463,9004,VNB,B,7
5,test,1,0.0,1-Back,0,m,Mon Oct 28 2024 15:46:24 GMT-0400 (Eastern Daylight Time),282910.69999980927,004_o_m_n_a.png,I,z,1207,9,1,2220.699999809265,280690.0,9004,VNB,B,8
6,test,1,0.0,1-Back,1,m,Mon Oct 28 2024 15:46:24 GMT-0400 (Eastern Daylight Time),285228.0,016_y_m_h_a.png,I,m,1294,10,1,2307.800000190735,282920.19999980927,9004,VNB,B,9
7,test,1,0.0,1-Back,1,m,Mon Oct 28 2024 15:46:24 GMT-0400 (Eastern Daylight Time),287444.59999990463,004_o_m_d_a.png,I,m,1185,11,1,2207.9000000953674,285236.69999980927,9004,VNB,B,10
8,test,1,1.0,1-Back,1,z,Mon Oct 28 2024 15:46:24 GMT-0400 (Eastern Daylight Time),289594.69999980927,005_o_f_d_a.png,I,z,1128,12,1,2140.2999997138977,287454.40000009537,9004,VNB,B,11
9,test,1,0.0,1-Back,1,m,Mon Oct 28 2024 15:46:24 GMT-0400 (Eastern Daylight Time),292078.0,007_m_m_n_a.png,I,m,1375,13,1,2472.5,289605.5,9004,VNB,B,12
10,test,1,1.0,1-Back,1,z,Mon Oct 28 2024 15:46:24 GMT-0400 (Eastern Daylight Time),294394.90000009537,020_y_f_n_a.png,I,z,1211,14,1,2302.0,292092.90000009537,9004,VNB,B,13
11,test,1,0.0,1-Back,1,m,Mon Oct 28 2024 15:46:24 GMT-0400 (Eastern Daylight Time),296578.19999980927,011_m_f_h_a.png,I,m,1087,15,1,2172.7999997138977,294405.40000009537,9004,VNB,B,14
12,test,1,0.0,1-Back,1,m,Mon Oct 28 2024 15:46:24 GMT-0400 (Eastern Daylight Time),299044.59999990463,007_m_m_d_a.png,I,m,1368,16,1,2454.9000000953674,296589.69999980927,9004,VNB,B,15
13,test,1,0.0,1-Back,1,m,Mon Oct 28 2024 15:46:24 GMT-0400 (Eastern Daylight Time),301628.0,016_y_m_n_a.png,I,m,1477,17,1,2570.800000190735,299057.19999980927,9004,VNB,B,16
14,test,1,0.0,1-Back,1,m,Mon Oct 28 2024 15:46:24 GMT-0400 (Eastern Daylight Time),303911.0,005_o_f_h_a.png,I,m,1198,18,1,2271.9000000953674,301639.09999990463,9004,VNB,B,17
0,test,2,0.0,1-Back,,,Mon Oct 28 2024 15:46:24 GMT-0400 (Eastern Daylight Time),303911.0,016_y_m_n_a.png,I,space,2054,1,1,2271.9000000953674,301639.09999990463,9004,VNB,B,0
1,test,2,0.0,1-Back,1,m,Mon Oct 28 2024 15:46:24 GMT-0400 (Eastern Daylight Time),310144.7999997139,020_y_f_h_a.png,I,m,972,2,1,1990.5,308154.2999997139,9004,VNB,B,1
2,test,2,1.0,1-Back,1,m,Mon Oct 28 2024 15:46:24 GMT-0400 (Eastern Daylight Time),312478.19999980927,004_o_m_n_a.png,I,m,1241,3,1,2322.0,310156.19999980927,9004,VNB,B,2
3,test,2,0.0,1-Back,1,m,Mon Oct 28 2024 15:46:24 GMT-0400 (Eastern Daylight Time),315478.09999990463,011_m_f_d_a.png,I,m,1967,4,1,2990.0999999046326,312488.0,9004,VNB,B,3
4,test,2,0.0,1-Back,1,z,Mon Oct 28 2024 15:46:24 GMT-0400 (Eastern Daylight Time),317611.40000009537,007_m_m_d_a.png,I,z,1111,5,1,2124.5,315486.90000009537,9004,VNB,B,4
5,test,2,0.0,1-Back,1,m,Mon Oct 28 2024 15:46:24 GMT-0400 (Eastern Daylight Time),319744.7999997139,016_y_m_h_a.png,I,m,1039,6,1,2123.0999999046326,317621.69999980927,9004,VNB,B,5
6,test,2,1.0,1-Back,1,z,Mon Oct 28 2024 15:46:24 GMT-0400 (Eastern Daylight Time),321944.59999990463,005_o_f_h_a.png,I,z,1113,7,1,2189.0,319755.59999990463,9004,VNB,B,6
7,test,2,0.0,1-Back,1,m,Mon Oct 28 2024 15:46:24 GMT-0400 (Eastern Daylight Time),323912.40000009537,011_m_f_n_a.png,I,m,865,8,1,1953.5,321958.90000009537,9004,VNB,B,7
8,test,2,0.0,1-Back,1,m,Mon Oct 28 2024 15:46:24 GMT-0400 (Eastern Daylight Time),326044.69999980927,020_y_f_d_a.png,I,m,1109,9,1,2121.4000000953674,323923.2999997139,9004,VNB,B,8
9,test,2,0.0,1-Back,1,m,Mon Oct 28 2024 15:46:24 GMT-0400 (Eastern Daylight Time),328361.2999997139,007_m_m_n_a.png,I,m,1229,10,1,2305.3999996185303,326055.90000009537,9004,VNB,B,9
10,test,2,1.0,1-Back,1,m,Mon Oct 28 2024 15:46:24 GMT-0400 (Eastern Daylight Time),330561.5,011_m_f_h_a.png,I,m,1088,11,1,2189.5,328372.0,9004,VNB,B,10
11,test,2,0.0,1-Back,1,z,Mon Oct 28 2024 15:46:24 GMT-0400 (Eastern Daylight Time),332728.0,004_o_m_h_a.png,I,z,1147,12,1,2157.0,330571.0,9004,VNB,B,11
12,test,2,0.0,1-Back,1,m,Mon Oct 28 2024 15:46:24 GMT-0400 (Eastern Daylight Time),334911.59999990463,016_y_m_d_a.png,I,m,1073,13,1,2171.5999999046326,332740.0,9004,VNB,B,12
13,test,2,0.0,1-Back,1,m,Mon Oct 28 2024 15:46:24 GMT-0400 (Eastern Daylight Time),337577.90000009537,005_o_f_n_a.png,I,m,1578,14,1,2654.300000190735,334923.59999990463,9004,VNB,B,13
14,test,2,0.0,1-Back,1,z,Mon Oct 28 2024 15:46:24 GMT-0400 (Eastern Daylight Time),339727.90000009537,020_y_f_n_a.png,I,z,1056,15,1,2138.9000000953674,337589.0,9004,VNB,B,14
15,test,2,1.0,1-Back,1,m,Mon Oct 28 2024 15:46:24 GMT-0400 (Eastern Daylight Time),342194.19999980927,007_m_m_h_a.png,I,m,1437,16,1,2452.199999809265,339742.0,9004,VNB,B,15
15,test,2,0.0,1-Back,0,m,Mon Oct 28 2024 15:46:24 GMT-0400 (Eastern Daylight Time),345228.2999997139,005_o_f_d_a.png,I,None,2016,17,1,3028.8999996185303,342199.40000009537,9004,VNB,B,16
16,test,2,1.0,1-Back,1,z,Mon Oct 28 2024 15:46:24 GMT-0400 (Eastern Daylight Time),347344.7999997139,004_o_m_d_a.png,I,z,1089,18,1,2105.3999996185303,345239.40000009537,9004,VNB,B,17
0,test,3,1.0,1-Back,,,Mon Oct 28 2024 15:46:24 GMT-0400 (Eastern Daylight Time),347344.7999997139,005_o_f_h_a.png,I,space,2668,1,1,2105.3999996185303,345239.40000009537,9004,VNB,B,0
1,test,3,0.0,1-Back,1,m,Mon Oct 28 2024 15:46:24 GMT-0400 (Eastern Daylight Time),354128.19999980927,011_m_f_d_a.png,I,m,906,2,1,1920.6999998092651,352207.5,9004,VNB,B,1
2,test,3,1.0,1-Back,1,m,Mon Oct 28 2024 15:46:24 GMT-0400 (Eastern Daylight Time),356294.90000009537,007_m_m_n_a.png,I,m,1082,3,1,2154.9000000953674,354140.0,9004,VNB,B,2
3,test,3,0.0,1-Back,1,z,Mon Oct 28 2024 15:46:24 GMT-0400 (Eastern Daylight Time),358394.90000009537,005_o_f_n_a.png,I,z,1011,4,1,2089.4000000953674,356305.5,9004,VNB,B,3
4,test,3,1.0,1-Back,1,m,Mon Oct 28 2024 15:46:24 GMT-0400 (Eastern Daylight Time),360544.90000009537,004_o_m_d_a.png,I,m,1039,5,1,2138.800000190735,358406.09999990463,9004,VNB,B,4
5,test,3,0.0,1-Back,1,m,Mon Oct 28 2024 15:46:24 GMT-0400 (Eastern Daylight Time),362894.69999980927,020_y_f_h_a.png,I,m,1257,6,1,2337.9000000953674,360556.7999997139,9004,VNB,B,5
6,test,3,0.0,1-Back,1,z,Mon Oct 28 2024 15:46:24 GMT-0400 (Eastern Daylight Time),364978.19999980927,016_y_m_h_a.png,I,z,1054,7,1,2071.699999809265,362906.5,9004,VNB,B,6
7,test,3,0.0,1-Back,1,m,Mon Oct 28 2024 15:46:24 GMT-0400 (Eastern Daylight Time),367094.7999997139,011_m_f_n_a.png,I,m,1082,8,1,2108.5,364986.2999997139,9004,VNB,B,7
8,test,3,0.0,1-Back,1,m,Mon Oct 28 2024 15:46:24 GMT-0400 (Eastern Daylight Time),369711.5,020_y_f_d_a.png,I,m,1590,9,1,2605.2000002861023,367106.2999997139,9004,VNB,B,8
9,test,3,1.0,1-Back,1,m,Mon Oct 28 2024 15:46:24 GMT-0400 (Eastern Daylight Time),371878.19999980927,004_o_m_n_a.png,I,m,1133,10,1,2156.0999999046326,369722.09999990463,9004,VNB,B,9
10,test,3,0.0,1-Back,1,m,Mon Oct 28 2024 15:46:24 GMT-0400 (Eastern Daylight Time),373978.0,007_m_m_h_a.png,I,m,1011,11,1,2089.5,371888.5,9004,VNB,B,10
11,test,3,0.0,1-Back,1,z,Mon Oct 28 2024 15:46:24 GMT-0400 (Eastern Daylight Time),376244.7999997139,011_m_f_h_a.png,I,z,1234,12,1,2256.699999809265,373988.09999990463,9004,VNB,B,11
12,test,3,1.0,1-Back,1,m,Mon Oct 28 2024 15:46:24 GMT-0400 (Eastern Daylight Time),378312.40000009537,005_o_f_d_a.png,I,m,1048,13,1,2057.1000003814697,376255.2999997139,9004,VNB,B,12
13,test,3,0.0,1-Back,1,z,Mon Oct 28 2024 15:46:24 GMT-0400 (Eastern Daylight Time),380528.09999990463,007_m_m_d_a.png,I,z,1189,14,1,2206.300000190735,378321.7999997139,9004,VNB,B,13
14,test,3,0.0,1-Back,1,m,Mon Oct 28 2024 15:46:24 GMT-0400 (Eastern Daylight Time),382661.5,016_y_m_n_a.png,I,m,1101,15,1,2124.4000000953674,380537.09999990463,9004,VNB,B,14
15,test,3,1.0,1-Back,1,m,Mon Oct 28 2024 15:46:24 GMT-0400 (Eastern Daylight Time),384761.5,004_o_m_h_a.png,I,m,1079,16,1,2091.800000190735,382669.69999980927,9004,VNB,B,15
16,test,3,0.0,1-Back,1,m,Mon Oct 28 2024 15:46:24 GMT-0400 (Eastern Daylight Time),386694.90000009537,016_y_m_d_a.png,I,m,899,17,1,1924.5,384770.40000009537,9004,VNB,B,16
17,test,3,1.0,1-Back,1,m,Mon Oct 28 2024 15:46:24 GMT-0400 (Eastern Daylight Time),388994.90000009537,020_y_f_n_a.png,I,m,1187,18,1,2289.300000190735,386705.59999990463,9004,VNB,B,17
0,test,4,1.0,1-Back,,,Mon Oct 28 2024 15:46:24 GMT-0400 (Eastern Daylight Time),388994.90000009537,007_m_m_d_a.png,I,space,2794,1,1,2289.300000190735,386705.59999990463,9004,VNB,B,0
0,test,4,0.0,1-Back,0,z,Mon Oct 28 2024 15:46:24 GMT-0400 (Eastern Daylight Time),396228.0,004_o_m_d_a.png,I,m,1252,2,1,2273.0,393955.0,9004,VNB,B,1
1,test,4,0.0,1-Back,1,m,Mon Oct 28 2024 15:46:24 GMT-0400 (Eastern Daylight Time),398461.2999997139,016_y_m_h_a.png,I,m,1209,3,1,2222.0,396239.2999997139,9004,VNB,B,2
2,test,4,0.0,1-Back,1,m,Mon Oct 28 2024 15:46:24 GMT-0400 (Eastern Daylight Time),400311.09999990463,011_m_f_n_a.png,I,m,831,4,1,1839.6999998092651,398471.40000009537,9004,VNB,B,3
3,test,4,1.0,1-Back,1,m,Mon Oct 28 2024 15:46:24 GMT-0400 (Eastern Daylight Time),402327.5,005_o_f_h_a.png,I,m,931,5,1,2005.2000002861023,400322.2999997139,9004,VNB,B,4
4,test,4,0.0,1-Back,1,m,Mon Oct 28 2024 15:46:24 GMT-0400 (Eastern Daylight Time),404244.90000009537,007_m_m_n_a.png,I,m,885,6,1,1912.1000003814697,402332.7999997139,9004,VNB,B,5
5,test,4,0.0,1-Back,1,m,Mon Oct 28 2024 15:46:24 GMT-0400 (Eastern Daylight Time),406161.2999997139,016_y_m_d_a.png,I,m,888,7,1,1906.5999999046326,404254.69999980927,9004,VNB,B,6
6,test,4,1.0,1-Back,1,z,Mon Oct 28 2024 15:46:24 GMT-0400 (Eastern Daylight Time),408261.59999990463,020_y_f_d_a.png,I,z,1001,8,1,2089.300000190735,406172.2999997139,9004,VNB,B,7
7,test,4,0.0,1-Back,1,m,Mon Oct 28 2024 15:46:24 GMT-0400 (Eastern Daylight Time),410061.59999990463,011_m_f_h_a.png,I,m,692,9,1,1786.4000000953674,408275.19999980927,9004,VNB,B,8
8,test,4,0.0,1-Back,1,z,Mon Oct 28 2024 15:46:24 GMT-0400 (Eastern Daylight Time),411711.2999997139,004_o_m_h_a.png,I,z,624,10,1,1640.1999998092651,410071.09999990463,9004,VNB,B,9
9,test,4,1.0,1-Back,1,m,Mon Oct 28 2024 15:46:24 GMT-0400 (Eastern Daylight Time),413944.5,005_o_f_n_a.png,I,m,1213,11,1,2223.300000190735,411721.19999980927,9004,VNB,B,10
10,test,4,0.0,1-Back,1,m,Mon Oct 28 2024 15:46:24 GMT-0400 (Eastern Daylight Time),416761.2999997139,011_m_f_d_a.png,I,m,1796,12,1,2810.0999999046326,413951.19999980927,9004,VNB,B,11
11,test,4,0.0,1-Back,1,m,Mon Oct 28 2024 15:46:24 GMT-0400 (Eastern Daylight Time),419561.40000009537,020_y_f_n_a.png,I,m,1713,13,1,2788.9000000953674,416772.5,9004,VNB,B,12
11,test,4,0.0,1-Back,0,m,Mon Oct 28 2024 15:46:24 GMT-0400 (Eastern Daylight Time),422678.2999997139,005_o_f_d_a.png,I,None,2016,14,1,3105.7999997138977,419572.5,9004,VNB,B,13
12,test,4,0.0,1-Back,1,m,Mon Oct 28 2024 15:46:24 GMT-0400 (Eastern Daylight Time),425128.0,020_y_f_h_a.png,I,m,1431,15,1,2439.0,422689.0,9004,VNB,B,14
13,test,4,1.0,1-Back,1,z,Mon Oct 28 2024 15:46:24 GMT-0400 (Eastern Daylight Time),427228.0,007_m_m_h_a.png,I,z,1010,16,1,2089.0999999046326,425138.90000009537,9004,VNB,B,15
14,test,4,0.0,1-Back,1,m,Mon Oct 28 2024 15:46:24 GMT-0400 (Eastern Daylight Time),429144.7999997139,004_o_m_n_a.png,I,m,830,17,1,1906.7999997138977,427238.0,9004,VNB,B,16
15,test,4,1.0,1-Back,1,z,Mon Oct 28 2024 15:46:24 GMT-0400 (Eastern Daylight Time),430828.2999997139,016_y_m_n_a.png,I,z,660,18,1,1673.0999999046326,429155.19999980927,9004,VNB,B,17
0,test,5,1.0,1-Back,,,Mon Oct 28 2024 15:46:24 GMT-0400 (Eastern Daylight Time),430828.2999997139,004_o_m_n_a.png,I,space,2216,1,1,1673.0999999046326,429155.19999980927,9004,VNB,B,0
1,test,5,1.0,1-Back,1,m,Mon Oct 28 2024 15:46:24 GMT-0400 (Eastern Daylight Time),437344.7999997139,005_o_f_h_a.png,I,m,1239,2,1,2255.5,435089.2999997139,9004,VNB,B,1
2,test,5,0.0,1-Back,1,m,Mon Oct 28 2024 15:46:24 GMT-0400 (Eastern Daylight Time),439227.59999990463,016_y_m_d_a.png,I,m,793,3,1,1872.5,437355.09999990463,9004,VNB,B,2
3,test,5,0.0,1-Back,1,z,Mon Oct 28 2024 15:46:24 GMT-0400 (Eastern Daylight Time),440944.90000009537,004_o_m_d_a.png,I,z,689,4,1,1712.3000001907349,439232.59999990463,9004,VNB,B,3
4,test,5,0.0,1-Back,1,m,Mon Oct 28 2024 15:46:24 GMT-0400 (Eastern Daylight Time),443161.40000009537,011_m_f_h_a.png,I,m,1197,5,1,2205.5,440955.90000009537,9004,VNB,B,4
5,test,5,0.0,1-Back,1,m,Mon Oct 28 2024 15:46:24 GMT-0400 (Eastern Daylight Time),445561.2999997139,020_y_f_n_a.png,I,m,1379,6,1,2385.2999997138977,443176.0,9004,VNB,B,5
6,test,5,1.0,1-Back,1,z,Mon Oct 28 2024 15:46:24 GMT-0400 (Eastern Daylight Time),447278.19999980927,005_o_f_n_a.png,I,z,691,7,1,1707.5,445570.69999980927,9004,VNB,B,6
7,test,5,0.0,1-Back,1,m,Mon Oct 28 2024 15:46:24 GMT-0400 (Eastern Daylight Time),449444.59999990463,011_m_f_d_a.png,I,m,1134,8,1,2156.0,447288.59999990463,9004,VNB,B,7
8,test,5,0.0,1-Back,1,m,Mon Oct 28 2024 15:46:24 GMT-0400 (Eastern Daylight Time),451578.19999980927,016_y_m_h_a.png,I,m,1112,9,1,2126.4000000953674,449451.7999997139,9004,VNB,B,8
9,test,5,0.0,1-Back,1,m,Mon Oct 28 2024 15:46:24 GMT-0400 (Eastern Daylight Time),453928.09999990463,020_y_f_d_a.png,I,m,1331,10,1,2340.4000000953674,451587.69999980927,9004,VNB,B,9
10,test,5,0.0,1-Back,1,m,Mon Oct 28 2024 15:46:24 GMT-0400 (Eastern Daylight Time),456061.40000009537,007_m_m_n_a.png,I,m,1110,11,1,2122.800000190735,453938.59999990463,9004,VNB,B,10
11,test,5,1.0,1-Back,1,z,Mon Oct 28 2024 15:46:24 GMT-0400 (Eastern Daylight Time),457661.59999990463,011_m_f_n_a.png,I,z,575,12,1,1590.5999999046326,456071.0,9004,VNB,B,11
12,test,5,0.0,1-Back,1,m,Mon Oct 28 2024 15:46:24 GMT-0400 (Eastern Daylight Time),459811.7999997139,004_o_m_h_a.png,I,m,1119,13,1,2139.199999809265,457672.59999990463,9004,VNB,B,12
13,test,5,0.0,1-Back,1,z,Mon Oct 28 2024 15:46:24 GMT-0400 (Eastern Daylight Time),461844.90000009537,007_m_m_h_a.png,I,z,1001,14,1,2020.8000001907349,459824.09999990463,9004,VNB,B,13
14,test,5,1.0,1-Back,1,m,Mon Oct 28 2024 15:46:24 GMT-0400 (Eastern Daylight Time),463911.19999980927,005_o_f_d_a.png,I,m,981,15,1,2055.5,461855.69999980927,9004,VNB,B,14
15,test,5,0.0,1-Back,1,m,Mon Oct 28 2024 15:46:24 GMT-0400 (Eastern Daylight Time),466411.69999980927,016_y_m_n_a.png,I,m,1411,16,1,2492.699999809265,463919.0,9004,VNB,B,15
16,test,5,0.0,1-Back,1,m,Mon Oct 28 2024 15:46:24 GMT-0400 (Eastern Daylight Time),468695.0,020_y_f_h_a.png,I,m,1266,17,1,2275.0,466420.0,9004,VNB,B,16
17,test,5,0.0,1-Back,1,m,Mon Oct 28 2024 15:46:24 GMT-0400 (Eastern Daylight Time),470611.5,007_m_m_d_a.png,I,m,819,18,1,1907.0999999046326,468704.40000009537,9004,VNB,B,17
0,prac,1,0.0,2-Back,,,Mon Oct 28 2024 15:46:24 GMT-0400 (Eastern Daylight Time),470611.5,011_m_f_n_a.png,I,space,10975,1,1,1907.0999999046326,468704.40000009537,9004,VNB,B,0
0,prac,1,0.0,2-Back,,,Mon Oct 28 2024 15:46:24 GMT-0400 (Eastern Daylight Time),470611.5,005_o_f_h_a.png,I,space,10975,2,1,1907.0999999046326,468704.40000009537,9004,VNB,B,0
1,prac,1,0.0,2-Back,1,m,Mon Oct 28 2024 15:46:24 GMT-0400 (Eastern Daylight Time),592362.0,004_o_m_d_a.png,I,m,1245,3,1,2139.0,590223.0,9004,VNB,B,1
2,prac,1,1.0,2-Back,1,z,Mon Oct 28 2024 15:46:24 GMT-0400 (Eastern Daylight Time),594745.2999997139,007_m_m_h_a.png,I,z,1445,4,1,2370.2999997138977,592375.0,9004,VNB,B,2
3,prac,1,0.0,2-Back,1,m,Mon Oct 28 2024 15:46:24 GMT-0400 (Eastern Daylight Time),597178.5999999046,020_y_f_n_a.png,I,m,1520,5,1,2421.0999999046326,594757.5,9004,VNB,B,3
3,prac,1,1.0,2-Back,0,z,Mon Oct 28 2024 15:46:24 GMT-0400 (Eastern Daylight Time),600095.0,004_o_m_h_a.png,I,None,2011,6,1,2904.4000000953674,597190.5999999046,9004,VNB,B,4
3,prac,1,1.0,2-Back,0,z,Mon Oct 28 2024 15:46:24 GMT-0400 (Eastern Daylight Time),603045.1999998093,016_y_m_n_a.png,I,None,2011,7,1,2937.0,600108.1999998093,9004,VNB,B,5
3,prac,1,0.0,2-Back,0,m,Mon Oct 28 2024 15:46:24 GMT-0400 (Eastern Daylight Time),605978.4000000954,011_m_f_d_a.png,I,None,2002,8,1,2920.0,603058.4000000954,9004,VNB,B,6
3,prac,1,0.0,2-Back,0,m,Mon Oct 28 2024 15:46:24 GMT-0400 (Eastern Daylight Time),608245.0,005_o_f_d_a.png,I,z,1316,9,1,2253.2000002861023,605991.7999997139,9004,VNB,B,7
4,prac,1,0.0,2-Back,1,m,Mon Oct 28 2024 15:46:24 GMT-0400 (Eastern Daylight Time),610711.7999997139,007_m_m_h_a.png,I,m,1529,10,1,2454.199999809265,608257.5999999046,9004,VNB,B,8
4,prac,1,1.0,2-Back,0,z,Mon Oct 28 2024 15:46:24 GMT-0400 (Eastern Daylight Time),613278.5,020_y_f_d_a.png,I,m,1579,11,1,2486.800000190735,610791.6999998093,9004,VNB,B,9
4,prac,1,0.0,2-Back,0,m,Mon Oct 28 2024 15:46:24 GMT-0400 (Eastern Daylight Time),616195.1999998093,004_o_m_n_a.png,I,None,2009,12,1,2903.5999999046326,613291.5999999046,9004,VNB,B,10
0,prac,2,0.0,2-Back,,,Mon Oct 28 2024 15:46:24 GMT-0400 (Eastern Daylight Time),616195.1999998093,011_m_f_n_a.png,I,a,4052,1,1,2903.5999999046326,613291.5999999046,9004,VNB,B,0
0,prac,2,0.0,2-Back,,,Mon Oct 28 2024 15:46:24 GMT-0400 (Eastern Daylight Time),616195.1999998093,005_o_f_h_a.png,I,a,4052,2,1,2903.5999999046326,613291.5999999046,9004,VNB,B,0
1,prac,2,0.0,2-Back,1,m,Mon Oct 28 2024 15:46:24 GMT-0400 (Eastern Daylight Time),627411.7999997139,004_o_m_d_a.png,I,m,901,3,1,1805.0999999046326,625606.6999998093,9004,VNB,B,1
1,prac,2,1.0,2-Back,0,z,Mon Oct 28 2024 15:46:24 GMT-0400 (Eastern Daylight Time),629661.7999997139,007_m_m_h_a.png,I,m,1307,4,1,2238.5999999046326,627423.1999998093,9004,VNB,B,2
1,prac,2,0.0,2-Back,0,m,Mon Oct 28 2024 15:46:24 GMT-0400 (Eastern Daylight Time),632011.9000000954,020_y_f_n_a.png,I,z,1432,5,1,2333.800000190735,629678.0999999046,9004,VNB,B,3
1,prac,2,1.0,2-Back,0,z,Mon Oct 28 2024 15:46:24 GMT-0400 (Eastern Daylight Time),633645.0,004_o_m_h_a.png,I,m,721,6,1,1617.9000000953674,632027.0999999046,9004,VNB,B,4
1,prac,2,1.0,2-Back,0,z,Mon Oct 28 2024 15:46:24 GMT-0400 (Eastern Daylight Time),636128.4000000954,016_y_m_n_a.png,I,m,1531,7,1,2466.300000190735,633662.0999999046,9004,VNB,B,5
2,prac,2,0.0,2-Back,1,m,Mon Oct 28 2024 15:46:24 GMT-0400 (Eastern Daylight Time),638345.4000000954,011_m_f_d_a.png,I,m,1282,8,1,2199.9000000953674,636145.5,9004,VNB,B,6
2,prac,2,0.0,2-Back,0,m,Mon Oct 28 2024 15:46:24 GMT-0400 (Eastern Daylight Time),640611.7999997139,005_o_f_d_a.png,I,z,1314,9,1,2252.699999809265,638359.0999999046,9004,VNB,B,7
2,prac,2,0.0,2-Back,0,m,Mon Oct 28 2024 15:46:24 GMT-0400 (Eastern Daylight Time),642778.6999998093,007_m_m_h_a.png,I,z,1222,10,1,2154.199999809265,640624.5,9004,VNB,B,8
2,prac,2,1.0,2-Back,0,z,Mon Oct 28 2024 15:46:24 GMT-0400 (Eastern Daylight Time),644661.4000000954,020_y_f_d_a.png,I,m,955,11,1,1870.5,642790.9000000954,9004,VNB,B,9
2,prac,2,0.0,2-Back,0,m,Mon Oct 28 2024 15:46:24 GMT-0400 (Eastern Daylight Time),647578.5,004_o_m_n_a.png,I,None,2017,12,1,2906.7000002861023,644671.7999997139,9004,VNB,B,10
0,test,1,0.0,2-Back,,,Mon Oct 28 2024 15:46:24 GMT-0400 (Eastern Daylight Time),647578.5,016_y_m_h_a.png,I,space,14622,1,1,2906.7000002861023,644671.7999997139,9004,VNB,B,0
0,test,1,0.0,2-Back,,,Mon Oct 28 2024 15:46:24 GMT-0400 (Eastern Daylight Time),647578.5,005_o_f_n_a.png,I,space,14622,2,1,2906.7000002861023,644671.7999997139,9004,VNB,B,0
1,test,1,0.0,2-Back,1,z,Mon Oct 28 2024 15:46:24 GMT-0400 (Eastern Daylight Time),686078.5999999046,004_o_m_h_a.png,I,z,742,3,1,1758.6999998092651,684319.9000000954,9004,VNB,B,1
2,test,1,0.0,2-Back,1,m,Mon Oct 28 2024 15:46:24 GMT-0400 (Eastern Daylight Time),688695.1999998093,011_m_f_d_a.png,I,m,1583,4,1,2604.7999997138977,686090.4000000954,9004,VNB,B,2
2,test,1,1.0,2-Back,0,m,Mon Oct 28 2024 15:46:24 GMT-0400 (Eastern Daylight Time),691311.7999997139,016_y_m_n_a.png,I,z,1524,5,1,2604.7999997138977,688707.0,9004,VNB,B,3
3,test,1,0.0,2-Back,1,z,Mon Oct 28 2024 15:46:24 GMT-0400 (Eastern Daylight Time),693661.7999997139,020_y_f_d_a.png,I,z,1326,6,1,2340.5999999046326,691321.1999998093,9004,VNB,B,4
4,test,1,0.0,2-Back,1,m,Mon Oct 28 2024 15:46:24 GMT-0400 (Eastern Daylight Time),696311.4000000954,007_m_m_h_a.png,I,m,1565,7,1,2639.0,693672.4000000954,9004,VNB,B,5
5,test,1,1.0,2-Back,1,m,Mon Oct 28 2024 15:46:24 GMT-0400 (Eastern Daylight Time),699128.1999998093,020_y_f_n_a.png,I,m,1731,8,1,2808.4000000953674,696319.7999997139,9004,VNB,B,6
6,test,1,0.0,2-Back,1,z,Mon Oct 28 2024 15:46:24 GMT-0400 (Eastern Daylight Time),701395.0999999046,005_o_f_h_a.png,I,z,1171,9,1,2255.5999999046326,699139.5,9004,VNB,B,7
7,test,1,0.0,2-Back,1,m,Mon Oct 28 2024 15:46:24 GMT-0400 (Eastern Daylight Time),703895.1999998093,004_o_m_d_a.png,I,m,1400,10,1,2488.0,701407.1999998093,9004,VNB,B,8
8,test,1,1.0,2-Back,1,m,Mon Oct 28 2024 15:46:24 GMT-0400 (Eastern Daylight Time),706328.5,007_m_m_d_a.png,I,m,1415,11,1,2423.800000190735,703904.6999998093,9004,VNB,B,9
8,test,1,0.0,2-Back,0,m,Mon Oct 28 2024 15:46:24 GMT-0400 (Eastern Daylight Time),708895.2999997139,011_m_f_n_a.png,I,z,1475,12,1,2555.7999997138977,706339.5,9004,VNB,B,10
9,test,1,0.0,2-Back,1,m,Mon Oct 28 2024 15:46:24 GMT-0400 (Eastern Daylight Time),711578.4000000954,020_y_f_h_a.png,I,m,1596,13,1,2670.6000003814697,708907.7999997139,9004,VNB,B,11
9,test,1,0.0,2-Back,0,z,Mon Oct 28 2024 15:46:24 GMT-0400 (Eastern Daylight Time),714628.5,007_m_m_n_a.png,I,m,1936,14,1,3038.0,711590.5,9004,VNB,B,12
10,test,1,0.0,2-Back,1,m,Mon Oct 28 2024 15:46:24 GMT-0400 (Eastern Daylight Time),717278.5,016_y_m_d_a.png,I,m,1559,15,1,2639.0,714639.5,9004,VNB,B,13
11,test,1,1.0,2-Back,1,m,Mon Oct 28 2024 15:46:24 GMT-0400 (Eastern Daylight Time),720195.2999997139,011_m_f_h_a.png,I,m,1820,16,1,2904.0,717291.2999997139,9004,VNB,B,14
12,test,1,0.0,2-Back,1,z,Mon Oct 28 2024 15:46:24 GMT-0400 (Eastern Daylight Time),722462.0,005_o_f_d_a.png,I,z,1243,17,1,2257.5,720204.5,9004,VNB,B,15
13,test,1,0.0,2-Back,1,m,Mon Oct 28 2024 15:46:24 GMT-0400 (Eastern Daylight Time),724911.9000000954,004_o_m_n_a.png,I,m,1424,18,1,2439.800000190735,722472.0999999046,9004,VNB,B,16
0,test,2,0.0,2-Back,,,Mon Oct 28 2024 15:46:24 GMT-0400 (Eastern Daylight Time),724911.9000000954,007_m_m_h_a.png,I,space,1998,1,1,2439.800000190735,722472.0999999046,9004,VNB,B,0
0,test,2,0.0,2-Back,,,Mon Oct 28 2024 15:46:24 GMT-0400 (Eastern Daylight Time),724911.9000000954,020_y_f_n_a.png,I,space,1998,2,1,2439.800000190735,722472.0999999046,9004,VNB,B,0
1,test,2,1.0,2-Back,1,z,Mon Oct 28 2024 15:46:24 GMT-0400 (Eastern Daylight Time),734245.0999999046,005_o_f_h_a.png,I,z,969,3,1,1985.0999999046326,732260.0,9004,VNB,B,1
2,test,2,0.0,2-Back,1,m,Mon Oct 28 2024 15:46:24 GMT-0400 (Eastern Daylight Time),736361.5999999046,004_o_m_d_a.png,I,m,1097,4,1,2106.5999999046326,734255.0,9004,VNB,B,2
2,test,2,0.0,2-Back,0,m,Mon Oct 28 2024 15:46:24 GMT-0400 (Eastern Daylight Time),739395.5999999046,011_m_f_d_a.png,I,None,2016,5,1,3021.9000000953674,736373.6999998093,9004,VNB,B,3
3,test,2,0.0,2-Back,1,m,Mon Oct 28 2024 15:46:24 GMT-0400 (Eastern Daylight Time),741928.4000000954,016_y_m_h_a.png,I,m,1515,6,1,2523.2000002861023,739405.1999998093,9004,VNB,B,4
4,test,2,0.0,2-Back,1,m,Mon Oct 28 2024 15:46:24 GMT-0400 (Eastern Daylight Time),744361.7999997139,005_o_f_n_a.png,I,m,1413,7,1,2422.0999999046326,741939.6999998093,9004,VNB,B,5
4,test,2,1.0,2-Back,0,z,Mon Oct 28 2024 15:46:24 GMT-0400 (Eastern Daylight Time),746495.2999997139,004_o_m_h_a.png,I,m,1108,8,1,2123.7999997138977,744371.5,9004,VNB,B,6
4,test,2,0.0,2-Back,0,m,Mon Oct 28 2024 15:46:24 GMT-0400 (Eastern Daylight Time),749145.0,020_y_f_d_a.png,I,z,1631,9,1,2638.5999999046326,746506.4000000954,9004,VNB,B,7
5,test,2,0.0,2-Back,1,m,Mon Oct 28 2024 15:46:24 GMT-0400 (Eastern Daylight Time),751495.1999998093,016_y_m_d_a.png,I,m,1333,10,1,2337.9000000953674,749157.2999997139,9004,VNB,B,8
6,test,2,0.0,2-Back,1,m,Mon Oct 28 2024 15:46:24 GMT-0400 (Eastern Daylight Time),754128.4000000954,007_m_m_n_a.png,I,m,1590,11,1,2613.9000000953674,751514.5,9004,VNB,B,9
6,test,2,0.0,2-Back,0,m,Mon Oct 28 2024 15:46:24 GMT-0400 (Eastern Daylight Time),756345.1999998093,011_m_f_h_a.png,I,z,1131,12,1,2206.699999809265,754138.5,9004,VNB,B,10
6,test,2,1.0,2-Back,0,z,Mon Oct 28 2024 15:46:24 GMT-0400 (Eastern Daylight Time),758695.2999997139,004_o_m_n_a.png,I,m,1250,13,1,2338.699999809265,756356.5999999046,9004,VNB,B,11
7,test,2,0.0,2-Back,1,m,Mon Oct 28 2024 15:46:24 GMT-0400 (Eastern Daylight Time),761445.1999998093,005_o_f_d_a.png,I,m,1719,14,1,2739.5999999046326,758705.5999999046,9004,VNB,B,12
8,test,2,0.0,2-Back,1,m,Mon Oct 28 2024 15:46:24 GMT-0400 (Eastern Daylight Time),764211.2999997139,020_y_f_h_a.png,I,m,1669,15,1,2754.0999999046326,761457.1999998093,9004,VNB,B,13
9,test,2,0.0,2-Back,1,z,Mon Oct 28 2024 15:46:24 GMT-0400 (Eastern Daylight Time),766345.2999997139,007_m_m_d_a.png,I,z,1114,16,1,2128.0999999046326,764217.1999998093,9004,VNB,B,14
10,test,2,0.0,2-Back,1,m,Mon Oct 28 2024 15:46:24 GMT-0400 (Eastern Daylight Time),768578.5999999046,016_y_m_n_a.png,I,m,1205,17,1,2224.5,766354.0999999046,9004,VNB,B,15
10,test,2,1.0,2-Back,0,m,Mon Oct 28 2024 15:46:24 GMT-0400 (Eastern Daylight Time),771612.1999998093,011_m_f_n_a.png,I,None,2016,18,1,3024.699999809265,768587.5,9004,VNB,B,16
0,test,3,1.0,2-Back,,,Mon Oct 28 2024 15:46:24 GMT-0400 (Eastern Daylight Time),771612.1999998093,004_o_m_n_a.png,I,space,2441,1,1,3024.699999809265,768587.5,9004,VNB,B,0
0,test,3,1.0,2-Back,,,Mon Oct 28 2024 15:46:24 GMT-0400 (Eastern Daylight Time),771612.1999998093,005_o_f_d_a.png,I,space,2441,2,1,3024.699999809265,768587.5,9004,VNB,B,0
1,test,3,0.0,2-Back,1,m,Mon Oct 28 2024 15:46:24 GMT-0400 (Eastern Daylight Time),782045.1999998093,020_y_f_h_a.png,I,m,1576,3,1,2656.5999999046326,779388.5999999046,9004,VNB,B,1
2,test,3,0.0,2-Back,1,z,Mon Oct 28 2024 15:46:24 GMT-0400 (Eastern Daylight Time),784745.0999999046,011_m_f_d_a.png,I,z,1680,4,1,2689.699999809265,782055.4000000954,9004,VNB,B,2
3,test,3,1.0,2-Back,1,m,Mon Oct 28 2024 15:46:24 GMT-0400 (Eastern Daylight Time),786895.4000000954,016_y_m_n_a.png,I,m,1125,5,1,2140.2000002861023,784755.1999998093,9004,VNB,B,3
4,test,3,0.0,2-Back,1,m,Mon Oct 28 2024 15:46:24 GMT-0400 (Eastern Daylight Time),789661.7999997139,004_o_m_h_a.png,I,m,1676,6,1,2756.5,786905.2999997139,9004,VNB,B,4
4,test,3,0.0,2-Back,0,z,Mon Oct 28 2024 15:46:24 GMT-0400 (Eastern Daylight Time),792695.5,020_y_f_n_a.png,I,None,2016,7,1,3025.0,789670.5,9004,VNB,B,5
4,test,3,1.0,2-Back,0,m,Mon Oct 28 2024 15:46:24 GMT-0400 (Eastern Daylight Time),795045.2999997139,007_m_m_d_a.png,I,z,1319,8,1,2340.0999999046326,792705.1999998093,9004,VNB,B,6
5,test,3,0.0,2-Back,1,m,Mon Oct 28 2024 15:46:24 GMT-0400 (Eastern Daylight Time),797395.2999997139,016_y_m_d_a.png,I,m,1254,9,1,2338.5,795056.7999997139,9004,VNB,B,7
6,test,3,0.0,2-Back,1,m,Mon Oct 28 2024 15:46:24 GMT-0400 (Eastern Daylight Time),800045.1999998093,005_o_f_h_a.png,I,m,1626,10,1,2640.0,797405.1999998093,9004,VNB,B,8
7,test,3,1.0,2-Back,1,m,Mon Oct 28 2024 15:46:24 GMT-0400 (Eastern Daylight Time),802295.0,011_m_f_n_a.png,I,m,1217,11,1,2238.7000002861023,800056.2999997139,9004,VNB,B,9
7,test,3,1.0,2-Back,0,z,Mon Oct 28 2024 15:46:24 GMT-0400 (Eastern Daylight Time),805412.0,007_m_m_h_a.png,I,None,2016,12,1,3105.5999999046326,802306.4000000954,9004,VNB,B,10
8,test,3,0.0,2-Back,1,m,Mon Oct 28 2024 15:46:24 GMT-0400 (Eastern Daylight Time),807644.9000000954,020_y_f_d_a.png,I,m,1209,13,1,2223.5,805421.4000000954,9004,VNB,B,11
9,test,3,0.0,2-Back,1,m,Mon Oct 28 2024 15:46:24 GMT-0400 (Eastern Daylight Time),810278.6999998093,005_o_f_n_a.png,I,m,1601,14,1,2628.5999999046326,807650.0999999046,9004,VNB,B,12
10,test,3,0.0,2-Back,1,z,Mon Oct 28 2024 15:46:24 GMT-0400 (Eastern Daylight Time),812778.2999997139,004_o_m_d_a.png,I,z,1478,15,1,2490.199999809265,810288.0999999046,9004,VNB,B,13
11,test,3,1.0,2-Back,1,m,Mon Oct 28 2024 15:46:24 GMT-0400 (Eastern Daylight Time),814578.6999998093,011_m_f_h_a.png,I,m,771,16,1,1795.5,812783.1999998093,9004,VNB,B,14
11,test,3,0.0,2-Back,0,m,Mon Oct 28 2024 15:46:24 GMT-0400 (Eastern Daylight Time),816411.6999998093,007_m_m_n_a.png,I,z,744,17,1,1821.6999998092651,814590.0,9004,VNB,B,15
11,test,3,0.0,2-Back,0,z,Mon Oct 28 2024 15:46:24 GMT-0400 (Eastern Daylight Time),818661.5999999046,016_y_m_h_a.png,I,m,1151,18,1,2239.0,816422.5999999046,9004,VNB,B,16
0,test,4,0.0,2-Back,,,Mon Oct 28 2024 15:46:24 GMT-0400 (Eastern Daylight Time),818661.5999999046,011_m_f_n_a.png,I,space,2231,1,1,2239.0,816422.5999999046,9004,VNB,B,0
0,test,4,0.0,2-Back,,,Mon Oct 28 2024 15:46:24 GMT-0400 (Eastern Daylight Time),818661.5999999046,004_o_m_n_a.png,I,space,2231,2,1,2239.0,816422.5999999046,9004,VNB,B,0
1,test,4,1.0,2-Back,1,m,Mon Oct 28 2024 15:46:24 GMT-0400 (Eastern Daylight Time),828162.0,016_y_m_h_a.png,I,m,940,3,1,1960.8000001907349,826201.1999998093,9004,VNB,B,1
2,test,4,1.0,2-Back,1,m,Mon Oct 28 2024 15:46:24 GMT-0400 (Eastern Daylight Time),830695.2999997139,005_o_f_d_a.png,I,m,1516,4,1,2522.0999999046326,828173.1999998093,9004,VNB,B,2
3,test,4,0.0,2-Back,1,z,Mon Oct 28 2024 15:46:24 GMT-0400 (Eastern Daylight Time),832911.4000000954,004_o_m_h_a.png,I,z,1190,5,1,2205.4000000953674,830706.0,9004,VNB,B,3
4,test,4,0.0,2-Back,1,m,Mon Oct 28 2024 15:46:24 GMT-0400 (Eastern Daylight Time),834962.0,007_m_m_n_a.png,I,m,1022,6,1,2042.8000001907349,832919.1999998093,9004,VNB,B,4
5,test,4,0.0,2-Back,1,m,Mon Oct 28 2024 15:46:24 GMT-0400 (Eastern Daylight Time),837262.0,011_m_f_d_a.png,I,m,1259,7,1,2289.300000190735,834972.6999998093,9004,VNB,B,5
6,test,4,0.0,2-Back,1,z,Mon Oct 28 2024 15:46:24 GMT-0400 (Eastern Daylight Time),839712.0,020_y_f_n_a.png,I,z,1424,8,1,2438.9000000953674,837273.0999999046,9004,VNB,B,6
6,test,4,1.0,2-Back,0,m,Mon Oct 28 2024 15:46:24 GMT-0400 (Eastern Daylight Time),842712.6999998093,005_o_f_h_a.png,I,z,1915,9,1,2990.0999999046326,839722.5999999046,9004,VNB,B,7
7,test,4,0.0,2-Back,1,m,Mon Oct 28 2024 15:46:24 GMT-0400 (Eastern Daylight Time),844878.6999998093,007_m_m_h_a.png,I,m,1142,10,1,2155.5999999046326,842723.0999999046,9004,VNB,B,8
8,test,4,0.0,2-Back,1,m,Mon Oct 28 2024 15:46:24 GMT-0400 (Eastern Daylight Time),847795.0,020_y_f_d_a.png,I,m,1820,11,1,2905.7000002861023,844889.2999997139,9004,VNB,B,9
9,test,4,0.0,2-Back,1,m,Mon Oct 28 2024 15:46:24 GMT-0400 (Eastern Daylight Time),850328.5,016_y_m_n_a.png,I,m,1515,12,1,2522.800000190735,847805.6999998093,9004,VNB,B,10
10,test,4,0.0,2-Back,1,z,Mon Oct 28 2024 15:46:24 GMT-0400 (Eastern Daylight Time),852378.6999998093,004_o_m_d_a.png,I,z,962,13,1,2038.5999999046326,850340.0999999046,9004,VNB,B,11
11,test,4,1.0,2-Back,1,m,Mon Oct 28 2024 15:46:24 GMT-0400 (Eastern Daylight Time),854445.2999997139,011_m_f_h_a.png,I,m,976,14,1,2055.5999999046326,852389.6999998093,9004,VNB,B,12
12,test,4,1.0,2-Back,1,m,Mon Oct 28 2024 15:46:24 GMT-0400 (Eastern Daylight Time),856761.7999997139,020_y_f_h_a.png,I,m,1230,15,1,2302.199999809265,854459.5999999046,9004,VNB,B,13
12,test,4,0.0,2-Back,0,m,Mon Oct 28 2024 15:46:24 GMT-0400 (Eastern Daylight Time),858728.5,005_o_f_n_a.png,I,z,882,16,1,1955.7000002861023,856772.7999997139,9004,VNB,B,14
13,test,4,0.0,2-Back,1,m,Mon Oct 28 2024 15:46:24 GMT-0400 (Eastern Daylight Time),861012.0999999046,016_y_m_d_a.png,I,m,1186,17,1,2271.5,858740.5999999046,9004,VNB,B,15
14,test,4,1.0,2-Back,1,m,Mon Oct 28 2024 15:46:24 GMT-0400 (Eastern Daylight Time),863113.9000000954,007_m_m_d_a.png,I,m,1015,18,1,2091.2000002861023,861022.6999998093,9004,VNB,B,16
0,test,5,1.0,2-Back,,,Mon Oct 28 2024 15:46:24 GMT-0400 (Eastern Daylight Time),863113.9000000954,020_y_f_d_a.png,I,space,2804,1,1,2091.2000002861023,861022.6999998093,9004,VNB,B,0
0,test,5,1.0,2-Back,,,Mon Oct 28 2024 15:46:24 GMT-0400 (Eastern Daylight Time),863113.9000000954,005_o_f_h_a.png,I,space,2804,2,1,2091.2000002861023,861022.6999998093,9004,VNB,B,0
1,test,5,1.0,2-Back,1,z,Mon Oct 28 2024 15:46:24 GMT-0400 (Eastern Daylight Time),873111.6999998093,004_o_m_d_a.png,I,z,833,3,1,1838.9000000953674,871272.7999997139,9004,VNB,B,1
2,test,5,1.0,2-Back,1,m,Mon Oct 28 2024 15:46:24 GMT-0400 (Eastern Daylight Time),875211.9000000954,011_m_f_n_a.png,I,m,1078,4,1,2090.1000003814697,873121.7999997139,9004,VNB,B,2
2,test,5,0.0,2-Back,0,m,Mon Oct 28 2024 15:46:24 GMT-0400 (Eastern Daylight Time),877945.1999998093,007_m_m_h_a.png,I,z,1648,5,1,2721.699999809265,875223.5,9004,VNB,B,3
2,test,5,0.0,2-Back,0,z,Mon Oct 28 2024 15:46:24 GMT-0400 (Eastern Daylight Time),879678.1999998093,020_y_f_n_a.png,I,m,641,6,1,1721.1999998092651,877957.0,9004,VNB,B,4
3,test,5,0.0,2-Back,1,m,Mon Oct 28 2024 15:46:24 GMT-0400 (Eastern Daylight Time),881662.0,005_o_f_d_a.png,I,m,959,7,1,1978.5,879683.5,9004,VNB,B,5
4,test,5,0.0,2-Back,1,m,Mon Oct 28 2024 15:46:24 GMT-0400 (Eastern Daylight Time),883778.6999998093,004_o_m_h_a.png,I,m,1088,8,1,2105.2999997138977,881673.4000000954,9004,VNB,B,6
4,test,5,1.0,2-Back,0,z,Mon Oct 28 2024 15:46:24 GMT-0400 (Eastern Daylight Time),886128.5999999046,011_m_f_d_a.png,I,m,1323,9,1,2341.0,883787.5999999046,9004,VNB,B,7
5,test,5,0.0,2-Back,1,m,Mon Oct 28 2024 15:46:24 GMT-0400 (Eastern Daylight Time),888262.0,016_y_m_n_a.png,I,m,1018,10,1,2119.2000002861023,886142.7999997139,9004,VNB,B,8
6,test,5,0.0,2-Back,1,m,Mon Oct 28 2024 15:46:24 GMT-0400 (Eastern Daylight Time),890228.9000000954,007_m_m_n_a.png,I,m,869,11,1,1955.7000002861023,888273.1999998093,9004,VNB,B,9
7,test,5,0.0,2-Back,1,m,Mon Oct 28 2024 15:46:24 GMT-0400 (Eastern Daylight Time),892412.1999998093,020_y_f_h_a.png,I,m,1094,12,1,2172.0,890240.1999998093,9004,VNB,B,10
7,test,5,0.0,2-Back,0,m,Mon Oct 28 2024 15:46:24 GMT-0400 (Eastern Daylight Time),895361.6999998093,016_y_m_d_a.png,I,z,1921,13,1,2939.0999999046326,892422.5999999046,9004,VNB,B,11
7,test,5,1.0,2-Back,0,z,Mon Oct 28 2024 15:46:24 GMT-0400 (Eastern Daylight Time),897128.5,011_m_f_h_a.png,I,m,748,14,1,1761.7000002861023,895366.7999997139,9004,VNB,B,12
8,test,5,0.0,2-Back,1,m,Mon Oct 28 2024 15:46:24 GMT-0400 (Eastern Daylight Time),899878.6999998093,004_o_m_n_a.png,I,m,1717,15,1,2739.9000000953674,897138.7999997139,9004,VNB,B,13
9,test,5,0.0,2-Back,1,m,Mon Oct 28 2024 15:46:24 GMT-0400 (Eastern Daylight Time),901578.5,007_m_m_d_a.png,I,m,679,16,1,1688.5,899890.0,9004,VNB,B,14
9,test,5,0.0,2-Back,0,z,Mon Oct 28 2024 15:46:24 GMT-0400 (Eastern Daylight Time),903595.2999997139,005_o_f_n_a.png,I,m,995,17,1,2006.5999999046326,901588.6999998093,9004,VNB,B,15
10,test,5,1.0,2-Back,1,m,Mon Oct 28 2024 15:46:24 GMT-0400 (Eastern Daylight Time),906245.2999997139,016_y_m_h_a.png,I,m,1552,18,1,2638.199999809265,903607.0999999046,9004,VNB,B,16
