block_c,block_dur,condition,countdown,datetime,endtime,list,multichar_response,project,response,response_time,session_number,start_end,starttime,subject_id,task,task_vers,trial
,,,,Wed Mar 19 2025 13:43:09 GMT-0500 (Central Daylight Time),,,,O,space,1418,1,,,7045,WL,C,
prac,,0,,Wed Mar 19 2025 13:43:09 GMT-0500 (Central Daylight Time),,NA,b,O,b,2343,1,,,7045,WL,C,1.0
prac,,0,,Wed Mar 19 2025 13:43:09 GMT-0500 (Central Daylight Time),,NA,bo,O,o,370,1,,,7045,WL,C,1.0
prac,,0,,Wed Mar 19 2025 13:43:09 GMT-0500 (Central Daylight Time),,NA,boo,O,o,187,1,,,7045,WL,C,1.0
prac,,0,,Wed Mar 19 2025 13:43:09 GMT-0500 (Central Daylight Time),,NA,boos,O,s,235,1,,,7045,WL,C,1.0
prac,,0,,Wed Mar 19 2025 13:43:09 GMT-0500 (Central Daylight Time),,NA,boost,O,t,242,1,,,7045,WL,C,1.0
prac,,0,,Wed Mar 19 2025 13:43:09 GMT-0500 (Central Daylight Time),,NA,boostenter,O,enter,2223,1,,,7045,WL,C,1.0
1,1.7829999923706055,learn,58217.000007629395,Wed Mar 19 2025 13:43:09 GMT-0500 (Central Daylight Time),275697.1000000015,A,t,O,t,1771,1,1782.6000000014901,273914.5,7045,WL,C,1.0
1,1.9160001277923584,learn,58083.99987220764,Wed Mar 19 2025 13:43:09 GMT-0500 (Central Daylight Time),275830.1000000015,A,to,O,o,124,1,1915.6000000014901,273914.5,7045,WL,C,1.0
1,2.2820000648498535,learn,57717.99993515015,Wed Mar 19 2025 13:43:09 GMT-0500 (Central Daylight Time),276196.700000003,A,tow,O,w,359,1,2282.2000000029802,273914.5,7045,WL,C,1.0
1,2.4820001125335693,learn,57517.99988746643,Wed Mar 19 2025 13:43:09 GMT-0500 (Central Daylight Time),276396.700000003,A,towe,O,e,185,1,2482.2000000029802,273914.5,7045,WL,C,1.0
1,2.683000087738037,learn,57316.99991226196,Wed Mar 19 2025 13:43:09 GMT-0500 (Central Daylight Time),276597.0,A,tower,O,r,185,1,2682.5,273914.5,7045,WL,C,1.0
1,3.2990000247955322,learn,56700.99997520447,Wed Mar 19 2025 13:43:09 GMT-0500 (Central Daylight Time),277213.1000000015,A,towerenter,O,enter,601,1,3298.60000000149,273914.5,7045,WL,C,1.0
1,5.29800009727478,learn,54701.99990272522,Wed Mar 19 2025 13:43:09 GMT-0500 (Central Daylight Time),279212.200000003,A,c,O,c,1992,1,1998.5,277213.700000003,7045,WL,C,2.0
1,5.46399998664856,learn,54536.00001335144,Wed Mar 19 2025 13:43:09 GMT-0500 (Central Daylight Time),279378.700000003,A,ca,O,a,145,1,2165.0,277213.700000003,7045,WL,C,2.0
1,5.730999946594238,learn,54269.00005340576,Wed Mar 19 2025 13:43:09 GMT-0500 (Central Daylight Time),279645.5,A,cam,O,m,251,1,2431.7999999970198,277213.700000003,7045,WL,C,2.0
1,6.015000104904175,learn,53984.999895095825,Wed Mar 19 2025 13:43:09 GMT-0500 (Central Daylight Time),279929.1000000015,A,camp,O,p,263,1,2715.39999999851,277213.700000003,7045,WL,C,2.0
1,6.664000034332275,learn,53335.999965667725,Wed Mar 19 2025 13:43:09 GMT-0500 (Central Daylight Time),280578.700000003,A,campenter,O,enter,628,1,3365.0,277213.700000003,7045,WL,C,2.0
1,7.248000144958496,learn,52751.999855041504,Wed Mar 19 2025 13:43:09 GMT-0500 (Central Daylight Time),281161.90000000596,A,b,O,b,571,1,582.8000000044703,280579.1000000015,7045,WL,C,3.0
1,7.480999946594238,learn,52519.00005340576,Wed Mar 19 2025 13:43:09 GMT-0500 (Central Daylight Time),281395.40000000596,A,bo,O,o,211,1,816.3000000044703,280579.1000000015,7045,WL,C,3.0
1,7.746999979019165,learn,52253.000020980835,Wed Mar 19 2025 13:43:09 GMT-0500 (Central Daylight Time),281661.6000000015,A,boy,O,y,250,1,1082.5,280579.1000000015,7045,WL,C,3.0
1,8.031000137329102,learn,51968.9998626709,Wed Mar 19 2025 13:43:09 GMT-0500 (Central Daylight Time),281945.30000000447,A,boyenter,O,enter,264,1,1366.2000000029802,280579.1000000015,7045,WL,C,3.0
1,8.496999979019165,learn,51503.000020980835,Wed Mar 19 2025 13:43:09 GMT-0500 (Central Daylight Time),282411.40000000596,A,h,O,h,445,1,465.6000000014901,281945.80000000447,7045,WL,C,4.0
1,8.647000074386597,learn,51352.9999256134,Wed Mar 19 2025 13:43:09 GMT-0500 (Central Daylight Time),282561.40000000596,A,ho,O,o,130,1,615.6000000014901,281945.80000000447,7045,WL,C,4.0
1,8.94700002670288,learn,51052.99997329712,Wed Mar 19 2025 13:43:09 GMT-0500 (Central Daylight Time),282861.200000003,A,hom,O,m,284,1,915.3999999985099,281945.80000000447,7045,WL,C,4.0
1,9.27999997138977,learn,50720.00002861023,Wed Mar 19 2025 13:43:09 GMT-0500 (Central Daylight Time),283194.200000003,A,home,O,e,320,1,1248.3999999985099,281945.80000000447,7045,WL,C,4.0
1,9.562999963760376,learn,50437.000036239624,Wed Mar 19 2025 13:43:09 GMT-0500 (Central Daylight Time),283477.6000000015,A,homeenter,O,enter,275,1,1531.7999999970198,281945.80000000447,7045,WL,C,4.0
1,10.980000019073486,learn,49019.999980926514,Wed Mar 19 2025 13:43:09 GMT-0500 (Central Daylight Time),284893.90000000596,A,s,O,s,1408,1,1416.0,283477.90000000596,7045,WL,C,5.0
1,11.095999956130981,learn,48904.00004386902,Wed Mar 19 2025 13:43:09 GMT-0500 (Central Daylight Time),285010.5,A,sh,O,h,96,1,1532.5999999940395,283477.90000000596,7045,WL,C,5.0
1,11.229000091552734,learn,48770.999908447266,Wed Mar 19 2025 13:43:09 GMT-0500 (Central Daylight Time),285143.700000003,A,sho,O,o,115,1,1665.7999999970198,283477.90000000596,7045,WL,C,5.0
1,11.42900013923645,learn,48570.99986076355,Wed Mar 19 2025 13:43:09 GMT-0500 (Central Daylight Time),285343.6000000015,A,shor,O,r,182,1,1865.6999999955297,283477.90000000596,7045,WL,C,5.0
1,11.595999956130981,learn,48404.00004386902,Wed Mar 19 2025 13:43:09 GMT-0500 (Central Daylight Time),285510.30000000447,A,shore,O,e,150,1,2032.3999999985099,283477.90000000596,7045,WL,C,5.0
1,13.246000051498413,learn,46753.99994850159,Wed Mar 19 2025 13:43:09 GMT-0500 (Central Daylight Time),287160.1000000015,A,shoreenter,O,enter,1631,1,3682.1999999955297,283477.90000000596,7045,WL,C,5.0
1,17.41100001335144,learn,42588.99998664856,Wed Mar 19 2025 13:43:09 GMT-0500 (Central Daylight Time),291325.40000000596,A,c,O,c,4148,1,4164.80000000447,287160.6000000015,7045,WL,C,6.0
1,17.544000148773193,learn,42455.99985122681,Wed Mar 19 2025 13:43:09 GMT-0500 (Central Daylight Time),291458.80000000447,A,ca,O,a,112,1,4298.20000000298,287160.6000000015,7045,WL,C,6.0
1,17.844000101089478,learn,42155.99989891052,Wed Mar 19 2025 13:43:09 GMT-0500 (Central Daylight Time),291758.700000003,A,cat,O,t,284,1,4598.10000000149,287160.6000000015,7045,WL,C,6.0
1,18.026999950408936,learn,41973.000049591064,Wed Mar 19 2025 13:43:09 GMT-0500 (Central Daylight Time),291941.80000000447,A,catt,O,t,167,1,4781.20000000298,287160.6000000015,7045,WL,C,6.0
1,18.278000116348267,learn,41721.99988365173,Wed Mar 19 2025 13:43:09 GMT-0500 (Central Daylight Time),292191.90000000596,A,cattl,O,l,232,1,5031.30000000447,287160.6000000015,7045,WL,C,6.0
1,18.41100001335144,learn,41588.99998664856,Wed Mar 19 2025 13:43:09 GMT-0500 (Central Daylight Time),292325.200000003,A,cattle,O,e,126,1,5164.60000000149,287160.6000000015,7045,WL,C,6.0
1,18.776999950408936,learn,41223.000049591064,Wed Mar 19 2025 13:43:09 GMT-0500 (Central Daylight Time),292691.80000000447,A,cattleenter,O,enter,352,1,5531.20000000298,287160.6000000015,7045,WL,C,6.0
1,24.108999967575073,learn,35891.00003242493,Wed Mar 19 2025 13:43:09 GMT-0500 (Central Daylight Time),298023.30000000447,A,h,O,h,5322,1,5331.20000000298,292692.1000000015,7045,WL,C,7.0
1,24.325999975204468,learn,35674.00002479553,Wed Mar 19 2025 13:43:09 GMT-0500 (Central Daylight Time),298239.90000000596,A,ho,O,o,197,1,5547.80000000447,292692.1000000015,7045,WL,C,7.0
1,24.575999975204468,learn,35424.00002479553,Wed Mar 19 2025 13:43:09 GMT-0500 (Central Daylight Time),298489.90000000596,A,hom,O,m,230,1,5797.80000000447,292692.1000000015,7045,WL,C,7.0
1,24.875,learn,35125.0,Wed Mar 19 2025 13:43:09 GMT-0500 (Central Daylight Time),298789.6000000015,A,home,O,e,284,1,6097.5,292692.1000000015,7045,WL,C,7.0
1,25.174999952316284,learn,34825.000047683716,Wed Mar 19 2025 13:43:09 GMT-0500 (Central Daylight Time),299089.40000000596,A,homeenter,O,enter,287,1,6397.30000000447,292692.1000000015,7045,WL,C,7.0
1,31.473000049591064,learn,28526.999950408936,Wed Mar 19 2025 13:43:09 GMT-0500 (Central Daylight Time),305387.6000000015,A,n,O,n,6290,1,6297.89999999851,299089.700000003,7045,WL,C,8.0
1,31.67300009727478,learn,28326.99990272522,Wed Mar 19 2025 13:43:09 GMT-0500 (Central Daylight Time),305587.6000000015,A,na,O,a,179,1,6497.89999999851,299089.700000003,7045,WL,C,8.0
1,31.888999938964844,learn,28111.000061035156,Wed Mar 19 2025 13:43:09 GMT-0500 (Central Daylight Time),305804.0,A,nai,O,i,202,1,6714.29999999702,299089.700000003,7045,WL,C,8.0
1,32.138999938964844,learn,27861.000061035156,Wed Mar 19 2025 13:43:09 GMT-0500 (Central Daylight Time),306053.90000000596,A,nail,O,l,233,1,6964.20000000298,299089.700000003,7045,WL,C,8.0
1,32.42300009727478,learn,27576.99990272522,Wed Mar 19 2025 13:43:09 GMT-0500 (Central Daylight Time),306337.1000000015,A,nailenter,O,enter,272,1,7247.39999999851,299089.700000003,7045,WL,C,8.0
1,34.5220000743866,learn,25477.999925613403,Wed Mar 19 2025 13:43:09 GMT-0500 (Central Daylight Time),308436.700000003,A,l,O,l,2084,1,2099.39999999851,306337.30000000447,7045,WL,C,9.0
1,34.68900012969971,learn,25310.999870300293,Wed Mar 19 2025 13:43:09 GMT-0500 (Central Daylight Time),308603.40000000596,A,le,O,e,145,1,2266.10000000149,306337.30000000447,7045,WL,C,9.0
1,34.83899998664856,learn,25161.00001335144,Wed Mar 19 2025 13:43:09 GMT-0500 (Central Daylight Time),308753.5,A,let,O,t,131,1,2416.1999999955297,306337.30000000447,7045,WL,C,9.0
1,35.0550000667572,learn,24944.999933242798,Wed Mar 19 2025 13:43:09 GMT-0500 (Central Daylight Time),308969.6000000015,A,lett,O,t,197,1,2632.2999999970198,306337.30000000447,7045,WL,C,9.0
1,35.25500011444092,learn,24744.999885559082,Wed Mar 19 2025 13:43:09 GMT-0500 (Central Daylight Time),309169.6000000015,A,lette,O,e,180,1,2832.2999999970198,306337.30000000447,7045,WL,C,9.0
1,35.33899998664856,learn,24661.00001335144,Wed Mar 19 2025 13:43:09 GMT-0500 (Central Daylight Time),309253.0,A,letter,O,r,76,1,2915.6999999955297,306337.30000000447,7045,WL,C,9.0
1,35.5550000667572,learn,24444.999933242798,Wed Mar 19 2025 13:43:09 GMT-0500 (Central Daylight Time),309469.700000003,A,letterenter,O,enter,209,1,3132.39999999851,306337.30000000447,7045,WL,C,9.0
1,47.3510000705719,learn,12648.9999294281,Wed Mar 19 2025 13:43:09 GMT-0500 (Central Daylight Time),321265.80000000447,A,s,O,s,11785,1,11795.70000000298,309470.1000000015,7045,WL,C,10.0
1,47.58500003814697,learn,12414.999961853027,Wed Mar 19 2025 13:43:09 GMT-0500 (Central Daylight Time),321499.200000003,A,su,O,u,211,1,12029.10000000149,309470.1000000015,7045,WL,C,10.0
1,48.051000118255615,learn,11948.999881744385,Wed Mar 19 2025 13:43:09 GMT-0500 (Central Daylight Time),321965.5,A,sug,O,g,451,1,12495.39999999851,309470.1000000015,7045,WL,C,10.0
1,48.20099997520447,learn,11799.000024795532,Wed Mar 19 2025 13:43:09 GMT-0500 (Central Daylight Time),322115.700000003,A,suga,O,a,145,1,12645.60000000149,309470.1000000015,7045,WL,C,10.0
1,48.75099992752075,learn,11249.000072479248,Wed Mar 19 2025 13:43:09 GMT-0500 (Central Daylight Time),322665.40000000596,A,sugar,O,r,539,1,13195.30000000447,309470.1000000015,7045,WL,C,10.0
1,49.03400015830994,learn,10965.999841690063,Wed Mar 19 2025 13:43:09 GMT-0500 (Central Daylight Time),322948.40000000596,A,sugarenter,O,enter,277,1,13478.30000000447,309470.1000000015,7045,WL,C,10.0
1,60.013999938964844,learn,-13.99993896484375,Wed Mar 19 2025 13:43:09 GMT-0500 (Central Daylight Time),333928.80000000447,A,None,O,None,10976,1,10980.0,322948.80000000447,7045,WL,C,11.0
2,1.0499999523162842,learn,58950.000047683716,Wed Mar 19 2025 13:43:09 GMT-0500 (Central Daylight Time),412953.90000000596,A,t,O,t,1031,1,1049.7000000029802,411904.200000003,7045,WL,C,1.0
2,1.4459998607635498,learn,58554.00013923645,Wed Mar 19 2025 13:43:09 GMT-0500 (Central Daylight Time),413349.700000003,A,to,O,o,390,1,1445.5,411904.200000003,7045,WL,C,1.0
2,1.616999864578247,learn,58383.00013542175,Wed Mar 19 2025 13:43:09 GMT-0500 (Central Daylight Time),413520.40000000596,A,tow,O,w,160,1,1616.2000000029802,411904.200000003,7045,WL,C,1.0
2,1.8999998569488525,learn,58100.00014305115,Wed Mar 19 2025 13:43:09 GMT-0500 (Central Daylight Time),413803.700000003,A,towe,O,e,270,1,1899.5,411904.200000003,7045,WL,C,1.0
2,2.182999849319458,learn,57817.00015068054,Wed Mar 19 2025 13:43:09 GMT-0500 (Central Daylight Time),414086.80000000447,A,tower,O,r,266,1,2182.60000000149,411904.200000003,7045,WL,C,1.0
2,2.5829999446868896,learn,57417.00005531311,Wed Mar 19 2025 13:43:09 GMT-0500 (Central Daylight Time),414486.90000000596,A,towerenter,O,enter,391,1,2582.7000000029802,411904.200000003,7045,WL,C,1.0
2,2.9830000400543213,learn,57016.99995994568,Wed Mar 19 2025 13:43:09 GMT-0500 (Central Daylight Time),414886.6000000015,A,w,O,w,391,1,399.29999999701977,414487.30000000447,7045,WL,C,2.0
2,3.25,learn,56750.0,Wed Mar 19 2025 13:43:09 GMT-0500 (Central Daylight Time),415153.40000000596,A,wh,O,h,247,1,666.1000000014901,414487.30000000447,7045,WL,C,2.0
2,3.365999937057495,learn,56634.000062942505,Wed Mar 19 2025 13:43:09 GMT-0500 (Central Daylight Time),415269.80000000447,A,whe,O,e,101,1,782.5,414487.30000000447,7045,WL,C,2.0
2,3.5160000324249268,learn,56483.99996757507,Wed Mar 19 2025 13:43:09 GMT-0500 (Central Daylight Time),415419.6000000015,A,whea,O,a,135,1,932.2999999970198,414487.30000000447,7045,WL,C,2.0
2,3.7990000247955322,learn,56200.99997520447,Wed Mar 19 2025 13:43:09 GMT-0500 (Central Daylight Time),415702.80000000447,A,wheat,O,t,266,1,1215.5,414487.30000000447,7045,WL,C,2.0
2,5.181999921798706,learn,54818.000078201294,Wed Mar 19 2025 13:43:09 GMT-0500 (Central Daylight Time),417086.0,A,wheatenter,O,enter,1376,1,2598.6999999955297,414487.30000000447,7045,WL,C,2.0
2,7.830999851226807,learn,52169.00014877319,Wed Mar 19 2025 13:43:09 GMT-0500 (Central Daylight Time),419735.40000000596,A,s,O,s,2632,1,2649.10000000149,417086.30000000447,7045,WL,C,3.0
2,8.030999898910522,learn,51969.00010108948,Wed Mar 19 2025 13:43:09 GMT-0500 (Central Daylight Time),419935.0,A,su,O,u,191,1,2848.6999999955297,417086.30000000447,7045,WL,C,3.0
2,8.414000034332275,learn,51585.999965667725,Wed Mar 19 2025 13:43:09 GMT-0500 (Central Daylight Time),420318.200000003,A,sug,O,g,367,1,3231.89999999851,417086.30000000447,7045,WL,C,3.0
2,8.730999946594238,learn,51269.00005340576,Wed Mar 19 2025 13:43:09 GMT-0500 (Central Daylight Time),420635.0,A,suga,O,a,304,1,3548.6999999955297,417086.30000000447,7045,WL,C,3.0
2,9.02999997138977,learn,50970.00002861023,Wed Mar 19 2025 13:43:09 GMT-0500 (Central Daylight Time),420934.5,A,sugar,O,r,291,1,3848.1999999955297,417086.30000000447,7045,WL,C,3.0
2,9.763999938964844,learn,50236.000061035156,Wed Mar 19 2025 13:43:09 GMT-0500 (Central Daylight Time),421667.90000000596,A,sugarenter,O,enter,713,1,4581.60000000149,417086.30000000447,7045,WL,C,3.0
2,10.480000019073486,learn,49519.999980926514,Wed Mar 19 2025 13:43:09 GMT-0500 (Central Daylight Time),422384.30000000447,A,b,O,b,699,1,716.0,421668.30000000447,7045,WL,C,4.0
2,10.61299991607666,learn,49387.00008392334,Wed Mar 19 2025 13:43:09 GMT-0500 (Central Daylight Time),422517.40000000596,A,bo,O,o,126,1,849.1000000014901,421668.30000000447,7045,WL,C,4.0
2,10.912999868392944,learn,49087.000131607056,Wed Mar 19 2025 13:43:09 GMT-0500 (Central Daylight Time),422817.40000000596,A,boy,O,y,288,1,1149.1000000014901,421668.30000000447,7045,WL,C,4.0
2,12.02999997138977,learn,47970.00002861023,Wed Mar 19 2025 13:43:09 GMT-0500 (Central Daylight Time),423934.0,A,boyenter,O,enter,1100,1,2265.6999999955297,421668.30000000447,7045,WL,C,4.0
2,12.529000043869019,learn,47470.99995613098,Wed Mar 19 2025 13:43:09 GMT-0500 (Central Daylight Time),424433.6000000015,A,h,O,h,480,1,499.19999999552965,423934.40000000596,7045,WL,C,5.0
2,12.678999900817871,learn,47321.00009918213,Wed Mar 19 2025 13:43:09 GMT-0500 (Central Daylight Time),424583.80000000447,A,ho,O,o,140,1,649.3999999985099,423934.40000000596,7045,WL,C,5.0
2,12.961999893188477,learn,47038.00010681152,Wed Mar 19 2025 13:43:09 GMT-0500 (Central Daylight Time),424866.700000003,A,hom,O,m,262,1,932.2999999970198,423934.40000000596,7045,WL,C,5.0
2,13.19599986076355,learn,46804.00013923645,Wed Mar 19 2025 13:43:09 GMT-0500 (Central Daylight Time),425100.1000000015,A,home,O,e,219,1,1165.6999999955297,423934.40000000596,7045,WL,C,5.0
2,15.312000036239624,learn,44687.999963760376,Wed Mar 19 2025 13:43:09 GMT-0500 (Central Daylight Time),427215.90000000596,A,homeenter,O,enter,2098,1,3281.5,423934.40000000596,7045,WL,C,5.0
2,15.744999885559082,learn,44255.00011444092,Wed Mar 19 2025 13:43:09 GMT-0500 (Central Daylight Time),427649.1000000015,A,c,O,c,422,1,433.0,427216.1000000015,7045,WL,C,6.0
2,15.861999988555908,learn,44138.00001144409,Wed Mar 19 2025 13:43:09 GMT-0500 (Central Daylight Time),427765.80000000447,A,ca,O,a,101,1,549.7000000029802,427216.1000000015,7045,WL,C,6.0
2,16.361000061035156,learn,43638.999938964844,Wed Mar 19 2025 13:43:09 GMT-0500 (Central Daylight Time),428265.80000000447,A,cat,O,t,480,1,1049.7000000029802,427216.1000000015,7045,WL,C,6.0
2,16.527999877929688,learn,43472.00012207031,Wed Mar 19 2025 13:43:09 GMT-0500 (Central Daylight Time),428432.30000000447,A,catt,O,t,157,1,1216.2000000029802,427216.1000000015,7045,WL,C,6.0
2,16.76099991798401,learn,43239.00008201599,Wed Mar 19 2025 13:43:09 GMT-0500 (Central Daylight Time),428665.5,A,cattl,O,l,214,1,1449.3999999985099,427216.1000000015,7045,WL,C,6.0
2,16.861000061035156,learn,43138.999938964844,Wed Mar 19 2025 13:43:09 GMT-0500 (Central Daylight Time),428765.6000000015,A,cattle,O,e,84,1,1549.5,427216.1000000015,7045,WL,C,6.0
2,17.74399995803833,learn,42256.00004196167,Wed Mar 19 2025 13:43:09 GMT-0500 (Central Daylight Time),429648.40000000596,A,cattleenter,O,enter,872,1,2432.3000000044703,427216.1000000015,7045,WL,C,6.0
2,21.359999895095825,learn,38640.000104904175,Wed Mar 19 2025 13:43:09 GMT-0500 (Central Daylight Time),433264.700000003,A,s,O,s,3598,1,3616.0,429648.700000003,7045,WL,C,7.0
2,21.526999950408936,learn,38473.000049591064,Wed Mar 19 2025 13:43:09 GMT-0500 (Central Daylight Time),433430.90000000596,A,sh,O,h,149,1,3782.2000000029802,429648.700000003,7045,WL,C,7.0
2,21.64299988746643,learn,38357.00011253357,Wed Mar 19 2025 13:43:09 GMT-0500 (Central Daylight Time),433547.80000000447,A,sho,O,o,103,1,3899.10000000149,429648.700000003,7045,WL,C,7.0
2,21.80900001525879,learn,38190.99998474121,Wed Mar 19 2025 13:43:09 GMT-0500 (Central Daylight Time),433713.80000000447,A,shor,O,r,146,1,4065.10000000149,429648.700000003,7045,WL,C,7.0
2,21.89299988746643,learn,38107.00011253357,Wed Mar 19 2025 13:43:09 GMT-0500 (Central Daylight Time),433797.40000000596,A,shore,O,e,76,1,4148.70000000298,429648.700000003,7045,WL,C,7.0
2,22.2260000705719,learn,37773.9999294281,Wed Mar 19 2025 13:43:09 GMT-0500 (Central Daylight Time),434130.6000000015,A,shoreenter,O,enter,312,1,4481.89999999851,429648.700000003,7045,WL,C,7.0
2,22.743000030517578,learn,37256.99996948242,Wed Mar 19 2025 13:43:09 GMT-0500 (Central Daylight Time),434647.200000003,A,n,O,n,499,1,516.3999999985099,434130.80000000447,7045,WL,C,8.0
2,22.875999927520752,learn,37124.00007247925,Wed Mar 19 2025 13:43:09 GMT-0500 (Central Daylight Time),434780.200000003,A,na,O,a,127,1,649.3999999985099,434130.80000000447,7045,WL,C,8.0
2,23.092999935150146,learn,36907.00006484985,Wed Mar 19 2025 13:43:09 GMT-0500 (Central Daylight Time),434997.200000003,A,nai,O,i,210,1,866.3999999985099,434130.80000000447,7045,WL,C,8.0
2,23.30900001525879,learn,36690.99998474121,Wed Mar 19 2025 13:43:09 GMT-0500 (Central Daylight Time),435213.80000000447,A,nail,O,l,210,1,1083.0,434130.80000000447,7045,WL,C,8.0
2,23.776000022888184,learn,36223.99997711182,Wed Mar 19 2025 13:43:09 GMT-0500 (Central Daylight Time),435680.1000000015,A,nailenter,O,enter,456,1,1549.2999999970198,434130.80000000447,7045,WL,C,8.0
2,24.592000007629395,learn,35407.999992370605,Wed Mar 19 2025 13:43:09 GMT-0500 (Central Daylight Time),436496.30000000447,A,d,O,d,797,1,816.0,435680.30000000447,7045,WL,C,9.0
2,24.83999991416931,learn,35160.00008583069,Wed Mar 19 2025 13:43:09 GMT-0500 (Central Daylight Time),436744.200000003,A,do,O,o,243,1,1063.8999999985099,435680.30000000447,7045,WL,C,9.0
2,25.39199995994568,learn,34608.00004005432,Wed Mar 19 2025 13:43:09 GMT-0500 (Central Daylight Time),437296.1000000015,A,doc,O,c,533,1,1615.7999999970198,435680.30000000447,7045,WL,C,9.0
2,25.658999919891357,learn,34341.00008010864,Wed Mar 19 2025 13:43:09 GMT-0500 (Central Daylight Time),437563.40000000596,A,doct,O,t,246,1,1883.1000000014901,435680.30000000447,7045,WL,C,9.0
2,25.774999856948853,learn,34225.00014305115,Wed Mar 19 2025 13:43:09 GMT-0500 (Central Daylight Time),437679.30000000447,A,docto,O,o,98,1,1999.0,435680.30000000447,7045,WL,C,9.0
2,25.991999864578247,learn,34008.00013542175,Wed Mar 19 2025 13:43:09 GMT-0500 (Central Daylight Time),437895.90000000596,A,doctor,O,r,198,1,2215.60000000149,435680.30000000447,7045,WL,C,9.0
2,26.191999912261963,learn,33808.00008773804,Wed Mar 19 2025 13:43:09 GMT-0500 (Central Daylight Time),438096.1000000015,A,doctorenter,O,enter,182,1,2415.7999999970198,435680.30000000447,7045,WL,C,9.0
2,33.75600004196167,learn,26243.99995803833,Wed Mar 19 2025 13:43:09 GMT-0500 (Central Daylight Time),445660.5,A,c,O,c,7550,1,7563.89999999851,438096.6000000015,7045,WL,C,10.0
2,33.83899998664856,learn,26161.00001335144,Wed Mar 19 2025 13:43:09 GMT-0500 (Central Daylight Time),445743.700000003,A,ca,O,a,73,1,7647.10000000149,438096.6000000015,7045,WL,C,10.0
2,34.056999921798706,learn,25943.000078201294,Wed Mar 19 2025 13:43:09 GMT-0500 (Central Daylight Time),445961.5,A,cam,O,m,199,1,7864.89999999851,438096.6000000015,7045,WL,C,10.0
2,34.371999979019165,learn,25628.000020980835,Wed Mar 19 2025 13:43:09 GMT-0500 (Central Daylight Time),446276.6000000015,A,camp,O,p,308,1,8180.0,438096.6000000015,7045,WL,C,10.0
2,34.8050000667572,learn,25194.999933242798,Wed Mar 19 2025 13:43:09 GMT-0500 (Central Daylight Time),446709.80000000447,A,campenter,O,enter,426,1,8613.20000000298,438096.6000000015,7045,WL,C,10.0
2,38.454999923706055,learn,21545.000076293945,Wed Mar 19 2025 13:43:09 GMT-0500 (Central Daylight Time),450359.200000003,A,f,O,f,3632,1,3649.2000000029802,446710.0,7045,WL,C,11.0
2,38.57099986076355,learn,21429.00013923645,Wed Mar 19 2025 13:43:09 GMT-0500 (Central Daylight Time),450475.700000003,A,fl,O,l,111,1,3765.7000000029802,446710.0,7045,WL,C,11.0
2,38.787999868392944,learn,21212.000131607056,Wed Mar 19 2025 13:43:09 GMT-0500 (Central Daylight Time),450692.1000000015,A,fla,O,a,210,1,3982.10000000149,446710.0,7045,WL,C,11.0
2,39.287999868392944,learn,20712.000131607056,Wed Mar 19 2025 13:43:09 GMT-0500 (Central Daylight Time),451192.0,A,flag,O,g,482,1,4482.0,446710.0,7045,WL,C,11.0
2,39.55399990081787,learn,20446.00009918213,Wed Mar 19 2025 13:43:09 GMT-0500 (Central Daylight Time),451458.6000000015,A,flagenter,O,enter,246,1,4748.60000000149,446710.0,7045,WL,C,11.0
2,54.06599998474121,learn,5934.000015258789,Wed Mar 19 2025 13:43:09 GMT-0500 (Central Daylight Time),465970.700000003,A,h,O,h,14492,1,14511.79999999702,451458.90000000596,7045,WL,C,12.0
2,54.23300004005432,learn,5766.999959945679,Wed Mar 19 2025 13:43:09 GMT-0500 (Central Daylight Time),466137.1000000015,A,ho,O,o,147,1,14678.19999999553,451458.90000000596,7045,WL,C,12.0
2,54.54900002479553,learn,5450.999975204468,Wed Mar 19 2025 13:43:09 GMT-0500 (Central Daylight Time),466453.6000000015,A,hom,O,m,308,1,14994.69999999553,451458.90000000596,7045,WL,C,12.0
2,55.06599998474121,learn,4934.000015258789,Wed Mar 19 2025 13:43:09 GMT-0500 (Central Daylight Time),466970.5,A,home,O,e,504,1,15511.59999999404,451458.90000000596,7045,WL,C,12.0
2,55.29900002479553,learn,4700.999975204468,Wed Mar 19 2025 13:43:09 GMT-0500 (Central Daylight Time),467203.5,A,homeenter,O,enter,220,1,15744.59999999404,451458.90000000596,7045,WL,C,12.0
2,60.014999866485596,learn,-14.999866485595703,Wed Mar 19 2025 13:43:09 GMT-0500 (Central Daylight Time),471918.90000000596,A,None,O,None,4711,1,4715.10000000149,467203.80000000447,7045,WL,C,13.0
3,1.0499999523162842,learn,58950.000047683716,Wed Mar 19 2025 13:43:09 GMT-0500 (Central Daylight Time),540580.8000000045,A,t,O,t,1036,1,1049.8999999985099,539530.900000006,7045,WL,C,1.0
3,1.2169997692108154,learn,58783.000230789185,Wed Mar 19 2025 13:43:09 GMT-0500 (Central Daylight Time),540747.5,A,to,O,o,154,1,1216.5999999940395,539530.900000006,7045,WL,C,1.0
3,1.6329998970031738,learn,58367.000102996826,Wed Mar 19 2025 13:43:09 GMT-0500 (Central Daylight Time),541163.900000006,A,tow,O,w,411,1,1633.0,539530.900000006,7045,WL,C,1.0
3,1.7659997940063477,learn,58234.00020599365,Wed Mar 19 2025 13:43:09 GMT-0500 (Central Daylight Time),541296.8000000045,A,towe,O,e,113,1,1765.8999999985099,539530.900000006,7045,WL,C,1.0
3,1.9169998168945312,learn,58083.00018310547,Wed Mar 19 2025 13:43:09 GMT-0500 (Central Daylight Time),541447.200000003,A,tower,O,r,134,1,1916.2999999970198,539530.900000006,7045,WL,C,1.0
3,2.25,learn,57750.0,Wed Mar 19 2025 13:43:09 GMT-0500 (Central Daylight Time),541780.200000003,A,towerenter,O,enter,319,1,2249.2999999970198,539530.900000006,7045,WL,C,1.0
3,6.097999811172485,learn,53902.000188827515,Wed Mar 19 2025 13:43:09 GMT-0500 (Central Daylight Time),545629.0,A,q,O,q,3834,1,3848.5,541780.5,7045,WL,C,2.0
3,6.398999929428101,learn,53601.0000705719,Wed Mar 19 2025 13:43:09 GMT-0500 (Central Daylight Time),545929.1000000015,A,qu,O,u,288,1,4148.60000000149,541780.5,7045,WL,C,2.0
3,6.614999771118164,learn,53385.000228881836,Wed Mar 19 2025 13:43:09 GMT-0500 (Central Daylight Time),546145.5,A,que,O,e,205,1,4365.0,541780.5,7045,WL,C,2.0
3,7.197999954223633,learn,52802.00004577637,Wed Mar 19 2025 13:43:09 GMT-0500 (Central Daylight Time),546728.700000003,A,quee,O,e,573,1,4948.20000000298,541780.5,7045,WL,C,2.0
3,7.414999961853027,learn,52585.00003814697,Wed Mar 19 2025 13:43:09 GMT-0500 (Central Daylight Time),546945.1000000015,A,queen,O,n,198,1,5164.60000000149,541780.5,7045,WL,C,2.0
3,7.680999994277954,learn,52319.000005722046,Wed Mar 19 2025 13:43:09 GMT-0500 (Central Daylight Time),547211.8000000045,A,queenenter,O,enter,253,1,5431.30000000447,541780.5,7045,WL,C,2.0
3,8.080999851226807,learn,51919.00014877319,Wed Mar 19 2025 13:43:09 GMT-0500 (Central Daylight Time),547611.700000003,A,w,O,w,386,1,399.70000000298023,547212.0,7045,WL,C,3.0
3,8.31499981880188,learn,51685.00018119812,Wed Mar 19 2025 13:43:09 GMT-0500 (Central Daylight Time),547845.3000000045,A,wh,O,h,226,1,633.3000000044703,547212.0,7045,WL,C,3.0
3,8.497999906539917,learn,51502.00009346008,Wed Mar 19 2025 13:43:09 GMT-0500 (Central Daylight Time),548028.400000006,A,whe,O,e,170,1,816.4000000059605,547212.0,7045,WL,C,3.0
3,8.63099980354309,learn,51369.00019645691,Wed Mar 19 2025 13:43:09 GMT-0500 (Central Daylight Time),548161.700000003,A,whea,O,a,122,1,949.7000000029802,547212.0,7045,WL,C,3.0
3,8.88099980354309,learn,51119.00019645691,Wed Mar 19 2025 13:43:09 GMT-0500 (Central Daylight Time),548411.5,A,wheat,O,t,244,1,1199.5,547212.0,7045,WL,C,3.0
3,9.280999898910522,learn,50719.00010108948,Wed Mar 19 2025 13:43:09 GMT-0500 (Central Daylight Time),548811.3000000045,A,wheatenter,O,enter,387,1,1599.3000000044703,547212.0,7045,WL,C,3.0
3,13.11299991607666,learn,46887.00008392334,Wed Mar 19 2025 13:43:09 GMT-0500 (Central Daylight Time),552643.700000003,A,f,O,f,3820,1,3832.10000000149,548811.6000000015,7045,WL,C,4.0
3,13.312999963760376,learn,46687.000036239624,Wed Mar 19 2025 13:43:09 GMT-0500 (Central Daylight Time),552843.400000006,A,fa,O,a,178,1,4031.8000000044703,548811.6000000015,7045,WL,C,4.0
3,13.512999773025513,learn,46487.00022697449,Wed Mar 19 2025 13:43:09 GMT-0500 (Central Daylight Time),553043.700000003,A,fam,O,m,194,1,4232.10000000149,548811.6000000015,7045,WL,C,4.0
3,14.628999948501587,learn,45371.00005149841,Wed Mar 19 2025 13:43:09 GMT-0500 (Central Daylight Time),554159.8000000045,A,fa,O,backspace,1107,1,5348.20000000298,548811.6000000015,7045,WL,C,4.0
3,15.077999830245972,learn,44922.00016975403,Wed Mar 19 2025 13:43:09 GMT-0500 (Central Daylight Time),554608.700000003,A,f,O,backspace,443,1,5797.10000000149,548811.6000000015,7045,WL,C,4.0
3,15.280999898910522,learn,44719.00010108948,Wed Mar 19 2025 13:43:09 GMT-0500 (Central Daylight Time),554811.3000000045,A,,O,backspace,197,1,5999.70000000298,548811.6000000015,7045,WL,C,4.0
3,16.67899990081787,learn,43321.00009918213,Wed Mar 19 2025 13:43:09 GMT-0500 (Central Daylight Time),556209.400000006,A,c,O,c,1376,1,7397.80000000447,548811.6000000015,7045,WL,C,4.0
3,16.77899980545044,learn,43221.00019454956,Wed Mar 19 2025 13:43:09 GMT-0500 (Central Daylight Time),556309.3000000045,A,ca,O,a,93,1,7497.70000000298,548811.6000000015,7045,WL,C,4.0
3,16.977999925613403,learn,43022.0000743866,Wed Mar 19 2025 13:43:09 GMT-0500 (Central Daylight Time),556508.8000000045,A,cam,O,m,185,1,7697.20000000298,548811.6000000015,7045,WL,C,4.0
3,17.194999933242798,learn,42805.0000667572,Wed Mar 19 2025 13:43:09 GMT-0500 (Central Daylight Time),556725.400000006,A,camp,O,p,201,1,7913.80000000447,548811.6000000015,7045,WL,C,4.0
3,17.544999837875366,learn,42455.000162124634,Wed Mar 19 2025 13:43:09 GMT-0500 (Central Daylight Time),557075.200000003,A,campenter,O,enter,329,1,8263.60000000149,548811.6000000015,7045,WL,C,4.0
3,18.544999837875366,learn,41455.000162124634,Wed Mar 19 2025 13:43:09 GMT-0500 (Central Daylight Time),558075.1000000015,A,f,O,f,980,1,999.6000000014901,557075.5,7045,WL,C,5.0
3,18.66099977493286,learn,41339.00022506714,Wed Mar 19 2025 13:43:09 GMT-0500 (Central Daylight Time),558191.8000000045,A,fl,O,l,107,1,1116.3000000044703,557075.5,7045,WL,C,5.0
3,18.82799983024597,learn,41172.00016975403,Wed Mar 19 2025 13:43:09 GMT-0500 (Central Daylight Time),558358.700000003,A,fla,O,a,150,1,1283.2000000029802,557075.5,7045,WL,C,5.0
3,19.24399995803833,learn,40756.00004196167,Wed Mar 19 2025 13:43:09 GMT-0500 (Central Daylight Time),558774.700000003,A,flag,O,g,407,1,1699.2000000029802,557075.5,7045,WL,C,5.0
3,20.16099977493286,learn,39839.00022506714,Wed Mar 19 2025 13:43:09 GMT-0500 (Central Daylight Time),559691.1000000015,A,flagenter,O,enter,895,1,2615.60000000149,557075.5,7045,WL,C,5.0
3,20.944000005722046,learn,39055.999994277954,Wed Mar 19 2025 13:43:09 GMT-0500 (Central Daylight Time),560474.3000000045,A,b,O,b,763,1,782.8999999985099,559691.400000006,7045,WL,C,6.0
3,21.0939998626709,learn,38906.0001373291,Wed Mar 19 2025 13:43:09 GMT-0500 (Central Daylight Time),560624.200000003,A,bo,O,o,141,1,932.7999999970198,559691.400000006,7045,WL,C,6.0
3,21.359999895095825,learn,38640.000104904175,Wed Mar 19 2025 13:43:09 GMT-0500 (Central Daylight Time),560890.8000000045,A,bot,O,t,254,1,1199.3999999985099,559691.400000006,7045,WL,C,6.0
3,21.842999935150146,learn,38157.00006484985,Wed Mar 19 2025 13:43:09 GMT-0500 (Central Daylight Time),561373.900000006,A,bo,O,backspace,475,1,1682.5,559691.400000006,7045,WL,C,6.0
3,22.05999994277954,learn,37940.00005722046,Wed Mar 19 2025 13:43:09 GMT-0500 (Central Daylight Time),561590.8000000045,A,bod,O,d,200,1,1899.3999999985099,559691.400000006,7045,WL,C,6.0
3,22.376999855041504,learn,37623.000144958496,Wed Mar 19 2025 13:43:09 GMT-0500 (Central Daylight Time),561907.400000006,A,body,O,y,312,1,2216.0,559691.400000006,7045,WL,C,6.0
3,22.675999879837036,learn,37324.000120162964,Wed Mar 19 2025 13:43:09 GMT-0500 (Central Daylight Time),562207.1000000015,A,bodyenter,O,enter,290,1,2515.6999999955297,559691.400000006,7045,WL,C,6.0
3,23.192999839782715,learn,36807.000160217285,Wed Mar 19 2025 13:43:09 GMT-0500 (Central Daylight Time),562723.700000003,A,c,O,c,504,1,516.3999999985099,562207.3000000045,7045,WL,C,7.0
3,23.30999994277954,learn,36690.00005722046,Wed Mar 19 2025 13:43:09 GMT-0500 (Central Daylight Time),562840.200000003,A,ca,O,a,106,1,632.8999999985099,562207.3000000045,7045,WL,C,7.0
3,23.592999935150146,learn,36407.00006484985,Wed Mar 19 2025 13:43:09 GMT-0500 (Central Daylight Time),563123.8000000045,A,cat,O,t,278,1,916.5,562207.3000000045,7045,WL,C,7.0
3,23.775999784469604,learn,36224.000215530396,Wed Mar 19 2025 13:43:09 GMT-0500 (Central Daylight Time),563307.0,A,catt,O,t,170,1,1099.6999999955297,562207.3000000045,7045,WL,C,7.0
3,23.992999792099,learn,36007.000207901,Wed Mar 19 2025 13:43:09 GMT-0500 (Central Daylight Time),563523.400000006,A,cattl,O,l,195,1,1316.1000000014901,562207.3000000045,7045,WL,C,7.0
3,24.109999895095825,learn,35890.000104904175,Wed Mar 19 2025 13:43:09 GMT-0500 (Central Daylight Time),563640.3000000045,A,cattle,O,e,99,1,1433.0,562207.3000000045,7045,WL,C,7.0
3,24.325999975204468,learn,35674.00002479553,Wed Mar 19 2025 13:43:09 GMT-0500 (Central Daylight Time),563856.8000000045,A,cattleenter,O,enter,206,1,1649.5,562207.3000000045,7045,WL,C,7.0
3,25.275999784469604,learn,34724.000215530396,Wed Mar 19 2025 13:43:09 GMT-0500 (Central Daylight Time),564806.3000000045,A,n,O,n,942,1,949.2000000029802,563857.1000000015,7045,WL,C,8.0
3,25.45899987220764,learn,34541.00012779236,Wed Mar 19 2025 13:43:09 GMT-0500 (Central Daylight Time),564989.400000006,A,na,O,a,167,1,1132.3000000044703,563857.1000000015,7045,WL,C,8.0
3,25.70899987220764,learn,34291.00012779236,Wed Mar 19 2025 13:43:09 GMT-0500 (Central Daylight Time),565239.400000006,A,nai,O,i,233,1,1382.3000000044703,563857.1000000015,7045,WL,C,8.0
3,25.97599983215332,learn,34024.00016784668,Wed Mar 19 2025 13:43:09 GMT-0500 (Central Daylight Time),565506.3000000045,A,nail,O,l,246,1,1649.2000000029802,563857.1000000015,7045,WL,C,8.0
3,26.691999912261963,learn,33308.00008773804,Wed Mar 19 2025 13:43:09 GMT-0500 (Central Daylight Time),566222.8000000045,A,nailenter,O,enter,708,1,2365.7000000029802,563857.1000000015,7045,WL,C,8.0
3,27.72499990463257,learn,32275.00009536743,Wed Mar 19 2025 13:43:09 GMT-0500 (Central Daylight Time),567255.6000000015,A,c,O,c,1015,1,1032.3999999985099,566223.200000003,7045,WL,C,9.0
3,27.907999992370605,learn,32092.000007629395,Wed Mar 19 2025 13:43:09 GMT-0500 (Central Daylight Time),567439.0,A,co,O,o,165,1,1215.7999999970198,566223.200000003,7045,WL,C,9.0
3,28.107999801635742,learn,31892.000198364258,Wed Mar 19 2025 13:43:09 GMT-0500 (Central Daylight Time),567638.700000003,A,cor,O,r,191,1,1415.5,566223.200000003,7045,WL,C,9.0
3,28.39199995994568,learn,31608.00004005432,Wed Mar 19 2025 13:43:09 GMT-0500 (Central Daylight Time),567922.3000000045,A,corn,O,n,272,1,1699.1000000014901,566223.200000003,7045,WL,C,9.0
3,28.924999952316284,learn,31075.000047683716,Wed Mar 19 2025 13:43:09 GMT-0500 (Central Daylight Time),568455.6000000015,A,cornenter,O,enter,517,1,2232.39999999851,566223.200000003,7045,WL,C,9.0
3,29.490999937057495,learn,30509.000062942505,Wed Mar 19 2025 13:43:09 GMT-0500 (Central Daylight Time),569021.700000003,A,b,O,b,551,1,565.7999999970198,568455.900000006,7045,WL,C,10.0
3,29.625,learn,30375.0,Wed Mar 19 2025 13:43:09 GMT-0500 (Central Daylight Time),569155.200000003,A,bo,O,o,120,1,699.2999999970198,568455.900000006,7045,WL,C,10.0
3,29.94099998474121,learn,30059.00001525879,Wed Mar 19 2025 13:43:09 GMT-0500 (Central Daylight Time),569471.5,A,bod,O,d,299,1,1015.5999999940395,568455.900000006,7045,WL,C,10.0
3,30.140999794006348,learn,29859.000205993652,Wed Mar 19 2025 13:43:09 GMT-0500 (Central Daylight Time),569671.6000000015,A,body,O,y,183,1,1215.6999999955297,568455.900000006,7045,WL,C,10.0
3,30.423999786376953,learn,29576.000213623047,Wed Mar 19 2025 13:43:09 GMT-0500 (Central Daylight Time),569954.700000003,A,bodyenter,O,enter,263,1,1498.7999999970198,568455.900000006,7045,WL,C,10.0
3,38.17199993133545,learn,21828.00006866455,Wed Mar 19 2025 13:43:09 GMT-0500 (Central Daylight Time),577702.3000000045,A,c,O,c,7739,1,7747.39999999851,569954.900000006,7045,WL,C,11.0
3,38.287999868392944,learn,21712.000131607056,Wed Mar 19 2025 13:43:09 GMT-0500 (Central Daylight Time),577818.8000000045,A,ca,O,a,96,1,7863.89999999851,569954.900000006,7045,WL,C,11.0
3,38.42199993133545,learn,21578.00006866455,Wed Mar 19 2025 13:43:09 GMT-0500 (Central Daylight Time),577952.200000003,A,cam,O,m,116,1,7997.29999999702,569954.900000006,7045,WL,C,11.0
3,38.781999826431274,learn,21218.000173568726,Wed Mar 19 2025 13:43:09 GMT-0500 (Central Daylight Time),578312.1000000015,A,camp,O,p,355,1,8357.19999999553,569954.900000006,7045,WL,C,11.0
3,39.02199983596802,learn,20978.000164031982,Wed Mar 19 2025 13:43:09 GMT-0500 (Central Daylight Time),578552.3000000045,A,campenter,O,enter,222,1,8597.39999999851,569954.900000006,7045,WL,C,11.0
3,42.07099986076355,learn,17929.00013923645,Wed Mar 19 2025 13:43:09 GMT-0500 (Central Daylight Time),581601.400000006,A,b,O,b,3038,1,3048.8000000044703,578552.6000000015,7045,WL,C,12.0
3,42.270999908447266,learn,17729.000091552734,Wed Mar 19 2025 13:43:09 GMT-0500 (Central Daylight Time),581801.200000003,A,bo,O,o,182,1,3248.60000000149,578552.6000000015,7045,WL,C,12.0
3,42.48699998855591,learn,17513.00001144409,Wed Mar 19 2025 13:43:09 GMT-0500 (Central Daylight Time),582017.5,A,bod,O,d,204,1,3464.89999999851,578552.6000000015,7045,WL,C,12.0
3,42.65399980545044,learn,17346.00019454956,Wed Mar 19 2025 13:43:09 GMT-0500 (Central Daylight Time),582184.200000003,A,body,O,y,148,1,3631.60000000149,578552.6000000015,7045,WL,C,12.0
3,42.919999837875366,learn,17080.000162124634,Wed Mar 19 2025 13:43:09 GMT-0500 (Central Daylight Time),582450.8000000045,A,bodyenter,O,enter,254,1,3898.2000000029802,578552.6000000015,7045,WL,C,12.0
3,44.98599982261658,learn,15014.000177383423,Wed Mar 19 2025 13:43:09 GMT-0500 (Central Daylight Time),584516.8000000045,A,l,O,l,2059,1,2065.60000000149,582451.200000003,7045,WL,C,13.0
3,45.20299983024597,learn,14797.000169754028,Wed Mar 19 2025 13:43:09 GMT-0500 (Central Daylight Time),584733.6000000015,A,le,O,e,202,1,2282.39999999851,582451.200000003,7045,WL,C,13.0
3,45.335999965667725,learn,14664.000034332275,Wed Mar 19 2025 13:43:09 GMT-0500 (Central Daylight Time),584866.700000003,A,let,O,t,121,1,2415.5,582451.200000003,7045,WL,C,13.0
3,45.53599977493286,learn,14464.000225067139,Wed Mar 19 2025 13:43:09 GMT-0500 (Central Daylight Time),585066.900000006,A,lett,O,t,180,1,2615.7000000029802,582451.200000003,7045,WL,C,13.0
3,45.68599987030029,learn,14314.000129699707,Wed Mar 19 2025 13:43:09 GMT-0500 (Central Daylight Time),585216.400000006,A,lette,O,e,139,1,2765.2000000029802,582451.200000003,7045,WL,C,13.0
3,45.78599977493286,learn,14214.000225067139,Wed Mar 19 2025 13:43:09 GMT-0500 (Central Daylight Time),585316.700000003,A,letter,O,r,86,1,2865.5,582451.200000003,7045,WL,C,13.0
3,45.93599987030029,learn,14064.000129699707,Wed Mar 19 2025 13:43:09 GMT-0500 (Central Daylight Time),585466.700000003,A,letterenter,O,enter,137,1,3015.5,582451.200000003,7045,WL,C,13.0
3,50.45099997520447,learn,9549.000024795532,Wed Mar 19 2025 13:43:09 GMT-0500 (Central Daylight Time),589981.6000000015,A,q,O,q,4507,1,4514.60000000149,585467.0,7045,WL,C,14.0
3,50.617999792099,learn,9382.000207901001,Wed Mar 19 2025 13:43:09 GMT-0500 (Central Daylight Time),590148.5,A,qu,O,u,152,1,4681.5,585467.0,7045,WL,C,14.0
3,50.91799998283386,learn,9082.000017166138,Wed Mar 19 2025 13:43:09 GMT-0500 (Central Daylight Time),590448.200000003,A,que,O,e,290,1,4981.20000000298,585467.0,7045,WL,C,14.0
3,51.16799998283386,learn,8832.000017166138,Wed Mar 19 2025 13:43:09 GMT-0500 (Central Daylight Time),590698.200000003,A,quee,O,e,238,1,5231.20000000298,585467.0,7045,WL,C,14.0
3,51.317999839782715,learn,8682.000160217285,Wed Mar 19 2025 13:43:09 GMT-0500 (Central Daylight Time),590848.200000003,A,queen,O,n,140,1,5381.20000000298,585467.0,7045,WL,C,14.0
3,51.60099983215332,learn,8399.00016784668,Wed Mar 19 2025 13:43:09 GMT-0500 (Central Daylight Time),591131.3000000045,A,queenenter,O,enter,261,1,5664.30000000447,585467.0,7045,WL,C,14.0
3,56.8989999294281,learn,3101.0000705718994,Wed Mar 19 2025 13:43:09 GMT-0500 (Central Daylight Time),596429.700000003,A,w,O,w,5283,1,5298.20000000298,591131.5,7045,WL,C,15.0
3,57.115999937057495,learn,2884.000062942505,Wed Mar 19 2025 13:43:09 GMT-0500 (Central Daylight Time),596646.3000000045,A,wh,O,h,208,1,5514.80000000447,591131.5,7045,WL,C,15.0
3,57.26599979400635,learn,2734.0002059936523,Wed Mar 19 2025 13:43:09 GMT-0500 (Central Daylight Time),596796.200000003,A,whe,O,e,144,1,5664.70000000298,591131.5,7045,WL,C,15.0
3,57.41599988937378,learn,2584.0001106262207,Wed Mar 19 2025 13:43:09 GMT-0500 (Central Daylight Time),596946.5,A,whea,O,a,137,1,5815.0,591131.5,7045,WL,C,15.0
3,57.681999921798706,learn,2318.000078201294,Wed Mar 19 2025 13:43:09 GMT-0500 (Central Daylight Time),597212.8000000045,A,wheat,O,t,251,1,6081.30000000447,591131.5,7045,WL,C,15.0
3,57.948999881744385,learn,2051.0001182556152,Wed Mar 19 2025 13:43:09 GMT-0500 (Central Daylight Time),597479.400000006,A,wheatenter,O,enter,257,1,6347.9000000059605,591131.5,7045,WL,C,15.0
4,2.3489999771118164,learn,57651.00002288818,Wed Mar 19 2025 13:43:09 GMT-0500 (Central Daylight Time),673955.700000003,A,t,O,t,2344,1,2349.10000000149,671606.6000000015,7045,WL,C,1.0
4,2.4830000400543213,learn,57516.99995994568,Wed Mar 19 2025 13:43:09 GMT-0500 (Central Daylight Time),674090.1000000015,A,to,O,o,121,1,2483.5,671606.6000000015,7045,WL,C,1.0
4,2.749000072479248,learn,57250.99992752075,Wed Mar 19 2025 13:43:09 GMT-0500 (Central Daylight Time),674355.6000000015,A,tow,O,w,258,1,2749.0,671606.6000000015,7045,WL,C,1.0
4,2.8480000495910645,learn,57151.999950408936,Wed Mar 19 2025 13:43:09 GMT-0500 (Central Daylight Time),674455.3000000045,A,towe,O,e,83,1,2848.7000000029802,671606.6000000015,7045,WL,C,1.0
4,3.0820000171661377,learn,56917.99998283386,Wed Mar 19 2025 13:43:09 GMT-0500 (Central Daylight Time),674688.8000000045,A,tower,O,r,215,1,3082.2000000029802,671606.6000000015,7045,WL,C,1.0
4,3.381999969482422,learn,56618.00003051758,Wed Mar 19 2025 13:43:09 GMT-0500 (Central Daylight Time),674988.400000006,A,towerenter,O,enter,293,1,3381.8000000044703,671606.6000000015,7045,WL,C,1.0
4,5.747999906539917,learn,54252.00009346008,Wed Mar 19 2025 13:43:09 GMT-0500 (Central Daylight Time),677354.3000000045,A,w,O,w,2346,1,2365.7000000029802,674988.6000000015,7045,WL,C,2.0
4,5.864000082015991,learn,54135.99991798401,Wed Mar 19 2025 13:43:09 GMT-0500 (Central Daylight Time),677471.3000000045,A,wh,O,h,109,1,2482.7000000029802,674988.6000000015,7045,WL,C,2.0
4,6.0309998989105225,learn,53969.00010108948,Wed Mar 19 2025 13:43:09 GMT-0500 (Central Daylight Time),677637.8000000045,A,whe,O,e,151,1,2649.2000000029802,674988.6000000015,7045,WL,C,2.0
4,6.180999994277954,learn,53819.000005722046,Wed Mar 19 2025 13:43:09 GMT-0500 (Central Daylight Time),677787.700000003,A,whea,O,a,128,1,2799.10000000149,674988.6000000015,7045,WL,C,2.0
4,6.38100004196167,learn,53618.99995803833,Wed Mar 19 2025 13:43:09 GMT-0500 (Central Daylight Time),677987.400000006,A,wheat,O,t,185,1,2998.8000000044703,674988.6000000015,7045,WL,C,2.0
4,6.614000082015991,learn,53385.99991798401,Wed Mar 19 2025 13:43:09 GMT-0500 (Central Daylight Time),678220.5,A,wheatenter,O,enter,226,1,3231.89999999851,674988.6000000015,7045,WL,C,2.0
4,7.147000074386597,learn,52852.9999256134,Wed Mar 19 2025 13:43:09 GMT-0500 (Central Daylight Time),678754.200000003,A,q,O,q,521,1,533.5,678220.700000003,7045,WL,C,3.0
4,7.364000082015991,learn,52635.99991798401,Wed Mar 19 2025 13:43:09 GMT-0500 (Central Daylight Time),678970.5,A,qu,O,u,204,1,749.7999999970198,678220.700000003,7045,WL,C,3.0
4,7.5299999713897705,learn,52470.00002861023,Wed Mar 19 2025 13:43:09 GMT-0500 (Central Daylight Time),679137.3000000045,A,que,O,e,148,1,916.6000000014901,678220.700000003,7045,WL,C,3.0
4,7.8470001220703125,learn,52152.99987792969,Wed Mar 19 2025 13:43:09 GMT-0500 (Central Daylight Time),679453.900000006,A,quee,O,e,302,1,1233.2000000029802,678220.700000003,7045,WL,C,3.0
4,8.02999997138977,learn,51970.00002861023,Wed Mar 19 2025 13:43:09 GMT-0500 (Central Daylight Time),679637.0,A,queen,O,n,176,1,1416.2999999970198,678220.700000003,7045,WL,C,3.0
4,8.329999923706055,learn,51670.000076293945,Wed Mar 19 2025 13:43:09 GMT-0500 (Central Daylight Time),679937.3000000045,A,queenenter,O,enter,289,1,1716.6000000014901,678220.700000003,7045,WL,C,3.0
4,11.878999948501587,learn,48121.00005149841,Wed Mar 19 2025 13:43:09 GMT-0500 (Central Daylight Time),683485.6000000015,A,h,O,h,3541,1,3548.0,679937.6000000015,7045,WL,C,4.0
4,12.062999963760376,learn,47937.000036239624,Wed Mar 19 2025 13:43:09 GMT-0500 (Central Daylight Time),683669.400000006,A,ho,O,o,169,1,3731.8000000044703,679937.6000000015,7045,WL,C,4.0
4,12.296000003814697,learn,47703.9999961853,Wed Mar 19 2025 13:43:09 GMT-0500 (Central Daylight Time),683902.5,A,hom,O,m,225,1,3964.89999999851,679937.6000000015,7045,WL,C,4.0
4,12.529000043869019,learn,47470.99995613098,Wed Mar 19 2025 13:43:09 GMT-0500 (Central Daylight Time),684135.8000000045,A,home,O,e,224,1,4198.20000000298,679937.6000000015,7045,WL,C,4.0
4,12.828999996185303,learn,47171.0000038147,Wed Mar 19 2025 13:43:09 GMT-0500 (Central Daylight Time),684435.6000000015,A,homeenter,O,enter,294,1,4498.0,679937.6000000015,7045,WL,C,4.0
4,13.211999893188477,learn,46788.00010681152,Wed Mar 19 2025 13:43:09 GMT-0500 (Central Daylight Time),684818.8000000045,A,b,O,b,371,1,383.0,684435.8000000045,7045,WL,C,5.0
4,13.395999908447266,learn,46604.000091552734,Wed Mar 19 2025 13:43:09 GMT-0500 (Central Daylight Time),685002.400000006,A,bo,O,o,163,1,566.6000000014901,684435.8000000045,7045,WL,C,5.0
4,13.611999988555908,learn,46388.00001144409,Wed Mar 19 2025 13:43:09 GMT-0500 (Central Daylight Time),685218.5,A,boy,O,y,196,1,782.6999999955297,684435.8000000045,7045,WL,C,5.0
4,13.995000123977661,learn,46004.99987602234,Wed Mar 19 2025 13:43:09 GMT-0500 (Central Daylight Time),685602.0,A,boyenter,O,enter,373,1,1166.1999999955297,684435.8000000045,7045,WL,C,5.0
4,16.543999910354614,learn,43456.000089645386,Wed Mar 19 2025 13:43:09 GMT-0500 (Central Daylight Time),688151.0,A,c,O,c,2540,1,2548.5999999940395,685602.400000006,7045,WL,C,6.0
4,16.710999965667725,learn,43289.000034332275,Wed Mar 19 2025 13:43:09 GMT-0500 (Central Daylight Time),688317.6000000015,A,ca,O,a,151,1,2715.1999999955297,685602.400000006,7045,WL,C,6.0
4,16.99399995803833,learn,43006.00004196167,Wed Mar 19 2025 13:43:09 GMT-0500 (Central Daylight Time),688600.700000003,A,cat,O,t,270,1,2998.2999999970198,685602.400000006,7045,WL,C,6.0
4,17.14400005340576,learn,42855.99994659424,Wed Mar 19 2025 13:43:09 GMT-0500 (Central Daylight Time),688751.1000000015,A,catt,O,t,141,1,3148.6999999955297,685602.400000006,7045,WL,C,6.0
4,17.39400005340576,learn,42605.99994659424,Wed Mar 19 2025 13:43:09 GMT-0500 (Central Daylight Time),689000.700000003,A,cattl,O,l,239,1,3398.2999999970198,685602.400000006,7045,WL,C,6.0
4,17.526999950408936,learn,42473.000049591064,Wed Mar 19 2025 13:43:09 GMT-0500 (Central Daylight Time),689134.1000000015,A,cattle,O,e,126,1,3531.6999999955297,685602.400000006,7045,WL,C,6.0
4,17.811000108718872,learn,42188.99989128113,Wed Mar 19 2025 13:43:09 GMT-0500 (Central Daylight Time),689417.3000000045,A,cattleenter,O,enter,264,1,3814.89999999851,685602.400000006,7045,WL,C,6.0
4,19.094000101089478,learn,40905.99989891052,Wed Mar 19 2025 13:43:09 GMT-0500 (Central Daylight Time),690700.6000000015,A,c,O,c,1269,1,1282.8999999985099,689417.700000003,7045,WL,C,7.0
4,19.22699999809265,learn,40773.00000190735,Wed Mar 19 2025 13:43:09 GMT-0500 (Central Daylight Time),690833.400000006,A,co,O,o,113,1,1415.7000000029802,689417.700000003,7045,WL,C,7.0
4,19.460000038146973,learn,40539.99996185303,Wed Mar 19 2025 13:43:09 GMT-0500 (Central Daylight Time),691067.1000000015,A,cor,O,r,221,1,1649.3999999985099,689417.700000003,7045,WL,C,7.0
4,19.693000078201294,learn,40306.999921798706,Wed Mar 19 2025 13:43:09 GMT-0500 (Central Daylight Time),691300.1000000015,A,corn,O,n,227,1,1882.3999999985099,689417.700000003,7045,WL,C,7.0
4,20.009999990463257,learn,39990.00000953674,Wed Mar 19 2025 13:43:09 GMT-0500 (Central Daylight Time),691616.5,A,cornenter,O,enter,306,1,2198.7999999970198,689417.700000003,7045,WL,C,7.0
4,20.47699999809265,learn,39523.00000190735,Wed Mar 19 2025 13:43:09 GMT-0500 (Central Daylight Time),692083.400000006,A,s,O,s,461,1,466.6000000014901,691616.8000000045,7045,WL,C,8.0
4,20.64299988746643,learn,39357.00011253357,Wed Mar 19 2025 13:43:09 GMT-0500 (Central Daylight Time),692249.900000006,A,sh,O,h,147,1,633.1000000014901,691616.8000000045,7045,WL,C,8.0
4,20.759999990463257,learn,39240.00000953674,Wed Mar 19 2025 13:43:09 GMT-0500 (Central Daylight Time),692366.6000000015,A,sho,O,o,110,1,749.7999999970198,691616.8000000045,7045,WL,C,8.0
4,20.926000118255615,learn,39073.999881744385,Wed Mar 19 2025 13:43:09 GMT-0500 (Central Daylight Time),692532.900000006,A,shor,O,r,152,1,916.1000000014901,691616.8000000045,7045,WL,C,8.0
4,21.009999990463257,learn,38990.00000953674,Wed Mar 19 2025 13:43:09 GMT-0500 (Central Daylight Time),692616.3000000045,A,shore,O,e,65,1,999.5,691616.8000000045,7045,WL,C,8.0
4,21.276000022888184,learn,38723.99997711182,Wed Mar 19 2025 13:43:09 GMT-0500 (Central Daylight Time),692882.900000006,A,shoreenter,O,enter,254,1,1266.1000000014901,691616.8000000045,7045,WL,C,8.0
4,21.658999919891357,learn,38341.00008010864,Wed Mar 19 2025 13:43:09 GMT-0500 (Central Daylight Time),693266.0,A,n,O,n,371,1,382.8999999985099,692883.1000000015,7045,WL,C,9.0
4,21.776000022888184,learn,38223.99997711182,Wed Mar 19 2025 13:43:09 GMT-0500 (Central Daylight Time),693382.5,A,na,O,a,108,1,499.3999999985099,692883.1000000015,7045,WL,C,9.0
4,22.009000062942505,learn,37990.999937057495,Wed Mar 19 2025 13:43:09 GMT-0500 (Central Daylight Time),693616.0,A,nai,O,i,215,1,732.8999999985099,692883.1000000015,7045,WL,C,9.0
4,22.193000078201294,learn,37806.999921798706,Wed Mar 19 2025 13:43:09 GMT-0500 (Central Daylight Time),693799.6000000015,A,nail,O,l,175,1,916.5,692883.1000000015,7045,WL,C,9.0
4,22.509000062942505,learn,37490.999937057495,Wed Mar 19 2025 13:43:09 GMT-0500 (Central Daylight Time),694116.1000000015,A,nailenter,O,enter,295,1,1233.0,692883.1000000015,7045,WL,C,9.0
4,23.02500009536743,learn,36974.99990463257,Wed Mar 19 2025 13:43:09 GMT-0500 (Central Daylight Time),694632.3000000045,A,d,O,d,506,1,515.8000000044703,694116.5,7045,WL,C,10.0
4,23.191999912261963,learn,36808.00008773804,Wed Mar 19 2025 13:43:09 GMT-0500 (Central Daylight Time),694799.1000000015,A,do,O,o,150,1,682.6000000014901,694116.5,7045,WL,C,10.0
4,23.408999919891357,learn,36591.00008010864,Wed Mar 19 2025 13:43:09 GMT-0500 (Central Daylight Time),695015.400000006,A,doc,O,c,199,1,898.9000000059605,694116.5,7045,WL,C,10.0
4,23.674999952316284,learn,36325.000047683716,Wed Mar 19 2025 13:43:09 GMT-0500 (Central Daylight Time),695282.1000000015,A,doct,O,t,255,1,1165.6000000014901,694116.5,7045,WL,C,10.0
4,23.941999912261963,learn,36058.00008773804,Wed Mar 19 2025 13:43:09 GMT-0500 (Central Daylight Time),695548.6000000015,A,docto,O,o,260,1,1432.1000000014901,694116.5,7045,WL,C,10.0
4,24.10800004005432,learn,35891.99995994568,Wed Mar 19 2025 13:43:09 GMT-0500 (Central Daylight Time),695715.200000003,A,doctor,O,r,154,1,1598.7000000029802,694116.5,7045,WL,C,10.0
4,24.407999992370605,learn,35592.000007629395,Wed Mar 19 2025 13:43:09 GMT-0500 (Central Daylight Time),696015.1000000015,A,doctorenter,O,enter,295,1,1898.6000000014901,694116.5,7045,WL,C,10.0
4,25.941999912261963,learn,34058.00008773804,Wed Mar 19 2025 13:43:09 GMT-0500 (Central Daylight Time),697548.5,A,b,O,b,1519,1,1533.0,696015.5,7045,WL,C,11.0
4,26.074000120162964,learn,33925.999879837036,Wed Mar 19 2025 13:43:09 GMT-0500 (Central Daylight Time),697681.3000000045,A,bo,O,o,114,1,1665.8000000044703,696015.5,7045,WL,C,11.0
4,26.257999897003174,learn,33742.000102996826,Wed Mar 19 2025 13:43:09 GMT-0500 (Central Daylight Time),697864.900000006,A,bod,O,d,172,1,1849.4000000059605,696015.5,7045,WL,C,11.0
4,26.424999952316284,learn,33575.000047683716,Wed Mar 19 2025 13:43:09 GMT-0500 (Central Daylight Time),698031.6000000015,A,body,O,y,157,1,2016.1000000014901,696015.5,7045,WL,C,11.0
4,26.70799994468689,learn,33292.00005531311,Wed Mar 19 2025 13:43:09 GMT-0500 (Central Daylight Time),698314.700000003,A,bodyenter,O,enter,263,1,2299.2000000029802,696015.5,7045,WL,C,11.0
4,30.039999961853027,learn,29960.000038146973,Wed Mar 19 2025 13:43:09 GMT-0500 (Central Daylight Time),701647.0,A,n,O,n,3323,1,3332.0999999940395,698314.900000006,7045,WL,C,12.0
4,30.207000017166138,learn,29792.999982833862,Wed Mar 19 2025 13:43:09 GMT-0500 (Central Daylight Time),701813.3000000045,A,na,O,a,159,1,3498.39999999851,698314.900000006,7045,WL,C,12.0
4,30.372999906539917,learn,29627.000093460083,Wed Mar 19 2025 13:43:09 GMT-0500 (Central Daylight Time),701980.0,A,nai,O,i,153,1,3665.0999999940395,698314.900000006,7045,WL,C,12.0
4,30.555999994277954,learn,29444.000005722046,Wed Mar 19 2025 13:43:09 GMT-0500 (Central Daylight Time),702163.200000003,A,nail,O,l,170,1,3848.2999999970198,698314.900000006,7045,WL,C,12.0
4,30.872999906539917,learn,29127.000093460083,Wed Mar 19 2025 13:43:09 GMT-0500 (Central Daylight Time),702480.1000000015,A,nailenter,O,enter,307,1,4165.19999999553,698314.900000006,7045,WL,C,12.0
4,31.50600004196167,learn,28493.99995803833,Wed Mar 19 2025 13:43:09 GMT-0500 (Central Daylight Time),703113.0,A,s,O,s,614,1,632.5999999940395,702480.400000006,7045,WL,C,13.0
4,32.12299990653992,learn,27877.000093460083,Wed Mar 19 2025 13:43:09 GMT-0500 (Central Daylight Time),703729.6000000015,A,sh,O,h,597,1,1249.1999999955297,702480.400000006,7045,WL,C,13.0
4,32.24000000953674,learn,27759.999990463257,Wed Mar 19 2025 13:43:09 GMT-0500 (Central Daylight Time),703846.3000000045,A,sho,O,o,110,1,1365.8999999985099,702480.400000006,7045,WL,C,13.0
4,32.37299990653992,learn,27627.000093460083,Wed Mar 19 2025 13:43:09 GMT-0500 (Central Daylight Time),703979.6000000015,A,shor,O,r,128,1,1499.1999999955297,702480.400000006,7045,WL,C,13.0
4,32.48900008201599,learn,27510.99991798401,Wed Mar 19 2025 13:43:09 GMT-0500 (Central Daylight Time),704095.900000006,A,shore,O,e,100,1,1615.5,702480.400000006,7045,WL,C,13.0
4,32.75600004196167,learn,27243.99995803833,Wed Mar 19 2025 13:43:09 GMT-0500 (Central Daylight Time),704363.0,A,shoreenter,O,enter,254,1,1882.5999999940395,702480.400000006,7045,WL,C,13.0
4,37.270999908447266,learn,22729.000091552734,Wed Mar 19 2025 13:43:09 GMT-0500 (Central Daylight Time),708877.900000006,A,c,O,c,4500,1,4514.70000000298,704363.200000003,7045,WL,C,14.0
4,37.40400004386902,learn,22595.99995613098,Wed Mar 19 2025 13:43:09 GMT-0500 (Central Daylight Time),709011.400000006,A,ca,O,a,119,1,4648.20000000298,704363.200000003,7045,WL,C,14.0
4,37.62100005149841,learn,22378.999948501587,Wed Mar 19 2025 13:43:09 GMT-0500 (Central Daylight Time),709227.8000000045,A,cat,O,t,203,1,4864.60000000149,704363.200000003,7045,WL,C,14.0
4,37.78699994087219,learn,22213.000059127808,Wed Mar 19 2025 13:43:09 GMT-0500 (Central Daylight Time),709394.3000000045,A,catt,O,t,154,1,5031.10000000149,704363.200000003,7045,WL,C,14.0
4,38.020999908447266,learn,21979.000091552734,Wed Mar 19 2025 13:43:09 GMT-0500 (Central Daylight Time),709627.5,A,cattl,O,l,220,1,5264.29999999702,704363.200000003,7045,WL,C,14.0
4,38.13700008392334,learn,21862.99991607666,Wed Mar 19 2025 13:43:09 GMT-0500 (Central Daylight Time),709744.200000003,A,cattle,O,e,107,1,5381.0,704363.200000003,7045,WL,C,14.0
4,38.4210000038147,learn,21578.999996185303,Wed Mar 19 2025 13:43:09 GMT-0500 (Central Daylight Time),710027.400000006,A,cattleenter,O,enter,278,1,5664.20000000298,704363.200000003,7045,WL,C,14.0
4,46.00200009346008,learn,13997.999906539917,Wed Mar 19 2025 13:43:09 GMT-0500 (Central Daylight Time),717608.6000000015,A,f,O,f,7571,1,7580.89999999851,710027.700000003,7045,WL,C,15.0
4,46.11899995803833,learn,13881.00004196167,Wed Mar 19 2025 13:43:09 GMT-0500 (Central Daylight Time),717725.400000006,A,fl,O,l,109,1,7697.70000000298,710027.700000003,7045,WL,C,15.0
4,46.25200009346008,learn,13747.999906539917,Wed Mar 19 2025 13:43:09 GMT-0500 (Central Daylight Time),717858.700000003,A,fla,O,a,113,1,7831.0,710027.700000003,7045,WL,C,15.0
4,46.75200009346008,learn,13247.999906539917,Wed Mar 19 2025 13:43:09 GMT-0500 (Central Daylight Time),718358.6000000015,A,flag,O,g,485,1,8330.89999999851,710027.700000003,7045,WL,C,15.0
4,47.00099992752075,learn,12999.000072479248,Wed Mar 19 2025 13:43:09 GMT-0500 (Central Daylight Time),718608.200000003,A,flagenter,O,enter,232,1,8580.5,710027.700000003,7045,WL,C,15.0
5,1.0829999446868896,learn,60000.0,Wed Mar 19 2025 13:43:09 GMT-0500 (Central Daylight Time),791819.200000003,A,t,O,t,1072,1,1083.2999999970198,790735.900000006,7045,WL,C,1.0
5,1.2160000801086426,learn,60000.0,Wed Mar 19 2025 13:43:09 GMT-0500 (Central Daylight Time),791952.200000003,A,to,O,o,115,1,1216.2999999970198,790735.900000006,7045,WL,C,1.0
5,1.433000087738037,learn,60000.0,Wed Mar 19 2025 13:43:09 GMT-0500 (Central Daylight Time),792168.900000006,A,tow,O,w,207,1,1433.0,790735.900000006,7045,WL,C,1.0
5,1.5329999923706055,learn,60000.0,Wed Mar 19 2025 13:43:09 GMT-0500 (Central Daylight Time),792268.5,A,towe,O,e,86,1,1532.5999999940395,790735.900000006,7045,WL,C,1.0
5,1.6989998817443848,learn,60000.0,Wed Mar 19 2025 13:43:09 GMT-0500 (Central Daylight Time),792435.400000006,A,tower,O,r,154,1,1699.5,790735.900000006,7045,WL,C,1.0
5,2.0160000324249268,learn,60000.0,Wed Mar 19 2025 13:43:09 GMT-0500 (Central Daylight Time),792752.0,A,towerenter,O,enter,299,1,2016.0999999940395,790735.900000006,7045,WL,C,1.0
5,5.315000057220459,learn,60000.0,Wed Mar 19 2025 13:43:09 GMT-0500 (Central Daylight Time),796051.1000000015,A,q,O,q,3279,1,3298.6999999955297,792752.400000006,7045,WL,C,2.0
5,5.914999961853027,learn,60000.0,Wed Mar 19 2025 13:43:09 GMT-0500 (Central Daylight Time),796651.0,A,,O,backspace,579,1,3898.5999999940395,792752.400000006,7045,WL,C,2.0
5,6.13100004196167,learn,60000.0,Wed Mar 19 2025 13:43:09 GMT-0500 (Central Daylight Time),796866.900000006,A,w,O,w,204,1,4114.5,792752.400000006,7045,WL,C,2.0
5,6.398000001907349,learn,60000.0,Wed Mar 19 2025 13:43:09 GMT-0500 (Central Daylight Time),797133.8000000045,A,wh,O,h,251,1,4381.39999999851,792752.400000006,7045,WL,C,2.0
5,6.648000001907349,learn,60000.0,Wed Mar 19 2025 13:43:09 GMT-0500 (Central Daylight Time),797383.8000000045,A,whe,O,e,234,1,4631.39999999851,792752.400000006,7045,WL,C,2.0
5,7.0309998989105225,learn,60000.0,Wed Mar 19 2025 13:43:09 GMT-0500 (Central Daylight Time),797766.900000006,A,whea,O,a,375,1,5014.5,792752.400000006,7045,WL,C,2.0
5,7.21399998664856,learn,60000.0,Wed Mar 19 2025 13:43:09 GMT-0500 (Central Daylight Time),797950.400000006,A,wheat,O,t,175,1,5198.0,792752.400000006,7045,WL,C,2.0
5,8.04699993133545,learn,60000.0,Wed Mar 19 2025 13:43:09 GMT-0500 (Central Daylight Time),798783.400000006,A,wheatenter,O,enter,815,1,6031.0,792752.400000006,7045,WL,C,2.0
5,8.513999938964844,learn,60000.0,Wed Mar 19 2025 13:43:09 GMT-0500 (Central Daylight Time),799249.700000003,A,w,O,w,448,1,466.0,798783.700000003,7045,WL,C,3.0
5,9.030999898910522,learn,60000.0,Wed Mar 19 2025 13:43:09 GMT-0500 (Central Daylight Time),799766.6000000015,A,,O,backspace,509,1,982.8999999985099,798783.700000003,7045,WL,C,3.0
5,9.246999979019165,learn,60000.0,Wed Mar 19 2025 13:43:09 GMT-0500 (Central Daylight Time),799982.8000000045,A,q,O,q,209,1,1199.1000000014901,798783.700000003,7045,WL,C,3.0
5,9.730000019073486,learn,60000.0,Wed Mar 19 2025 13:43:09 GMT-0500 (Central Daylight Time),800466.0,A,qh,O,h,463,1,1682.2999999970198,798783.700000003,7045,WL,C,3.0
5,10.196000099182129,learn,60000.0,Wed Mar 19 2025 13:43:09 GMT-0500 (Central Daylight Time),800932.400000006,A,q,O,backspace,452,1,2148.7000000029802,798783.700000003,7045,WL,C,3.0
5,10.845999956130981,learn,60000.0,Wed Mar 19 2025 13:43:09 GMT-0500 (Central Daylight Time),801582.400000006,A,qu,O,u,634,1,2798.7000000029802,798783.700000003,7045,WL,C,3.0
5,10.996000051498413,learn,60000.0,Wed Mar 19 2025 13:43:09 GMT-0500 (Central Daylight Time),801732.400000006,A,que,O,e,137,1,2948.7000000029802,798783.700000003,7045,WL,C,3.0
5,11.162999868392944,learn,60000.0,Wed Mar 19 2025 13:43:09 GMT-0500 (Central Daylight Time),801899.200000003,A,quee,O,e,145,1,3115.5,798783.700000003,7045,WL,C,3.0
5,11.312999963760376,learn,60000.0,Wed Mar 19 2025 13:43:09 GMT-0500 (Central Daylight Time),802049.1000000015,A,queen,O,n,140,1,3265.39999999851,798783.700000003,7045,WL,C,3.0
5,11.579999923706055,learn,60000.0,Wed Mar 19 2025 13:43:09 GMT-0500 (Central Daylight Time),802315.700000003,A,queenenter,O,enter,245,1,3532.0,798783.700000003,7045,WL,C,3.0
5,14.295000076293945,learn,60000.0,Wed Mar 19 2025 13:43:09 GMT-0500 (Central Daylight Time),805031.400000006,A,b,O,b,2706,1,2715.3000000044703,802316.1000000015,7045,WL,C,4.0
5,14.494999885559082,learn,60000.0,Wed Mar 19 2025 13:43:09 GMT-0500 (Central Daylight Time),805231.400000006,A,bo,O,o,191,1,2915.3000000044703,802316.1000000015,7045,WL,C,4.0
5,14.76200008392334,learn,60000.0,Wed Mar 19 2025 13:43:09 GMT-0500 (Central Daylight Time),805497.8000000045,A,boy,O,y,255,1,3181.7000000029802,802316.1000000015,7045,WL,C,4.0
5,15.744999885559082,learn,60000.0,Wed Mar 19 2025 13:43:09 GMT-0500 (Central Daylight Time),806480.8000000045,A,boyenter,O,enter,974,1,4164.70000000298,802316.1000000015,7045,WL,C,4.0
5,16.477999925613403,learn,60000.0,Wed Mar 19 2025 13:43:09 GMT-0500 (Central Daylight Time),807213.900000006,A,b,O,b,718,1,732.8000000044703,806481.1000000015,7045,WL,C,5.0
5,17.277999877929688,learn,60000.0,Wed Mar 19 2025 13:43:09 GMT-0500 (Central Daylight Time),808013.6000000015,A,benter,O,enter,785,1,1532.5,806481.1000000015,7045,WL,C,5.0
5,18.16100001335144,learn,60000.0,Wed Mar 19 2025 13:43:09 GMT-0500 (Central Daylight Time),808896.6000000015,A,h,O,h,865,1,882.7999999970198,808013.8000000045,7045,WL,C,6.0
5,18.277999877929688,learn,60000.0,Wed Mar 19 2025 13:43:09 GMT-0500 (Central Daylight Time),809013.6000000015,A,ho,O,o,101,1,999.7999999970198,808013.8000000045,7045,WL,C,6.0
5,18.543999910354614,learn,60000.0,Wed Mar 19 2025 13:43:09 GMT-0500 (Central Daylight Time),809280.1000000015,A,hom,O,m,249,1,1266.2999999970198,808013.8000000045,7045,WL,C,6.0
5,18.74399995803833,learn,60000.0,Wed Mar 19 2025 13:43:09 GMT-0500 (Central Daylight Time),809480.0,A,home,O,e,182,1,1466.1999999955297,808013.8000000045,7045,WL,C,6.0
5,18.927000045776367,learn,60000.0,Wed Mar 19 2025 13:43:09 GMT-0500 (Central Daylight Time),809663.3000000045,A,homeenter,O,enter,175,1,1649.5,808013.8000000045,7045,WL,C,6.0
5,22.66000008583069,learn,60000.0,Wed Mar 19 2025 13:43:09 GMT-0500 (Central Daylight Time),813395.700000003,A,d,O,d,3711,1,3732.0,809663.700000003,7045,WL,C,7.0
5,22.842999935150146,learn,60000.0,Wed Mar 19 2025 13:43:09 GMT-0500 (Central Daylight Time),813578.6000000015,A,do,O,o,162,1,3914.89999999851,809663.700000003,7045,WL,C,7.0
5,23.07100009918213,learn,60000.0,Wed Mar 19 2025 13:43:09 GMT-0500 (Central Daylight Time),813806.8000000045,A,doc,O,c,224,1,4143.10000000149,809663.700000003,7045,WL,C,7.0
5,23.32800006866455,learn,60000.0,Wed Mar 19 2025 13:43:09 GMT-0500 (Central Daylight Time),814064.5,A,doct,O,t,247,1,4400.79999999702,809663.700000003,7045,WL,C,7.0
5,23.492000102996826,learn,60000.0,Wed Mar 19 2025 13:43:09 GMT-0500 (Central Daylight Time),814228.5,A,docto,O,o,151,1,4564.79999999702,809663.700000003,7045,WL,C,7.0
5,23.658999919891357,learn,60000.0,Wed Mar 19 2025 13:43:09 GMT-0500 (Central Daylight Time),814395.1000000015,A,doctor,O,r,155,1,4731.39999999851,809663.700000003,7045,WL,C,7.0
5,23.925999879837036,learn,60000.0,Wed Mar 19 2025 13:43:09 GMT-0500 (Central Daylight Time),814661.6000000015,A,doctorenter,O,enter,258,1,4997.89999999851,809663.700000003,7045,WL,C,7.0
5,24.776000022888184,learn,60000.0,Wed Mar 19 2025 13:43:09 GMT-0500 (Central Daylight Time),815511.700000003,A,c,O,c,834,1,849.7000000029802,814662.0,7045,WL,C,8.0
5,24.941999912261963,learn,60000.0,Wed Mar 19 2025 13:43:09 GMT-0500 (Central Daylight Time),815678.1000000015,A,co,O,o,159,1,1016.1000000014901,814662.0,7045,WL,C,8.0
5,25.191999912261963,learn,60000.0,Wed Mar 19 2025 13:43:09 GMT-0500 (Central Daylight Time),815927.900000006,A,cor,O,r,240,1,1265.9000000059605,814662.0,7045,WL,C,8.0
5,25.39199995994568,learn,60000.0,Wed Mar 19 2025 13:43:09 GMT-0500 (Central Daylight Time),816127.900000006,A,corn,O,n,190,1,1465.9000000059605,814662.0,7045,WL,C,8.0
5,25.674999952316284,learn,60000.0,Wed Mar 19 2025 13:43:09 GMT-0500 (Central Daylight Time),816411.1000000015,A,cornenter,O,enter,263,1,1749.1000000014901,814662.0,7045,WL,C,8.0
5,26.757999897003174,learn,60000.0,Wed Mar 19 2025 13:43:09 GMT-0500 (Central Daylight Time),817494.1000000015,A,c,O,c,1076,1,1082.6000000014901,816411.5,7045,WL,C,9.0
5,26.97499990463257,learn,60000.0,Wed Mar 19 2025 13:43:09 GMT-0500 (Central Daylight Time),817710.700000003,A,ca,O,a,201,1,1299.2000000029802,816411.5,7045,WL,C,9.0
5,27.174999952316284,learn,60000.0,Wed Mar 19 2025 13:43:09 GMT-0500 (Central Daylight Time),817910.5,A,cat,O,t,185,1,1499.0,816411.5,7045,WL,C,9.0
5,27.341000080108643,learn,60000.0,Wed Mar 19 2025 13:43:09 GMT-0500 (Central Daylight Time),818077.3000000045,A,catt,O,t,160,1,1665.8000000044703,816411.5,7045,WL,C,9.0
5,27.5239999294281,learn,60000.0,Wed Mar 19 2025 13:43:09 GMT-0500 (Central Daylight Time),818260.5,A,cattl,O,l,169,1,1849.0,816411.5,7045,WL,C,9.0
5,27.624000072479248,learn,60000.0,Wed Mar 19 2025 13:43:09 GMT-0500 (Central Daylight Time),818360.200000003,A,cattle,O,e,90,1,1948.7000000029802,816411.5,7045,WL,C,9.0
5,27.907999992370605,learn,60000.0,Wed Mar 19 2025 13:43:09 GMT-0500 (Central Daylight Time),818643.900000006,A,cattleenter,O,enter,279,1,2232.4000000059605,816411.5,7045,WL,C,9.0
5,28.490999937057495,learn,60000.0,Wed Mar 19 2025 13:43:09 GMT-0500 (Central Daylight Time),819226.8000000045,A,f,O,f,571,1,582.7000000029802,818644.1000000015,7045,WL,C,10.0
5,28.674000024795532,learn,60000.0,Wed Mar 19 2025 13:43:09 GMT-0500 (Central Daylight Time),819410.200000003,A,fl,O,l,172,1,766.1000000014901,818644.1000000015,7045,WL,C,10.0
5,28.79099988937378,learn,60000.0,Wed Mar 19 2025 13:43:09 GMT-0500 (Central Daylight Time),819527.400000006,A,fla,O,a,100,1,883.3000000044703,818644.1000000015,7045,WL,C,10.0
5,29.19099998474121,learn,60000.0,Wed Mar 19 2025 13:43:09 GMT-0500 (Central Daylight Time),819926.8000000045,A,flag,O,g,383,1,1282.7000000029802,818644.1000000015,7045,WL,C,10.0
5,29.424000024795532,learn,60000.0,Wed Mar 19 2025 13:43:09 GMT-0500 (Central Daylight Time),820160.1000000015,A,flagenter,O,enter,224,1,1516.0,818644.1000000015,7045,WL,C,10.0
5,30.5239999294281,learn,60000.0,Wed Mar 19 2025 13:43:09 GMT-0500 (Central Daylight Time),821259.700000003,A,c,O,c,1094,1,1099.2999999970198,820160.400000006,7045,WL,C,11.0
5,30.657000064849854,learn,60000.0,Wed Mar 19 2025 13:43:09 GMT-0500 (Central Daylight Time),821393.1000000015,A,ca,O,a,115,1,1232.6999999955297,820160.400000006,7045,WL,C,11.0
5,30.806999921798706,learn,60000.0,Wed Mar 19 2025 13:43:09 GMT-0500 (Central Daylight Time),821542.8000000045,A,cam,O,m,133,1,1382.3999999985099,820160.400000006,7045,WL,C,11.0
5,31.056999921798706,learn,60000.0,Wed Mar 19 2025 13:43:09 GMT-0500 (Central Daylight Time),821792.700000003,A,camp,O,p,232,1,1632.2999999970198,820160.400000006,7045,WL,C,11.0
5,31.556999921798706,learn,60000.0,Wed Mar 19 2025 13:43:09 GMT-0500 (Central Daylight Time),822292.900000006,A,campenter,O,enter,487,1,2132.5,820160.400000006,7045,WL,C,11.0
5,32.706000089645386,learn,60000.0,Wed Mar 19 2025 13:43:09 GMT-0500 (Central Daylight Time),823442.3000000045,A,s,O,s,1131,1,1149.1000000014901,822293.200000003,7045,WL,C,12.0
5,32.82299995422363,learn,60000.0,Wed Mar 19 2025 13:43:09 GMT-0500 (Central Daylight Time),823558.900000006,A,sh,O,h,100,1,1265.7000000029802,822293.200000003,7045,WL,C,12.0
5,32.93899989128113,learn,60000.0,Wed Mar 19 2025 13:43:09 GMT-0500 (Central Daylight Time),823675.5,A,sho,O,o,104,1,1382.2999999970198,822293.200000003,7045,WL,C,12.0
5,33.08999991416931,learn,60000.0,Wed Mar 19 2025 13:43:09 GMT-0500 (Central Daylight Time),823825.700000003,A,shor,O,r,140,1,1532.5,822293.200000003,7045,WL,C,12.0
5,33.19000005722046,learn,60000.0,Wed Mar 19 2025 13:43:09 GMT-0500 (Central Daylight Time),823925.6000000015,A,shore,O,e,94,1,1632.3999999985099,822293.200000003,7045,WL,C,12.0
5,33.456000089645386,learn,60000.0,Wed Mar 19 2025 13:43:09 GMT-0500 (Central Daylight Time),824192.0,A,shoreenter,O,enter,249,1,1898.7999999970198,822293.200000003,7045,WL,C,12.0
5,36.954999923706055,learn,60000.0,Wed Mar 19 2025 13:43:09 GMT-0500 (Central Daylight Time),827690.900000006,A,b,O,b,3487,1,3498.60000000149,824192.3000000045,7045,WL,C,13.0
5,37.08800005912781,learn,60000.0,Wed Mar 19 2025 13:43:09 GMT-0500 (Central Daylight Time),827824.400000006,A,bo,O,o,125,1,3632.10000000149,824192.3000000045,7045,WL,C,13.0
5,37.47099995613098,learn,60000.0,Wed Mar 19 2025 13:43:09 GMT-0500 (Central Daylight Time),828207.5,A,bod,O,d,367,1,4015.1999999955297,824192.3000000045,7045,WL,C,13.0
5,37.67199993133545,learn,60000.0,Wed Mar 19 2025 13:43:09 GMT-0500 (Central Daylight Time),828407.6000000015,A,body,O,y,183,1,4215.29999999702,824192.3000000045,7045,WL,C,13.0
5,38.00399994850159,learn,60000.0,Wed Mar 19 2025 13:43:09 GMT-0500 (Central Daylight Time),828740.400000006,A,bodyenter,O,enter,327,1,4548.10000000149,824192.3000000045,7045,WL,C,13.0
5,42.0699999332428,learn,60000.0,Wed Mar 19 2025 13:43:09 GMT-0500 (Central Daylight Time),832805.900000006,A,n,O,n,4050,1,4065.2000000029802,828740.700000003,7045,WL,C,14.0
5,42.22000002861023,learn,60000.0,Wed Mar 19 2025 13:43:09 GMT-0500 (Central Daylight Time),832955.8000000045,A,na,O,a,144,1,4215.10000000149,828740.700000003,7045,WL,C,14.0
5,42.420000076293945,learn,60000.0,Wed Mar 19 2025 13:43:09 GMT-0500 (Central Daylight Time),833156.0,A,nai,O,i,196,1,4415.29999999702,828740.700000003,7045,WL,C,14.0
5,42.670000076293945,learn,60000.0,Wed Mar 19 2025 13:43:09 GMT-0500 (Central Daylight Time),833405.700000003,A,nail,O,l,243,1,4665.0,828740.700000003,7045,WL,C,14.0
5,42.986000061035156,learn,60000.0,Wed Mar 19 2025 13:43:09 GMT-0500 (Central Daylight Time),833722.5,A,nailenter,O,enter,306,1,4981.79999999702,828740.700000003,7045,WL,C,14.0
5,43.3199999332428,learn,60000.0,Wed Mar 19 2025 13:43:09 GMT-0500 (Central Daylight Time),834055.6000000015,A,l,O,l,323,1,332.79999999701977,833722.8000000045,7045,WL,C,15.0
5,43.51900005340576,learn,60000.0,Wed Mar 19 2025 13:43:09 GMT-0500 (Central Daylight Time),834255.5,A,le,O,e,192,1,532.6999999955297,833722.8000000045,7045,WL,C,15.0
5,43.65299987792969,learn,60000.0,Wed Mar 19 2025 13:43:09 GMT-0500 (Central Daylight Time),834388.700000003,A,let,O,t,127,1,665.8999999985099,833722.8000000045,7045,WL,C,15.0
5,43.854000091552734,learn,60000.0,Wed Mar 19 2025 13:43:09 GMT-0500 (Central Daylight Time),834590.0,A,lett,O,t,195,1,867.1999999955297,833722.8000000045,7045,WL,C,15.0
5,44.085999965667725,learn,60000.0,Wed Mar 19 2025 13:43:09 GMT-0500 (Central Daylight Time),834821.8000000045,A,lette,O,e,216,1,1099.0,833722.8000000045,7045,WL,C,15.0
5,44.168999910354614,learn,60000.0,Wed Mar 19 2025 13:43:09 GMT-0500 (Central Daylight Time),834905.1000000015,A,letter,O,r,72,1,1182.2999999970198,833722.8000000045,7045,WL,C,15.0
5,44.3529999256134,learn,60000.0,Wed Mar 19 2025 13:43:09 GMT-0500 (Central Daylight Time),835088.6000000015,A,letterenter,O,enter,165,1,1365.7999999970198,833722.8000000045,7045,WL,C,15.0
6,0.8659999370574951,distr,59134.000062942505,Wed Mar 19 2025 13:43:09 GMT-0500 (Central Daylight Time),918429.1000000015,B,s,O,s,852,1,866.2999999970198,917562.8000000045,7045,WL,C,1.0
6,1.1340000629425049,distr,58865.999937057495,Wed Mar 19 2025 13:43:09 GMT-0500 (Central Daylight Time),918696.6000000015,B,sk,O,k,250,1,1133.7999999970198,917562.8000000045,7045,WL,C,1.0
6,1.499000072479248,distr,58500.99992752075,Wed Mar 19 2025 13:43:09 GMT-0500 (Central Daylight Time),919062.400000006,B,sky,O,y,358,1,1499.6000000014901,917562.8000000045,7045,WL,C,1.0
6,1.815999984741211,distr,58184.00001525879,Wed Mar 19 2025 13:43:09 GMT-0500 (Central Daylight Time),919378.900000006,B,skyenter,O,enter,296,1,1816.1000000014901,917562.8000000045,7045,WL,C,1.0
6,2.615999937057495,distr,57384.000062942505,Wed Mar 19 2025 13:43:09 GMT-0500 (Central Daylight Time),920178.700000003,B,d,O,d,788,1,799.5,919379.200000003,7045,WL,C,2.0
6,2.7820000648498535,distr,57217.99993515015,Wed Mar 19 2025 13:43:09 GMT-0500 (Central Daylight Time),920345.3000000045,B,di,O,i,156,1,966.1000000014901,919379.200000003,7045,WL,C,2.0
6,2.9160001277923584,distr,57083.99987220764,Wed Mar 19 2025 13:43:09 GMT-0500 (Central Daylight Time),920478.700000003,B,dia,O,a,118,1,1099.5,919379.200000003,7045,WL,C,2.0
6,3.365999937057495,distr,56634.000062942505,Wed Mar 19 2025 13:43:09 GMT-0500 (Central Daylight Time),920928.6000000015,B,diam,O,m,440,1,1549.3999999985099,919379.200000003,7045,WL,C,2.0
6,3.5490000247955322,distr,56450.99997520447,Wed Mar 19 2025 13:43:09 GMT-0500 (Central Daylight Time),921111.700000003,B,diamo,O,o,167,1,1732.5,919379.200000003,7045,WL,C,2.0
6,3.7149999141693115,distr,56285.00008583069,Wed Mar 19 2025 13:43:09 GMT-0500 (Central Daylight Time),921278.400000006,B,diamon,O,n,159,1,1899.2000000029802,919379.200000003,7045,WL,C,2.0
6,3.9820001125335693,distr,56017.99988746643,Wed Mar 19 2025 13:43:09 GMT-0500 (Central Daylight Time),921544.700000003,B,diamond,O,d,256,1,2165.5,919379.200000003,7045,WL,C,2.0
6,4.2149999141693115,distr,55785.00008583069,Wed Mar 19 2025 13:43:09 GMT-0500 (Central Daylight Time),921778.1000000015,B,diamondenter,O,enter,221,1,2398.89999999851,919379.200000003,7045,WL,C,2.0
6,6.582000017166138,distr,53417.99998283386,Wed Mar 19 2025 13:43:09 GMT-0500 (Central Daylight Time),924145.3000000045,B,m,O,m,2357,1,2366.89999999851,921778.400000006,7045,WL,C,3.0
6,6.746999979019165,distr,53253.000020980835,Wed Mar 19 2025 13:43:09 GMT-0500 (Central Daylight Time),924310.5,B,mo,O,o,150,1,2532.0999999940395,921778.400000006,7045,WL,C,3.0
6,6.96399998664856,distr,53036.00001335144,Wed Mar 19 2025 13:43:09 GMT-0500 (Central Daylight Time),924527.3000000045,B,mot,O,t,208,1,2748.89999999851,921778.400000006,7045,WL,C,3.0
6,7.063999891281128,distr,52936.00010871887,Wed Mar 19 2025 13:43:09 GMT-0500 (Central Daylight Time),924627.1000000015,B,moth,O,h,87,1,2848.6999999955297,921778.400000006,7045,WL,C,3.0
6,7.197999954223633,distr,52802.00004577637,Wed Mar 19 2025 13:43:09 GMT-0500 (Central Daylight Time),924760.5,B,mothe,O,e,123,1,2982.0999999940395,921778.400000006,7045,WL,C,3.0
6,7.313999891281128,distr,52686.00010871887,Wed Mar 19 2025 13:43:09 GMT-0500 (Central Daylight Time),924877.1000000015,B,mother,O,r,102,1,3098.6999999955297,921778.400000006,7045,WL,C,3.0
6,7.581000089645386,distr,52418.999910354614,Wed Mar 19 2025 13:43:09 GMT-0500 (Central Daylight Time),925143.700000003,B,motherenter,O,enter,250,1,3365.2999999970198,921778.400000006,7045,WL,C,3.0
6,12.796000003814697,distr,47203.9999961853,Wed Mar 19 2025 13:43:09 GMT-0500 (Central Daylight Time),930359.0,B,b,O,b,5208,1,5214.89999999851,925144.1000000015,7045,WL,C,4.0
6,12.946000099182129,distr,47053.99990081787,Wed Mar 19 2025 13:43:09 GMT-0500 (Central Daylight Time),930508.8000000045,B,bu,O,u,135,1,5364.70000000298,925144.1000000015,7045,WL,C,4.0
6,13.144999980926514,distr,46855.000019073486,Wed Mar 19 2025 13:43:09 GMT-0500 (Central Daylight Time),930708.5,B,but,O,t,195,1,5564.39999999851,925144.1000000015,7045,WL,C,4.0
6,13.312000036239624,distr,46687.999963760376,Wed Mar 19 2025 13:43:09 GMT-0500 (Central Daylight Time),930875.200000003,B,butt,O,t,146,1,5731.10000000149,925144.1000000015,7045,WL,C,4.0
6,13.52999997138977,distr,46470.00002861023,Wed Mar 19 2025 13:43:09 GMT-0500 (Central Daylight Time),931093.0,B,butte,O,e,203,1,5948.89999999851,925144.1000000015,7045,WL,C,4.0
6,13.628999948501587,distr,46371.00005149841,Wed Mar 19 2025 13:43:09 GMT-0500 (Central Daylight Time),931192.0,B,butter,O,r,89,1,6047.89999999851,925144.1000000015,7045,WL,C,4.0
6,14.105000019073486,distr,45894.999980926514,Wed Mar 19 2025 13:43:09 GMT-0500 (Central Daylight Time),931667.8000000045,B,butterenter,O,enter,324,1,6523.70000000298,925144.1000000015,7045,WL,C,4.0
6,40.354000091552734,distr,19645.999908447266,Wed Mar 19 2025 13:43:09 GMT-0500 (Central Daylight Time),957916.5,B,enter,O,enter,26242,1,26248.09999999404,931668.400000006,7045,WL,C,5.0
6,60.015000104904175,distr,-15.000104904174805,Wed Mar 19 2025 13:43:09 GMT-0500 (Central Daylight Time),977578.6000000015,B,None,O,None,19657,1,19661.79999999702,957916.8000000045,7045,WL,C,6.0
7,1.317000150680542,immed,58682.99984931946,Wed Mar 19 2025 13:43:09 GMT-0500 (Central Daylight Time),997388.1000000015,A,t,O,t,1312,1,1316.1999999955297,996071.900000006,7045,WL,C,1.0
7,1.6160001754760742,immed,58383.999824523926,Wed Mar 19 2025 13:43:09 GMT-0500 (Central Daylight Time),997687.700000003,A,to,O,o,290,1,1615.7999999970198,996071.900000006,7045,WL,C,1.0
7,1.7990000247955322,immed,58200.99997520447,Wed Mar 19 2025 13:43:09 GMT-0500 (Central Daylight Time),997870.8000000045,A,tow,O,w,175,1,1798.8999999985099,996071.900000006,7045,WL,C,1.0
7,1.9830000400543213,immed,58016.99995994568,Wed Mar 19 2025 13:43:09 GMT-0500 (Central Daylight Time),998054.200000003,A,towe,O,e,176,1,1982.2999999970198,996071.900000006,7045,WL,C,1.0
7,2.1490001678466797,immed,57850.99983215332,Wed Mar 19 2025 13:43:09 GMT-0500 (Central Daylight Time),998220.8000000045,A,tower,O,r,160,1,2148.89999999851,996071.900000006,7045,WL,C,1.0
7,2.8490002155303955,immed,57150.999784469604,Wed Mar 19 2025 13:43:09 GMT-0500 (Central Daylight Time),998920.6000000015,A,towerenter,O,enter,691,1,2848.6999999955297,996071.900000006,7045,WL,C,1.0
7,5.482000112533569,immed,54517.99988746643,Wed Mar 19 2025 13:43:09 GMT-0500 (Central Daylight Time),1001553.200000003,A,w,O,w,2614,1,2632.2999999970198,998920.900000006,7045,WL,C,2.0
7,5.648000001907349,immed,54351.99999809265,Wed Mar 19 2025 13:43:09 GMT-0500 (Central Daylight Time),1001719.900000006,A,wh,O,h,158,1,2799.0,998920.900000006,7045,WL,C,2.0
7,5.748000144958496,immed,54251.999855041504,Wed Mar 19 2025 13:43:09 GMT-0500 (Central Daylight Time),1001820.0,A,whe,O,e,80,1,2899.0999999940395,998920.900000006,7045,WL,C,2.0
7,5.88100004196167,immed,54118.99995803833,Wed Mar 19 2025 13:43:09 GMT-0500 (Central Daylight Time),1001952.900000006,A,whea,O,a,123,1,3032.0,998920.900000006,7045,WL,C,2.0
7,6.226000070571899,immed,53773.9999294281,Wed Mar 19 2025 13:43:09 GMT-0500 (Central Daylight Time),1002297.900000006,A,wheat,O,t,193,1,3377.0,998920.900000006,7045,WL,C,2.0
7,6.430999994277954,immed,53569.000005722046,Wed Mar 19 2025 13:43:09 GMT-0500 (Central Daylight Time),1002502.700000003,A,wheatenter,O,enter,196,1,3581.7999999970198,998920.900000006,7045,WL,C,2.0
7,7.564000129699707,immed,52435.99987030029,Wed Mar 19 2025 13:43:09 GMT-0500 (Central Daylight Time),1003635.900000006,A,q,O,q,1120,1,1133.0,1002502.900000006,7045,WL,C,3.0
7,7.764000177383423,immed,52235.99982261658,Wed Mar 19 2025 13:43:09 GMT-0500 (Central Daylight Time),1003835.900000006,A,qu,O,u,195,1,1333.0,1002502.900000006,7045,WL,C,3.0
7,7.981000185012817,immed,52018.99981498718,Wed Mar 19 2025 13:43:09 GMT-0500 (Central Daylight Time),1004052.200000003,A,que,O,e,212,1,1549.2999999970198,1002502.900000006,7045,WL,C,3.0
7,8.331000089645386,immed,51668.999910354614,Wed Mar 19 2025 13:43:09 GMT-0500 (Central Daylight Time),1004402.5,A,quee,O,e,339,1,1899.5999999940395,1002502.900000006,7045,WL,C,3.0
7,8.48200011253357,immed,51517.99988746643,Wed Mar 19 2025 13:43:09 GMT-0500 (Central Daylight Time),1004553.6000000015,A,queen,O,n,139,1,2050.6999999955297,1002502.900000006,7045,WL,C,3.0
7,8.814000129699707,immed,51185.99987030029,Wed Mar 19 2025 13:43:09 GMT-0500 (Central Daylight Time),1004885.6000000015,A,queenenter,O,enter,318,1,2382.6999999955297,1002502.900000006,7045,WL,C,3.0
7,9.430999994277954,immed,50569.000005722046,Wed Mar 19 2025 13:43:09 GMT-0500 (Central Daylight Time),1005502.0,A,s,O,s,610,1,616.0999999940395,1004885.900000006,7045,WL,C,4.0
7,9.814000129699707,immed,50185.99987030029,Wed Mar 19 2025 13:43:09 GMT-0500 (Central Daylight Time),1005885.1000000015,A,su,O,u,377,1,999.1999999955297,1004885.900000006,7045,WL,C,4.0
7,10.198000192642212,immed,49801.99980735779,Wed Mar 19 2025 13:43:09 GMT-0500 (Central Daylight Time),1006269.5,A,sug,O,g,378,1,1383.5999999940395,1004885.900000006,7045,WL,C,4.0
7,10.397000074386597,immed,49602.9999256134,Wed Mar 19 2025 13:43:09 GMT-0500 (Central Daylight Time),1006468.0,A,suga,O,a,193,1,1582.0999999940395,1004885.900000006,7045,WL,C,4.0
7,10.731000185012817,immed,49268.99981498718,Wed Mar 19 2025 13:43:09 GMT-0500 (Central Daylight Time),1006802.6000000015,A,sugar,O,r,314,1,1916.6999999955297,1004885.900000006,7045,WL,C,4.0
7,11.147000074386597,immed,48852.9999256134,Wed Mar 19 2025 13:43:09 GMT-0500 (Central Daylight Time),1007218.1000000015,A,sugarenter,O,enter,397,1,2332.1999999955297,1004885.900000006,7045,WL,C,4.0
7,12.213000059127808,immed,47786.99994087219,Wed Mar 19 2025 13:43:09 GMT-0500 (Central Daylight Time),1008284.400000006,A,f,O,f,1053,1,1066.0,1007218.400000006,7045,WL,C,5.0
7,12.446000099182129,immed,47553.99990081787,Wed Mar 19 2025 13:43:09 GMT-0500 (Central Daylight Time),1008517.8000000045,A,fl,O,l,218,1,1299.3999999985099,1007218.400000006,7045,WL,C,5.0
7,12.629000186920166,immed,47370.999813079834,Wed Mar 19 2025 13:43:09 GMT-0500 (Central Daylight Time),1008700.900000006,A,fla,O,a,169,1,1482.5,1007218.400000006,7045,WL,C,5.0
7,13.146000146865845,immed,46853.999853134155,Wed Mar 19 2025 13:43:09 GMT-0500 (Central Daylight Time),1009217.400000006,A,flag,O,g,498,1,1999.0,1007218.400000006,7045,WL,C,5.0
7,13.546000003814697,immed,46453.9999961853,Wed Mar 19 2025 13:43:09 GMT-0500 (Central Daylight Time),1009617.400000006,A,flagenter,O,enter,390,1,2399.0,1007218.400000006,7045,WL,C,5.0
7,14.046000003814697,immed,45953.9999961853,Wed Mar 19 2025 13:43:09 GMT-0500 (Central Daylight Time),1010117.3000000045,A,c,O,c,494,1,499.6000000014901,1009617.700000003,7045,WL,C,6.0
7,14.196000099182129,immed,45803.99990081787,Wed Mar 19 2025 13:43:09 GMT-0500 (Central Daylight Time),1010267.0,A,ca,O,a,129,1,649.2999999970198,1009617.700000003,7045,WL,C,6.0
7,14.379000186920166,immed,45620.999813079834,Wed Mar 19 2025 13:43:09 GMT-0500 (Central Daylight Time),1010450.5,A,cam,O,m,164,1,832.7999999970198,1009617.700000003,7045,WL,C,6.0
7,14.578999996185303,immed,45421.0000038147,Wed Mar 19 2025 13:43:09 GMT-0500 (Central Daylight Time),1010650.5,A,camp,O,p,188,1,1032.7999999970198,1009617.700000003,7045,WL,C,6.0
7,15.279000043869019,immed,44720.99995613098,Wed Mar 19 2025 13:43:09 GMT-0500 (Central Daylight Time),1011350.1000000015,A,campenter,O,enter,693,1,1732.3999999985099,1009617.700000003,7045,WL,C,6.0
7,16.66100001335144,immed,43338.99998664856,Wed Mar 19 2025 13:43:09 GMT-0500 (Central Daylight Time),1012732.8000000045,A,h,O,h,1370,1,1382.3999999985099,1011350.400000006,7045,WL,C,7.0
7,16.812000036239624,immed,43187.999963760376,Wed Mar 19 2025 13:43:09 GMT-0500 (Central Daylight Time),1012883.1000000015,A,ho,O,o,138,1,1532.6999999955297,1011350.400000006,7045,WL,C,7.0
7,17.045000076293945,immed,42954.999923706055,Wed Mar 19 2025 13:43:09 GMT-0500 (Central Daylight Time),1013116.200000003,A,hom,O,m,229,1,1765.7999999970198,1011350.400000006,7045,WL,C,7.0
7,17.311000108718872,immed,42688.99989128113,Wed Mar 19 2025 13:43:09 GMT-0500 (Central Daylight Time),1013382.8000000045,A,home,O,e,251,1,2032.3999999985099,1011350.400000006,7045,WL,C,7.0
7,17.528000116348267,immed,42471.99988365173,Wed Mar 19 2025 13:43:09 GMT-0500 (Central Daylight Time),1013599.5,A,homeenter,O,enter,209,1,2249.0999999940395,1011350.400000006,7045,WL,C,7.0
7,18.444000005722046,immed,41555.999994277954,Wed Mar 19 2025 13:43:09 GMT-0500 (Central Daylight Time),1014516.0,A,b,O,b,912,1,916.1999999955297,1013599.8000000045,7045,WL,C,8.0
7,18.57800006866455,immed,41421.99993133545,Wed Mar 19 2025 13:43:09 GMT-0500 (Central Daylight Time),1014649.1000000015,A,bo,O,o,116,1,1049.2999999970198,1013599.8000000045,7045,WL,C,8.0
7,18.794000148773193,immed,41205.99985122681,Wed Mar 19 2025 13:43:09 GMT-0500 (Central Daylight Time),1014865.8000000045,A,boy,O,y,198,1,1266.0,1013599.8000000045,7045,WL,C,8.0
7,19.127000093460083,immed,40872.99990653992,Wed Mar 19 2025 13:43:09 GMT-0500 (Central Daylight Time),1015198.8000000045,A,boyenter,O,enter,317,1,1599.0,1013599.8000000045,7045,WL,C,8.0
7,24.276000022888184,immed,35723.99997711182,Wed Mar 19 2025 13:43:09 GMT-0500 (Central Daylight Time),1020347.3000000045,A,b,O,b,5129,1,5148.20000000298,1015199.1000000015,7045,WL,C,9.0
7,24.427000045776367,immed,35572.99995422363,Wed Mar 19 2025 13:43:09 GMT-0500 (Central Daylight Time),1020498.400000006,A,bo,O,o,140,1,5299.30000000447,1015199.1000000015,7045,WL,C,9.0
7,24.659000158309937,immed,35340.99984169006,Wed Mar 19 2025 13:43:09 GMT-0500 (Central Daylight Time),1020730.700000003,A,bod,O,d,221,1,5531.60000000149,1015199.1000000015,7045,WL,C,9.0
7,24.80900001525879,immed,35190.99998474121,Wed Mar 19 2025 13:43:09 GMT-0500 (Central Daylight Time),1020880.400000006,A,body,O,y,133,1,5681.30000000447,1015199.1000000015,7045,WL,C,9.0
7,25.058000087738037,immed,34941.99991226196,Wed Mar 19 2025 13:43:09 GMT-0500 (Central Daylight Time),1021130.3000000045,A,bodyenter,O,enter,239,1,5931.20000000298,1015199.1000000015,7045,WL,C,9.0
7,25.558000087738037,immed,34441.99991226196,Wed Mar 19 2025 13:43:09 GMT-0500 (Central Daylight Time),1021630.1000000015,A,d,O,d,493,1,499.5,1021130.6000000015,7045,WL,C,10.0
7,25.70800018310547,immed,34291.99981689453,Wed Mar 19 2025 13:43:09 GMT-0500 (Central Daylight Time),1021780.1000000015,A,do,O,o,137,1,649.5,1021130.6000000015,7045,WL,C,10.0
7,25.926000118255615,immed,34073.999881744385,Wed Mar 19 2025 13:43:09 GMT-0500 (Central Daylight Time),1021997.8000000045,A,doc,O,c,211,1,867.2000000029802,1021130.6000000015,7045,WL,C,10.0
7,26.20800018310547,immed,33791.99981689453,Wed Mar 19 2025 13:43:09 GMT-0500 (Central Daylight Time),1022280.200000003,A,doct,O,t,273,1,1149.6000000014901,1021130.6000000015,7045,WL,C,10.0
7,26.392000198364258,immed,33607.99980163574,Wed Mar 19 2025 13:43:09 GMT-0500 (Central Daylight Time),1022463.400000006,A,docto,O,o,174,1,1332.8000000044703,1021130.6000000015,7045,WL,C,10.0
7,26.558000087738037,immed,33441.99991226196,Wed Mar 19 2025 13:43:09 GMT-0500 (Central Daylight Time),1022629.8000000045,A,doctor,O,r,159,1,1499.2000000029802,1021130.6000000015,7045,WL,C,10.0
7,26.808000087738037,immed,33191.99991226196,Wed Mar 19 2025 13:43:09 GMT-0500 (Central Daylight Time),1022879.8000000045,A,doctorenter,O,enter,242,1,1749.2000000029802,1021130.6000000015,7045,WL,C,10.0
7,29.76900005340576,immed,30230.99994659424,Wed Mar 19 2025 13:43:09 GMT-0500 (Central Daylight Time),1025840.6000000015,A,c,O,c,2956,1,2960.5,1022880.1000000015,7045,WL,C,11.0
7,29.85700011253357,immed,30142.99988746643,Wed Mar 19 2025 13:43:09 GMT-0500 (Central Daylight Time),1025928.700000003,A,ca,O,a,79,1,3048.60000000149,1022880.1000000015,7045,WL,C,11.0
7,29.990000009536743,immed,30009.999990463257,Wed Mar 19 2025 13:43:09 GMT-0500 (Central Daylight Time),1026062.1000000015,A,cam,O,m,115,1,3182.0,1022880.1000000015,7045,WL,C,11.0
7,30.257000207901,immed,29742.999792099,Wed Mar 19 2025 13:43:09 GMT-0500 (Central Daylight Time),1026328.700000003,A,camp,O,p,257,1,3448.60000000149,1022880.1000000015,7045,WL,C,11.0
7,30.69000005722046,immed,29309.99994277954,Wed Mar 19 2025 13:43:09 GMT-0500 (Central Daylight Time),1026762.0,A,campenter,O,enter,423,1,3881.89999999851,1022880.1000000015,7045,WL,C,11.0
7,34.7720000743866,immed,25227.999925613403,Wed Mar 19 2025 13:43:09 GMT-0500 (Central Daylight Time),1030844.0,A,n,O,n,4078,1,4081.5999999940395,1026762.400000006,7045,WL,C,12.0
7,34.956000089645386,immed,25043.999910354614,Wed Mar 19 2025 13:43:09 GMT-0500 (Central Daylight Time),1031027.400000006,A,na,O,a,171,1,4265.0,1026762.400000006,7045,WL,C,12.0
7,35.122000217437744,immed,24877.999782562256,Wed Mar 19 2025 13:43:09 GMT-0500 (Central Daylight Time),1031193.900000006,A,nai,O,i,147,1,4431.5,1026762.400000006,7045,WL,C,12.0
7,35.33900022506714,immed,24660.99977493286,Wed Mar 19 2025 13:43:09 GMT-0500 (Central Daylight Time),1031410.6000000015,A,nail,O,l,197,1,4648.19999999553,1026762.400000006,7045,WL,C,12.0
7,35.622000217437744,immed,24377.999782562256,Wed Mar 19 2025 13:43:09 GMT-0500 (Central Daylight Time),1031693.700000003,A,nailenter,O,enter,269,1,4931.29999999702,1026762.400000006,7045,WL,C,12.0
7,48.485000133514404,immed,11514.999866485596,Wed Mar 19 2025 13:43:09 GMT-0500 (Central Daylight Time),1044556.400000006,A,h,O,h,12842,1,12862.40000000596,1031694.0,7045,WL,C,13.0
7,48.635000228881836,immed,11364.999771118164,Wed Mar 19 2025 13:43:09 GMT-0500 (Central Daylight Time),1044706.8000000045,A,ho,O,o,130,1,13012.80000000447,1031694.0,7045,WL,C,13.0
7,48.885000228881836,immed,11114.999771118164,Wed Mar 19 2025 13:43:09 GMT-0500 (Central Daylight Time),1044956.400000006,A,hom,O,m,236,1,13262.40000000596,1031694.0,7045,WL,C,13.0
7,49.11800003051758,immed,10881.999969482422,Wed Mar 19 2025 13:43:09 GMT-0500 (Central Daylight Time),1045189.8000000045,A,home,O,e,219,1,13495.80000000447,1031694.0,7045,WL,C,13.0
7,49.36800003051758,immed,10631.999969482422,Wed Mar 19 2025 13:43:09 GMT-0500 (Central Daylight Time),1045439.700000003,A,homeenter,O,enter,241,1,13745.70000000298,1031694.0,7045,WL,C,13.0
7,49.68400001525879,immed,10315.999984741211,Wed Mar 19 2025 13:43:09 GMT-0500 (Central Daylight Time),1045756.0,A,l,O,l,303,1,316.0,1045440.0,7045,WL,C,14.0
7,49.8510000705719,immed,10148.9999294281,Wed Mar 19 2025 13:43:09 GMT-0500 (Central Daylight Time),1045922.700000003,A,le,O,e,146,1,482.70000000298023,1045440.0,7045,WL,C,14.0
7,49.967000007629395,immed,10032.999992370605,Wed Mar 19 2025 13:43:09 GMT-0500 (Central Daylight Time),1046039.200000003,A,let,O,t,100,1,599.2000000029802,1045440.0,7045,WL,C,14.0
7,50.16700005531311,immed,9832.99994468689,Wed Mar 19 2025 13:43:09 GMT-0500 (Central Daylight Time),1046239.1000000015,A,lett,O,t,184,1,799.1000000014901,1045440.0,7045,WL,C,14.0
7,50.3510000705719,immed,9648.9999294281,Wed Mar 19 2025 13:43:09 GMT-0500 (Central Daylight Time),1046422.700000003,A,lette,O,e,168,1,982.7000000029802,1045440.0,7045,WL,C,14.0
7,50.45100021362305,immed,9548.999786376953,Wed Mar 19 2025 13:43:09 GMT-0500 (Central Daylight Time),1046522.5,A,letter,O,r,89,1,1082.5,1045440.0,7045,WL,C,14.0
7,50.651000022888184,immed,9348.999977111816,Wed Mar 19 2025 13:43:09 GMT-0500 (Central Daylight Time),1046722.5,A,letterenter,O,enter,180,1,1282.5,1045440.0,7045,WL,C,14.0
7,57.932000160217285,immed,2067.999839782715,Wed Mar 19 2025 13:43:09 GMT-0500 (Central Daylight Time),1054004.1000000015,A,b,O,b,7277,1,7281.29999999702,1046722.8000000045,7045,WL,C,15.0
7,58.098000049591064,immed,1901.9999504089355,Wed Mar 19 2025 13:43:09 GMT-0500 (Central Daylight Time),1054170.0,A,bo,O,o,147,1,7447.19999999553,1046722.8000000045,7045,WL,C,15.0
7,58.48200011253357,immed,1517.9998874664307,Wed Mar 19 2025 13:43:09 GMT-0500 (Central Daylight Time),1054553.5,A,boy,O,y,365,1,7830.69999999553,1046722.8000000045,7045,WL,C,15.0
7,59.54800009727478,immed,451.9999027252197,Wed Mar 19 2025 13:43:09 GMT-0500 (Central Daylight Time),1055619.6000000015,A,boyenter,O,enter,1045,1,8896.79999999702,1046722.8000000045,7045,WL,C,15.0
