acc_sum,block,block_c,block_cond,con_img,correct,correct_response,datetime,endtime,face,jitter,line,project,response,response_time,row_sel,session_number,start_end,starttime,subject_id,task,task_vers,trial
1,prac,1,A,haborder.png,1,m,Tue Apr 29 2025 10:39:56 GMT-0400 (Eastern Daylight Time),60615.199999809265,CFD-WM-012-007-HC.jpg,1700,solid,I,m,637,9,1,3150.0,57465.199999809265,9015,ATS,B,1
2,prac,1,A,haborder.png,1,m,Tue Apr 29 2025 10:39:56 GMT-0400 (Eastern Daylight Time),63965.199999809265,CFD-BF-035-007-HC.jpg,2000,solid,I,m,548,5,1,6500.0,57465.199999809265,9015,ATS,B,2
3,prac,1,A,haborder.png,1,z,Tue Apr 29 2025 10:39:56 GMT-0400 (Eastern Daylight Time),66848.69999980927,CFD-WF-026-008-A.jpg,1600,solid,I,z,477,10,1,9383.5,57465.199999809265,9015,ATS,B,3
4,prac,1,A,haborder.png,1,m,Tue Apr 29 2025 10:39:56 GMT-0400 (Eastern Daylight Time),69881.4000005722,CFD-BM-015-017-HC.jpg,1700,solid,I,m,519,1,1,12416.20000076294,57465.199999809265,9015,ATS,B,4
5,prac,1,A,haborder.png,1,m,Tue Apr 29 2025 10:39:56 GMT-0400 (Eastern Daylight Time),72715.10000038147,CFD-WF-011-006-HC.jpg,1500,solid,I,m,533,11,1,15249.900000572205,57465.199999809265,9015,ATS,B,5
6,prac,1,A,haborder.png,1,z,Tue Apr 29 2025 10:39:56 GMT-0400 (Eastern Daylight Time),74998.4000005722,CFD-WF-013-015-A.jpg,1000,solid,I,z,472,12,1,17533.20000076294,57465.199999809265,9015,ATS,B,6
7,prac,1,A,haborder.png,1,m,Tue Apr 29 2025 10:39:56 GMT-0400 (Eastern Daylight Time),77848.4000005722,CFD-BM-020-024-HC.jpg,1500,solid,I,m,536,3,1,20383.20000076294,57465.199999809265,9015,ATS,B,7
8,prac,1,A,haborder.png,1,z,Tue Apr 29 2025 10:39:56 GMT-0400 (Eastern Daylight Time),81131.80000019073,CFD-BM-037-041-A.jpg,1600,solid,I,z,914,2,1,23666.60000038147,57465.199999809265,9015,ATS,B,8
9,prac,1,A,haborder.png,1,z,Tue Apr 29 2025 10:39:56 GMT-0400 (Eastern Daylight Time),84848.4000005722,CFD-WM-009-009-A.jpg,1900,solid,I,z,1011,8,1,27383.20000076294,57465.199999809265,9015,ATS,B,9
10,prac,1,A,haborder.png,1,z,Tue Apr 29 2025 10:39:56 GMT-0400 (Eastern Daylight Time),87431.69999980927,CFD-BF-051-043-A.jpg,1000,solid,I,z,771,4,1,29966.5,57465.199999809265,9015,ATS,B,10
11,prac,1,A,haborder.png,1,z,Tue Apr 29 2025 10:39:56 GMT-0400 (Eastern Daylight Time),90465.19999980927,CFD-BF-050-012-A.jpg,1200,solid,I,z,1027,6,1,33000.0,57465.199999809265,9015,ATS,B,11
12,prac,1,A,haborder.png,1,m,Tue Apr 29 2025 10:39:56 GMT-0400 (Eastern Daylight Time),93248.4000005722,CFD-WM-011-006-HC.jpg,1400,solid,I,m,594,7,1,35783.20000076294,57465.199999809265,9015,ATS,B,12
1,prac,1,B,mfborder.png,1,m,Tue Apr 29 2025 10:39:56 GMT-0400 (Eastern Daylight Time),117365.0,CFD-WM-012-007-HC.jpg,1600,dash,I,m,524,10,1,2933.300000190735,114431.69999980927,9015,ATS,B,1
2,prac,1,B,mfborder.png,1,m,Tue Apr 29 2025 10:39:56 GMT-0400 (Eastern Daylight Time),120031.60000038147,CFD-WM-037-060-A.jpg,1200,dash,I,m,661,6,1,5599.900000572205,114431.69999980927,9015,ATS,B,2
3,prac,1,B,mfborder.png,1,z,Tue Apr 29 2025 10:39:56 GMT-0400 (Eastern Daylight Time),123181.60000038147,CFD-WF-027-007-HC.jpg,1900,dash,I,z,447,8,1,8749.900000572205,114431.69999980927,9015,ATS,B,3
4,prac,1,B,mfborder.png,1,m,Tue Apr 29 2025 10:39:56 GMT-0400 (Eastern Daylight Time),126115.0,CFD-BM-041-048-A.jpg,1600,dash,I,m,525,2,1,11683.300000190735,114431.69999980927,9015,ATS,B,4
5,prac,1,B,mfborder.png,1,m,Tue Apr 29 2025 10:39:56 GMT-0400 (Eastern Daylight Time),129115.0,CFD-WM-009-009-A.jpg,1700,dash,I,m,483,9,1,14683.300000190735,114431.69999980927,9015,ATS,B,5
6,prac,1,B,mfborder.png,1,z,Tue Apr 29 2025 10:39:56 GMT-0400 (Eastern Daylight Time),131415.10000038147,CFD-WF-011-006-HC.jpg,1000,dash,I,z,486,12,1,16983.400000572205,114431.69999980927,9015,ATS,B,6
7,prac,1,B,mfborder.png,1,z,Tue Apr 29 2025 10:39:56 GMT-0400 (Eastern Daylight Time),134148.19999980927,CFD-WF-026-008-A.jpg,1500,dash,I,z,423,11,1,19716.5,114431.69999980927,9015,ATS,B,7
8,prac,1,B,mfborder.png,1,z,Tue Apr 29 2025 10:39:56 GMT-0400 (Eastern Daylight Time),136915.0,CFD-BF-027-013-HC.jpg,1500,dash,I,z,458,3,1,22483.300000190735,114431.69999980927,9015,ATS,B,8
9,prac,1,B,mfborder.png,1,m,Tue Apr 29 2025 10:39:56 GMT-0400 (Eastern Daylight Time),139948.19999980927,CFD-BM-020-024-HC.jpg,1700,dash,I,m,516,1,1,25516.5,114431.69999980927,9015,ATS,B,9
10,prac,1,B,mfborder.png,1,z,Tue Apr 29 2025 10:39:56 GMT-0400 (Eastern Daylight Time),142364.80000019073,CFD-BF-051-043-A.jpg,1000,dash,I,z,630,4,1,27933.10000038147,114431.69999980927,9015,ATS,B,10
11,prac,1,B,mfborder.png,1,z,Tue Apr 29 2025 10:39:56 GMT-0400 (Eastern Daylight Time),145264.80000019073,CFD-BF-035-007-HC.jpg,1400,dash,I,z,693,7,1,30833.10000038147,114431.69999980927,9015,ATS,B,11
12,prac,1,B,mfborder.png,1,m,Tue Apr 29 2025 10:39:56 GMT-0400 (Eastern Daylight Time),148648.30000019073,CFD-BM-037-041-A.jpg,2000,dash,I,m,569,5,1,34216.60000038147,114431.69999980927,9015,ATS,B,12
1,test,1,A,haborder.png,1,z,Tue Apr 29 2025 10:39:56 GMT-0400 (Eastern Daylight Time),171798.30000019073,CFD-WM-009-009-A.jpg,1900,solid,I,z,573,8,1,2516.800000190735,169281.5,9015,ATS,B,1
2,test,1,A,haborder.png,1,z,Tue Apr 29 2025 10:39:56 GMT-0400 (Eastern Daylight Time),174198.30000019073,CFD-BM-037-041-A.jpg,1600,solid,I,z,773,2,1,4916.800000190735,169281.5,9015,ATS,B,2
3,test,1,A,haborder.png,1,m,Tue Apr 29 2025 10:39:56 GMT-0400 (Eastern Daylight Time),176414.69999980927,CFD-WM-012-007-HC.jpg,1700,solid,I,m,497,9,1,7133.199999809265,169281.5,9015,ATS,B,3
4,test,1,A,haborder.png,1,z,Tue Apr 29 2025 10:39:56 GMT-0400 (Eastern Daylight Time),178848.0,CFD-WM-009-009-A.jpg,1900,solid,I,z,512,8,1,9566.5,169281.5,9015,ATS,B,4
5,test,1,A,haborder.png,1,m,Tue Apr 29 2025 10:39:56 GMT-0400 (Eastern Daylight Time),180881.4000005722,CFD-WF-011-006-HC.jpg,1500,solid,I,m,494,11,1,11599.900000572205,169281.5,9015,ATS,B,5
6,test,1,A,haborder.png,1,m,Tue Apr 29 2025 10:39:56 GMT-0400 (Eastern Daylight Time),182898.10000038147,CFD-WF-011-006-HC.jpg,1500,solid,I,m,493,11,1,13616.60000038147,169281.5,9015,ATS,B,6
7,test,1,A,haborder.png,1,m,Tue Apr 29 2025 10:39:56 GMT-0400 (Eastern Daylight Time),185064.80000019073,CFD-WM-012-007-HC.jpg,1700,solid,I,m,437,9,1,15783.300000190735,169281.5,9015,ATS,B,7
8,test,1,A,haborder.png,1,z,Tue Apr 29 2025 10:39:56 GMT-0400 (Eastern Daylight Time),186948.10000038147,CFD-BF-050-012-A.jpg,1200,solid,I,z,658,6,1,17666.60000038147,169281.5,9015,ATS,B,8
9,test,1,A,haborder.png,1,z,Tue Apr 29 2025 10:39:56 GMT-0400 (Eastern Daylight Time),188539.80000019073,CFD-BF-051-043-A.jpg,1000,solid,I,z,559,4,1,19258.300000190735,169281.5,9015,ATS,B,9
10,test,1,A,haborder.png,1,z,Tue Apr 29 2025 10:39:56 GMT-0400 (Eastern Daylight Time),190614.30000019073,CFD-WF-026-008-A.jpg,1600,solid,I,z,455,10,1,21332.800000190735,169281.5,9015,ATS,B,10
11,test,1,A,haborder.png,1,z,Tue Apr 29 2025 10:39:56 GMT-0400 (Eastern Daylight Time),192381.4000005722,CFD-BF-050-012-A.jpg,1200,solid,I,z,532,6,1,23099.900000572205,169281.5,9015,ATS,B,11
12,test,1,A,haborder.png,1,m,Tue Apr 29 2025 10:39:56 GMT-0400 (Eastern Daylight Time),194348.10000038147,CFD-BM-020-024-HC.jpg,1500,solid,I,m,434,3,1,25066.60000038147,169281.5,9015,ATS,B,12
13,test,1,A,haborder.png,1,z,Tue Apr 29 2025 10:39:56 GMT-0400 (Eastern Daylight Time),196564.80000019073,CFD-BM-037-041-A.jpg,1600,solid,I,z,591,2,1,27283.300000190735,169281.5,9015,ATS,B,13
14,test,1,A,haborder.png,1,z,Tue Apr 29 2025 10:39:56 GMT-0400 (Eastern Daylight Time),198131.30000019073,CFD-BF-051-043-A.jpg,1000,solid,I,z,542,4,1,28849.800000190735,169281.5,9015,ATS,B,14
15,test,1,A,haborder.png,1,m,Tue Apr 29 2025 10:39:56 GMT-0400 (Eastern Daylight Time),200631.30000019073,CFD-BF-035-007-HC.jpg,2000,solid,I,m,473,5,1,31349.800000190735,169281.5,9015,ATS,B,15
16,test,1,A,haborder.png,1,z,Tue Apr 29 2025 10:39:56 GMT-0400 (Eastern Daylight Time),202831.19999980927,CFD-WF-026-008-A.jpg,1600,solid,I,z,579,10,1,33549.699999809265,169281.5,9015,ATS,B,16
17,test,1,A,haborder.png,1,m,Tue Apr 29 2025 10:39:56 GMT-0400 (Eastern Daylight Time),205181.30000019073,CFD-BM-015-017-HC.jpg,1700,solid,I,m,615,1,1,35899.800000190735,169281.5,9015,ATS,B,17
18,test,1,A,haborder.png,1,m,Tue Apr 29 2025 10:39:56 GMT-0400 (Eastern Daylight Time),207114.80000019073,CFD-WM-011-006-HC.jpg,1400,solid,I,m,503,7,1,37833.300000190735,169281.5,9015,ATS,B,18
19,test,1,A,haborder.png,1,z,Tue Apr 29 2025 10:39:56 GMT-0400 (Eastern Daylight Time),208731.4000005722,CFD-WF-013-015-A.jpg,1000,solid,I,z,584,12,1,39449.900000572205,169281.5,9015,ATS,B,19
20,test,1,A,haborder.png,1,m,Tue Apr 29 2025 10:39:56 GMT-0400 (Eastern Daylight Time),211031.19999980927,CFD-BM-015-017-HC.jpg,1700,solid,I,m,572,1,1,41749.699999809265,169281.5,9015,ATS,B,20
21,test,1,A,haborder.png,1,m,Tue Apr 29 2025 10:39:56 GMT-0400 (Eastern Daylight Time),213998.0,CFD-BF-035-007-HC.jpg,2000,solid,I,m,933,5,1,44716.5,169281.5,9015,ATS,B,21
22,test,1,A,haborder.png,1,m,Tue Apr 29 2025 10:39:56 GMT-0400 (Eastern Daylight Time),216098.0,CFD-WM-011-006-HC.jpg,1400,solid,I,m,677,7,1,46816.5,169281.5,9015,ATS,B,22
23,test,1,A,haborder.png,1,m,Tue Apr 29 2025 10:39:56 GMT-0400 (Eastern Daylight Time),218198.10000038147,CFD-BM-020-024-HC.jpg,1500,solid,I,m,574,3,1,48916.60000038147,169281.5,9015,ATS,B,23
24,test,1,A,haborder.png,1,z,Tue Apr 29 2025 10:39:56 GMT-0400 (Eastern Daylight Time),220014.4000005722,CFD-WF-013-015-A.jpg,1000,solid,I,z,797,12,1,50732.900000572205,169281.5,9015,ATS,B,24
1,test,1,B,mfborder.png,1,z,Tue Apr 29 2025 10:39:56 GMT-0400 (Eastern Daylight Time),232981.60000038147,CFD-WF-026-008-A.jpg,1500,dash,I,z,657,11,1,2183.4000005722046,230798.19999980927,9015,ATS,B,1
2,test,1,B,mfborder.png,1,m,Tue Apr 29 2025 10:39:56 GMT-0400 (Eastern Daylight Time),235547.9000005722,CFD-BM-037-041-A.jpg,2000,dash,I,m,533,5,1,4749.700000762939,230798.19999980927,9015,ATS,B,2
3,test,1,B,mfborder.png,1,z,Tue Apr 29 2025 10:39:56 GMT-0400 (Eastern Daylight Time),237664.60000038147,CFD-BF-027-013-HC.jpg,1500,dash,I,z,595,3,1,6866.400000572205,230798.19999980927,9015,ATS,B,3
4,test,1,B,mfborder.png,1,z,Tue Apr 29 2025 10:39:56 GMT-0400 (Eastern Daylight Time),240098.19999980927,CFD-WF-027-007-HC.jpg,1900,dash,I,z,510,8,1,9300.0,230798.19999980927,9015,ATS,B,4
5,test,1,B,mfborder.png,1,z,Tue Apr 29 2025 10:39:56 GMT-0400 (Eastern Daylight Time),242481.30000019073,CFD-WF-027-007-HC.jpg,1900,dash,I,z,461,8,1,11683.10000038147,230798.19999980927,9015,ATS,B,5
6,test,1,B,mfborder.png,1,z,Tue Apr 29 2025 10:39:56 GMT-0400 (Eastern Daylight Time),244531.4000005722,CFD-BF-027-013-HC.jpg,1500,dash,I,z,509,3,1,13733.20000076294,230798.19999980927,9015,ATS,B,6
7,test,1,B,mfborder.png,1,m,Tue Apr 29 2025 10:39:56 GMT-0400 (Eastern Daylight Time),246381.30000019073,CFD-WM-037-060-A.jpg,1200,dash,I,m,616,6,1,15583.10000038147,230798.19999980927,9015,ATS,B,7
8,test,1,B,mfborder.png,1,m,Tue Apr 29 2025 10:39:56 GMT-0400 (Eastern Daylight Time),248664.19999980927,CFD-WM-009-009-A.jpg,1700,dash,I,m,536,9,1,17866.0,230798.19999980927,9015,ATS,B,8
9,test,1,B,mfborder.png,1,m,Tue Apr 29 2025 10:39:56 GMT-0400 (Eastern Daylight Time),250964.30000019073,CFD-BM-020-024-HC.jpg,1700,dash,I,m,573,1,1,20166.10000038147,230798.19999980927,9015,ATS,B,9
10,test,1,B,mfborder.png,1,z,Tue Apr 29 2025 10:39:56 GMT-0400 (Eastern Daylight Time),252481.19999980927,CFD-WF-011-006-HC.jpg,1000,dash,I,z,494,12,1,21683.0,230798.19999980927,9015,ATS,B,10
11,test,1,B,mfborder.png,1,z,Tue Apr 29 2025 10:39:56 GMT-0400 (Eastern Daylight Time),254248.10000038147,CFD-BF-051-043-A.jpg,1000,dash,I,z,737,4,1,23449.900000572205,230798.19999980927,9015,ATS,B,11
12,test,1,B,mfborder.png,1,m,Tue Apr 29 2025 10:39:56 GMT-0400 (Eastern Daylight Time),257064.60000038147,CFD-BM-037-041-A.jpg,2000,dash,I,m,775,5,1,26266.400000572205,230798.19999980927,9015,ATS,B,12
13,test,1,B,mfborder.png,1,m,Tue Apr 29 2025 10:39:56 GMT-0400 (Eastern Daylight Time),259231.10000038147,CFD-BM-041-048-A.jpg,1600,dash,I,m,530,2,1,28432.900000572205,230798.19999980927,9015,ATS,B,13
14,test,1,B,mfborder.png,1,m,Tue Apr 29 2025 10:39:56 GMT-0400 (Eastern Daylight Time),261331.19999980927,CFD-WM-012-007-HC.jpg,1600,dash,I,m,476,10,1,30533.0,230798.19999980927,9015,ATS,B,14
15,test,1,B,mfborder.png,1,z,Tue Apr 29 2025 10:39:56 GMT-0400 (Eastern Daylight Time),263364.69999980927,CFD-BF-035-007-HC.jpg,1400,dash,I,z,591,7,1,32566.5,230798.19999980927,9015,ATS,B,15
16,test,1,B,mfborder.png,1,z,Tue Apr 29 2025 10:39:56 GMT-0400 (Eastern Daylight Time),265714.60000038147,CFD-BF-035-007-HC.jpg,1400,dash,I,z,926,7,1,34916.400000572205,230798.19999980927,9015,ATS,B,16
17,test,1,B,mfborder.png,1,m,Tue Apr 29 2025 10:39:56 GMT-0400 (Eastern Daylight Time),267881.5,CFD-WM-012-007-HC.jpg,1600,dash,I,m,535,10,1,37083.300000190735,230798.19999980927,9015,ATS,B,17
18,test,1,B,mfborder.png,1,m,Tue Apr 29 2025 10:39:56 GMT-0400 (Eastern Daylight Time),270131.4000005722,CFD-WM-009-009-A.jpg,1700,dash,I,m,526,9,1,39333.20000076294,230798.19999980927,9015,ATS,B,18
19,test,1,B,mfborder.png,1,z,Tue Apr 29 2025 10:39:56 GMT-0400 (Eastern Daylight Time),271748.10000038147,CFD-BF-051-043-A.jpg,1000,dash,I,z,591,4,1,40949.900000572205,230798.19999980927,9015,ATS,B,19
20,test,1,B,mfborder.png,1,z,Tue Apr 29 2025 10:39:56 GMT-0400 (Eastern Daylight Time),273814.69999980927,CFD-WF-026-008-A.jpg,1500,dash,I,z,539,11,1,43016.5,230798.19999980927,9015,ATS,B,20
21,test,1,B,mfborder.png,1,m,Tue Apr 29 2025 10:39:56 GMT-0400 (Eastern Daylight Time),275964.69999980927,CFD-BM-041-048-A.jpg,1600,dash,I,m,516,2,1,45166.5,230798.19999980927,9015,ATS,B,21
22,test,1,B,mfborder.png,1,z,Tue Apr 29 2025 10:39:56 GMT-0400 (Eastern Daylight Time),277547.69999980927,CFD-WF-011-006-HC.jpg,1000,dash,I,z,551,12,1,46749.5,230798.19999980927,9015,ATS,B,22
23,test,1,B,mfborder.png,1,m,Tue Apr 29 2025 10:39:56 GMT-0400 (Eastern Daylight Time),279581.5,CFD-WM-037-060-A.jpg,1200,dash,I,m,800,6,1,48783.300000190735,230798.19999980927,9015,ATS,B,23
24,test,1,B,mfborder.png,1,m,Tue Apr 29 2025 10:39:56 GMT-0400 (Eastern Daylight Time),281797.9000005722,CFD-BM-020-024-HC.jpg,1700,dash,I,m,490,1,1,50999.70000076294,230798.19999980927,9015,ATS,B,24
0,12,1,C,haborder.png,0,m,Tue Apr 29 2025 10:39:56 GMT-0400 (Eastern Daylight Time),312964.60000038147,CFD-WM-011-006-HC.jpg,1400,solid,I,None,1517,prac,1,3716.5,309248.10000038147,9015,ATS,B,1
0,3,1,C,mfborder.png,0,z,Tue Apr 29 2025 10:39:56 GMT-0400 (Eastern Daylight Time),316281.30000019073,CFD-BF-035-007-HC.jpg,1000,dash,I,None,1516,prac,1,7033.199999809265,309248.10000038147,9015,ATS,B,2
0,9,1,C,haborder.png,0,z,Tue Apr 29 2025 10:39:56 GMT-0400 (Eastern Daylight Time),319464.60000038147,CFD-WF-026-008-A.jpg,1600,dash,I,m,786,prac,1,10216.5,309248.10000038147,9015,ATS,B,3
0,4,1,C,mfborder.png,0,m,Tue Apr 29 2025 10:39:56 GMT-0400 (Eastern Daylight Time),323331.10000038147,CFD-BM-015-017-HC.jpg,2000,solid,I,z,1074,prac,1,14083.0,309248.10000038147,9015,ATS,B,4
0,2,1,C,mfborder.png,0,z,Tue Apr 29 2025 10:39:56 GMT-0400 (Eastern Daylight Time),326397.9000005722,CFD-WF-013-015-A.jpg,1500,solid,I,m,764,prac,1,17149.800000190735,309248.10000038147,9015,ATS,B,5
1,6,1,C,mfborder.png,1,m,Tue Apr 29 2025 10:39:56 GMT-0400 (Eastern Daylight Time),329481.4000005722,CFD-WM-009-009-A.jpg,1700,solid,I,m,568,prac,1,20233.300000190735,309248.10000038147,9015,ATS,B,6
1,10,1,C,haborder.png,0,m,Tue Apr 29 2025 10:39:56 GMT-0400 (Eastern Daylight Time),332447.9000005722,CFD-BM-020-024-HC.jpg,1500,solid,I,z,661,prac,1,23199.800000190735,309248.10000038147,9015,ATS,B,7
2,7,1,C,haborder.png,1,z,Tue Apr 29 2025 10:39:56 GMT-0400 (Eastern Daylight Time),335981.30000019073,CFD-BF-051-043-A.jpg,1900,dash,I,z,831,prac,1,26733.199999809265,309248.10000038147,9015,ATS,B,8
3,11,1,C,haborder.png,1,m,Tue Apr 29 2025 10:39:56 GMT-0400 (Eastern Daylight Time),338714.19999980927,CFD-WM-011-006-HC.jpg,1000,dash,I,m,917,prac,1,29466.099999427795,309248.10000038147,9015,ATS,B,9
3,8,1,C,haborder.png,0,z,Tue Apr 29 2025 10:39:56 GMT-0400 (Eastern Daylight Time),342730.80000019073,CFD-BF-050-012-A.jpg,1700,solid,I,None,1517,prac,1,33482.699999809265,309248.10000038147,9015,ATS,B,10
4,1,1,C,mfborder.png,1,z,Tue Apr 29 2025 10:39:56 GMT-0400 (Eastern Daylight Time),346098.10000038147,CFD-WF-011-006-HC.jpg,1600,dash,I,z,976,prac,1,36850.0,309248.10000038147,9015,ATS,B,11
4,5,1,C,mfborder.png,0,m,Tue Apr 29 2025 10:39:56 GMT-0400 (Eastern Daylight Time),348797.9000005722,CFD-BM-037-041-A.jpg,1200,dash,I,z,713,prac,1,39549.800000190735,309248.10000038147,9015,ATS,B,12
1,10,2,C,haborder.png,1,m,Tue Apr 29 2025 10:39:56 GMT-0400 (Eastern Daylight Time),368898.0,CFD-BM-020-024-HC.jpg,1500,solid,I,m,976,prac,1,59649.89999961853,309248.10000038147,9015,ATS,B,1
2,12,2,C,haborder.png,1,m,Tue Apr 29 2025 10:39:56 GMT-0400 (Eastern Daylight Time),371664.60000038147,CFD-WM-011-006-HC.jpg,1400,solid,I,m,560,prac,1,62416.5,309248.10000038147,9015,ATS,B,2
2,8,2,C,haborder.png,0,z,Tue Apr 29 2025 10:39:56 GMT-0400 (Eastern Daylight Time),374697.9000005722,CFD-BF-050-012-A.jpg,1700,solid,I,m,518,prac,1,65449.800000190735,309248.10000038147,9015,ATS,B,3
3,9,2,C,haborder.png,1,z,Tue Apr 29 2025 10:39:56 GMT-0400 (Eastern Daylight Time),377831.4000005722,CFD-WF-026-008-A.jpg,1600,dash,I,z,721,prac,1,68583.30000019073,309248.10000038147,9015,ATS,B,4
4,1,2,C,mfborder.png,1,z,Tue Apr 29 2025 10:39:56 GMT-0400 (Eastern Daylight Time),381364.60000038147,CFD-WF-011-006-HC.jpg,1600,dash,I,z,1124,prac,1,72116.5,309248.10000038147,9015,ATS,B,5
5,3,2,C,mfborder.png,1,z,Tue Apr 29 2025 10:39:56 GMT-0400 (Eastern Daylight Time),383764.5,CFD-BF-035-007-HC.jpg,1000,dash,I,z,607,prac,1,74516.39999961853,309248.10000038147,9015,ATS,B,6
6,4,2,C,mfborder.png,1,m,Tue Apr 29 2025 10:39:56 GMT-0400 (Eastern Daylight Time),387447.80000019073,CFD-BM-015-017-HC.jpg,2000,solid,I,m,887,prac,1,78199.69999980927,309248.10000038147,9015,ATS,B,7
7,2,2,C,mfborder.png,1,z,Tue Apr 29 2025 10:39:56 GMT-0400 (Eastern Daylight Time),390748.0,CFD-WF-013-015-A.jpg,1500,solid,I,z,1015,prac,1,81499.89999961853,309248.10000038147,9015,ATS,B,8
8,11,2,C,haborder.png,1,m,Tue Apr 29 2025 10:39:56 GMT-0400 (Eastern Daylight Time),393147.9000005722,CFD-WM-011-006-HC.jpg,1000,dash,I,m,599,prac,1,83899.80000019073,309248.10000038147,9015,ATS,B,9
9,7,2,C,haborder.png,1,z,Tue Apr 29 2025 10:39:56 GMT-0400 (Eastern Daylight Time),396881.10000038147,CFD-BF-051-043-A.jpg,1900,dash,I,z,1027,prac,1,87633.0,309248.10000038147,9015,ATS,B,10
9,5,2,C,mfborder.png,0,m,Tue Apr 29 2025 10:39:56 GMT-0400 (Eastern Daylight Time),400397.69999980927,CFD-BM-037-041-A.jpg,1200,dash,I,None,1515,prac,1,91149.5999994278,309248.10000038147,9015,ATS,B,11
10,6,2,C,mfborder.png,1,m,Tue Apr 29 2025 10:39:56 GMT-0400 (Eastern Daylight Time),404297.9000005722,CFD-WM-009-009-A.jpg,1700,solid,I,m,1385,prac,1,95049.80000019073,309248.10000038147,9015,ATS,B,12
1,test,1,C,mfborder.png,1,z,Tue Apr 29 2025 10:39:56 GMT-0400 (Eastern Daylight Time),417547.80000019073,CFD-WF-026-008-A.jpg,1500,dash,I,z,1184,3,1,2716.6000003814697,414831.19999980927,9015,ATS,B,1
1,test,1,C,haborder.png,0,z,Tue Apr 29 2025 10:39:56 GMT-0400 (Eastern Daylight Time),420481.30000019073,CFD-WM-009-009-A.jpg,1400,solid,I,None,1502,7,1,5650.10000038147,414831.19999980927,9015,ATS,B,2
2,test,1,C,mfborder.png,1,z,Tue Apr 29 2025 10:39:56 GMT-0400 (Eastern Daylight Time),423281.10000038147,CFD-WF-026-008-A.jpg,1500,dash,I,z,1262,3,1,8449.900000572205,414831.19999980927,9015,ATS,B,3
3,test,1,C,mfborder.png,1,m,Tue Apr 29 2025 10:39:56 GMT-0400 (Eastern Daylight Time),425280.9000005722,CFD-BM-020-024-HC.jpg,1200,dash,I,m,761,6,1,10449.70000076294,414831.19999980927,9015,ATS,B,4
4,test,1,C,mfborder.png,1,m,Tue Apr 29 2025 10:39:56 GMT-0400 (Eastern Daylight Time),427364.4000005722,CFD-BM-020-024-HC.jpg,1200,dash,I,m,858,6,1,12533.20000076294,414831.19999980927,9015,ATS,B,5
4,test,1,C,mfborder.png,0,z,Tue Apr 29 2025 10:39:56 GMT-0400 (Eastern Daylight Time),430597.19999980927,CFD-BF-027-013-HC.jpg,1700,dash,I,None,1515,1,1,15766.0,414831.19999980927,9015,ATS,B,6
4,test,1,C,haborder.png,0,m,Tue Apr 29 2025 10:39:56 GMT-0400 (Eastern Daylight Time),433131.19999980927,CFD-WF-011-006-HC.jpg,1000,solid,I,None,1515,12,1,18300.0,414831.19999980927,9015,ATS,B,7
5,test,1,C,haborder.png,1,m,Tue Apr 29 2025 10:39:56 GMT-0400 (Eastern Daylight Time),436131.0,CFD-BF-035-007-HC.jpg,1600,solid,I,m,1357,10,1,21299.800000190735,414831.19999980927,9015,ATS,B,8
6,test,1,C,mfborder.png,1,z,Tue Apr 29 2025 10:39:56 GMT-0400 (Eastern Daylight Time),439214.19999980927,CFD-BF-051-043-A.jpg,1600,dash,I,z,1464,2,1,24383.0,414831.19999980927,9015,ATS,B,9
7,test,1,C,mfborder.png,1,m,Tue Apr 29 2025 10:39:56 GMT-0400 (Eastern Daylight Time),441597.60000038147,CFD-WM-012-007-HC.jpg,1000,dash,I,m,1365,4,1,26766.400000572205,414831.19999980927,9015,ATS,B,10
8,test,1,C,haborder.png,1,z,Tue Apr 29 2025 10:39:56 GMT-0400 (Eastern Daylight Time),444549.19999980927,CFD-BM-037-041-A.jpg,1900,solid,I,z,1026,8,1,29718.0,414831.19999980927,9015,ATS,B,11
8,test,1,C,haborder.png,0,z,Tue Apr 29 2025 10:39:56 GMT-0400 (Eastern Daylight Time),447997.80000019073,CFD-BM-037-041-A.jpg,1900,solid,I,None,1516,8,1,33166.60000038147,414831.19999980927,9015,ATS,B,12
9,test,1,C,mfborder.png,1,m,Tue Apr 29 2025 10:39:56 GMT-0400 (Eastern Daylight Time),451214.19999980927,CFD-WM-037-060-A.jpg,2000,dash,I,m,1197,5,1,36383.0,414831.19999980927,9015,ATS,B,13
9,test,1,C,haborder.png,0,z,Tue Apr 29 2025 10:39:56 GMT-0400 (Eastern Daylight Time),454464.4000005722,CFD-BM-041-048-A.jpg,1700,solid,I,None,1514,9,1,39633.20000076294,414831.19999980927,9015,ATS,B,14
9,test,1,C,haborder.png,0,z,Tue Apr 29 2025 10:39:56 GMT-0400 (Eastern Daylight Time),456997.69999980927,CFD-BM-041-048-A.jpg,1700,solid,I,m,807,9,1,42166.5,414831.19999980927,9015,ATS,B,15
9,test,1,C,mfborder.png,0,m,Tue Apr 29 2025 10:39:56 GMT-0400 (Eastern Daylight Time),459530.9000005722,CFD-WM-012-007-HC.jpg,1000,dash,I,None,1515,4,1,44699.70000076294,414831.19999980927,9015,ATS,B,16
9,test,1,C,haborder.png,0,m,Tue Apr 29 2025 10:39:56 GMT-0400 (Eastern Daylight Time),462047.60000038147,CFD-BF-035-007-HC.jpg,1600,solid,I,z,897,10,1,47216.400000572205,414831.19999980927,9015,ATS,B,17
10,test,1,C,mfborder.png,1,z,Tue Apr 29 2025 10:39:56 GMT-0400 (Eastern Daylight Time),465230.80000019073,CFD-BF-027-013-HC.jpg,1700,dash,I,z,1447,1,1,50399.60000038147,414831.19999980927,9015,ATS,B,18
11,test,1,C,haborder.png,1,m,Tue Apr 29 2025 10:39:56 GMT-0400 (Eastern Daylight Time),467581.4000005722,CFD-WF-011-006-HC.jpg,1000,solid,I,m,1332,12,1,52750.20000076294,414831.19999980927,9015,ATS,B,19
11,test,1,C,haborder.png,0,z,Tue Apr 29 2025 10:39:56 GMT-0400 (Eastern Daylight Time),470231.0,CFD-WM-009-009-A.jpg,1400,solid,I,m,1204,7,1,55399.800000190735,414831.19999980927,9015,ATS,B,20
11,test,1,C,haborder.png,0,m,Tue Apr 29 2025 10:39:56 GMT-0400 (Eastern Daylight Time),473064.4000005722,CFD-WF-027-007-HC.jpg,1500,solid,I,z,1304,11,1,58233.20000076294,414831.19999980927,9015,ATS,B,21
12,test,1,C,haborder.png,1,m,Tue Apr 29 2025 10:39:56 GMT-0400 (Eastern Daylight Time),475697.69999980927,CFD-WF-027-007-HC.jpg,1500,solid,I,m,1111,11,1,60866.5,414831.19999980927,9015,ATS,B,22
13,test,1,C,mfborder.png,1,z,Tue Apr 29 2025 10:39:56 GMT-0400 (Eastern Daylight Time),478264.19999980927,CFD-BF-051-043-A.jpg,1600,dash,I,z,938,2,1,63433.0,414831.19999980927,9015,ATS,B,23
13,test,1,C,mfborder.png,0,m,Tue Apr 29 2025 10:39:56 GMT-0400 (Eastern Daylight Time),481347.69999980927,CFD-WM-037-060-A.jpg,2000,dash,I,z,1059,5,1,66516.5,414831.19999980927,9015,ATS,B,24
0,test,2,C,mfborder.png,0,z,Tue Apr 29 2025 10:39:56 GMT-0400 (Eastern Daylight Time),498214.5,CFD-BF-035-007-HC.jpg,1500,dash,I,None,1504,3,1,3033.300000190735,495181.19999980927,9015,ATS,B,1
1,test,2,C,mfborder.png,1,z,Tue Apr 29 2025 10:39:56 GMT-0400 (Eastern Daylight Time),500964.5,CFD-WF-011-006-HC.jpg,1700,dash,I,z,1012,1,1,5783.300000190735,495181.19999980927,9015,ATS,B,2
1,test,2,C,mfborder.png,0,m,Tue Apr 29 2025 10:39:56 GMT-0400 (Eastern Daylight Time),503031.0,CFD-BM-015-017-HC.jpg,1000,dash,I,z,1039,4,1,7849.800000190735,495181.19999980927,9015,ATS,B,3
2,test,2,C,haborder.png,1,m,Tue Apr 29 2025 10:39:56 GMT-0400 (Eastern Daylight Time),505364.10000038147,CFD-WM-011-006-HC.jpg,1500,solid,I,m,808,11,1,10182.900000572205,495181.19999980927,9015,ATS,B,4
3,test,2,C,haborder.png,1,m,Tue Apr 29 2025 10:39:56 GMT-0400 (Eastern Daylight Time),507997.19999980927,CFD-BM-020-024-HC.jpg,1600,solid,I,m,1015,10,1,12816.0,495181.19999980927,9015,ATS,B,5
4,test,2,C,haborder.png,1,m,Tue Apr 29 2025 10:39:56 GMT-0400 (Eastern Daylight Time),510514.4000005722,CFD-BM-020-024-HC.jpg,1600,solid,I,m,894,10,1,15333.20000076294,495181.19999980927,9015,ATS,B,6
5,test,2,C,haborder.png,1,m,Tue Apr 29 2025 10:39:56 GMT-0400 (Eastern Daylight Time),512723.5,CFD-WM-011-006-HC.jpg,1500,solid,I,m,669,11,1,17542.300000190735,495181.19999980927,9015,ATS,B,7
5,test,2,C,mfborder.png,0,m,Tue Apr 29 2025 10:39:56 GMT-0400 (Eastern Daylight Time),515613.80000019073,CFD-BM-037-041-A.jpg,2000,dash,I,z,881,5,1,20432.60000038147,495181.19999980927,9015,ATS,B,8
6,test,2,C,haborder.png,1,m,Tue Apr 29 2025 10:39:56 GMT-0400 (Eastern Daylight Time),517480.9000005722,CFD-WM-011-006-HC.jpg,1000,solid,I,m,837,12,1,22299.70000076294,495181.19999980927,9015,ATS,B,9
7,test,2,C,haborder.png,1,z,Tue Apr 29 2025 10:39:56 GMT-0400 (Eastern Daylight Time),520381.19999980927,CFD-BF-050-012-A.jpg,1900,solid,I,z,982,8,1,25200.0,495181.19999980927,9015,ATS,B,10
8,test,2,C,haborder.png,1,z,Tue Apr 29 2025 10:39:56 GMT-0400 (Eastern Daylight Time),523064.30000019073,CFD-BF-050-012-A.jpg,1900,solid,I,z,755,8,1,27883.10000038147,495181.19999980927,9015,ATS,B,11
8,test,2,C,haborder.png,0,z,Tue Apr 29 2025 10:39:56 GMT-0400 (Eastern Daylight Time),525314.3000001907,CFD-WF-026-008-A.jpg,1700,solid,I,m,511,9,1,30133.10000038147,495181.19999980927,9015,ATS,B,12
9,test,2,C,haborder.png,1,z,Tue Apr 29 2025 10:39:56 GMT-0400 (Eastern Daylight Time),527264.4000005722,CFD-BF-051-043-A.jpg,1400,solid,I,z,529,7,1,32083.20000076294,495181.19999980927,9015,ATS,B,13
10,test,2,C,mfborder.png,1,z,Tue Apr 29 2025 10:39:56 GMT-0400 (Eastern Daylight Time),529947.5,CFD-WF-013-015-A.jpg,1600,dash,I,z,1050,2,1,34766.300000190735,495181.19999980927,9015,ATS,B,14
11,test,2,C,mfborder.png,1,m,Tue Apr 29 2025 10:39:56 GMT-0400 (Eastern Daylight Time),532364.1000003815,CFD-BM-015-017-HC.jpg,1000,dash,I,m,1367,4,1,37182.900000572205,495181.19999980927,9015,ATS,B,15
12,test,2,C,haborder.png,1,z,Tue Apr 29 2025 10:39:56 GMT-0400 (Eastern Daylight Time),535014.3000001907,CFD-WF-026-008-A.jpg,1700,solid,I,z,923,9,1,39833.10000038147,495181.19999980927,9015,ATS,B,16
13,test,2,C,mfborder.png,1,m,Tue Apr 29 2025 10:39:56 GMT-0400 (Eastern Daylight Time),537997.9000005722,CFD-BM-037-041-A.jpg,2000,dash,I,m,965,5,1,42816.70000076294,495181.19999980927,9015,ATS,B,17
14,test,2,C,haborder.png,1,z,Tue Apr 29 2025 10:39:56 GMT-0400 (Eastern Daylight Time),540280.8000001907,CFD-BF-051-043-A.jpg,1400,solid,I,z,854,7,1,45099.60000038147,495181.19999980927,9015,ATS,B,18
15,test,2,C,mfborder.png,1,z,Tue Apr 29 2025 10:39:56 GMT-0400 (Eastern Daylight Time),543230.8000001907,CFD-WF-011-006-HC.jpg,1700,dash,I,z,1215,1,1,48049.60000038147,495181.19999980927,9015,ATS,B,19
15,test,2,C,haborder.png,0,m,Tue Apr 29 2025 10:39:56 GMT-0400 (Eastern Daylight Time),545764.4000005722,CFD-WM-011-006-HC.jpg,1000,solid,I,None,1515,12,1,50583.20000076294,495181.19999980927,9015,ATS,B,20
16,test,2,C,mfborder.png,1,z,Tue Apr 29 2025 10:39:56 GMT-0400 (Eastern Daylight Time),548064.1999998093,CFD-WF-013-015-A.jpg,1600,dash,I,z,679,2,1,52883.0,495181.19999980927,9015,ATS,B,21
16,test,2,C,mfborder.png,0,m,Tue Apr 29 2025 10:39:56 GMT-0400 (Eastern Daylight Time),550796.9000005722,CFD-WM-009-009-A.jpg,1200,dash,I,None,1514,6,1,55615.70000076294,495181.19999980927,9015,ATS,B,22
17,test,2,C,mfborder.png,1,m,Tue Apr 29 2025 10:39:56 GMT-0400 (Eastern Daylight Time),552530.9000005722,CFD-WM-009-009-A.jpg,1200,dash,I,m,510,6,1,57349.70000076294,495181.19999980927,9015,ATS,B,23
18,test,2,C,mfborder.png,1,z,Tue Apr 29 2025 10:39:56 GMT-0400 (Eastern Daylight Time),554864.4000005722,CFD-BF-035-007-HC.jpg,1500,dash,I,z,812,3,1,59683.20000076294,495181.19999980927,9015,ATS,B,24
1,test,3,C,mfborder.png,1,m,Tue Apr 29 2025 10:39:56 GMT-0400 (Eastern Daylight Time),564297.5,CFD-WM-012-007-HC.jpg,1000,dash,I,m,1403,4,1,2449.800000190735,561847.6999998093,9015,ATS,B,1
1,test,3,C,haborder.png,0,z,Tue Apr 29 2025 10:39:56 GMT-0400 (Eastern Daylight Time),567731.0,CFD-BM-037-041-A.jpg,1900,solid,I,None,1503,8,1,5883.300000190735,561847.6999998093,9015,ATS,B,2
2,test,3,C,mfborder.png,1,m,Tue Apr 29 2025 10:39:56 GMT-0400 (Eastern Daylight Time),569914.1999998093,CFD-WM-012-007-HC.jpg,1000,dash,I,m,1153,4,1,8066.5,561847.6999998093,9015,ATS,B,3
3,test,3,C,haborder.png,1,m,Tue Apr 29 2025 10:39:56 GMT-0400 (Eastern Daylight Time),572697.6000003815,CFD-WF-027-007-HC.jpg,1500,solid,I,m,1253,11,1,10849.900000572205,561847.6999998093,9015,ATS,B,4
4,test,3,C,haborder.png,1,m,Tue Apr 29 2025 10:39:56 GMT-0400 (Eastern Daylight Time),574730.8000001907,CFD-WF-011-006-HC.jpg,1000,solid,I,m,1002,12,1,12883.10000038147,561847.6999998093,9015,ATS,B,5
4,test,3,C,haborder.png,0,z,Tue Apr 29 2025 10:39:56 GMT-0400 (Eastern Daylight Time),577964.1999998093,CFD-BM-041-048-A.jpg,1700,solid,I,None,1515,9,1,16116.5,561847.6999998093,9015,ATS,B,6
5,test,3,C,mfborder.png,1,m,Tue Apr 29 2025 10:39:56 GMT-0400 (Eastern Daylight Time),581213.8000001907,CFD-WM-037-060-A.jpg,2000,dash,I,m,1232,5,1,19366.10000038147,561847.6999998093,9015,ATS,B,7
6,test,3,C,haborder.png,1,z,Tue Apr 29 2025 10:39:56 GMT-0400 (Eastern Daylight Time),583780.9000005722,CFD-WM-009-009-A.jpg,1400,solid,I,z,1141,7,1,21933.20000076294,561847.6999998093,9015,ATS,B,8
7,test,3,C,mfborder.png,1,z,Tue Apr 29 2025 10:39:56 GMT-0400 (Eastern Daylight Time),586397.3000001907,CFD-BF-051-043-A.jpg,1600,dash,I,z,998,2,1,24549.60000038147,561847.6999998093,9015,ATS,B,9
8,test,3,C,mfborder.png,1,z,Tue Apr 29 2025 10:39:56 GMT-0400 (Eastern Daylight Time),589280.5,CFD-BF-027-013-HC.jpg,1700,dash,I,z,1161,1,1,27432.800000190735,561847.6999998093,9015,ATS,B,10
9,test,3,C,haborder.png,1,m,Tue Apr 29 2025 10:39:56 GMT-0400 (Eastern Daylight Time),590997.8000001907,CFD-WF-011-006-HC.jpg,1000,solid,I,m,673,12,1,29150.10000038147,561847.6999998093,9015,ATS,B,11
10,test,3,C,mfborder.png,1,z,Tue Apr 29 2025 10:39:56 GMT-0400 (Eastern Daylight Time),593430.9000005722,CFD-WF-026-008-A.jpg,1500,dash,I,z,906,3,1,31583.20000076294,561847.6999998093,9015,ATS,B,12
11,test,3,C,mfborder.png,1,m,Tue Apr 29 2025 10:39:56 GMT-0400 (Eastern Daylight Time),595980.9000005722,CFD-BM-020-024-HC.jpg,1200,dash,I,m,1316,6,1,34133.20000076294,561847.6999998093,9015,ATS,B,13
12,test,3,C,mfborder.png,1,m,Tue Apr 29 2025 10:39:56 GMT-0400 (Eastern Daylight Time),598548.8000001907,CFD-WM-037-060-A.jpg,2000,dash,I,m,542,5,1,36701.10000038147,561847.6999998093,9015,ATS,B,14
12,test,3,C,mfborder.png,0,z,Tue Apr 29 2025 10:39:56 GMT-0400 (Eastern Daylight Time),600647.5,CFD-WF-026-008-A.jpg,1500,dash,I,m,572,3,1,38799.800000190735,561847.6999998093,9015,ATS,B,15
12,test,3,C,haborder.png,0,m,Tue Apr 29 2025 10:39:56 GMT-0400 (Eastern Daylight Time),603514.1999998093,CFD-BF-035-007-HC.jpg,1600,solid,I,z,1236,10,1,41666.5,561847.6999998093,9015,ATS,B,16
12,test,3,C,haborder.png,0,z,Tue Apr 29 2025 10:39:56 GMT-0400 (Eastern Daylight Time),606447.6999998093,CFD-WM-009-009-A.jpg,1400,solid,I,None,1515,7,1,44600.0,561847.6999998093,9015,ATS,B,17
13,test,3,C,mfborder.png,1,z,Tue Apr 29 2025 10:39:56 GMT-0400 (Eastern Daylight Time),609064.1000003815,CFD-BF-051-043-A.jpg,1600,dash,I,z,988,2,1,47216.400000572205,561847.6999998093,9015,ATS,B,18
13,test,3,C,mfborder.png,0,m,Tue Apr 29 2025 10:39:56 GMT-0400 (Eastern Daylight Time),611114.1000003815,CFD-BM-020-024-HC.jpg,1200,dash,I,z,803,6,1,49266.400000572205,561847.6999998093,9015,ATS,B,19
13,test,3,C,haborder.png,0,z,Tue Apr 29 2025 10:39:56 GMT-0400 (Eastern Daylight Time),614547.4000005722,CFD-BM-037-041-A.jpg,1900,solid,I,None,1515,8,1,52699.70000076294,561847.6999998093,9015,ATS,B,20
13,test,3,C,haborder.png,0,m,Tue Apr 29 2025 10:39:56 GMT-0400 (Eastern Daylight Time),617680.6999998093,CFD-BF-035-007-HC.jpg,1600,solid,I,None,1516,10,1,55833.0,561847.6999998093,9015,ATS,B,21
14,test,3,C,haborder.png,1,z,Tue Apr 29 2025 10:39:56 GMT-0400 (Eastern Daylight Time),620813.8000001907,CFD-BM-041-048-A.jpg,1700,solid,I,z,1415,9,1,58966.10000038147,561847.6999998093,9015,ATS,B,22
15,test,3,C,haborder.png,1,m,Tue Apr 29 2025 10:39:56 GMT-0400 (Eastern Daylight Time),623414.1999998093,CFD-WF-027-007-HC.jpg,1500,solid,I,m,1073,11,1,61566.5,561847.6999998093,9015,ATS,B,23
16,test,3,C,mfborder.png,1,z,Tue Apr 29 2025 10:39:56 GMT-0400 (Eastern Daylight Time),626047.5,CFD-BF-027-013-HC.jpg,1700,dash,I,z,913,1,1,64199.800000190735,561847.6999998093,9015,ATS,B,24
1,test,4,C,haborder.png,1,m,Tue Apr 29 2025 10:39:56 GMT-0400 (Eastern Daylight Time),631597.6999998093,CFD-BM-020-024-HC.jpg,1600,solid,I,m,835,10,1,2466.7999992370605,629130.9000005722,9015,ATS,B,1
1,test,4,C,mfborder.png,0,m,Tue Apr 29 2025 10:39:56 GMT-0400 (Eastern Daylight Time),634147.6999998093,CFD-BM-015-017-HC.jpg,1000,dash,I,None,1515,4,1,5016.799999237061,629130.9000005722,9015,ATS,B,2
2,test,4,C,haborder.png,1,z,Tue Apr 29 2025 10:39:56 GMT-0400 (Eastern Daylight Time),637197.3000001907,CFD-BF-050-012-A.jpg,1900,solid,I,z,1132,8,1,8066.39999961853,629130.9000005722,9015,ATS,B,3
2,test,4,C,mfborder.png,0,z,Tue Apr 29 2025 10:39:56 GMT-0400 (Eastern Daylight Time),640080.8000001907,CFD-WF-011-006-HC.jpg,1700,dash,I,m,1162,1,1,10949.89999961853,629130.9000005722,9015,ATS,B,4
3,test,4,C,mfborder.png,1,m,Tue Apr 29 2025 10:39:56 GMT-0400 (Eastern Daylight Time),643014.0,CFD-BM-037-041-A.jpg,2000,dash,I,m,907,5,1,13883.099999427795,629130.9000005722,9015,ATS,B,5
4,test,4,C,haborder.png,1,z,Tue Apr 29 2025 10:39:56 GMT-0400 (Eastern Daylight Time),645480.9000005722,CFD-WF-026-008-A.jpg,1700,solid,I,z,737,9,1,16350.0,629130.9000005722,9015,ATS,B,6
4,test,4,C,haborder.png,0,m,Tue Apr 29 2025 10:39:56 GMT-0400 (Eastern Daylight Time),648014.0,CFD-WM-011-006-HC.jpg,1000,solid,I,None,1516,12,1,18883.099999427795,629130.9000005722,9015,ATS,B,7
5,test,4,C,haborder.png,1,z,Tue Apr 29 2025 10:39:56 GMT-0400 (Eastern Daylight Time),650797.6999998093,CFD-BF-051-043-A.jpg,1400,solid,I,z,1344,7,1,21666.79999923706,629130.9000005722,9015,ATS,B,8
6,test,4,C,haborder.png,1,m,Tue Apr 29 2025 10:39:56 GMT-0400 (Eastern Daylight Time),652914.1000003815,CFD-WM-011-006-HC.jpg,1000,solid,I,m,1078,12,1,23783.199999809265,629130.9000005722,9015,ATS,B,9
7,test,4,C,haborder.png,1,m,Tue Apr 29 2025 10:39:56 GMT-0400 (Eastern Daylight Time),656030.4000005722,CFD-BM-020-024-HC.jpg,1600,solid,I,m,1497,10,1,26899.5,629130.9000005722,9015,ATS,B,10
8,test,4,C,haborder.png,1,z,Tue Apr 29 2025 10:39:56 GMT-0400 (Eastern Daylight Time),658380.6999998093,CFD-BF-051-043-A.jpg,1400,solid,I,z,915,7,1,29249.79999923706,629130.9000005722,9015,ATS,B,11
8,test,4,C,mfborder.png,0,m,Tue Apr 29 2025 10:39:56 GMT-0400 (Eastern Daylight Time),660930.6999998093,CFD-BM-015-017-HC.jpg,1000,dash,I,None,1517,4,1,31799.79999923706,629130.9000005722,9015,ATS,B,12
9,test,4,C,mfborder.png,1,z,Tue Apr 29 2025 10:39:56 GMT-0400 (Eastern Daylight Time),663080.9000005722,CFD-BF-035-007-HC.jpg,1500,dash,I,z,621,3,1,33950.0,629130.9000005722,9015,ATS,B,13
10,test,4,C,haborder.png,1,m,Tue Apr 29 2025 10:39:56 GMT-0400 (Eastern Daylight Time),665680.8000001907,CFD-WM-011-006-HC.jpg,1500,solid,I,m,1078,11,1,36549.89999961853,629130.9000005722,9015,ATS,B,14
11,test,4,C,mfborder.png,1,m,Tue Apr 29 2025 10:39:56 GMT-0400 (Eastern Daylight Time),667764.0,CFD-WM-009-009-A.jpg,1200,dash,I,m,859,6,1,38633.099999427795,629130.9000005722,9015,ATS,B,15
11,test,4,C,mfborder.png,0,z,Tue Apr 29 2025 10:39:56 GMT-0400 (Eastern Daylight Time),670997.4000005722,CFD-WF-011-006-HC.jpg,1700,dash,I,None,1516,1,1,41866.5,629130.9000005722,9015,ATS,B,16
12,test,4,C,mfborder.png,1,z,Tue Apr 29 2025 10:39:56 GMT-0400 (Eastern Daylight Time),673147.4000005722,CFD-WF-013-015-A.jpg,1600,dash,I,z,517,2,1,44016.5,629130.9000005722,9015,ATS,B,17
13,test,4,C,haborder.png,1,z,Tue Apr 29 2025 10:39:56 GMT-0400 (Eastern Daylight Time),675530.8000001907,CFD-WF-026-008-A.jpg,1700,solid,I,z,652,9,1,46399.89999961853,629130.9000005722,9015,ATS,B,18
14,test,4,C,haborder.png,1,z,Tue Apr 29 2025 10:39:56 GMT-0400 (Eastern Daylight Time),678380.6000003815,CFD-BF-050-012-A.jpg,1900,solid,I,z,916,8,1,49249.699999809265,629130.9000005722,9015,ATS,B,19
15,test,4,C,mfborder.png,1,z,Tue Apr 29 2025 10:39:56 GMT-0400 (Eastern Daylight Time),681181.1000003815,CFD-WF-013-015-A.jpg,1600,dash,I,z,1183,2,1,52050.199999809265,629130.9000005722,9015,ATS,B,20
16,test,4,C,haborder.png,1,m,Tue Apr 29 2025 10:39:56 GMT-0400 (Eastern Daylight Time),683613.8000001907,CFD-WM-011-006-HC.jpg,1500,solid,I,m,914,11,1,54482.89999961853,629130.9000005722,9015,ATS,B,21
17,test,4,C,mfborder.png,1,m,Tue Apr 29 2025 10:39:56 GMT-0400 (Eastern Daylight Time),685513.9000005722,CFD-WM-009-009-A.jpg,1200,dash,I,m,651,6,1,56383.0,629130.9000005722,9015,ATS,B,22
18,test,4,C,mfborder.png,1,m,Tue Apr 29 2025 10:39:56 GMT-0400 (Eastern Daylight Time),688264.1000003815,CFD-BM-037-041-A.jpg,2000,dash,I,m,721,5,1,59133.199999809265,629130.9000005722,9015,ATS,B,23
19,test,4,C,mfborder.png,1,z,Tue Apr 29 2025 10:39:56 GMT-0400 (Eastern Daylight Time),691147.4000005722,CFD-BF-035-007-HC.jpg,1500,dash,I,z,1350,3,1,62016.5,629130.9000005722,9015,ATS,B,24
