acc_sum,block,block_c,change,condition,correct,correct_response,datetime,endtime,face,project,response,response_time,row_sel,session_number,start_end,starttime,subject_id,task,task_vers,trial
0,prac,1,,1-Back,,,Fri Apr 11 2025 15:50:13 GMT-0500 (Central Daylight Time),,124_o_f_d_a.png,O,space,2842,1,1,,,7107,VNB,A,0
1,prac,1,0.0,1-Back,1,m,Fri Apr 11 2025 15:50:13 GMT-0500 (Central Daylight Time),94760.60000002384,071_y_f_n_a.png,O,m,755,2,1,1580.2999999523163,93180.30000007153,7107,VNB,A,1
2,prac,1,0.0,1-Back,1,m,Fri Apr 11 2025 15:50:13 GMT-0500 (Central Daylight Time),96810.0,165_m_m_h_a.png,O,m,1186,3,1,2013.7999999523163,94796.20000004768,7107,VNB,A,2
3,prac,1,0.0,1-Back,1,m,Fri Apr 11 2025 15:50:13 GMT-0500 (Central Daylight Time),98342.60000002384,109_y_m_d_a.png,O,m,663,4,1,1501.1999999284744,96841.40000009537,7107,VNB,A,3
4,prac,1,0.0,1-Back,1,m,Fri Apr 11 2025 15:50:13 GMT-0500 (Central Daylight Time),99908.70000004768,124_o_f_n_a.png,O,m,680,5,1,1535.7000000476837,98373.0,7107,VNB,A,4
4,prac,1,1.0,1-Back,0,z,Fri Apr 11 2025 15:50:13 GMT-0500 (Central Daylight Time),101491.5,109_y_m_n_a.png,O,m,696,6,1,1540.1999999284744,99951.30000007153,7107,VNB,A,5
4,prac,1,0.0,1-Back,0,m,Fri Apr 11 2025 15:50:13 GMT-0500 (Central Daylight Time),104340.30000007153,039_o_m_h_a.png,O,None,2003,7,1,2816.0,101524.30000007153,7107,VNB,A,6
5,prac,1,0.0,1-Back,1,m,Fri Apr 11 2025 15:50:13 GMT-0500 (Central Daylight Time),106073.30000007153,139_m_f_d_a.png,O,m,876,8,1,1702.2000000476837,104371.10000002384,7107,VNB,A,7
6,prac,1,1.0,1-Back,1,z,Fri Apr 11 2025 15:50:13 GMT-0500 (Central Daylight Time),107572.70000004768,071_y_f_d_a.png,O,z,645,9,1,1465.2999999523163,106107.40000009537,7107,VNB,A,8
7,prac,1,0.0,1-Back,1,m,Fri Apr 11 2025 15:50:13 GMT-0500 (Central Daylight Time),109255.70000004768,165_m_m_n_a.png,O,m,831,10,1,1649.3999999761581,107606.30000007153,7107,VNB,A,9
8,prac,1,0.0,1-Back,1,m,Fri Apr 11 2025 15:50:13 GMT-0500 (Central Daylight Time),111088.80000007153,124_o_f_h_a.png,O,m,949,11,1,1801.0,109287.80000007153,7107,VNB,A,10
9,prac,1,0.0,1-Back,1,m,Fri Apr 11 2025 15:50:13 GMT-0500 (Central Daylight Time),112504.60000002384,109_y_m_d_a.png,O,m,611,12,1,1385.0,111119.60000002384,7107,VNB,A,11
0,test,1,0.0,1-Back,,,Fri Apr 11 2025 15:50:13 GMT-0500 (Central Daylight Time),112504.60000002384,071_y_f_d_a.png,O,space,9387,1,1,1385.0,111119.60000002384,7107,VNB,A,0
1,test,1,0.0,1-Back,1,m,Fri Apr 11 2025 15:50:13 GMT-0500 (Central Daylight Time),128615.70000004768,139_m_f_n_a.png,O,m,711,2,1,1721.7999999523163,126893.90000009537,7107,VNB,A,1
2,test,1,0.0,1-Back,1,m,Fri Apr 11 2025 15:50:13 GMT-0500 (Central Daylight Time),130298.60000002384,039_o_m_h_a.png,O,m,641,3,1,1660.0,128638.60000002384,7107,VNB,A,2
3,test,1,1.0,1-Back,1,z,Fri Apr 11 2025 15:50:13 GMT-0500 (Central Daylight Time),131964.5,165_m_m_h_a.png,O,z,606,4,1,1629.1999999284744,130335.30000007153,7107,VNB,A,3
4,test,1,0.0,1-Back,1,m,Fri Apr 11 2025 15:50:13 GMT-0500 (Central Daylight Time),133613.80000007153,124_o_f_n_a.png,O,m,605,5,1,1620.0,131993.80000007153,7107,VNB,A,4
5,test,1,0.0,1-Back,1,m,Fri Apr 11 2025 15:50:13 GMT-0500 (Central Daylight Time),135297.10000002384,109_y_m_d_a.png,O,m,638,6,1,1653.6999999284744,133643.40000009537,7107,VNB,A,5
6,test,1,1.0,1-Back,1,z,Fri Apr 11 2025 15:50:13 GMT-0500 (Central Daylight Time),137013.5,139_m_f_d_a.png,O,z,682,7,1,1688.7999999523163,135324.70000004768,7107,VNB,A,6
7,test,1,0.0,1-Back,1,m,Fri Apr 11 2025 15:50:13 GMT-0500 (Central Daylight Time),138945.70000004768,071_y_f_h_a.png,O,m,884,8,1,1905.2000000476837,137040.5,7107,VNB,A,7
8,test,1,0.0,1-Back,1,m,Fri Apr 11 2025 15:50:13 GMT-0500 (Central Daylight Time),140844.20000004768,039_o_m_n_a.png,O,m,846,9,1,1864.3999999761581,138979.80000007153,7107,VNB,A,8
9,test,1,0.0,1-Back,1,m,Fri Apr 11 2025 15:50:13 GMT-0500 (Central Daylight Time),142644.60000002384,109_y_m_h_a.png,O,m,757,10,1,1784.1999999284744,140860.40000009537,7107,VNB,A,9
10,test,1,0.0,1-Back,1,m,Fri Apr 11 2025 15:50:13 GMT-0500 (Central Daylight Time),144310.60000002384,039_o_m_d_a.png,O,m,621,11,1,1634.7999999523163,142675.80000007153,7107,VNB,A,10
11,test,1,1.0,1-Back,1,z,Fri Apr 11 2025 15:50:13 GMT-0500 (Central Daylight Time),146126.60000002384,124_o_f_d_a.png,O,z,754,12,1,1781.2999999523163,144345.30000007153,7107,VNB,A,11
12,test,1,0.0,1-Back,1,m,Fri Apr 11 2025 15:50:13 GMT-0500 (Central Daylight Time),147741.90000009537,165_m_m_n_a.png,O,m,580,13,1,1587.0,146154.90000009537,7107,VNB,A,12
13,test,1,1.0,1-Back,1,z,Fri Apr 11 2025 15:50:13 GMT-0500 (Central Daylight Time),149624.60000002384,071_y_f_n_a.png,O,z,860,14,1,1872.1999999284744,147752.40000009537,7107,VNB,A,13
14,test,1,0.0,1-Back,1,m,Fri Apr 11 2025 15:50:13 GMT-0500 (Central Daylight Time),151574.5,139_m_f_h_a.png,O,m,921,15,1,1938.5999999046326,149635.90000009537,7107,VNB,A,14
15,test,1,0.0,1-Back,1,m,Fri Apr 11 2025 15:50:13 GMT-0500 (Central Daylight Time),153307.10000002384,165_m_m_d_a.png,O,m,682,16,1,1715.6000000238419,151591.5,7107,VNB,A,15
16,test,1,0.0,1-Back,1,m,Fri Apr 11 2025 15:50:13 GMT-0500 (Central Daylight Time),154990.30000007153,109_y_m_n_a.png,O,m,646,17,1,1663.8999999761581,153326.40000009537,7107,VNB,A,16
17,test,1,0.0,1-Back,1,m,Fri Apr 11 2025 15:50:13 GMT-0500 (Central Daylight Time),157322.90000009537,124_o_f_h_a.png,O,m,1266,18,1,2298.0,155024.90000009537,7107,VNB,A,17
0,test,2,0.0,1-Back,,,Fri Apr 11 2025 15:50:13 GMT-0500 (Central Daylight Time),157322.90000009537,109_y_m_n_a.png,O,space,935,1,1,2298.0,155024.90000009537,7107,VNB,A,0
1,test,2,0.0,1-Back,1,m,Fri Apr 11 2025 15:50:13 GMT-0500 (Central Daylight Time),162271.40000009537,071_y_f_h_a.png,O,m,913,2,1,1934.1000000238419,160337.30000007153,7107,VNB,A,1
2,test,2,1.0,1-Back,1,m,Fri Apr 11 2025 15:50:13 GMT-0500 (Central Daylight Time),163970.80000007153,039_o_m_n_a.png,O,m,658,3,1,1673.3000000715256,162297.5,7107,VNB,A,2
2,test,2,0.0,1-Back,0,m,Fri Apr 11 2025 15:50:13 GMT-0500 (Central Daylight Time),165820.0,139_m_f_d_a.png,O,z,782,4,1,1816.3999999761581,164003.60000002384,7107,VNB,A,3
3,test,2,0.0,1-Back,1,z,Fri Apr 11 2025 15:50:13 GMT-0500 (Central Daylight Time),167719.5,165_m_m_d_a.png,O,z,855,5,1,1872.7999999523163,165846.70000004768,7107,VNB,A,4
4,test,2,0.0,1-Back,1,m,Fri Apr 11 2025 15:50:13 GMT-0500 (Central Daylight Time),169653.0,109_y_m_h_a.png,O,m,881,6,1,1900.3999999761581,167752.60000002384,7107,VNB,A,5
5,test,2,1.0,1-Back,1,z,Fri Apr 11 2025 15:50:13 GMT-0500 (Central Daylight Time),171334.5,124_o_f_h_a.png,O,z,644,7,1,1654.0999999046326,169680.40000009537,7107,VNB,A,6
6,test,2,0.0,1-Back,1,m,Fri Apr 11 2025 15:50:13 GMT-0500 (Central Daylight Time),172934.40000009537,139_m_f_n_a.png,O,m,579,8,1,1584.9000000953674,171349.5,7107,VNB,A,7
7,test,2,0.0,1-Back,1,m,Fri Apr 11 2025 15:50:13 GMT-0500 (Central Daylight Time),174667.60000002384,071_y_f_d_a.png,O,m,674,9,1,1700.0,172967.60000002384,7107,VNB,A,8
8,test,2,0.0,1-Back,1,m,Fri Apr 11 2025 15:50:13 GMT-0500 (Central Daylight Time),176916.30000007153,165_m_m_n_a.png,O,m,1190,10,1,2214.2000000476837,174702.10000002384,7107,VNB,A,9
9,test,2,1.0,1-Back,1,m,Fri Apr 11 2025 15:50:13 GMT-0500 (Central Daylight Time),178982.40000009537,139_m_f_h_a.png,O,m,1029,11,1,2041.9000000953674,176940.5,7107,VNB,A,10
10,test,2,0.0,1-Back,1,z,Fri Apr 11 2025 15:50:13 GMT-0500 (Central Daylight Time),180715.5,039_o_m_h_a.png,O,z,683,12,1,1706.5,179009.0,7107,VNB,A,11
11,test,2,0.0,1-Back,1,m,Fri Apr 11 2025 15:50:13 GMT-0500 (Central Daylight Time),182298.30000007153,109_y_m_d_a.png,O,m,534,13,1,1554.3000000715256,180744.0,7107,VNB,A,12
12,test,2,0.0,1-Back,1,m,Fri Apr 11 2025 15:50:13 GMT-0500 (Central Daylight Time),184347.40000009537,124_o_f_n_a.png,O,m,983,14,1,2016.4000000953674,182331.0,7107,VNB,A,13
13,test,2,0.0,1-Back,1,z,Fri Apr 11 2025 15:50:13 GMT-0500 (Central Daylight Time),186263.40000009537,071_y_f_n_a.png,O,z,870,15,1,1885.1000000238419,184378.30000007153,7107,VNB,A,14
14,test,2,1.0,1-Back,1,m,Fri Apr 11 2025 15:50:13 GMT-0500 (Central Daylight Time),188197.10000002384,165_m_m_h_a.png,O,m,898,16,1,1903.2999999523163,186293.80000007153,7107,VNB,A,15
15,test,2,0.0,1-Back,1,m,Fri Apr 11 2025 15:50:13 GMT-0500 (Central Daylight Time),189962.0,124_o_f_d_a.png,O,m,719,17,1,1741.5999999046326,188220.40000009537,7107,VNB,A,16
15,test,2,1.0,1-Back,0,z,Fri Apr 11 2025 15:50:13 GMT-0500 (Central Daylight Time),192228.90000009537,039_o_m_d_a.png,O,m,1231,18,1,2239.8000000715256,189989.10000002384,7107,VNB,A,17
0,test,3,1.0,1-Back,,,Fri Apr 11 2025 15:50:13 GMT-0500 (Central Daylight Time),192228.90000009537,124_o_f_h_a.png,O,space,685,1,1,2239.8000000715256,189989.10000002384,7107,VNB,A,0
1,test,3,0.0,1-Back,1,m,Fri Apr 11 2025 15:50:13 GMT-0500 (Central Daylight Time),196709.80000007153,139_m_f_d_a.png,O,m,613,2,1,1632.0,195077.80000007153,7107,VNB,A,1
2,test,3,1.0,1-Back,1,m,Fri Apr 11 2025 15:50:13 GMT-0500 (Central Daylight Time),199142.0,165_m_m_n_a.png,O,m,1386,3,1,2405.399999976158,196736.60000002384,7107,VNB,A,2
3,test,3,0.0,1-Back,1,z,Fri Apr 11 2025 15:50:13 GMT-0500 (Central Daylight Time),201008.5,124_o_f_n_a.png,O,z,820,4,1,1847.6999999284744,199160.80000007153,7107,VNB,A,3
4,test,3,1.0,1-Back,1,m,Fri Apr 11 2025 15:50:13 GMT-0500 (Central Daylight Time),202657.80000007153,039_o_m_d_a.png,O,m,584,5,1,1614.5,201043.30000007153,7107,VNB,A,4
5,test,3,0.0,1-Back,1,m,Fri Apr 11 2025 15:50:13 GMT-0500 (Central Daylight Time),204424.0,071_y_f_h_a.png,O,m,703,6,1,1731.5999999046326,202692.40000009537,7107,VNB,A,5
6,test,3,0.0,1-Back,1,z,Fri Apr 11 2025 15:50:13 GMT-0500 (Central Daylight Time),206141.20000004768,109_y_m_h_a.png,O,z,681,7,1,1688.6000000238419,204452.60000002384,7107,VNB,A,6
7,test,3,0.0,1-Back,1,m,Fri Apr 11 2025 15:50:13 GMT-0500 (Central Daylight Time),207773.10000002384,139_m_f_n_a.png,O,m,581,8,1,1596.8999999761581,206176.20000004768,7107,VNB,A,7
8,test,3,0.0,1-Back,1,m,Fri Apr 11 2025 15:50:13 GMT-0500 (Central Daylight Time),209439.10000002384,071_y_f_d_a.png,O,m,620,9,1,1635.0,207804.10000002384,7107,VNB,A,8
9,test,3,1.0,1-Back,1,m,Fri Apr 11 2025 15:50:13 GMT-0500 (Central Daylight Time),211555.10000002384,039_o_m_n_a.png,O,m,1052,10,1,2082.1999999284744,209472.90000009537,7107,VNB,A,9
10,test,3,0.0,1-Back,1,m,Fri Apr 11 2025 15:50:13 GMT-0500 (Central Daylight Time),213870.80000007153,165_m_m_h_a.png,O,m,1278,11,1,2286.7000000476837,211584.10000002384,7107,VNB,A,10
11,test,3,0.0,1-Back,1,z,Fri Apr 11 2025 15:50:13 GMT-0500 (Central Daylight Time),215437.20000004768,139_m_f_h_a.png,O,z,530,12,1,1540.7999999523163,213896.40000009537,7107,VNB,A,11
12,test,3,1.0,1-Back,1,m,Fri Apr 11 2025 15:50:13 GMT-0500 (Central Daylight Time),217120.0,124_o_f_d_a.png,O,m,636,13,1,1661.3999999761581,215458.60000002384,7107,VNB,A,12
13,test,3,0.0,1-Back,1,z,Fri Apr 11 2025 15:50:13 GMT-0500 (Central Daylight Time),218853.0,165_m_m_d_a.png,O,z,681,14,1,1699.6999999284744,217153.30000007153,7107,VNB,A,13
14,test,3,0.0,1-Back,1,m,Fri Apr 11 2025 15:50:13 GMT-0500 (Central Daylight Time),220768.70000004768,109_y_m_n_a.png,O,m,869,15,1,1891.0,218877.70000004768,7107,VNB,A,14
15,test,3,1.0,1-Back,1,m,Fri Apr 11 2025 15:50:13 GMT-0500 (Central Daylight Time),222634.70000004768,039_o_m_h_a.png,O,m,824,16,1,1836.7000000476837,220798.0,7107,VNB,A,15
16,test,3,0.0,1-Back,1,m,Fri Apr 11 2025 15:50:13 GMT-0500 (Central Daylight Time),224650.80000007153,109_y_m_d_a.png,O,m,967,17,1,1989.8000000715256,222661.0,7107,VNB,A,16
16,test,3,1.0,1-Back,0,m,Fri Apr 11 2025 15:50:13 GMT-0500 (Central Daylight Time),227466.40000009537,071_y_f_n_a.png,O,z,1750,18,1,2782.7000000476837,224683.70000004768,7107,VNB,A,17
0,test,4,1.0,1-Back,,,Fri Apr 11 2025 15:50:13 GMT-0500 (Central Daylight Time),227466.40000009537,165_m_m_d_a.png,O,space,615,1,1,2782.7000000476837,224683.70000004768,7107,VNB,A,0
1,test,4,0.0,1-Back,1,z,Fri Apr 11 2025 15:50:13 GMT-0500 (Central Daylight Time),232298.40000009537,039_o_m_d_a.png,O,z,1117,2,1,2139.600000023842,230158.80000007153,7107,VNB,A,1
2,test,4,0.0,1-Back,1,m,Fri Apr 11 2025 15:50:13 GMT-0500 (Central Daylight Time),233981.80000007153,109_y_m_h_a.png,O,m,648,3,1,1659.3999999761581,232322.40000009537,7107,VNB,A,2
3,test,4,0.0,1-Back,1,m,Fri Apr 11 2025 15:50:13 GMT-0500 (Central Daylight Time),236497.0,139_m_f_n_a.png,O,m,1468,4,1,2492.5999999046326,234004.40000009537,7107,VNB,A,3
4,test,4,1.0,1-Back,1,m,Fri Apr 11 2025 15:50:13 GMT-0500 (Central Daylight Time),238446.10000002384,124_o_f_h_a.png,O,m,896,5,1,1916.3999999761581,236529.70000004768,7107,VNB,A,4
5,test,4,0.0,1-Back,1,m,Fri Apr 11 2025 15:50:13 GMT-0500 (Central Daylight Time),240213.0,165_m_m_n_a.png,O,m,731,6,1,1744.2999999523163,238468.70000004768,7107,VNB,A,5
6,test,4,0.0,1-Back,1,m,Fri Apr 11 2025 15:50:13 GMT-0500 (Central Daylight Time),242211.80000007153,109_y_m_d_a.png,O,m,948,7,1,1973.7000000476837,240238.10000002384,7107,VNB,A,6
7,test,4,1.0,1-Back,1,z,Fri Apr 11 2025 15:50:13 GMT-0500 (Central Daylight Time),244011.0,071_y_f_d_a.png,O,z,750,8,1,1767.1999999284744,242243.80000007153,7107,VNB,A,7
8,test,4,0.0,1-Back,1,m,Fri Apr 11 2025 15:50:13 GMT-0500 (Central Daylight Time),245910.30000007153,139_m_f_h_a.png,O,m,846,9,1,1866.5,244043.80000007153,7107,VNB,A,8
9,test,4,0.0,1-Back,1,z,Fri Apr 11 2025 15:50:13 GMT-0500 (Central Daylight Time),247626.5,039_o_m_h_a.png,O,z,667,10,1,1688.5,245938.0,7107,VNB,A,9
10,test,4,1.0,1-Back,1,m,Fri Apr 11 2025 15:50:13 GMT-0500 (Central Daylight Time),249326.0,124_o_f_n_a.png,O,m,648,11,1,1663.8999999761581,247662.10000002384,7107,VNB,A,10
11,test,4,0.0,1-Back,1,m,Fri Apr 11 2025 15:50:13 GMT-0500 (Central Daylight Time),251475.0,139_m_f_d_a.png,O,m,1098,12,1,2120.5,249354.5,7107,VNB,A,11
12,test,4,0.0,1-Back,1,m,Fri Apr 11 2025 15:50:13 GMT-0500 (Central Daylight Time),253441.30000007153,071_y_f_n_a.png,O,m,926,13,1,1947.0,251494.30000007153,7107,VNB,A,12
12,test,4,0.0,1-Back,0,m,Fri Apr 11 2025 15:50:13 GMT-0500 (Central Daylight Time),256073.80000007153,124_o_f_d_a.png,O,z,1584,14,1,2606.399999976158,253467.40000009537,7107,VNB,A,13
13,test,4,0.0,1-Back,1,m,Fri Apr 11 2025 15:50:13 GMT-0500 (Central Daylight Time),257989.60000002384,071_y_f_h_a.png,O,m,879,15,1,1885.6999999284744,256103.90000009537,7107,VNB,A,14
14,test,4,1.0,1-Back,1,z,Fri Apr 11 2025 15:50:13 GMT-0500 (Central Daylight Time),259739.40000009537,165_m_m_h_a.png,O,z,702,16,1,1726.5,258012.90000009537,7107,VNB,A,15
15,test,4,0.0,1-Back,1,m,Fri Apr 11 2025 15:50:13 GMT-0500 (Central Daylight Time),261455.40000009537,039_o_m_n_a.png,O,m,671,17,1,1686.8000000715256,259768.60000002384,7107,VNB,A,16
16,test,4,1.0,1-Back,1,z,Fri Apr 11 2025 15:50:13 GMT-0500 (Central Daylight Time),263754.60000002384,109_y_m_n_a.png,O,z,1250,18,1,2274.100000023842,261480.5,7107,VNB,A,17
0,test,5,1.0,1-Back,,,Fri Apr 11 2025 15:50:13 GMT-0500 (Central Daylight Time),263754.60000002384,039_o_m_n_a.png,O,space,639,1,1,2274.100000023842,261480.5,7107,VNB,A,0
1,test,5,1.0,1-Back,1,m,Fri Apr 11 2025 15:50:13 GMT-0500 (Central Daylight Time),268469.7000000477,124_o_f_h_a.png,O,m,981,2,1,2000.7999999523163,266468.90000009537,7107,VNB,A,1
2,test,5,0.0,1-Back,1,m,Fri Apr 11 2025 15:50:13 GMT-0500 (Central Daylight Time),270136.10000002384,109_y_m_d_a.png,O,m,629,3,1,1639.6000000238419,268496.5,7107,VNB,A,2
3,test,5,0.0,1-Back,1,z,Fri Apr 11 2025 15:50:13 GMT-0500 (Central Daylight Time),271801.90000009537,039_o_m_d_a.png,O,z,609,4,1,1631.1000000238419,270170.8000000715,7107,VNB,A,3
4,test,5,0.0,1-Back,1,m,Fri Apr 11 2025 15:50:13 GMT-0500 (Central Daylight Time),273950.90000009537,139_m_f_h_a.png,O,m,1103,5,1,2121.8000000715256,271829.10000002384,7107,VNB,A,4
5,test,5,0.0,1-Back,1,m,Fri Apr 11 2025 15:50:13 GMT-0500 (Central Daylight Time),275617.2000000477,071_y_f_n_a.png,O,m,618,6,1,1642.6000000238419,273974.60000002384,7107,VNB,A,5
6,test,5,1.0,1-Back,1,z,Fri Apr 11 2025 15:50:13 GMT-0500 (Central Daylight Time),277516.7000000477,124_o_f_n_a.png,O,z,856,7,1,1875.6000000238419,275641.10000002384,7107,VNB,A,6
7,test,5,0.0,1-Back,1,m,Fri Apr 11 2025 15:50:13 GMT-0500 (Central Daylight Time),279266.40000009537,139_m_f_d_a.png,O,m,693,8,1,1716.7000000476837,277549.7000000477,7107,VNB,A,7
8,test,5,0.0,1-Back,1,m,Fri Apr 11 2025 15:50:13 GMT-0500 (Central Daylight Time),280982.3000000715,109_y_m_h_a.png,O,m,671,9,1,1686.8999999761581,279295.40000009537,7107,VNB,A,8
9,test,5,0.0,1-Back,1,m,Fri Apr 11 2025 15:50:13 GMT-0500 (Central Daylight Time),282714.90000009537,071_y_f_d_a.png,O,m,682,10,1,1705.0,281009.90000009537,7107,VNB,A,9
10,test,5,0.0,1-Back,1,m,Fri Apr 11 2025 15:50:13 GMT-0500 (Central Daylight Time),284581.2000000477,165_m_m_n_a.png,O,m,831,11,1,1836.6000000238419,282744.60000002384,7107,VNB,A,10
11,test,5,1.0,1-Back,1,z,Fri Apr 11 2025 15:50:13 GMT-0500 (Central Daylight Time),286630.5,139_m_f_n_a.png,O,z,1012,12,1,2021.7999999523163,284608.7000000477,7107,VNB,A,11
12,test,5,0.0,1-Back,1,m,Fri Apr 11 2025 15:50:13 GMT-0500 (Central Daylight Time),288346.10000002384,039_o_m_h_a.png,O,m,649,13,1,1681.1000000238419,286665.0,7107,VNB,A,12
13,test,5,0.0,1-Back,1,z,Fri Apr 11 2025 15:50:13 GMT-0500 (Central Daylight Time),290128.5,165_m_m_h_a.png,O,z,750,14,1,1768.0999999046326,288360.40000009537,7107,VNB,A,13
14,test,5,1.0,1-Back,1,m,Fri Apr 11 2025 15:50:13 GMT-0500 (Central Daylight Time),291894.8000000715,124_o_f_d_a.png,O,m,744,15,1,1757.2000000476837,290137.60000002384,7107,VNB,A,14
15,test,5,0.0,1-Back,1,m,Fri Apr 11 2025 15:50:13 GMT-0500 (Central Daylight Time),293711.40000009537,109_y_m_n_a.png,O,m,778,16,1,1797.5,291913.90000009537,7107,VNB,A,15
16,test,5,0.0,1-Back,1,m,Fri Apr 11 2025 15:50:13 GMT-0500 (Central Daylight Time),295477.60000002384,071_y_f_h_a.png,O,m,705,17,1,1726.7999999523163,293750.8000000715,7107,VNB,A,16
17,test,5,0.0,1-Back,1,m,Fri Apr 11 2025 15:50:13 GMT-0500 (Central Daylight Time),297477.5,165_m_m_d_a.png,O,m,947,18,1,1964.8999999761581,295512.60000002384,7107,VNB,A,17
0,prac,1,0.0,2-Back,,,Fri Apr 11 2025 15:50:13 GMT-0500 (Central Daylight Time),297477.5,139_m_f_n_a.png,O,space,3694,1,1,1964.8999999761581,295512.60000002384,7107,VNB,A,0
0,prac,1,0.0,2-Back,,,Fri Apr 11 2025 15:50:13 GMT-0500 (Central Daylight Time),297477.5,124_o_f_h_a.png,O,space,3694,2,1,1964.8999999761581,295512.60000002384,7107,VNB,A,0
1,prac,1,0.0,2-Back,1,m,Fri Apr 11 2025 15:50:13 GMT-0500 (Central Daylight Time),373102.7000000477,039_o_m_d_a.png,O,m,1615,3,1,2459.7999999523163,370642.90000009537,7107,VNB,A,1
2,prac,1,1.0,2-Back,1,z,Fri Apr 11 2025 15:50:13 GMT-0500 (Central Daylight Time),375284.2000000477,165_m_m_h_a.png,O,z,1311,4,1,2145.5,373138.7000000477,7107,VNB,A,2
3,prac,1,0.0,2-Back,1,m,Fri Apr 11 2025 15:50:13 GMT-0500 (Central Daylight Time),377084.40000009537,071_y_f_n_a.png,O,m,961,5,1,1783.1000000238419,375301.3000000715,7107,VNB,A,3
4,prac,1,1.0,2-Back,1,z,Fri Apr 11 2025 15:50:13 GMT-0500 (Central Daylight Time),378667.2000000477,039_o_m_h_a.png,O,z,717,6,1,1544.3999999761581,377122.8000000715,7107,VNB,A,4
5,prac,1,1.0,2-Back,1,z,Fri Apr 11 2025 15:50:13 GMT-0500 (Central Daylight Time),380766.40000009537,109_y_m_n_a.png,O,z,1216,7,1,2057.3000000715256,378709.10000002384,7107,VNB,A,5
6,prac,1,0.0,2-Back,1,m,Fri Apr 11 2025 15:50:13 GMT-0500 (Central Daylight Time),383148.90000009537,139_m_f_d_a.png,O,m,1517,8,1,2337.8000000715256,380811.10000002384,7107,VNB,A,6
6,prac,1,0.0,2-Back,0,m,Fri Apr 11 2025 15:50:13 GMT-0500 (Central Daylight Time),385264.90000009537,124_o_f_d_a.png,O,z,1201,9,1,2078.2000000476837,383186.7000000477,7107,VNB,A,7
6,prac,1,0.0,2-Back,0,m,Fri Apr 11 2025 15:50:13 GMT-0500 (Central Daylight Time),386964.2000000477,165_m_m_h_a.png,O,z,845,10,1,1668.5,385295.7000000477,7107,VNB,A,8
7,prac,1,1.0,2-Back,1,z,Fri Apr 11 2025 15:50:13 GMT-0500 (Central Daylight Time),388680.7000000477,071_y_f_d_a.png,O,z,860,11,1,1683.3999999761581,386997.3000000715,7107,VNB,A,9
7,prac,1,0.0,2-Back,0,m,Fri Apr 11 2025 15:50:13 GMT-0500 (Central Daylight Time),391262.90000009537,039_o_m_n_a.png,O,z,1716,12,1,2548.0,388714.90000009537,7107,VNB,A,10
0,test,1,0.0,2-Back,,,Fri Apr 11 2025 15:50:13 GMT-0500 (Central Daylight Time),391262.90000009537,109_y_m_h_a.png,O,space,4564,1,1,2548.0,388714.90000009537,7107,VNB,A,0
0,test,1,0.0,2-Back,,,Fri Apr 11 2025 15:50:13 GMT-0500 (Central Daylight Time),391262.90000009537,124_o_f_n_a.png,O,space,4564,2,1,2548.0,388714.90000009537,7107,VNB,A,0
1,test,1,0.0,2-Back,1,z,Fri Apr 11 2025 15:50:13 GMT-0500 (Central Daylight Time),408341.60000002384,039_o_m_h_a.png,O,z,715,3,1,1723.7999999523163,406617.8000000715,7107,VNB,A,1
2,test,1,0.0,2-Back,1,m,Fri Apr 11 2025 15:50:13 GMT-0500 (Central Daylight Time),410473.3000000715,139_m_f_d_a.png,O,m,1068,4,1,2095.5,408377.8000000715,7107,VNB,A,2
3,test,1,1.0,2-Back,1,m,Fri Apr 11 2025 15:50:13 GMT-0500 (Central Daylight Time),412289.2000000477,109_y_m_n_a.png,O,m,754,5,1,1778.8999999761581,410510.3000000715,7107,VNB,A,3
3,test,1,0.0,2-Back,0,z,Fri Apr 11 2025 15:50:13 GMT-0500 (Central Daylight Time),414221.7000000477,071_y_f_d_a.png,O,m,896,6,1,1903.5,412318.2000000477,7107,VNB,A,4
4,test,1,0.0,2-Back,1,m,Fri Apr 11 2025 15:50:13 GMT-0500 (Central Daylight Time),416337.10000002384,165_m_m_h_a.png,O,m,1076,7,1,2090.2999999523163,414246.8000000715,7107,VNB,A,5
5,test,1,1.0,2-Back,1,m,Fri Apr 11 2025 15:50:13 GMT-0500 (Central Daylight Time),418403.2000000477,071_y_f_n_a.png,O,m,1033,8,1,2054.899999976158,416348.3000000715,7107,VNB,A,6
6,test,1,0.0,2-Back,1,z,Fri Apr 11 2025 15:50:13 GMT-0500 (Central Daylight Time),420086.8000000715,124_o_f_h_a.png,O,z,655,9,1,1673.3999999761581,418413.40000009537,7107,VNB,A,7
7,test,1,0.0,2-Back,1,m,Fri Apr 11 2025 15:50:13 GMT-0500 (Central Daylight Time),422535.0,039_o_m_d_a.png,O,m,1403,10,1,2418.5999999046326,420116.40000009537,7107,VNB,A,8
8,test,1,1.0,2-Back,1,m,Fri Apr 11 2025 15:50:13 GMT-0500 (Central Daylight Time),424635.2000000477,165_m_m_d_a.png,O,m,1067,11,1,2090.100000023842,422545.10000002384,7107,VNB,A,9
8,test,1,0.0,2-Back,0,m,Fri Apr 11 2025 15:50:13 GMT-0500 (Central Daylight Time),427701.10000002384,139_m_f_n_a.png,O,None,2015,12,1,3029.2999999523163,424671.8000000715,7107,VNB,A,10
8,test,1,0.0,2-Back,0,m,Fri Apr 11 2025 15:50:13 GMT-0500 (Central Daylight Time),429500.10000002384,071_y_f_h_a.png,O,z,732,13,1,1766.1999999284744,427733.90000009537,7107,VNB,A,11
9,test,1,0.0,2-Back,1,z,Fri Apr 11 2025 15:50:13 GMT-0500 (Central Daylight Time),431399.5,165_m_m_n_a.png,O,z,845,14,1,1863.2999999523163,429536.2000000477,7107,VNB,A,12
10,test,1,0.0,2-Back,1,m,Fri Apr 11 2025 15:50:13 GMT-0500 (Central Daylight Time),433099.10000002384,109_y_m_d_a.png,O,m,659,15,1,1672.1999999284744,431426.90000009537,7107,VNB,A,13
11,test,1,1.0,2-Back,1,m,Fri Apr 11 2025 15:50:13 GMT-0500 (Central Daylight Time),435464.90000009537,139_m_f_h_a.png,O,m,1310,16,1,2332.2000000476837,433132.7000000477,7107,VNB,A,14
11,test,1,0.0,2-Back,0,z,Fri Apr 11 2025 15:50:13 GMT-0500 (Central Daylight Time),437531.10000002384,124_o_f_d_a.png,O,m,1008,17,1,2030.3999999761581,435500.7000000477,7107,VNB,A,15
11,test,1,0.0,2-Back,0,m,Fri Apr 11 2025 15:50:13 GMT-0500 (Central Daylight Time),440113.3000000715,039_o_m_n_a.png,O,z,1526,18,1,2544.899999976158,437568.40000009537,7107,VNB,A,16
0,test,2,0.0,2-Back,,,Fri Apr 11 2025 15:50:13 GMT-0500 (Central Daylight Time),440113.3000000715,165_m_m_h_a.png,O,space,840,1,1,2544.899999976158,437568.40000009537,7107,VNB,A,0
0,test,2,0.0,2-Back,,,Fri Apr 11 2025 15:50:13 GMT-0500 (Central Daylight Time),440113.3000000715,071_y_f_n_a.png,O,space,840,2,1,2544.899999976158,437568.40000009537,7107,VNB,A,0
1,test,2,1.0,2-Back,1,z,Fri Apr 11 2025 15:50:13 GMT-0500 (Central Daylight Time),447944.10000002384,124_o_f_h_a.png,O,z,746,3,1,1764.2999999523163,446179.8000000715,7107,VNB,A,1
2,test,2,0.0,2-Back,1,m,Fri Apr 11 2025 15:50:13 GMT-0500 (Central Daylight Time),449860.10000002384,039_o_m_d_a.png,O,m,856,4,1,1879.5,447980.60000002384,7107,VNB,A,2
3,test,2,0.0,2-Back,1,m,Fri Apr 11 2025 15:50:13 GMT-0500 (Central Daylight Time),452126.40000009537,139_m_f_d_a.png,O,m,1208,5,1,2229.8000000715256,449896.60000002384,7107,VNB,A,3
4,test,2,0.0,2-Back,1,m,Fri Apr 11 2025 15:50:13 GMT-0500 (Central Daylight Time),454275.40000009537,109_y_m_h_a.png,O,m,1092,6,1,2117.3000000715256,452158.10000002384,7107,VNB,A,4
4,test,2,0.0,2-Back,0,m,Fri Apr 11 2025 15:50:13 GMT-0500 (Central Daylight Time),456174.8000000715,124_o_f_n_a.png,O,z,845,7,1,1864.3999999761581,454310.40000009537,7107,VNB,A,5
4,test,2,1.0,2-Back,0,z,Fri Apr 11 2025 15:50:13 GMT-0500 (Central Daylight Time),459224.0,039_o_m_h_a.png,O,None,2015,8,1,3019.6999999284744,456204.3000000715,7107,VNB,A,6
5,test,2,0.0,2-Back,1,m,Fri Apr 11 2025 15:50:13 GMT-0500 (Central Daylight Time),461589.5,071_y_f_d_a.png,O,m,1314,9,1,2328.5,459261.0,7107,VNB,A,7
6,test,2,0.0,2-Back,1,m,Fri Apr 11 2025 15:50:13 GMT-0500 (Central Daylight Time),464405.40000009537,109_y_m_d_a.png,O,m,1764,10,1,2779.9000000953674,461625.5,7107,VNB,A,8
7,test,2,0.0,2-Back,1,m,Fri Apr 11 2025 15:50:13 GMT-0500 (Central Daylight Time),467038.0,165_m_m_n_a.png,O,m,1596,11,1,2608.6999999284744,464429.3000000715,7107,VNB,A,9
8,test,2,0.0,2-Back,1,m,Fri Apr 11 2025 15:50:13 GMT-0500 (Central Daylight Time),469453.5,139_m_f_h_a.png,O,m,1379,12,1,2386.6999999284744,467066.8000000715,7107,VNB,A,10
9,test,2,1.0,2-Back,1,z,Fri Apr 11 2025 15:50:13 GMT-0500 (Central Daylight Time),471186.5,039_o_m_n_a.png,O,z,668,13,1,1693.7999999523163,469492.7000000477,7107,VNB,A,11
10,test,2,0.0,2-Back,1,m,Fri Apr 11 2025 15:50:13 GMT-0500 (Central Daylight Time),473885.5,124_o_f_d_a.png,O,m,1639,14,1,2663.0999999046326,471222.40000009537,7107,VNB,A,12
11,test,2,0.0,2-Back,1,m,Fri Apr 11 2025 15:50:13 GMT-0500 (Central Daylight Time),476451.60000002384,071_y_f_h_a.png,O,m,1516,15,1,2539.399999976158,473912.2000000477,7107,VNB,A,13
12,test,2,0.0,2-Back,1,z,Fri Apr 11 2025 15:50:13 GMT-0500 (Central Daylight Time),479033.10000002384,165_m_m_d_a.png,O,z,1518,16,1,2549.399999976158,476483.7000000477,7107,VNB,A,14
13,test,2,0.0,2-Back,1,m,Fri Apr 11 2025 15:50:13 GMT-0500 (Central Daylight Time),481549.2000000477,109_y_m_n_a.png,O,m,1487,17,1,2505.7000000476837,479043.5,7107,VNB,A,15
13,test,2,1.0,2-Back,0,m,Fri Apr 11 2025 15:50:13 GMT-0500 (Central Daylight Time),484582.40000009537,139_m_f_n_a.png,O,None,2016,18,1,3023.7000000476837,481558.7000000477,7107,VNB,A,16
0,test,3,1.0,2-Back,,,Fri Apr 11 2025 15:50:13 GMT-0500 (Central Daylight Time),484582.40000009537,039_o_m_n_a.png,O,space,739,1,1,3023.7000000476837,481558.7000000477,7107,VNB,A,0
0,test,3,1.0,2-Back,,,Fri Apr 11 2025 15:50:13 GMT-0500 (Central Daylight Time),484582.40000009537,124_o_f_d_a.png,O,space,739,2,1,3023.7000000476837,481558.7000000477,7107,VNB,A,0
1,test,3,0.0,2-Back,1,m,Fri Apr 11 2025 15:50:13 GMT-0500 (Central Daylight Time),492563.0,071_y_f_h_a.png,O,m,950,3,1,1973.0,490590.0,7107,VNB,A,1
2,test,3,0.0,2-Back,1,z,Fri Apr 11 2025 15:50:13 GMT-0500 (Central Daylight Time),494445.5,139_m_f_d_a.png,O,z,848,4,1,1851.7999999523163,492593.7000000477,7107,VNB,A,2
3,test,3,1.0,2-Back,1,m,Fri Apr 11 2025 15:50:13 GMT-0500 (Central Daylight Time),496794.8000000715,109_y_m_n_a.png,O,m,1291,5,1,2314.5,494480.3000000715,7107,VNB,A,3
3,test,3,0.0,2-Back,0,m,Fri Apr 11 2025 15:50:13 GMT-0500 (Central Daylight Time),498677.3000000715,039_o_m_h_a.png,O,z,847,6,1,1851.6000000238419,496825.7000000477,7107,VNB,A,4
4,test,3,0.0,2-Back,1,z,Fri Apr 11 2025 15:50:13 GMT-0500 (Central Daylight Time),500677.40000009537,071_y_f_n_a.png,O,z,965,7,1,1970.5,498706.90000009537,7107,VNB,A,5
5,test,3,1.0,2-Back,1,m,Fri Apr 11 2025 15:50:13 GMT-0500 (Central Daylight Time),502693.60000002384,165_m_m_d_a.png,O,m,982,8,1,1993.1000000238419,500700.5,7107,VNB,A,6
6,test,3,0.0,2-Back,1,m,Fri Apr 11 2025 15:50:13 GMT-0500 (Central Daylight Time),505375.3000000715,109_y_m_d_a.png,O,m,1620,9,1,2645.0,502730.3000000715,7107,VNB,A,7
7,test,3,0.0,2-Back,1,m,Fri Apr 11 2025 15:50:13 GMT-0500 (Central Daylight Time),507408.0,124_o_f_h_a.png,O,m,986,10,1,2002.1999999284744,505405.8000000715,7107,VNB,A,8
8,test,3,1.0,2-Back,1,m,Fri Apr 11 2025 15:50:13 GMT-0500 (Central Daylight Time),509690.5,139_m_f_n_a.png,O,m,1225,11,1,2245.7999999523163,507444.7000000477,7107,VNB,A,9
9,test,3,1.0,2-Back,1,z,Fri Apr 11 2025 15:50:13 GMT-0500 (Central Daylight Time),511290.10000002384,165_m_m_h_a.png,O,z,542,12,1,1565.8999999761581,509724.2000000477,7107,VNB,A,10
10,test,3,0.0,2-Back,1,m,Fri Apr 11 2025 15:50:13 GMT-0500 (Central Daylight Time),513072.90000009537,071_y_f_d_a.png,O,m,736,13,1,1753.2000000476837,511319.7000000477,7107,VNB,A,11
11,test,3,0.0,2-Back,1,m,Fri Apr 11 2025 15:50:13 GMT-0500 (Central Daylight Time),514972.90000009537,124_o_f_n_a.png,O,m,848,14,1,1862.0,513110.90000009537,7107,VNB,A,12
11,test,3,0.0,2-Back,0,z,Fri Apr 11 2025 15:50:13 GMT-0500 (Central Daylight Time),517104.8000000715,039_o_m_d_a.png,O,m,1082,15,1,2101.0,515003.8000000715,7107,VNB,A,13
11,test,3,1.0,2-Back,0,m,Fri Apr 11 2025 15:50:13 GMT-0500 (Central Daylight Time),519420.8000000715,139_m_f_h_a.png,O,z,1277,16,1,2284.5,517136.3000000715,7107,VNB,A,14
11,test,3,0.0,2-Back,0,m,Fri Apr 11 2025 15:50:13 GMT-0500 (Central Daylight Time),522470.10000002384,165_m_m_n_a.png,O,None,2015,17,1,3020.6999999284744,519449.40000009537,7107,VNB,A,15
12,test,3,0.0,2-Back,1,z,Fri Apr 11 2025 15:50:13 GMT-0500 (Central Daylight Time),525035.5,109_y_m_h_a.png,O,z,1499,18,1,2532.1999999284744,522503.3000000715,7107,VNB,A,16
0,test,4,0.0,2-Back,,,Fri Apr 11 2025 15:50:13 GMT-0500 (Central Daylight Time),525035.5,139_m_f_n_a.png,O,space,651,1,1,2532.1999999284744,522503.3000000715,7107,VNB,A,0
0,test,4,0.0,2-Back,,,Fri Apr 11 2025 15:50:13 GMT-0500 (Central Daylight Time),525035.5,039_o_m_n_a.png,O,space,651,2,1,2532.1999999284744,522503.3000000715,7107,VNB,A,0
1,test,4,1.0,2-Back,1,m,Fri Apr 11 2025 15:50:13 GMT-0500 (Central Daylight Time),532983.3000000715,109_y_m_h_a.png,O,m,996,3,1,2029.2000000476837,530954.1000000238,7107,VNB,A,1
2,test,4,1.0,2-Back,1,m,Fri Apr 11 2025 15:50:13 GMT-0500 (Central Daylight Time),535765.7000000477,124_o_f_d_a.png,O,m,1743,4,1,2759.2000000476837,533006.5,7107,VNB,A,2
3,test,4,0.0,2-Back,1,z,Fri Apr 11 2025 15:50:13 GMT-0500 (Central Daylight Time),538330.8000000715,039_o_m_h_a.png,O,z,1508,5,1,2531.5,535799.3000000715,7107,VNB,A,3
4,test,4,0.0,2-Back,1,m,Fri Apr 11 2025 15:50:13 GMT-0500 (Central Daylight Time),540513.8000000715,165_m_m_n_a.png,O,m,1134,6,1,2162.7000000476837,538351.1000000238,7107,VNB,A,4
4,test,4,0.0,2-Back,0,m,Fri Apr 11 2025 15:50:13 GMT-0500 (Central Daylight Time),543063.0,139_m_f_d_a.png,O,z,1512,7,1,2521.7999999523163,540541.2000000477,7107,VNB,A,5
5,test,4,0.0,2-Back,1,z,Fri Apr 11 2025 15:50:13 GMT-0500 (Central Daylight Time),545328.2000000477,071_y_f_n_a.png,O,z,1217,8,1,2238.100000023842,543090.1000000238,7107,VNB,A,6
6,test,4,1.0,2-Back,1,m,Fri Apr 11 2025 15:50:13 GMT-0500 (Central Daylight Time),547644.8000000715,124_o_f_h_a.png,O,m,1289,9,1,2303.2000000476837,545341.6000000238,7107,VNB,A,7
6,test,4,0.0,2-Back,0,m,Fri Apr 11 2025 15:50:13 GMT-0500 (Central Daylight Time),549927.4000000954,165_m_m_h_a.png,O,z,1246,10,1,2251.8000000715256,547675.6000000238,7107,VNB,A,8
7,test,4,0.0,2-Back,1,m,Fri Apr 11 2025 15:50:13 GMT-0500 (Central Daylight Time),552026.1000000238,071_y_f_d_a.png,O,m,1049,11,1,2068.2999999523163,549957.8000000715,7107,VNB,A,9
7,test,4,0.0,2-Back,0,m,Fri Apr 11 2025 15:50:13 GMT-0500 (Central Daylight Time),554342.7000000477,109_y_m_n_a.png,O,z,1296,12,1,2302.899999976158,552039.8000000715,7107,VNB,A,10
7,test,4,0.0,2-Back,0,z,Fri Apr 11 2025 15:50:13 GMT-0500 (Central Daylight Time),557375.1000000238,039_o_m_d_a.png,O,m,1995,13,1,3006.100000023842,554369.0,7107,VNB,A,11
7,test,4,1.0,2-Back,0,m,Fri Apr 11 2025 15:50:13 GMT-0500 (Central Daylight Time),560424.0,139_m_f_h_a.png,O,None,2014,14,1,3022.0,557402.0,7107,VNB,A,12
8,test,4,1.0,2-Back,1,m,Fri Apr 11 2025 15:50:13 GMT-0500 (Central Daylight Time),562389.8000000715,071_y_f_h_a.png,O,m,913,15,1,1933.3000000715256,560456.5,7107,VNB,A,13
9,test,4,0.0,2-Back,1,m,Fri Apr 11 2025 15:50:13 GMT-0500 (Central Daylight Time),564471.8000000715,124_o_f_n_a.png,O,m,1026,16,1,2046.3000000715256,562425.5,7107,VNB,A,14
10,test,4,0.0,2-Back,1,m,Fri Apr 11 2025 15:50:13 GMT-0500 (Central Daylight Time),566505.3000000715,109_y_m_d_a.png,O,m,1009,17,1,2022.8999999761581,564482.4000000954,7107,VNB,A,15
11,test,4,1.0,2-Back,1,m,Fri Apr 11 2025 15:50:13 GMT-0500 (Central Daylight Time),568537.9000000954,165_m_m_d_a.png,O,m,968,18,1,1996.9000000953674,566541.0,7107,VNB,A,16
0,test,5,1.0,2-Back,,,Fri Apr 11 2025 15:50:13 GMT-0500 (Central Daylight Time),568537.9000000954,071_y_f_d_a.png,O,space,985,1,1,1996.9000000953674,566541.0,7107,VNB,A,0
0,test,5,1.0,2-Back,,,Fri Apr 11 2025 15:50:13 GMT-0500 (Central Daylight Time),568537.9000000954,124_o_f_h_a.png,O,space,985,2,1,1996.9000000953674,566541.0,7107,VNB,A,0
1,test,5,1.0,2-Back,1,z,Fri Apr 11 2025 15:50:13 GMT-0500 (Central Daylight Time),576635.2000000477,039_o_m_d_a.png,O,z,859,3,1,1868.8999999761581,574766.3000000715,7107,VNB,A,1
2,test,5,1.0,2-Back,1,m,Fri Apr 11 2025 15:50:13 GMT-0500 (Central Daylight Time),579200.4000000954,139_m_f_n_a.png,O,m,1517,4,1,2538.3000000715256,576662.1000000238,7107,VNB,A,2
2,test,5,0.0,2-Back,0,m,Fri Apr 11 2025 15:50:13 GMT-0500 (Central Daylight Time),581333.9000000954,165_m_m_h_a.png,O,z,1105,5,1,2119.600000023842,579214.3000000715,7107,VNB,A,3
3,test,5,0.0,2-Back,1,z,Fri Apr 11 2025 15:50:13 GMT-0500 (Central Daylight Time),583482.9000000954,071_y_f_n_a.png,O,z,1100,6,1,2118.8000000715256,581364.1000000238,7107,VNB,A,4
3,test,5,0.0,2-Back,0,m,Fri Apr 11 2025 15:50:13 GMT-0500 (Central Daylight Time),586532.2000000477,124_o_f_d_a.png,O,None,2014,7,1,3029.5,583502.7000000477,7107,VNB,A,5
3,test,5,0.0,2-Back,0,m,Fri Apr 11 2025 15:50:13 GMT-0500 (Central Daylight Time),589565.1000000238,039_o_m_h_a.png,O,z,1997,8,1,3003.1999999284744,586561.9000000954,7107,VNB,A,6
3,test,5,1.0,2-Back,0,z,Fri Apr 11 2025 15:50:13 GMT-0500 (Central Daylight Time),592613.3000000715,139_m_f_d_a.png,O,None,2016,9,1,3021.8000000715256,589591.5,7107,VNB,A,7
4,test,5,0.0,2-Back,1,m,Fri Apr 11 2025 15:50:13 GMT-0500 (Central Daylight Time),594529.4000000954,109_y_m_n_a.png,O,m,877,10,1,1885.5,592643.9000000954,7107,VNB,A,8
5,test,5,0.0,2-Back,1,m,Fri Apr 11 2025 15:50:13 GMT-0500 (Central Daylight Time),596528.8000000715,165_m_m_n_a.png,O,m,943,11,1,1966.1000000238419,594562.7000000477,7107,VNB,A,9
6,test,5,0.0,2-Back,1,m,Fri Apr 11 2025 15:50:13 GMT-0500 (Central Daylight Time),598661.3000000715,071_y_f_h_a.png,O,m,1074,12,1,2097.5,596563.8000000715,7107,VNB,A,10
7,test,5,0.0,2-Back,1,m,Fri Apr 11 2025 15:50:13 GMT-0500 (Central Daylight Time),601143.9000000954,109_y_m_d_a.png,O,m,1427,13,1,2441.7000000476837,598702.2000000477,7107,VNB,A,11
7,test,5,1.0,2-Back,0,z,Fri Apr 11 2025 15:50:13 GMT-0500 (Central Daylight Time),604193.0,139_m_f_h_a.png,O,None,2015,14,1,3021.0999999046326,601171.9000000954,7107,VNB,A,12
7,test,5,0.0,2-Back,0,m,Fri Apr 11 2025 15:50:13 GMT-0500 (Central Daylight Time),606192.3000000715,039_o_m_n_a.png,O,z,953,15,1,1968.3999999761581,604223.9000000954,7107,VNB,A,13
7,test,5,0.0,2-Back,0,m,Fri Apr 11 2025 15:50:13 GMT-0500 (Central Daylight Time),609107.8000000715,165_m_m_d_a.png,O,z,1849,16,1,2879.7000000476837,606228.1000000238,7107,VNB,A,14
7,test,5,0.0,2-Back,0,z,Fri Apr 11 2025 15:50:13 GMT-0500 (Central Daylight Time),611323.8000000715,124_o_f_n_a.png,O,m,1149,17,1,2181.100000023842,609142.7000000477,7107,VNB,A,15
7,test,5,1.0,2-Back,0,m,Fri Apr 11 2025 15:50:13 GMT-0500 (Central Daylight Time),613989.5,109_y_m_h_a.png,O,z,1613,18,1,2628.5,611361.0,7107,VNB,A,16
