acc_sum,block,block_c,block_cond,con_img,correct,correct_response,datetime,endtime,face,jitter,line,project,response,response_time,row_sel,session_number,start_end,starttime,subject_id,task,task_vers,trial
1,prac,1,A,haborder.png,1,m,Fri Apr 11 2025 09:46:01 GMT-0400 (Eastern Daylight Time),74642.9000005722,CFD-WM-006-013-HC.jpg,1700,solid,I,m,862,9,1,3367.1000003814697,71275.80000019073,9011,ATS,A,1
2,prac,1,A,haborder.png,1,z,Fri Apr 11 2025 09:46:01 GMT-0400 (Eastern Daylight Time),77776.0,CFD-BM-005-010-A.jpg,1600,solid,I,z,716,2,1,6500.199999809265,71275.80000019073,9011,ATS,A,2
3,prac,1,A,haborder.png,1,m,Fri Apr 11 2025 09:46:01 GMT-0400 (Eastern Daylight Time),81759.19999980927,CFD-BF-028-020-HC.jpg,2000,solid,I,m,1167,5,1,10483.39999961853,71275.80000019073,9011,ATS,A,3
4,prac,1,A,haborder.png,1,z,Fri Apr 11 2025 09:46:01 GMT-0400 (Eastern Daylight Time),84325.9000005722,CFD-WF-019-015-A.jpg,1000,solid,I,z,760,12,1,13050.10000038147,71275.80000019073,9011,ATS,A,4
5,prac,1,A,haborder.png,1,z,Fri Apr 11 2025 09:46:01 GMT-0400 (Eastern Daylight Time),86859.10000038147,CFD-BF-023-013-A.jpg,1000,solid,I,z,722,4,1,15583.300000190735,71275.80000019073,9011,ATS,A,5
6,prac,1,A,haborder.png,1,z,Fri Apr 11 2025 09:46:01 GMT-0400 (Eastern Daylight Time),89559.19999980927,CFD-BF-039-039-A.jpg,1200,solid,I,z,691,6,1,18283.39999961853,71275.80000019073,9011,ATS,A,6
7,prac,1,A,haborder.png,1,m,Fri Apr 11 2025 09:46:01 GMT-0400 (Eastern Daylight Time),92859.10000038147,CFD-BM-017-052-HC.jpg,1700,solid,I,m,805,1,1,21583.300000190735,71275.80000019073,9011,ATS,A,7
8,prac,1,A,haborder.png,1,m,Fri Apr 11 2025 09:46:01 GMT-0400 (Eastern Daylight Time),95892.60000038147,CFD-BM-029-026-HC.jpg,1500,solid,I,m,728,3,1,24616.800000190735,71275.80000019073,9011,ATS,A,8
9,prac,1,A,haborder.png,1,m,Fri Apr 11 2025 09:46:01 GMT-0400 (Eastern Daylight Time),99009.0,CFD-WF-017-016-HC.jpg,1500,solid,I,m,814,11,1,27733.199999809265,71275.80000019073,9011,ATS,A,9
10,prac,1,A,haborder.png,1,m,Fri Apr 11 2025 09:46:01 GMT-0400 (Eastern Daylight Time),101842.5,CFD-WM-004-005-HC.jpg,1400,solid,I,m,629,7,1,30566.699999809265,71275.80000019073,9011,ATS,A,10
11,prac,1,A,haborder.png,1,z,Fri Apr 11 2025 09:46:01 GMT-0400 (Eastern Daylight Time),105009.19999980927,CFD-WF-003-014-A.jpg,1600,solid,I,z,765,10,1,33733.39999961853,71275.80000019073,9011,ATS,A,11
12,prac,1,A,haborder.png,1,z,Fri Apr 11 2025 09:46:01 GMT-0400 (Eastern Daylight Time),108475.80000019073,CFD-WM-013-015-A.jpg,1900,solid,I,z,754,8,1,37200.0,71275.80000019073,9011,ATS,A,12
1,prac,1,B,mfborder.png,1,z,Fri Apr 11 2025 09:46:01 GMT-0400 (Eastern Daylight Time),140609.0,CFD-BF-023-013-A.jpg,1000,dash,I,z,1015,4,1,2816.800000190735,137792.19999980927,9011,ATS,A,1
2,prac,1,B,mfborder.png,1,z,Fri Apr 11 2025 09:46:01 GMT-0400 (Eastern Daylight Time),143509.10000038147,CFD-WF-003-014-A.jpg,1500,dash,I,z,595,11,1,5716.900000572205,137792.19999980927,9011,ATS,A,2
3,prac,1,B,mfborder.png,1,m,Fri Apr 11 2025 09:46:01 GMT-0400 (Eastern Daylight Time),146759.10000038147,CFD-WM-013-015-A.jpg,1700,dash,I,m,739,9,1,8966.900000572205,137792.19999980927,9011,ATS,A,3
4,prac,1,B,mfborder.png,1,m,Fri Apr 11 2025 09:46:01 GMT-0400 (Eastern Daylight Time),150142.9000005722,CFD-BM-029-026-HC.jpg,1700,dash,I,m,867,1,1,12350.70000076294,137792.19999980927,9011,ATS,A,4
4,prac,1,B,mfborder.png,0,m,Fri Apr 11 2025 09:46:01 GMT-0400 (Eastern Daylight Time),154042.30000019073,CFD-BM-010-019-A.jpg,1600,dash,I,None,1514,2,1,16250.10000038147,137792.19999980927,9011,ATS,A,5
5,prac,1,B,mfborder.png,1,m,Fri Apr 11 2025 09:46:01 GMT-0400 (Eastern Daylight Time),157475.69999980927,CFD-BM-005-010-A.jpg,2000,dash,I,m,629,5,1,19683.5,137792.19999980927,9011,ATS,A,6
6,prac,1,B,mfborder.png,1,z,Fri Apr 11 2025 09:46:01 GMT-0400 (Eastern Daylight Time),160909.10000038147,CFD-WF-002-008-HC.jpg,1900,dash,I,z,736,8,1,23116.900000572205,137792.19999980927,9011,ATS,A,7
7,prac,1,B,mfborder.png,1,z,Fri Apr 11 2025 09:46:01 GMT-0400 (Eastern Daylight Time),163725.80000019073,CFD-BF-028-020-HC.jpg,1400,dash,I,z,601,7,1,25933.60000038147,137792.19999980927,9011,ATS,A,8
8,prac,1,B,mfborder.png,1,m,Fri Apr 11 2025 09:46:01 GMT-0400 (Eastern Daylight Time),166375.69999980927,CFD-WM-019-013-A.jpg,1200,dash,I,m,642,6,1,28583.5,137792.19999980927,9011,ATS,A,9
9,prac,1,B,mfborder.png,1,z,Fri Apr 11 2025 09:46:01 GMT-0400 (Eastern Daylight Time),168775.69999980927,CFD-WF-017-016-HC.jpg,1000,dash,I,z,592,12,1,30983.5,137792.19999980927,9011,ATS,A,10
10,prac,1,B,mfborder.png,1,z,Fri Apr 11 2025 09:46:01 GMT-0400 (Eastern Daylight Time),171958.9000005722,CFD-BF-010-005-HC.jpg,1500,dash,I,z,876,3,1,34166.70000076294,137792.19999980927,9011,ATS,A,11
11,prac,1,B,mfborder.png,1,m,Fri Apr 11 2025 09:46:01 GMT-0400 (Eastern Daylight Time),175125.60000038147,CFD-WM-006-013-HC.jpg,1600,dash,I,m,759,10,1,37333.400000572205,137792.19999980927,9011,ATS,A,12
1,test,1,A,haborder.png,1,z,Fri Apr 11 2025 09:46:01 GMT-0400 (Eastern Daylight Time),192226.5,CFD-BF-039-039-A.jpg,1200,solid,I,z,786,6,1,2017.6999998092651,190208.80000019073,9011,ATS,A,1
2,test,1,A,haborder.png,1,z,Fri Apr 11 2025 09:46:01 GMT-0400 (Eastern Daylight Time),194525.5,CFD-WF-003-014-A.jpg,1600,solid,I,z,652,10,1,4316.699999809265,190208.80000019073,9011,ATS,A,2
3,test,1,A,haborder.png,1,m,Fri Apr 11 2025 09:46:01 GMT-0400 (Eastern Daylight Time),196575.4000005722,CFD-WM-004-005-HC.jpg,1400,solid,I,m,617,7,1,6366.60000038147,190208.80000019073,9011,ATS,A,3
4,test,1,A,haborder.png,1,z,Fri Apr 11 2025 09:46:01 GMT-0400 (Eastern Daylight Time),198125.5,CFD-BF-023-013-A.jpg,1000,solid,I,z,519,4,1,7916.699999809265,190208.80000019073,9011,ATS,A,4
5,test,1,A,haborder.png,1,m,Fri Apr 11 2025 09:46:01 GMT-0400 (Eastern Daylight Time),200542.19999980927,CFD-WM-006-013-HC.jpg,1700,solid,I,m,686,9,1,10333.39999961853,190208.80000019073,9011,ATS,A,5
6,test,1,A,haborder.png,1,z,Fri Apr 11 2025 09:46:01 GMT-0400 (Eastern Daylight Time),203392.19999980927,CFD-WM-013-015-A.jpg,1900,solid,I,z,917,8,1,13183.39999961853,190208.80000019073,9011,ATS,A,6
7,test,1,A,haborder.png,1,z,Fri Apr 11 2025 09:46:01 GMT-0400 (Eastern Daylight Time),206158.80000019073,CFD-BM-005-010-A.jpg,1600,solid,I,z,1135,2,1,15950.0,190208.80000019073,9011,ATS,A,7
8,test,1,A,haborder.png,1,z,Fri Apr 11 2025 09:46:01 GMT-0400 (Eastern Daylight Time),207826.19999980927,CFD-WF-019-015-A.jpg,1000,solid,I,z,648,12,1,17617.39999961853,190208.80000019073,9011,ATS,A,8
9,test,1,A,haborder.png,1,m,Fri Apr 11 2025 09:46:01 GMT-0400 (Eastern Daylight Time),210609.0,CFD-BF-028-020-HC.jpg,2000,solid,I,m,749,5,1,20400.199999809265,190208.80000019073,9011,ATS,A,9
10,test,1,A,haborder.png,1,z,Fri Apr 11 2025 09:46:01 GMT-0400 (Eastern Daylight Time),213308.80000019073,CFD-WM-013-015-A.jpg,1900,solid,I,z,770,8,1,23100.0,190208.80000019073,9011,ATS,A,10
11,test,1,A,haborder.png,1,m,Fri Apr 11 2025 09:46:01 GMT-0400 (Eastern Daylight Time),215575.9000005722,CFD-BM-029-026-HC.jpg,1500,solid,I,m,742,3,1,25367.10000038147,190208.80000019073,9011,ATS,A,11
12,test,1,A,haborder.png,1,z,Fri Apr 11 2025 09:46:01 GMT-0400 (Eastern Daylight Time),217841.9000005722,CFD-WF-003-014-A.jpg,1600,solid,I,z,647,10,1,27633.10000038147,190208.80000019073,9011,ATS,A,12
13,test,1,A,haborder.png,1,z,Fri Apr 11 2025 09:46:01 GMT-0400 (Eastern Daylight Time),220158.69999980927,CFD-BM-005-010-A.jpg,1600,solid,I,z,685,2,1,29949.89999961853,190208.80000019073,9011,ATS,A,13
14,test,1,A,haborder.png,1,z,Fri Apr 11 2025 09:46:01 GMT-0400 (Eastern Daylight Time),221842.0,CFD-WF-019-015-A.jpg,1000,solid,I,z,648,12,1,31633.199999809265,190208.80000019073,9011,ATS,A,14
15,test,1,A,haborder.png,1,m,Fri Apr 11 2025 09:46:01 GMT-0400 (Eastern Daylight Time),224025.4000005722,CFD-BM-029-026-HC.jpg,1500,solid,I,m,657,3,1,33816.60000038147,190208.80000019073,9011,ATS,A,15
16,test,1,A,haborder.png,1,m,Fri Apr 11 2025 09:46:01 GMT-0400 (Eastern Daylight Time),226475.5,CFD-BM-017-052-HC.jpg,1700,solid,I,m,721,1,1,36266.699999809265,190208.80000019073,9011,ATS,A,16
17,test,1,A,haborder.png,1,m,Fri Apr 11 2025 09:46:01 GMT-0400 (Eastern Daylight Time),228742.10000038147,CFD-WF-017-016-HC.jpg,1500,solid,I,m,743,11,1,38533.300000190735,190208.80000019073,9011,ATS,A,17
18,test,1,A,haborder.png,1,m,Fri Apr 11 2025 09:46:01 GMT-0400 (Eastern Daylight Time),231408.80000019073,CFD-BM-017-052-HC.jpg,1700,solid,I,m,933,1,1,41200.0,190208.80000019073,9011,ATS,A,18
19,test,1,A,haborder.png,1,z,Fri Apr 11 2025 09:46:01 GMT-0400 (Eastern Daylight Time),233092.0,CFD-BF-023-013-A.jpg,1000,solid,I,z,663,4,1,42883.199999809265,190208.80000019073,9011,ATS,A,19
20,test,1,A,haborder.png,1,m,Fri Apr 11 2025 09:46:01 GMT-0400 (Eastern Daylight Time),235842.5,CFD-BF-028-020-HC.jpg,2000,solid,I,m,731,5,1,45633.699999809265,190208.80000019073,9011,ATS,A,20
21,test,1,A,haborder.png,1,z,Fri Apr 11 2025 09:46:01 GMT-0400 (Eastern Daylight Time),237708.80000019073,CFD-BF-039-039-A.jpg,1200,solid,I,z,637,6,1,47500.0,190208.80000019073,9011,ATS,A,21
22,test,1,A,haborder.png,1,m,Fri Apr 11 2025 09:46:01 GMT-0400 (Eastern Daylight Time),239858.4000005722,CFD-WM-004-005-HC.jpg,1400,solid,I,m,730,7,1,49649.60000038147,190208.80000019073,9011,ATS,A,22
23,test,1,A,haborder.png,1,m,Fri Apr 11 2025 09:46:01 GMT-0400 (Eastern Daylight Time),242142.10000038147,CFD-WM-006-013-HC.jpg,1700,solid,I,m,552,9,1,51933.300000190735,190208.80000019073,9011,ATS,A,23
24,test,1,A,haborder.png,1,m,Fri Apr 11 2025 09:46:01 GMT-0400 (Eastern Daylight Time),244325.19999980927,CFD-WF-017-016-HC.jpg,1500,solid,I,m,662,11,1,54116.39999961853,190208.80000019073,9011,ATS,A,24
1,test,1,B,mfborder.png,1,m,Fri Apr 11 2025 09:46:01 GMT-0400 (Eastern Daylight Time),256092.30000019073,CFD-BM-010-019-A.jpg,1600,dash,I,m,890,2,1,2533.3999996185303,253558.9000005722,9011,ATS,A,1
2,test,1,B,mfborder.png,1,z,Fri Apr 11 2025 09:46:01 GMT-0400 (Eastern Daylight Time),258158.9000005722,CFD-BF-010-005-HC.jpg,1500,dash,I,z,535,3,1,4600.0,253558.9000005722,9011,ATS,A,2
3,test,1,B,mfborder.png,1,z,Fri Apr 11 2025 09:46:01 GMT-0400 (Eastern Daylight Time),259881.80000019073,CFD-BF-023-013-A.jpg,1000,dash,I,z,696,4,1,6322.89999961853,253558.9000005722,9011,ATS,A,3
4,test,1,B,mfborder.png,1,z,Fri Apr 11 2025 09:46:01 GMT-0400 (Eastern Daylight Time),261925.4000005722,CFD-WF-003-014-A.jpg,1500,dash,I,z,527,11,1,8366.5,253558.9000005722,9011,ATS,A,4
5,test,1,B,mfborder.png,1,m,Fri Apr 11 2025 09:46:01 GMT-0400 (Eastern Daylight Time),264125.30000019073,CFD-WM-013-015-A.jpg,1700,dash,I,m,469,9,1,10566.39999961853,253558.9000005722,9011,ATS,A,5
6,test,1,B,mfborder.png,1,z,Fri Apr 11 2025 09:46:01 GMT-0400 (Eastern Daylight Time),266142.0,CFD-BF-028-020-HC.jpg,1400,dash,I,z,587,7,1,12583.099999427795,253558.9000005722,9011,ATS,A,6
7,test,1,B,mfborder.png,1,m,Fri Apr 11 2025 09:46:01 GMT-0400 (Eastern Daylight Time),268075.4000005722,CFD-WM-019-013-A.jpg,1200,dash,I,m,705,6,1,14516.5,253558.9000005722,9011,ATS,A,7
8,test,1,B,mfborder.png,1,m,Fri Apr 11 2025 09:46:01 GMT-0400 (Eastern Daylight Time),270458.30000019073,CFD-WM-006-013-HC.jpg,1600,dash,I,m,738,10,1,16899.39999961853,253558.9000005722,9011,ATS,A,8
9,test,1,B,mfborder.png,1,z,Fri Apr 11 2025 09:46:01 GMT-0400 (Eastern Daylight Time),272626.19999980927,CFD-WF-003-014-A.jpg,1500,dash,I,z,648,11,1,19067.29999923706,253558.9000005722,9011,ATS,A,9
10,test,1,B,mfborder.png,1,z,Fri Apr 11 2025 09:46:01 GMT-0400 (Eastern Daylight Time),274758.69999980927,CFD-BF-010-005-HC.jpg,1500,dash,I,z,609,3,1,21199.79999923706,253558.9000005722,9011,ATS,A,10
11,test,1,B,mfborder.png,1,z,Fri Apr 11 2025 09:46:01 GMT-0400 (Eastern Daylight Time),276508.69999980927,CFD-WF-017-016-HC.jpg,1000,dash,I,z,721,12,1,22949.79999923706,253558.9000005722,9011,ATS,A,11
12,test,1,B,mfborder.png,1,m,Fri Apr 11 2025 09:46:01 GMT-0400 (Eastern Daylight Time),278308.69999980927,CFD-WM-019-013-A.jpg,1200,dash,I,m,578,6,1,24749.79999923706,253558.9000005722,9011,ATS,A,12
13,test,1,B,mfborder.png,1,m,Fri Apr 11 2025 09:46:01 GMT-0400 (Eastern Daylight Time),280675.10000038147,CFD-WM-013-015-A.jpg,1700,dash,I,m,646,9,1,27116.199999809265,253558.9000005722,9011,ATS,A,13
14,test,1,B,mfborder.png,1,m,Fri Apr 11 2025 09:46:01 GMT-0400 (Eastern Daylight Time),282858.80000019073,CFD-WM-006-013-HC.jpg,1600,dash,I,m,556,10,1,29299.89999961853,253558.9000005722,9011,ATS,A,14
15,test,1,B,mfborder.png,1,m,Fri Apr 11 2025 09:46:01 GMT-0400 (Eastern Daylight Time),285125.4000005722,CFD-BM-029-026-HC.jpg,1700,dash,I,m,528,1,1,31566.5,253558.9000005722,9011,ATS,A,15
16,test,1,B,mfborder.png,1,z,Fri Apr 11 2025 09:46:01 GMT-0400 (Eastern Daylight Time),287725.5,CFD-WF-002-008-HC.jpg,1900,dash,I,z,671,8,1,34166.599999427795,253558.9000005722,9011,ATS,A,16
17,test,1,B,mfborder.png,1,m,Fri Apr 11 2025 09:46:01 GMT-0400 (Eastern Daylight Time),289975.4000005722,CFD-BM-029-026-HC.jpg,1700,dash,I,m,508,1,1,36416.5,253558.9000005722,9011,ATS,A,17
18,test,1,B,mfborder.png,1,z,Fri Apr 11 2025 09:46:01 GMT-0400 (Eastern Daylight Time),291592.10000038147,CFD-BF-023-013-A.jpg,1000,dash,I,z,592,4,1,38033.199999809265,253558.9000005722,9011,ATS,A,18
19,test,1,B,mfborder.png,1,z,Fri Apr 11 2025 09:46:01 GMT-0400 (Eastern Daylight Time),293192.0,CFD-WF-017-016-HC.jpg,1000,dash,I,z,575,12,1,39633.099999427795,253558.9000005722,9011,ATS,A,19
20,test,1,B,mfborder.png,1,z,Fri Apr 11 2025 09:46:01 GMT-0400 (Eastern Daylight Time),295108.80000019073,CFD-BF-028-020-HC.jpg,1400,dash,I,z,495,7,1,41549.89999961853,253558.9000005722,9011,ATS,A,20
21,test,1,B,mfborder.png,1,z,Fri Apr 11 2025 09:46:01 GMT-0400 (Eastern Daylight Time),297575.5,CFD-WF-002-008-HC.jpg,1900,dash,I,z,542,8,1,44016.599999427795,253558.9000005722,9011,ATS,A,21
22,test,1,B,mfborder.png,1,m,Fri Apr 11 2025 09:46:01 GMT-0400 (Eastern Daylight Time),300225.4000005722,CFD-BM-005-010-A.jpg,2000,dash,I,m,616,5,1,46666.5,253558.9000005722,9011,ATS,A,22
23,test,1,B,mfborder.png,1,m,Fri Apr 11 2025 09:46:01 GMT-0400 (Eastern Daylight Time),302358.60000038147,CFD-BM-010-019-A.jpg,1600,dash,I,m,510,2,1,48799.699999809265,253558.9000005722,9011,ATS,A,23
24,test,1,B,mfborder.png,1,m,Fri Apr 11 2025 09:46:01 GMT-0400 (Eastern Daylight Time),304925.4000005722,CFD-BM-005-010-A.jpg,2000,dash,I,m,537,5,1,51366.5,253558.9000005722,9011,ATS,A,24
0,prac,1,C,mfborder.png,0,m,Fri Apr 11 2025 09:46:01 GMT-0400 (Eastern Daylight Time),344391.80000019073,CFD-WM-013-015-A.jpg,1700,solid,I,None,1505,6,1,3999.699999809265,340392.10000038147,9011,ATS,A,1
1,prac,1,C,haborder.png,1,z,Fri Apr 11 2025 09:46:01 GMT-0400 (Eastern Daylight Time),347942.19999980927,CFD-WF-003-014-A.jpg,1600,dash,I,z,1143,9,1,7550.099999427795,340392.10000038147,9011,ATS,A,2
2,prac,1,C,haborder.png,1,m,Fri Apr 11 2025 09:46:01 GMT-0400 (Eastern Daylight Time),351075.5,CFD-WM-004-005-HC.jpg,1400,solid,I,m,929,12,1,10683.39999961853,340392.10000038147,9011,ATS,A,3
3,prac,1,C,mfborder.png,1,m,Fri Apr 11 2025 09:46:01 GMT-0400 (Eastern Daylight Time),355058.69999980927,CFD-BM-017-052-HC.jpg,2000,solid,I,m,1179,4,1,14666.599999427795,340392.10000038147,9011,ATS,A,4
4,prac,1,C,mfborder.png,1,z,Fri Apr 11 2025 09:46:01 GMT-0400 (Eastern Daylight Time),358208.9000005722,CFD-WF-017-016-HC.jpg,1600,dash,I,z,748,1,1,17816.800000190735,340392.10000038147,9011,ATS,A,5
5,prac,1,C,mfborder.png,1,z,Fri Apr 11 2025 09:46:01 GMT-0400 (Eastern Daylight Time),361158.60000038147,CFD-WF-019-015-A.jpg,1500,solid,I,z,642,2,1,20766.5,340392.10000038147,9011,ATS,A,6
6,prac,1,C,mfborder.png,1,m,Fri Apr 11 2025 09:46:01 GMT-0400 (Eastern Daylight Time),364042.10000038147,CFD-BM-005-010-A.jpg,1200,dash,I,m,872,5,1,23650.0,340392.10000038147,9011,ATS,A,7
7,prac,1,C,haborder.png,1,m,Fri Apr 11 2025 09:46:01 GMT-0400 (Eastern Daylight Time),367141.9000005722,CFD-BM-029-026-HC.jpg,1500,solid,I,m,793,10,1,26749.800000190735,340392.10000038147,9011,ATS,A,8
8,prac,1,C,haborder.png,1,z,Fri Apr 11 2025 09:46:01 GMT-0400 (Eastern Daylight Time),370675.19999980927,CFD-BF-023-013-A.jpg,1900,dash,I,z,828,7,1,30283.099999427795,340392.10000038147,9011,ATS,A,9
9,prac,1,C,haborder.png,1,m,Fri Apr 11 2025 09:46:01 GMT-0400 (Eastern Daylight Time),373392.10000038147,CFD-WM-004-005-HC.jpg,1000,dash,I,m,915,11,1,33000.0,340392.10000038147,9011,ATS,A,10
10,prac,1,C,mfborder.png,1,z,Fri Apr 11 2025 09:46:01 GMT-0400 (Eastern Daylight Time),376691.9000005722,CFD-BF-028-020-HC.jpg,1000,dash,I,z,1495,3,1,36299.800000190735,340392.10000038147,9011,ATS,A,11
11,prac,1,C,haborder.png,1,z,Fri Apr 11 2025 09:46:01 GMT-0400 (Eastern Daylight Time),380208.80000019073,CFD-BF-039-039-A.jpg,1700,solid,I,z,1016,8,1,39816.699999809265,340392.10000038147,9011,ATS,A,12
1,test,1,C,mfborder.png,1,z,Fri Apr 11 2025 09:46:01 GMT-0400 (Eastern Daylight Time),410808.80000019073,CFD-WF-003-014-A.jpg,1500,dash,I,z,873,3,1,2416.699999809265,408392.10000038147,9011,ATS,A,1
2,test,1,C,haborder.png,1,m,Fri Apr 11 2025 09:46:01 GMT-0400 (Eastern Daylight Time),412675.30000019073,CFD-WF-017-016-HC.jpg,1000,solid,I,m,831,12,1,4283.199999809265,408392.10000038147,9011,ATS,A,2
2,test,1,C,haborder.png,0,z,Fri Apr 11 2025 09:46:01 GMT-0400 (Eastern Daylight Time),416108.80000019073,CFD-BM-005-010-A.jpg,1900,solid,I,None,1515,8,1,7716.699999809265,408392.10000038147,9011,ATS,A,3
3,test,1,C,mfborder.png,1,z,Fri Apr 11 2025 09:46:01 GMT-0400 (Eastern Daylight Time),418525.0,CFD-BF-023-013-A.jpg,1600,dash,I,z,787,2,1,10132.89999961853,408392.10000038147,9011,ATS,A,4
3,test,1,C,haborder.png,0,z,Fri Apr 11 2025 09:46:01 GMT-0400 (Eastern Daylight Time),421258.60000038147,CFD-BM-010-019-A.jpg,1700,solid,I,m,1006,9,1,12866.5,408392.10000038147,9011,ATS,A,5
4,test,1,C,mfborder.png,1,m,Fri Apr 11 2025 09:46:01 GMT-0400 (Eastern Daylight Time),424408.19999980927,CFD-WM-019-013-A.jpg,2000,dash,I,m,1125,5,1,16016.099999427795,408392.10000038147,9011,ATS,A,6
5,test,1,C,mfborder.png,1,z,Fri Apr 11 2025 09:46:01 GMT-0400 (Eastern Daylight Time),427225.19999980927,CFD-BF-010-005-HC.jpg,1700,dash,I,z,1091,1,1,18833.099999427795,408392.10000038147,9011,ATS,A,7
6,test,1,C,mfborder.png,1,m,Fri Apr 11 2025 09:46:01 GMT-0400 (Eastern Daylight Time),429191.80000019073,CFD-BM-029-026-HC.jpg,1200,dash,I,m,743,6,1,20799.699999809265,408392.10000038147,9011,ATS,A,8
6,test,1,C,haborder.png,0,z,Fri Apr 11 2025 09:46:01 GMT-0400 (Eastern Daylight Time),432625.4000005722,CFD-BM-005-010-A.jpg,1900,solid,I,None,1515,8,1,24233.300000190735,408392.10000038147,9011,ATS,A,9
6,test,1,C,haborder.png,0,z,Fri Apr 11 2025 09:46:01 GMT-0400 (Eastern Daylight Time),435325.10000038147,CFD-BM-010-019-A.jpg,1700,solid,I,m,970,9,1,26933.0,408392.10000038147,9011,ATS,A,10
7,test,1,C,haborder.png,1,z,Fri Apr 11 2025 09:46:01 GMT-0400 (Eastern Daylight Time),438259.5,CFD-WM-013-015-A.jpg,1400,solid,I,z,1496,7,1,29867.39999961853,408392.10000038147,9011,ATS,A,11
7,test,1,C,haborder.png,0,m,Fri Apr 11 2025 09:46:01 GMT-0400 (Eastern Daylight Time),440925.10000038147,CFD-BF-028-020-HC.jpg,1600,solid,I,z,1037,10,1,32533.0,408392.10000038147,9011,ATS,A,12
8,test,1,C,mfborder.png,1,m,Fri Apr 11 2025 09:46:01 GMT-0400 (Eastern Daylight Time),443641.9000005722,CFD-BM-029-026-HC.jpg,1200,dash,I,m,1490,6,1,35249.800000190735,408392.10000038147,9011,ATS,A,13
9,test,1,C,mfborder.png,1,z,Fri Apr 11 2025 09:46:01 GMT-0400 (Eastern Daylight Time),446225.9000005722,CFD-BF-023-013-A.jpg,1600,dash,I,z,965,2,1,37833.800000190735,408392.10000038147,9011,ATS,A,14
9,test,1,C,haborder.png,0,m,Fri Apr 11 2025 09:46:01 GMT-0400 (Eastern Daylight Time),449358.69999980927,CFD-BF-028-020-HC.jpg,1600,solid,I,None,1515,10,1,40966.599999427795,408392.10000038147,9011,ATS,A,15
9,test,1,C,mfborder.png,0,m,Fri Apr 11 2025 09:46:01 GMT-0400 (Eastern Daylight Time),452625.30000019073,CFD-WM-019-013-A.jpg,2000,dash,I,z,1216,5,1,44233.199999809265,408392.10000038147,9011,ATS,A,16
9,test,1,C,mfborder.png,0,m,Fri Apr 11 2025 09:46:01 GMT-0400 (Eastern Daylight Time),455158.0,CFD-WM-006-013-HC.jpg,1000,dash,I,None,1515,4,1,46765.89999961853,408392.10000038147,9011,ATS,A,17
10,test,1,C,mfborder.png,1,m,Fri Apr 11 2025 09:46:01 GMT-0400 (Eastern Daylight Time),457375.10000038147,CFD-WM-006-013-HC.jpg,1000,dash,I,m,1169,4,1,48983.0,408392.10000038147,9011,ATS,A,18
11,test,1,C,mfborder.png,1,z,Fri Apr 11 2025 09:46:01 GMT-0400 (Eastern Daylight Time),459575.10000038147,CFD-WF-003-014-A.jpg,1500,dash,I,z,676,3,1,51183.0,408392.10000038147,9011,ATS,A,19
12,test,1,C,mfborder.png,1,z,Fri Apr 11 2025 09:46:01 GMT-0400 (Eastern Daylight Time),461874.80000019073,CFD-BF-010-005-HC.jpg,1700,dash,I,z,580,1,1,53482.699999809265,408392.10000038147,9011,ATS,A,20
13,test,1,C,haborder.png,1,z,Fri Apr 11 2025 09:46:01 GMT-0400 (Eastern Daylight Time),464475.19999980927,CFD-WM-013-015-A.jpg,1400,solid,I,z,1172,7,1,56083.099999427795,408392.10000038147,9011,ATS,A,21
13,test,1,C,haborder.png,0,m,Fri Apr 11 2025 09:46:01 GMT-0400 (Eastern Daylight Time),467425.10000038147,CFD-WF-002-008-HC.jpg,1500,solid,I,z,1416,11,1,59033.0,408392.10000038147,9011,ATS,A,22
14,test,1,C,haborder.png,1,m,Fri Apr 11 2025 09:46:01 GMT-0400 (Eastern Daylight Time),469474.80000019073,CFD-WF-017-016-HC.jpg,1000,solid,I,m,1030,12,1,61082.699999809265,408392.10000038147,9011,ATS,A,23
15,test,1,C,haborder.png,1,m,Fri Apr 11 2025 09:46:01 GMT-0400 (Eastern Daylight Time),471675.19999980927,CFD-WF-002-008-HC.jpg,1500,solid,I,m,656,11,1,63283.099999427795,408392.10000038147,9011,ATS,A,24
1,test,2,C,haborder.png,1,m,Fri Apr 11 2025 09:46:01 GMT-0400 (Eastern Daylight Time),475391.9000005722,CFD-WM-004-005-HC.jpg,1000,solid,I,m,887,12,1,1933.6000003814697,473458.30000019073,9011,ATS,A,1
2,test,2,C,haborder.png,1,z,Fri Apr 11 2025 09:46:01 GMT-0400 (Eastern Daylight Time),478041.9000005722,CFD-WF-003-014-A.jpg,1700,solid,I,z,924,9,1,4583.60000038147,473458.30000019073,9011,ATS,A,2
3,test,2,C,mfborder.png,1,z,Fri Apr 11 2025 09:46:01 GMT-0400 (Eastern Daylight Time),480791.80000019073,CFD-WF-017-016-HC.jpg,1700,dash,I,z,1025,1,1,7333.5,473458.30000019073,9011,ATS,A,3
4,test,2,C,haborder.png,1,z,Fri Apr 11 2025 09:46:01 GMT-0400 (Eastern Daylight Time),483058.0,CFD-BF-023-013-A.jpg,1400,solid,I,z,828,7,1,9599.699999809265,473458.30000019073,9011,ATS,A,4
5,test,2,C,mfborder.png,1,m,Fri Apr 11 2025 09:46:01 GMT-0400 (Eastern Daylight Time),484891.80000019073,CFD-BM-017-052-HC.jpg,1000,dash,I,m,805,4,1,11433.5,473458.30000019073,9011,ATS,A,5
6,test,2,C,mfborder.png,1,z,Fri Apr 11 2025 09:46:01 GMT-0400 (Eastern Daylight Time),487074.80000019073,CFD-BF-028-020-HC.jpg,1500,dash,I,z,663,3,1,13616.5,473458.30000019073,9011,ATS,A,6
6,test,2,C,haborder.png,0,z,Fri Apr 11 2025 09:46:01 GMT-0400 (Eastern Daylight Time),490308.60000038147,CFD-WF-003-014-A.jpg,1700,solid,I,None,1515,9,1,16850.300000190735,473458.30000019073,9011,ATS,A,7
7,test,2,C,haborder.png,1,m,Fri Apr 11 2025 09:46:01 GMT-0400 (Eastern Daylight Time),492741.80000019073,CFD-WM-004-005-HC.jpg,1500,solid,I,m,894,11,1,19283.5,473458.30000019073,9011,ATS,A,8
8,test,2,C,haborder.png,1,m,Fri Apr 11 2025 09:46:01 GMT-0400 (Eastern Daylight Time),494841.69999980927,CFD-WM-004-005-HC.jpg,1500,solid,I,m,573,11,1,21383.39999961853,473458.30000019073,9011,ATS,A,9
8,test,2,C,mfborder.png,0,m,Fri Apr 11 2025 09:46:01 GMT-0400 (Eastern Daylight Time),497525.10000038147,CFD-BM-005-010-A.jpg,2000,dash,I,z,661,5,1,24066.800000190735,473458.30000019073,9011,ATS,A,10
9,test,2,C,mfborder.png,1,z,Fri Apr 11 2025 09:46:01 GMT-0400 (Eastern Daylight Time),500175.10000038147,CFD-WF-019-015-A.jpg,1600,dash,I,z,1018,2,1,26716.800000190735,473458.30000019073,9011,ATS,A,11
10,test,2,C,haborder.png,1,z,Fri Apr 11 2025 09:46:01 GMT-0400 (Eastern Daylight Time),502508.5,CFD-BF-023-013-A.jpg,1400,solid,I,z,904,7,1,29050.199999809265,473458.30000019073,9011,ATS,A,12
11,test,2,C,haborder.png,1,z,Fri Apr 11 2025 09:46:01 GMT-0400 (Eastern Daylight Time),505208.4000005722,CFD-BF-039-039-A.jpg,1900,solid,I,z,759,8,1,31750.10000038147,473458.30000019073,9011,ATS,A,13
12,test,2,C,haborder.png,1,m,Fri Apr 11 2025 09:46:01 GMT-0400 (Eastern Daylight Time),507691.60000038147,CFD-BM-029-026-HC.jpg,1600,solid,I,m,855,10,1,34233.300000190735,473458.30000019073,9011,ATS,A,14
13,test,2,C,mfborder.png,1,m,Fri Apr 11 2025 09:46:01 GMT-0400 (Eastern Daylight Time),509525.0,CFD-BM-017-052-HC.jpg,1000,dash,I,m,812,4,1,36066.699999809265,473458.30000019073,9011,ATS,A,15
14,test,2,C,mfborder.png,1,m,Fri Apr 11 2025 09:46:01 GMT-0400 (Eastern Daylight Time),511425.0,CFD-WM-013-015-A.jpg,1200,dash,I,m,650,6,1,37966.699999809265,473458.30000019073,9011,ATS,A,16
15,test,2,C,mfborder.png,1,m,Fri Apr 11 2025 09:46:01 GMT-0400 (Eastern Daylight Time),513241.80000019073,CFD-WM-013-015-A.jpg,1200,dash,I,m,590,6,1,39783.5,473458.30000019073,9011,ATS,A,17
16,test,2,C,haborder.png,1,m,Fri Apr 11 2025 09:46:01 GMT-0400 (Eastern Daylight Time),514991.60000038147,CFD-WM-004-005-HC.jpg,1000,solid,I,m,717,12,1,41533.300000190735,473458.30000019073,9011,ATS,A,18
17,test,2,C,mfborder.png,1,m,Fri Apr 11 2025 09:46:01 GMT-0400 (Eastern Daylight Time),518208.4000005722,CFD-BM-005-010-A.jpg,2000,dash,I,m,1183,5,1,44750.10000038147,473458.30000019073,9011,ATS,A,19
18,test,2,C,mfborder.png,1,z,Fri Apr 11 2025 09:46:01 GMT-0400 (Eastern Daylight Time),520508.30000019073,CFD-WF-017-016-HC.jpg,1700,dash,I,z,571,1,1,47050.0,473458.30000019073,9011,ATS,A,20
19,test,2,C,mfborder.png,1,z,Fri Apr 11 2025 09:46:01 GMT-0400 (Eastern Daylight Time),522642.4000005722,CFD-WF-019-015-A.jpg,1600,dash,I,z,514,2,1,49184.10000038147,473458.30000019073,9011,ATS,A,21
20,test,2,C,mfborder.png,1,z,Fri Apr 11 2025 09:46:01 GMT-0400 (Eastern Daylight Time),524674.6000003815,CFD-BF-028-020-HC.jpg,1500,dash,I,z,514,3,1,51216.300000190735,473458.30000019073,9011,ATS,A,22
21,test,2,C,haborder.png,1,z,Fri Apr 11 2025 09:46:01 GMT-0400 (Eastern Daylight Time),527441.6000003815,CFD-BF-039-039-A.jpg,1900,solid,I,z,848,8,1,53983.300000190735,473458.30000019073,9011,ATS,A,23
22,test,2,C,haborder.png,1,m,Fri Apr 11 2025 09:46:01 GMT-0400 (Eastern Daylight Time),529925.1999998093,CFD-BM-029-026-HC.jpg,1600,solid,I,m,862,10,1,56466.89999961853,473458.30000019073,9011,ATS,A,24
1,test,3,C,mfborder.png,1,z,Fri Apr 11 2025 09:46:01 GMT-0400 (Eastern Daylight Time),534508.6000003815,CFD-BF-023-013-A.jpg,1600,dash,I,z,937,2,1,2566.9000005722046,531941.6999998093,9011,ATS,A,1
2,test,3,C,mfborder.png,1,z,Fri Apr 11 2025 09:46:01 GMT-0400 (Eastern Daylight Time),536741.9000005722,CFD-BF-010-005-HC.jpg,1700,dash,I,z,511,1,1,4800.200000762939,531941.6999998093,9011,ATS,A,2
2,test,3,C,mfborder.png,0,m,Fri Apr 11 2025 09:46:01 GMT-0400 (Eastern Daylight Time),538291.6000003815,CFD-WM-006-013-HC.jpg,1000,dash,I,z,530,4,1,6349.900000572205,531941.6999998093,9011,ATS,A,3
2,test,3,C,haborder.png,0,m,Fri Apr 11 2025 09:46:01 GMT-0400 (Eastern Daylight Time),540991.9000005722,CFD-BF-028-020-HC.jpg,1600,solid,I,z,1067,10,1,9050.20000076294,531941.6999998093,9011,ATS,A,4
3,test,3,C,mfborder.png,1,z,Fri Apr 11 2025 09:46:01 GMT-0400 (Eastern Daylight Time),543708.1999998093,CFD-WF-003-014-A.jpg,1500,dash,I,z,1188,3,1,11766.5,531941.6999998093,9011,ATS,A,5
4,test,3,C,haborder.png,1,m,Fri Apr 11 2025 09:46:01 GMT-0400 (Eastern Daylight Time),546408.5,CFD-BF-028-020-HC.jpg,1600,solid,I,m,1075,10,1,14466.800000190735,531941.6999998093,9011,ATS,A,6
5,test,3,C,haborder.png,1,z,Fri Apr 11 2025 09:46:01 GMT-0400 (Eastern Daylight Time),549208.4000005722,CFD-BM-005-010-A.jpg,1900,solid,I,z,875,8,1,17266.70000076294,531941.6999998093,9011,ATS,A,7
6,test,3,C,haborder.png,1,m,Fri Apr 11 2025 09:46:01 GMT-0400 (Eastern Daylight Time),551625.1999998093,CFD-WF-002-008-HC.jpg,1500,solid,I,m,891,11,1,19683.5,531941.6999998093,9011,ATS,A,8
7,test,3,C,haborder.png,1,z,Fri Apr 11 2025 09:46:01 GMT-0400 (Eastern Daylight Time),553857.9000005722,CFD-WM-013-015-A.jpg,1400,solid,I,z,814,7,1,21916.20000076294,531941.6999998093,9011,ATS,A,9
7,test,3,C,haborder.png,0,z,Fri Apr 11 2025 09:46:01 GMT-0400 (Eastern Daylight Time),556608.3000001907,CFD-BM-005-010-A.jpg,1900,solid,I,m,817,8,1,24666.60000038147,531941.6999998093,9011,ATS,A,10
7,test,3,C,haborder.png,0,m,Fri Apr 11 2025 09:46:01 GMT-0400 (Eastern Daylight Time),559150.6999998093,CFD-WF-017-016-HC.jpg,1000,solid,I,None,1515,12,1,27209.0,531941.6999998093,9011,ATS,A,11
8,test,3,C,haborder.png,1,m,Fri Apr 11 2025 09:46:01 GMT-0400 (Eastern Daylight Time),561341.6999998093,CFD-WF-002-008-HC.jpg,1500,solid,I,m,669,11,1,29400.0,531941.6999998093,9011,ATS,A,12
8,test,3,C,mfborder.png,0,m,Fri Apr 11 2025 09:46:01 GMT-0400 (Eastern Daylight Time),564474.6999998093,CFD-WM-019-013-A.jpg,2000,dash,I,z,1106,5,1,32533.0,531941.6999998093,9011,ATS,A,13
8,test,3,C,haborder.png,0,z,Fri Apr 11 2025 09:46:01 GMT-0400 (Eastern Daylight Time),567608.1999998093,CFD-BM-010-019-A.jpg,1700,solid,I,m,1408,9,1,35666.5,531941.6999998093,9011,ATS,A,14
9,test,3,C,haborder.png,1,z,Fri Apr 11 2025 09:46:01 GMT-0400 (Eastern Daylight Time),569859.3000001907,CFD-WM-013-015-A.jpg,1400,solid,I,z,831,7,1,37917.60000038147,531941.6999998093,9011,ATS,A,15
10,test,3,C,haborder.png,1,m,Fri Apr 11 2025 09:46:01 GMT-0400 (Eastern Daylight Time),571774.9000005722,CFD-WF-017-016-HC.jpg,1000,solid,I,m,884,12,1,39833.20000076294,531941.6999998093,9011,ATS,A,16
11,test,3,C,mfborder.png,1,z,Fri Apr 11 2025 09:46:01 GMT-0400 (Eastern Daylight Time),574108.4000005722,CFD-WF-003-014-A.jpg,1500,dash,I,z,805,3,1,42166.70000076294,531941.6999998093,9011,ATS,A,17
12,test,3,C,mfborder.png,1,m,Fri Apr 11 2025 09:46:01 GMT-0400 (Eastern Daylight Time),576058.1999998093,CFD-WM-006-013-HC.jpg,1000,dash,I,m,923,4,1,44116.5,531941.6999998093,9011,ATS,A,18
13,test,3,C,mfborder.png,1,z,Fri Apr 11 2025 09:46:01 GMT-0400 (Eastern Daylight Time),578691.4000005722,CFD-BF-010-005-HC.jpg,1700,dash,I,z,913,1,1,46749.70000076294,531941.6999998093,9011,ATS,A,19
14,test,3,C,mfborder.png,1,m,Fri Apr 11 2025 09:46:01 GMT-0400 (Eastern Daylight Time),580574.8000001907,CFD-BM-029-026-HC.jpg,1200,dash,I,m,652,6,1,48633.10000038147,531941.6999998093,9011,ATS,A,20
14,test,3,C,haborder.png,0,z,Fri Apr 11 2025 09:46:01 GMT-0400 (Eastern Daylight Time),583291.8000001907,CFD-BM-010-019-A.jpg,1700,solid,I,m,988,9,1,51350.10000038147,531941.6999998093,9011,ATS,A,21
15,test,3,C,mfborder.png,1,z,Fri Apr 11 2025 09:46:01 GMT-0400 (Eastern Daylight Time),586124.9000005722,CFD-BF-023-013-A.jpg,1600,dash,I,z,1203,2,1,54183.20000076294,531941.6999998093,9011,ATS,A,22
16,test,3,C,mfborder.png,1,m,Fri Apr 11 2025 09:46:01 GMT-0400 (Eastern Daylight Time),588225.6000003815,CFD-BM-029-026-HC.jpg,1200,dash,I,m,882,6,1,56283.900000572205,531941.6999998093,9011,ATS,A,23
16,test,3,C,mfborder.png,0,m,Fri Apr 11 2025 09:46:01 GMT-0400 (Eastern Daylight Time),591758.4000005722,CFD-WM-019-013-A.jpg,2000,dash,I,None,1515,5,1,59816.70000076294,531941.6999998093,9011,ATS,A,24
0,test,4,C,mfborder.png,0,z,Fri Apr 11 2025 09:46:01 GMT-0400 (Eastern Daylight Time),597108.4000005722,CFD-WF-017-016-HC.jpg,1700,dash,I,None,1515,1,1,3233.7000007629395,593874.6999998093,9011,ATS,A,1
1,test,4,C,haborder.png,1,m,Fri Apr 11 2025 09:46:01 GMT-0400 (Eastern Daylight Time),598775.1000003815,CFD-WM-004-005-HC.jpg,1000,solid,I,m,627,12,1,4900.400000572205,593874.6999998093,9011,ATS,A,2
2,test,4,C,haborder.png,1,z,Fri Apr 11 2025 09:46:01 GMT-0400 (Eastern Daylight Time),601158.1999998093,CFD-WF-003-014-A.jpg,1700,solid,I,z,660,9,1,7283.5,593874.6999998093,9011,ATS,A,3
3,test,4,C,haborder.png,1,m,Fri Apr 11 2025 09:46:01 GMT-0400 (Eastern Daylight Time),603308.3000001907,CFD-WM-004-005-HC.jpg,1500,solid,I,m,621,11,1,9433.60000038147,593874.6999998093,9011,ATS,A,4
4,test,4,C,mfborder.png,1,m,Fri Apr 11 2025 09:46:01 GMT-0400 (Eastern Daylight Time),605324.8000001907,CFD-WM-013-015-A.jpg,1200,dash,I,m,787,6,1,11450.10000038147,593874.6999998093,9011,ATS,A,5
5,test,4,C,mfborder.png,1,z,Fri Apr 11 2025 09:46:01 GMT-0400 (Eastern Daylight Time),607341.6999998093,CFD-BF-028-020-HC.jpg,1500,dash,I,z,486,3,1,13467.0,593874.6999998093,9011,ATS,A,6
6,test,4,C,mfborder.png,1,m,Fri Apr 11 2025 09:46:01 GMT-0400 (Eastern Daylight Time),609025.1999998093,CFD-BM-017-052-HC.jpg,1000,dash,I,m,666,4,1,15150.5,593874.6999998093,9011,ATS,A,7
7,test,4,C,haborder.png,1,z,Fri Apr 11 2025 09:46:01 GMT-0400 (Eastern Daylight Time),611641.6000003815,CFD-BF-039-039-A.jpg,1900,solid,I,z,690,8,1,17766.900000572205,593874.6999998093,9011,ATS,A,8
8,test,4,C,haborder.png,1,z,Fri Apr 11 2025 09:46:01 GMT-0400 (Eastern Daylight Time),614891.6999998093,CFD-BF-039-039-A.jpg,1900,solid,I,z,1322,8,1,21017.0,593874.6999998093,9011,ATS,A,9
9,test,4,C,haborder.png,1,m,Fri Apr 11 2025 09:46:01 GMT-0400 (Eastern Daylight Time),617141.6000003815,CFD-BM-029-026-HC.jpg,1600,solid,I,m,628,10,1,23266.900000572205,593874.6999998093,9011,ATS,A,10
10,test,4,C,mfborder.png,1,m,Fri Apr 11 2025 09:46:01 GMT-0400 (Eastern Daylight Time),619925.0,CFD-BM-005-010-A.jpg,2000,dash,I,m,762,5,1,26050.300000190735,593874.6999998093,9011,ATS,A,11
11,test,4,C,haborder.png,1,z,Fri Apr 11 2025 09:46:01 GMT-0400 (Eastern Daylight Time),622741.6000003815,CFD-BF-023-013-A.jpg,1400,solid,I,z,1394,7,1,28866.900000572205,593874.6999998093,9011,ATS,A,12
12,test,4,C,mfborder.png,1,m,Fri Apr 11 2025 09:46:01 GMT-0400 (Eastern Daylight Time),625491.6000003815,CFD-BM-005-010-A.jpg,2000,dash,I,m,714,5,1,31616.900000572205,593874.6999998093,9011,ATS,A,13
12,test,4,C,haborder.png,0,z,Fri Apr 11 2025 09:46:01 GMT-0400 (Eastern Daylight Time),628341.5,CFD-BF-023-013-A.jpg,1400,solid,I,m,1429,7,1,34466.800000190735,593874.6999998093,9011,ATS,A,14
13,test,4,C,haborder.png,1,m,Fri Apr 11 2025 09:46:01 GMT-0400 (Eastern Daylight Time),630741.5,CFD-WM-004-005-HC.jpg,1500,solid,I,m,878,11,1,36866.800000190735,593874.6999998093,9011,ATS,A,15
14,test,4,C,haborder.png,1,m,Fri Apr 11 2025 09:46:01 GMT-0400 (Eastern Daylight Time),632374.8000001907,CFD-WM-004-005-HC.jpg,1000,solid,I,m,610,12,1,38500.10000038147,593874.6999998093,9011,ATS,A,16
15,test,4,C,haborder.png,1,m,Fri Apr 11 2025 09:46:01 GMT-0400 (Eastern Daylight Time),634924.9000005722,CFD-BM-029-026-HC.jpg,1600,solid,I,m,920,10,1,41050.20000076294,593874.6999998093,9011,ATS,A,17
16,test,4,C,mfborder.png,1,z,Fri Apr 11 2025 09:46:01 GMT-0400 (Eastern Daylight Time),637325.0,CFD-WF-019-015-A.jpg,1600,dash,I,z,754,2,1,43450.300000190735,593874.6999998093,9011,ATS,A,18
17,test,4,C,mfborder.png,1,z,Fri Apr 11 2025 09:46:01 GMT-0400 (Eastern Daylight Time),639658.1000003815,CFD-WF-017-016-HC.jpg,1700,dash,I,z,606,1,1,45783.400000572205,593874.6999998093,9011,ATS,A,19
18,test,4,C,mfborder.png,1,m,Fri Apr 11 2025 09:46:01 GMT-0400 (Eastern Daylight Time),641791.6000003815,CFD-BM-017-052-HC.jpg,1000,dash,I,m,1101,4,1,47916.900000572205,593874.6999998093,9011,ATS,A,20
19,test,4,C,mfborder.png,1,z,Fri Apr 11 2025 09:46:01 GMT-0400 (Eastern Daylight Time),644208.3000001907,CFD-WF-019-015-A.jpg,1600,dash,I,z,784,2,1,50333.60000038147,593874.6999998093,9011,ATS,A,21
20,test,4,C,mfborder.png,1,m,Fri Apr 11 2025 09:46:01 GMT-0400 (Eastern Daylight Time),646175.0,CFD-WM-013-015-A.jpg,1200,dash,I,m,735,6,1,52300.300000190735,593874.6999998093,9011,ATS,A,22
21,test,4,C,mfborder.png,1,z,Fri Apr 11 2025 09:46:01 GMT-0400 (Eastern Daylight Time),648308.0,CFD-BF-028-020-HC.jpg,1500,dash,I,z,612,3,1,54433.300000190735,593874.6999998093,9011,ATS,A,23
21,test,4,C,haborder.png,0,z,Fri Apr 11 2025 09:46:01 GMT-0400 (Eastern Daylight Time),651091.4000005722,CFD-WF-003-014-A.jpg,1700,solid,I,m,1046,9,1,57216.70000076294,593874.6999998093,9011,ATS,A,24
