block_c,block_dur,condition,countdown,datetime,endtime,list,multichar_response,project,response,response_time,session_number,start_end,starttime,subject_id,task,task_vers,trial
,,,,Mon Feb 24 2025 18:41:43 GMT-0600 (Central Standard Time),,,,O,space,3196,1,,,7059,WL,B,
prac,,0,,Mon Feb 24 2025 18:41:43 GMT-0600 (Central Standard Time),,NA,b,O,b,3779,1,,,7059,WL,B,1.0
prac,,0,,Mon Feb 24 2025 18:41:43 GMT-0600 (Central Standard Time),,NA,bo,O,o,318,1,,,7059,WL,B,1.0
prac,,0,,Mon Feb 24 2025 18:41:43 GMT-0600 (Central Standard Time),,NA,boo,O,o,119,1,,,7059,WL,B,1.0
prac,,0,,Mon Feb 24 2025 18:41:43 GMT-0600 (Central Standard Time),,NA,boos,O,s,97,1,,,7059,WL,B,1.0
prac,,0,,Mon Feb 24 2025 18:41:43 GMT-0600 (Central Standard Time),,NA,boost,O,t,146,1,,,7059,WL,B,1.0
prac,,0,,Mon Feb 24 2025 18:41:43 GMT-0600 (Central Standard Time),,NA,boostenter,O,enter,2287,1,,,7059,WL,B,1.0
1,0.8490002155303955,learn,59150.999784469604,Mon Feb 24 2025 18:41:43 GMT-0600 (Central Standard Time),153280.40000000596,A,s,O,s,839,1,849.3000000119209,152431.09999999404,7059,WL,B,1.0
1,1.1490001678466797,learn,58850.99983215332,Mon Feb 24 2025 18:41:43 GMT-0600 (Central Standard Time),153579.80000001192,A,st,O,t,286,1,1148.7000000178814,152431.09999999404,7059,WL,B,1.0
1,1.25,learn,58750.0,Mon Feb 24 2025 18:41:43 GMT-0600 (Central Standard Time),153680.90000000596,A,str,O,r,89,1,1249.800000011921,152431.09999999404,7059,WL,B,1.0
1,1.3330001831054688,learn,58666.99981689453,Mon Feb 24 2025 18:41:43 GMT-0600 (Central Standard Time),153763.70000001788,A,stre,O,e,77,1,1332.6000000238419,152431.09999999404,7059,WL,B,1.0
1,1.683000087738037,learn,58316.99991226196,Mon Feb 24 2025 18:41:43 GMT-0600 (Central Standard Time),154114.0,A,stree,O,e,339,1,1682.9000000059605,152431.09999999404,7059,WL,B,1.0
1,2.951000213623047,learn,57048.99978637695,Mon Feb 24 2025 18:41:43 GMT-0600 (Central Standard Time),155382.0,A,street,O,t,1262,1,2950.9000000059605,152431.09999999404,7059,WL,B,1.0
1,6.382000207901001,learn,53617.999792099,Mon Feb 24 2025 18:41:43 GMT-0600 (Central Standard Time),158812.80000001192,A,streetenter,O,enter,3414,1,6381.700000017881,152431.09999999404,7059,WL,B,1.0
1,7.4150002002716064,learn,52584.99979972839,Mon Feb 24 2025 18:41:43 GMT-0600 (Central Standard Time),159846.5,A,g,O,g,1015,1,1033.199999988079,158813.30000001192,7059,WL,B,2.0
1,7.581000089645386,learn,52418.999910354614,Mon Feb 24 2025 18:41:43 GMT-0600 (Central Standard Time),160012.5,A,gr,O,r,148,1,1199.199999988079,158813.30000001192,7059,WL,B,2.0
1,7.697000026702881,learn,52302.99997329712,Mon Feb 24 2025 18:41:43 GMT-0600 (Central Standard Time),160128.0,A,gra,O,a,96,1,1314.699999988079,158813.30000001192,7059,WL,B,2.0
1,8.064000129699707,learn,51935.99987030029,Mon Feb 24 2025 18:41:43 GMT-0600 (Central Standard Time),160495.20000001788,A,gras,O,s,348,1,1681.9000000059605,158813.30000001192,7059,WL,B,2.0
1,8.23200011253357,learn,51767.99988746643,Mon Feb 24 2025 18:41:43 GMT-0600 (Central Standard Time),160663.20000001788,A,grass,O,s,148,1,1849.9000000059605,158813.30000001192,7059,WL,B,2.0
1,8.398000001907349,learn,51601.99999809265,Mon Feb 24 2025 18:41:43 GMT-0600 (Central Standard Time),160829.30000001192,A,grassenter,O,enter,151,1,2016.0,158813.30000001192,7059,WL,B,2.0
1,8.682000160217285,learn,51317.999839782715,Mon Feb 24 2025 18:41:43 GMT-0600 (Central Standard Time),161112.70000001788,A,a,O,a,272,1,283.0,160829.70000001788,7059,WL,B,3.0
1,8.864000082015991,learn,51135.99991798401,Mon Feb 24 2025 18:41:43 GMT-0600 (Central Standard Time),161295.30000001192,A,ar,O,r,164,1,465.59999999403954,160829.70000001788,7059,WL,B,3.0
1,9.049000024795532,learn,50950.99997520447,Mon Feb 24 2025 18:41:43 GMT-0600 (Central Standard Time),161479.70000001788,A,arm,O,m,160,1,650.0,160829.70000001788,7059,WL,B,3.0
1,9.314000129699707,learn,50685.99987030029,Mon Feb 24 2025 18:41:43 GMT-0600 (Central Standard Time),161745.0,A,armenter,O,enter,244,1,915.2999999821186,160829.70000001788,7059,WL,B,3.0
1,10.029000043869019,learn,49970.99995613098,Mon Feb 24 2025 18:41:43 GMT-0600 (Central Standard Time),162459.70000001788,A,f,O,f,708,1,714.4000000059605,161745.30000001192,7059,WL,B,4.0
1,10.145000219345093,learn,49854.99978065491,Mon Feb 24 2025 18:41:43 GMT-0600 (Central Standard Time),162575.90000000596,A,fi,O,i,106,1,830.5999999940395,161745.30000001192,7059,WL,B,4.0
1,10.265000104904175,learn,49734.999895095825,Mon Feb 24 2025 18:41:43 GMT-0600 (Central Standard Time),162696.0,A,fir,O,r,114,1,950.6999999880791,161745.30000001192,7059,WL,B,4.0
1,10.347000122070312,learn,49652.99987792969,Mon Feb 24 2025 18:41:43 GMT-0600 (Central Standard Time),162778.09999999404,A,fire,O,e,67,1,1032.7999999821186,161745.30000001192,7059,WL,B,4.0
1,10.547000169754028,learn,49452.99983024597,Mon Feb 24 2025 18:41:43 GMT-0600 (Central Standard Time),162978.40000000596,A,fireenter,O,enter,187,1,1233.0999999940395,161745.30000001192,7059,WL,B,4.0
1,11.098000049591064,learn,48901.999950408936,Mon Feb 24 2025 18:41:43 GMT-0600 (Central Standard Time),163529.59999999404,A,p,O,p,539,1,550.7999999821186,162978.80000001192,7059,WL,B,5.0
1,11.19700002670288,learn,48802.99997329712,Mon Feb 24 2025 18:41:43 GMT-0600 (Central Standard Time),163628.40000000596,A,pu,O,u,84,1,649.5999999940395,162978.80000001192,7059,WL,B,5.0
1,11.347000122070312,learn,48652.99987792969,Mon Feb 24 2025 18:41:43 GMT-0600 (Central Standard Time),163777.70000001788,A,pup,O,p,136,1,798.9000000059605,162978.80000001192,7059,WL,B,5.0
1,11.46500015258789,learn,48534.99984741211,Mon Feb 24 2025 18:41:43 GMT-0600 (Central Standard Time),163895.70000001788,A,pupi,O,i,101,1,916.9000000059605,162978.80000001192,7059,WL,B,5.0
1,11.696000099182129,learn,48303.99990081787,Mon Feb 24 2025 18:41:43 GMT-0600 (Central Standard Time),164127.20000001788,A,pupil,O,l,212,1,1148.4000000059605,162978.80000001192,7059,WL,B,5.0
1,11.96500015258789,learn,48034.99984741211,Mon Feb 24 2025 18:41:43 GMT-0600 (Central Standard Time),164396.09999999404,A,pupilenter,O,enter,263,1,1417.2999999821186,162978.80000001192,7059,WL,B,5.0
1,12.430000066757202,learn,47569.9999332428,Mon Feb 24 2025 18:41:43 GMT-0600 (Central Standard Time),164860.80000001192,A,c,O,c,449,1,464.40000000596046,164396.40000000596,7059,WL,B,6.0
1,12.546000003814697,learn,47453.9999961853,Mon Feb 24 2025 18:41:43 GMT-0600 (Central Standard Time),164976.59999999404,A,ca,O,a,94,1,580.1999999880791,164396.40000000596,7059,WL,B,6.0
1,13.366000175476074,learn,46633.999824523926,Mon Feb 24 2025 18:41:43 GMT-0600 (Central Standard Time),165796.59999999404,A,cab,O,b,801,1,1400.199999988079,164396.40000000596,7059,WL,B,6.0
1,13.463000059127808,learn,46536.99994087219,Mon Feb 24 2025 18:41:43 GMT-0600 (Central Standard Time),165894.09999999404,A,cabi,O,i,79,1,1497.699999988079,164396.40000000596,7059,WL,B,6.0
1,13.562000036239624,learn,46437.999963760376,Mon Feb 24 2025 18:41:43 GMT-0600 (Central Standard Time),165993.40000000596,A,cabin,O,n,77,1,1597.0,164396.40000000596,7059,WL,B,6.0
1,14.180000066757202,learn,45819.9999332428,Mon Feb 24 2025 18:41:43 GMT-0600 (Central Standard Time),166610.59999999404,A,cabinenter,O,enter,595,1,2214.199999988079,164396.40000000596,7059,WL,B,6.0
1,14.998000144958496,learn,45001.999855041504,Mon Feb 24 2025 18:41:43 GMT-0600 (Central Standard Time),167429.09999999404,A,d,O,d,810,1,818.1999999880791,166610.90000000596,7059,WL,B,7.0
1,15.38100004196167,learn,44618.99995803833,Mon Feb 24 2025 18:41:43 GMT-0600 (Central Standard Time),167812.40000000596,A,do,O,o,357,1,1201.5,166610.90000000596,7059,WL,B,7.0
1,15.496000051498413,learn,44503.99994850159,Mon Feb 24 2025 18:41:43 GMT-0600 (Central Standard Time),167927.0,A,doo,O,o,105,1,1316.0999999940395,166610.90000000596,7059,WL,B,7.0
1,15.662000179290771,learn,44337.99982070923,Mon Feb 24 2025 18:41:43 GMT-0600 (Central Standard Time),168093.09999999404,A,door,O,r,159,1,1482.199999988079,166610.90000000596,7059,WL,B,7.0
1,16.07800006866455,learn,43921.99993133545,Mon Feb 24 2025 18:41:43 GMT-0600 (Central Standard Time),168509.40000000596,A,doorenter,O,enter,400,1,1898.5,166610.90000000596,7059,WL,B,7.0
1,18.27900004386902,learn,41720.99995613098,Mon Feb 24 2025 18:41:43 GMT-0600 (Central Standard Time),170709.70000001788,A,w,O,w,2185,1,2200.0,168509.70000001788,7059,WL,B,8.0
1,18.395000219345093,learn,41604.99978065491,Mon Feb 24 2025 18:41:43 GMT-0600 (Central Standard Time),170825.90000000596,A,wi,O,i,103,1,2316.199999988079,168509.70000001788,7059,WL,B,8.0
1,18.84600019454956,learn,41153.99980545044,Mon Feb 24 2025 18:41:43 GMT-0600 (Central Standard Time),171277.0,A,wif,O,f,440,1,2767.2999999821186,168509.70000001788,7059,WL,B,8.0
1,18.99400019645691,learn,41005.99980354309,Mon Feb 24 2025 18:41:43 GMT-0600 (Central Standard Time),171424.90000000596,A,wife,O,e,126,1,2915.199999988079,168509.70000001788,7059,WL,B,8.0
1,19.612000226974487,learn,40387.99977302551,Mon Feb 24 2025 18:41:43 GMT-0600 (Central Standard Time),172042.90000000596,A,wifeenter,O,enter,594,1,3533.199999988079,168509.70000001788,7059,WL,B,8.0
1,20.80900001525879,learn,39190.99998474121,Mon Feb 24 2025 18:41:43 GMT-0600 (Central Standard Time),173240.0,A,c,O,c,1187,1,1196.7999999821186,172043.20000001788,7059,WL,B,9.0
1,20.927000045776367,learn,39072.99995422363,Mon Feb 24 2025 18:41:43 GMT-0600 (Central Standard Time),173357.59999999404,A,ci,O,i,96,1,1314.3999999761581,172043.20000001788,7059,WL,B,9.0
1,21.111000061035156,learn,38888.999938964844,Mon Feb 24 2025 18:41:43 GMT-0600 (Central Standard Time),173542.0,A,cit,O,t,168,1,1498.7999999821186,172043.20000001788,7059,WL,B,9.0
1,21.243000030517578,learn,38756.99996948242,Mon Feb 24 2025 18:41:43 GMT-0600 (Central Standard Time),173674.0,A,city,O,y,111,1,1630.7999999821186,172043.20000001788,7059,WL,B,9.0
1,21.627000093460083,learn,38372.99990653992,Mon Feb 24 2025 18:41:43 GMT-0600 (Central Standard Time),174058.0,A,cityenter,O,enter,362,1,2014.7999999821186,172043.20000001788,7059,WL,B,9.0
1,28.225000143051147,learn,31774.999856948853,Mon Feb 24 2025 18:41:43 GMT-0600 (Central Standard Time),180656.30000001192,A,d,O,d,6580,1,6598.0999999940395,174058.20000001788,7059,WL,B,10.0
1,28.373000144958496,learn,31626.999855041504,Mon Feb 24 2025 18:41:43 GMT-0600 (Central Standard Time),180804.70000001788,A,do,O,o,133,1,6746.5,174058.20000001788,7059,WL,B,10.0
1,28.52300000190735,learn,31476.99999809265,Mon Feb 24 2025 18:41:43 GMT-0600 (Central Standard Time),180954.70000001788,A,doo,O,o,130,1,6896.5,174058.20000001788,7059,WL,B,10.0
1,28.606000185012817,learn,31393.999814987183,Mon Feb 24 2025 18:41:43 GMT-0600 (Central Standard Time),181037.59999999404,A,door,O,r,68,1,6979.399999976158,174058.20000001788,7059,WL,B,10.0
1,28.77400016784668,learn,31225.99983215332,Mon Feb 24 2025 18:41:43 GMT-0600 (Central Standard Time),181205.90000000596,A,doorenter,O,enter,154,1,7147.699999988079,174058.20000001788,7059,WL,B,10.0
1,47.03600001335144,learn,12963.99998664856,Mon Feb 24 2025 18:41:43 GMT-0600 (Central Standard Time),199467.40000000596,A,s,O,s,18249,1,18261.19999998808,181206.20000001788,7059,WL,B,11.0
1,47.134000062942505,learn,12865.999937057495,Mon Feb 24 2025 18:41:43 GMT-0600 (Central Standard Time),199565.30000001192,A,sk,O,k,82,1,18359.09999999404,181206.20000001788,7059,WL,B,11.0
1,47.26900005340576,learn,12730.999946594238,Mon Feb 24 2025 18:41:43 GMT-0600 (Central Standard Time),199700.59999999404,A,ski,O,i,120,1,18494.399999976158,181206.20000001788,7059,WL,B,11.0
1,47.402000188827515,learn,12597.999811172485,Mon Feb 24 2025 18:41:43 GMT-0600 (Central Standard Time),199834.09999999404,A,skin,O,n,121,1,18627.899999976158,181206.20000001788,7059,WL,B,11.0
1,47.818000078201294,learn,12181.999921798706,Mon Feb 24 2025 18:41:43 GMT-0600 (Central Standard Time),200249.30000001192,A,skinenter,O,enter,404,1,19043.09999999404,181206.20000001788,7059,WL,B,11.0
1,56.46600008010864,learn,3533.9999198913574,Mon Feb 24 2025 18:41:43 GMT-0600 (Central Standard Time),208897.80000001192,A,l,O,l,8628,1,8648.300000011921,200249.5,7059,WL,B,12.0
1,56.599000215530396,learn,3400.9997844696045,Mon Feb 24 2025 18:41:43 GMT-0600 (Central Standard Time),209031.0,A,la,O,a,116,1,8781.5,200249.5,7059,WL,B,12.0
1,56.71600008010864,learn,3283.9999198913574,Mon Feb 24 2025 18:41:43 GMT-0600 (Central Standard Time),209147.30000001192,A,lak,O,k,94,1,8897.800000011921,200249.5,7059,WL,B,12.0
1,56.83200001716614,learn,3167.9999828338623,Mon Feb 24 2025 18:41:43 GMT-0600 (Central Standard Time),209263.20000001788,A,lake,O,e,97,1,9013.700000017881,200249.5,7059,WL,B,12.0
1,57.265000104904175,learn,2734.999895095825,Mon Feb 24 2025 18:41:43 GMT-0600 (Central Standard Time),209696.59999999404,A,lakeenter,O,enter,412,1,9447.09999999404,200249.5,7059,WL,B,12.0
1,60.01600003242493,learn,-16.000032424926758,Mon Feb 24 2025 18:41:43 GMT-0600 (Central Standard Time),212447.30000001192,A,None,O,None,2745,1,2750.300000011921,209697.0,7059,WL,B,13.0
2,1.566999912261963,learn,58433.00008773804,Mon Feb 24 2025 18:41:43 GMT-0600 (Central Standard Time),285023.09999999404,A,s,O,s,1545,1,1566.5,283456.59999999404,7059,WL,B,1.0
2,1.815999984741211,learn,58184.00001525879,Mon Feb 24 2025 18:41:43 GMT-0600 (Central Standard Time),285272.7000000179,A,st,O,t,228,1,1816.1000000238419,283456.59999999404,7059,WL,B,1.0
2,1.932999849319458,learn,58067.00015068054,Mon Feb 24 2025 18:41:43 GMT-0600 (Central Standard Time),285389.7000000179,A,str,O,r,104,1,1933.1000000238419,283456.59999999404,7059,WL,B,1.0
2,1.997999906539917,learn,58002.00009346008,Mon Feb 24 2025 18:41:43 GMT-0600 (Central Standard Time),285454.09999999404,A,stre,O,e,51,1,1997.5,283456.59999999404,7059,WL,B,1.0
2,2.2330000400543213,learn,57766.99995994568,Mon Feb 24 2025 18:41:43 GMT-0600 (Central Standard Time),285689.59999999404,A,stree,O,e,214,1,2233.0,283456.59999999404,7059,WL,B,1.0
2,2.4159998893737793,learn,57584.00011062622,Mon Feb 24 2025 18:41:43 GMT-0600 (Central Standard Time),285872.59999999404,A,street,O,t,170,1,2416.0,283456.59999999404,7059,WL,B,1.0
2,3.0329999923706055,learn,56967.000007629395,Mon Feb 24 2025 18:41:43 GMT-0600 (Central Standard Time),286489.09999999404,A,streetenter,O,enter,593,1,3032.5,283456.59999999404,7059,WL,B,1.0
2,3.365000009536743,learn,56634.99999046326,Mon Feb 24 2025 18:41:43 GMT-0600 (Central Standard Time),286821.7000000179,A,g,O,g,326,1,332.30000001192093,286489.40000000596,7059,WL,B,2.0
2,3.4819998741149902,learn,56518.00012588501,Mon Feb 24 2025 18:41:43 GMT-0600 (Central Standard Time),286938.7000000179,A,gr,O,r,99,1,449.30000001192093,286489.40000000596,7059,WL,B,2.0
2,3.5980000495910645,learn,56401.999950408936,Mon Feb 24 2025 18:41:43 GMT-0600 (Central Standard Time),287054.90000000596,A,gra,O,a,104,1,565.5,286489.40000000596,7059,WL,B,2.0
2,4.182999849319458,learn,55817.00015068054,Mon Feb 24 2025 18:41:43 GMT-0600 (Central Standard Time),287639.0,A,gras,O,s,569,1,1149.5999999940395,286489.40000000596,7059,WL,B,2.0
2,4.365000009536743,learn,55634.99999046326,Mon Feb 24 2025 18:41:43 GMT-0600 (Central Standard Time),287821.7000000179,A,grass,O,s,160,1,1332.300000011921,286489.40000000596,7059,WL,B,2.0
2,4.5329999923706055,learn,55467.000007629395,Mon Feb 24 2025 18:41:43 GMT-0600 (Central Standard Time),287989.09999999404,A,grassenter,O,enter,147,1,1499.699999988079,286489.40000000596,7059,WL,B,2.0
2,5.23199987411499,learn,54768.00012588501,Mon Feb 24 2025 18:41:43 GMT-0600 (Central Standard Time),288688.59999999404,A,d,O,d,680,1,699.1999999880791,287989.40000000596,7059,WL,B,3.0
2,5.48199987411499,learn,54518.00012588501,Mon Feb 24 2025 18:41:43 GMT-0600 (Central Standard Time),288938.59999999404,A,do,O,o,226,1,949.1999999880791,287989.40000000596,7059,WL,B,3.0
2,5.681999921798706,learn,54318.000078201294,Mon Feb 24 2025 18:41:43 GMT-0600 (Central Standard Time),289138.5,A,doo,O,o,186,1,1149.0999999940395,287989.40000000596,7059,WL,B,3.0
2,5.898999929428101,learn,54101.0000705719,Mon Feb 24 2025 18:41:43 GMT-0600 (Central Standard Time),289355.3000000119,A,door,O,r,193,1,1365.9000000059605,287989.40000000596,7059,WL,B,3.0
2,6.080999851226807,learn,53919.00014877319,Mon Feb 24 2025 18:41:43 GMT-0600 (Central Standard Time),289537.09999999404,A,doorenter,O,enter,170,1,1547.699999988079,287989.40000000596,7059,WL,B,3.0
2,6.365000009536743,learn,53634.99999046326,Mon Feb 24 2025 18:41:43 GMT-0600 (Central Standard Time),289821.5,A,a,O,a,269,1,284.19999998807907,289537.3000000119,7059,WL,B,4.0
2,6.547999858856201,learn,53452.0001411438,Mon Feb 24 2025 18:41:43 GMT-0600 (Central Standard Time),290004.5,A,ar,O,r,167,1,467.19999998807907,289537.3000000119,7059,WL,B,4.0
2,6.815000057220459,learn,53184.99994277954,Mon Feb 24 2025 18:41:43 GMT-0600 (Central Standard Time),290271.40000000596,A,arm,O,m,250,1,734.0999999940395,289537.3000000119,7059,WL,B,4.0
2,7.131999969482422,learn,52868.00003051758,Mon Feb 24 2025 18:41:43 GMT-0600 (Central Standard Time),290588.0,A,armenter,O,enter,302,1,1050.699999988079,289537.3000000119,7059,WL,B,4.0
2,7.580999851226807,learn,52419.00014877319,Mon Feb 24 2025 18:41:43 GMT-0600 (Central Standard Time),291037.59999999404,A,w,O,w,435,1,449.2999999821186,290588.3000000119,7059,WL,B,5.0
2,7.698999881744385,learn,52301.000118255615,Mon Feb 24 2025 18:41:43 GMT-0600 (Central Standard Time),291155.3000000119,A,wi,O,i,95,1,567.0,290588.3000000119,7059,WL,B,5.0
2,7.764999866485596,learn,52235.000133514404,Mon Feb 24 2025 18:41:43 GMT-0600 (Central Standard Time),291221.40000000596,A,win,O,n,57,1,633.0999999940395,290588.3000000119,7059,WL,B,5.0
2,8.013999938964844,learn,51986.000061035156,Mon Feb 24 2025 18:41:43 GMT-0600 (Central Standard Time),291470.8000000119,A,wind,O,d,233,1,882.5,290588.3000000119,7059,WL,B,5.0
2,8.115000009536743,learn,51884.99999046326,Mon Feb 24 2025 18:41:43 GMT-0600 (Central Standard Time),291571.2000000179,A,windo,O,o,86,1,982.9000000059605,290588.3000000119,7059,WL,B,5.0
2,9.214999914169312,learn,50785.00008583069,Mon Feb 24 2025 18:41:43 GMT-0600 (Central Standard Time),292671.3000000119,A,window,O,w,1091,1,2083.0,290588.3000000119,7059,WL,B,5.0
2,9.363999843597412,learn,50636.00015640259,Mon Feb 24 2025 18:41:43 GMT-0600 (Central Standard Time),292820.2000000179,A,windowenter,O,enter,131,1,2231.9000000059605,290588.3000000119,7059,WL,B,5.0
2,9.697999954223633,learn,50302.00004577637,Mon Feb 24 2025 18:41:43 GMT-0600 (Central Standard Time),293154.8000000119,A,s,O,s,323,1,334.30000001192093,292820.5,7059,WL,B,6.0
2,9.930000066757202,learn,50069.9999332428,Mon Feb 24 2025 18:41:43 GMT-0600 (Central Standard Time),293386.8000000119,A,st,O,t,219,1,566.3000000119209,292820.5,7059,WL,B,6.0
2,9.996000051498413,learn,50003.99994850159,Mon Feb 24 2025 18:41:43 GMT-0600 (Central Standard Time),293452.3000000119,A,sta,O,a,50,1,631.8000000119209,292820.5,7059,WL,B,6.0
2,10.19700002670288,learn,49802.99997329712,Mon Feb 24 2025 18:41:43 GMT-0600 (Central Standard Time),293653.5,A,star,O,r,186,1,833.0,292820.5,7059,WL,B,6.0
2,10.579999923706055,learn,49420.000076293945,Mon Feb 24 2025 18:41:43 GMT-0600 (Central Standard Time),294036.0,A,starenter,O,enter,377,1,1215.5,292820.5,7059,WL,B,6.0
2,11.164000034332275,learn,48835.999965667725,Mon Feb 24 2025 18:41:43 GMT-0600 (Central Standard Time),294620.09999999404,A,w,O,w,571,1,583.7999999821186,294036.3000000119,7059,WL,B,7.0
2,11.27999997138977,learn,48720.00002861023,Mon Feb 24 2025 18:41:43 GMT-0600 (Central Standard Time),294736.09999999404,A,wi,O,i,106,1,699.7999999821186,294036.3000000119,7059,WL,B,7.0
2,11.513999938964844,learn,48486.000061035156,Mon Feb 24 2025 18:41:43 GMT-0600 (Central Standard Time),294969.90000000596,A,wif,O,f,212,1,933.5999999940395,294036.3000000119,7059,WL,B,7.0
2,11.646999835968018,learn,48353.00016403198,Mon Feb 24 2025 18:41:43 GMT-0600 (Central Standard Time),295102.90000000596,A,wife,O,e,126,1,1066.5999999940395,294036.3000000119,7059,WL,B,7.0
2,12.013000011444092,learn,47986.99998855591,Mon Feb 24 2025 18:41:43 GMT-0600 (Central Standard Time),295469.40000000596,A,wifeenter,O,enter,350,1,1433.0999999940395,294036.3000000119,7059,WL,B,7.0
2,12.91100001335144,learn,47088.99998664856,Mon Feb 24 2025 18:41:43 GMT-0600 (Central Standard Time),296367.8000000119,A,p,O,p,888,1,898.2000000178814,295469.59999999404,7059,WL,B,8.0
2,13.013000011444092,learn,46986.99998855591,Mon Feb 24 2025 18:41:43 GMT-0600 (Central Standard Time),296470.0,A,pu,O,u,95,1,1000.4000000059605,295469.59999999404,7059,WL,B,8.0
2,13.19700002670288,learn,46802.99997329712,Mon Feb 24 2025 18:41:43 GMT-0600 (Central Standard Time),296654.0,A,pup,O,p,177,1,1184.4000000059605,295469.59999999404,7059,WL,B,8.0
2,13.328999996185303,learn,46671.0000038147,Mon Feb 24 2025 18:41:43 GMT-0600 (Central Standard Time),296785.59999999404,A,pupi,O,i,120,1,1316.0,295469.59999999404,7059,WL,B,8.0
2,13.611999988555908,learn,46388.00001144409,Mon Feb 24 2025 18:41:43 GMT-0600 (Central Standard Time),297069.2000000179,A,pupil,O,l,269,1,1599.6000000238419,295469.59999999404,7059,WL,B,8.0
2,13.881999969482422,learn,46118.00003051758,Mon Feb 24 2025 18:41:43 GMT-0600 (Central Standard Time),297338.7000000179,A,pupilenter,O,enter,263,1,1869.1000000238419,295469.59999999404,7059,WL,B,8.0
2,14.21399998664856,learn,45786.00001335144,Mon Feb 24 2025 18:41:43 GMT-0600 (Central Standard Time),297670.59999999404,A,l,O,l,328,1,331.69999998807907,297338.90000000596,7059,WL,B,9.0
2,14.36299991607666,learn,45637.00008392334,Mon Feb 24 2025 18:41:43 GMT-0600 (Central Standard Time),297820.0,A,la,O,a,142,1,481.09999999403954,297338.90000000596,7059,WL,B,9.0
2,14.51199984550476,learn,45488.00015449524,Mon Feb 24 2025 18:41:43 GMT-0600 (Central Standard Time),297968.59999999404,A,lak,O,k,131,1,629.6999999880791,297338.90000000596,7059,WL,B,9.0
2,14.66100001335144,learn,45338.99998664856,Mon Feb 24 2025 18:41:43 GMT-0600 (Central Standard Time),298117.59999999404,A,lake,O,e,141,1,778.6999999880791,297338.90000000596,7059,WL,B,9.0
2,14.976999998092651,learn,45023.00000190735,Mon Feb 24 2025 18:41:43 GMT-0600 (Central Standard Time),298434.2000000179,A,lakeenter,O,enter,304,1,1095.300000011921,297338.90000000596,7059,WL,B,9.0
2,15.694000005722046,learn,44305.999994277954,Mon Feb 24 2025 18:41:43 GMT-0600 (Central Standard Time),299150.5,A,f,O,f,707,1,716.0,298434.5,7059,WL,B,10.0
2,15.796000003814697,learn,44203.9999961853,Mon Feb 24 2025 18:41:43 GMT-0600 (Central Standard Time),299252.7000000179,A,fi,O,i,78,1,818.2000000178814,298434.5,7059,WL,B,10.0
2,15.996999979019165,learn,44003.000020980835,Mon Feb 24 2025 18:41:43 GMT-0600 (Central Standard Time),299454.2000000179,A,fir,O,r,192,1,1019.7000000178814,298434.5,7059,WL,B,10.0
2,16.111000061035156,learn,43888.999938964844,Mon Feb 24 2025 18:41:43 GMT-0600 (Central Standard Time),299568.0,A,fire,O,e,100,1,1133.5,298434.5,7059,WL,B,10.0
2,16.378000020980835,learn,43621.999979019165,Mon Feb 24 2025 18:41:43 GMT-0600 (Central Standard Time),299835.40000000596,A,fireenter,O,enter,246,1,1400.9000000059605,298434.5,7059,WL,B,10.0
2,16.894999980926514,learn,43105.000019073486,Mon Feb 24 2025 18:41:43 GMT-0600 (Central Standard Time),300352.09999999404,A,p,O,p,510,1,516.5,299835.59999999404,7059,WL,B,11.0
2,17.027999877929688,learn,42972.00012207031,Mon Feb 24 2025 18:41:43 GMT-0600 (Central Standard Time),300484.90000000596,A,pi,O,i,111,1,649.3000000119209,299835.59999999404,7059,WL,B,11.0
2,17.161999940872192,learn,42838.00005912781,Mon Feb 24 2025 18:41:43 GMT-0600 (Central Standard Time),300619.40000000596,A,pip,O,p,112,1,783.8000000119209,299835.59999999404,7059,WL,B,11.0
2,17.361000061035156,learn,42638.999938964844,Mon Feb 24 2025 18:41:43 GMT-0600 (Central Standard Time),300818.09999999404,A,pipe,O,e,171,1,982.5,299835.59999999404,7059,WL,B,11.0
2,17.777999877929688,learn,42222.00012207031,Mon Feb 24 2025 18:41:43 GMT-0600 (Central Standard Time),301234.7000000179,A,pipeenter,O,enter,393,1,1399.1000000238419,299835.59999999404,7059,WL,B,11.0
2,18.74399995803833,learn,41256.00004196167,Mon Feb 24 2025 18:41:43 GMT-0600 (Central Standard Time),302200.8000000119,A,c,O,c,956,1,965.8000000119209,301235.0,7059,WL,B,12.0
2,18.876999855041504,learn,41123.000144958496,Mon Feb 24 2025 18:41:43 GMT-0600 (Central Standard Time),302334.0,A,ci,O,i,126,1,1099.0,301235.0,7059,WL,B,12.0
2,19.128000020980835,learn,40871.999979019165,Mon Feb 24 2025 18:41:43 GMT-0600 (Central Standard Time),302585.0,A,cit,O,t,230,1,1350.0,301235.0,7059,WL,B,12.0
2,19.276999950408936,learn,40723.000049591064,Mon Feb 24 2025 18:41:43 GMT-0600 (Central Standard Time),302734.2000000179,A,city,O,y,133,1,1499.2000000178814,301235.0,7059,WL,B,12.0
2,19.76099991798401,learn,40239.00008201599,Mon Feb 24 2025 18:41:43 GMT-0600 (Central Standard Time),303217.59999999404,A,cityenter,O,enter,470,1,1982.5999999940395,301235.0,7059,WL,B,12.0
2,22.441999912261963,learn,37558.00008773804,Mon Feb 24 2025 18:41:43 GMT-0600 (Central Standard Time),305898.8000000119,A,c,O,c,2669,1,2680.800000011921,303218.0,7059,WL,B,13.0
2,22.57699990272522,learn,37423.00009727478,Mon Feb 24 2025 18:41:43 GMT-0600 (Central Standard Time),306034.0,A,ca,O,a,115,1,2816.0,303218.0,7059,WL,B,13.0
2,22.97499990463257,learn,37025.00009536743,Mon Feb 24 2025 18:41:43 GMT-0600 (Central Standard Time),306432.5,A,cab,O,b,385,1,3214.5,303218.0,7059,WL,B,13.0
2,23.092000007629395,learn,36907.999992370605,Mon Feb 24 2025 18:41:43 GMT-0600 (Central Standard Time),306548.8000000119,A,cabi,O,i,99,1,3330.800000011921,303218.0,7059,WL,B,13.0
2,23.20899987220764,learn,36791.00012779236,Mon Feb 24 2025 18:41:43 GMT-0600 (Central Standard Time),306666.09999999404,A,cabin,O,n,103,1,3448.0999999940395,303218.0,7059,WL,B,13.0
2,23.626999855041504,learn,36373.000144958496,Mon Feb 24 2025 18:41:43 GMT-0600 (Central Standard Time),307084.09999999404,A,cabinenter,O,enter,413,1,3866.0999999940395,303218.0,7059,WL,B,13.0
2,24.35800004005432,learn,35641.99995994568,Mon Feb 24 2025 18:41:43 GMT-0600 (Central Standard Time),307815.09999999404,A,c,O,c,715,1,730.6999999880791,307084.40000000596,7059,WL,B,14.0
2,24.45899987220764,learn,35541.00012779236,Mon Feb 24 2025 18:41:43 GMT-0600 (Central Standard Time),307916.3000000119,A,cl,O,l,96,1,831.9000000059605,307084.40000000596,7059,WL,B,14.0
2,24.64199995994568,learn,35358.00004005432,Mon Feb 24 2025 18:41:43 GMT-0600 (Central Standard Time),308099.5,A,clo,O,o,168,1,1015.0999999940395,307084.40000000596,7059,WL,B,14.0
2,24.825999975204468,learn,35174.00002479553,Mon Feb 24 2025 18:41:43 GMT-0600 (Central Standard Time),308282.59999999404,A,cloc,O,c,161,1,1198.199999988079,307084.40000000596,7059,WL,B,14.0
2,24.991999864578247,learn,35008.00013542175,Mon Feb 24 2025 18:41:43 GMT-0600 (Central Standard Time),308448.90000000596,A,clock,O,k,154,1,1364.5,307084.40000000596,7059,WL,B,14.0
2,25.340999841690063,learn,34659.00015830994,Mon Feb 24 2025 18:41:43 GMT-0600 (Central Standard Time),308797.90000000596,A,clockenter,O,enter,332,1,1713.5,307084.40000000596,7059,WL,B,14.0
2,30.33999991416931,learn,29660.00008583069,Mon Feb 24 2025 18:41:43 GMT-0600 (Central Standard Time),313797.0,A,s,O,s,4985,1,4998.9000000059605,308798.09999999404,7059,WL,B,15.0
2,30.42199993133545,learn,29578.00006866455,Mon Feb 24 2025 18:41:43 GMT-0600 (Central Standard Time),313878.8000000119,A,sk,O,k,63,1,5080.700000017881,308798.09999999404,7059,WL,B,15.0
2,30.557999849319458,learn,29442.000150680542,Mon Feb 24 2025 18:41:43 GMT-0600 (Central Standard Time),314014.7000000179,A,ski,O,i,128,1,5216.600000023842,308798.09999999404,7059,WL,B,15.0
2,30.70799994468689,learn,29292.00005531311,Mon Feb 24 2025 18:41:43 GMT-0600 (Central Standard Time),314164.90000000596,A,skin,O,n,140,1,5366.800000011921,308798.09999999404,7059,WL,B,15.0
2,31.29099988937378,learn,28709.00011062622,Mon Feb 24 2025 18:41:43 GMT-0600 (Central Standard Time),314747.90000000596,A,skinenter,O,enter,569,1,5949.800000011921,308798.09999999404,7059,WL,B,15.0
3,0.5989999771118164,learn,59401.00002288818,Mon Feb 24 2025 18:41:43 GMT-0600 (Central Standard Time),383291.90000000596,A,s,O,s,586,1,598.8000000119209,382693.09999999404,7059,WL,B,1.0
3,0.8650000095367432,learn,59134.99999046326,Mon Feb 24 2025 18:41:43 GMT-0600 (Central Standard Time),383557.7000000179,A,st,O,t,257,1,864.6000000238419,382693.09999999404,7059,WL,B,1.0
3,1.0,learn,59000.0,Mon Feb 24 2025 18:41:43 GMT-0600 (Central Standard Time),383692.40000000596,A,str,O,r,119,1,999.3000000119209,382693.09999999404,7059,WL,B,1.0
3,1.0989999771118164,learn,58901.00002288818,Mon Feb 24 2025 18:41:43 GMT-0600 (Central Standard Time),383791.40000000596,A,stre,O,e,87,1,1098.300000011921,382693.09999999404,7059,WL,B,1.0
3,1.3320000171661377,learn,58667.99998283386,Mon Feb 24 2025 18:41:43 GMT-0600 (Central Standard Time),384024.90000000596,A,stret,O,t,212,1,1331.800000011921,382693.09999999404,7059,WL,B,1.0
3,2.0169999599456787,learn,57983.00004005432,Mon Feb 24 2025 18:41:43 GMT-0600 (Central Standard Time),384709.09999999404,A,stre,O,backspace,676,1,2016.0,382693.09999999404,7059,WL,B,1.0
3,2.4160001277923584,learn,57583.99987220764,Mon Feb 24 2025 18:41:43 GMT-0600 (Central Standard Time),385108.2000000179,A,stree,O,e,385,1,2415.100000023842,382693.09999999404,7059,WL,B,1.0
3,2.5320000648498535,learn,57467.99993515015,Mon Feb 24 2025 18:41:43 GMT-0600 (Central Standard Time),385224.5,A,street,O,t,106,1,2531.4000000059605,382693.09999999404,7059,WL,B,1.0
3,2.947999954223633,learn,57052.00004577637,Mon Feb 24 2025 18:41:43 GMT-0600 (Central Standard Time),385640.40000000596,A,streetenter,O,enter,396,1,2947.300000011921,382693.09999999404,7059,WL,B,1.0
3,3.5480000972747803,learn,56451.99990272522,Mon Feb 24 2025 18:41:43 GMT-0600 (Central Standard Time),386240.5,A,g,O,g,582,1,599.7999999821186,385640.7000000179,7059,WL,B,2.0
3,3.6660001277923584,learn,56333.99987220764,Mon Feb 24 2025 18:41:43 GMT-0600 (Central Standard Time),386358.40000000596,A,gr,O,r,110,1,717.6999999880791,385640.7000000179,7059,WL,B,2.0
3,3.7820000648498535,learn,56217.99993515015,Mon Feb 24 2025 18:41:43 GMT-0600 (Central Standard Time),386474.2000000179,A,gra,O,a,94,1,833.5,385640.7000000179,7059,WL,B,2.0
3,4.081000089645386,learn,55918.999910354614,Mon Feb 24 2025 18:41:43 GMT-0600 (Central Standard Time),386773.3000000119,A,gras,O,s,290,1,1132.5999999940395,385640.7000000179,7059,WL,B,2.0
3,4.249000072479248,learn,55750.99992752075,Mon Feb 24 2025 18:41:43 GMT-0600 (Central Standard Time),386941.2000000179,A,grass,O,s,153,1,1300.5,385640.7000000179,7059,WL,B,2.0
3,4.297000169754028,learn,55702.99983024597,Mon Feb 24 2025 18:41:43 GMT-0600 (Central Standard Time),386989.40000000596,A,grassenter,O,enter,39,1,1348.699999988079,385640.7000000179,7059,WL,B,2.0
3,4.71399998664856,learn,55286.00001335144,Mon Feb 24 2025 18:41:43 GMT-0600 (Central Standard Time),387407.0,A,s,O,s,410,1,417.2999999821186,386989.7000000179,7059,WL,B,3.0
3,5.047000169754028,learn,54952.99983024597,Mon Feb 24 2025 18:41:43 GMT-0600 (Central Standard Time),387739.3000000119,A,so,O,o,316,1,749.5999999940395,386989.7000000179,7059,WL,B,3.0
3,5.365000009536743,learn,54634.99999046326,Mon Feb 24 2025 18:41:43 GMT-0600 (Central Standard Time),388057.3000000119,A,s,O,backspace,298,1,1067.5999999940395,386989.7000000179,7059,WL,B,3.0
3,5.465000152587891,learn,54534.99984741211,Mon Feb 24 2025 18:41:43 GMT-0600 (Central Standard Time),388157.5,A,,O,backspace,93,1,1167.7999999821186,386989.7000000179,7059,WL,B,3.0
3,5.613000154495239,learn,54386.99984550476,Mon Feb 24 2025 18:41:43 GMT-0600 (Central Standard Time),388306.09999999404,A,d,O,d,136,1,1316.3999999761581,386989.7000000179,7059,WL,B,3.0
3,5.815000057220459,learn,54184.99994277954,Mon Feb 24 2025 18:41:43 GMT-0600 (Central Standard Time),388507.2000000179,A,do,O,o,184,1,1517.5,386989.7000000179,7059,WL,B,3.0
3,6.148000001907349,learn,53851.99999809265,Mon Feb 24 2025 18:41:43 GMT-0600 (Central Standard Time),388840.59999999404,A,doo,O,o,320,1,1850.8999999761581,386989.7000000179,7059,WL,B,3.0
3,6.330000162124634,learn,53669.999837875366,Mon Feb 24 2025 18:41:43 GMT-0600 (Central Standard Time),389022.90000000596,A,door,O,r,166,1,2033.199999988079,386989.7000000179,7059,WL,B,3.0
3,6.562999963760376,learn,53437.000036239624,Mon Feb 24 2025 18:41:43 GMT-0600 (Central Standard Time),389255.8000000119,A,doorenter,O,enter,213,1,2266.0999999940395,386989.7000000179,7059,WL,B,3.0
3,7.065999984741211,learn,52934.00001525879,Mon Feb 24 2025 18:41:43 GMT-0600 (Central Standard Time),389758.8000000119,A,s,O,s,487,1,502.80000001192093,389256.0,7059,WL,B,4.0
3,7.265000104904175,learn,52734.999895095825,Mon Feb 24 2025 18:41:43 GMT-0600 (Central Standard Time),389957.59999999404,A,st,O,t,192,1,701.5999999940395,389256.0,7059,WL,B,4.0
3,7.363000154495239,learn,52636.99984550476,Mon Feb 24 2025 18:41:43 GMT-0600 (Central Standard Time),390055.7000000179,A,sta,O,a,80,1,799.7000000178814,389256.0,7059,WL,B,4.0
3,7.463000059127808,learn,52536.99994087219,Mon Feb 24 2025 18:41:43 GMT-0600 (Central Standard Time),390155.90000000596,A,star,O,r,82,1,899.9000000059605,389256.0,7059,WL,B,4.0
3,7.697000026702881,learn,52302.99997329712,Mon Feb 24 2025 18:41:43 GMT-0600 (Central Standard Time),390389.40000000596,A,starenter,O,enter,227,1,1133.4000000059605,389256.0,7059,WL,B,4.0
3,7.946000099182129,learn,52053.99990081787,Mon Feb 24 2025 18:41:43 GMT-0600 (Central Standard Time),390638.5,A,w,O,w,229,1,248.7999999821186,390389.7000000179,7059,WL,B,5.0
3,8.146000146865845,learn,51853.999853134155,Mon Feb 24 2025 18:41:43 GMT-0600 (Central Standard Time),390838.2000000179,A,wi,O,i,192,1,448.5,390389.7000000179,7059,WL,B,5.0
3,8.380000114440918,learn,51619.99988555908,Mon Feb 24 2025 18:41:43 GMT-0600 (Central Standard Time),391072.5,A,wif,O,f,215,1,682.7999999821186,390389.7000000179,7059,WL,B,5.0
3,8.529000043869019,learn,51470.99995613098,Mon Feb 24 2025 18:41:43 GMT-0600 (Central Standard Time),391221.5,A,wife,O,e,135,1,831.7999999821186,390389.7000000179,7059,WL,B,5.0
3,8.963000059127808,learn,51036.99994087219,Mon Feb 24 2025 18:41:43 GMT-0600 (Central Standard Time),391655.2000000179,A,wifeenter,O,enter,425,1,1265.5,390389.7000000179,7059,WL,B,5.0
3,9.212000131607056,learn,50787.999868392944,Mon Feb 24 2025 18:41:43 GMT-0600 (Central Standard Time),391904.8000000119,A,w,O,w,231,1,249.30000001192093,391655.5,7059,WL,B,6.0
3,9.27999997138977,learn,50720.00002861023,Mon Feb 24 2025 18:41:43 GMT-0600 (Central Standard Time),391972.40000000596,A,wi,O,i,49,1,316.90000000596046,391655.5,7059,WL,B,6.0
3,9.413000106811523,learn,50586.99989318848,Mon Feb 24 2025 18:41:43 GMT-0600 (Central Standard Time),392105.90000000596,A,win,O,n,121,1,450.40000000596046,391655.5,7059,WL,B,6.0
3,9.614000082015991,learn,50385.99991798401,Mon Feb 24 2025 18:41:43 GMT-0600 (Central Standard Time),392306.40000000596,A,wind,O,d,188,1,650.9000000059605,391655.5,7059,WL,B,6.0
3,9.712000131607056,learn,50287.999868392944,Mon Feb 24 2025 18:41:43 GMT-0600 (Central Standard Time),392404.90000000596,A,windo,O,o,92,1,749.4000000059605,391655.5,7059,WL,B,6.0
3,10.046000003814697,learn,49953.9999961853,Mon Feb 24 2025 18:41:43 GMT-0600 (Central Standard Time),392738.8000000119,A,window,O,w,320,1,1083.300000011921,391655.5,7059,WL,B,6.0
3,10.913000106811523,learn,49086.99989318848,Mon Feb 24 2025 18:41:43 GMT-0600 (Central Standard Time),393605.5,A,windowenter,O,enter,861,1,1950.0,391655.5,7059,WL,B,6.0
3,12.075999975204468,learn,47924.00002479553,Mon Feb 24 2025 18:41:43 GMT-0600 (Central Standard Time),394769.0,A,c,O,c,1143,1,1163.2999999821186,393605.7000000179,7059,WL,B,7.0
3,12.210000038146973,learn,47789.99996185303,Mon Feb 24 2025 18:41:43 GMT-0600 (Central Standard Time),394902.8000000119,A,ci,O,i,126,1,1297.0999999940395,393605.7000000179,7059,WL,B,7.0
3,12.86300015449524,learn,47136.99984550476,Mon Feb 24 2025 18:41:43 GMT-0600 (Central Standard Time),395555.7000000179,A,cit,O,t,648,1,1950.0,393605.7000000179,7059,WL,B,7.0
3,12.978000164031982,learn,47021.99983596802,Mon Feb 24 2025 18:41:43 GMT-0600 (Central Standard Time),395670.3000000119,A,city,O,y,106,1,2064.5999999940395,393605.7000000179,7059,WL,B,7.0
3,13.743000030517578,learn,46256.99996948242,Mon Feb 24 2025 18:41:43 GMT-0600 (Central Standard Time),396435.09999999404,A,cityenter,O,enter,749,1,2829.399999976158,393605.7000000179,7059,WL,B,7.0
3,14.39300012588501,learn,45606.99987411499,Mon Feb 24 2025 18:41:43 GMT-0600 (Central Standard Time),397085.90000000596,A,p,O,p,635,1,650.5999999940395,396435.3000000119,7059,WL,B,8.0
3,14.442000150680542,learn,45557.99984931946,Mon Feb 24 2025 18:41:43 GMT-0600 (Central Standard Time),397134.7000000179,A,pi,O,i,41,1,699.4000000059605,396435.3000000119,7059,WL,B,8.0
3,14.659000158309937,learn,45340.99984169006,Mon Feb 24 2025 18:41:43 GMT-0600 (Central Standard Time),397351.40000000596,A,pip,O,p,200,1,916.0999999940395,396435.3000000119,7059,WL,B,8.0
3,14.927000045776367,learn,45072.99995422363,Mon Feb 24 2025 18:41:43 GMT-0600 (Central Standard Time),397619.09999999404,A,pipe,O,e,256,1,1183.7999999821186,396435.3000000119,7059,WL,B,8.0
3,15.195000171661377,learn,44804.99982833862,Mon Feb 24 2025 18:41:43 GMT-0600 (Central Standard Time),397887.40000000596,A,pipeenter,O,enter,250,1,1452.0999999940395,396435.3000000119,7059,WL,B,8.0
3,21.890000104904175,learn,38109.999895095825,Mon Feb 24 2025 18:41:43 GMT-0600 (Central Standard Time),404582.90000000596,A,c,O,c,6687,1,6695.199999988079,397887.7000000179,7059,WL,B,9.0
3,21.9760000705719,learn,38023.9999294281,Mon Feb 24 2025 18:41:43 GMT-0600 (Central Standard Time),404668.2000000179,A,cl,O,l,79,1,6780.5,397887.7000000179,7059,WL,B,9.0
3,22.157000064849854,learn,37842.99993515015,Mon Feb 24 2025 18:41:43 GMT-0600 (Central Standard Time),404849.90000000596,A,clo,O,o,169,1,6962.199999988079,397887.7000000179,7059,WL,B,9.0
3,22.625,learn,37375.0,Mon Feb 24 2025 18:41:43 GMT-0600 (Central Standard Time),405317.40000000596,A,cloc,O,c,460,1,7429.699999988079,397887.7000000179,7059,WL,B,9.0
3,22.77500009536743,learn,37224.99990463257,Mon Feb 24 2025 18:41:43 GMT-0600 (Central Standard Time),405467.3000000119,A,clock,O,k,127,1,7579.5999999940395,397887.7000000179,7059,WL,B,9.0
3,23.424000024795532,learn,36575.99997520447,Mon Feb 24 2025 18:41:43 GMT-0600 (Central Standard Time),406117.0,A,clockenter,O,enter,639,1,8229.299999982119,397887.7000000179,7059,WL,B,9.0
3,24.77400016784668,learn,35225.99983215332,Mon Feb 24 2025 18:41:43 GMT-0600 (Central Standard Time),407466.3000000119,A,f,O,f,1330,1,1349.0,406117.3000000119,7059,WL,B,10.0
3,24.875,learn,35125.0,Mon Feb 24 2025 18:41:43 GMT-0600 (Central Standard Time),407567.40000000596,A,fi,O,i,89,1,1450.0999999940395,406117.3000000119,7059,WL,B,10.0
3,25.074000120162964,learn,34925.999879837036,Mon Feb 24 2025 18:41:43 GMT-0600 (Central Standard Time),407766.2000000179,A,fir,O,r,182,1,1648.9000000059605,406117.3000000119,7059,WL,B,10.0
3,25.174000024795532,learn,34825.99997520447,Mon Feb 24 2025 18:41:43 GMT-0600 (Central Standard Time),407866.59999999404,A,fire,O,e,82,1,1749.2999999821186,406117.3000000119,7059,WL,B,10.0
3,25.424000024795532,learn,34575.99997520447,Mon Feb 24 2025 18:41:43 GMT-0600 (Central Standard Time),408116.5,A,fireenter,O,enter,239,1,1999.199999988079,406117.3000000119,7059,WL,B,10.0
3,25.85700011253357,learn,34142.99988746643,Mon Feb 24 2025 18:41:43 GMT-0600 (Central Standard Time),408549.3000000119,A,s,O,s,427,1,432.59999999403954,408116.7000000179,7059,WL,B,11.0
3,25.990999937057495,learn,34009.000062942505,Mon Feb 24 2025 18:41:43 GMT-0600 (Central Standard Time),408683.90000000596,A,sk,O,k,120,1,567.1999999880791,408116.7000000179,7059,WL,B,11.0
3,26.124000072479248,learn,33875.99992752075,Mon Feb 24 2025 18:41:43 GMT-0600 (Central Standard Time),408817.0,A,ski,O,i,116,1,700.2999999821186,408116.7000000179,7059,WL,B,11.0
3,26.25600004196167,learn,33743.99995803833,Mon Feb 24 2025 18:41:43 GMT-0600 (Central Standard Time),408948.5,A,skin,O,n,123,1,831.7999999821186,408116.7000000179,7059,WL,B,11.0
3,26.723999977111816,learn,33276.00002288818,Mon Feb 24 2025 18:41:43 GMT-0600 (Central Standard Time),409416.90000000596,A,skinenter,O,enter,458,1,1300.199999988079,408116.7000000179,7059,WL,B,11.0
3,27.141000032424927,learn,32858.99996757507,Mon Feb 24 2025 18:41:43 GMT-0600 (Central Standard Time),409833.40000000596,A,c,O,c,397,1,416.30000001192093,409417.09999999404,7059,WL,B,12.0
3,27.27500009536743,learn,32724.99990463257,Mon Feb 24 2025 18:41:43 GMT-0600 (Central Standard Time),409967.2000000179,A,ca,O,a,112,1,550.1000000238419,409417.09999999404,7059,WL,B,12.0
3,27.572999954223633,learn,32427.000045776367,Mon Feb 24 2025 18:41:43 GMT-0600 (Central Standard Time),410265.7000000179,A,cab,O,b,278,1,848.6000000238419,409417.09999999404,7059,WL,B,12.0
3,27.674000024795532,learn,32325.999975204468,Mon Feb 24 2025 18:41:43 GMT-0600 (Central Standard Time),410366.40000000596,A,cabi,O,i,94,1,949.3000000119209,409417.09999999404,7059,WL,B,12.0
3,27.825000047683716,learn,32174.999952316284,Mon Feb 24 2025 18:41:43 GMT-0600 (Central Standard Time),410517.8000000119,A,cabin,O,n,135,1,1100.7000000178814,409417.09999999404,7059,WL,B,12.0
3,28.256999969482422,learn,31743.000030517578,Mon Feb 24 2025 18:41:43 GMT-0600 (Central Standard Time),410949.09999999404,A,cabinenter,O,enter,417,1,1532.0,409417.09999999404,7059,WL,B,12.0
3,34.73800015449524,learn,25261.99984550476,Mon Feb 24 2025 18:41:43 GMT-0600 (Central Standard Time),417430.90000000596,A,g,O,g,6465,1,6481.5,410949.40000000596,7059,WL,B,13.0
3,35.4210000038147,learn,24578.999996185303,Mon Feb 24 2025 18:41:43 GMT-0600 (Central Standard Time),418114.09999999404,A,,O,backspace,672,1,7164.699999988079,410949.40000000596,7059,WL,B,13.0
3,38.60199999809265,learn,21398.00000190735,Mon Feb 24 2025 18:41:43 GMT-0600 (Central Standard Time),421294.8000000119,A,f,O,f,3173,1,10345.40000000596,410949.40000000596,7059,WL,B,13.0
3,38.735000133514404,learn,21264.999866485596,Mon Feb 24 2025 18:41:43 GMT-0600 (Central Standard Time),421427.7000000179,A,fi,O,i,119,1,10478.300000011921,410949.40000000596,7059,WL,B,13.0
3,38.83500003814697,learn,21164.999961853027,Mon Feb 24 2025 18:41:43 GMT-0600 (Central Standard Time),421528.09999999404,A,fir,O,r,92,1,10578.699999988079,410949.40000000596,7059,WL,B,13.0
3,38.93400001525879,learn,21065.99998474121,Mon Feb 24 2025 18:41:43 GMT-0600 (Central Standard Time),421627.8000000119,A,fire,O,e,86,1,10678.40000000596,410949.40000000596,7059,WL,B,13.0
3,39.07100009918213,learn,20928.99990081787,Mon Feb 24 2025 18:41:43 GMT-0600 (Central Standard Time),421764.40000000596,A,fireenter,O,enter,129,1,10815.0,410949.40000000596,7059,WL,B,13.0
3,47.164000034332275,learn,12835.999965667725,Mon Feb 24 2025 18:41:43 GMT-0600 (Central Standard Time),429857.7000000179,A,l,O,l,8074,1,8093.100000023842,421764.59999999404,7059,WL,B,14.0
3,47.2810001373291,learn,12718.999862670898,Mon Feb 24 2025 18:41:43 GMT-0600 (Central Standard Time),429974.5,A,la,O,a,108,1,8209.90000000596,421764.59999999404,7059,WL,B,14.0
3,47.43300008773804,learn,12566.999912261963,Mon Feb 24 2025 18:41:43 GMT-0600 (Central Standard Time),430126.7000000179,A,lak,O,k,137,1,8362.100000023842,421764.59999999404,7059,WL,B,14.0
3,47.551000118255615,learn,12448.999881744385,Mon Feb 24 2025 18:41:43 GMT-0600 (Central Standard Time),430244.09999999404,A,lake,O,e,96,1,8479.5,421764.59999999404,7059,WL,B,14.0
3,47.682000160217285,learn,12317.999839782715,Mon Feb 24 2025 18:41:43 GMT-0600 (Central Standard Time),430375.09999999404,A,lakeenter,O,enter,122,1,8610.5,421764.59999999404,7059,WL,B,14.0
3,51.38100004196167,learn,8618.99995803833,Mon Feb 24 2025 18:41:43 GMT-0600 (Central Standard Time),434074.59999999404,A,enter,O,enter,3679,1,3699.0999999940395,430375.5,7059,WL,B,15.0
4,0.7840001583099365,learn,59215.99984169006,Mon Feb 24 2025 18:41:43 GMT-0600 (Central Standard Time),505303.59999999404,A,s,O,s,776,1,783.0999999940395,504520.5,7059,WL,B,1.0
4,1.0830001831054688,learn,58916.99981689453,Mon Feb 24 2025 18:41:43 GMT-0600 (Central Standard Time),505603.09999999404,A,st,O,t,279,1,1082.5999999940395,504520.5,7059,WL,B,1.0
4,1.1990001201629639,learn,58800.999879837036,Mon Feb 24 2025 18:41:43 GMT-0600 (Central Standard Time),505719.2000000179,A,str,O,r,105,1,1198.7000000178814,504520.5,7059,WL,B,1.0
4,1.3010001182556152,learn,58698.999881744385,Mon Feb 24 2025 18:41:43 GMT-0600 (Central Standard Time),505820.7000000179,A,stre,O,e,88,1,1300.2000000178814,504520.5,7059,WL,B,1.0
4,1.6160001754760742,learn,58383.999824523926,Mon Feb 24 2025 18:41:43 GMT-0600 (Central Standard Time),506135.8000000119,A,stret,O,t,303,1,1615.300000011921,504520.5,7059,WL,B,1.0
4,1.9820001125335693,learn,58017.99988746643,Mon Feb 24 2025 18:41:43 GMT-0600 (Central Standard Time),506502.2000000179,A,stre,O,backspace,357,1,1981.7000000178814,504520.5,7059,WL,B,1.0
4,2.065999984741211,learn,57934.00001525879,Mon Feb 24 2025 18:41:43 GMT-0600 (Central Standard Time),506586.0,A,stree,O,e,62,1,2065.5,504520.5,7059,WL,B,1.0
4,2.200000047683716,learn,57799.999952316284,Mon Feb 24 2025 18:41:43 GMT-0600 (Central Standard Time),506719.40000000596,A,street,O,t,116,1,2198.9000000059605,504520.5,7059,WL,B,1.0
4,2.932000160217285,learn,57067.999839782715,Mon Feb 24 2025 18:41:43 GMT-0600 (Central Standard Time),507452.09999999404,A,streetenter,O,enter,725,1,2931.5999999940395,504520.5,7059,WL,B,1.0
4,3.2990000247955322,learn,56700.99997520447,Mon Feb 24 2025 18:41:43 GMT-0600 (Central Standard Time),507819.2000000179,A,g,O,g,347,1,366.80000001192093,507452.40000000596,7059,WL,B,2.0
4,3.3990001678466797,learn,56600.99983215332,Mon Feb 24 2025 18:41:43 GMT-0600 (Central Standard Time),507919.0,A,gr,O,r,83,1,466.59999999403954,507452.40000000596,7059,WL,B,2.0
4,3.5160000324249268,learn,56483.99996757507,Mon Feb 24 2025 18:41:43 GMT-0600 (Central Standard Time),508035.59999999404,A,gra,O,a,98,1,583.1999999880791,507452.40000000596,7059,WL,B,2.0
4,3.9170000553131104,learn,56082.99994468689,Mon Feb 24 2025 18:41:43 GMT-0600 (Central Standard Time),508436.40000000596,A,grad,O,d,394,1,984.0,507452.40000000596,7059,WL,B,2.0
4,4.402000188827515,learn,55597.999811172485,Mon Feb 24 2025 18:41:43 GMT-0600 (Central Standard Time),508922.3000000119,A,gra,O,backspace,474,1,1469.9000000059605,507452.40000000596,7059,WL,B,2.0
4,4.682000160217285,learn,55317.999839782715,Mon Feb 24 2025 18:41:43 GMT-0600 (Central Standard Time),509201.59999999404,A,gras,O,s,269,1,1749.199999988079,507452.40000000596,7059,WL,B,2.0
4,4.8480000495910645,learn,55151.999950408936,Mon Feb 24 2025 18:41:43 GMT-0600 (Central Standard Time),509368.09999999404,A,grass,O,s,156,1,1915.699999988079,507452.40000000596,7059,WL,B,2.0
4,4.965000152587891,learn,55034.99984741211,Mon Feb 24 2025 18:41:43 GMT-0600 (Central Standard Time),509484.40000000596,A,grassenter,O,enter,102,1,2032.0,507452.40000000596,7059,WL,B,2.0
4,5.301000118255615,learn,54698.999881744385,Mon Feb 24 2025 18:41:43 GMT-0600 (Central Standard Time),509820.8000000119,A,d,O,d,331,1,336.2000000178814,509484.59999999404,7059,WL,B,3.0
4,5.716000080108643,learn,54283.99991989136,Mon Feb 24 2025 18:41:43 GMT-0600 (Central Standard Time),510236.2000000179,A,do,O,o,410,1,751.6000000238419,509484.59999999404,7059,WL,B,3.0
4,5.864000082015991,learn,54135.99991798401,Mon Feb 24 2025 18:41:43 GMT-0600 (Central Standard Time),510383.7000000179,A,doo,O,o,128,1,899.1000000238419,509484.59999999404,7059,WL,B,3.0
4,6.016000032424927,learn,53983.99996757507,Mon Feb 24 2025 18:41:43 GMT-0600 (Central Standard Time),510536.0,A,door,O,r,135,1,1051.4000000059605,509484.59999999404,7059,WL,B,3.0
4,6.231000185012817,learn,53768.99981498718,Mon Feb 24 2025 18:41:43 GMT-0600 (Central Standard Time),510751.2000000179,A,doorenter,O,enter,204,1,1266.6000000238419,509484.59999999404,7059,WL,B,3.0
4,6.583000183105469,learn,53416.99981689453,Mon Feb 24 2025 18:41:43 GMT-0600 (Central Standard Time),511103.09999999404,A,a,O,a,335,1,351.69999998807907,510751.40000000596,7059,WL,B,4.0
4,6.749000072479248,learn,53250.99992752075,Mon Feb 24 2025 18:41:43 GMT-0600 (Central Standard Time),511269.2000000179,A,ar,O,r,149,1,517.8000000119209,510751.40000000596,7059,WL,B,4.0
4,6.949000120162964,learn,53050.999879837036,Mon Feb 24 2025 18:41:43 GMT-0600 (Central Standard Time),511468.8000000119,A,arm,O,m,193,1,717.4000000059605,510751.40000000596,7059,WL,B,4.0
4,7.180999994277954,learn,52819.000005722046,Mon Feb 24 2025 18:41:43 GMT-0600 (Central Standard Time),511701.3000000119,A,armenter,O,enter,217,1,949.9000000059605,510751.40000000596,7059,WL,B,4.0
4,7.380000114440918,learn,52619.99988555908,Mon Feb 24 2025 18:41:43 GMT-0600 (Central Standard Time),511900.3000000119,A,s,O,s,185,1,198.80000001192093,511701.5,7059,WL,B,5.0
4,7.647000074386597,learn,52352.9999256134,Mon Feb 24 2025 18:41:43 GMT-0600 (Central Standard Time),512167.2000000179,A,st,O,t,250,1,465.7000000178814,511701.5,7059,WL,B,5.0
4,7.748000144958496,learn,52251.999855041504,Mon Feb 24 2025 18:41:43 GMT-0600 (Central Standard Time),512267.7000000179,A,sta,O,a,94,1,566.2000000178814,511701.5,7059,WL,B,5.0
4,7.930000066757202,learn,52069.9999332428,Mon Feb 24 2025 18:41:43 GMT-0600 (Central Standard Time),512450.09999999404,A,star,O,r,171,1,748.5999999940395,511701.5,7059,WL,B,5.0
4,8.314000129699707,learn,51685.99987030029,Mon Feb 24 2025 18:41:43 GMT-0600 (Central Standard Time),512833.8000000119,A,starenter,O,enter,364,1,1132.300000011921,511701.5,7059,WL,B,5.0
4,8.69700002670288,learn,51302.99997329712,Mon Feb 24 2025 18:41:43 GMT-0600 (Central Standard Time),513216.8000000119,A,w,O,w,364,1,382.7000000178814,512834.09999999404,7059,WL,B,6.0
4,8.815999984741211,learn,51184.00001525879,Mon Feb 24 2025 18:41:43 GMT-0600 (Central Standard Time),513336.2000000179,A,wi,O,i,102,1,502.10000002384186,512834.09999999404,7059,WL,B,6.0
4,9.031000137329102,learn,50968.9998626709,Mon Feb 24 2025 18:41:43 GMT-0600 (Central Standard Time),513550.7000000179,A,wif,O,f,198,1,716.6000000238419,512834.09999999404,7059,WL,B,6.0
4,9.164999961853027,learn,50835.00003814697,Mon Feb 24 2025 18:41:43 GMT-0600 (Central Standard Time),513685.3000000119,A,wife,O,e,120,1,851.2000000178814,512834.09999999404,7059,WL,B,6.0
4,9.529000043869019,learn,50470.99995613098,Mon Feb 24 2025 18:41:43 GMT-0600 (Central Standard Time),514048.8000000119,A,wifeenter,O,enter,351,1,1214.7000000178814,512834.09999999404,7059,WL,B,6.0
4,9.96399998664856,learn,50036.00001335144,Mon Feb 24 2025 18:41:43 GMT-0600 (Central Standard Time),514483.7000000179,A,w,O,w,422,1,434.60000002384186,514049.09999999404,7059,WL,B,7.0
4,10.180000066757202,learn,49819.9999332428,Mon Feb 24 2025 18:41:43 GMT-0600 (Central Standard Time),514699.40000000596,A,wi,O,i,202,1,650.3000000119209,514049.09999999404,7059,WL,B,7.0
4,10.330000162124634,learn,49669.999837875366,Mon Feb 24 2025 18:41:43 GMT-0600 (Central Standard Time),514849.90000000596,A,win,O,n,129,1,800.8000000119209,514049.09999999404,7059,WL,B,7.0
4,10.597000122070312,learn,49402.99987792969,Mon Feb 24 2025 18:41:43 GMT-0600 (Central Standard Time),515116.7000000179,A,wind,O,d,253,1,1067.6000000238419,514049.09999999404,7059,WL,B,7.0
4,10.69700002670288,learn,49302.99997329712,Mon Feb 24 2025 18:41:43 GMT-0600 (Central Standard Time),515216.40000000596,A,windo,O,o,91,1,1167.300000011921,514049.09999999404,7059,WL,B,7.0
4,10.84600019454956,learn,49153.99980545044,Mon Feb 24 2025 18:41:43 GMT-0600 (Central Standard Time),515365.7000000179,A,windor,O,r,134,1,1316.6000000238419,514049.09999999404,7059,WL,B,7.0
4,11.062999963760376,learn,48937.000036239624,Mon Feb 24 2025 18:41:43 GMT-0600 (Central Standard Time),515582.5,A,windorenter,O,enter,198,1,1533.4000000059605,514049.09999999404,7059,WL,B,7.0
4,13.463000059127808,learn,46536.99994087219,Mon Feb 24 2025 18:41:43 GMT-0600 (Central Standard Time),517982.40000000596,A,w,O,w,2383,1,2399.699999988079,515582.7000000179,7059,WL,B,8.0
4,13.547000169754028,learn,46452.99983024597,Mon Feb 24 2025 18:41:43 GMT-0600 (Central Standard Time),518067.09999999404,A,wi,O,i,69,1,2484.399999976158,515582.7000000179,7059,WL,B,8.0
4,13.662000179290771,learn,46337.99982070923,Mon Feb 24 2025 18:41:43 GMT-0600 (Central Standard Time),518181.90000000596,A,win,O,n,108,1,2599.199999988079,515582.7000000179,7059,WL,B,8.0
4,13.847000122070312,learn,46152.99987792969,Mon Feb 24 2025 18:41:43 GMT-0600 (Central Standard Time),518366.40000000596,A,wind,O,d,169,1,2783.699999988079,515582.7000000179,7059,WL,B,8.0
4,13.962000131607056,learn,46037.999868392944,Mon Feb 24 2025 18:41:43 GMT-0600 (Central Standard Time),518482.3000000119,A,windo,O,o,93,1,2899.5999999940395,515582.7000000179,7059,WL,B,8.0
4,14.213000059127808,learn,45786.99994087219,Mon Feb 24 2025 18:41:43 GMT-0600 (Central Standard Time),518732.7000000179,A,window,O,w,243,1,3150.0,515582.7000000179,7059,WL,B,8.0
4,14.394999980926514,learn,45605.000019073486,Mon Feb 24 2025 18:41:43 GMT-0600 (Central Standard Time),518914.5,A,windowenter,O,enter,159,1,3331.7999999821186,515582.7000000179,7059,WL,B,8.0
4,15.029000043869019,learn,44970.99995613098,Mon Feb 24 2025 18:41:43 GMT-0600 (Central Standard Time),519549.09999999404,A,c,O,c,621,1,634.3999999761581,518914.7000000179,7059,WL,B,9.0
4,15.129000186920166,learn,44870.999813079834,Mon Feb 24 2025 18:41:43 GMT-0600 (Central Standard Time),519648.59999999404,A,ci,O,i,91,1,733.8999999761581,518914.7000000179,7059,WL,B,9.0
4,15.361999988555908,learn,44638.00001144409,Mon Feb 24 2025 18:41:43 GMT-0600 (Central Standard Time),519882.3000000119,A,cit,O,t,220,1,967.5999999940395,518914.7000000179,7059,WL,B,9.0
4,15.511000156402588,learn,44488.99984359741,Mon Feb 24 2025 18:41:43 GMT-0600 (Central Standard Time),520030.5,A,city,O,y,139,1,1115.7999999821186,518914.7000000179,7059,WL,B,9.0
4,16.361000061035156,learn,43638.999938964844,Mon Feb 24 2025 18:41:43 GMT-0600 (Central Standard Time),520880.7000000179,A,cityenter,O,enter,838,1,1966.0,518914.7000000179,7059,WL,B,9.0
4,17.377000093460083,learn,42622.99990653992,Mon Feb 24 2025 18:41:43 GMT-0600 (Central Standard Time),521897.09999999404,A,u,O,u,997,1,1016.1999999880791,520880.90000000596,7059,WL,B,10.0
4,17.51200008392334,learn,42487.99991607666,Mon Feb 24 2025 18:41:43 GMT-0600 (Central Standard Time),522031.59999999404,A,up,O,p,111,1,1150.699999988079,520880.90000000596,7059,WL,B,10.0
4,17.644999980926514,learn,42355.000019073486,Mon Feb 24 2025 18:41:43 GMT-0600 (Central Standard Time),522164.5,A,upi,O,i,118,1,1283.5999999940395,520880.90000000596,7059,WL,B,10.0
4,18.080000162124634,learn,41919.999837875366,Mon Feb 24 2025 18:41:43 GMT-0600 (Central Standard Time),522599.5,A,up,O,backspace,430,1,1718.5999999940395,520880.90000000596,7059,WL,B,10.0
4,18.230000019073486,learn,41769.999980926514,Mon Feb 24 2025 18:41:43 GMT-0600 (Central Standard Time),522750.0,A,u,O,backspace,145,1,1869.0999999940395,520880.90000000596,7059,WL,B,10.0
4,18.361999988555908,learn,41638.00001144409,Mon Feb 24 2025 18:41:43 GMT-0600 (Central Standard Time),522882.09999999404,A,,O,backspace,120,1,2001.199999988079,520880.90000000596,7059,WL,B,10.0
4,19.27900004386902,learn,40720.99995613098,Mon Feb 24 2025 18:41:43 GMT-0600 (Central Standard Time),523798.40000000596,A,p,O,p,912,1,2917.5,520880.90000000596,7059,WL,B,10.0
4,19.377000093460083,learn,40622.99990653992,Mon Feb 24 2025 18:41:43 GMT-0600 (Central Standard Time),523896.8000000119,A,pu,O,u,86,1,3015.9000000059605,520880.90000000596,7059,WL,B,10.0
4,19.561000108718872,learn,40438.99989128113,Mon Feb 24 2025 18:41:43 GMT-0600 (Central Standard Time),524081.09999999404,A,pup,O,p,173,1,3200.199999988079,520880.90000000596,7059,WL,B,10.0
4,19.66200017929077,learn,40337.99982070923,Mon Feb 24 2025 18:41:43 GMT-0600 (Central Standard Time),524181.40000000596,A,pupi,O,i,95,1,3300.5,520880.90000000596,7059,WL,B,10.0
4,19.92799997329712,learn,40072.00002670288,Mon Feb 24 2025 18:41:43 GMT-0600 (Central Standard Time),524447.900000006,A,pupil,O,l,243,1,3567.0,520880.90000000596,7059,WL,B,10.0
4,20.243000030517578,learn,39756.99996948242,Mon Feb 24 2025 18:41:43 GMT-0600 (Central Standard Time),524762.599999994,A,pupilenter,O,enter,303,1,3881.699999988079,520880.90000000596,7059,WL,B,10.0
4,20.608999967575073,learn,39391.00003242493,Mon Feb 24 2025 18:41:43 GMT-0600 (Central Standard Time),525129.0,A,c,O,c,348,1,366.19999998807907,524762.8000000119,7059,WL,B,11.0
4,20.72699999809265,learn,39273.00000190735,Mon Feb 24 2025 18:41:43 GMT-0600 (Central Standard Time),525246.8000000119,A,ca,O,a,101,1,484.0,524762.8000000119,7059,WL,B,11.0
4,21.759999990463257,learn,38240.00000953674,Mon Feb 24 2025 18:41:43 GMT-0600 (Central Standard Time),526280.2000000179,A,cab,O,b,1015,1,1517.4000000059605,524762.8000000119,7059,WL,B,11.0
4,21.843000173568726,learn,38156.999826431274,Mon Feb 24 2025 18:41:43 GMT-0600 (Central Standard Time),526363.099999994,A,cabi,O,i,67,1,1600.2999999821186,524762.8000000119,7059,WL,B,11.0
4,21.943000078201294,learn,38056.999921798706,Mon Feb 24 2025 18:41:43 GMT-0600 (Central Standard Time),526462.3000000119,A,cabin,O,n,82,1,1699.5,524762.8000000119,7059,WL,B,11.0
4,22.176000118255615,learn,37823.999881744385,Mon Feb 24 2025 18:41:43 GMT-0600 (Central Standard Time),526695.400000006,A,cabinenter,O,enter,211,1,1932.5999999940395,524762.8000000119,7059,WL,B,11.0
4,22.628000020980835,learn,37371.999979019165,Mon Feb 24 2025 18:41:43 GMT-0600 (Central Standard Time),527147.5,A,l,O,l,440,1,451.7999999821186,526695.7000000179,7059,WL,B,12.0
4,22.776000022888184,learn,37223.99997711182,Mon Feb 24 2025 18:41:43 GMT-0600 (Central Standard Time),527295.599999994,A,la,O,a,139,1,599.8999999761581,526695.7000000179,7059,WL,B,12.0
4,23.193000078201294,learn,36806.999921798706,Mon Feb 24 2025 18:41:43 GMT-0600 (Central Standard Time),527712.5,A,lak,O,k,395,1,1016.7999999821186,526695.7000000179,7059,WL,B,12.0
4,23.3270001411438,learn,36672.9998588562,Mon Feb 24 2025 18:41:43 GMT-0600 (Central Standard Time),527847.3000000119,A,lake,O,e,114,1,1151.5999999940395,526695.7000000179,7059,WL,B,12.0
4,23.70900011062622,learn,36290.99988937378,Mon Feb 24 2025 18:41:43 GMT-0600 (Central Standard Time),528228.3000000119,A,lakeenter,O,enter,367,1,1532.5999999940395,526695.7000000179,7059,WL,B,12.0
4,24.343000173568726,learn,35656.999826431274,Mon Feb 24 2025 18:41:43 GMT-0600 (Central Standard Time),528863.0,A,p,O,p,629,1,634.4000000059605,528228.599999994,7059,WL,B,13.0
4,24.443000078201294,learn,35556.999921798706,Mon Feb 24 2025 18:41:43 GMT-0600 (Central Standard Time),528962.400000006,A,pi,O,i,77,1,733.8000000119209,528228.599999994,7059,WL,B,13.0
4,24.592000007629395,learn,35407.999992370605,Mon Feb 24 2025 18:41:43 GMT-0600 (Central Standard Time),529111.599999994,A,pip,O,p,132,1,883.0,528228.599999994,7059,WL,B,13.0
4,24.80900001525879,learn,35190.99998474121,Mon Feb 24 2025 18:41:43 GMT-0600 (Central Standard Time),529328.8000000119,A,pipe,O,e,205,1,1100.2000000178814,528228.599999994,7059,WL,B,13.0
4,25.39300012588501,learn,34606.99987411499,Mon Feb 24 2025 18:41:43 GMT-0600 (Central Standard Time),529912.3000000119,A,pipeenter,O,enter,563,1,1683.7000000178814,528228.599999994,7059,WL,B,13.0
4,26.243000030517578,learn,33756.99996948242,Mon Feb 24 2025 18:41:43 GMT-0600 (Central Standard Time),530762.3000000119,A,s,O,s,831,1,849.7000000178814,529912.599999994,7059,WL,B,14.0
4,26.35800004005432,learn,33641.99995994568,Mon Feb 24 2025 18:41:43 GMT-0600 (Central Standard Time),530877.599999994,A,sk,O,k,109,1,965.0,529912.599999994,7059,WL,B,14.0
4,26.493000030517578,learn,33506.99996948242,Mon Feb 24 2025 18:41:43 GMT-0600 (Central Standard Time),531012.3000000119,A,ski,O,i,125,1,1099.7000000178814,529912.599999994,7059,WL,B,14.0
4,26.858999967575073,learn,33141.00003242493,Mon Feb 24 2025 18:41:43 GMT-0600 (Central Standard Time),531379.2000000179,A,skin,O,n,345,1,1466.6000000238419,529912.599999994,7059,WL,B,14.0
4,27.54200005531311,learn,32457.99994468689,Mon Feb 24 2025 18:41:43 GMT-0600 (Central Standard Time),532061.3000000119,A,skinenter,O,enter,660,1,2148.7000000178814,529912.599999994,7059,WL,B,14.0
4,28.657000064849854,learn,31342.999935150146,Mon Feb 24 2025 18:41:43 GMT-0600 (Central Standard Time),533176.8000000119,A,f,O,f,1105,1,1115.2000000178814,532061.599999994,7059,WL,B,15.0
4,28.756999969482422,learn,31243.000030517578,Mon Feb 24 2025 18:41:43 GMT-0600 (Central Standard Time),533277.099999994,A,fi,O,i,95,1,1215.5,532061.599999994,7059,WL,B,15.0
4,29.006999969482422,learn,30993.000030517578,Mon Feb 24 2025 18:41:43 GMT-0600 (Central Standard Time),533527.2000000179,A,fir,O,r,244,1,1465.6000000238419,532061.599999994,7059,WL,B,15.0
4,29.125,learn,30875.0,Mon Feb 24 2025 18:41:43 GMT-0600 (Central Standard Time),533644.900000006,A,fire,O,e,112,1,1583.300000011921,532061.599999994,7059,WL,B,15.0
4,30.342000007629395,learn,29657.999992370605,Mon Feb 24 2025 18:41:43 GMT-0600 (Central Standard Time),534861.599999994,A,fireenter,O,enter,1195,1,2800.0,532061.599999994,7059,WL,B,15.0
5,0.7179999351501465,learn,60000.0,Mon Feb 24 2025 18:41:43 GMT-0600 (Central Standard Time),604622.400000006,A,s,O,s,712,1,718.1999999880791,603904.2000000179,7059,WL,B,1.0
5,1.000999927520752,learn,60000.0,Mon Feb 24 2025 18:41:43 GMT-0600 (Central Standard Time),604904.599999994,A,st,O,t,263,1,1000.3999999761581,603904.2000000179,7059,WL,B,1.0
5,1.116999864578247,learn,60000.0,Mon Feb 24 2025 18:41:43 GMT-0600 (Central Standard Time),605021.3000000119,A,str,O,r,101,1,1117.0999999940395,603904.2000000179,7059,WL,B,1.0
5,1.2170000076293945,learn,60000.0,Mon Feb 24 2025 18:41:43 GMT-0600 (Central Standard Time),605120.900000006,A,stre,O,e,81,1,1216.699999988079,603904.2000000179,7059,WL,B,1.0
5,1.566999912261963,learn,60000.0,Mon Feb 24 2025 18:41:43 GMT-0600 (Central Standard Time),605471.3000000119,A,stret,O,t,331,1,1567.0999999940395,603904.2000000179,7059,WL,B,1.0
5,1.9170000553131104,learn,60000.0,Mon Feb 24 2025 18:41:43 GMT-0600 (Central Standard Time),605821.099999994,A,stre,O,backspace,334,1,1916.8999999761581,603904.2000000179,7059,WL,B,1.0
5,2.0,learn,60000.0,Mon Feb 24 2025 18:41:43 GMT-0600 (Central Standard Time),605904.2000000179,A,stree,O,e,65,1,2000.0,603904.2000000179,7059,WL,B,1.0
5,2.1510000228881836,learn,60000.0,Mon Feb 24 2025 18:41:43 GMT-0600 (Central Standard Time),606054.8000000119,A,street,O,t,144,1,2150.5999999940395,603904.2000000179,7059,WL,B,1.0
5,2.883999824523926,learn,60000.0,Mon Feb 24 2025 18:41:43 GMT-0600 (Central Standard Time),606787.8000000119,A,streetenter,O,enter,727,1,2883.5999999940395,603904.2000000179,7059,WL,B,1.0
5,3.3989999294281006,learn,60000.0,Mon Feb 24 2025 18:41:43 GMT-0600 (Central Standard Time),607303.099999994,A,g,O,g,506,1,515.0,606788.099999994,7059,WL,B,2.0
5,3.5490000247955322,learn,60000.0,Mon Feb 24 2025 18:41:43 GMT-0600 (Central Standard Time),607453.599999994,A,gr,O,r,134,1,665.5,606788.099999994,7059,WL,B,2.0
5,3.684000015258789,learn,60000.0,Mon Feb 24 2025 18:41:43 GMT-0600 (Central Standard Time),607587.8000000119,A,gra,O,a,111,1,799.7000000178814,606788.099999994,7059,WL,B,2.0
5,4.415999889373779,learn,60000.0,Mon Feb 24 2025 18:41:43 GMT-0600 (Central Standard Time),608320.400000006,A,gras,O,s,714,1,1532.300000011921,606788.099999994,7059,WL,B,2.0
5,4.565999984741211,learn,60000.0,Mon Feb 24 2025 18:41:43 GMT-0600 (Central Standard Time),608470.5,A,grass,O,s,142,1,1682.4000000059605,606788.099999994,7059,WL,B,2.0
5,4.764999866485596,learn,60000.0,Mon Feb 24 2025 18:41:43 GMT-0600 (Central Standard Time),608669.3000000119,A,grassenter,O,enter,181,1,1881.2000000178814,606788.099999994,7059,WL,B,2.0
5,5.2159998416900635,learn,60000.0,Mon Feb 24 2025 18:41:43 GMT-0600 (Central Standard Time),609120.0,A,d,O,d,441,1,450.40000000596046,608669.599999994,7059,WL,B,3.0
5,5.516000032424927,learn,60000.0,Mon Feb 24 2025 18:41:43 GMT-0600 (Central Standard Time),609420.400000006,A,do,O,o,284,1,750.8000000119209,608669.599999994,7059,WL,B,3.0
5,5.664000034332275,learn,60000.0,Mon Feb 24 2025 18:41:43 GMT-0600 (Central Standard Time),609568.099999994,A,doo,O,o,129,1,898.5,608669.599999994,7059,WL,B,3.0
5,5.832000017166138,learn,60000.0,Mon Feb 24 2025 18:41:43 GMT-0600 (Central Standard Time),609736.0,A,door,O,r,156,1,1066.4000000059605,608669.599999994,7059,WL,B,3.0
5,6.748999834060669,learn,60000.0,Mon Feb 24 2025 18:41:43 GMT-0600 (Central Standard Time),610652.8000000119,A,doorenter,O,enter,910,1,1983.2000000178814,608669.599999994,7059,WL,B,3.0
5,7.08299994468689,learn,60000.0,Mon Feb 24 2025 18:41:43 GMT-0600 (Central Standard Time),610986.8000000119,A,a,O,a,313,1,333.80000001192093,610653.0,7059,WL,B,4.0
5,7.2149999141693115,learn,60000.0,Mon Feb 24 2025 18:41:43 GMT-0600 (Central Standard Time),611118.7000000179,A,ar,O,r,125,1,465.7000000178814,610653.0,7059,WL,B,4.0
5,8.365000009536743,learn,60000.0,Mon Feb 24 2025 18:41:43 GMT-0600 (Central Standard Time),612269.3000000119,A,arm,O,m,1146,1,1616.300000011921,610653.0,7059,WL,B,4.0
5,8.967000007629395,learn,60000.0,Mon Feb 24 2025 18:41:43 GMT-0600 (Central Standard Time),612871.5,A,armenter,O,enter,592,1,2218.5,610653.0,7059,WL,B,4.0
5,9.430999994277954,learn,60000.0,Mon Feb 24 2025 18:41:43 GMT-0600 (Central Standard Time),613335.099999994,A,s,O,s,447,1,463.09999999403954,612872.0,7059,WL,B,5.0
5,9.898000001907349,learn,60000.0,Mon Feb 24 2025 18:41:43 GMT-0600 (Central Standard Time),613802.099999994,A,st,O,t,456,1,930.0999999940395,612872.0,7059,WL,B,5.0
5,9.996999979019165,learn,60000.0,Mon Feb 24 2025 18:41:43 GMT-0600 (Central Standard Time),613901.400000006,A,sta,O,a,85,1,1029.4000000059605,612872.0,7059,WL,B,5.0
5,10.113999843597412,learn,60000.0,Mon Feb 24 2025 18:41:43 GMT-0600 (Central Standard Time),614018.099999994,A,star,O,r,104,1,1146.0999999940395,612872.0,7059,WL,B,5.0
5,10.44700002670288,learn,60000.0,Mon Feb 24 2025 18:41:43 GMT-0600 (Central Standard Time),614351.0,A,starenter,O,enter,316,1,1479.0,612872.0,7059,WL,B,5.0
5,10.881999969482422,learn,60000.0,Mon Feb 24 2025 18:41:43 GMT-0600 (Central Standard Time),614785.599999994,A,w,O,w,424,1,434.5,614351.099999994,7059,WL,B,6.0
5,10.980000019073486,learn,60000.0,Mon Feb 24 2025 18:41:43 GMT-0600 (Central Standard Time),614884.099999994,A,wi,O,i,85,1,533.0,614351.099999994,7059,WL,B,6.0
5,11.315000057220459,learn,60000.0,Mon Feb 24 2025 18:41:43 GMT-0600 (Central Standard Time),615218.8000000119,A,wif,O,f,322,1,867.7000000178814,614351.099999994,7059,WL,B,6.0
5,11.46399998664856,learn,60000.0,Mon Feb 24 2025 18:41:43 GMT-0600 (Central Standard Time),615368.099999994,A,wife,O,e,130,1,1017.0,614351.099999994,7059,WL,B,6.0
5,11.730000019073486,learn,60000.0,Mon Feb 24 2025 18:41:43 GMT-0600 (Central Standard Time),615634.0,A,wifeenter,O,enter,252,1,1282.9000000059605,614351.099999994,7059,WL,B,6.0
5,12.046000003814697,learn,60000.0,Mon Feb 24 2025 18:41:43 GMT-0600 (Central Standard Time),615950.3000000119,A,w,O,w,311,1,316.09999999403954,615634.2000000179,7059,WL,B,7.0
5,12.148000001907349,learn,60000.0,Mon Feb 24 2025 18:41:43 GMT-0600 (Central Standard Time),616051.8000000119,A,wi,O,i,79,1,417.59999999403954,615634.2000000179,7059,WL,B,7.0
5,12.263999938964844,learn,60000.0,Mon Feb 24 2025 18:41:43 GMT-0600 (Central Standard Time),616168.400000006,A,win,O,n,98,1,534.1999999880791,615634.2000000179,7059,WL,B,7.0
5,12.3989999294281,learn,60000.0,Mon Feb 24 2025 18:41:43 GMT-0600 (Central Standard Time),616302.599999994,A,wind,O,d,128,1,668.3999999761581,615634.2000000179,7059,WL,B,7.0
5,12.563999891281128,learn,60000.0,Mon Feb 24 2025 18:41:43 GMT-0600 (Central Standard Time),616468.0,A,windo,O,o,143,1,833.7999999821186,615634.2000000179,7059,WL,B,7.0
5,12.730000019073486,learn,60000.0,Mon Feb 24 2025 18:41:43 GMT-0600 (Central Standard Time),616633.599999994,A,windor,O,r,153,1,999.3999999761581,615634.2000000179,7059,WL,B,7.0
5,13.19599986076355,learn,60000.0,Mon Feb 24 2025 18:41:43 GMT-0600 (Central Standard Time),617100.0,A,windo,O,backspace,453,1,1465.7999999821186,615634.2000000179,7059,WL,B,7.0
5,13.363999843597412,learn,60000.0,Mon Feb 24 2025 18:41:43 GMT-0600 (Central Standard Time),617268.0,A,window,O,w,162,1,1633.7999999821186,615634.2000000179,7059,WL,B,7.0
5,13.645999908447266,learn,60000.0,Mon Feb 24 2025 18:41:43 GMT-0600 (Central Standard Time),617550.400000006,A,windowenter,O,enter,260,1,1916.199999988079,615634.2000000179,7059,WL,B,7.0
5,14.044999837875366,learn,60000.0,Mon Feb 24 2025 18:41:43 GMT-0600 (Central Standard Time),617949.2000000179,A,c,O,c,384,1,398.5,617550.7000000179,7059,WL,B,8.0
5,14.162999868392944,learn,60000.0,Mon Feb 24 2025 18:41:43 GMT-0600 (Central Standard Time),618068.0,A,ci,O,i,107,1,517.2999999821186,617550.7000000179,7059,WL,B,8.0
5,14.395999908447266,learn,60000.0,Mon Feb 24 2025 18:41:43 GMT-0600 (Central Standard Time),618299.8000000119,A,cit,O,t,208,1,749.0999999940395,617550.7000000179,7059,WL,B,8.0
5,14.478999853134155,learn,60000.0,Mon Feb 24 2025 18:41:43 GMT-0600 (Central Standard Time),618383.3000000119,A,city,O,y,75,1,832.5999999940395,617550.7000000179,7059,WL,B,8.0
5,14.828999996185303,learn,60000.0,Mon Feb 24 2025 18:41:43 GMT-0600 (Central Standard Time),618733.2000000179,A,cityenter,O,enter,334,1,1182.5,617550.7000000179,7059,WL,B,8.0
5,15.29699993133545,learn,60000.0,Mon Feb 24 2025 18:41:43 GMT-0600 (Central Standard Time),619200.8000000119,A,p,O,p,448,1,467.30000001192093,618733.5,7059,WL,B,9.0
5,15.379999876022339,learn,60000.0,Mon Feb 24 2025 18:41:43 GMT-0600 (Central Standard Time),619284.099999994,A,pu,O,u,68,1,550.5999999940395,618733.5,7059,WL,B,9.0
5,15.52999997138977,learn,60000.0,Mon Feb 24 2025 18:41:43 GMT-0600 (Central Standard Time),619433.7000000179,A,pup,O,p,132,1,700.2000000178814,618733.5,7059,WL,B,9.0
5,15.661999940872192,learn,60000.0,Mon Feb 24 2025 18:41:43 GMT-0600 (Central Standard Time),619566.0,A,pupi,O,i,120,1,832.5,618733.5,7059,WL,B,9.0
5,15.980999946594238,learn,60000.0,Mon Feb 24 2025 18:41:43 GMT-0600 (Central Standard Time),619885.0,A,pupil,O,l,308,1,1151.5,618733.5,7059,WL,B,9.0
5,16.27900004386902,learn,60000.0,Mon Feb 24 2025 18:41:43 GMT-0600 (Central Standard Time),620183.3000000119,A,pupilenter,O,enter,285,1,1449.800000011921,618733.5,7059,WL,B,9.0
5,17.162999868392944,learn,60000.0,Mon Feb 24 2025 18:41:43 GMT-0600 (Central Standard Time),621066.599999994,A,c,O,c,863,1,883.0,620183.599999994,7059,WL,B,10.0
5,17.246999979019165,learn,60000.0,Mon Feb 24 2025 18:41:43 GMT-0600 (Central Standard Time),621150.7000000179,A,ca,O,a,70,1,967.1000000238419,620183.599999994,7059,WL,B,10.0
5,17.562000036239624,learn,60000.0,Mon Feb 24 2025 18:41:43 GMT-0600 (Central Standard Time),621466.400000006,A,cab,O,b,304,1,1282.800000011921,620183.599999994,7059,WL,B,10.0
5,17.62999987602234,learn,60000.0,Mon Feb 24 2025 18:41:43 GMT-0600 (Central Standard Time),621533.900000006,A,cabi,O,i,59,1,1350.300000011921,620183.599999994,7059,WL,B,10.0
5,17.727999925613403,learn,60000.0,Mon Feb 24 2025 18:41:43 GMT-0600 (Central Standard Time),621632.0,A,cabin,O,n,85,1,1448.4000000059605,620183.599999994,7059,WL,B,10.0
5,17.961999893188477,learn,60000.0,Mon Feb 24 2025 18:41:43 GMT-0600 (Central Standard Time),621866.099999994,A,cabinenter,O,enter,214,1,1682.5,620183.599999994,7059,WL,B,10.0
5,18.328999996185303,learn,60000.0,Mon Feb 24 2025 18:41:43 GMT-0600 (Central Standard Time),622232.599999994,A,l,O,l,349,1,366.2999999821186,621866.3000000119,7059,WL,B,11.0
5,18.44700002670288,learn,60000.0,Mon Feb 24 2025 18:41:43 GMT-0600 (Central Standard Time),622350.8000000119,A,la,O,a,110,1,484.5,621866.3000000119,7059,WL,B,11.0
5,18.61299991607666,learn,60000.0,Mon Feb 24 2025 18:41:43 GMT-0600 (Central Standard Time),622516.5,A,lak,O,k,157,1,650.1999999880791,621866.3000000119,7059,WL,B,11.0
5,18.77900004386902,learn,60000.0,Mon Feb 24 2025 18:41:43 GMT-0600 (Central Standard Time),622682.8000000119,A,lake,O,e,152,1,816.5,621866.3000000119,7059,WL,B,11.0
5,19.210999965667725,learn,60000.0,Mon Feb 24 2025 18:41:43 GMT-0600 (Central Standard Time),623115.0,A,lakeenter,O,enter,410,1,1248.699999988079,621866.3000000119,7059,WL,B,11.0
5,19.77999997138977,learn,60000.0,Mon Feb 24 2025 18:41:43 GMT-0600 (Central Standard Time),623683.8000000119,A,p,O,p,556,1,568.5,623115.3000000119,7059,WL,B,12.0
5,19.980000019073486,learn,60000.0,Mon Feb 24 2025 18:41:43 GMT-0600 (Central Standard Time),623884.2000000179,A,pi,O,i,184,1,768.9000000059605,623115.3000000119,7059,WL,B,12.0
5,20.111000061035156,learn,60000.0,Mon Feb 24 2025 18:41:43 GMT-0600 (Central Standard Time),624015.3000000119,A,pip,O,p,113,1,900.0,623115.3000000119,7059,WL,B,12.0
5,20.64400005340576,learn,60000.0,Mon Feb 24 2025 18:41:43 GMT-0600 (Central Standard Time),624548.3000000119,A,pipe,O,e,512,1,1433.0,623115.3000000119,7059,WL,B,12.0
5,20.894999980926514,learn,60000.0,Mon Feb 24 2025 18:41:43 GMT-0600 (Central Standard Time),624798.599999994,A,pipeenter,O,enter,229,1,1683.2999999821186,623115.3000000119,7059,WL,B,12.0
5,21.17799997329712,learn,60000.0,Mon Feb 24 2025 18:41:43 GMT-0600 (Central Standard Time),625082.3000000119,A,s,O,s,273,1,283.40000000596046,624798.900000006,7059,WL,B,13.0
5,21.461999893188477,learn,60000.0,Mon Feb 24 2025 18:41:43 GMT-0600 (Central Standard Time),625366.400000006,A,sk,O,k,271,1,567.5,624798.900000006,7059,WL,B,13.0
5,21.661999940872192,learn,60000.0,Mon Feb 24 2025 18:41:43 GMT-0600 (Central Standard Time),625565.900000006,A,ski,O,i,192,1,767.0,624798.900000006,7059,WL,B,13.0
5,21.8439998626709,learn,60000.0,Mon Feb 24 2025 18:41:43 GMT-0600 (Central Standard Time),625748.5,A,skin,O,n,175,1,949.5999999940395,624798.900000006,7059,WL,B,13.0
5,22.259999990463257,learn,60000.0,Mon Feb 24 2025 18:41:43 GMT-0600 (Central Standard Time),626164.3000000119,A,skinenter,O,enter,410,1,1365.4000000059605,624798.900000006,7059,WL,B,13.0
5,22.977999925613403,learn,60000.0,Mon Feb 24 2025 18:41:43 GMT-0600 (Central Standard Time),626881.5,A,f,O,f,706,1,716.6999999880791,626164.8000000119,7059,WL,B,14.0
5,23.092999935150146,learn,60000.0,Mon Feb 24 2025 18:41:43 GMT-0600 (Central Standard Time),626997.400000006,A,fi,O,i,92,1,832.5999999940395,626164.8000000119,7059,WL,B,14.0
5,23.39299988746643,learn,60000.0,Mon Feb 24 2025 18:41:43 GMT-0600 (Central Standard Time),627297.400000006,A,fir,O,r,279,1,1132.5999999940395,626164.8000000119,7059,WL,B,14.0
5,23.509999990463257,learn,60000.0,Mon Feb 24 2025 18:41:43 GMT-0600 (Central Standard Time),627413.599999994,A,fire,O,e,89,1,1248.7999999821186,626164.8000000119,7059,WL,B,14.0
5,24.55999994277954,learn,60000.0,Mon Feb 24 2025 18:41:43 GMT-0600 (Central Standard Time),628463.7000000179,A,fireenter,O,enter,1026,1,2298.9000000059605,626164.8000000119,7059,WL,B,14.0
5,27.177000045776367,learn,60000.0,Mon Feb 24 2025 18:41:43 GMT-0600 (Central Standard Time),631081.3000000119,A,c,O,c,2599,1,2617.4000000059605,628463.900000006,7059,WL,B,15.0
5,27.29200005531311,learn,60000.0,Mon Feb 24 2025 18:41:43 GMT-0600 (Central Standard Time),631196.2000000179,A,cl,O,l,96,1,2732.300000011921,628463.900000006,7059,WL,B,15.0
5,27.441999912261963,learn,60000.0,Mon Feb 24 2025 18:41:43 GMT-0600 (Central Standard Time),631346.3000000119,A,clo,O,o,129,1,2882.4000000059605,628463.900000006,7059,WL,B,15.0
5,27.692999839782715,learn,60000.0,Mon Feb 24 2025 18:41:43 GMT-0600 (Central Standard Time),631597.3000000119,A,cloc,O,c,233,1,3133.4000000059605,628463.900000006,7059,WL,B,15.0
5,27.825999975204468,learn,60000.0,Mon Feb 24 2025 18:41:43 GMT-0600 (Central Standard Time),631729.7000000179,A,clock,O,k,116,1,3265.800000011921,628463.900000006,7059,WL,B,15.0
5,29.14199995994568,learn,60000.0,Mon Feb 24 2025 18:41:43 GMT-0600 (Central Standard Time),633045.5,A,clockenter,O,enter,1307,1,4581.5999999940395,628463.900000006,7059,WL,B,15.0
6,1.7190001010894775,distr,58280.99989891052,Mon Feb 24 2025 18:41:43 GMT-0600 (Central Standard Time),704924.599999994,B,b,O,b,1712,1,1718.5999999940395,703206.0,7059,WL,B,1.0
6,1.8670001029968262,distr,58132.999897003174,Mon Feb 24 2025 18:41:43 GMT-0600 (Central Standard Time),705072.400000006,B,ba,O,a,129,1,1866.4000000059605,703206.0,7059,WL,B,1.0
6,1.9830000400543213,distr,58016.99995994568,Mon Feb 24 2025 18:41:43 GMT-0600 (Central Standard Time),705188.599999994,B,bab,O,b,100,1,1982.5999999940395,703206.0,7059,WL,B,1.0
6,2.299999952316284,distr,57700.000047683716,Mon Feb 24 2025 18:41:43 GMT-0600 (Central Standard Time),705506.0,B,baby,O,y,305,1,2300.0,703206.0,7059,WL,B,1.0
6,2.7009999752044678,distr,57299.00002479553,Mon Feb 24 2025 18:41:43 GMT-0600 (Central Standard Time),705906.3000000119,B,babyenter,O,enter,379,1,2700.300000011921,703206.0,7059,WL,B,1.0
6,3.3350000381469727,distr,56664.99996185303,Mon Feb 24 2025 18:41:43 GMT-0600 (Central Standard Time),706540.7000000179,B,o,O,o,629,1,634.3000000119209,705906.400000006,7059,WL,B,2.0
6,3.450000047683716,distr,56549.999952316284,Mon Feb 24 2025 18:41:43 GMT-0600 (Central Standard Time),706655.900000006,B,oc,O,c,97,1,749.5,705906.400000006,7059,WL,B,2.0
6,3.683000087738037,distr,56316.99991226196,Mon Feb 24 2025 18:41:43 GMT-0600 (Central Standard Time),706888.2000000179,B,oce,O,e,221,1,981.8000000119209,705906.400000006,7059,WL,B,2.0
6,3.884000062942505,distr,56115.999937057495,Mon Feb 24 2025 18:41:43 GMT-0600 (Central Standard Time),707089.3000000119,B,ocea,O,a,183,1,1182.9000000059605,705906.400000006,7059,WL,B,2.0
6,4.183000087738037,distr,55816.99991226196,Mon Feb 24 2025 18:41:43 GMT-0600 (Central Standard Time),707388.8000000119,B,oceaenter,O,enter,294,1,1482.4000000059605,705906.400000006,7059,WL,B,2.0
6,5.64900016784668,distr,54350.99983215332,Mon Feb 24 2025 18:41:43 GMT-0600 (Central Standard Time),708854.400000006,B,d,O,d,1458,1,1465.4000000059605,707389.0,7059,WL,B,3.0
6,5.900000095367432,distr,54099.99990463257,Mon Feb 24 2025 18:41:43 GMT-0600 (Central Standard Time),709105.400000006,B,dr,O,r,230,1,1716.4000000059605,707389.0,7059,WL,B,3.0
6,5.983000040054321,distr,54016.99995994568,Mon Feb 24 2025 18:41:43 GMT-0600 (Central Standard Time),709188.3000000119,B,dre,O,e,59,1,1799.300000011921,707389.0,7059,WL,B,3.0
6,6.348999977111816,distr,53651.00002288818,Mon Feb 24 2025 18:41:43 GMT-0600 (Central Standard Time),709554.599999994,B,dres,O,s,353,1,2165.5999999940395,707389.0,7059,WL,B,3.0
6,6.516999959945679,distr,53483.00004005432,Mon Feb 24 2025 18:41:43 GMT-0600 (Central Standard Time),709722.2000000179,B,dress,O,s,156,1,2333.2000000178814,707389.0,7059,WL,B,3.0
6,6.648000001907349,distr,53351.99999809265,Mon Feb 24 2025 18:41:43 GMT-0600 (Central Standard Time),709853.5,B,dressenter,O,enter,125,1,2464.5,707389.0,7059,WL,B,3.0
6,7.281000137329102,distr,52718.9998626709,Mon Feb 24 2025 18:41:43 GMT-0600 (Central Standard Time),710486.7000000179,B,b,O,b,617,1,632.9000000059605,709853.8000000119,7059,WL,B,4.0
6,7.381999969482422,distr,52618.00003051758,Mon Feb 24 2025 18:41:43 GMT-0600 (Central Standard Time),710587.8000000119,B,ba,O,a,86,1,734.0,709853.8000000119,7059,WL,B,4.0
6,7.581000089645386,distr,52418.999910354614,Mon Feb 24 2025 18:41:43 GMT-0600 (Central Standard Time),710786.3000000119,B,bar,O,r,177,1,932.5,709853.8000000119,7059,WL,B,4.0
6,7.883000135421753,distr,52116.99986457825,Mon Feb 24 2025 18:41:43 GMT-0600 (Central Standard Time),711088.2000000179,B,barenter,O,enter,293,1,1234.4000000059605,709853.8000000119,7059,WL,B,4.0
6,8.930999994277954,distr,51069.000005722046,Mon Feb 24 2025 18:41:43 GMT-0600 (Central Standard Time),712137.099999994,B,s,O,s,1030,1,1048.5999999940395,711088.5,7059,WL,B,5.0
6,9.14900016784668,distr,50850.99983215332,Mon Feb 24 2025 18:41:43 GMT-0600 (Central Standard Time),712354.3000000119,B,st,O,t,197,1,1265.800000011921,711088.5,7059,WL,B,5.0
6,9.23200011253357,distr,50767.99988746643,Mon Feb 24 2025 18:41:43 GMT-0600 (Central Standard Time),712438.0,B,ste,O,e,78,1,1349.5,711088.5,7059,WL,B,5.0
6,9.48200011253357,distr,50517.99988746643,Mon Feb 24 2025 18:41:43 GMT-0600 (Central Standard Time),712687.599999994,B,stea,O,a,232,1,1599.0999999940395,711088.5,7059,WL,B,5.0
6,9.664999961853027,distr,50335.00003814697,Mon Feb 24 2025 18:41:43 GMT-0600 (Central Standard Time),712870.099999994,B,steam,O,m,168,1,1781.5999999940395,711088.5,7059,WL,B,5.0
6,9.967000007629395,distr,50032.999992370605,Mon Feb 24 2025 18:41:43 GMT-0600 (Central Standard Time),713172.5,B,steamenter,O,enter,296,1,2084.0,711088.5,7059,WL,B,5.0
6,10.397000074386597,distr,49602.9999256134,Mon Feb 24 2025 18:41:43 GMT-0600 (Central Standard Time),713602.8000000119,B,c,O,c,419,1,430.2000000178814,713172.599999994,7059,WL,B,6.0
6,10.514000177383423,distr,49485.99982261658,Mon Feb 24 2025 18:41:43 GMT-0600 (Central Standard Time),713719.3000000119,B,co,O,o,108,1,546.7000000178814,713172.599999994,7059,WL,B,6.0
6,10.614000082015991,distr,49385.99991798401,Mon Feb 24 2025 18:41:43 GMT-0600 (Central Standard Time),713819.8000000119,B,coi,O,i,87,1,647.2000000178814,713172.599999994,7059,WL,B,6.0
6,10.88100004196167,distr,49118.99995803833,Mon Feb 24 2025 18:41:43 GMT-0600 (Central Standard Time),714087.0,B,coin,O,n,250,1,914.4000000059605,713172.599999994,7059,WL,B,6.0
6,11.547000169754028,distr,48452.99983024597,Mon Feb 24 2025 18:41:43 GMT-0600 (Central Standard Time),714752.2000000179,B,coinenter,O,enter,647,1,1579.6000000238419,713172.599999994,7059,WL,B,6.0
6,14.02999997138977,distr,45970.00002861023,Mon Feb 24 2025 18:41:43 GMT-0600 (Central Standard Time),717236.099999994,B,f,O,f,2463,1,2483.699999988079,714752.400000006,7059,WL,B,7.0
6,14.361999988555908,distr,45638.00001144409,Mon Feb 24 2025 18:41:43 GMT-0600 (Central Standard Time),717568.5,B,fr,O,r,313,1,2816.0999999940395,714752.400000006,7059,WL,B,7.0
6,14.42900013923645,distr,45570.99986076355,Mon Feb 24 2025 18:41:43 GMT-0600 (Central Standard Time),717635.2000000179,B,fri,O,i,53,1,2882.800000011921,714752.400000006,7059,WL,B,7.0
6,14.59500002861023,distr,45404.99997138977,Mon Feb 24 2025 18:41:43 GMT-0600 (Central Standard Time),717801.599999994,B,frie,O,e,153,1,3049.199999988079,714752.400000006,7059,WL,B,7.0
6,14.67900013923645,distr,45320.99986076355,Mon Feb 24 2025 18:41:43 GMT-0600 (Central Standard Time),717885.3000000119,B,frien,O,n,60,1,3132.9000000059605,714752.400000006,7059,WL,B,7.0
6,14.830000162124634,distr,45169.999837875366,Mon Feb 24 2025 18:41:43 GMT-0600 (Central Standard Time),718036.2000000179,B,friend,O,d,143,1,3283.800000011921,714752.400000006,7059,WL,B,7.0
6,14.995000123977661,distr,45004.99987602234,Mon Feb 24 2025 18:41:43 GMT-0600 (Central Standard Time),718200.8000000119,B,friendenter,O,enter,154,1,3448.4000000059605,714752.400000006,7059,WL,B,7.0
6,17.878000020980835,distr,42121.999979019165,Mon Feb 24 2025 18:41:43 GMT-0600 (Central Standard Time),721084.400000006,B,a,O,a,2870,1,2883.4000000059605,718201.0,7059,WL,B,8.0
6,18.062000036239624,distr,41937.999963760376,Mon Feb 24 2025 18:41:43 GMT-0600 (Central Standard Time),721268.2000000179,B,ar,O,r,169,1,3067.2000000178814,718201.0,7059,WL,B,8.0
6,18.228000164031982,distr,41771.99983596802,Mon Feb 24 2025 18:41:43 GMT-0600 (Central Standard Time),721434.2000000179,B,arm,O,m,147,1,3233.2000000178814,718201.0,7059,WL,B,8.0
6,18.394999980926514,distr,41605.000019073486,Mon Feb 24 2025 18:41:43 GMT-0600 (Central Standard Time),721600.8000000119,B,army,O,y,155,1,3399.800000011921,718201.0,7059,WL,B,8.0
6,18.5770001411438,distr,41422.9998588562,Mon Feb 24 2025 18:41:43 GMT-0600 (Central Standard Time),721783.099999994,B,armyenter,O,enter,173,1,3582.0999999940395,718201.0,7059,WL,B,8.0
6,23.47699999809265,distr,36523.00000190735,Mon Feb 24 2025 18:41:43 GMT-0600 (Central Standard Time),726682.8000000119,B,enter,O,enter,4879,1,4899.5,721783.3000000119,7059,WL,B,9.0
6,60.01600003242493,distr,-16.000032424926758,Mon Feb 24 2025 18:41:43 GMT-0600 (Central Standard Time),763222.5,B,None,O,None,36534,1,36539.40000000596,726683.099999994,7059,WL,B,10.0
7,1.5139999389648438,immed,58486.000061035156,Mon Feb 24 2025 18:41:43 GMT-0600 (Central Standard Time),774384.099999994,A,s,O,s,1504,1,1513.3999999761581,772870.7000000179,7059,WL,B,1.0
7,1.8320000171661377,immed,58167.99998283386,Mon Feb 24 2025 18:41:43 GMT-0600 (Central Standard Time),774702.400000006,A,st,O,t,312,1,1831.699999988079,772870.7000000179,7059,WL,B,1.0
7,1.9809999465942383,immed,58019.00005340576,Mon Feb 24 2025 18:41:43 GMT-0600 (Central Standard Time),774851.0,A,str,O,r,136,1,1980.2999999821186,772870.7000000179,7059,WL,B,1.0
7,2.0810000896453857,immed,57918.999910354614,Mon Feb 24 2025 18:41:43 GMT-0600 (Central Standard Time),774951.099999994,A,stre,O,e,95,1,2080.399999976158,772870.7000000179,7059,WL,B,1.0
7,2.430000066757202,immed,57569.9999332428,Mon Feb 24 2025 18:41:43 GMT-0600 (Central Standard Time),775300.5,A,stree,O,e,335,1,2429.7999999821186,772870.7000000179,7059,WL,B,1.0
7,2.63100004196167,immed,57368.99995803833,Mon Feb 24 2025 18:41:43 GMT-0600 (Central Standard Time),775500.7000000179,A,street,O,t,187,1,2630.0,772870.7000000179,7059,WL,B,1.0
7,3.630000114440918,immed,56369.99988555908,Mon Feb 24 2025 18:41:43 GMT-0600 (Central Standard Time),776500.400000006,A,streetenter,O,enter,987,1,3629.699999988079,772870.7000000179,7059,WL,B,1.0
7,4.062000036239624,immed,55937.999963760376,Mon Feb 24 2025 18:41:43 GMT-0600 (Central Standard Time),776933.0,A,g,O,g,427,1,432.40000000596046,776500.599999994,7059,WL,B,2.0
7,4.196000099182129,immed,55803.99990081787,Mon Feb 24 2025 18:41:43 GMT-0600 (Central Standard Time),777066.900000006,A,gr,O,r,111,1,566.3000000119209,776500.599999994,7059,WL,B,2.0
7,4.312999963760376,immed,55687.000036239624,Mon Feb 24 2025 18:41:43 GMT-0600 (Central Standard Time),777183.400000006,A,gra,O,a,100,1,682.8000000119209,776500.599999994,7059,WL,B,2.0
7,4.814000129699707,immed,55185.99987030029,Mon Feb 24 2025 18:41:43 GMT-0600 (Central Standard Time),777684.5,A,gras,O,s,487,1,1183.9000000059605,776500.599999994,7059,WL,B,2.0
7,4.979000091552734,immed,55020.999908447266,Mon Feb 24 2025 18:41:43 GMT-0600 (Central Standard Time),777849.599999994,A,grass,O,s,147,1,1349.0,776500.599999994,7059,WL,B,2.0
7,5.111000061035156,immed,54888.999938964844,Mon Feb 24 2025 18:41:43 GMT-0600 (Central Standard Time),777982.2000000179,A,grassenter,O,enter,127,1,1481.6000000238419,776500.599999994,7059,WL,B,2.0
7,5.42900013923645,immed,54570.99986076355,Mon Feb 24 2025 18:41:43 GMT-0600 (Central Standard Time),778299.8000000119,A,d,O,d,305,1,317.40000000596046,777982.400000006,7059,WL,B,3.0
7,5.561000108718872,immed,54438.99989128113,Mon Feb 24 2025 18:41:43 GMT-0600 (Central Standard Time),778432.2000000179,A,do,O,o,123,1,449.80000001192093,777982.400000006,7059,WL,B,3.0
7,6.17900013923645,immed,53820.99986076355,Mon Feb 24 2025 18:41:43 GMT-0600 (Central Standard Time),779049.8000000119,A,doo,O,o,600,1,1067.4000000059605,777982.400000006,7059,WL,B,3.0
7,6.328000068664551,immed,53671.99993133545,Mon Feb 24 2025 18:41:43 GMT-0600 (Central Standard Time),779198.900000006,A,door,O,r,142,1,1216.5,777982.400000006,7059,WL,B,3.0
7,7.046000003814697,immed,52953.9999961853,Mon Feb 24 2025 18:41:43 GMT-0600 (Central Standard Time),779916.3000000119,A,doorenter,O,enter,712,1,1933.9000000059605,777982.400000006,7059,WL,B,3.0
7,7.745000123977661,immed,52254.99987602234,Mon Feb 24 2025 18:41:43 GMT-0600 (Central Standard Time),780615.7000000179,A,a,O,a,681,1,699.0,779916.7000000179,7059,WL,B,4.0
7,7.894000053405762,immed,52105.99994659424,Mon Feb 24 2025 18:41:43 GMT-0600 (Central Standard Time),780765.2000000179,A,ar,O,r,142,1,848.5,779916.7000000179,7059,WL,B,4.0
7,8.078999996185303,immed,51921.0000038147,Mon Feb 24 2025 18:41:43 GMT-0600 (Central Standard Time),780949.599999994,A,arm,O,m,169,1,1032.8999999761581,779916.7000000179,7059,WL,B,4.0
7,8.295000076293945,immed,51704.999923706055,Mon Feb 24 2025 18:41:43 GMT-0600 (Central Standard Time),781165.599999994,A,armenter,O,enter,203,1,1248.8999999761581,779916.7000000179,7059,WL,B,4.0
7,9.09500002861023,immed,50904.99997138977,Mon Feb 24 2025 18:41:43 GMT-0600 (Central Standard Time),781965.5,A,w,O,w,794,1,799.6999999880791,781165.8000000119,7059,WL,B,5.0
7,9.210999965667725,immed,50789.000034332275,Mon Feb 24 2025 18:41:43 GMT-0600 (Central Standard Time),782081.900000006,A,wi,O,i,107,1,916.0999999940395,781165.8000000119,7059,WL,B,5.0
7,9.328999996185303,immed,50671.0000038147,Mon Feb 24 2025 18:41:43 GMT-0600 (Central Standard Time),782199.8000000119,A,wif,O,f,113,1,1034.0,781165.8000000119,7059,WL,B,5.0
7,9.526999950408936,immed,50473.000049591064,Mon Feb 24 2025 18:41:43 GMT-0600 (Central Standard Time),782397.5,A,wife,O,e,183,1,1231.699999988079,781165.8000000119,7059,WL,B,5.0
7,9.694000005722046,immed,50305.999994277954,Mon Feb 24 2025 18:41:43 GMT-0600 (Central Standard Time),782565.3000000119,A,wifeenter,O,enter,153,1,1399.5,781165.8000000119,7059,WL,B,5.0
7,9.91100001335144,immed,50088.99998664856,Mon Feb 24 2025 18:41:43 GMT-0600 (Central Standard Time),782781.5,A,s,O,s,202,1,216.0,782565.5,7059,WL,B,6.0
7,10.394000053405762,immed,49605.99994659424,Mon Feb 24 2025 18:41:43 GMT-0600 (Central Standard Time),783264.3000000119,A,st,O,t,465,1,698.8000000119209,782565.5,7059,WL,B,6.0
7,10.528000116348267,immed,49471.99988365173,Mon Feb 24 2025 18:41:43 GMT-0600 (Central Standard Time),783398.400000006,A,sta,O,a,118,1,832.9000000059605,782565.5,7059,WL,B,6.0
7,10.694000005722046,immed,49305.999994277954,Mon Feb 24 2025 18:41:43 GMT-0600 (Central Standard Time),783565.0,A,star,O,r,144,1,999.5,782565.5,7059,WL,B,6.0
7,11.176000118255615,immed,48823.999881744385,Mon Feb 24 2025 18:41:43 GMT-0600 (Central Standard Time),784047.099999994,A,starenter,O,enter,465,1,1481.5999999940395,782565.5,7059,WL,B,6.0
7,11.558000087738037,immed,48441.99991226196,Mon Feb 24 2025 18:41:43 GMT-0600 (Central Standard Time),784428.8000000119,A,w,O,w,367,1,381.40000000596046,784047.400000006,7059,WL,B,7.0
7,11.657999992370605,immed,48342.000007629395,Mon Feb 24 2025 18:41:43 GMT-0600 (Central Standard Time),784528.3000000119,A,wi,O,i,83,1,480.90000000596046,784047.400000006,7059,WL,B,7.0
7,11.758000135421753,immed,48241.99986457825,Mon Feb 24 2025 18:41:43 GMT-0600 (Central Standard Time),784628.900000006,A,win,O,n,95,1,581.5,784047.400000006,7059,WL,B,7.0
7,12.059999942779541,immed,47940.00005722046,Mon Feb 24 2025 18:41:43 GMT-0600 (Central Standard Time),784931.2000000179,A,wind,O,d,283,1,883.8000000119209,784047.400000006,7059,WL,B,7.0
7,12.160000085830688,immed,47839.99991416931,Mon Feb 24 2025 18:41:43 GMT-0600 (Central Standard Time),785030.400000006,A,windo,O,o,92,1,983.0,784047.400000006,7059,WL,B,7.0
7,12.543999910354614,immed,47456.000089645386,Mon Feb 24 2025 18:41:43 GMT-0600 (Central Standard Time),785415.099999994,A,window,O,w,358,1,1367.699999988079,784047.400000006,7059,WL,B,7.0
7,12.7260000705719,immed,47273.9999294281,Mon Feb 24 2025 18:41:43 GMT-0600 (Central Standard Time),785597.2000000179,A,windowenter,O,enter,174,1,1549.800000011921,784047.400000006,7059,WL,B,7.0
7,12.993000030517578,immed,47006.99996948242,Mon Feb 24 2025 18:41:43 GMT-0600 (Central Standard Time),785863.5,A,c,O,c,258,1,266.09999999403954,785597.400000006,7059,WL,B,8.0
7,13.141999959945679,immed,46858.00004005432,Mon Feb 24 2025 18:41:43 GMT-0600 (Central Standard Time),786013.0,A,ci,O,i,135,1,415.59999999403954,785597.400000006,7059,WL,B,8.0
7,13.342999935150146,immed,46657.00006484985,Mon Feb 24 2025 18:41:43 GMT-0600 (Central Standard Time),786214.3000000119,A,cit,O,t,185,1,616.9000000059605,785597.400000006,7059,WL,B,8.0
7,13.460000038146973,immed,46539.99996185303,Mon Feb 24 2025 18:41:43 GMT-0600 (Central Standard Time),786330.7000000179,A,city,O,y,104,1,733.3000000119209,785597.400000006,7059,WL,B,8.0
7,13.759000062942505,immed,46240.999937057495,Mon Feb 24 2025 18:41:43 GMT-0600 (Central Standard Time),786629.400000006,A,cityenter,O,enter,292,1,1032.0,785597.400000006,7059,WL,B,8.0
7,14.160000085830688,immed,45839.99991416931,Mon Feb 24 2025 18:41:43 GMT-0600 (Central Standard Time),787030.5,A,p,O,p,396,1,400.7999999821186,786629.7000000179,7059,WL,B,9.0
7,14.276000022888184,immed,45723.99997711182,Mon Feb 24 2025 18:41:43 GMT-0600 (Central Standard Time),787147.099999994,A,pu,O,u,105,1,517.3999999761581,786629.7000000179,7059,WL,B,9.0
7,14.427000045776367,immed,45572.99995422363,Mon Feb 24 2025 18:41:43 GMT-0600 (Central Standard Time),787297.400000006,A,pup,O,p,141,1,667.6999999880791,786629.7000000179,7059,WL,B,9.0
7,14.559000015258789,immed,45440.99998474121,Mon Feb 24 2025 18:41:43 GMT-0600 (Central Standard Time),787430.099999994,A,pupi,O,i,118,1,800.3999999761581,786629.7000000179,7059,WL,B,9.0
7,14.941999912261963,immed,45058.00008773804,Mon Feb 24 2025 18:41:43 GMT-0600 (Central Standard Time),787813.2000000179,A,pupil,O,l,367,1,1183.5,786629.7000000179,7059,WL,B,9.0
7,15.275000095367432,immed,44724.99990463257,Mon Feb 24 2025 18:41:43 GMT-0600 (Central Standard Time),788145.7000000179,A,pupilenter,O,enter,322,1,1516.0,786629.7000000179,7059,WL,B,9.0
7,16.174999952316284,immed,43825.000047683716,Mon Feb 24 2025 18:41:43 GMT-0600 (Central Standard Time),789046.2000000179,A,c,O,c,886,1,900.3000000119209,788145.900000006,7059,WL,B,10.0
7,16.276000022888184,immed,43723.99997711182,Mon Feb 24 2025 18:41:43 GMT-0600 (Central Standard Time),789146.7000000179,A,ca,O,a,80,1,1000.8000000119209,788145.900000006,7059,WL,B,10.0
7,16.608999967575073,immed,43391.00003242493,Mon Feb 24 2025 18:41:43 GMT-0600 (Central Standard Time),789479.7000000179,A,cab,O,b,313,1,1333.800000011921,788145.900000006,7059,WL,B,10.0
7,16.674000024795532,immed,43325.99997520447,Mon Feb 24 2025 18:41:43 GMT-0600 (Central Standard Time),789545.0,A,cabi,O,i,55,1,1399.0999999940395,788145.900000006,7059,WL,B,10.0
7,16.825999975204468,immed,43174.00002479553,Mon Feb 24 2025 18:41:43 GMT-0600 (Central Standard Time),789696.5,A,cabin,O,n,143,1,1550.5999999940395,788145.900000006,7059,WL,B,10.0
7,17.125999927520752,immed,42874.00007247925,Mon Feb 24 2025 18:41:43 GMT-0600 (Central Standard Time),789996.599999994,A,cabinenter,O,enter,294,1,1850.699999988079,788145.900000006,7059,WL,B,10.0
7,17.424000024795532,immed,42575.99997520447,Mon Feb 24 2025 18:41:43 GMT-0600 (Central Standard Time),790295.0,A,l,O,l,283,1,298.19999998807907,789996.8000000119,7059,WL,B,11.0
7,17.574000120162964,immed,42425.999879837036,Mon Feb 24 2025 18:41:43 GMT-0600 (Central Standard Time),790445.2000000179,A,la,O,a,136,1,448.40000000596046,789996.8000000119,7059,WL,B,11.0
7,17.742000102996826,immed,42257.999897003174,Mon Feb 24 2025 18:41:43 GMT-0600 (Central Standard Time),790613.099999994,A,lak,O,k,155,1,616.2999999821186,789996.8000000119,7059,WL,B,11.0
7,17.911999940872192,immed,42088.00005912781,Mon Feb 24 2025 18:41:43 GMT-0600 (Central Standard Time),790782.8000000119,A,lake,O,e,153,1,786.0,789996.8000000119,7059,WL,B,11.0
7,18.391000032424927,immed,41608.99996757507,Mon Feb 24 2025 18:41:43 GMT-0600 (Central Standard Time),791261.599999994,A,lakeenter,O,enter,474,1,1264.7999999821186,789996.8000000119,7059,WL,B,11.0
7,19.225000143051147,immed,40774.99985694885,Mon Feb 24 2025 18:41:43 GMT-0600 (Central Standard Time),792095.5,A,p,O,p,828,1,833.5999999940395,791261.900000006,7059,WL,B,12.0
7,19.306999921798706,immed,40693.000078201294,Mon Feb 24 2025 18:41:43 GMT-0600 (Central Standard Time),792178.099999994,A,pi,O,i,70,1,916.1999999880791,791261.900000006,7059,WL,B,12.0
7,19.94099998474121,immed,40059.00001525879,Mon Feb 24 2025 18:41:43 GMT-0600 (Central Standard Time),792812.099999994,A,pip,O,p,621,1,1550.199999988079,791261.900000006,7059,WL,B,12.0
7,20.056999921798706,immed,39943.000078201294,Mon Feb 24 2025 18:41:43 GMT-0600 (Central Standard Time),792927.3000000119,A,pipe,O,e,106,1,1665.4000000059605,791261.900000006,7059,WL,B,12.0
7,20.27500009536743,immed,39724.99990463257,Mon Feb 24 2025 18:41:43 GMT-0600 (Central Standard Time),793145.400000006,A,pipeenter,O,enter,209,1,1883.5,791261.900000006,7059,WL,B,12.0
7,20.789999961853027,immed,39210.00003814697,Mon Feb 24 2025 18:41:43 GMT-0600 (Central Standard Time),793661.3000000119,A,s,O,s,502,1,515.5999999940395,793145.7000000179,7059,WL,B,13.0
7,20.94000005722046,immed,39059.99994277954,Mon Feb 24 2025 18:41:43 GMT-0600 (Central Standard Time),793810.400000006,A,sk,O,k,139,1,664.6999999880791,793145.7000000179,7059,WL,B,13.0
7,21.091000080108643,immed,38908.99991989136,Mon Feb 24 2025 18:41:43 GMT-0600 (Central Standard Time),793961.400000006,A,ski,O,i,140,1,815.6999999880791,793145.7000000179,7059,WL,B,13.0
7,21.324000120162964,immed,38675.999879837036,Mon Feb 24 2025 18:41:43 GMT-0600 (Central Standard Time),794195.3000000119,A,skin,O,n,211,1,1049.5999999940395,793145.7000000179,7059,WL,B,13.0
7,21.806999921798706,immed,38193.000078201294,Mon Feb 24 2025 18:41:43 GMT-0600 (Central Standard Time),794677.5,A,skinenter,O,enter,476,1,1531.7999999821186,793145.7000000179,7059,WL,B,13.0
7,22.176000118255615,immed,37823.999881744385,Mon Feb 24 2025 18:41:43 GMT-0600 (Central Standard Time),795046.400000006,A,f,O,f,364,1,368.69999998807907,794677.7000000179,7059,WL,B,14.0
7,22.305999994277954,immed,37694.000005722046,Mon Feb 24 2025 18:41:43 GMT-0600 (Central Standard Time),795176.8000000119,A,fi,O,i,110,1,499.09999999403954,794677.7000000179,7059,WL,B,14.0
7,22.45799994468689,immed,37542.00005531311,Mon Feb 24 2025 18:41:43 GMT-0600 (Central Standard Time),795328.3000000119,A,fir,O,r,133,1,650.5999999940395,794677.7000000179,7059,WL,B,14.0
7,22.574000120162964,immed,37425.999879837036,Mon Feb 24 2025 18:41:43 GMT-0600 (Central Standard Time),795445.3000000119,A,fire,O,e,112,1,767.5999999940395,794677.7000000179,7059,WL,B,14.0
7,23.374000072479248,immed,36625.99992752075,Mon Feb 24 2025 18:41:43 GMT-0600 (Central Standard Time),796244.900000006,A,fireenter,O,enter,796,1,1567.199999988079,794677.7000000179,7059,WL,B,14.0
7,24.390000104904175,immed,35609.999895095825,Mon Feb 24 2025 18:41:43 GMT-0600 (Central Standard Time),797260.900000006,A,c,O,c,1002,1,1015.6999999880791,796245.2000000179,7059,WL,B,15.0
7,24.48900008201599,immed,35510.99991798401,Mon Feb 24 2025 18:41:43 GMT-0600 (Central Standard Time),797359.3000000119,A,cl,O,l,90,1,1114.0999999940395,796245.2000000179,7059,WL,B,15.0
7,24.67300009727478,immed,35326.99990272522,Mon Feb 24 2025 18:41:43 GMT-0600 (Central Standard Time),797543.3000000119,A,clo,O,o,180,1,1298.0999999940395,796245.2000000179,7059,WL,B,15.0
7,24.90499997138977,immed,35095.00002861023,Mon Feb 24 2025 18:41:43 GMT-0600 (Central Standard Time),797775.8000000119,A,cloc,O,c,224,1,1530.5999999940395,796245.2000000179,7059,WL,B,15.0
7,25.039999961853027,immed,34960.00003814697,Mon Feb 24 2025 18:41:43 GMT-0600 (Central Standard Time),797910.400000006,A,clock,O,k,118,1,1665.199999988079,796245.2000000179,7059,WL,B,15.0
7,26.105000019073486,immed,33894.999980926514,Mon Feb 24 2025 18:41:43 GMT-0600 (Central Standard Time),798976.2000000179,A,clockenter,O,enter,1047,1,2731.0,796245.2000000179,7059,WL,B,15.0
