acc_sum,block,block_c,change,condition,correct,correct_response,datetime,endtime,face,project,response,response_time,row_sel,session_number,start_end,starttime,subject_id,task,task_vers,trial
0,prac,1,,1-Back,,,Tue Mar 11 2025 13:51:27 GMT-0500 (Central Daylight Time),,005_o_f_d_a.png,O,space,7890,1,1,,,7093,VNB,B,0
1,prac,1,0.0,1-Back,1,m,Tue Mar 11 2025 13:51:27 GMT-0500 (Central Daylight Time),131775.0,020_y_f_n_a.png,O,m,1319,2,1,2192.4000000059605,129582.59999999404,7093,VNB,B,1
2,prac,1,0.0,1-Back,1,m,Tue Mar 11 2025 13:51:27 GMT-0500 (Central Daylight Time),133757.69999999553,007_m_m_h_a.png,O,m,1075,3,1,1976.1999999955297,131781.5,7093,VNB,B,2
3,prac,1,0.0,1-Back,1,m,Tue Mar 11 2025 13:51:27 GMT-0500 (Central Daylight Time),135406.8999999985,016_y_m_d_a.png,O,m,748,4,1,1641.2000000029802,133765.69999999553,7093,VNB,B,3
4,prac,1,0.0,1-Back,1,m,Tue Mar 11 2025 13:51:27 GMT-0500 (Central Daylight Time),137373.0,005_o_f_n_a.png,O,m,1072,5,1,1959.0,135414.0,7093,VNB,B,4
5,prac,1,1.0,1-Back,1,z,Tue Mar 11 2025 13:51:27 GMT-0500 (Central Daylight Time),138922.79999999702,016_y_m_n_a.png,O,z,652,6,1,1541.7999999970198,137381.0,7093,VNB,B,5
6,prac,1,0.0,1-Back,1,m,Tue Mar 11 2025 13:51:27 GMT-0500 (Central Daylight Time),140521.8999999985,004_o_m_h_a.png,O,m,729,7,1,1591.8999999985099,138930.0,7093,VNB,B,6
7,prac,1,0.0,1-Back,1,m,Tue Mar 11 2025 13:51:27 GMT-0500 (Central Daylight Time),142388.0,011_m_f_d_a.png,O,m,974,8,1,1858.7000000029802,140529.29999999702,7093,VNB,B,7
8,prac,1,1.0,1-Back,1,z,Tue Mar 11 2025 13:51:27 GMT-0500 (Central Daylight Time),144504.0,020_y_f_d_a.png,O,z,1239,9,1,2108.8000000044703,142395.19999999553,7093,VNB,B,8
9,prac,1,0.0,1-Back,1,m,Tue Mar 11 2025 13:51:27 GMT-0500 (Central Daylight Time),147220.0,007_m_m_n_a.png,O,m,1808,10,1,2709.0,144511.0,7093,VNB,B,9
10,prac,1,0.0,1-Back,1,m,Tue Mar 11 2025 13:51:27 GMT-0500 (Central Daylight Time),149019.5,005_o_f_h_a.png,O,m,903,11,1,1793.1000000014901,147226.3999999985,7093,VNB,B,10
11,prac,1,0.0,1-Back,1,m,Tue Mar 11 2025 13:51:27 GMT-0500 (Central Daylight Time),150602.29999999702,016_y_m_d_a.png,O,m,677,12,1,1575.1000000014901,149027.19999999553,7093,VNB,B,11
0,test,1,0.0,1-Back,,,Tue Mar 11 2025 13:51:27 GMT-0500 (Central Daylight Time),150602.29999999702,020_y_f_d_a.png,O,space,9894,1,1,1575.1000000014901,149027.19999999553,7093,VNB,B,0
1,test,1,0.0,1-Back,1,m,Tue Mar 11 2025 13:51:27 GMT-0500 (Central Daylight Time),172745.19999999553,011_m_f_n_a.png,O,m,898,2,1,1912.1000000014901,170833.09999999404,7093,VNB,B,1
2,test,1,0.0,1-Back,1,m,Tue Mar 11 2025 13:51:27 GMT-0500 (Central Daylight Time),174694.59999999404,004_o_m_h_a.png,O,m,918,3,1,1945.2999999970198,172749.29999999702,7093,VNB,B,2
3,test,1,1.0,1-Back,1,z,Tue Mar 11 2025 13:51:27 GMT-0500 (Central Daylight Time),176427.3999999985,007_m_m_h_a.png,O,z,712,4,1,1728.7000000029802,174698.69999999553,7093,VNB,B,3
4,test,1,0.0,1-Back,1,m,Tue Mar 11 2025 13:51:27 GMT-0500 (Central Daylight Time),178076.79999999702,005_o_f_n_a.png,O,m,620,5,1,1644.8999999985099,176431.8999999985,7093,VNB,B,4
5,test,1,0.0,1-Back,1,m,Tue Mar 11 2025 13:51:27 GMT-0500 (Central Daylight Time),179959.59999999404,016_y_m_d_a.png,O,m,850,6,1,1878.5,178081.09999999404,7093,VNB,B,5
6,test,1,1.0,1-Back,1,z,Tue Mar 11 2025 13:51:27 GMT-0500 (Central Daylight Time),181642.29999999702,011_m_f_d_a.png,O,z,663,7,1,1678.2000000029802,179964.09999999404,7093,VNB,B,6
7,test,1,0.0,1-Back,1,m,Tue Mar 11 2025 13:51:27 GMT-0500 (Central Daylight Time),183325.19999999553,020_y_f_h_a.png,O,m,654,8,1,1678.1000000014901,181647.09999999404,7093,VNB,B,7
8,test,1,0.0,1-Back,1,m,Tue Mar 11 2025 13:51:27 GMT-0500 (Central Daylight Time),185074.79999999702,004_o_m_n_a.png,O,m,722,9,1,1745.1000000014901,183329.69999999553,7093,VNB,B,8
9,test,1,0.0,1-Back,1,m,Tue Mar 11 2025 13:51:27 GMT-0500 (Central Daylight Time),186808.69999999553,016_y_m_h_a.png,O,m,708,10,1,1729.6000000014901,185079.09999999404,7093,VNB,B,9
10,test,1,0.0,1-Back,1,m,Tue Mar 11 2025 13:51:27 GMT-0500 (Central Daylight Time),188606.79999999702,004_o_m_d_a.png,O,m,776,11,1,1793.8999999985099,186812.8999999985,7093,VNB,B,10
11,test,1,1.0,1-Back,1,z,Tue Mar 11 2025 13:51:27 GMT-0500 (Central Daylight Time),190289.69999999553,005_o_f_d_a.png,O,z,656,12,1,1678.1000000014901,188611.59999999404,7093,VNB,B,11
12,test,1,0.0,1-Back,1,m,Tue Mar 11 2025 13:51:27 GMT-0500 (Central Daylight Time),191989.19999999553,007_m_m_n_a.png,O,m,678,13,1,1695.1999999955297,190294.0,7093,VNB,B,12
13,test,1,1.0,1-Back,1,z,Tue Mar 11 2025 13:51:27 GMT-0500 (Central Daylight Time),193688.59999999404,020_y_f_n_a.png,O,z,667,14,1,1695.8999999985099,191992.69999999553,7093,VNB,B,13
14,test,1,0.0,1-Back,1,m,Tue Mar 11 2025 13:51:27 GMT-0500 (Central Daylight Time),195288.19999999553,011_m_f_h_a.png,O,m,574,15,1,1595.5,193692.69999999553,7093,VNB,B,14
15,test,1,0.0,1-Back,1,m,Tue Mar 11 2025 13:51:27 GMT-0500 (Central Daylight Time),197237.3999999985,007_m_m_d_a.png,O,m,919,16,1,1945.7000000029802,195291.69999999553,7093,VNB,B,15
16,test,1,0.0,1-Back,1,m,Tue Mar 11 2025 13:51:27 GMT-0500 (Central Daylight Time),199070.29999999702,016_y_m_n_a.png,O,m,809,17,1,1828.5,197241.79999999702,7093,VNB,B,16
17,test,1,0.0,1-Back,1,m,Tue Mar 11 2025 13:51:27 GMT-0500 (Central Daylight Time),200936.19999999553,005_o_f_h_a.png,O,m,833,18,1,1861.6999999955297,199074.5,7093,VNB,B,17
0,test,2,0.0,1-Back,,,Tue Mar 11 2025 13:51:27 GMT-0500 (Central Daylight Time),200936.19999999553,016_y_m_n_a.png,O,space,3303,1,1,1861.6999999955297,199074.5,7093,VNB,B,0
1,test,2,0.0,1-Back,1,m,Tue Mar 11 2025 13:51:27 GMT-0500 (Central Daylight Time),208833.69999999553,020_y_f_h_a.png,O,m,1547,2,1,2559.89999999851,206273.79999999702,7093,VNB,B,1
2,test,2,1.0,1-Back,1,m,Tue Mar 11 2025 13:51:27 GMT-0500 (Central Daylight Time),210666.59999999404,004_o_m_n_a.png,O,m,806,3,1,1828.6999999955297,208837.8999999985,7093,VNB,B,2
3,test,2,0.0,1-Back,1,m,Tue Mar 11 2025 13:51:27 GMT-0500 (Central Daylight Time),212916.0,011_m_f_d_a.png,O,m,1221,4,1,2245.10000000149,210670.8999999985,7093,VNB,B,3
4,test,2,0.0,1-Back,1,z,Tue Mar 11 2025 13:51:27 GMT-0500 (Central Daylight Time),214515.5,007_m_m_d_a.png,O,z,580,5,1,1594.9000000059605,212920.59999999404,7093,VNB,B,4
5,test,2,0.0,1-Back,1,m,Tue Mar 11 2025 13:51:27 GMT-0500 (Central Daylight Time),216264.79999999702,016_y_m_h_a.png,O,m,717,6,1,1744.8999999985099,214519.8999999985,7093,VNB,B,5
6,test,2,1.0,1-Back,1,z,Tue Mar 11 2025 13:51:27 GMT-0500 (Central Daylight Time),217930.79999999702,005_o_f_h_a.png,O,z,639,7,1,1661.7000000029802,216269.09999999404,7093,VNB,B,6
7,test,2,0.0,1-Back,1,m,Tue Mar 11 2025 13:51:27 GMT-0500 (Central Daylight Time),219513.8999999985,011_m_f_n_a.png,O,m,563,8,1,1578.6000000014901,217935.29999999702,7093,VNB,B,7
8,test,2,0.0,1-Back,1,m,Tue Mar 11 2025 13:51:27 GMT-0500 (Central Daylight Time),221463.19999999553,020_y_f_d_a.png,O,m,917,9,1,1944.6000000014901,219518.59999999404,7093,VNB,B,8
9,test,2,0.0,1-Back,1,m,Tue Mar 11 2025 13:51:27 GMT-0500 (Central Daylight Time),223429.3999999985,007_m_m_n_a.png,O,m,945,10,1,1961.8999999985099,221467.5,7093,VNB,B,9
10,test,2,1.0,1-Back,1,m,Tue Mar 11 2025 13:51:27 GMT-0500 (Central Daylight Time),225145.3999999985,011_m_f_h_a.png,O,m,691,11,1,1711.3999999985099,223434.0,7093,VNB,B,10
11,test,2,0.0,1-Back,1,z,Tue Mar 11 2025 13:51:27 GMT-0500 (Central Daylight Time),226745.29999999702,004_o_m_h_a.png,O,z,566,12,1,1595.2000000029802,225150.09999999404,7093,VNB,B,11
12,test,2,0.0,1-Back,1,m,Tue Mar 11 2025 13:51:27 GMT-0500 (Central Daylight Time),228344.5,016_y_m_d_a.png,O,m,581,13,1,1595.9000000059605,226748.59999999404,7093,VNB,B,12
13,test,2,0.0,1-Back,1,m,Tue Mar 11 2025 13:51:27 GMT-0500 (Central Daylight Time),230027.3999999985,005_o_f_n_a.png,O,m,662,14,1,1677.8999999985099,228349.5,7093,VNB,B,13
14,test,2,0.0,1-Back,1,z,Tue Mar 11 2025 13:51:27 GMT-0500 (Central Daylight Time),231626.79999999702,020_y_f_n_a.png,O,z,580,15,1,1595.1000000014901,230031.69999999553,7093,VNB,B,14
15,test,2,1.0,1-Back,1,m,Tue Mar 11 2025 13:51:27 GMT-0500 (Central Daylight Time),233259.69999999553,007_m_m_h_a.png,O,m,613,16,1,1628.2999999970198,231631.3999999985,7093,VNB,B,15
16,test,2,0.0,1-Back,1,m,Tue Mar 11 2025 13:51:27 GMT-0500 (Central Daylight Time),234959.19999999553,005_o_f_d_a.png,O,m,667,17,1,1695.3999999985099,233263.79999999702,7093,VNB,B,16
17,test,2,1.0,1-Back,1,z,Tue Mar 11 2025 13:51:27 GMT-0500 (Central Daylight Time),236525.29999999702,004_o_m_d_a.png,O,z,544,18,1,1561.7000000029802,234963.59999999404,7093,VNB,B,17
0,test,3,1.0,1-Back,,,Tue Mar 11 2025 13:51:27 GMT-0500 (Central Daylight Time),236525.29999999702,005_o_f_h_a.png,O,space,1906,1,1,1561.7000000029802,234963.59999999404,7093,VNB,B,0
1,test,3,0.0,1-Back,1,m,Tue Mar 11 2025 13:51:27 GMT-0500 (Central Daylight Time),242356.59999999404,011_m_f_d_a.png,O,m,753,2,1,1778.5999999940395,240578.0,7093,VNB,B,1
2,test,3,1.0,1-Back,1,m,Tue Mar 11 2025 13:51:27 GMT-0500 (Central Daylight Time),244139.29999999702,007_m_m_n_a.png,O,m,761,3,1,1777.8999999985099,242361.3999999985,7093,VNB,B,2
3,test,3,0.0,1-Back,1,z,Tue Mar 11 2025 13:51:27 GMT-0500 (Central Daylight Time),245856.3999999985,005_o_f_n_a.png,O,z,692,4,1,1712.7000000029802,244143.69999999553,7093,VNB,B,3
4,test,3,1.0,1-Back,1,m,Tue Mar 11 2025 13:51:27 GMT-0500 (Central Daylight Time),247505.19999999553,004_o_m_d_a.png,O,m,625,5,1,1645.1999999955297,245860.0,7093,VNB,B,4
5,test,3,0.0,1-Back,1,m,Tue Mar 11 2025 13:51:27 GMT-0500 (Central Daylight Time),249221.29999999702,020_y_f_h_a.png,O,m,695,6,1,1712.5,247508.79999999702,7093,VNB,B,5
6,test,3,0.0,1-Back,1,z,Tue Mar 11 2025 13:51:27 GMT-0500 (Central Daylight Time),250738.59999999404,016_y_m_h_a.png,O,z,498,7,1,1512.7999999970198,249225.79999999702,7093,VNB,B,6
7,test,3,0.0,1-Back,1,m,Tue Mar 11 2025 13:51:27 GMT-0500 (Central Daylight Time),252520.0,011_m_f_n_a.png,O,m,750,8,1,1776.5,250743.5,7093,VNB,B,7
8,test,3,0.0,1-Back,1,m,Tue Mar 11 2025 13:51:27 GMT-0500 (Central Daylight Time),254586.5,020_y_f_d_a.png,O,m,1039,9,1,2061.0,252525.5,7093,VNB,B,8
9,test,3,1.0,1-Back,1,m,Tue Mar 11 2025 13:51:27 GMT-0500 (Central Daylight Time),256252.5,004_o_m_n_a.png,O,m,636,10,1,1661.6000000014901,254590.8999999985,7093,VNB,B,9
10,test,3,0.0,1-Back,1,m,Tue Mar 11 2025 13:51:27 GMT-0500 (Central Daylight Time),258001.8999999985,007_m_m_h_a.png,O,m,724,11,1,1745.5,256256.3999999985,7093,VNB,B,10
11,test,3,0.0,1-Back,1,z,Tue Mar 11 2025 13:51:27 GMT-0500 (Central Daylight Time),259518.19999999553,011_m_f_h_a.png,O,z,493,12,1,1512.2999999970198,258005.8999999985,7093,VNB,B,11
12,test,3,1.0,1-Back,1,m,Tue Mar 11 2025 13:51:27 GMT-0500 (Central Daylight Time),261201.0,005_o_f_d_a.png,O,m,658,13,1,1678.7000000029802,259522.29999999702,7093,VNB,B,12
13,test,3,0.0,1-Back,1,z,Tue Mar 11 2025 13:51:27 GMT-0500 (Central Daylight Time),262750.19999999553,007_m_m_d_a.png,O,z,526,14,1,1544.6999999955297,261205.5,7093,VNB,B,13
14,test,3,0.0,1-Back,1,m,Tue Mar 11 2025 13:51:27 GMT-0500 (Central Daylight Time),264483.0,016_y_m_n_a.png,O,m,713,15,1,1728.8000000044703,262754.19999999553,7093,VNB,B,14
15,test,3,1.0,1-Back,1,m,Tue Mar 11 2025 13:51:27 GMT-0500 (Central Daylight Time),266049.3999999985,004_o_m_h_a.png,O,m,540,16,1,1562.5,264486.8999999985,7093,VNB,B,15
16,test,3,0.0,1-Back,1,m,Tue Mar 11 2025 13:51:27 GMT-0500 (Central Daylight Time),267749.0,016_y_m_d_a.png,O,m,670,17,1,1695.3000000044703,266053.69999999553,7093,VNB,B,16
17,test,3,1.0,1-Back,1,m,Tue Mar 11 2025 13:51:27 GMT-0500 (Central Daylight Time),269448.299999997,020_y_f_n_a.png,O,m,667,18,1,1695.7999999970198,267752.5,7093,VNB,B,17
0,test,4,1.0,1-Back,,,Tue Mar 11 2025 13:51:27 GMT-0500 (Central Daylight Time),269448.299999997,007_m_m_d_a.png,O,space,1912,1,1,1695.7999999970198,267752.5,7093,VNB,B,0
1,test,4,0.0,1-Back,1,z,Tue Mar 11 2025 13:51:27 GMT-0500 (Central Daylight Time),275962.8999999985,004_o_m_d_a.png,O,z,1427,2,1,2578.39999999851,273384.5,7093,VNB,B,1
2,test,4,0.0,1-Back,1,m,Tue Mar 11 2025 13:51:27 GMT-0500 (Central Daylight Time),278428.8999999985,016_y_m_h_a.png,O,m,1444,3,1,2462.60000000149,275966.299999997,7093,VNB,B,2
3,test,4,0.0,1-Back,1,m,Tue Mar 11 2025 13:51:27 GMT-0500 (Central Daylight Time),280211.5,011_m_f_n_a.png,O,m,754,4,1,1778.5,278433.0,7093,VNB,B,3
4,test,4,1.0,1-Back,1,m,Tue Mar 11 2025 13:51:27 GMT-0500 (Central Daylight Time),281811.09999999404,005_o_f_h_a.png,O,m,580,5,1,1595.0999999940395,280216.0,7093,VNB,B,4
5,test,4,0.0,1-Back,1,m,Tue Mar 11 2025 13:51:27 GMT-0500 (Central Daylight Time),283727.0,007_m_m_n_a.png,O,m,884,6,1,1911.8000000044703,281815.19999999553,7093,VNB,B,5
6,test,4,0.0,1-Back,1,m,Tue Mar 11 2025 13:51:27 GMT-0500 (Central Daylight Time),285609.8999999985,016_y_m_d_a.png,O,m,865,7,1,1878.3999999985099,283731.5,7093,VNB,B,6
7,test,4,1.0,1-Back,1,z,Tue Mar 11 2025 13:51:27 GMT-0500 (Central Daylight Time),287159.299999997,020_y_f_d_a.png,O,z,517,8,1,1545.2999999970198,285614.0,7093,VNB,B,7
8,test,4,0.0,1-Back,1,m,Tue Mar 11 2025 13:51:27 GMT-0500 (Central Daylight Time),288742.19999999553,011_m_f_h_a.png,O,m,560,9,1,1578.1000000014901,287164.09999999404,7093,VNB,B,8
9,test,4,0.0,1-Back,1,z,Tue Mar 11 2025 13:51:27 GMT-0500 (Central Daylight Time),290208.59999999404,004_o_m_h_a.png,O,z,441,10,1,1462.2999999970198,288746.299999997,7093,VNB,B,9
10,test,4,1.0,1-Back,1,m,Tue Mar 11 2025 13:51:27 GMT-0500 (Central Daylight Time),291874.69999999553,005_o_f_n_a.png,O,m,648,11,1,1662.8999999985099,290211.799999997,7093,VNB,B,10
10,test,4,0.0,1-Back,0,m,Tue Mar 11 2025 13:51:27 GMT-0500 (Central Daylight Time),294907.0,011_m_f_d_a.png,O,None,2016,12,1,3028.3000000044703,291878.69999999553,7093,VNB,B,11
11,test,4,0.0,1-Back,1,m,Tue Mar 11 2025 13:51:27 GMT-0500 (Central Daylight Time),297023.0,020_y_f_n_a.png,O,m,1092,13,1,2112.0,294911.0,7093,VNB,B,12
12,test,4,0.0,1-Back,1,m,Tue Mar 11 2025 13:51:27 GMT-0500 (Central Daylight Time),299572.19999999553,005_o_f_d_a.png,O,m,1501,14,1,2545.10000000149,297027.09999999404,7093,VNB,B,13
13,test,4,0.0,1-Back,1,m,Tue Mar 11 2025 13:51:27 GMT-0500 (Central Daylight Time),301671.69999999553,020_y_f_h_a.png,O,m,1075,15,1,2095.5,299576.19999999553,7093,VNB,B,14
14,test,4,1.0,1-Back,1,z,Tue Mar 11 2025 13:51:27 GMT-0500 (Central Daylight Time),303237.59999999404,007_m_m_h_a.png,O,z,536,16,1,1562.5,301675.09999999404,7093,VNB,B,15
15,test,4,0.0,1-Back,1,m,Tue Mar 11 2025 13:51:27 GMT-0500 (Central Daylight Time),305120.799999997,004_o_m_n_a.png,O,m,867,17,1,1879.1000000014901,303241.69999999553,7093,VNB,B,16
16,test,4,1.0,1-Back,1,z,Tue Mar 11 2025 13:51:27 GMT-0500 (Central Daylight Time),306770.0,016_y_m_n_a.png,O,z,624,18,1,1644.2000000029802,305125.799999997,7093,VNB,B,17
0,test,5,1.0,1-Back,,,Tue Mar 11 2025 13:51:27 GMT-0500 (Central Daylight Time),306770.0,004_o_m_n_a.png,O,space,1925,1,1,1644.2000000029802,305125.799999997,7093,VNB,B,0
1,test,5,1.0,1-Back,1,m,Tue Mar 11 2025 13:51:27 GMT-0500 (Central Daylight Time),312401.69999999553,005_o_f_h_a.png,O,m,656,2,1,1678.5,310723.19999999553,7093,VNB,B,1
2,test,5,0.0,1-Back,1,m,Tue Mar 11 2025 13:51:27 GMT-0500 (Central Daylight Time),314084.3999999985,016_y_m_d_a.png,O,m,655,3,1,1678.2000000029802,312406.19999999553,7093,VNB,B,2
3,test,5,0.0,1-Back,1,z,Tue Mar 11 2025 13:51:27 GMT-0500 (Central Daylight Time),315783.59999999404,004_o_m_d_a.png,O,z,675,4,1,1694.8999999985099,314088.69999999553,7093,VNB,B,3
4,test,5,0.0,1-Back,1,m,Tue Mar 11 2025 13:51:27 GMT-0500 (Central Daylight Time),317449.8999999985,011_m_f_h_a.png,O,m,647,5,1,1662.2000000029802,315787.69999999553,7093,VNB,B,4
5,test,5,0.0,1-Back,1,m,Tue Mar 11 2025 13:51:27 GMT-0500 (Central Daylight Time),319232.59999999404,020_y_f_n_a.png,O,m,749,6,1,1778.5,317454.09999999404,7093,VNB,B,5
6,test,5,1.0,1-Back,1,z,Tue Mar 11 2025 13:51:27 GMT-0500 (Central Daylight Time),321065.5,005_o_f_n_a.png,O,z,806,7,1,1829.0,319236.5,7093,VNB,B,6
7,test,5,0.0,1-Back,1,m,Tue Mar 11 2025 13:51:27 GMT-0500 (Central Daylight Time),322999.19999999553,011_m_f_d_a.png,O,m,901,8,1,1929.7999999970198,321069.3999999985,7093,VNB,B,7
8,test,5,0.0,1-Back,1,m,Tue Mar 11 2025 13:51:27 GMT-0500 (Central Daylight Time),324697.3999999985,016_y_m_h_a.png,O,m,681,9,1,1693.8999999985099,323003.5,7093,VNB,B,8
9,test,5,0.0,1-Back,1,m,Tue Mar 11 2025 13:51:27 GMT-0500 (Central Daylight Time),326463.69999999553,020_y_f_d_a.png,O,m,741,10,1,1762.6999999955297,324701.0,7093,VNB,B,9
10,test,5,0.0,1-Back,1,m,Tue Mar 11 2025 13:51:27 GMT-0500 (Central Daylight Time),328879.69999999553,007_m_m_n_a.png,O,m,1383,11,1,2412.1999999955297,326467.5,7093,VNB,B,10
11,test,5,1.0,1-Back,1,z,Tue Mar 11 2025 13:51:27 GMT-0500 (Central Daylight Time),330562.19999999553,011_m_f_n_a.png,O,z,664,12,1,1678.2999999970198,328883.8999999985,7093,VNB,B,11
12,test,5,0.0,1-Back,1,m,Tue Mar 11 2025 13:51:27 GMT-0500 (Central Daylight Time),332079.0,004_o_m_h_a.png,O,m,485,13,1,1513.5,330565.5,7093,VNB,B,12
13,test,5,0.0,1-Back,1,z,Tue Mar 11 2025 13:51:27 GMT-0500 (Central Daylight Time),333662.5,007_m_m_h_a.png,O,z,560,14,1,1579.4000000059605,332083.09999999404,7093,VNB,B,13
14,test,5,1.0,1-Back,1,m,Tue Mar 11 2025 13:51:27 GMT-0500 (Central Daylight Time),335411.19999999553,005_o_f_d_a.png,O,m,722,15,1,1744.5,333666.69999999553,7093,VNB,B,14
15,test,5,0.0,1-Back,1,m,Tue Mar 11 2025 13:51:27 GMT-0500 (Central Daylight Time),337327.09999999404,016_y_m_n_a.png,O,m,892,16,1,1912.7999999970198,335414.299999997,7093,VNB,B,15
16,test,5,0.0,1-Back,1,m,Tue Mar 11 2025 13:51:27 GMT-0500 (Central Daylight Time),339176.3999999985,020_y_f_h_a.png,O,m,817,17,1,1845.8999999985099,337330.5,7093,VNB,B,16
17,test,5,0.0,1-Back,1,m,Tue Mar 11 2025 13:51:27 GMT-0500 (Central Daylight Time),341126.0,007_m_m_d_a.png,O,m,927,18,1,1946.1000000014901,339179.8999999985,7093,VNB,B,17
0,prac,1,0.0,2-Back,,,Tue Mar 11 2025 13:51:27 GMT-0500 (Central Daylight Time),341126.0,011_m_f_n_a.png,O,space,7092,1,1,1946.1000000014901,339179.8999999985,7093,VNB,B,0
0,prac,1,0.0,2-Back,,,Tue Mar 11 2025 13:51:27 GMT-0500 (Central Daylight Time),341126.0,005_o_f_h_a.png,O,space,7092,2,1,1946.1000000014901,339179.8999999985,7093,VNB,B,0
1,prac,1,0.0,2-Back,1,m,Tue Mar 11 2025 13:51:27 GMT-0500 (Central Daylight Time),452707.799999997,004_o_m_d_a.png,O,m,1267,3,1,2126.89999999851,450580.8999999985,7093,VNB,B,1
1,prac,1,1.0,2-Back,0,z,Tue Mar 11 2025 13:51:27 GMT-0500 (Central Daylight Time),454623.59999999404,007_m_m_h_a.png,O,m,1019,4,1,1909.7999999970198,452713.799999997,7093,VNB,B,2
1,prac,1,0.0,2-Back,0,m,Tue Mar 11 2025 13:51:27 GMT-0500 (Central Daylight Time),456806.299999997,020_y_f_n_a.png,O,z,1302,5,1,2176.89999999851,454629.3999999985,7093,VNB,B,3
2,prac,1,1.0,2-Back,1,z,Tue Mar 11 2025 13:51:27 GMT-0500 (Central Daylight Time),459572.19999999553,004_o_m_h_a.png,O,z,1899,6,1,2760.2999999970198,456811.8999999985,7093,VNB,B,4
3,prac,1,1.0,2-Back,1,z,Tue Mar 11 2025 13:51:27 GMT-0500 (Central Daylight Time),461721.3999999985,016_y_m_n_a.png,O,z,1257,7,1,2143.5,459577.8999999985,7093,VNB,B,5
4,prac,1,0.0,2-Back,1,m,Tue Mar 11 2025 13:51:27 GMT-0500 (Central Daylight Time),463770.799999997,011_m_f_d_a.png,O,m,1164,8,1,2043.5,461727.299999997,7093,VNB,B,6
4,prac,1,0.0,2-Back,0,m,Tue Mar 11 2025 13:51:27 GMT-0500 (Central Daylight Time),466669.799999997,005_o_f_d_a.png,O,None,2011,9,1,2894.0,463775.799999997,7093,VNB,B,7
5,prac,1,0.0,2-Back,1,m,Tue Mar 11 2025 13:51:27 GMT-0500 (Central Daylight Time),469019.19999999553,007_m_m_h_a.png,O,m,1572,10,1,2343.5,466675.69999999553,7093,VNB,B,8
6,prac,1,1.0,2-Back,1,z,Tue Mar 11 2025 13:51:27 GMT-0500 (Central Daylight Time),470935.299999997,020_y_f_d_a.png,O,z,1032,11,1,1910.6000000014901,469024.69999999553,7093,VNB,B,9
6,prac,1,0.0,2-Back,0,m,Tue Mar 11 2025 13:51:27 GMT-0500 (Central Daylight Time),472768.0,004_o_m_n_a.png,O,z,963,12,1,1827.1000000014901,470940.8999999985,7093,VNB,B,10
0,prac,2,0.0,2-Back,,,Tue Mar 11 2025 13:51:27 GMT-0500 (Central Daylight Time),472768.0,011_m_f_n_a.png,O,a,5902,1,1,1827.1000000014901,470940.8999999985,7093,VNB,B,0
0,prac,2,0.0,2-Back,,,Tue Mar 11 2025 13:51:27 GMT-0500 (Central Daylight Time),472768.0,005_o_f_h_a.png,O,a,5902,2,1,1827.1000000014901,470940.8999999985,7093,VNB,B,0
1,prac,2,0.0,2-Back,1,m,Tue Mar 11 2025 13:51:27 GMT-0500 (Central Daylight Time),485814.0,004_o_m_d_a.png,O,m,1016,3,1,1876.8000000044703,483937.19999999553,7093,VNB,B,1
2,prac,2,1.0,2-Back,1,z,Tue Mar 11 2025 13:51:27 GMT-0500 (Central Daylight Time),487780.299999997,007_m_m_h_a.png,O,z,1181,4,1,1960.8999999985099,485819.3999999985,7093,VNB,B,2
2,prac,2,0.0,2-Back,0,m,Tue Mar 11 2025 13:51:27 GMT-0500 (Central Daylight Time),489695.799999997,020_y_f_n_a.png,O,z,1041,5,1,1909.2999999970198,487786.5,7093,VNB,B,3
2,prac,2,1.0,2-Back,0,z,Tue Mar 11 2025 13:51:27 GMT-0500 (Central Daylight Time),491812.299999997,004_o_m_h_a.png,O,m,1240,6,1,2111.0,489701.299999997,7093,VNB,B,4
3,prac,2,1.0,2-Back,1,z,Tue Mar 11 2025 13:51:27 GMT-0500 (Central Daylight Time),493844.69999999553,016_y_m_n_a.png,O,z,1139,7,1,2027.1999999955297,491817.5,7093,VNB,B,5
4,prac,2,0.0,2-Back,1,m,Tue Mar 11 2025 13:51:27 GMT-0500 (Central Daylight Time),495577.5,011_m_f_d_a.png,O,m,853,8,1,1727.8000000044703,493849.69999999553,7093,VNB,B,6
5,prac,2,0.0,2-Back,1,m,Tue Mar 11 2025 13:51:27 GMT-0500 (Central Daylight Time),497660.5,005_o_f_d_a.png,O,m,1196,9,1,2076.9000000059605,495583.59999999404,7093,VNB,B,7
6,prac,2,0.0,2-Back,1,m,Tue Mar 11 2025 13:51:27 GMT-0500 (Central Daylight Time),499527.59999999404,007_m_m_h_a.png,O,m,1078,10,1,1862.2999999970198,497665.299999997,7093,VNB,B,8
6,prac,2,1.0,2-Back,0,z,Tue Mar 11 2025 13:51:27 GMT-0500 (Central Daylight Time),501575.59999999404,020_y_f_d_a.png,O,m,1179,11,1,2041.5999999940395,499534.0,7093,VNB,B,9
6,prac,2,0.0,2-Back,0,m,Tue Mar 11 2025 13:51:27 GMT-0500 (Central Daylight Time),503924.8999999985,004_o_m_n_a.png,O,z,1480,12,1,2344.0,501580.8999999985,7093,VNB,B,10
0,test,1,0.0,2-Back,,,Tue Mar 11 2025 13:51:27 GMT-0500 (Central Daylight Time),503924.8999999985,016_y_m_h_a.png,O,space,8991,1,1,2344.0,501580.8999999985,7093,VNB,B,0
0,test,1,0.0,2-Back,,,Tue Mar 11 2025 13:51:27 GMT-0500 (Central Daylight Time),503924.8999999985,005_o_f_n_a.png,O,space,8991,2,1,2344.0,501580.8999999985,7093,VNB,B,0
1,test,1,0.0,2-Back,1,z,Tue Mar 11 2025 13:51:27 GMT-0500 (Central Daylight Time),526951.099999994,004_o_m_h_a.png,O,z,1609,3,1,2628.5,524322.599999994,7093,VNB,B,1
2,test,1,0.0,2-Back,1,m,Tue Mar 11 2025 13:51:27 GMT-0500 (Central Daylight Time),529833.1999999955,011_m_f_d_a.png,O,m,1857,4,1,2878.10000000149,526955.099999994,7093,VNB,B,2
2,test,1,1.0,2-Back,0,m,Tue Mar 11 2025 13:51:27 GMT-0500 (Central Daylight Time),532749.299999997,016_y_m_n_a.png,O,z,1886,5,1,2912.39999999851,529836.8999999985,7093,VNB,B,3
2,test,1,0.0,2-Back,0,z,Tue Mar 11 2025 13:51:27 GMT-0500 (Central Daylight Time),535115.099999994,020_y_f_d_a.png,O,m,1345,6,1,2362.0999999940395,532753.0,7093,VNB,B,4
2,test,1,0.0,2-Back,0,m,Tue Mar 11 2025 13:51:27 GMT-0500 (Central Daylight Time),537531.1999999955,007_m_m_h_a.png,O,z,1397,7,1,2412.10000000149,535119.099999994,7093,VNB,B,5
3,test,1,1.0,2-Back,1,m,Tue Mar 11 2025 13:51:27 GMT-0500 (Central Daylight Time),539663.799999997,020_y_f_n_a.png,O,m,1108,8,1,2129.10000000149,537534.6999999955,7093,VNB,B,6
4,test,1,0.0,2-Back,1,z,Tue Mar 11 2025 13:51:27 GMT-0500 (Central Daylight Time),541696.3999999985,005_o_f_h_a.png,O,z,1008,9,1,2028.7000000029802,539667.6999999955,7093,VNB,B,7
4,test,1,0.0,2-Back,0,m,Tue Mar 11 2025 13:51:27 GMT-0500 (Central Daylight Time),543662.5,004_o_m_d_a.png,O,z,943,10,1,1962.2000000029802,541700.299999997,7093,VNB,B,8
4,test,1,1.0,2-Back,0,m,Tue Mar 11 2025 13:51:27 GMT-0500 (Central Daylight Time),546694.799999997,007_m_m_d_a.png,O,None,2016,11,1,3029.10000000149,543665.6999999955,7093,VNB,B,9
4,test,1,0.0,2-Back,0,m,Tue Mar 11 2025 13:51:27 GMT-0500 (Central Daylight Time),548978.5,011_m_f_n_a.png,O,z,1264,12,1,2279.7000000029802,546698.799999997,7093,VNB,B,10
5,test,1,0.0,2-Back,1,m,Tue Mar 11 2025 13:51:27 GMT-0500 (Central Daylight Time),551160.299999997,020_y_f_h_a.png,O,m,1150,13,1,2177.5,548982.799999997,7093,VNB,B,11
6,test,1,0.0,2-Back,1,z,Tue Mar 11 2025 13:51:27 GMT-0500 (Central Daylight Time),553142.799999997,007_m_m_n_a.png,O,z,952,14,1,1978.7000000029802,551164.099999994,7093,VNB,B,12
7,test,1,0.0,2-Back,1,m,Tue Mar 11 2025 13:51:27 GMT-0500 (Central Daylight Time),555442.1999999955,016_y_m_d_a.png,O,m,1272,15,1,2295.6999999955297,553146.5,7093,VNB,B,13
7,test,1,1.0,2-Back,0,m,Tue Mar 11 2025 13:51:27 GMT-0500 (Central Daylight Time),557591.799999997,011_m_f_h_a.png,O,z,1125,16,1,2145.7999999970198,555446.0,7093,VNB,B,14
8,test,1,0.0,2-Back,1,z,Tue Mar 11 2025 13:51:27 GMT-0500 (Central Daylight Time),560257.1999999955,005_o_f_d_a.png,O,z,1641,17,1,2661.2999999970198,557595.8999999985,7093,VNB,B,15
9,test,1,0.0,2-Back,1,m,Tue Mar 11 2025 13:51:27 GMT-0500 (Central Daylight Time),562139.8999999985,004_o_m_n_a.png,O,m,854,18,1,1878.7000000029802,560261.1999999955,7093,VNB,B,16
0,test,2,0.0,2-Back,,,Tue Mar 11 2025 13:51:27 GMT-0500 (Central Daylight Time),562139.8999999985,007_m_m_h_a.png,O,space,13467,1,1,1878.7000000029802,560261.1999999955,7093,VNB,B,0
0,test,2,0.0,2-Back,,,Tue Mar 11 2025 13:51:27 GMT-0500 (Central Daylight Time),562139.8999999985,020_y_f_n_a.png,O,space,13467,2,1,1878.7000000029802,560261.1999999955,7093,VNB,B,0
1,test,2,1.0,2-Back,1,z,Tue Mar 11 2025 13:51:27 GMT-0500 (Central Daylight Time),582666.8999999985,005_o_f_h_a.png,O,z,796,3,1,1812.2000000029802,580854.6999999955,7093,VNB,B,1
2,test,2,0.0,2-Back,1,m,Tue Mar 11 2025 13:51:27 GMT-0500 (Central Daylight Time),584633.0,004_o_m_d_a.png,O,m,948,4,1,1962.0,582671.0,7093,VNB,B,2
3,test,2,0.0,2-Back,1,m,Tue Mar 11 2025 13:51:27 GMT-0500 (Central Daylight Time),586949.0,011_m_f_d_a.png,O,m,1295,5,1,2312.5,584636.5,7093,VNB,B,3
4,test,2,0.0,2-Back,1,m,Tue Mar 11 2025 13:51:27 GMT-0500 (Central Daylight Time),589414.8999999985,016_y_m_h_a.png,O,m,1435,6,1,2462.0,586952.8999999985,7093,VNB,B,4
4,test,2,0.0,2-Back,0,m,Tue Mar 11 2025 13:51:27 GMT-0500 (Central Daylight Time),591864.099999994,005_o_f_n_a.png,O,z,1416,7,1,2445.5,589418.599999994,7093,VNB,B,5
5,test,2,1.0,2-Back,1,z,Tue Mar 11 2025 13:51:27 GMT-0500 (Central Daylight Time),594246.599999994,004_o_m_h_a.png,O,z,1359,8,1,2378.7999999970198,591867.799999997,7093,VNB,B,6
6,test,2,0.0,2-Back,1,m,Tue Mar 11 2025 13:51:27 GMT-0500 (Central Daylight Time),596246.0,020_y_f_d_a.png,O,m,975,9,1,1995.6000000014901,594250.3999999985,7093,VNB,B,7
7,test,2,0.0,2-Back,1,m,Tue Mar 11 2025 13:51:27 GMT-0500 (Central Daylight Time),598378.599999994,016_y_m_d_a.png,O,m,1113,10,1,2129.2999999970198,596249.299999997,7093,VNB,B,8
8,test,2,0.0,2-Back,1,m,Tue Mar 11 2025 13:51:27 GMT-0500 (Central Daylight Time),600628.0,007_m_m_n_a.png,O,m,1229,11,1,2245.7000000029802,598382.299999997,7093,VNB,B,9
9,test,2,0.0,2-Back,1,m,Tue Mar 11 2025 13:51:27 GMT-0500 (Central Daylight Time),602710.5,011_m_f_h_a.png,O,m,1059,12,1,2078.5,600632.0,7093,VNB,B,10
10,test,2,1.0,2-Back,1,z,Tue Mar 11 2025 13:51:27 GMT-0500 (Central Daylight Time),604743.299999997,004_o_m_n_a.png,O,z,1000,13,1,2029.2000000029802,602714.099999994,7093,VNB,B,11
11,test,2,0.0,2-Back,1,m,Tue Mar 11 2025 13:51:27 GMT-0500 (Central Daylight Time),606792.799999997,005_o_f_d_a.png,O,m,1032,14,1,2045.5,604747.299999997,7093,VNB,B,12
12,test,2,0.0,2-Back,1,m,Tue Mar 11 2025 13:51:27 GMT-0500 (Central Daylight Time),609292.0,020_y_f_h_a.png,O,m,1479,15,1,2495.3000000044703,606796.6999999955,7093,VNB,B,13
13,test,2,0.0,2-Back,1,z,Tue Mar 11 2025 13:51:27 GMT-0500 (Central Daylight Time),611358.0,007_m_m_d_a.png,O,z,1044,16,1,2062.0,609296.0,7093,VNB,B,14
14,test,2,0.0,2-Back,1,m,Tue Mar 11 2025 13:51:27 GMT-0500 (Central Daylight Time),613440.599999994,016_y_m_n_a.png,O,m,1057,17,1,2078.6999999955297,611361.8999999985,7093,VNB,B,15
15,test,2,1.0,2-Back,1,m,Tue Mar 11 2025 13:51:27 GMT-0500 (Central Daylight Time),615756.5,011_m_f_n_a.png,O,m,1287,18,1,2312.7000000029802,613443.799999997,7093,VNB,B,16
0,test,3,1.0,2-Back,,,Tue Mar 11 2025 13:51:27 GMT-0500 (Central Daylight Time),615756.5,004_o_m_n_a.png,O,space,1667,1,1,2312.7000000029802,613443.799999997,7093,VNB,B,0
0,test,3,1.0,2-Back,,,Tue Mar 11 2025 13:51:27 GMT-0500 (Central Daylight Time),615756.5,005_o_f_d_a.png,O,space,1667,2,1,2312.7000000029802,613443.799999997,7093,VNB,B,0
1,test,3,0.0,2-Back,1,m,Tue Mar 11 2025 13:51:27 GMT-0500 (Central Daylight Time),624720.5,020_y_f_h_a.png,O,m,1025,3,1,2046.4000000059605,622674.099999994,7093,VNB,B,1
2,test,3,0.0,2-Back,1,z,Tue Mar 11 2025 13:51:27 GMT-0500 (Central Daylight Time),627036.5,011_m_f_d_a.png,O,z,1296,4,1,2311.7000000029802,624724.799999997,7093,VNB,B,2
3,test,3,1.0,2-Back,1,m,Tue Mar 11 2025 13:51:27 GMT-0500 (Central Daylight Time),629252.5,016_y_m_n_a.png,O,m,1187,5,1,2212.0,627040.5,7093,VNB,B,3
4,test,3,0.0,2-Back,1,m,Tue Mar 11 2025 13:51:27 GMT-0500 (Central Daylight Time),631751.3999999985,004_o_m_h_a.png,O,m,1475,6,1,2495.39999999851,629256.0,7093,VNB,B,4
5,test,3,0.0,2-Back,1,z,Tue Mar 11 2025 13:51:27 GMT-0500 (Central Daylight Time),633750.8999999985,020_y_f_n_a.png,O,z,975,7,1,1995.8999999985099,631755.0,7093,VNB,B,5
6,test,3,1.0,2-Back,1,m,Tue Mar 11 2025 13:51:27 GMT-0500 (Central Daylight Time),635866.8999999985,007_m_m_d_a.png,O,m,1096,8,1,2112.2000000029802,633754.6999999955,7093,VNB,B,6
7,test,3,0.0,2-Back,1,m,Tue Mar 11 2025 13:51:27 GMT-0500 (Central Daylight Time),637866.5,016_y_m_d_a.png,O,m,972,9,1,1995.9000000059605,635870.599999994,7093,VNB,B,7
8,test,3,0.0,2-Back,1,m,Tue Mar 11 2025 13:51:27 GMT-0500 (Central Daylight Time),640365.5,005_o_f_h_a.png,O,m,1469,10,1,2495.4000000059605,637870.099999994,7093,VNB,B,8
9,test,3,1.0,2-Back,1,m,Tue Mar 11 2025 13:51:27 GMT-0500 (Central Daylight Time),642764.6999999955,011_m_f_n_a.png,O,m,1369,11,1,2395.39999999851,640369.299999997,7093,VNB,B,9
9,test,3,1.0,2-Back,0,z,Tue Mar 11 2025 13:51:27 GMT-0500 (Central Daylight Time),645447.299999997,007_m_m_h_a.png,O,m,1650,12,1,2679.2000000029802,642768.099999994,7093,VNB,B,10
9,test,3,0.0,2-Back,0,m,Tue Mar 11 2025 13:51:27 GMT-0500 (Central Daylight Time),647513.299999997,020_y_f_d_a.png,O,z,1041,13,1,2062.10000000149,645451.1999999955,7093,VNB,B,11
10,test,3,0.0,2-Back,1,m,Tue Mar 11 2025 13:51:27 GMT-0500 (Central Daylight Time),649729.299999997,005_o_f_n_a.png,O,m,1189,14,1,2212.10000000149,647517.1999999955,7093,VNB,B,12
11,test,3,0.0,2-Back,1,z,Tue Mar 11 2025 13:51:27 GMT-0500 (Central Daylight Time),652078.3999999985,004_o_m_d_a.png,O,z,1318,15,1,2345.3000000044703,649733.099999994,7093,VNB,B,13
12,test,3,1.0,2-Back,1,m,Tue Mar 11 2025 13:51:27 GMT-0500 (Central Daylight Time),654927.5,011_m_f_h_a.png,O,m,1824,16,1,2845.4000000059605,652082.099999994,7093,VNB,B,14
12,test,3,0.0,2-Back,0,m,Tue Mar 11 2025 13:51:27 GMT-0500 (Central Daylight Time),657010.299999997,007_m_m_n_a.png,O,z,1057,17,1,2079.0,654931.299999997,7093,VNB,B,15
13,test,3,0.0,2-Back,1,z,Tue Mar 11 2025 13:51:27 GMT-0500 (Central Daylight Time),659542.799999997,016_y_m_h_a.png,O,z,1501,18,1,2528.60000000149,657014.1999999955,7093,VNB,B,16
0,test,4,0.0,2-Back,,,Tue Mar 11 2025 13:51:27 GMT-0500 (Central Daylight Time),659542.799999997,011_m_f_n_a.png,O,space,2153,1,1,2528.60000000149,657014.1999999955,7093,VNB,B,0
0,test,4,0.0,2-Back,,,Tue Mar 11 2025 13:51:27 GMT-0500 (Central Daylight Time),659542.799999997,004_o_m_n_a.png,O,space,2153,2,1,2528.60000000149,657014.1999999955,7093,VNB,B,0
1,test,4,1.0,2-Back,1,m,Tue Mar 11 2025 13:51:27 GMT-0500 (Central Daylight Time),669356.5,016_y_m_h_a.png,O,m,1396,3,1,2411.8000000044703,666944.6999999955,7093,VNB,B,1
2,test,4,1.0,2-Back,1,m,Tue Mar 11 2025 13:51:27 GMT-0500 (Central Daylight Time),672055.5,005_o_f_d_a.png,O,m,1676,4,1,2695.10000000149,669360.3999999985,7093,VNB,B,2
3,test,4,0.0,2-Back,1,z,Tue Mar 11 2025 13:51:27 GMT-0500 (Central Daylight Time),674971.6999999955,004_o_m_h_a.png,O,z,1887,5,1,2912.39999999851,672059.299999997,7093,VNB,B,3
3,test,4,0.0,2-Back,0,m,Tue Mar 11 2025 13:51:27 GMT-0500 (Central Daylight Time),678004.0,007_m_m_n_a.png,O,None,2016,6,1,3028.8000000044703,674975.1999999955,7093,VNB,B,4
3,test,4,0.0,2-Back,0,m,Tue Mar 11 2025 13:51:27 GMT-0500 (Central Daylight Time),680753.0,011_m_f_d_a.png,O,z,1716,7,1,2746.0,678007.0,7093,VNB,B,5
4,test,4,0.0,2-Back,1,z,Tue Mar 11 2025 13:51:27 GMT-0500 (Central Daylight Time),683535.5,020_y_f_n_a.png,O,z,1758,8,1,2778.9000000059605,680756.599999994,7093,VNB,B,6
5,test,4,1.0,2-Back,1,m,Tue Mar 11 2025 13:51:27 GMT-0500 (Central Daylight Time),685368.1999999955,005_o_f_h_a.png,O,m,800,9,1,1829.1000000014901,683539.099999994,7093,VNB,B,7
6,test,4,0.0,2-Back,1,m,Tue Mar 11 2025 13:51:27 GMT-0500 (Central Daylight Time),687467.5,007_m_m_h_a.png,O,m,1079,10,1,2095.60000000149,685371.8999999985,7093,VNB,B,8
7,test,4,0.0,2-Back,1,m,Tue Mar 11 2025 13:51:27 GMT-0500 (Central Daylight Time),689583.299999997,020_y_f_d_a.png,O,m,1084,11,1,2112.60000000149,687470.6999999955,7093,VNB,B,9
8,test,4,0.0,2-Back,1,m,Tue Mar 11 2025 13:51:27 GMT-0500 (Central Daylight Time),691832.6999999955,016_y_m_n_a.png,O,m,1217,12,1,2245.5,689587.1999999955,7093,VNB,B,10
9,test,4,0.0,2-Back,1,z,Tue Mar 11 2025 13:51:27 GMT-0500 (Central Daylight Time),694715.299999997,004_o_m_d_a.png,O,z,1863,13,1,2878.7000000029802,691836.599999994,7093,VNB,B,11
10,test,4,1.0,2-Back,1,m,Tue Mar 11 2025 13:51:27 GMT-0500 (Central Daylight Time),696764.5,011_m_f_h_a.png,O,m,1019,14,1,2045.3000000044703,694719.1999999955,7093,VNB,B,12
11,test,4,1.0,2-Back,1,m,Tue Mar 11 2025 13:51:27 GMT-0500 (Central Daylight Time),698747.1999999955,020_y_f_h_a.png,O,m,954,15,1,1979.1000000014901,696768.099999994,7093,VNB,B,13
11,test,4,0.0,2-Back,0,m,Tue Mar 11 2025 13:51:27 GMT-0500 (Central Daylight Time),700896.599999994,005_o_f_n_a.png,O,z,1125,16,1,2145.6999999955297,698750.8999999985,7093,VNB,B,14
12,test,4,0.0,2-Back,1,m,Tue Mar 11 2025 13:51:27 GMT-0500 (Central Daylight Time),703129.299999997,016_y_m_d_a.png,O,m,1207,17,1,2228.89999999851,700900.3999999985,7093,VNB,B,15
12,test,4,1.0,2-Back,0,m,Tue Mar 11 2025 13:51:27 GMT-0500 (Central Daylight Time),705845.0,007_m_m_d_a.png,O,z,1694,18,1,2712.10000000149,703132.8999999985,7093,VNB,B,16
0,test,5,1.0,2-Back,,,Tue Mar 11 2025 13:51:27 GMT-0500 (Central Daylight Time),705845.0,020_y_f_d_a.png,O,space,2218,1,1,2712.10000000149,703132.8999999985,7093,VNB,B,0
0,test,5,1.0,2-Back,,,Tue Mar 11 2025 13:51:27 GMT-0500 (Central Daylight Time),705845.0,005_o_f_h_a.png,O,space,2218,2,1,2712.10000000149,703132.8999999985,7093,VNB,B,0
1,test,5,1.0,2-Back,1,z,Tue Mar 11 2025 13:51:27 GMT-0500 (Central Daylight Time),715608.799999997,004_o_m_d_a.png,O,z,1265,3,1,2279.2000000029802,713329.599999994,7093,VNB,B,1
2,test,5,1.0,2-Back,1,m,Tue Mar 11 2025 13:51:27 GMT-0500 (Central Daylight Time),717541.3999999985,011_m_f_n_a.png,O,m,912,4,1,1928.8000000044703,715612.599999994,7093,VNB,B,2
3,test,5,0.0,2-Back,1,m,Tue Mar 11 2025 13:51:27 GMT-0500 (Central Daylight Time),719609.1999999955,007_m_m_h_a.png,O,m,1042,5,1,2064.0,717545.1999999955,7093,VNB,B,3
3,test,5,0.0,2-Back,0,z,Tue Mar 11 2025 13:51:27 GMT-0500 (Central Daylight Time),722106.6999999955,020_y_f_n_a.png,O,m,1480,6,1,2494.0,719612.6999999955,7093,VNB,B,4
3,test,5,0.0,2-Back,0,m,Tue Mar 11 2025 13:51:27 GMT-0500 (Central Daylight Time),724357.0,005_o_f_d_a.png,O,z,1229,7,1,2246.9000000059605,722110.099999994,7093,VNB,B,5
3,test,5,0.0,2-Back,0,m,Tue Mar 11 2025 13:51:27 GMT-0500 (Central Daylight Time),726688.6999999955,004_o_m_h_a.png,O,z,1315,8,1,2327.39999999851,724361.299999997,7093,VNB,B,6
3,test,5,1.0,2-Back,0,z,Tue Mar 11 2025 13:51:27 GMT-0500 (Central Daylight Time),728654.599999994,011_m_f_d_a.png,O,m,944,9,1,1962.6999999955297,726691.8999999985,7093,VNB,B,7
3,test,5,0.0,2-Back,0,m,Tue Mar 11 2025 13:51:27 GMT-0500 (Central Daylight Time),731387.0,016_y_m_n_a.png,O,z,1713,10,1,2728.8000000044703,728658.1999999955,7093,VNB,B,8
4,test,5,0.0,2-Back,1,m,Tue Mar 11 2025 13:51:27 GMT-0500 (Central Daylight Time),734019.5,007_m_m_n_a.png,O,m,1613,11,1,2628.7000000029802,731390.799999997,7093,VNB,B,9
5,test,5,0.0,2-Back,1,m,Tue Mar 11 2025 13:51:27 GMT-0500 (Central Daylight Time),736085.5,020_y_f_h_a.png,O,m,1036,12,1,2062.0,734023.5,7093,VNB,B,10
6,test,5,0.0,2-Back,1,m,Tue Mar 11 2025 13:51:27 GMT-0500 (Central Daylight Time),738268.299999997,016_y_m_d_a.png,O,m,1161,13,1,2179.7000000029802,736088.599999994,7093,VNB,B,11
7,test,5,1.0,2-Back,1,z,Tue Mar 11 2025 13:51:27 GMT-0500 (Central Daylight Time),739917.6999999955,011_m_f_h_a.png,O,z,627,14,1,1645.6999999955297,738272.0,7093,VNB,B,12
7,test,5,0.0,2-Back,0,m,Tue Mar 11 2025 13:51:27 GMT-0500 (Central Daylight Time),742083.6999999955,004_o_m_n_a.png,O,z,1146,15,1,2162.39999999851,739921.299999997,7093,VNB,B,13
8,test,5,0.0,2-Back,1,m,Tue Mar 11 2025 13:51:27 GMT-0500 (Central Daylight Time),744416.3999999985,007_m_m_d_a.png,O,m,1309,16,1,2329.10000000149,742087.299999997,7093,VNB,B,14
8,test,5,0.0,2-Back,0,z,Tue Mar 11 2025 13:51:27 GMT-0500 (Central Daylight Time),746965.5,005_o_f_n_a.png,O,m,1527,17,1,2545.2000000029802,744420.299999997,7093,VNB,B,15
9,test,5,1.0,2-Back,1,m,Tue Mar 11 2025 13:51:27 GMT-0500 (Central Daylight Time),748931.799999997,016_y_m_h_a.png,O,m,947,18,1,1962.3999999985099,746969.3999999985,7093,VNB,B,16
