Number,acc_sum,block,block_c,block_cond,con_img,correct,correct_response,datetime,endtime,jitter,project,response,response_time,row_sel,session_number,start_end,starttime,subject_id,task,task_vers,trial
8,0,prac,1,A,circle.png,0,m,Thu Oct 24 2024 14:37:35 GMT-0500 (Central Daylight Time),55615.69999998808,1600,O,None,1513,7,1,3891.199999988079,51724.5,7030,NTS,B,1
9,0,prac,1,A,circle.png,0,m,Thu Oct 24 2024 14:37:35 GMT-0500 (Central Daylight Time),59431.0,1500,O,None,1512,8,1,3789.5,55641.5,7030,NTS,B,2
4,1,prac,1,A,circle.png,1,z,Thu Oct 24 2024 14:37:35 GMT-0500 (Central Daylight Time),62746.5,1400,O,z,1112,4,1,3294.300000011921,59452.19999998808,7030,NTS,B,3
2,2,prac,1,A,circle.png,1,z,Thu Oct 24 2024 14:37:35 GMT-0500 (Central Daylight Time),66311.80000001192,2000,O,z,759,2,1,3534.699999988079,62777.10000002384,7030,NTS,B,4
6,3,prac,1,A,circle.png,1,m,Thu Oct 24 2024 14:37:35 GMT-0500 (Central Daylight Time),69810.69999998808,1900,O,m,780,5,1,3468.300000011921,66342.39999997616,7030,NTS,B,5
1,4,prac,1,A,circle.png,1,z,Thu Oct 24 2024 14:37:35 GMT-0500 (Central Daylight Time),72576.60000002384,1000,O,z,943,1,1,2734.900000035763,69841.69999998808,7030,NTS,B,6
6,5,prac,1,A,circle.png,1,m,Thu Oct 24 2024 14:37:35 GMT-0500 (Central Daylight Time),76142.10000002384,1900,O,m,853,5,1,3539.0,72603.10000002384,7030,NTS,B,7
4,6,prac,1,A,circle.png,1,z,Thu Oct 24 2024 14:37:35 GMT-0500 (Central Daylight Time),79341.0,1400,O,z,988,4,1,3172.100000023842,76168.89999997616,7030,NTS,B,8
3,7,prac,1,A,circle.png,1,z,Thu Oct 24 2024 14:37:35 GMT-0500 (Central Daylight Time),82390.0,1200,O,z,1044,3,1,3019.100000023842,79370.89999997616,7030,NTS,B,9
8,8,prac,1,A,circle.png,1,m,Thu Oct 24 2024 14:37:35 GMT-0500 (Central Daylight Time),85605.5,1600,O,m,804,7,1,3187.300000011921,82418.19999998808,7030,NTS,B,10
9,9,prac,1,A,circle.png,1,m,Thu Oct 24 2024 14:37:35 GMT-0500 (Central Daylight Time),88722.0,1500,O,m,808,8,1,3092.600000023842,85629.39999997616,7030,NTS,B,11
7,10,prac,1,A,circle.png,1,m,Thu Oct 24 2024 14:37:35 GMT-0500 (Central Daylight Time),92303.60000002384,1700,O,m,1068,6,1,3555.300000011921,88748.30000001192,7030,NTS,B,12
8,1,prac,1,B,triangle.png,1,m,Thu Oct 24 2024 14:37:35 GMT-0500 (Central Daylight Time),122710.0,1200,O,m,1411,7,1,3393.100000023842,119316.89999997616,7030,NTS,B,1
2,2,prac,1,B,triangle.png,1,m,Thu Oct 24 2024 14:37:35 GMT-0500 (Central Daylight Time),126542.10000002384,1700,O,m,1328,2,1,3804.5,122737.60000002384,7030,NTS,B,2
3,3,prac,1,B,triangle.png,1,z,Thu Oct 24 2024 14:37:35 GMT-0500 (Central Daylight Time),129674.5,1600,O,z,732,3,1,3105.300000011921,126569.19999998808,7030,NTS,B,3
7,4,prac,1,B,triangle.png,1,z,Thu Oct 24 2024 14:37:35 GMT-0500 (Central Daylight Time),133589.60000002384,2000,O,z,1112,6,1,3888.5,129701.10000002384,7030,NTS,B,4
2,4,prac,1,B,triangle.png,0,m,Thu Oct 24 2024 14:37:35 GMT-0500 (Central Daylight Time),137605.0,1700,O,None,1515,2,1,3990.800000011921,133614.19999998808,7030,NTS,B,5
1,5,prac,1,B,triangle.png,1,z,Thu Oct 24 2024 14:37:35 GMT-0500 (Central Daylight Time),141303.80000001192,1900,O,z,985,1,1,3670.100000023842,137633.69999998808,7030,NTS,B,6
4,6,prac,1,B,triangle.png,1,m,Thu Oct 24 2024 14:37:35 GMT-0500 (Central Daylight Time),144952.60000002384,1500,O,m,1334,4,1,3620.900000035763,141331.69999998808,7030,NTS,B,7
1,7,prac,1,B,triangle.png,1,z,Thu Oct 24 2024 14:37:35 GMT-0500 (Central Daylight Time),148551.69999998808,1900,O,z,886,1,1,3571.399999976158,144980.30000001192,7030,NTS,B,8
7,8,prac,1,B,triangle.png,1,z,Thu Oct 24 2024 14:37:35 GMT-0500 (Central Daylight Time),152300.19999998808,2000,O,z,939,6,1,3721.699999988079,148578.5,7030,NTS,B,9
6,9,prac,1,B,triangle.png,1,m,Thu Oct 24 2024 14:37:35 GMT-0500 (Central Daylight Time),155016.10000002384,1000,O,m,910,5,1,2688.2000000476837,152327.89999997616,7030,NTS,B,10
9,9,prac,1,B,triangle.png,0,z,Thu Oct 24 2024 14:37:35 GMT-0500 (Central Daylight Time),158564.80000001192,1400,O,m,1338,8,1,3521.5,155043.30000001192,7030,NTS,B,11
8,10,prac,1,B,triangle.png,1,m,Thu Oct 24 2024 14:37:35 GMT-0500 (Central Daylight Time),161397.39999997616,1200,O,m,829,7,1,2806.5,158590.89999997616,7030,NTS,B,12
2,0,test,1,A,circle.png,0,z,Thu Oct 24 2024 14:37:35 GMT-0500 (Central Daylight Time),184289.89999997616,2000,O,None,1515,2,1,3522.2999999523163,180767.60000002384,7030,NTS,B,1
9,1,test,1,A,circle.png,1,m,Thu Oct 24 2024 14:37:35 GMT-0500 (Central Daylight Time),186955.5,1500,O,m,1116,8,1,2643.100000023842,184312.39999997616,7030,NTS,B,2
6,2,test,1,A,circle.png,1,m,Thu Oct 24 2024 14:37:35 GMT-0500 (Central Daylight Time),189804.60000002384,1900,O,m,914,5,1,2829.2000000476837,186975.39999997616,7030,NTS,B,3
1,3,test,1,A,circle.png,1,z,Thu Oct 24 2024 14:37:35 GMT-0500 (Central Daylight Time),191520.80000001192,1000,O,z,677,1,1,1697.5,189823.30000001192,7030,NTS,B,4
4,4,test,1,A,circle.png,1,z,Thu Oct 24 2024 14:37:35 GMT-0500 (Central Daylight Time),194353.0,1400,O,z,1383,4,1,2813.399999976158,191539.60000002384,7030,NTS,B,5
9,5,test,1,A,circle.png,1,m,Thu Oct 24 2024 14:37:35 GMT-0500 (Central Daylight Time),196552.39999997616,1500,O,m,652,8,1,2178.899999976158,194373.5,7030,NTS,B,6
4,6,test,1,A,circle.png,1,z,Thu Oct 24 2024 14:37:35 GMT-0500 (Central Daylight Time),198818.19999998808,1400,O,z,814,4,1,2247.300000011921,196570.89999997616,7030,NTS,B,7
6,7,test,1,A,circle.png,1,m,Thu Oct 24 2024 14:37:35 GMT-0500 (Central Daylight Time),201733.80000001192,1900,O,m,971,5,1,2897.199999988079,198836.60000002384,7030,NTS,B,8
6,8,test,1,A,circle.png,1,m,Thu Oct 24 2024 14:37:35 GMT-0500 (Central Daylight Time),204532.80000001192,1900,O,m,863,5,1,2780.5,201752.30000001192,7030,NTS,B,9
2,9,test,1,A,circle.png,1,z,Thu Oct 24 2024 14:37:35 GMT-0500 (Central Daylight Time),207515.39999997616,2000,O,z,941,2,1,2965.2999999523163,204550.10000002384,7030,NTS,B,10
8,10,test,1,A,circle.png,1,m,Thu Oct 24 2024 14:37:35 GMT-0500 (Central Daylight Time),209997.89999997616,1600,O,m,846,7,1,2461.7999999523163,207536.10000002384,7030,NTS,B,11
4,11,test,1,A,circle.png,1,z,Thu Oct 24 2024 14:37:35 GMT-0500 (Central Daylight Time),212613.5,1400,O,z,1178,4,1,2596.0,210017.5,7030,NTS,B,12
7,12,test,1,A,circle.png,1,m,Thu Oct 24 2024 14:37:35 GMT-0500 (Central Daylight Time),215379.39999997616,1700,O,m,1024,6,1,2745.7999999523163,212633.60000002384,7030,NTS,B,13
3,13,test,1,A,circle.png,1,z,Thu Oct 24 2024 14:37:35 GMT-0500 (Central Daylight Time),217461.39999997616,1200,O,z,843,3,1,2062.599999964237,215398.80000001192,7030,NTS,B,14
6,14,test,1,A,circle.png,1,m,Thu Oct 24 2024 14:37:35 GMT-0500 (Central Daylight Time),220694.39999997616,1900,O,m,1312,5,1,3226.5,217467.89999997616,7030,NTS,B,15
1,15,test,1,A,circle.png,1,z,Thu Oct 24 2024 14:37:35 GMT-0500 (Central Daylight Time),222793.80000001192,1000,O,z,1058,1,1,2080.199999988079,220713.60000002384,7030,NTS,B,16
9,16,test,1,A,circle.png,1,m,Thu Oct 24 2024 14:37:35 GMT-0500 (Central Daylight Time),225242.19999998808,1500,O,m,899,8,1,2429.0,222813.19999998808,7030,NTS,B,17
8,17,test,1,A,circle.png,1,m,Thu Oct 24 2024 14:37:35 GMT-0500 (Central Daylight Time),227608.60000002384,1600,O,m,735,7,1,2356.800000011921,225251.80000001192,7030,NTS,B,18
3,18,test,1,A,circle.png,1,z,Thu Oct 24 2024 14:37:35 GMT-0500 (Central Daylight Time),229708.5,1200,O,z,864,3,1,2081.300000011921,227627.19999998808,7030,NTS,B,19
9,19,test,1,A,circle.png,1,m,Thu Oct 24 2024 14:37:35 GMT-0500 (Central Daylight Time),232273.89999997616,1500,O,m,1017,8,1,2547.199999988079,229726.69999998808,7030,NTS,B,20
4,20,test,1,A,circle.png,1,z,Thu Oct 24 2024 14:37:35 GMT-0500 (Central Daylight Time),234556.39999997616,1400,O,z,830,4,1,2262.099999964237,232294.30000001192,7030,NTS,B,21
2,21,test,1,A,circle.png,1,z,Thu Oct 24 2024 14:37:35 GMT-0500 (Central Daylight Time),237338.80000001192,2000,O,z,741,2,1,2762.699999988079,234576.10000002384,7030,NTS,B,22
3,21,test,1,A,circle.png,0,z,Thu Oct 24 2024 14:37:35 GMT-0500 (Central Daylight Time),239972.39999997616,1200,O,m,1396,3,1,2613.699999988079,237358.69999998808,7030,NTS,B,23
7,22,test,1,A,circle.png,1,m,Thu Oct 24 2024 14:37:35 GMT-0500 (Central Daylight Time),242503.89999997616,1700,O,m,786,6,1,2512.099999964237,239991.80000001192,7030,NTS,B,24
3,1,test,1,B,triangle.png,1,z,Thu Oct 24 2024 14:37:35 GMT-0500 (Central Daylight Time),259015.10000002384,1600,O,z,880,3,1,2498.0,256517.10000002384,7030,NTS,B,1
3,2,test,1,B,triangle.png,1,z,Thu Oct 24 2024 14:37:35 GMT-0500 (Central Daylight Time),261714.10000002384,2000,O,z,651,11,1,2678.300000011921,259035.80000001192,7030,NTS,B,2
7,3,test,1,B,triangle.png,1,z,Thu Oct 24 2024 14:37:35 GMT-0500 (Central Daylight Time),265045.5,2000,O,z,1286,6,1,3312.600000023842,261732.89999997616,7030,NTS,B,3
8,4,test,1,B,triangle.png,1,m,Thu Oct 24 2024 14:37:35 GMT-0500 (Central Daylight Time),266861.8000000119,1200,O,m,595,7,1,1811.1000000238419,265050.6999999881,7030,NTS,B,4
1,5,test,1,B,triangle.png,1,z,Thu Oct 24 2024 14:37:35 GMT-0500 (Central Daylight Time),269295.0,1900,O,z,513,1,1,2422.699999988079,266872.3000000119,7030,NTS,B,5
7,6,test,1,B,triangle.png,1,z,Thu Oct 24 2024 14:37:35 GMT-0500 (Central Daylight Time),272110.39999997616,2000,O,z,772,6,1,2797.099999964237,269313.3000000119,7030,NTS,B,6
2,7,test,1,B,triangle.png,1,m,Thu Oct 24 2024 14:37:35 GMT-0500 (Central Daylight Time),274176.89999997616,1200,O,m,819,10,1,2049.199999988079,272127.6999999881,7030,NTS,B,7
4,8,test,1,B,triangle.png,1,m,Thu Oct 24 2024 14:37:35 GMT-0500 (Central Daylight Time),276776.0,1500,O,m,1053,4,1,2581.199999988079,274194.8000000119,7030,NTS,B,8
4,9,test,1,B,triangle.png,1,m,Thu Oct 24 2024 14:37:35 GMT-0500 (Central Daylight Time),279007.6999999881,1500,O,m,694,4,1,2212.899999976158,276794.8000000119,7030,NTS,B,9
1,10,test,1,B,triangle.png,1,z,Thu Oct 24 2024 14:37:35 GMT-0500 (Central Daylight Time),281274.39999997616,1400,O,z,834,9,1,2258.399999976158,279016.0,7030,NTS,B,10
8,11,test,1,B,triangle.png,1,m,Thu Oct 24 2024 14:37:35 GMT-0500 (Central Daylight Time),283756.89999997616,1700,O,m,748,15,1,2461.599999964237,281295.3000000119,7030,NTS,B,11
2,12,test,1,B,triangle.png,1,m,Thu Oct 24 2024 14:37:35 GMT-0500 (Central Daylight Time),286805.89999997616,1700,O,m,1306,2,1,3029.099999964237,283776.8000000119,7030,NTS,B,12
3,13,test,1,B,triangle.png,1,z,Thu Oct 24 2024 14:37:35 GMT-0500 (Central Daylight Time),289138.5,1600,O,z,692,3,1,2313.0,286825.5,7030,NTS,B,13
4,14,test,1,B,triangle.png,1,m,Thu Oct 24 2024 14:37:35 GMT-0500 (Central Daylight Time),291054.5,1000,O,m,872,12,1,1898.699999988079,289155.8000000119,7030,NTS,B,14
6,15,test,1,B,triangle.png,1,m,Thu Oct 24 2024 14:37:35 GMT-0500 (Central Daylight Time),293020.60000002384,1000,O,m,924,5,1,1947.9000000357628,291072.6999999881,7030,NTS,B,15
3,16,test,1,B,triangle.png,1,z,Thu Oct 24 2024 14:37:35 GMT-0500 (Central Daylight Time),295735.8000000119,2000,O,z,677,11,1,2696.5,293039.3000000119,7030,NTS,B,16
1,17,test,1,B,triangle.png,1,z,Thu Oct 24 2024 14:37:35 GMT-0500 (Central Daylight Time),298285.39999997616,1900,O,z,623,1,1,2539.199999988079,295746.1999999881,7030,NTS,B,17
9,18,test,1,B,triangle.png,1,z,Thu Oct 24 2024 14:37:35 GMT-0500 (Central Daylight Time),301051.3000000119,1400,O,z,1317,8,1,2747.100000023842,298304.1999999881,7030,NTS,B,18
6,19,test,1,B,triangle.png,1,m,Thu Oct 24 2024 14:37:35 GMT-0500 (Central Daylight Time),303783.60000002384,1500,O,m,1188,13,1,2714.0,301069.60000002384,7030,NTS,B,19
6,20,test,1,B,triangle.png,1,m,Thu Oct 24 2024 14:37:35 GMT-0500 (Central Daylight Time),305649.6999999881,1000,O,m,819,5,1,1847.8999999761581,303801.8000000119,7030,NTS,B,20
7,21,test,1,B,triangle.png,1,z,Thu Oct 24 2024 14:37:35 GMT-0500 (Central Daylight Time),308332.39999997616,1600,O,z,1049,14,1,2663.2999999523163,305669.10000002384,7030,NTS,B,21
2,22,test,1,B,triangle.png,1,m,Thu Oct 24 2024 14:37:35 GMT-0500 (Central Daylight Time),311114.6999999881,1700,O,m,1034,2,1,2763.699999988079,308351.0,7030,NTS,B,22
9,23,test,1,B,triangle.png,1,z,Thu Oct 24 2024 14:37:35 GMT-0500 (Central Daylight Time),314530.1999999881,1900,O,z,1476,16,1,3395.300000011921,311134.89999997616,7030,NTS,B,23
9,24,test,1,B,triangle.png,1,z,Thu Oct 24 2024 14:37:35 GMT-0500 (Central Daylight Time),316662.8000000119,1400,O,z,688,8,1,2113.300000011921,314549.5,7030,NTS,B,24
7,0,prac,1,C,triangle.png,0,z,Thu Oct 24 2024 14:37:35 GMT-0500 (Central Daylight Time),352417.6999999881,1200,O,None,1515,6,1,3489.099999964237,348928.60000002384,7030,NTS,B,1
2,0,prac,1,C,triangle.png,0,m,Thu Oct 24 2024 14:37:35 GMT-0500 (Central Daylight Time),356333.0,1600,O,None,1516,2,1,3886.300000011921,352446.6999999881,7030,NTS,B,2
3,1,prac,1,C,triangle.png,1,z,Thu Oct 24 2024 14:37:35 GMT-0500 (Central Daylight Time),359982.5,1500,O,z,1345,3,1,3622.600000023842,356359.89999997616,7030,NTS,B,3
9,2,prac,1,C,circle.png,1,m,Thu Oct 24 2024 14:37:35 GMT-0500 (Central Daylight Time),363630.60000002384,1900,O,m,943,8,1,3620.600000023842,360010.0,7030,NTS,B,4
6,3,prac,1,C,circle.png,1,m,Thu Oct 24 2024 14:37:35 GMT-0500 (Central Daylight Time),367396.1999999881,2000,O,m,956,5,1,3742.800000011921,363653.39999997616,7030,NTS,B,5
6,4,prac,1,C,circle.png,1,m,Thu Oct 24 2024 14:37:35 GMT-0500 (Central Daylight Time),371061.8000000119,2000,O,m,855,5,1,3638.800000011921,367423.0,7030,NTS,B,6
8,4,prac,1,C,triangle.png,0,m,Thu Oct 24 2024 14:37:35 GMT-0500 (Central Daylight Time),374776.89999997616,1400,O,None,1515,7,1,3689.599999964237,371087.3000000119,7030,NTS,B,7
1,5,prac,1,C,circle.png,1,z,Thu Oct 24 2024 14:37:35 GMT-0500 (Central Daylight Time),378559.10000002384,1700,O,z,1278,1,1,3755.400000035763,374803.6999999881,7030,NTS,B,8
7,5,prac,1,C,triangle.png,0,z,Thu Oct 24 2024 14:37:35 GMT-0500 (Central Daylight Time),382074.60000002384,1200,O,None,1515,6,1,3489.900000035763,378584.6999999881,7030,NTS,B,9
4,5,prac,1,C,circle.png,0,z,Thu Oct 24 2024 14:37:35 GMT-0500 (Central Daylight Time),385390.10000002384,1000,O,None,1516,4,1,3289.600000023842,382100.5,7030,NTS,B,10
9,6,prac,1,C,circle.png,1,m,Thu Oct 24 2024 14:37:35 GMT-0500 (Central Daylight Time),389205.60000002384,1900,O,m,1112,8,1,3788.5,385417.10000002384,7030,NTS,B,11
2,7,prac,1,C,triangle.png,1,m,Thu Oct 24 2024 14:37:35 GMT-0500 (Central Daylight Time),392904.60000002384,1600,O,m,1284,2,1,3672.300000011921,389232.3000000119,7030,NTS,B,12
2,0,prac,2,C,triangle.png,0,m,Thu Oct 24 2024 14:37:35 GMT-0500 (Central Daylight Time),408832.6999999881,1600,O,None,1515,2,1,3889.800000011921,404942.89999997616,7030,NTS,B,1
4,0,prac,2,C,circle.png,0,z,Thu Oct 24 2024 14:37:35 GMT-0500 (Central Daylight Time),411848.39999997616,1000,O,m,1185,4,1,2976.0,408872.39999997616,7030,NTS,B,2
7,1,prac,2,C,triangle.png,1,z,Thu Oct 24 2024 14:37:35 GMT-0500 (Central Daylight Time),415347.1999999881,1200,O,z,1489,6,1,3472.699999988079,411874.5,7030,NTS,B,3
3,2,prac,2,C,triangle.png,1,z,Thu Oct 24 2024 14:37:35 GMT-0500 (Central Daylight Time),418562.60000002384,1500,O,z,907,3,1,3188.5,415374.10000002384,7030,NTS,B,4
8,3,prac,2,C,triangle.png,1,m,Thu Oct 24 2024 14:37:35 GMT-0500 (Central Daylight Time),421628.39999997616,1400,O,m,864,7,1,3039.199999988079,418589.1999999881,7030,NTS,B,5
9,4,prac,2,C,circle.png,1,m,Thu Oct 24 2024 14:37:35 GMT-0500 (Central Daylight Time),425044.39999997616,1900,O,m,714,8,1,3389.899999976158,421654.5,7030,NTS,B,6
2,4,prac,2,C,triangle.png,0,m,Thu Oct 24 2024 14:37:35 GMT-0500 (Central Daylight Time),428959.1999999881,1600,O,None,1515,2,1,3888.399999976158,425070.8000000119,7030,NTS,B,7
1,5,prac,2,C,circle.png,1,z,Thu Oct 24 2024 14:37:35 GMT-0500 (Central Daylight Time),432758.3000000119,1700,O,z,1287,1,1,3773.400000035763,428984.89999997616,7030,NTS,B,8
1,6,prac,2,C,circle.png,1,z,Thu Oct 24 2024 14:37:35 GMT-0500 (Central Daylight Time),436306.8000000119,1700,O,z,1032,1,1,3522.699999988079,432784.10000002384,7030,NTS,B,9
3,7,prac,2,C,triangle.png,1,z,Thu Oct 24 2024 14:37:35 GMT-0500 (Central Daylight Time),439705.6999999881,1500,O,z,1092,3,1,3372.0,436333.6999999881,7030,NTS,B,10
6,8,prac,2,C,circle.png,1,m,Thu Oct 24 2024 14:37:35 GMT-0500 (Central Daylight Time),443421.3000000119,2000,O,m,914,5,1,3690.800000011921,439730.5,7030,NTS,B,11
7,9,prac,2,C,triangle.png,1,z,Thu Oct 24 2024 14:37:35 GMT-0500 (Central Daylight Time),446786.6999999881,1200,O,z,1365,6,1,3339.300000011921,443447.39999997616,7030,NTS,B,12
1,1,test,1,C,triangle.png,1,z,Thu Oct 24 2024 14:37:35 GMT-0500 (Central Daylight Time),463314.5,1900,O,z,919,9,1,2847.399999976158,460467.10000002384,7030,NTS,B,1
4,2,test,1,C,triangle.png,1,m,Thu Oct 24 2024 14:37:35 GMT-0500 (Central Daylight Time),465847.1999999881,1500,O,m,988,20,1,2512.599999964237,463334.60000002384,7030,NTS,B,2
6,3,test,1,C,circle.png,1,m,Thu Oct 24 2024 14:37:35 GMT-0500 (Central Daylight Time),468579.39999997616,1900,O,m,792,21,1,2712.699999988079,465866.6999999881,7030,NTS,B,3
6,4,test,1,C,circle.png,1,m,Thu Oct 24 2024 14:37:35 GMT-0500 (Central Daylight Time),471311.89999997616,1900,O,m,795,5,1,2712.599999964237,468599.3000000119,7030,NTS,B,4
2,4,test,1,C,triangle.png,0,m,Thu Oct 24 2024 14:37:35 GMT-0500 (Central Daylight Time),474227.6999999881,2000,O,z,875,2,1,2896.199999988079,471331.5,7030,NTS,B,5
1,4,test,1,C,circle.png,0,z,Thu Oct 24 2024 14:37:35 GMT-0500 (Central Daylight Time),476776.6999999881,1000,O,None,1516,1,1,2530.599999964237,474246.10000002384,7030,NTS,B,6
8,5,test,1,C,triangle.png,1,m,Thu Oct 24 2024 14:37:35 GMT-0500 (Central Daylight Time),479609.6999999881,1600,O,m,1185,23,1,2814.5,476795.1999999881,7030,NTS,B,7
3,6,test,1,C,triangle.png,1,z,Thu Oct 24 2024 14:37:35 GMT-0500 (Central Daylight Time),482108.6999999881,1200,O,z,1265,3,1,2478.5,479630.1999999881,7030,NTS,B,8
4,7,test,1,C,triangle.png,1,m,Thu Oct 24 2024 14:37:35 GMT-0500 (Central Daylight Time),484507.39999997616,1500,O,m,858,12,1,2379.2999999523163,482128.10000002384,7030,NTS,B,9
7,8,test,1,C,triangle.png,1,z,Thu Oct 24 2024 14:37:35 GMT-0500 (Central Daylight Time),487256.0,1700,O,z,1010,22,1,2728.800000011921,484527.1999999881,7030,NTS,B,10
9,9,test,1,C,circle.png,1,m,Thu Oct 24 2024 14:37:35 GMT-0500 (Central Daylight Time),489755.6999999881,1500,O,m,974,24,1,2490.800000011921,487264.89999997616,7030,NTS,B,11
1,10,test,1,C,triangle.png,1,z,Thu Oct 24 2024 14:37:35 GMT-0500 (Central Daylight Time),492454.8000000119,1900,O,z,755,17,1,2679.100000023842,489775.6999999881,7030,NTS,B,12
3,10,test,1,C,circle.png,0,z,Thu Oct 24 2024 14:37:35 GMT-0500 (Central Daylight Time),495370.60000002384,1600,O,m,1276,19,1,2895.400000035763,492475.1999999881,7030,NTS,B,13
6,10,test,1,C,triangle.png,0,m,Thu Oct 24 2024 14:37:35 GMT-0500 (Central Daylight Time),497920.0,1000,O,None,1516,13,1,2529.300000011921,495390.6999999881,7030,NTS,B,14
9,10,test,1,C,triangle.png,0,z,Thu Oct 24 2024 14:37:35 GMT-0500 (Central Daylight Time),500452.1999999881,1400,O,m,1083,16,1,2512.800000011921,497939.39999997616,7030,NTS,B,15
8,11,test,1,C,circle.png,1,m,Thu Oct 24 2024 14:37:35 GMT-0500 (Central Daylight Time),502917.3000000119,1200,O,m,1229,15,1,2445.300000011921,500472.0,7030,NTS,B,16
9,12,test,1,C,circle.png,1,m,Thu Oct 24 2024 14:37:35 GMT-0500 (Central Daylight Time),505283.8000000119,1500,O,m,833,8,1,2361.699999988079,502922.10000002384,7030,NTS,B,17
3,13,test,1,C,circle.png,1,z,Thu Oct 24 2024 14:37:35 GMT-0500 (Central Daylight Time),508016.39999997616,1600,O,z,1086,11,1,2712.399999976158,505304.0,7030,NTS,B,18
7,14,test,1,C,triangle.png,1,z,Thu Oct 24 2024 14:37:35 GMT-0500 (Central Daylight Time),510948.60000002384,1700,O,z,1197,6,1,2907.300000011921,508041.3000000119,7030,NTS,B,19
7,15,test,1,C,circle.png,1,m,Thu Oct 24 2024 14:37:35 GMT-0500 (Central Daylight Time),514164.5,2000,O,m,1174,14,1,3195.899999976158,510968.60000002384,7030,NTS,B,20
2,16,test,1,C,circle.png,1,z,Thu Oct 24 2024 14:37:35 GMT-0500 (Central Daylight Time),516980.10000002384,1700,O,z,1074,18,1,2796.800000011921,514183.3000000119,7030,NTS,B,21
8,16,test,1,C,triangle.png,0,m,Thu Oct 24 2024 14:37:35 GMT-0500 (Central Daylight Time),520129.1999999881,1600,O,None,1515,7,1,3129.399999976158,516999.8000000119,7030,NTS,B,22
4,17,test,1,C,circle.png,1,z,Thu Oct 24 2024 14:37:35 GMT-0500 (Central Daylight Time),522661.39999997616,1400,O,z,1097,4,1,2513.699999988079,520147.6999999881,7030,NTS,B,23
2,18,test,1,C,circle.png,1,z,Thu Oct 24 2024 14:37:35 GMT-0500 (Central Daylight Time),525077.6000000238,1700,O,z,673,10,1,2397.2000000476837,522680.39999997616,7030,NTS,B,24
1,1,test,2,C,circle.png,1,z,Thu Oct 24 2024 14:37:35 GMT-0500 (Central Daylight Time),534974.6000000238,1000,O,z,1413,1,1,2432.900000035763,532541.6999999881,7030,NTS,B,1
4,2,test,2,C,triangle.png,1,m,Thu Oct 24 2024 14:37:35 GMT-0500 (Central Daylight Time),538006.6999999881,1500,O,m,1488,12,1,3012.699999988079,534994.0,7030,NTS,B,2
3,3,test,2,C,circle.png,1,z,Thu Oct 24 2024 14:37:35 GMT-0500 (Central Daylight Time),540939.0,1600,O,z,1284,11,1,2913.600000023842,538025.3999999762,7030,NTS,B,3
2,3,test,2,C,triangle.png,0,m,Thu Oct 24 2024 14:37:35 GMT-0500 (Central Daylight Time),544005.0,2000,O,z,1032,2,1,3046.399999976158,540958.6000000238,7030,NTS,B,4
2,4,test,2,C,circle.png,1,z,Thu Oct 24 2024 14:37:35 GMT-0500 (Central Daylight Time),546853.3999999762,1700,O,z,1114,10,1,2829.699999988079,544023.6999999881,7030,NTS,B,5
4,4,test,2,C,circle.png,0,z,Thu Oct 24 2024 14:37:35 GMT-0500 (Central Daylight Time),549502.8000000119,1400,O,m,1213,4,1,2630.400000035763,546872.3999999762,7030,NTS,B,6
8,5,test,2,C,circle.png,1,m,Thu Oct 24 2024 14:37:35 GMT-0500 (Central Daylight Time),551585.3999999762,1200,O,m,843,23,1,2064.099999964237,549521.3000000119,7030,NTS,B,7
6,6,test,2,C,circle.png,1,m,Thu Oct 24 2024 14:37:35 GMT-0500 (Central Daylight Time),554484.8999999762,1900,O,m,965,5,1,2881.0,551603.8999999762,7030,NTS,B,8
1,7,test,2,C,triangle.png,1,z,Thu Oct 24 2024 14:37:35 GMT-0500 (Central Daylight Time),557416.8999999762,1900,O,z,994,17,1,2915.099999964237,554501.8000000119,7030,NTS,B,9
7,8,test,2,C,triangle.png,1,z,Thu Oct 24 2024 14:37:35 GMT-0500 (Central Daylight Time),559948.6999999881,1700,O,z,797,6,1,2512.399999976158,557436.3000000119,7030,NTS,B,10
1,9,test,2,C,triangle.png,1,z,Thu Oct 24 2024 14:37:35 GMT-0500 (Central Daylight Time),562515.3000000119,1900,O,z,642,9,1,2557.800000011921,559957.5,7030,NTS,B,11
4,9,test,2,C,triangle.png,0,m,Thu Oct 24 2024 14:37:35 GMT-0500 (Central Daylight Time),564947.6999999881,1500,O,z,891,20,1,2411.800000011921,562535.8999999762,7030,NTS,B,12
8,10,test,2,C,triangle.png,1,m,Thu Oct 24 2024 14:37:35 GMT-0500 (Central Daylight Time),567796.8000000119,1600,O,m,1207,7,1,2829.100000023842,564967.6999999881,7030,NTS,B,13
7,10,test,2,C,circle.png,0,m,Thu Oct 24 2024 14:37:35 GMT-0500 (Central Daylight Time),571145.6000000238,2000,O,z,1302,22,1,3328.7000000476837,567816.8999999762,7030,NTS,B,14
3,10,test,2,C,triangle.png,0,z,Thu Oct 24 2024 14:37:35 GMT-0500 (Central Daylight Time),573894.8000000119,1200,O,None,1516,3,1,2731.0,571163.8000000119,7030,NTS,B,15
9,11,test,2,C,circle.png,1,m,Thu Oct 24 2024 14:37:35 GMT-0500 (Central Daylight Time),576527.1000000238,1500,O,m,1088,8,1,2614.800000011921,573912.3000000119,7030,NTS,B,16
9,11,test,2,C,triangle.png,0,z,Thu Oct 24 2024 14:37:35 GMT-0500 (Central Daylight Time),579476.3999999762,1400,O,None,1515,24,1,2930.5,576545.8999999762,7030,NTS,B,17
8,11,test,2,C,circle.png,0,m,Thu Oct 24 2024 14:37:35 GMT-0500 (Central Daylight Time),582225.6999999881,1200,O,None,1516,15,1,2732.199999988079,579493.5,7030,NTS,B,18
9,12,test,2,C,triangle.png,1,z,Thu Oct 24 2024 14:37:35 GMT-0500 (Central Daylight Time),584708.1999999881,1400,O,z,1049,16,1,2463.599999964237,582244.6000000238,7030,NTS,B,19
6,13,test,2,C,triangle.png,1,m,Thu Oct 24 2024 14:37:35 GMT-0500 (Central Daylight Time),586657.3000000119,1000,O,m,903,13,1,1929.6000000238419,584727.6999999881,7030,NTS,B,20
2,13,test,2,C,circle.png,0,z,Thu Oct 24 2024 14:37:35 GMT-0500 (Central Daylight Time),589872.8000000119,1700,O,m,1469,18,1,3197.199999988079,586675.6000000238,7030,NTS,B,21
7,13,test,2,C,circle.png,0,m,Thu Oct 24 2024 14:37:35 GMT-0500 (Central Daylight Time),593421.8999999762,2000,O,None,1516,14,1,3529.699999988079,589892.1999999881,7030,NTS,B,22
3,13,test,2,C,circle.png,0,z,Thu Oct 24 2024 14:37:35 GMT-0500 (Central Daylight Time),596054.1999999881,1600,O,m,997,19,1,2613.800000011921,593440.3999999762,7030,NTS,B,23
6,13,test,2,C,triangle.png,0,m,Thu Oct 24 2024 14:37:35 GMT-0500 (Central Daylight Time),598603.3000000119,1000,O,None,1515,21,1,2529.699999988079,596073.6000000238,7030,NTS,B,24
4,0,test,3,C,triangle.png,0,m,Thu Oct 24 2024 14:37:35 GMT-0500 (Central Daylight Time),604601.6000000238,1500,O,None,1515,12,1,3031.400000035763,601570.1999999881,7030,NTS,B,1
9,1,test,3,C,circle.png,1,m,Thu Oct 24 2024 14:37:35 GMT-0500 (Central Daylight Time),607216.3999999762,1500,O,m,1074,8,1,2594.699999988079,604621.6999999881,7030,NTS,B,2
2,1,test,3,C,triangle.png,0,m,Thu Oct 24 2024 14:37:35 GMT-0500 (Central Daylight Time),610482.6999999881,2000,O,z,1233,2,1,3260.099999964237,607222.6000000238,7030,NTS,B,3
9,2,test,3,C,circle.png,1,m,Thu Oct 24 2024 14:37:35 GMT-0500 (Central Daylight Time),613381.6000000238,1500,O,m,1364,24,1,2878.2000000476837,610503.3999999762,7030,NTS,B,4
8,3,test,3,C,circle.png,1,m,Thu Oct 24 2024 14:37:35 GMT-0500 (Central Daylight Time),615547.8000000119,1200,O,m,925,15,1,2147.100000023842,613400.6999999881,7030,NTS,B,5
9,3,test,3,C,triangle.png,0,z,Thu Oct 24 2024 14:37:35 GMT-0500 (Central Daylight Time),618496.6999999881,1400,O,None,1516,16,1,2930.0,615566.6999999881,7030,NTS,B,6
1,4,test,3,C,triangle.png,1,z,Thu Oct 24 2024 14:37:35 GMT-0500 (Central Daylight Time),621112.6000000238,1900,O,z,678,9,1,2596.300000011921,618516.3000000119,7030,NTS,B,7
6,5,test,3,C,triangle.png,1,m,Thu Oct 24 2024 14:37:35 GMT-0500 (Central Daylight Time),622978.6999999881,1000,O,m,818,13,1,1845.3999999761581,621133.3000000119,7030,NTS,B,8
7,5,test,3,C,circle.png,0,m,Thu Oct 24 2024 14:37:35 GMT-0500 (Central Daylight Time),626360.8000000119,2000,O,z,1344,14,1,3362.199999988079,622998.6000000238,7030,NTS,B,9
7,6,test,3,C,triangle.png,1,z,Thu Oct 24 2024 14:37:35 GMT-0500 (Central Daylight Time),628976.6999999881,1700,O,z,878,22,1,2595.899999976158,626380.8000000119,7030,NTS,B,10
1,6,test,3,C,circle.png,0,z,Thu Oct 24 2024 14:37:35 GMT-0500 (Central Daylight Time),631392.6999999881,1000,O,m,1377,17,1,2386.0,629006.6999999881,7030,NTS,B,11
3,6,test,3,C,triangle.png,0,z,Thu Oct 24 2024 14:37:35 GMT-0500 (Central Daylight Time),634141.8000000119,1200,O,None,1516,3,1,2729.0,631412.8000000119,7030,NTS,B,12
6,7,test,3,C,circle.png,1,m,Thu Oct 24 2024 14:37:35 GMT-0500 (Central Daylight Time),637157.3000000119,1900,O,m,1073,21,1,2996.699999988079,634160.6000000238,7030,NTS,B,13
8,7,test,3,C,triangle.png,0,m,Thu Oct 24 2024 14:37:35 GMT-0500 (Central Daylight Time),639972.8999999762,1600,O,z,1173,7,1,2795.7999999523163,637177.1000000238,7030,NTS,B,14
2,7,test,3,C,triangle.png,0,m,Thu Oct 24 2024 14:37:35 GMT-0500 (Central Daylight Time),643522.0,2000,O,None,1516,18,1,3530.699999988079,639991.3000000119,7030,NTS,B,15
3,8,test,3,C,triangle.png,1,z,Thu Oct 24 2024 14:37:35 GMT-0500 (Central Daylight Time),646037.8000000119,1200,O,z,1272,19,1,2494.699999988079,643543.1000000238,7030,NTS,B,16
2,9,test,3,C,circle.png,1,z,Thu Oct 24 2024 14:37:35 GMT-0500 (Central Daylight Time),648920.1000000238,1700,O,z,1145,10,1,2863.600000023842,646056.5,7030,NTS,B,17
7,9,test,3,C,triangle.png,0,z,Thu Oct 24 2024 14:37:35 GMT-0500 (Central Daylight Time),651669.1999999881,1700,O,m,1006,6,1,2730.199999988079,648939.0,7030,NTS,B,18
4,9,test,3,C,circle.png,0,z,Thu Oct 24 2024 14:37:35 GMT-0500 (Central Daylight Time),654618.3000000119,1400,O,None,1515,20,1,2929.800000011921,651688.5,7030,NTS,B,19
3,10,test,3,C,circle.png,1,z,Thu Oct 24 2024 14:37:35 GMT-0500 (Central Daylight Time),657317.3000000119,1600,O,z,1056,11,1,2680.199999988079,654637.1000000238,7030,NTS,B,20
4,11,test,3,C,circle.png,1,z,Thu Oct 24 2024 14:37:35 GMT-0500 (Central Daylight Time),659516.6999999881,1400,O,z,757,4,1,2179.300000011921,657337.3999999762,7030,NTS,B,21
1,12,test,3,C,circle.png,1,z,Thu Oct 24 2024 14:37:35 GMT-0500 (Central Daylight Time),661332.8000000119,1000,O,z,774,1,1,1795.699999988079,659537.1000000238,7030,NTS,B,22
8,13,test,3,C,triangle.png,1,m,Thu Oct 24 2024 14:37:35 GMT-0500 (Central Daylight Time),664464.5,1600,O,m,1485,23,1,3111.899999976158,661352.6000000238,7030,NTS,B,23
6,13,test,3,C,circle.png,0,m,Thu Oct 24 2024 14:37:35 GMT-0500 (Central Daylight Time),667430.6000000238,1900,O,z,1046,5,1,2953.100000023842,664477.5,7030,NTS,B,24
1,1,test,4,C,triangle.png,1,z,Thu Oct 24 2024 14:37:35 GMT-0500 (Central Daylight Time),672613.3999999762,1900,O,z,1049,9,1,2966.199999988079,669647.1999999881,7030,NTS,B,1
8,2,test,4,C,circle.png,1,m,Thu Oct 24 2024 14:37:35 GMT-0500 (Central Daylight Time),674795.1000000238,1200,O,m,934,15,1,2160.900000035763,672634.1999999881,7030,NTS,B,2
6,2,test,4,C,triangle.png,0,m,Thu Oct 24 2024 14:37:35 GMT-0500 (Central Daylight Time),677226.8000000119,1000,O,z,1382,13,1,2411.5,674815.3000000119,7030,NTS,B,3
6,2,test,4,C,circle.png,0,m,Thu Oct 24 2024 14:37:35 GMT-0500 (Central Daylight Time),680659.6999999881,1900,O,None,1516,5,1,3426.899999976158,677232.8000000119,7030,NTS,B,4
2,2,test,4,C,triangle.png,0,m,Thu Oct 24 2024 14:37:35 GMT-0500 (Central Daylight Time),683941.8999999762,2000,O,z,1239,2,1,3261.7999999523163,680680.1000000238,7030,NTS,B,5
1,3,test,4,C,circle.png,1,z,Thu Oct 24 2024 14:37:35 GMT-0500 (Central Daylight Time),685941.3999999762,1000,O,z,956,1,1,1980.199999988079,683961.1999999881,7030,NTS,B,6
9,4,test,4,C,circle.png,1,m,Thu Oct 24 2024 14:37:35 GMT-0500 (Central Daylight Time),688390.6000000238,1500,O,m,905,8,1,2428.800000011921,685961.8000000119,7030,NTS,B,7
7,4,test,4,C,circle.png,0,m,Thu Oct 24 2024 14:37:35 GMT-0500 (Central Daylight Time),691939.3999999762,2000,O,None,1515,14,1,3529.599999964237,688409.8000000119,7030,NTS,B,8
4,4,test,4,C,circle.png,0,z,Thu Oct 24 2024 14:37:35 GMT-0500 (Central Daylight Time),694888.3000000119,1400,O,None,1515,20,1,2930.0,691958.3000000119,7030,NTS,B,9
7,4,test,4,C,triangle.png,0,z,Thu Oct 24 2024 14:37:35 GMT-0500 (Central Daylight Time),698136.8000000119,1700,O,None,1515,6,1,3228.199999988079,694908.6000000238,7030,NTS,B,10
3,5,test,4,C,circle.png,1,z,Thu Oct 24 2024 14:37:35 GMT-0500 (Central Daylight Time),701152.8999999762,1600,O,z,1395,11,1,3007.199999988079,698145.6999999881,7030,NTS,B,11
3,6,test,4,C,triangle.png,1,z,Thu Oct 24 2024 14:37:35 GMT-0500 (Central Daylight Time),703552.3000000119,1200,O,z,1154,19,1,2379.100000023842,701173.1999999881,7030,NTS,B,12
4,7,test,4,C,triangle.png,1,m,Thu Oct 24 2024 14:37:35 GMT-0500 (Central Daylight Time),706551.1000000238,1500,O,m,1462,12,1,2975.100000023842,703576.0,7030,NTS,B,13
9,8,test,4,C,circle.png,1,m,Thu Oct 24 2024 14:37:35 GMT-0500 (Central Daylight Time),709216.8999999762,1500,O,m,1119,24,1,2645.199999988079,706571.6999999881,7030,NTS,B,14
7,8,test,4,C,triangle.png,0,z,Thu Oct 24 2024 14:37:35 GMT-0500 (Central Daylight Time),712465.8999999762,1700,O,None,1516,22,1,3230.2999999523163,709235.6000000238,7030,NTS,B,15
2,8,test,4,C,circle.png,0,z,Thu Oct 24 2024 14:37:35 GMT-0500 (Central Daylight Time),715714.8999999762,1700,O,None,1516,10,1,3230.2999999523163,712484.6000000238,7030,NTS,B,16
9,8,test,4,C,triangle.png,0,z,Thu Oct 24 2024 14:37:35 GMT-0500 (Central Daylight Time),718664.0,1400,O,None,1516,16,1,2930.0,715734.0,7030,NTS,B,17
8,8,test,4,C,triangle.png,0,m,Thu Oct 24 2024 14:37:35 GMT-0500 (Central Daylight Time),721812.6999999881,1600,O,None,1516,7,1,3129.899999976158,718682.8000000119,7030,NTS,B,18
2,9,test,4,C,triangle.png,1,m,Thu Oct 24 2024 14:37:35 GMT-0500 (Central Daylight Time),724911.8000000119,2000,O,m,1054,18,1,3079.600000023842,721832.1999999881,7030,NTS,B,19
3,10,test,4,C,triangle.png,1,z,Thu Oct 24 2024 14:37:35 GMT-0500 (Central Daylight Time),727444.1000000238,1200,O,z,1291,3,1,2511.7000000476837,724932.3999999762,7030,NTS,B,20
1,11,test,4,C,circle.png,1,z,Thu Oct 24 2024 14:37:35 GMT-0500 (Central Daylight Time),729876.6999999881,1000,O,z,1399,17,1,2414.300000011921,727462.3999999762,7030,NTS,B,21
8,12,test,4,C,triangle.png,1,m,Thu Oct 24 2024 14:37:35 GMT-0500 (Central Daylight Time),732692.6000000238,1600,O,m,1173,23,1,2790.600000023842,729902.0,7030,NTS,B,22
6,13,test,4,C,circle.png,1,m,Thu Oct 24 2024 14:37:35 GMT-0500 (Central Daylight Time),735941.1999999881,1900,O,m,1315,21,1,3229.199999988079,732712.0,7030,NTS,B,23
4,14,test,4,C,circle.png,1,z,Thu Oct 24 2024 14:37:35 GMT-0500 (Central Daylight Time),738873.8000000119,1400,O,z,1485,4,1,2913.0,735960.8000000119,7030,NTS,B,24
