acc_sum,block,block_c,condition,correct,correct_response,datetime,endtime,flanker,jitter,project,response,response_test_buffer_response,response_test_target_response,response_time,response_time_test_buffer_response,response_time_test_target_response,row_sel,session_number,start_end,starttime,subject_id,target,task,task_vers,time_test_buffer,time_test_buffer_response,time_test_constants,time_test_flanker,time_test_jitter,time_test_logger,time_test_target,time_test_target_response,time_test_variables,trial
1,prac,1,inc,1,z,Tue Feb 18 2025 14:00:35 GMT-0500 (Eastern Standard Time),164472.80000001192,window,1100,I,z,,,703,,,16,1,3107.300000011921,161365.5,9009,temper,AF,B,,,,,,,,,,1
2,prac,1,inc,1,m,Tue Feb 18 2025 14:00:35 GMT-0500 (Eastern Standard Time),167189.10000002384,kind,900,I,m,,,506,,,2,1,2706.400000035763,164482.69999998808,9009,rock,AF,B,,,,,,,,,,2
3,prac,1,inc,1,m,Tue Feb 18 2025 14:00:35 GMT-0500 (Eastern Standard Time),170105.89999997616,elated,900,I,m,,,684,,,6,1,2899.599999964237,167206.30000001192,9009,napkin,AF,B,,,,,,,,,,3
4,prac,1,con,1,m,Tue Feb 18 2025 14:00:35 GMT-0500 (Eastern Standard Time),173022.39999997616,step,800,I,m,,,813,,,1,1,2902.0,170120.39999997616,9009,step,AF,B,,,,,,,,,,4
5,prac,1,con,1,z,Tue Feb 18 2025 14:00:35 GMT-0500 (Eastern Standard Time),175905.39999997616,elated,800,I,z,,,777,,,9,1,2872.699999988079,173032.69999998808,9009,elated,AF,B,,,,,,,,,,5
6,prac,1,con,1,m,Tue Feb 18 2025 14:00:35 GMT-0500 (Eastern Standard Time),178689.30000001192,remote,1000,I,m,,,477,,,7,1,2776.800000011921,175912.5,9009,remote,AF,B,,,,,,,,,,6
7,prac,1,con,1,z,Tue Feb 18 2025 14:00:35 GMT-0500 (Eastern Standard Time),181239.19999998808,brutal,800,I,z,,,438,,,13,1,2540.300000011921,178698.89999997616,9009,brutal,AF,B,,,,,,,,,,7
8,prac,1,inc,1,m,Tue Feb 18 2025 14:00:35 GMT-0500 (Eastern Standard Time),184322.60000002384,brutal,1100,I,m,,,676,,,8,1,3073.5,181249.10000002384,9009,window,AF,B,,,,,,,,,,8
9,prac,1,inc,1,m,Tue Feb 18 2025 14:00:35 GMT-0500 (Eastern Standard Time),187821.89999997616,hate,1100,I,m,,,1079,,,4,1,3483.099999964237,184338.80000001192,9009,film,AF,B,,,,,,,,,,9
10,prac,1,inc,1,z,Tue Feb 18 2025 14:00:35 GMT-0500 (Eastern Standard Time),190789.0,napkin,1100,I,z,,,557,,,12,1,2958.5,187830.5,9009,friend,AF,B,,,,,,,,,,10
11,prac,1,con,1,m,Tue Feb 18 2025 14:00:35 GMT-0500 (Eastern Standard Time),193672.60000002384,bell,1000,I,m,,,569,,,3,1,2871.800000011921,190800.80000001192,9009,bell,AF,B,,,,,,,,,,11
12,prac,1,inc,1,z,Tue Feb 18 2025 14:00:35 GMT-0500 (Eastern Standard Time),196505.80000001192,rock,900,I,z,,,619,,,10,1,2823.600000023842,193682.19999998808,9009,kind,AF,B,,,,,,,,,,12
12,prac,1,inc,0,z,Tue Feb 18 2025 14:00:35 GMT-0500 (Eastern Standard Time),199222.30000001192,film,900,I,m,,,505,,,14,1,2707.199999988079,196515.10000002384,9009,hate,AF,B,,,,,,,,,,13
13,prac,1,con,1,z,Tue Feb 18 2025 14:00:35 GMT-0500 (Eastern Standard Time),202372.5,rage,1000,I,z,,,841,,,15,1,3139.399999976158,199233.10000002384,9009,rage,AF,B,,,,,,,,,,14
14,prac,1,con,1,z,Tue Feb 18 2025 14:00:35 GMT-0500 (Eastern Standard Time),205189.0,love,1000,I,z,,,508,,,11,1,2804.5,202384.5,9009,love,AF,B,,,,,,,,,,15
15,prac,1,con,1,m,Tue Feb 18 2025 14:00:35 GMT-0500 (Eastern Standard Time),208139.0,jacket,800,I,m,,,833,,,5,1,2940.800000011921,205198.19999998808,9009,jacket,AF,B,,,,,,,,,,16
1,test,1,inc,1,m,Tue Feb 18 2025 14:00:35 GMT-0500 (Eastern Standard Time),237855.39999997616,hate,1100,I,m,m,None,579,380.0,199.0,72,1,2208.199999988079,235647.19999998808,9009,step,AF,B,234642,234642,232816,233925,232817,235024,234442,234442,235024,1
2,test,1,inc,1,m,Tue Feb 18 2025 14:00:35 GMT-0500 (Eastern Standard Time),239855.80000001192,kind,900,I,m,m,None,563,364.0,199.0,78,1,1990.199999988079,237865.60000002384,9009,rock,AF,B,236658,236658,235035,235942,235035,237025,236459,236459,237025,2
3,test,1,inc,1,z,Tue Feb 18 2025 14:00:35 GMT-0500 (Eastern Standard Time),241939.10000002384,jacket,800,I,z,z,None,742,543.0,199.0,61,1,2073.7000000476837,239865.39999997616,9009,temper,AF,B,238558,238559,237034,237842,237035,239108,238359,238359,239108,3
4,test,1,inc,1,m,Tue Feb 18 2025 14:00:35 GMT-0500 (Eastern Standard Time),244172.30000001192,friend,1100,I,m,m,None,584,384.0,200.0,112,1,2224.800000011921,241947.5,9009,napkin,AF,B,240942,240942,239117,240225,239117,241341,240741,240741,241341,4
5,test,1,inc,1,z,Tue Feb 18 2025 14:00:35 GMT-0500 (Eastern Standard Time),246305.60000002384,bell,1000,I,z,z,None,578,379.0,199.0,23,1,2117.800000011921,244187.80000001192,9009,love,AF,B,243092,243092,241357,242375,241358,243475,242892,242892,243475,5
6,test,1,con,1,m,Tue Feb 18 2025 14:00:35 GMT-0500 (Eastern Standard Time),248621.89999997616,bell,1100,I,m,m,None,681,482.0,199.0,84,1,2307.599999964237,246314.30000001192,9009,bell,AF,B,245308,245309,243483,244592,243484,245791,245109,245109,245791,6
7,test,1,inc,1,m,Tue Feb 18 2025 14:00:35 GMT-0500 (Eastern Standard Time),250788.60000002384,hate,1100,I,m,m,None,525,325.0,200.0,96,1,2156.400000035763,248632.19999998808,9009,film,AF,B,247625,247625,245801,246908,245802,247958,247425,247425,247958,7
8,test,1,inc,1,z,Tue Feb 18 2025 14:00:35 GMT-0500 (Eastern Standard Time),252871.80000001192,jacket,800,I,z,z,None,738,539.0,199.0,37,1,2076.699999988079,250795.10000002384,9009,brutal,AF,B,249491,249491,247964,248775,247965,250041,249292,249292,250041,8
9,test,1,inc,1,m,Tue Feb 18 2025 14:00:35 GMT-0500 (Eastern Standard Time),255021.89999997616,friend,1100,I,m,m,None,514,315.0,199.0,104,1,2143.699999988079,252878.19999998808,9009,jacket,AF,B,251875,251875,250047,251159,250048,252191,251675,251675,252191,9
10,test,1,con,1,z,Tue Feb 18 2025 14:00:35 GMT-0500 (Eastern Standard Time),257105.5,rage,1100,I,z,z,None,445,246.0,199.0,52,1,2074.100000023842,255031.39999997616,9009,rage,AF,B,254025,254025,252200,253309,252201,254275,253826,253826,254274,10
11,test,1,con,1,m,Tue Feb 18 2025 14:00:35 GMT-0500 (Eastern Standard Time),259038.60000002384,window,800,I,m,m,None,597,398.0,199.0,121,1,1923.300000011921,257115.30000001192,9009,window,AF,B,255808,255808,254284,255092,254285,256208,255609,255609,256208,11
12,test,1,con,1,m,Tue Feb 18 2025 14:00:35 GMT-0500 (Eastern Standard Time),261038.80000001192,napkin,900,I,m,m,None,563,364.0,199.0,106,1,1994.0,259044.80000001192,9009,napkin,AF,B,257842,257842,256214,257125,256214,258208,257642,257642,258208,12
13,test,1,con,1,m,Tue Feb 18 2025 14:00:35 GMT-0500 (Eastern Standard Time),263088.89999997616,step,1100,I,m,m,None,412,212.0,200.0,68,1,2041.0999999642372,261047.80000001192,9009,step,AF,B,260042,260042,258217,259326,258217,260258,259841,259841,260258,13
14,test,1,con,1,m,Tue Feb 18 2025 14:00:35 GMT-0500 (Eastern Standard Time),265238.60000002384,bell,900,I,m,m,None,706,507.0,199.0,82,1,2139.7000000476837,263098.89999997616,9009,bell,AF,B,261891,261891,260268,261175,260269,262408,261692,261692,262408,14
15,test,1,con,1,z,Tue Feb 18 2025 14:00:35 GMT-0500 (Eastern Standard Time),267072.3000000119,rage,800,I,z,z,None,495,296.0,199.0,49,1,1828.199999988079,265244.10000002384,9009,rage,AF,B,263942,263942,262413,263225,262414,264241,263742,263742,264241,15
16,test,1,con,1,m,Tue Feb 18 2025 14:00:35 GMT-0500 (Eastern Standard Time),268838.60000002384,napkin,800,I,m,m,None,423,224.0,199.0,105,1,1756.5,267082.10000002384,9009,napkin,AF,B,265775,265775,264251,265058,264252,266008,265575,265575,266008,16
17,test,1,con,1,z,Tue Feb 18 2025 14:00:35 GMT-0500 (Eastern Standard Time),270905.3000000119,rage,900,I,z,z,None,620,421.0,199.0,50,1,2056.0,268849.3000000119,9009,rage,AF,B,267641,267641,266018,266925,266019,268074,267442,267442,268074,17
18,test,1,inc,1,m,Tue Feb 18 2025 14:00:35 GMT-0500 (Eastern Standard Time),272772.1999999881,rage,800,I,m,m,None,524,325.0,199.0,77,1,1859.3999999761581,270912.8000000119,9009,rock,AF,B,269608,269609,268082,268892,268082,269941,269409,269409,269941,18
19,test,1,inc,1,z,Tue Feb 18 2025 14:00:35 GMT-0500 (Eastern Standard Time),275388.89999997616,window,1100,I,z,z,None,966,767.0,199.0,64,1,2607.399999976158,272781.5,9009,temper,AF,B,271775,271775,269951,271059,269951,272558,271575,271575,272558,19
20,test,1,inc,1,m,Tue Feb 18 2025 14:00:35 GMT-0500 (Eastern Standard Time),277538.89999997616,love,1000,I,m,m,None,610,411.0,199.0,71,1,2141.2999999523163,275397.60000002384,9009,step,AF,B,274291,274291,272567,273575,272567,274708,274092,274092,274708,20
21,test,1,con,1,m,Tue Feb 18 2025 14:00:35 GMT-0500 (Eastern Standard Time),279822.1999999881,window,1100,I,m,m,None,648,449.0,199.0,124,1,2272.300000011921,277549.89999997616,9009,window,AF,B,276542,276542,274719,275825,274720,276991,276342,276342,276991,21
22,test,1,inc,1,z,Tue Feb 18 2025 14:00:35 GMT-0500 (Eastern Standard Time),282005.60000002384,remote,1000,I,z,z,None,623,424.0,199.0,31,1,2166.800000011921,279838.8000000119,9009,friend,AF,B,278742,278742,277008,278025,277008,279175,278542,278542,279175,22
23,test,1,inc,1,m,Tue Feb 18 2025 14:00:35 GMT-0500 (Eastern Standard Time),284205.60000002384,temper,1000,I,m,m,None,664,465.0,199.0,103,1,2190.5,282015.10000002384,9009,jacket,AF,B,280908,280909,279184,280192,279185,281375,280709,280709,281375,23
24,test,1,inc,1,z,Tue Feb 18 2025 14:00:35 GMT-0500 (Eastern Standard Time),286572.3000000119,film,1100,I,z,z,None,716,517.0,199.0,48,1,2355.5,284216.8000000119,9009,hate,AF,B,283208,283209,281386,282492,281386,283741,283009,283009,283741,24
25,test,1,inc,1,z,Tue Feb 18 2025 14:00:35 GMT-0500 (Eastern Standard Time),288872.10000002384,window,1100,I,z,z,None,655,455.0,200.0,32,1,2289.5,286582.60000002384,9009,friend,AF,B,285575,285575,283752,284859,283752,286041,285375,285375,286041,25
26,test,1,inc,1,z,Tue Feb 18 2025 14:00:35 GMT-0500 (Eastern Standard Time),290922.1999999881,jacket,800,I,z,z,None,703,504.0,199.0,29,1,2041.800000011921,288880.39999997616,9009,friend,AF,B,287575,287575,286049,286858,286050,288091,287375,287375,288091,26
27,test,1,inc,1,z,Tue Feb 18 2025 14:00:35 GMT-0500 (Eastern Standard Time),293205.39999997616,remote,1000,I,z,z,None,740,525.0,215.0,7,1,2274.099999964237,290931.3000000119,9009,elated,AF,B,289841,289841,288100,289109,288101,290375,289626,289626,290374,27
28,test,1,con,1,m,Tue Feb 18 2025 14:00:35 GMT-0500 (Eastern Standard Time),295189.1999999881,bell,800,I,m,m,None,640,425.0,215.0,81,1,1969.699999988079,293219.5,9009,bell,AF,B,291925,291925,290389,291192,290390,292358,291709,291709,292358,28
29,test,1,con,1,m,Tue Feb 18 2025 14:00:35 GMT-0500 (Eastern Standard Time),297122.10000002384,window,900,I,m,m,None,493,294.0,199.0,122,1,1927.4000000357628,295194.6999999881,9009,window,AF,B,293992,293992,292364,293275,292364,294291,293792,293792,294291,29
30,test,1,con,1,z,Tue Feb 18 2025 14:00:35 GMT-0500 (Eastern Standard Time),299155.60000002384,kind,1000,I,z,z,None,493,293.0,200.0,11,1,2025.300000011921,297130.3000000119,9009,kind,AF,B,296025,296025,294299,295309,294300,296325,295825,295825,296325,30
31,test,1,inc,1,z,Tue Feb 18 2025 14:00:35 GMT-0500 (Eastern Standard Time),301455.39999997616,film,1100,I,z,z,None,664,465.0,199.0,16,1,2290.7999999523163,299164.60000002384,9009,kind,AF,B,298158,298158,296334,297442,296334,298625,297959,297959,298624,31
32,test,1,con,1,m,Tue Feb 18 2025 14:00:35 GMT-0500 (Eastern Standard Time),303488.5,bell,1000,I,m,m,None,495,295.0,200.0,83,1,2024.3999999761581,301464.10000002384,9009,bell,AF,B,300358,300359,298633,299641,298634,300658,300158,300158,300657,32
33,test,1,inc,1,z,Tue Feb 18 2025 14:00:35 GMT-0500 (Eastern Standard Time),305438.5,step,800,I,z,z,None,614,415.0,199.0,21,1,1944.1000000238419,303494.39999997616,9009,love,AF,B,302191,302191,300663,301475,300664,302608,301992,301992,302607,33
33,test,1,con,0,z,Tue Feb 18 2025 14:00:35 GMT-0500 (Eastern Standard Time),307539.0,brutal,1100,I,m,m,None,459,260.0,199.0,36,1,2092.899999976158,305446.10000002384,9009,brutal,AF,B,304442,304442,302615,303725,302616,304708,304242,304242,304708,34
34,test,1,con,1,m,Tue Feb 18 2025 14:00:35 GMT-0500 (Eastern Standard Time),309588.8000000119,film,800,I,m,m,None,707,508.0,199.0,89,1,2041.1000000238419,307547.6999999881,9009,film,AF,B,306242,306242,304717,305525,304717,306758,306042,306042,306758,35
35,test,1,inc,1,m,Tue Feb 18 2025 14:00:35 GMT-0500 (Eastern Standard Time),311888.89999997616,friend,1100,I,m,m,None,663,463.0,200.0,120,1,2291.699999988079,309597.1999999881,9009,remote,AF,B,308592,308592,306766,307874,306767,309058,308391,308391,309058,36
36,test,1,inc,1,m,Tue Feb 18 2025 14:00:35 GMT-0500 (Eastern Standard Time),314205.89999997616,love,1000,I,m,m,None,781,582.0,199.0,87,1,2306.399999976158,311899.5,9009,bell,AF,B,310792,310792,309069,310075,309069,311375,310592,310592,311375,37
37,test,1,con,1,z,Tue Feb 18 2025 14:00:35 GMT-0500 (Eastern Standard Time),316322.10000002384,hate,900,I,z,z,None,677,478.0,199.0,42,1,2105.100000023842,314217.0,9009,hate,AF,B,313008,313008,311386,312292,311386,313491,312809,312809,313491,38
38,test,1,inc,1,z,Tue Feb 18 2025 14:00:35 GMT-0500 (Eastern Standard Time),318505.39999997616,rock,900,I,z,z,None,736,537.0,199.0,22,1,2174.099999964237,316331.3000000119,9009,love,AF,B,315125,315125,313500,314409,313501,315675,314925,314925,315674,39
39,test,1,con,1,z,Tue Feb 18 2025 14:00:35 GMT-0500 (Eastern Standard Time),320855.60000002384,brutal,900,I,z,z,None,905,706.0,199.0,34,1,2341.400000035763,318514.1999999881,9009,brutal,AF,B,317308,317308,315683,316592,315684,318025,317108,317109,318025,40
40,test,1,inc,1,m,Tue Feb 18 2025 14:00:35 GMT-0500 (Eastern Standard Time),322955.5,elated,800,I,m,m,None,752,553.0,199.0,101,1,2086.5,320869.0,9009,jacket,AF,B,319558,319558,318038,318842,318038,320125,319359,319359,320124,41
41,test,1,con,1,z,Tue Feb 18 2025 14:00:35 GMT-0500 (Eastern Standard Time),324955.39999997616,friend,800,I,z,z,None,650,451.0,199.0,25,1,1990.699999988079,322964.6999999881,9009,friend,AF,B,321658,321659,320134,320942,320134,322125,321459,321459,322124,42
42,test,1,con,1,z,Tue Feb 18 2025 14:00:35 GMT-0500 (Eastern Standard Time),327022.0,hate,800,I,z,z,None,732,532.0,200.0,41,1,2055.699999988079,324966.3000000119,9009,hate,AF,B,323658,323658,322135,322942,322136,324191,323458,323458,324191,43
43,test,1,con,1,z,Tue Feb 18 2025 14:00:35 GMT-0500 (Eastern Standard Time),329338.5,temper,1000,I,z,z,None,768,569.0,199.0,59,1,2308.0,327030.5,9009,temper,AF,B,325925,325925,324200,325208,324200,326508,325725,325725,326508,44
44,test,1,con,1,m,Tue Feb 18 2025 14:00:35 GMT-0500 (Eastern Standard Time),331438.5,jacket,1100,I,m,m,None,463,264.0,199.0,100,1,2091.800000011921,329346.6999999881,9009,jacket,AF,B,328342,328342,326516,327625,326516,328608,328142,328142,328608,45
45,test,1,inc,1,z,Tue Feb 18 2025 14:00:35 GMT-0500 (Eastern Standard Time),333822.10000002384,film,1100,I,z,z,None,732,533.0,199.0,56,1,2376.0,331446.10000002384,9009,rage,AF,B,330442,330442,328615,329725,328616,330991,330242,330242,330991,46
46,test,1,con,1,m,Tue Feb 18 2025 14:00:35 GMT-0500 (Eastern Standard Time),336205.10000002384,remote,1100,I,m,m,None,732,533.0,199.0,116,1,2372.2000000476837,333832.89999997616,9009,remote,AF,B,332825,332825,331002,332109,331003,333374,332625,332625,333374,47
47,test,1,con,1,z,Tue Feb 18 2025 14:00:35 GMT-0500 (Eastern Standard Time),338422.10000002384,kind,1100,I,z,z,None,574,374.0,200.0,12,1,2211.400000035763,336210.6999999881,9009,kind,AF,B,335208,335208,333380,334492,333380,335591,335008,335008,335591,48
48,test,1,con,1,m,Tue Feb 18 2025 14:00:35 GMT-0500 (Eastern Standard Time),340605.5,film,900,I,m,m,None,733,532.0,201.0,90,1,2174.300000011921,338431.1999999881,9009,film,AF,B,337226,337226,335600,336508,335601,337775,337025,337025,337774,49
49,test,1,con,1,m,Tue Feb 18 2025 14:00:35 GMT-0500 (Eastern Standard Time),342805.5,film,1100,I,m,m,None,558,358.0,200.0,92,1,2190.5,340615.0,9009,film,AF,B,339608,339608,337784,338891,337785,339975,339408,339408,339975,50
50,test,1,con,1,z,Tue Feb 18 2025 14:00:35 GMT-0500 (Eastern Standard Time),345022.10000002384,rage,1000,I,z,z,None,683,483.0,200.0,51,1,2208.800000011921,342813.3000000119,9009,rage,AF,B,341708,341708,339982,340991,339983,342191,341508,341508,342191,51
51,test,1,inc,1,z,Tue Feb 18 2025 14:00:35 GMT-0500 (Eastern Standard Time),347105.39999997616,step,800,I,z,z,None,745,545.0,200.0,13,1,2069.599999964237,345035.8000000119,9009,kind,AF,B,343725,343725,342205,343008,342206,344275,343524,343524,344274,52
52,test,1,con,1,m,Tue Feb 18 2025 14:00:35 GMT-0500 (Eastern Standard Time),349005.3000000119,step,800,I,m,m,None,550,350.0,200.0,65,1,1890.800000011921,347114.5,9009,step,AF,B,345808,345808,344284,345091,344284,346174,345608,345608,346174,53
53,test,1,inc,1,z,Tue Feb 18 2025 14:00:35 GMT-0500 (Eastern Standard Time),351171.89999997616,bell,1000,I,z,z,None,626,426.0,200.0,15,1,2158.599999964237,349013.3000000119,9009,kind,AF,B,347908,347908,346182,347191,346183,348341,347708,347708,348341,54
54,test,1,con,1,z,Tue Feb 18 2025 14:00:35 GMT-0500 (Eastern Standard Time),353555.5,temper,900,I,z,z,None,942,743.0,199.0,58,1,2374.0,351181.5,9009,temper,AF,B,349975,349975,348351,349258,348351,350725,349775,349775,350724,55
55,test,1,inc,1,m,Tue Feb 18 2025 14:00:35 GMT-0500 (Eastern Standard Time),355638.60000002384,rage,800,I,m,m,None,740,541.0,199.0,69,1,2074.0,353564.60000002384,9009,step,AF,B,352258,352258,350734,351542,350734,352808,352058,352058,352808,56
56,test,1,inc,1,z,Tue Feb 18 2025 14:00:35 GMT-0500 (Eastern Standard Time),357955.5,remote,1000,I,z,z,None,775,576.0,199.0,63,1,2308.5,355647.0,9009,temper,AF,B,354542,354542,352816,353825,352817,355125,354342,354342,355124,57
57,test,1,con,1,z,Tue Feb 18 2025 14:00:35 GMT-0500 (Eastern Standard Time),359955.5,temper,800,I,z,z,None,659,460.0,199.0,57,1,1989.0,357966.5,9009,temper,AF,B,356658,356658,355136,355941,355136,357125,356459,356459,357124,58
58,test,1,inc,1,m,Tue Feb 18 2025 14:00:35 GMT-0500 (Eastern Standard Time),361988.89999997616,brutal,900,I,m,m,None,592,392.0,200.0,126,1,2020.0999999642372,359968.8000000119,9009,window,AF,B,358758,358758,357138,358041,357138,359158,358558,358558,359158,59
59,test,1,inc,1,m,Tue Feb 18 2025 14:00:35 GMT-0500 (Eastern Standard Time),364005.0,elated,800,I,m,m,None,673,474.0,199.0,125,1,2002.800000011921,362002.1999999881,9009,window,AF,B,360691,360692,359171,359975,359172,361174,360492,360492,361174,60
60,test,1,con,1,m,Tue Feb 18 2025 14:00:35 GMT-0500 (Eastern Standard Time),366221.89999997616,rock,1000,I,m,m,None,682,483.0,199.0,75,1,2203.2999999523163,364018.60000002384,9009,rock,AF,B,362908,362908,361188,362191,361188,363391,362708,362708,363391,61
61,test,1,inc,1,z,Tue Feb 18 2025 14:00:35 GMT-0500 (Eastern Standard Time),368238.60000002384,step,800,I,z,z,None,681,481.0,200.0,45,1,2007.9000000357628,366230.6999999881,9009,hate,AF,B,364925,364925,363400,364208,363400,365408,364724,364724,365408,62
62,test,1,inc,1,m,Tue Feb 18 2025 14:00:35 GMT-0500 (Eastern Standard Time),370255.3000000119,rage,800,I,m,m,None,679,480.0,199.0,85,1,2008.199999988079,368247.10000002384,9009,bell,AF,B,366942,366942,365416,366225,365417,367424,366742,366742,367424,63
63,test,1,con,1,m,Tue Feb 18 2025 14:00:35 GMT-0500 (Eastern Standard Time),372355.3000000119,jacket,900,I,m,m,None,660,460.0,200.0,98,1,2087.199999988079,370268.10000002384,9009,jacket,AF,B,369058,369058,367437,368341,367438,369524,368858,368858,369524,64
64,test,1,inc,1,z,Tue Feb 18 2025 14:00:35 GMT-0500 (Eastern Standard Time),374505.60000002384,napkin,900,I,z,z,None,686,487.0,199.0,38,1,2136.2000000476837,372369.39999997616,9009,brutal,AF,B,371175,371175,369538,370458,369540,371675,370975,370975,371675,65
65,test,1,inc,1,m,Tue Feb 18 2025 14:00:35 GMT-0500 (Eastern Standard Time),376705.3000000119,love,1000,I,m,m,None,662,463.0,199.0,79,1,2186.900000035763,374518.39999997616,9009,rock,AF,B,373408,373408,371687,372692,371688,373874,373209,373209,373874,66
66,test,1,inc,1,m,Tue Feb 18 2025 14:00:35 GMT-0500 (Eastern Standard Time),378855.39999997616,brutal,900,I,m,m,None,706,506.0,200.0,118,1,2140.2999999523163,376715.10000002384,9009,remote,AF,B,375508,375508,373884,374792,373885,376024,375308,375308,376024,67
67,test,1,con,1,m,Tue Feb 18 2025 14:00:35 GMT-0500 (Eastern Standard Time),381088.6999999881,napkin,1000,I,m,m,None,695,496.0,199.0,107,1,2224.800000011921,378863.89999997616,9009,napkin,AF,B,377758,377758,376033,377042,376034,378258,377558,377559,378258,68
68,test,1,con,1,m,Tue Feb 18 2025 14:00:35 GMT-0500 (Eastern Standard Time),383355.39999997616,napkin,1100,I,m,m,None,618,419.0,199.0,108,1,2258.199999988079,381097.1999999881,9009,napkin,AF,B,380091,380091,378266,379375,378267,380524,379892,379892,380524,69
69,test,1,con,1,z,Tue Feb 18 2025 14:00:35 GMT-0500 (Eastern Standard Time),385455.3000000119,friend,900,I,z,z,None,663,464.0,199.0,26,1,2089.100000023842,383366.1999999881,9009,friend,AF,B,382158,382158,380535,381442,380536,382625,381959,381959,382624,70
70,test,1,inc,1,m,Tue Feb 18 2025 14:00:35 GMT-0500 (Eastern Standard Time),387555.39999997616,kind,900,I,m,m,None,660,461.0,199.0,94,1,2090.699999988079,385464.6999999881,9009,film,AF,B,384258,384258,382634,383542,382634,384724,384059,384059,384724,71
71,test,1,con,1,z,Tue Feb 18 2025 14:00:35 GMT-0500 (Eastern Standard Time),389838.60000002384,brutal,1000,I,z,z,None,747,532.0,215.0,35,1,2274.0,387564.60000002384,9009,brutal,AF,B,386474,386474,384734,385742,384734,387008,386259,386259,387008,72
72,test,1,con,1,z,Tue Feb 18 2025 14:00:35 GMT-0500 (Eastern Standard Time),392072.10000002384,love,1000,I,z,z,None,687,488.0,199.0,19,1,2225.0,389847.10000002384,9009,love,AF,B,388741,388742,387016,388025,387017,389241,388541,388542,389241,73
73,test,1,inc,1,m,Tue Feb 18 2025 14:00:35 GMT-0500 (Eastern Standard Time),394205.60000002384,brutal,900,I,m,m,None,698,499.0,199.0,110,1,2124.100000023842,392081.5,9009,napkin,AF,B,390875,390875,389251,390158,389251,391375,390675,390675,391375,74
74,test,1,inc,1,z,Tue Feb 18 2025 14:00:35 GMT-0500 (Eastern Standard Time),396588.8000000119,window,1100,I,z,z,None,732,517.0,215.0,8,1,2374.400000035763,394214.39999997616,9009,elated,AF,B,393225,393225,391383,392492,391384,393758,393008,393009,393758,75
75,test,1,inc,1,z,Tue Feb 18 2025 14:00:35 GMT-0500 (Eastern Standard Time),398855.3000000119,remote,1000,I,z,z,None,722,523.0,199.0,39,1,2257.800000011921,396597.5,9009,brutal,AF,B,395491,395492,393766,394775,393767,396024,395292,395292,396024,76
76,test,1,con,1,z,Tue Feb 18 2025 14:00:35 GMT-0500 (Eastern Standard Time),400972.1999999881,kind,900,I,z,z,None,668,468.0,200.0,10,1,2108.599999964237,398863.60000002384,9009,kind,AF,B,397658,397658,396033,396942,396033,398141,397458,397458,398141,77
77,test,1,con,1,m,Tue Feb 18 2025 14:00:35 GMT-0500 (Eastern Standard Time),402988.8000000119,remote,800,I,m,m,None,666,467.0,199.0,113,1,2008.0,400980.8000000119,9009,remote,AF,B,399675,399675,398150,398958,398150,400158,399475,399475,400158,78
78,test,1,con,1,z,Tue Feb 18 2025 14:00:35 GMT-0500 (Eastern Standard Time),405088.6999999881,love,900,I,z,z,None,662,463.0,199.0,18,1,2090.599999964237,402998.10000002384,9009,love,AF,B,401791,401791,400167,401075,400168,402258,401592,401592,402258,79
79,test,1,inc,1,m,Tue Feb 18 2025 14:00:35 GMT-0500 (Eastern Standard Time),407138.8000000119,kind,900,I,m,m,None,609,410.0,199.0,70,1,2042.1000000238419,405096.6999999881,9009,step,AF,B,403891,403892,402266,403175,402266,404308,403692,403692,404308,80
80,test,1,inc,1,m,Tue Feb 18 2025 14:00:35 GMT-0500 (Eastern Standard Time),409105.39999997616,elated,800,I,m,m,None,629,430.0,199.0,109,1,1957.199999988079,407148.1999999881,9009,napkin,AF,B,405841,405841,404317,405125,404318,406274,405642,405642,406274,81
81,test,1,con,1,m,Tue Feb 18 2025 14:00:35 GMT-0500 (Eastern Standard Time),411155.5,remote,900,I,m,m,None,609,410.0,199.0,114,1,2036.6000000238419,409118.89999997616,9009,remote,AF,B,407908,407908,406288,407192,406289,408325,407708,407708,408324,82
82,test,1,con,1,z,Tue Feb 18 2025 14:00:35 GMT-0500 (Eastern Standard Time),413155.39999997616,kind,800,I,z,z,None,660,460.0,200.0,9,1,1991.5,411163.89999997616,9009,kind,AF,B,409858,409858,408333,409141,408333,410325,409658,409658,410324,83
83,test,1,con,1,z,Tue Feb 18 2025 14:00:35 GMT-0500 (Eastern Standard Time),415572.0,elated,1100,I,z,z,None,776,576.0,200.0,4,1,2408.300000011921,413163.6999999881,9009,elated,AF,B,412158,412158,410333,411442,410333,412741,411958,411958,412741,84
84,test,1,con,1,m,Tue Feb 18 2025 14:00:35 GMT-0500 (Eastern Standard Time),417505.5,jacket,800,I,m,m,None,594,395.0,199.0,97,1,1924.6000000238419,415580.89999997616,9009,jacket,AF,B,414275,414275,412750,413558,412750,414675,414075,414075,414674,85
85,test,1,inc,1,z,Tue Feb 18 2025 14:00:35 GMT-0500 (Eastern Standard Time),419555.1999999881,napkin,900,I,z,z,None,609,410.0,199.0,30,1,2041.300000011921,417513.89999997616,9009,friend,AF,B,416308,416308,414683,415592,414683,416724,416109,416109,416724,86
86,test,1,inc,1,m,Tue Feb 18 2025 14:00:35 GMT-0500 (Eastern Standard Time),421572.0,kind,900,I,m,m,None,575,376.0,199.0,86,1,2008.0,419564.0,9009,bell,AF,B,418358,418358,416733,417642,416733,418741,418158,418159,418741,87
87,test,1,con,1,m,Tue Feb 18 2025 14:00:35 GMT-0500 (Eastern Standard Time),423821.6999999881,rock,1100,I,m,m,None,615,416.0,199.0,76,1,2240.399999976158,421581.3000000119,9009,rock,AF,B,420574,420574,418750,419858,418751,420991,420375,420375,420991,88
88,test,1,con,1,z,Tue Feb 18 2025 14:00:35 GMT-0500 (Eastern Standard Time),425938.3000000119,friend,1100,I,z,z,None,475,276.0,199.0,28,1,2107.300000011921,423831.0,9009,friend,AF,B,422825,422825,421000,422108,421000,423107,422625,422625,423107,89
89,test,1,inc,1,m,Tue Feb 18 2025 14:00:35 GMT-0500 (Eastern Standard Time),428155.3000000119,love,1000,I,m,m,None,667,468.0,199.0,95,1,2211.800000011921,425943.5,9009,film,AF,B,424841,424842,423113,424125,423113,425324,424642,424642,425324,90
90,test,1,inc,1,z,Tue Feb 18 2025 14:00:35 GMT-0500 (Eastern Standard Time),430155.1999999881,jacket,800,I,z,z,None,652,452.0,200.0,5,1,1991.300000011921,428163.89999997616,9009,elated,AF,B,426858,426858,425333,426142,425333,427324,426658,426658,427324,91
91,test,1,inc,1,z,Tue Feb 18 2025 14:00:35 GMT-0500 (Eastern Standard Time),432338.6999999881,rock,900,I,z,z,None,744,544.0,200.0,54,1,2174.300000011921,430164.39999997616,9009,rage,AF,B,428958,428958,427333,428242,427334,429508,428758,428758,429508,92
92,test,1,inc,1,z,Tue Feb 18 2025 14:00:35 GMT-0500 (Eastern Standard Time),434471.8000000119,napkin,900,I,z,z,None,672,472.0,200.0,62,1,2118.600000023842,432353.1999999881,9009,temper,AF,B,431158,431158,429522,430442,429524,431641,430958,430958,431641,93
93,test,1,con,1,m,Tue Feb 18 2025 14:00:35 GMT-0500 (Eastern Standard Time),436638.5,jacket,1000,I,m,m,None,630,431.0,199.0,99,1,2157.899999976158,434480.60000002384,9009,jacket,AF,B,433375,433375,431650,432658,431650,433808,433175,433175,433807,94
94,test,1,con,1,z,Tue Feb 18 2025 14:00:35 GMT-0500 (Eastern Standard Time),438871.60000002384,elated,1000,I,z,z,None,688,489.0,199.0,3,1,2224.400000035763,436647.1999999881,9009,elated,AF,B,435541,435541,433816,434825,433817,436041,435342,435342,436041,95
95,test,1,inc,1,z,Tue Feb 18 2025 14:00:35 GMT-0500 (Eastern Standard Time),440988.39999997616,napkin,900,I,z,z,None,666,467.0,199.0,6,1,2111.5,438876.89999997616,9009,elated,AF,B,437675,437675,436046,436958,436046,438157,437475,437475,438157,96
96,test,1,inc,1,z,Tue Feb 18 2025 14:00:35 GMT-0500 (Eastern Standard Time),443088.60000002384,rock,900,I,z,z,None,661,462.0,199.0,46,1,2091.100000023842,440997.5,9009,hate,AF,B,439792,439792,438167,439075,438167,440258,439592,439592,440258,97
97,test,1,con,1,z,Tue Feb 18 2025 14:00:35 GMT-0500 (Eastern Standard Time),445355.3000000119,hate,1100,I,z,z,None,618,419.0,199.0,44,1,2256.900000035763,443098.39999997616,9009,hate,AF,B,442091,442091,440267,441375,440268,442524,441892,441892,442524,98
98,test,1,inc,1,m,Tue Feb 18 2025 14:00:35 GMT-0500 (Eastern Standard Time),447655.0,temper,1000,I,m,m,None,754,555.0,199.0,111,1,2290.600000023842,445364.39999997616,9009,napkin,AF,B,444259,444259,442533,443542,442534,444824,444058,444059,444824,99
99,test,1,con,1,z,Tue Feb 18 2025 14:00:35 GMT-0500 (Eastern Standard Time),449671.89999997616,brutal,800,I,z,z,None,672,473.0,199.0,33,1,2010.0999999642372,447661.8000000119,9009,brutal,AF,B,446357,446357,444831,445642,444831,446841,446158,446158,446841,100
100,test,1,con,1,z,Tue Feb 18 2025 14:00:35 GMT-0500 (Eastern Standard Time),451655.1999999881,love,800,I,z,z,None,639,440.0,199.0,17,1,1974.3999999761581,449680.8000000119,9009,love,AF,B,448375,448375,446850,447658,446850,448824,448175,448175,448824,101
101,test,1,inc,1,m,Tue Feb 18 2025 14:00:35 GMT-0500 (Eastern Standard Time),453838.3000000119,hate,1100,I,m,m,None,547,347.0,200.0,88,1,2173.800000011921,451664.5,9009,bell,AF,B,450658,450658,448834,449941,448834,451007,450458,450458,451007,102
102,test,1,inc,1,z,Tue Feb 18 2025 14:00:35 GMT-0500 (Eastern Standard Time),455921.60000002384,rock,900,I,z,z,None,643,444.0,199.0,14,1,2077.7000000476837,453843.89999997616,9009,kind,AF,B,452641,452641,451013,451925,451013,453091,452442,452442,453091,103
103,test,1,con,1,z,Tue Feb 18 2025 14:00:35 GMT-0500 (Eastern Standard Time),458155.39999997616,hate,1000,I,z,z,None,684,485.0,199.0,43,1,2227.899999976158,455927.5,9009,hate,AF,B,454825,454825,453097,454108,453097,455324,454625,454625,455324,104
104,test,1,con,1,m,Tue Feb 18 2025 14:00:35 GMT-0500 (Eastern Standard Time),460172.0,rock,800,I,m,m,None,666,451.0,215.0,73,1,2008.6000000238419,458163.39999997616,9009,rock,AF,B,456875,456875,455332,456142,455333,457341,456658,456659,457341,105
105,test,1,inc,1,m,Tue Feb 18 2025 14:00:35 GMT-0500 (Eastern Standard Time),462205.0,elated,800,I,m,m,None,682,483.0,199.0,117,1,2019.6000000238419,460185.39999997616,9009,remote,AF,B,458875,458875,457354,458158,457355,459374,458675,458675,459374,106
106,test,1,inc,1,m,Tue Feb 18 2025 14:00:35 GMT-0500 (Eastern Standard Time),464421.8000000119,temper,1000,I,m,m,None,673,474.0,199.0,119,1,2209.199999988079,462212.60000002384,9009,remote,AF,B,461108,461108,459382,460391,459382,461591,460908,460908,461591,107
107,test,1,con,1,m,Tue Feb 18 2025 14:00:35 GMT-0500 (Eastern Standard Time),466605.10000002384,rock,900,I,m,m,None,732,533.0,199.0,74,1,2174.7000000476837,464430.39999997616,9009,rock,AF,B,463225,463225,461599,462508,461600,463774,463025,463025,463774,108
108,test,1,inc,1,m,Tue Feb 18 2025 14:00:35 GMT-0500 (Eastern Standard Time),468638.5,rage,800,I,m,m,None,698,498.0,200.0,93,1,2024.8999999761581,466613.60000002384,9009,film,AF,B,465308,465308,463783,464591,463783,465808,465108,465108,465807,109
109,test,1,inc,1,m,Tue Feb 18 2025 14:00:35 GMT-0500 (Eastern Standard Time),470755.39999997616,temper,1000,I,m,m,None,576,377.0,199.0,127,1,2107.7999999523163,468647.60000002384,9009,window,AF,B,467541,467541,465817,466825,465817,467924,467342,467342,467924,110
110,test,1,con,1,z,Tue Feb 18 2025 14:00:35 GMT-0500 (Eastern Standard Time),472872.0,love,1100,I,z,z,None,471,272.0,199.0,20,1,2107.899999976158,470764.10000002384,9009,love,AF,B,469758,469758,467933,469042,467934,470041,469558,469558,470041,111
111,test,1,inc,1,m,Tue Feb 18 2025 14:00:35 GMT-0500 (Eastern Standard Time),475221.89999997616,hate,1100,I,m,m,None,707,507.0,200.0,80,1,2341.199999988079,472880.6999999881,9009,rock,AF,B,471875,471875,470050,471157,470050,472391,471674,471674,472391,112
112,test,1,con,1,z,Tue Feb 18 2025 14:00:35 GMT-0500 (Eastern Standard Time),477271.8000000119,elated,800,I,z,z,None,704,505.0,199.0,1,1,2040.300000011921,475231.5,9009,elated,AF,B,473925,473925,472401,473208,472401,474441,473725,473725,474441,113
113,test,1,inc,1,z,Tue Feb 18 2025 14:00:35 GMT-0500 (Eastern Standard Time),479338.60000002384,step,800,I,z,z,None,718,519.0,199.0,53,1,2052.900000035763,477285.6999999881,9009,rage,AF,B,475975,475975,474455,475258,474456,476508,475775,475775,476508,114
113,test,1,inc,0,z,Tue Feb 18 2025 14:00:35 GMT-0500 (Eastern Standard Time),481288.5,bell,1000,I,m,m,None,404,205.0,199.0,55,1,1941.0,479347.5,9009,rage,AF,B,478241,478241,476517,477525,476517,478458,478042,478042,478457,115
114,test,1,con,1,z,Tue Feb 18 2025 14:00:35 GMT-0500 (Eastern Standard Time),483588.39999997616,friend,1000,I,z,z,None,759,559.0,200.0,27,1,2290.899999976158,481297.5,9009,friend,AF,B,480191,480191,478467,479474,478467,480757,479991,479991,480757,116
115,test,1,inc,1,z,Tue Feb 18 2025 14:00:35 GMT-0500 (Eastern Standard Time),485988.8000000119,window,1100,I,z,z,None,757,542.0,215.0,40,1,2389.400000035763,483599.39999997616,9009,brutal,AF,B,482608,482608,480768,481875,480769,483158,482392,482392,483157,117
116,test,1,con,1,m,Tue Feb 18 2025 14:00:35 GMT-0500 (Eastern Standard Time),488271.89999997616,film,1000,I,m,m,None,746,547.0,199.0,91,1,2269.2999999523163,486002.60000002384,9009,film,AF,B,484891,484891,483172,484175,483173,485441,484692,484692,485441,118
117,test,1,con,1,z,Tue Feb 18 2025 14:00:35 GMT-0500 (Eastern Standard Time),490655.1999999881,temper,1100,I,z,z,None,746,547.0,199.0,60,1,2374.199999988079,488281.0,9009,temper,AF,B,487275,487275,485450,486558,485450,487824,487075,487075,487824,119
118,test,1,inc,1,z,Tue Feb 18 2025 14:00:35 GMT-0500 (Eastern Standard Time),493071.8000000119,bell,1000,I,z,z,None,879,680.0,199.0,47,1,2407.400000035763,490664.39999997616,9009,hate,AF,B,489558,489558,487833,488841,487834,490241,489358,489358,490241,120
119,test,1,con,1,m,Tue Feb 18 2025 14:00:35 GMT-0500 (Eastern Standard Time),495255.10000002384,window,1000,I,m,m,None,638,439.0,199.0,123,1,2174.400000035763,493080.6999999881,9009,window,AF,B,491975,491975,490250,491258,490250,492424,491775,491775,492424,121
120,test,1,con,1,m,Tue Feb 18 2025 14:00:35 GMT-0500 (Eastern Standard Time),497405.0,step,900,I,m,m,None,699,500.0,199.0,66,1,2141.199999988079,495263.8000000119,9009,step,AF,B,494058,494058,492433,493342,492433,494574,493858,493858,494574,122
121,test,1,inc,1,m,Tue Feb 18 2025 14:00:35 GMT-0500 (Eastern Standard Time),499538.5,brutal,900,I,m,m,None,694,494.0,200.0,102,1,2125.0,497413.5,9009,jacket,AF,B,496208,496208,494583,495491,494583,496708,496007,496007,496707,123
122,test,1,inc,1,z,Tue Feb 18 2025 14:00:35 GMT-0500 (Eastern Standard Time),501805.1999999881,film,1100,I,z,z,None,616,417.0,199.0,24,1,2256.699999988079,499548.5,9009,love,AF,B,498541,498541,496718,497825,496718,498974,498342,498342,498974,124
123,test,1,con,1,m,Tue Feb 18 2025 14:00:35 GMT-0500 (Eastern Standard Time),504088.60000002384,step,1000,I,m,m,None,737,538.0,199.0,67,1,2274.100000023842,501814.5,9009,step,AF,B,500708,500708,498984,499992,498984,501258,500508,500508,501258,125
124,test,1,con,1,m,Tue Feb 18 2025 14:00:35 GMT-0500 (Eastern Standard Time),506371.89999997616,remote,1000,I,m,m,None,742,543.0,199.0,115,1,2270.199999988079,504101.6999999881,9009,remote,AF,B,502991,502991,501271,502275,501272,503541,502792,502792,503541,126
125,test,1,con,1,z,Tue Feb 18 2025 14:00:35 GMT-0500 (Eastern Standard Time),508471.8000000119,elated,900,I,z,z,None,655,455.0,200.0,2,1,2091.199999988079,506380.60000002384,9009,elated,AF,B,505175,505175,503550,504458,503550,505641,504974,504974,505641,127
126,test,1,inc,1,m,Tue Feb 18 2025 14:00:35 GMT-0500 (Eastern Standard Time),510805.1999999881,friend,1100,I,m,m,None,692,492.0,200.0,128,1,2324.199999988079,508481.0,9009,window,AF,B,507474,507474,505650,506758,505650,507974,507274,507274,507974,128
