block_c,block_dur,condition,countdown,datetime,endtime,list,multichar_response,project,response,response_time,session_number,start_end,starttime,subject_id,task,task_vers,trial
,,,,Fri Oct 04 2024 09:45:11 GMT-0500 (Central Daylight Time),,,,I,space,406,1,,,8003,WL,A,
prac,,0,,Fri Oct 04 2024 09:45:11 GMT-0500 (Central Daylight Time),,NA,b,I,b,11885,1,,,8003,WL,A,1.0
prac,,0,,Fri Oct 04 2024 09:45:11 GMT-0500 (Central Daylight Time),,NA,bo,I,o,179,1,,,8003,WL,A,1.0
prac,,0,,Fri Oct 04 2024 09:45:11 GMT-0500 (Central Daylight Time),,NA,boo,I,o,139,1,,,8003,WL,A,1.0
prac,,0,,Fri Oct 04 2024 09:45:11 GMT-0500 (Central Daylight Time),,NA,boos,I,s,69,1,,,8003,WL,A,1.0
prac,,0,,Fri Oct 04 2024 09:45:11 GMT-0500 (Central Daylight Time),,NA,boost,I,t,146,1,,,8003,WL,A,1.0
prac,,0,,Fri Oct 04 2024 09:45:11 GMT-0500 (Central Daylight Time),,NA,boostenter,I,enter,7523,1,,,8003,WL,A,1.0
1,2.5160000324249268,learn,57483.99996757507,Fri Oct 04 2024 09:45:11 GMT-0500 (Central Daylight Time),162399.70000000298,A,m,I,m,2504,1,2515.7000000029802,159884.0,8003,WL,A,1.0
1,2.5989999771118164,learn,57401.00002288818,Fri Oct 04 2024 09:45:11 GMT-0500 (Central Daylight Time),162483.29999999702,A,me,I,e,69,1,2599.2999999970198,159884.0,8003,WL,A,1.0
1,2.7829999923706055,learn,57217.000007629395,Fri Oct 04 2024 09:45:11 GMT-0500 (Central Daylight Time),162666.3999999985,A,mea,I,a,162,1,2782.39999999851,159884.0,8003,WL,A,1.0
1,3.0160000324249268,learn,56983.99996757507,Fri Oct 04 2024 09:45:11 GMT-0500 (Central Daylight Time),162899.3999999985,A,mead,I,d,226,1,3015.39999999851,159884.0,8003,WL,A,1.0
1,3.2319998741149902,learn,56768.00012588501,Fri Oct 04 2024 09:45:11 GMT-0500 (Central Daylight Time),163116.1000000015,A,meado,I,o,210,1,3232.10000000149,159884.0,8003,WL,A,1.0
1,3.5820000171661377,learn,56417.99998283386,Fri Oct 04 2024 09:45:11 GMT-0500 (Central Daylight Time),163466.1000000015,A,meadow,I,w,329,1,3582.10000000149,159884.0,8003,WL,A,1.0
1,20.592999935150146,learn,39407.00006484985,Fri Oct 04 2024 09:45:11 GMT-0500 (Central Daylight Time),180477.1000000015,A,meadowf,I,f,17003,1,20593.10000000149,159884.0,8003,WL,A,1.0
1,20.70899987220764,learn,39291.00012779236,Fri Oct 04 2024 09:45:11 GMT-0500 (Central Daylight Time),180593.79999999702,A,meadowfi,I,i,94,1,20709.79999999702,159884.0,8003,WL,A,1.0
1,20.842999935150146,learn,39157.00006484985,Fri Oct 04 2024 09:45:11 GMT-0500 (Central Daylight Time),180727.29999999702,A,meadowfin,I,n,115,1,20843.29999999702,159884.0,8003,WL,A,1.0
1,22.024999856948853,learn,37975.00014305115,Fri Oct 04 2024 09:45:11 GMT-0500 (Central Daylight Time),181909.79999999702,A,meadowfi,I,backspace,1173,1,22025.79999999702,159884.0,8003,WL,A,1.0
1,22.241999864578247,learn,37758.00013542175,Fri Oct 04 2024 09:45:11 GMT-0500 (Central Daylight Time),182126.8999999985,A,meadowf,I,backspace,204,1,22242.89999999851,159884.0,8003,WL,A,1.0
1,22.47499990463257,learn,37525.00009536743,Fri Oct 04 2024 09:45:11 GMT-0500 (Central Daylight Time),182359.79999999702,A,meadow,I,backspace,222,1,22475.79999999702,159884.0,8003,WL,A,1.0
1,23.691999912261963,learn,36308.00008773804,Fri Oct 04 2024 09:45:11 GMT-0500 (Central Daylight Time),183576.29999999702,A,meadowenter,I,enter,1205,1,23692.29999999702,159884.0,8003,WL,A,1.0
1,24.35800004005432,learn,35641.99995994568,Fri Oct 04 2024 09:45:11 GMT-0500 (Central Daylight Time),184242.70000000298,A,f,I,f,652,1,665.9000000059605,183576.79999999702,8003,WL,A,2.0
1,24.47499990463257,learn,35525.00009536743,Fri Oct 04 2024 09:45:11 GMT-0500 (Central Daylight Time),184359.3999999985,A,fi,I,i,106,1,782.6000000014901,183576.79999999702,8003,WL,A,2.0
1,24.575000047683716,learn,35424.999952316284,Fri Oct 04 2024 09:45:11 GMT-0500 (Central Daylight Time),184459.1000000015,A,fin,I,n,93,1,882.3000000044703,183576.79999999702,8003,WL,A,2.0
1,24.741999864578247,learn,35258.00013542175,Fri Oct 04 2024 09:45:11 GMT-0500 (Central Daylight Time),184626.20000000298,A,find,I,d,146,1,1049.4000000059605,183576.79999999702,8003,WL,A,2.0
1,25.39199995994568,learn,34608.00004005432,Fri Oct 04 2024 09:45:11 GMT-0500 (Central Daylight Time),185276.1000000015,A,findg,I,g,635,1,1699.3000000044703,183576.79999999702,8003,WL,A,2.0
1,25.60800004005432,learn,34391.99995994568,Fri Oct 04 2024 09:45:11 GMT-0500 (Central Daylight Time),185492.20000000298,A,findge,I,e,208,1,1915.4000000059605,183576.79999999702,8003,WL,A,2.0
1,25.70799994468689,learn,34292.00005531311,Fri Oct 04 2024 09:45:11 GMT-0500 (Central Daylight Time),185592.20000000298,A,findger,I,r,81,1,2015.4000000059605,183576.79999999702,8003,WL,A,2.0
1,25.840999841690063,learn,34159.00015830994,Fri Oct 04 2024 09:45:11 GMT-0500 (Central Daylight Time),185725.6000000015,A,findgerenter,I,enter,117,1,2148.8000000044703,183576.79999999702,8003,WL,A,2.0
1,29.289999961853027,learn,30710.000038146973,Fri Oct 04 2024 09:45:11 GMT-0500 (Central Daylight Time),189174.6000000015,A,k,I,k,3431,1,3448.5,185726.1000000015,8003,WL,A,3.0
1,29.4229998588562,learn,30577.0001411438,Fri Oct 04 2024 09:45:11 GMT-0500 (Central Daylight Time),189307.79999999702,A,ke,I,e,119,1,3581.6999999955297,185726.1000000015,8003,WL,A,3.0
1,29.69000005722046,learn,30309.99994277954,Fri Oct 04 2024 09:45:11 GMT-0500 (Central Daylight Time),189574.29999999702,A,key,I,y,249,1,3848.1999999955297,185726.1000000015,8003,WL,A,3.0
1,30.389999866485596,learn,29610.000133514404,Fri Oct 04 2024 09:45:11 GMT-0500 (Central Daylight Time),190274.20000000298,A,keyenter,I,enter,687,1,4548.10000000149,185726.1000000015,8003,WL,A,3.0
1,32.02300000190735,learn,27976.99999809265,Fri Oct 04 2024 09:45:11 GMT-0500 (Central Daylight Time),191906.79999999702,A,t,I,t,1627,1,1632.1999999955297,190274.6000000015,8003,WL,A,4.0
1,32.25600004196167,learn,27743.99995803833,Fri Oct 04 2024 09:45:11 GMT-0500 (Central Daylight Time),192140.20000000298,A,tr,I,r,226,1,1865.6000000014901,190274.6000000015,8003,WL,A,4.0
1,32.37299990653992,learn,27627.000093460083,Fri Oct 04 2024 09:45:11 GMT-0500 (Central Daylight Time),192257.0,A,tra,I,a,97,1,1982.3999999985099,190274.6000000015,8003,WL,A,4.0
1,32.58899998664856,learn,27411.00001335144,Fri Oct 04 2024 09:45:11 GMT-0500 (Central Daylight Time),192473.5,A,trai,I,i,196,1,2198.89999999851,190274.6000000015,8003,WL,A,4.0
1,32.82200002670288,learn,27177.99997329712,Fri Oct 04 2024 09:45:11 GMT-0500 (Central Daylight Time),192706.70000000298,A,train,I,n,228,1,2432.10000000149,190274.6000000015,8003,WL,A,4.0
1,33.121999979019165,learn,26878.000020980835,Fri Oct 04 2024 09:45:11 GMT-0500 (Central Daylight Time),193006.79999999702,A,trainenter,I,enter,291,1,2732.1999999955297,190274.6000000015,8003,WL,A,4.0
1,35.63800001144409,learn,24361.99998855591,Fri Oct 04 2024 09:45:11 GMT-0500 (Central Daylight Time),195522.70000000298,A,g,I,g,2494,1,2515.4000000059605,193007.29999999702,8003,WL,A,5.0
1,35.75499987602234,learn,24245.00012397766,Fri Oct 04 2024 09:45:11 GMT-0500 (Central Daylight Time),195639.29999999702,A,go,I,o,98,1,2632.0,193007.29999999702,8003,WL,A,5.0
1,35.97199988365173,learn,24028.000116348267,Fri Oct 04 2024 09:45:11 GMT-0500 (Central Daylight Time),195855.8999999985,A,gol,I,l,198,1,2848.60000000149,193007.29999999702,8003,WL,A,5.0
1,36.105000019073486,learn,23894.999980926514,Fri Oct 04 2024 09:45:11 GMT-0500 (Central Daylight Time),195989.0,A,gold,I,d,124,1,2981.7000000029802,193007.29999999702,8003,WL,A,5.0
1,36.4539999961853,learn,23546.000003814697,Fri Oct 04 2024 09:45:11 GMT-0500 (Central Daylight Time),196338.79999999702,A,goldenter,I,enter,344,1,3331.5,193007.29999999702,8003,WL,A,5.0
1,37.63699984550476,learn,22363.00015449524,Fri Oct 04 2024 09:45:11 GMT-0500 (Central Daylight Time),197521.8999999985,A,r,I,r,1163,1,1182.7999999970198,196339.1000000015,8003,WL,A,6.0
1,37.80399990081787,learn,22196.00009918213,Fri Oct 04 2024 09:45:11 GMT-0500 (Central Daylight Time),197688.5,A,ra,I,a,148,1,1349.3999999985099,196339.1000000015,8003,WL,A,6.0
1,37.97099995613098,learn,22029.00004386902,Fri Oct 04 2024 09:45:11 GMT-0500 (Central Daylight Time),197855.1000000015,A,rat,I,t,149,1,1516.0,196339.1000000015,8003,WL,A,6.0
1,38.13699984550476,learn,21863.00015449524,Fri Oct 04 2024 09:45:11 GMT-0500 (Central Daylight Time),198021.70000000298,A,ratt,I,t,150,1,1682.6000000014901,196339.1000000015,8003,WL,A,6.0
1,38.269999980926514,learn,21730.000019073486,Fri Oct 04 2024 09:45:11 GMT-0500 (Central Daylight Time),198154.8999999985,A,rattl,I,l,128,1,1815.7999999970198,196339.1000000015,8003,WL,A,6.0
1,38.38699984550476,learn,21613.00015449524,Fri Oct 04 2024 09:45:11 GMT-0500 (Central Daylight Time),198271.5,A,rattle,I,e,97,1,1932.3999999985099,196339.1000000015,8003,WL,A,6.0
1,38.58699989318848,learn,21413.000106811523,Fri Oct 04 2024 09:45:11 GMT-0500 (Central Daylight Time),198471.5,A,rattleenter,I,enter,190,1,2132.39999999851,196339.1000000015,8003,WL,A,6.0
1,43.18599987030029,learn,16814.000129699707,Fri Oct 04 2024 09:45:11 GMT-0500 (Central Daylight Time),203070.1000000015,A,f,I,f,4590,1,4598.20000000298,198471.8999999985,8003,WL,A,7.0
1,43.36899995803833,learn,16631.00004196167,Fri Oct 04 2024 09:45:11 GMT-0500 (Central Daylight Time),203253.3999999985,A,fl,I,l,175,1,4781.5,198471.8999999985,8003,WL,A,7.0
1,43.61899995803833,learn,16381.00004196167,Fri Oct 04 2024 09:45:11 GMT-0500 (Central Daylight Time),203503.3999999985,A,flo,I,o,240,1,5031.5,198471.8999999985,8003,WL,A,7.0
1,44.401999950408936,learn,15598.000049591064,Fri Oct 04 2024 09:45:11 GMT-0500 (Central Daylight Time),204286.5,A,flow,I,w,766,1,5814.60000000149,198471.8999999985,8003,WL,A,7.0
1,44.569000005722046,learn,15430.999994277954,Fri Oct 04 2024 09:45:11 GMT-0500 (Central Daylight Time),204453.1000000015,A,flowe,I,e,151,1,5981.20000000298,198471.8999999985,8003,WL,A,7.0
1,44.70300006866455,learn,15296.99993133545,Fri Oct 04 2024 09:45:11 GMT-0500 (Central Daylight Time),204587.5,A,flower,I,r,120,1,6115.60000000149,198471.8999999985,8003,WL,A,7.0
1,44.918999910354614,learn,15081.000089645386,Fri Oct 04 2024 09:45:11 GMT-0500 (Central Daylight Time),204802.8999999985,A,flowerenter,I,enter,202,1,6331.0,198471.8999999985,8003,WL,A,7.0
1,45.2979998588562,learn,14702.000141143799,Fri Oct 04 2024 09:45:11 GMT-0500 (Central Daylight Time),205182.5,A,b,I,b,374,1,379.20000000298023,204803.29999999702,8003,WL,A,8.0
1,45.4449999332428,learn,14555.000066757202,Fri Oct 04 2024 09:45:11 GMT-0500 (Central Daylight Time),205329.70000000298,A,bo,I,o,143,1,526.4000000059605,204803.29999999702,8003,WL,A,8.0
1,45.6010000705719,learn,14398.9999294281,Fri Oct 04 2024 09:45:11 GMT-0500 (Central Daylight Time),205485.70000000298,A,boo,I,o,140,1,682.4000000059605,204803.29999999702,8003,WL,A,8.0
1,45.901999950408936,learn,14098.000049591064,Fri Oct 04 2024 09:45:11 GMT-0500 (Central Daylight Time),205786.1000000015,A,book,I,k,288,1,982.8000000044703,204803.29999999702,8003,WL,A,8.0
1,46.234999895095825,learn,13765.000104904175,Fri Oct 04 2024 09:45:11 GMT-0500 (Central Daylight Time),206119.20000000298,A,bookenter,I,enter,315,1,1315.9000000059605,204803.29999999702,8003,WL,A,8.0
1,51.16599988937378,learn,8834.00011062622,Fri Oct 04 2024 09:45:11 GMT-0500 (Central Daylight Time),211050.79999999702,A,b,I,b,4926,1,4931.29999999702,206119.5,8003,WL,A,9.0
1,51.43299984931946,learn,8567.000150680542,Fri Oct 04 2024 09:45:11 GMT-0500 (Central Daylight Time),211317.70000000298,A,bu,I,u,259,1,5198.20000000298,206119.5,8003,WL,A,9.0
1,51.58299994468689,learn,8417.00005531311,Fri Oct 04 2024 09:45:11 GMT-0500 (Central Daylight Time),211467.5,A,but,I,t,144,1,5348.0,206119.5,8003,WL,A,9.0
1,51.75,learn,8250.0,Fri Oct 04 2024 09:45:11 GMT-0500 (Central Daylight Time),211634.20000000298,A,butt,I,t,154,1,5514.70000000298,206119.5,8003,WL,A,9.0
1,51.865999937057495,learn,8134.000062942505,Fri Oct 04 2024 09:45:11 GMT-0500 (Central Daylight Time),211750.8999999985,A,butto,I,o,99,1,5631.39999999851,206119.5,8003,WL,A,9.0
1,51.98300004005432,learn,8016.999959945679,Fri Oct 04 2024 09:45:11 GMT-0500 (Central Daylight Time),211867.3999999985,A,button,I,n,102,1,5747.89999999851,206119.5,8003,WL,A,9.0
1,52.198999881744385,learn,7801.000118255615,Fri Oct 04 2024 09:45:11 GMT-0500 (Central Daylight Time),212083.70000000298,A,buttonenter,I,enter,210,1,5964.20000000298,206119.5,8003,WL,A,9.0
1,60.013999938964844,learn,-13.99993896484375,Fri Oct 04 2024 09:45:11 GMT-0500 (Central Daylight Time),219898.29999999702,A,None,I,None,7809,1,7814.29999999702,212084.0,8003,WL,A,10.0
2,1.0499999523162842,learn,58950.000047683716,Fri Oct 04 2024 09:45:11 GMT-0500 (Central Daylight Time),295124.8999999985,A,b,I,b,1035,1,1049.6999999955297,294075.200000003,8003,WL,A,1.0
2,1.2659997940063477,learn,58734.00020599365,Fri Oct 04 2024 09:45:11 GMT-0500 (Central Daylight Time),295341.200000003,A,bo,I,o,208,1,1266.0,294075.200000003,8003,WL,A,1.0
2,1.4659998416900635,learn,58534.00015830994,Fri Oct 04 2024 09:45:11 GMT-0500 (Central Daylight Time),295541.299999997,A,boo,I,o,192,1,1466.0999999940395,294075.200000003,8003,WL,A,1.0
2,1.6989998817443848,learn,58301.000118255615,Fri Oct 04 2024 09:45:11 GMT-0500 (Central Daylight Time),295774.299999997,A,book,I,k,224,1,1699.0999999940395,294075.200000003,8003,WL,A,1.0
2,2.0159997940063477,learn,57984.00020599365,Fri Oct 04 2024 09:45:11 GMT-0500 (Central Daylight Time),296091.1000000015,A,bookenter,I,enter,296,1,2015.8999999985099,294075.200000003,8003,WL,A,1.0
2,3.4159998893737793,learn,56584.00011062622,Fri Oct 04 2024 09:45:11 GMT-0500 (Central Daylight Time),297490.6000000015,A,f,I,f,1379,1,1399.1000000014901,296091.5,8003,WL,A,2.0
2,3.5829999446868896,learn,56417.00005531311,Fri Oct 04 2024 09:45:11 GMT-0500 (Central Daylight Time),297657.3999999985,A,fl,I,l,147,1,1565.8999999985099,296091.5,8003,WL,A,2.0
2,3.7659997940063477,learn,56234.00020599365,Fri Oct 04 2024 09:45:11 GMT-0500 (Central Daylight Time),297840.5,A,flo,I,o,172,1,1749.0,296091.5,8003,WL,A,2.0
2,3.865000009536743,learn,56134.99999046326,Fri Oct 04 2024 09:45:11 GMT-0500 (Central Daylight Time),297940.299999997,A,flow,I,w,93,1,1848.7999999970198,296091.5,8003,WL,A,2.0
2,3.9659998416900635,learn,56034.00015830994,Fri Oct 04 2024 09:45:11 GMT-0500 (Central Daylight Time),298040.6000000015,A,flowe,I,e,80,1,1949.1000000014901,296091.5,8003,WL,A,2.0
2,4.097999811172485,learn,55902.000188827515,Fri Oct 04 2024 09:45:11 GMT-0500 (Central Daylight Time),298173.200000003,A,flower,I,r,124,1,2081.7000000029802,296091.5,8003,WL,A,2.0
2,4.281999826431274,learn,55718.000173568726,Fri Oct 04 2024 09:45:11 GMT-0500 (Central Daylight Time),298357.0,A,flowerenter,I,enter,176,1,2265.5,296091.5,8003,WL,A,2.0
2,4.81499981880188,learn,55185.00018119812,Fri Oct 04 2024 09:45:11 GMT-0500 (Central Daylight Time),298890.200000003,A,m,I,m,521,1,532.9000000059605,298357.299999997,8003,WL,A,3.0
2,4.931999921798706,learn,55068.000078201294,Fri Oct 04 2024 09:45:11 GMT-0500 (Central Daylight Time),299006.799999997,A,me,I,e,107,1,649.5,298357.299999997,8003,WL,A,3.0
2,5.099999904632568,learn,54900.00009536743,Fri Oct 04 2024 09:45:11 GMT-0500 (Central Daylight Time),299174.6000000015,A,mea,I,a,151,1,817.3000000044703,298357.299999997,8003,WL,A,3.0
2,5.406999826431274,learn,54593.000173568726,Fri Oct 04 2024 09:45:11 GMT-0500 (Central Daylight Time),299481.799999997,A,mead,I,d,303,1,1124.5,298357.299999997,8003,WL,A,3.0
2,5.597999811172485,learn,54402.000188827515,Fri Oct 04 2024 09:45:11 GMT-0500 (Central Daylight Time),299673.0,A,meado,I,o,171,1,1315.7000000029802,298357.299999997,8003,WL,A,3.0
2,5.664999961853027,learn,54335.00003814697,Fri Oct 04 2024 09:45:11 GMT-0500 (Central Daylight Time),299739.799999997,A,meadow,I,w,52,1,1382.5,298357.299999997,8003,WL,A,3.0
2,6.081999778747559,learn,53918.00022125244,Fri Oct 04 2024 09:45:11 GMT-0500 (Central Daylight Time),300156.5,A,meadowenter,I,enter,402,1,1799.2000000029802,298357.299999997,8003,WL,A,3.0
2,6.497999906539917,learn,53502.00009346008,Fri Oct 04 2024 09:45:11 GMT-0500 (Central Daylight Time),300572.8999999985,A,g,I,g,409,1,416.1000000014901,300156.799999997,8003,WL,A,4.0
2,6.5309998989105225,learn,53469.00010108948,Fri Oct 04 2024 09:45:11 GMT-0500 (Central Daylight Time),300606.200000003,A,go,I,o,24,1,449.40000000596046,300156.799999997,8003,WL,A,4.0
2,6.764999866485596,learn,53235.000133514404,Fri Oct 04 2024 09:45:11 GMT-0500 (Central Daylight Time),300839.700000003,A,gol,I,l,224,1,682.9000000059605,300156.799999997,8003,WL,A,4.0
2,6.880999803543091,learn,53119.00019645691,Fri Oct 04 2024 09:45:11 GMT-0500 (Central Daylight Time),300956.1000000015,A,gold,I,d,102,1,799.3000000044703,300156.799999997,8003,WL,A,4.0
2,7.047999858856201,learn,52952.0001411438,Fri Oct 04 2024 09:45:11 GMT-0500 (Central Daylight Time),301122.6000000015,A,goldenter,I,enter,161,1,965.8000000044703,300156.799999997,8003,WL,A,4.0
2,7.480999946594238,learn,52519.00005340576,Fri Oct 04 2024 09:45:11 GMT-0500 (Central Daylight Time),301556.0,A,r,I,r,419,1,433.1000000014901,301122.8999999985,8003,WL,A,5.0
2,7.615999937057495,learn,52384.000062942505,Fri Oct 04 2024 09:45:11 GMT-0500 (Central Daylight Time),301690.3999999985,A,ra,I,a,129,1,567.5,301122.8999999985,8003,WL,A,5.0
2,7.797999858856201,learn,52202.0001411438,Fri Oct 04 2024 09:45:11 GMT-0500 (Central Daylight Time),301872.5,A,rat,I,t,163,1,749.6000000014901,301122.8999999985,8003,WL,A,5.0
2,7.96399998664856,learn,52036.00001335144,Fri Oct 04 2024 09:45:11 GMT-0500 (Central Daylight Time),302039.200000003,A,ratt,I,t,149,1,916.3000000044703,301122.8999999985,8003,WL,A,5.0
2,8.113999843597412,learn,51886.00015640259,Fri Oct 04 2024 09:45:11 GMT-0500 (Central Daylight Time),302189.1000000015,A,rattl,I,l,134,1,1066.2000000029802,301122.8999999985,8003,WL,A,5.0
2,8.230999946594238,learn,51769.00005340576,Fri Oct 04 2024 09:45:11 GMT-0500 (Central Daylight Time),302305.700000003,A,rattle,I,e,96,1,1182.8000000044703,301122.8999999985,8003,WL,A,5.0
2,8.446999788284302,learn,51553.0002117157,Fri Oct 04 2024 09:45:11 GMT-0500 (Central Daylight Time),302522.299999997,A,rattleenter,I,enter,204,1,1399.3999999985099,301122.8999999985,8003,WL,A,5.0
2,11.596999883651733,learn,48403.00011634827,Fri Oct 04 2024 09:45:11 GMT-0500 (Central Daylight Time),305671.3999999985,A,b,I,b,3131,1,3148.6999999955297,302522.700000003,8003,WL,A,6.0
2,11.745999813079834,learn,48254.000186920166,Fri Oct 04 2024 09:45:11 GMT-0500 (Central Daylight Time),305821.299999997,A,bu,I,u,142,1,3298.5999999940395,302522.700000003,8003,WL,A,6.0
2,11.879999876022339,learn,48120.00012397766,Fri Oct 04 2024 09:45:11 GMT-0500 (Central Daylight Time),305954.6000000015,A,but,I,t,113,1,3431.89999999851,302522.700000003,8003,WL,A,6.0
2,12.062999963760376,learn,47937.000036239624,Fri Oct 04 2024 09:45:11 GMT-0500 (Central Daylight Time),306137.799999997,A,butt,I,t,163,1,3615.0999999940395,302522.700000003,8003,WL,A,6.0
2,12.162999868392944,learn,47837.000131607056,Fri Oct 04 2024 09:45:11 GMT-0500 (Central Daylight Time),306237.799999997,A,butto,I,o,92,1,3715.0999999940395,302522.700000003,8003,WL,A,6.0
2,12.328999996185303,learn,47671.0000038147,Fri Oct 04 2024 09:45:11 GMT-0500 (Central Daylight Time),306404.299999997,A,button,I,n,152,1,3881.5999999940395,302522.700000003,8003,WL,A,6.0
2,12.678999900817871,learn,47321.00009918213,Fri Oct 04 2024 09:45:11 GMT-0500 (Central Daylight Time),306754.200000003,A,buttonenter,I,enter,345,1,4231.5,302522.700000003,8003,WL,A,6.0
2,14.395999908447266,learn,45604.000091552734,Fri Oct 04 2024 09:45:11 GMT-0500 (Central Daylight Time),308470.3999999985,A,m,I,m,1707,1,1715.8999999985099,306754.5,8003,WL,A,7.0
2,14.678999900817871,learn,45321.00009918213,Fri Oct 04 2024 09:45:11 GMT-0500 (Central Daylight Time),308754.1000000015,A,ma,I,a,263,1,1999.6000000014901,306754.5,8003,WL,A,7.0
2,15.294999837875366,learn,44705.000162124634,Fri Oct 04 2024 09:45:11 GMT-0500 (Central Daylight Time),309369.8999999985,A,m,I,backspace,596,1,2615.39999999851,306754.5,8003,WL,A,7.0
2,15.328999996185303,learn,44671.0000038147,Fri Oct 04 2024 09:45:11 GMT-0500 (Central Daylight Time),309403.8999999985,A,me,I,e,27,1,2649.39999999851,306754.5,8003,WL,A,7.0
2,15.444999933242798,learn,44555.0000667572,Fri Oct 04 2024 09:45:11 GMT-0500 (Central Daylight Time),309520.299999997,A,mea,I,a,106,1,2765.7999999970198,306754.5,8003,WL,A,7.0
2,15.694999933242798,learn,44305.0000667572,Fri Oct 04 2024 09:45:11 GMT-0500 (Central Daylight Time),309770.0,A,mead,I,d,229,1,3015.5,306754.5,8003,WL,A,7.0
2,15.878999948501587,learn,44121.00005149841,Fri Oct 04 2024 09:45:11 GMT-0500 (Central Daylight Time),309953.3999999985,A,meado,I,o,171,1,3198.89999999851,306754.5,8003,WL,A,7.0
2,15.994999885559082,learn,44005.00011444092,Fri Oct 04 2024 09:45:11 GMT-0500 (Central Daylight Time),310070.0,A,meadow,I,w,100,1,3315.5,306754.5,8003,WL,A,7.0
2,16.32799983024597,learn,43672.00016975403,Fri Oct 04 2024 09:45:11 GMT-0500 (Central Daylight Time),310402.8999999985,A,meadowenter,I,enter,328,1,3648.39999999851,306754.5,8003,WL,A,7.0
2,18.91100001335144,learn,41088.99998664856,Fri Oct 04 2024 09:45:11 GMT-0500 (Central Daylight Time),312985.799999997,A,t,I,t,2563,1,2582.6999999955297,310403.1000000015,8003,WL,A,8.0
2,19.143999814987183,learn,40856.00018501282,Fri Oct 04 2024 09:45:11 GMT-0500 (Central Daylight Time),313219.0,A,tr,I,r,213,1,2815.89999999851,310403.1000000015,8003,WL,A,8.0
2,19.24399995803833,learn,40756.00004196167,Fri Oct 04 2024 09:45:11 GMT-0500 (Central Daylight Time),313319.0,A,tra,I,a,83,1,2915.89999999851,310403.1000000015,8003,WL,A,8.0
2,19.393999814987183,learn,40606.00018501282,Fri Oct 04 2024 09:45:11 GMT-0500 (Central Daylight Time),313469.0,A,trai,I,i,142,1,3065.89999999851,310403.1000000015,8003,WL,A,8.0
2,19.610999822616577,learn,40389.00017738342,Fri Oct 04 2024 09:45:11 GMT-0500 (Central Daylight Time),313685.6000000015,A,train,I,n,200,1,3282.5,310403.1000000015,8003,WL,A,8.0
2,19.893999814987183,learn,40106.00018501282,Fri Oct 04 2024 09:45:11 GMT-0500 (Central Daylight Time),313968.700000003,A,trainenter,I,enter,264,1,3565.60000000149,310403.1000000015,8003,WL,A,8.0
2,23.408999919891357,learn,36591.00008010864,Fri Oct 04 2024 09:45:11 GMT-0500 (Central Daylight Time),317484.299999997,A,c,I,c,3502,1,3515.1999999955297,313969.1000000015,8003,WL,A,9.0
2,23.759999990463257,learn,36240.00000953674,Fri Oct 04 2024 09:45:11 GMT-0500 (Central Daylight Time),317835.299999997,A,ch,I,h,329,1,3866.1999999955297,313969.1000000015,8003,WL,A,9.0
2,23.942999839782715,learn,36057.000160217285,Fri Oct 04 2024 09:45:11 GMT-0500 (Central Daylight Time),318017.5,A,chi,I,i,162,1,4048.39999999851,313969.1000000015,8003,WL,A,9.0
2,24.32799983024597,learn,35672.00016975403,Fri Oct 04 2024 09:45:11 GMT-0500 (Central Daylight Time),318402.5,A,chim,I,m,372,1,4433.39999999851,313969.1000000015,8003,WL,A,9.0
2,25.025999784469604,learn,34974.000215530396,Fri Oct 04 2024 09:45:11 GMT-0500 (Central Daylight Time),319100.6000000015,A,chimn,I,n,691,1,5131.5,313969.1000000015,8003,WL,A,9.0
2,25.22599983215332,learn,34774.00016784668,Fri Oct 04 2024 09:45:11 GMT-0500 (Central Daylight Time),319300.5,A,chimne,I,e,185,1,5331.39999999851,313969.1000000015,8003,WL,A,9.0
2,25.45899987220764,learn,34541.00012779236,Fri Oct 04 2024 09:45:11 GMT-0500 (Central Daylight Time),319533.799999997,A,chimney,I,y,225,1,5564.69999999553,313969.1000000015,8003,WL,A,9.0
2,25.742999792099,learn,34257.000207901,Fri Oct 04 2024 09:45:11 GMT-0500 (Central Daylight Time),319818.200000003,A,chimneyenter,I,enter,272,1,5849.10000000149,313969.1000000015,8003,WL,A,9.0
2,26.042999982833862,learn,33957.00001716614,Fri Oct 04 2024 09:45:11 GMT-0500 (Central Daylight Time),320118.1000000015,A,l,I,l,291,1,299.5,319818.6000000015,8003,WL,A,10.0
2,26.375,learn,33625.0,Fri Oct 04 2024 09:45:11 GMT-0500 (Central Daylight Time),320450.0,A,lo,I,o,311,1,631.3999999985099,319818.6000000015,8003,WL,A,10.0
2,26.574999809265137,learn,33425.00019073486,Fri Oct 04 2024 09:45:11 GMT-0500 (Central Daylight Time),320649.799999997,A,log,I,g,180,1,831.1999999955297,319818.6000000015,8003,WL,A,10.0
2,26.79199981689453,learn,33208.00018310547,Fri Oct 04 2024 09:45:11 GMT-0500 (Central Daylight Time),320866.6000000015,A,logenter,I,enter,196,1,1048.0,319818.6000000015,8003,WL,A,10.0
2,27.857999801635742,learn,32142.000198364258,Fri Oct 04 2024 09:45:11 GMT-0500 (Central Daylight Time),321932.8999999985,A,a,I,a,1059,1,1065.8999999985099,320867.0,8003,WL,A,11.0
2,28.057999849319458,learn,31942.000150680542,Fri Oct 04 2024 09:45:11 GMT-0500 (Central Daylight Time),322132.8999999985,A,ap,I,p,193,1,1265.8999999985099,320867.0,8003,WL,A,11.0
2,28.223999977111816,learn,31776.000022888184,Fri Oct 04 2024 09:45:11 GMT-0500 (Central Daylight Time),322299.299999997,A,app,I,p,161,1,1432.2999999970198,320867.0,8003,WL,A,11.0
2,28.424999952316284,learn,31575.000047683716,Fri Oct 04 2024 09:45:11 GMT-0500 (Central Daylight Time),322499.3999999985,A,appl,I,l,194,1,1632.3999999985099,320867.0,8003,WL,A,11.0
2,28.5239999294281,learn,31476.0000705719,Fri Oct 04 2024 09:45:11 GMT-0500 (Central Daylight Time),322599.299999997,A,apple,I,e,82,1,1732.2999999970198,320867.0,8003,WL,A,11.0
2,28.787999868392944,learn,31212.000131607056,Fri Oct 04 2024 09:45:11 GMT-0500 (Central Daylight Time),322862.8999999985,A,appleenter,I,enter,259,1,1995.8999999985099,320867.0,8003,WL,A,11.0
2,38.88800001144409,learn,21111.99998855591,Fri Oct 04 2024 09:45:11 GMT-0500 (Central Daylight Time),332962.700000003,A,f,I,f,10086,1,10099.5,322863.200000003,8003,WL,A,12.0
2,39.037999868392944,learn,20962.000131607056,Fri Oct 04 2024 09:45:11 GMT-0500 (Central Daylight Time),333112.799999997,A,fi,I,i,138,1,10249.59999999404,322863.200000003,8003,WL,A,12.0
2,39.13800001144409,learn,20861.99998855591,Fri Oct 04 2024 09:45:11 GMT-0500 (Central Daylight Time),333212.6000000015,A,fin,I,n,93,1,10349.39999999851,322863.200000003,8003,WL,A,12.0
2,39.22099995613098,learn,20779.00004386902,Fri Oct 04 2024 09:45:11 GMT-0500 (Central Daylight Time),333296.1000000015,A,fing,I,g,73,1,10432.89999999851,322863.200000003,8003,WL,A,12.0
2,39.40399980545044,learn,20596.00019454956,Fri Oct 04 2024 09:45:11 GMT-0500 (Central Daylight Time),333478.8999999985,A,finge,I,e,174,1,10615.69999999553,322863.200000003,8003,WL,A,12.0
2,39.47199988365173,learn,20528.000116348267,Fri Oct 04 2024 09:45:11 GMT-0500 (Central Daylight Time),333546.799999997,A,finger,I,r,64,1,10683.59999999404,322863.200000003,8003,WL,A,12.0
2,39.620999813079834,learn,20379.000186920166,Fri Oct 04 2024 09:45:11 GMT-0500 (Central Daylight Time),333696.0,A,fingerenter,I,enter,139,1,10832.79999999702,322863.200000003,8003,WL,A,12.0
2,46.651999950408936,learn,13348.000049591064,Fri Oct 04 2024 09:45:11 GMT-0500 (Central Daylight Time),340727.1000000015,A,h,I,h,7013,1,7030.70000000298,333696.3999999985,8003,WL,A,13.0
2,46.93499994277954,learn,13065.000057220459,Fri Oct 04 2024 09:45:11 GMT-0500 (Central Daylight Time),341010.299999997,A,ha,I,a,262,1,7313.89999999851,333696.3999999985,8003,WL,A,13.0
2,46.95199990272522,learn,13048.00009727478,Fri Oct 04 2024 09:45:11 GMT-0500 (Central Daylight Time),341026.700000003,A,har,I,r,11,1,7330.30000000447,333696.3999999985,8003,WL,A,13.0
2,47.28499984741211,learn,12715.00015258789,Fri Oct 04 2024 09:45:11 GMT-0500 (Central Daylight Time),341360.1000000015,A,harp,I,p,315,1,7663.70000000298,333696.3999999985,8003,WL,A,13.0
2,47.5699999332428,learn,12430.000066757202,Fri Oct 04 2024 09:45:11 GMT-0500 (Central Daylight Time),341644.5,A,harpenter,I,enter,277,1,7948.10000000149,333696.3999999985,8003,WL,A,13.0
2,60.014999866485596,learn,-14.999866485595703,Fri Oct 04 2024 09:45:11 GMT-0500 (Central Daylight Time),354089.6000000015,A,None,I,None,12440,1,12444.80000000447,341644.799999997,8003,WL,A,14.0
3,0.7669999599456787,learn,59233.00004005432,Fri Oct 04 2024 09:45:11 GMT-0500 (Central Daylight Time),425400.299999997,A,g,I,g,756,1,766.1999999955297,424634.1000000015,8003,WL,A,1.0
3,0.8670001029968262,learn,59132.999897003174,Fri Oct 04 2024 09:45:11 GMT-0500 (Central Daylight Time),425500.5,A,go,I,o,92,1,866.3999999985099,424634.1000000015,8003,WL,A,1.0
3,1.1000001430511475,learn,58899.99985694885,Fri Oct 04 2024 09:45:11 GMT-0500 (Central Daylight Time),425733.700000003,A,gol,I,l,217,1,1099.6000000014901,424634.1000000015,8003,WL,A,1.0
3,1.2160000801086426,learn,58783.99991989136,Fri Oct 04 2024 09:45:11 GMT-0500 (Central Daylight Time),425850.299999997,A,gold,I,d,96,1,1216.1999999955297,424634.1000000015,8003,WL,A,1.0
3,1.4670000076293945,learn,58532.999992370605,Fri Oct 04 2024 09:45:11 GMT-0500 (Central Daylight Time),426100.299999997,A,goldenter,I,enter,243,1,1466.1999999955297,424634.1000000015,8003,WL,A,1.0
3,1.8329999446868896,learn,58167.00005531311,Fri Oct 04 2024 09:45:11 GMT-0500 (Central Daylight Time),426466.799999997,A,r,I,r,361,1,366.09999999403954,426100.700000003,8003,WL,A,2.0
3,2.0160000324249268,learn,57983.99996757507,Fri Oct 04 2024 09:45:11 GMT-0500 (Central Daylight Time),426650.200000003,A,ra,I,a,162,1,549.5,426100.700000003,8003,WL,A,2.0
3,2.2330000400543213,learn,57766.99995994568,Fri Oct 04 2024 09:45:11 GMT-0500 (Central Daylight Time),426866.5,A,rat,I,t,196,1,765.7999999970198,426100.700000003,8003,WL,A,2.0
3,2.4000000953674316,learn,57599.99990463257,Fri Oct 04 2024 09:45:11 GMT-0500 (Central Daylight Time),427033.3999999985,A,ratt,I,t,147,1,932.6999999955297,426100.700000003,8003,WL,A,2.0
3,2.5160000324249268,learn,57483.99996757507,Fri Oct 04 2024 09:45:11 GMT-0500 (Central Daylight Time),427149.799999997,A,rattl,I,l,100,1,1049.0999999940395,426100.700000003,8003,WL,A,2.0
3,2.5829999446868896,learn,57417.00005531311,Fri Oct 04 2024 09:45:11 GMT-0500 (Central Daylight Time),427216.799999997,A,rattle,I,e,48,1,1116.0999999940395,426100.700000003,8003,WL,A,2.0
3,2.815999984741211,learn,57184.00001525879,Fri Oct 04 2024 09:45:11 GMT-0500 (Central Daylight Time),427450.0,A,rattleenter,I,enter,213,1,1349.2999999970198,426100.700000003,8003,WL,A,2.0
3,3.1489999294281006,learn,56851.0000705719,Fri Oct 04 2024 09:45:11 GMT-0500 (Central Daylight Time),427782.8999999985,A,s,I,s,324,1,332.6000000014901,427450.299999997,8003,WL,A,3.0
3,3.383000135421753,learn,56616.99986457825,Fri Oct 04 2024 09:45:11 GMT-0500 (Central Daylight Time),428016.3999999985,A,sa,I,a,215,1,566.1000000014901,427450.299999997,8003,WL,A,3.0
3,3.499000072479248,learn,56500.99992752075,Fri Oct 04 2024 09:45:11 GMT-0500 (Central Daylight Time),428132.8999999985,A,sal,I,l,109,1,682.6000000014901,427450.299999997,8003,WL,A,3.0
3,3.7320001125335693,learn,56267.99988746643,Fri Oct 04 2024 09:45:11 GMT-0500 (Central Daylight Time),428366.200000003,A,salt,I,t,225,1,915.9000000059605,427450.299999997,8003,WL,A,3.0
3,3.9660000801086426,learn,56033.99991989136,Fri Oct 04 2024 09:45:11 GMT-0500 (Central Daylight Time),428599.5,A,saltenter,I,enter,223,1,1149.2000000029802,427450.299999997,8003,WL,A,3.0
3,4.466000080108643,learn,55533.99991989136,Fri Oct 04 2024 09:45:11 GMT-0500 (Central Daylight Time),429099.299999997,A,m,I,m,486,1,499.5,428599.799999997,8003,WL,A,4.0
3,4.549000024795532,learn,55450.99997520447,Fri Oct 04 2024 09:45:11 GMT-0500 (Central Daylight Time),429182.6000000015,A,me,I,e,66,1,582.8000000044703,428599.799999997,8003,WL,A,4.0
3,4.699000120162964,learn,55300.999879837036,Fri Oct 04 2024 09:45:11 GMT-0500 (Central Daylight Time),429332.5,A,mea,I,a,135,1,732.7000000029802,428599.799999997,8003,WL,A,4.0
3,4.949000120162964,learn,55050.999879837036,Fri Oct 04 2024 09:45:11 GMT-0500 (Central Daylight Time),429582.5,A,mead,I,d,241,1,982.7000000029802,428599.799999997,8003,WL,A,4.0
3,5.482000112533569,learn,54517.99988746643,Fri Oct 04 2024 09:45:11 GMT-0500 (Central Daylight Time),430115.700000003,A,meadu,I,u,519,1,1515.9000000059605,428599.799999997,8003,WL,A,4.0
3,6.215000152587891,learn,53784.99984741211,Fri Oct 04 2024 09:45:11 GMT-0500 (Central Daylight Time),430848.799999997,A,mead,I,backspace,722,1,2249.0,428599.799999997,8003,WL,A,4.0
3,6.515000104904175,learn,53484.999895095825,Fri Oct 04 2024 09:45:11 GMT-0500 (Central Daylight Time),431148.700000003,A,meado,I,o,294,1,2548.9000000059605,428599.799999997,8003,WL,A,4.0
3,6.615000009536743,learn,53384.99999046326,Fri Oct 04 2024 09:45:11 GMT-0500 (Central Daylight Time),431248.700000003,A,meadow,I,w,81,1,2648.9000000059605,428599.799999997,8003,WL,A,4.0
3,6.898000001907349,learn,53101.99999809265,Fri Oct 04 2024 09:45:11 GMT-0500 (Central Daylight Time),431531.799999997,A,meadowenter,I,enter,277,1,2932.0,428599.799999997,8003,WL,A,4.0
3,7.88100004196167,learn,52118.99995803833,Fri Oct 04 2024 09:45:11 GMT-0500 (Central Daylight Time),432515.0,A,b,I,b,970,1,982.8999999985099,431532.1000000015,8003,WL,A,5.0
3,7.965000152587891,learn,52034.99984741211,Fri Oct 04 2024 09:45:11 GMT-0500 (Central Daylight Time),432598.299999997,A,bo,I,o,66,1,1066.1999999955297,431532.1000000015,8003,WL,A,5.0
3,8.148000001907349,learn,51851.99999809265,Fri Oct 04 2024 09:45:11 GMT-0500 (Central Daylight Time),432781.6000000015,A,boo,I,o,167,1,1249.5,431532.1000000015,8003,WL,A,5.0
3,8.314000129699707,learn,51685.99987030029,Fri Oct 04 2024 09:45:11 GMT-0500 (Central Daylight Time),432948.1000000015,A,book,I,k,160,1,1416.0,431532.1000000015,8003,WL,A,5.0
3,8.79800009727478,learn,51201.99990272522,Fri Oct 04 2024 09:45:11 GMT-0500 (Central Daylight Time),433431.3999999985,A,bookenter,I,enter,473,1,1899.2999999970198,431532.1000000015,8003,WL,A,5.0
3,9.081000089645386,learn,50918.999910354614,Fri Oct 04 2024 09:45:11 GMT-0500 (Central Daylight Time),433714.5,A,f,I,f,270,1,282.79999999701977,433431.700000003,8003,WL,A,6.0
3,9.21399998664856,learn,50786.00001335144,Fri Oct 04 2024 09:45:11 GMT-0500 (Central Daylight Time),433847.8999999985,A,fl,I,l,115,1,416.19999999552965,433431.700000003,8003,WL,A,6.0
3,9.430999994277954,learn,50569.000005722046,Fri Oct 04 2024 09:45:11 GMT-0500 (Central Daylight Time),434064.5,A,flo,I,o,197,1,632.7999999970198,433431.700000003,8003,WL,A,6.0
3,9.496999979019165,learn,50503.000020980835,Fri Oct 04 2024 09:45:11 GMT-0500 (Central Daylight Time),434131.0,A,flow,I,w,53,1,699.2999999970198,433431.700000003,8003,WL,A,6.0
3,9.597000122070312,learn,50402.99987792969,Fri Oct 04 2024 09:45:11 GMT-0500 (Central Daylight Time),434231.0,A,flowe,I,e,83,1,799.2999999970198,433431.700000003,8003,WL,A,6.0
3,9.79699993133545,learn,50203.00006866455,Fri Oct 04 2024 09:45:11 GMT-0500 (Central Daylight Time),434430.8999999985,A,flower,I,r,190,1,999.1999999955297,433431.700000003,8003,WL,A,6.0
3,9.996999979019165,learn,50003.000020980835,Fri Oct 04 2024 09:45:11 GMT-0500 (Central Daylight Time),434631.0,A,flowerenter,I,enter,182,1,1199.2999999970198,433431.700000003,8003,WL,A,6.0
3,11.597000122070312,learn,48402.99987792969,Fri Oct 04 2024 09:45:11 GMT-0500 (Central Daylight Time),436230.3999999985,A,t,I,t,1582,1,1599.1000000014901,434631.299999997,8003,WL,A,7.0
3,11.830000162124634,learn,48169.999837875366,Fri Oct 04 2024 09:45:11 GMT-0500 (Central Daylight Time),436463.6000000015,A,tr,I,r,223,1,1832.3000000044703,434631.299999997,8003,WL,A,7.0
3,11.913000106811523,learn,48086.99989318848,Fri Oct 04 2024 09:45:11 GMT-0500 (Central Daylight Time),436546.700000003,A,tra,I,a,62,1,1915.4000000059605,434631.299999997,8003,WL,A,7.0
3,12.11300015449524,learn,47886.99984550476,Fri Oct 04 2024 09:45:11 GMT-0500 (Central Daylight Time),436747.0,A,trai,I,i,187,1,2115.7000000029802,434631.299999997,8003,WL,A,7.0
3,12.27999997138977,learn,47720.00002861023,Fri Oct 04 2024 09:45:11 GMT-0500 (Central Daylight Time),436913.5,A,train,I,n,154,1,2282.2000000029802,434631.299999997,8003,WL,A,7.0
3,12.597000122070312,learn,47402.99987792969,Fri Oct 04 2024 09:45:11 GMT-0500 (Central Daylight Time),437230.299999997,A,trainenter,I,enter,300,1,2599.0,434631.299999997,8003,WL,A,7.0
3,13.413000106811523,learn,46586.99989318848,Fri Oct 04 2024 09:45:11 GMT-0500 (Central Daylight Time),438046.6000000015,A,h,I,h,799,1,815.8999999985099,437230.700000003,8003,WL,A,8.0
3,13.52999997138977,learn,46470.00002861023,Fri Oct 04 2024 09:45:11 GMT-0500 (Central Daylight Time),438163.200000003,A,ha,I,a,102,1,932.5,437230.700000003,8003,WL,A,8.0
3,13.696000099182129,learn,46303.99990081787,Fri Oct 04 2024 09:45:11 GMT-0500 (Central Daylight Time),438329.799999997,A,har,I,r,154,1,1099.0999999940395,437230.700000003,8003,WL,A,8.0
3,13.92900013923645,learn,46070.99986076355,Fri Oct 04 2024 09:45:11 GMT-0500 (Central Daylight Time),438562.8999999985,A,harp,I,p,228,1,1332.1999999955297,437230.700000003,8003,WL,A,8.0
3,14.312999963760376,learn,45687.000036239624,Fri Oct 04 2024 09:45:11 GMT-0500 (Central Daylight Time),438946.3999999985,A,harpenter,I,enter,371,1,1715.6999999955297,437230.700000003,8003,WL,A,8.0
3,16.006999969482422,learn,43993.00003051758,Fri Oct 04 2024 09:45:11 GMT-0500 (Central Daylight Time),440640.799999997,A,f,I,f,1690,1,1694.0999999940395,438946.700000003,8003,WL,A,9.0
3,16.062999963760376,learn,43937.000036239624,Fri Oct 04 2024 09:45:11 GMT-0500 (Central Daylight Time),440696.6000000015,A,fi,I,i,37,1,1749.8999999985099,438946.700000003,8003,WL,A,9.0
3,16.17900013923645,learn,43820.99986076355,Fri Oct 04 2024 09:45:11 GMT-0500 (Central Daylight Time),440812.5,A,fin,I,n,106,1,1865.7999999970198,438946.700000003,8003,WL,A,9.0
3,16.278000116348267,learn,43721.99988365173,Fri Oct 04 2024 09:45:11 GMT-0500 (Central Daylight Time),440912.1000000015,A,fing,I,g,81,1,1965.3999999985099,438946.700000003,8003,WL,A,9.0
3,16.444999933242798,learn,43555.0000667572,Fri Oct 04 2024 09:45:11 GMT-0500 (Central Daylight Time),441078.8999999985,A,finge,I,e,149,1,2132.1999999955297,438946.700000003,8003,WL,A,9.0
3,16.52900004386902,learn,43470.99995613098,Fri Oct 04 2024 09:45:11 GMT-0500 (Central Daylight Time),441162.299999997,A,finger,I,r,63,1,2215.5999999940395,438946.700000003,8003,WL,A,9.0
3,16.728000164031982,learn,43271.99983596802,Fri Oct 04 2024 09:45:11 GMT-0500 (Central Daylight Time),441362.1000000015,A,fingerenter,I,enter,178,1,2415.39999999851,438946.700000003,8003,WL,A,9.0
3,17.49500012397766,learn,42504.99987602234,Fri Oct 04 2024 09:45:11 GMT-0500 (Central Daylight Time),442128.5,A,b,I,b,748,1,766.1000000014901,441362.3999999985,8003,WL,A,10.0
3,17.67799997329712,learn,42322.00002670288,Fri Oct 04 2024 09:45:11 GMT-0500 (Central Daylight Time),442311.8999999985,A,bu,I,u,165,1,949.5,441362.3999999985,8003,WL,A,10.0
3,17.82800006866455,learn,42171.99993133545,Fri Oct 04 2024 09:45:11 GMT-0500 (Central Daylight Time),442461.700000003,A,but,I,t,141,1,1099.3000000044703,441362.3999999985,8003,WL,A,10.0
3,17.99500012397766,learn,42004.99987602234,Fri Oct 04 2024 09:45:11 GMT-0500 (Central Daylight Time),442628.3999999985,A,butt,I,t,152,1,1266.0,441362.3999999985,8003,WL,A,10.0
3,18.061000108718872,learn,41938.99989128113,Fri Oct 04 2024 09:45:11 GMT-0500 (Central Daylight Time),442695.200000003,A,butto,I,o,57,1,1332.8000000044703,441362.3999999985,8003,WL,A,10.0
3,18.16100001335144,learn,41838.99998664856,Fri Oct 04 2024 09:45:11 GMT-0500 (Central Daylight Time),442794.8999999985,A,button,I,n,94,1,1432.5,441362.3999999985,8003,WL,A,10.0
3,18.394999980926514,learn,41605.000019073486,Fri Oct 04 2024 09:45:11 GMT-0500 (Central Daylight Time),443028.5,A,buttonenter,I,enter,219,1,1666.1000000014901,441362.3999999985,8003,WL,A,10.0
3,26.55999994277954,learn,33440.00005722046,Fri Oct 04 2024 09:45:11 GMT-0500 (Central Daylight Time),451193.700000003,A,h,I,h,8145,1,8164.9000000059605,443028.799999997,8003,WL,A,11.0
3,26.759000062942505,learn,33240.999937057495,Fri Oct 04 2024 09:45:11 GMT-0500 (Central Daylight Time),451392.3999999985,A,ha,I,a,179,1,8363.60000000149,443028.799999997,8003,WL,A,11.0
3,27.02500009536743,learn,32974.99990463257,Fri Oct 04 2024 09:45:11 GMT-0500 (Central Daylight Time),451658.700000003,A,har,I,r,261,1,8629.90000000596,443028.799999997,8003,WL,A,11.0
3,27.20799994468689,learn,32792.00005531311,Fri Oct 04 2024 09:45:11 GMT-0500 (Central Daylight Time),451842.1000000015,A,harp,I,p,171,1,8813.30000000447,443028.799999997,8003,WL,A,11.0
3,27.575000047683716,learn,32424.999952316284,Fri Oct 04 2024 09:45:11 GMT-0500 (Central Daylight Time),452209.0,A,harpenter,I,enter,347,1,9180.20000000298,443028.799999997,8003,WL,A,11.0
3,32.37400007247925,learn,27625.999927520752,Fri Oct 04 2024 09:45:11 GMT-0500 (Central Daylight Time),457007.3999999985,A,a,I,a,4789,1,4798.10000000149,452209.299999997,8003,WL,A,12.0
3,32.59000015258789,learn,27409.99984741211,Fri Oct 04 2024 09:45:11 GMT-0500 (Central Daylight Time),457223.8999999985,A,ap,I,p,198,1,5014.60000000149,452209.299999997,8003,WL,A,12.0
3,32.75699996948242,learn,27243.000030517578,Fri Oct 04 2024 09:45:11 GMT-0500 (Central Daylight Time),457390.3999999985,A,app,I,p,151,1,5181.10000000149,452209.299999997,8003,WL,A,12.0
3,32.94000005722046,learn,27059.99994277954,Fri Oct 04 2024 09:45:11 GMT-0500 (Central Daylight Time),457573.700000003,A,appl,I,l,175,1,5364.4000000059605,452209.299999997,8003,WL,A,12.0
3,33.03999996185303,learn,26960.000038146973,Fri Oct 04 2024 09:45:11 GMT-0500 (Central Daylight Time),457673.700000003,A,apple,I,e,80,1,5464.4000000059605,452209.299999997,8003,WL,A,12.0
3,33.240999937057495,learn,26759.000062942505,Fri Oct 04 2024 09:45:11 GMT-0500 (Central Daylight Time),457874.799999997,A,appleenter,I,enter,188,1,5665.5,452209.299999997,8003,WL,A,12.0
3,35.32299995422363,learn,24677.000045776367,Fri Oct 04 2024 09:45:11 GMT-0500 (Central Daylight Time),459956.299999997,A,l,I,l,2067,1,2081.1999999955297,457875.1000000015,8003,WL,A,13.0
3,35.5220000743866,learn,24477.999925613403,Fri Oct 04 2024 09:45:11 GMT-0500 (Central Daylight Time),460156.0,A,lo,I,o,193,1,2280.89999999851,457875.1000000015,8003,WL,A,13.0
3,35.97200012207031,learn,24027.999877929688,Fri Oct 04 2024 09:45:11 GMT-0500 (Central Daylight Time),460606.200000003,A,log,I,g,435,1,2731.10000000149,457875.1000000015,8003,WL,A,13.0
3,36.17199993133545,learn,23828.00006866455,Fri Oct 04 2024 09:45:11 GMT-0500 (Central Daylight Time),460806.1000000015,A,logenter,I,enter,183,1,2931.0,457875.1000000015,8003,WL,A,13.0
3,36.539000034332275,learn,23460.999965667725,Fri Oct 04 2024 09:45:11 GMT-0500 (Central Daylight Time),461172.5,A,c,I,c,352,1,366.1000000014901,460806.3999999985,8003,WL,A,14.0
3,36.638999938964844,learn,23361.000061035156,Fri Oct 04 2024 09:45:11 GMT-0500 (Central Daylight Time),461272.799999997,A,ch,I,h,81,1,466.3999999985099,460806.3999999985,8003,WL,A,14.0
3,36.7720000743866,learn,23227.999925613403,Fri Oct 04 2024 09:45:11 GMT-0500 (Central Daylight Time),461405.799999997,A,chi,I,i,125,1,599.3999999985099,460806.3999999985,8003,WL,A,14.0
3,37.13800001144409,learn,22861.99998855591,Fri Oct 04 2024 09:45:11 GMT-0500 (Central Daylight Time),461772.299999997,A,chim,I,m,352,1,965.8999999985099,460806.3999999985,8003,WL,A,14.0
3,37.90499997138977,learn,22095.00002861023,Fri Oct 04 2024 09:45:11 GMT-0500 (Central Daylight Time),462539.0,A,chimn,I,n,753,1,1732.6000000014901,460806.3999999985,8003,WL,A,14.0
3,38.08899998664856,learn,21911.00001335144,Fri Oct 04 2024 09:45:11 GMT-0500 (Central Daylight Time),462722.299999997,A,chimne,I,e,162,1,1915.8999999985099,460806.3999999985,8003,WL,A,14.0
3,38.2720000743866,learn,21727.999925613403,Fri Oct 04 2024 09:45:11 GMT-0500 (Central Daylight Time),462905.299999997,A,chimney,I,y,171,1,2098.89999999851,460806.3999999985,8003,WL,A,14.0
3,38.521000146865845,learn,21478.999853134155,Fri Oct 04 2024 09:45:11 GMT-0500 (Central Daylight Time),463155.200000003,A,chimneyenter,I,enter,229,1,2348.8000000044703,460806.3999999985,8003,WL,A,14.0
3,44.736000061035156,learn,15263.999938964844,Fri Oct 04 2024 09:45:11 GMT-0500 (Central Daylight Time),469370.200000003,A,f,I,f,6194,1,6214.70000000298,463155.5,8003,WL,A,15.0
3,45.069000005722046,learn,14930.999994277954,Fri Oct 04 2024 09:45:11 GMT-0500 (Central Daylight Time),469703.200000003,A,fi,I,i,324,1,6547.70000000298,463155.5,8003,WL,A,15.0
3,45.15300011634827,learn,14846.999883651733,Fri Oct 04 2024 09:45:11 GMT-0500 (Central Daylight Time),469786.5,A,fin,I,n,78,1,6631.0,463155.5,8003,WL,A,15.0
3,45.319000005722046,learn,14680.999994277954,Fri Oct 04 2024 09:45:11 GMT-0500 (Central Daylight Time),469953.299999997,A,fing,I,g,155,1,6797.79999999702,463155.5,8003,WL,A,15.0
3,45.53600001335144,learn,14463.99998664856,Fri Oct 04 2024 09:45:11 GMT-0500 (Central Daylight Time),470170.0,A,finge,I,e,196,1,7014.5,463155.5,8003,WL,A,15.0
3,45.65300011634827,learn,14346.999883651733,Fri Oct 04 2024 09:45:11 GMT-0500 (Central Daylight Time),470286.5,A,finger,I,r,109,1,7131.0,463155.5,8003,WL,A,15.0
3,45.80299997329712,learn,14197.00002670288,Fri Oct 04 2024 09:45:11 GMT-0500 (Central Daylight Time),470436.5,A,fingerenter,I,enter,135,1,7281.0,463155.5,8003,WL,A,15.0
4,0.43400001525878906,learn,59565.99998474121,Fri Oct 04 2024 09:45:11 GMT-0500 (Central Daylight Time),539965.799999997,A,r,I,r,418,1,434.19999999552965,539531.6000000015,8003,WL,A,1.0
4,0.5829999446868896,learn,59417.00005531311,Fri Oct 04 2024 09:45:11 GMT-0500 (Central Daylight Time),540114.6000000015,A,ru,I,u,128,1,583.0,539531.6000000015,8003,WL,A,1.0
4,0.7660000324249268,learn,59233.99996757507,Fri Oct 04 2024 09:45:11 GMT-0500 (Central Daylight Time),540297.799999997,A,rug,I,g,171,1,766.1999999955297,539531.6000000015,8003,WL,A,1.0
4,1.0329999923706055,learn,58967.000007629395,Fri Oct 04 2024 09:45:11 GMT-0500 (Central Daylight Time),540564.3999999985,A,rugenter,I,enter,260,1,1032.7999999970198,539531.6000000015,8003,WL,A,1.0
4,2.0490000247955322,learn,57950.99997520447,Fri Oct 04 2024 09:45:11 GMT-0500 (Central Daylight Time),541580.700000003,A,c,I,c,1009,1,1016.0,540564.700000003,8003,WL,A,2.0
4,2.2820000648498535,learn,57717.99993515015,Fri Oct 04 2024 09:45:11 GMT-0500 (Central Daylight Time),541813.8999999985,A,ch,I,h,225,1,1249.1999999955297,540564.700000003,8003,WL,A,2.0
4,2.3989999294281006,learn,57601.0000705719,Fri Oct 04 2024 09:45:11 GMT-0500 (Central Daylight Time),541930.5,A,chi,I,i,112,1,1365.7999999970198,540564.700000003,8003,WL,A,2.0
4,2.7820000648498535,learn,57217.99993515015,Fri Oct 04 2024 09:45:11 GMT-0500 (Central Daylight Time),542314.1000000015,A,chim,I,m,363,1,1749.3999999985099,540564.700000003,8003,WL,A,2.0
4,3.0820000171661377,learn,56917.99998283386,Fri Oct 04 2024 09:45:11 GMT-0500 (Central Daylight Time),542613.700000003,A,chimn,I,n,284,1,2049.0,540564.700000003,8003,WL,A,2.0
4,3.2320001125335693,learn,56767.99988746643,Fri Oct 04 2024 09:45:11 GMT-0500 (Central Daylight Time),542763.5,A,chimne,I,e,136,1,2198.7999999970198,540564.700000003,8003,WL,A,2.0
4,3.3989999294281006,learn,56601.0000705719,Fri Oct 04 2024 09:45:11 GMT-0500 (Central Daylight Time),542930.5,A,chimney,I,y,146,1,2365.7999999970198,540564.700000003,8003,WL,A,2.0
4,3.631999969482422,learn,56368.00003051758,Fri Oct 04 2024 09:45:11 GMT-0500 (Central Daylight Time),543163.700000003,A,chimneyenter,I,enter,219,1,2599.0,540564.700000003,8003,WL,A,2.0
4,3.865000009536743,learn,56134.99999046326,Fri Oct 04 2024 09:45:11 GMT-0500 (Central Daylight Time),543396.799999997,A,l,I,l,226,1,232.79999999701977,543164.0,8003,WL,A,3.0
4,4.082000017166138,learn,55917.99998283386,Fri Oct 04 2024 09:45:11 GMT-0500 (Central Daylight Time),543613.3999999985,A,lo,I,o,201,1,449.3999999985099,543164.0,8003,WL,A,3.0
4,4.232000112533569,learn,55767.99988746643,Fri Oct 04 2024 09:45:11 GMT-0500 (Central Daylight Time),543763.3999999985,A,log,I,g,136,1,599.3999999985099,543164.0,8003,WL,A,3.0
4,4.447999954223633,learn,55552.00004577637,Fri Oct 04 2024 09:45:11 GMT-0500 (Central Daylight Time),543980.0,A,logenter,I,enter,210,1,816.0,543164.0,8003,WL,A,3.0
4,5.416000127792358,learn,54583.99987220764,Fri Oct 04 2024 09:45:11 GMT-0500 (Central Daylight Time),544947.5,A,g,I,g,954,1,967.2000000029802,543980.299999997,8003,WL,A,4.0
4,5.515000104904175,learn,54484.999895095825,Fri Oct 04 2024 09:45:11 GMT-0500 (Central Daylight Time),545046.3999999985,A,go,I,o,82,1,1066.1000000014901,543980.299999997,8003,WL,A,4.0
4,5.697999954223633,learn,54302.00004577637,Fri Oct 04 2024 09:45:11 GMT-0500 (Central Daylight Time),545229.5,A,gol,I,l,175,1,1249.2000000029802,543980.299999997,8003,WL,A,4.0
4,5.79800009727478,learn,54201.99990272522,Fri Oct 04 2024 09:45:11 GMT-0500 (Central Daylight Time),545329.6000000015,A,gold,I,d,89,1,1349.3000000044703,543980.299999997,8003,WL,A,4.0
4,5.998000144958496,learn,54001.999855041504,Fri Oct 04 2024 09:45:11 GMT-0500 (Central Daylight Time),545529.6000000015,A,goldenter,I,enter,180,1,1549.3000000044703,543980.299999997,8003,WL,A,4.0
4,6.246999979019165,learn,53753.000020980835,Fri Oct 04 2024 09:45:11 GMT-0500 (Central Daylight Time),545779.200000003,A,k,I,k,244,1,249.20000000298023,545530.0,8003,WL,A,5.0
4,6.364000082015991,learn,53635.99991798401,Fri Oct 04 2024 09:45:11 GMT-0500 (Central Daylight Time),545896.1000000015,A,ke,I,e,99,1,366.1000000014901,545530.0,8003,WL,A,5.0
4,6.63100004196167,learn,53368.99995803833,Fri Oct 04 2024 09:45:11 GMT-0500 (Central Daylight Time),546162.700000003,A,key,I,y,261,1,632.7000000029802,545530.0,8003,WL,A,5.0
4,6.980999946594238,learn,53019.00005340576,Fri Oct 04 2024 09:45:11 GMT-0500 (Central Daylight Time),546512.700000003,A,keyenter,I,enter,339,1,982.7000000029802,545530.0,8003,WL,A,5.0
4,7.29800009727478,learn,52701.99990272522,Fri Oct 04 2024 09:45:11 GMT-0500 (Central Daylight Time),546829.299999997,A,b,I,b,309,1,316.29999999701977,546513.0,8003,WL,A,6.0
4,7.397000074386597,learn,52602.9999256134,Fri Oct 04 2024 09:45:11 GMT-0500 (Central Daylight Time),546929.1000000015,A,bo,I,o,80,1,416.1000000014901,546513.0,8003,WL,A,6.0
4,7.664999961853027,learn,52335.00003814697,Fri Oct 04 2024 09:45:11 GMT-0500 (Central Daylight Time),547196.8999999985,A,bok,I,k,253,1,683.8999999985099,546513.0,8003,WL,A,6.0
4,8.562999963760376,learn,51437.000036239624,Fri Oct 04 2024 09:45:11 GMT-0500 (Central Daylight Time),548095.1000000015,A,bo,I,backspace,882,1,1582.1000000014901,546513.0,8003,WL,A,6.0
4,9.064000129699707,learn,50935.99987030029,Fri Oct 04 2024 09:45:11 GMT-0500 (Central Daylight Time),548595.200000003,A,boo,I,o,486,1,2082.2000000029802,546513.0,8003,WL,A,6.0
4,9.36300015449524,learn,50636.99984550476,Fri Oct 04 2024 09:45:11 GMT-0500 (Central Daylight Time),548895.1000000015,A,book,I,k,290,1,2382.10000000149,546513.0,8003,WL,A,6.0
4,9.61300015449524,learn,50386.99984550476,Fri Oct 04 2024 09:45:11 GMT-0500 (Central Daylight Time),549145.0,A,bookenter,I,enter,238,1,2632.0,546513.0,8003,WL,A,6.0
4,9.94700002670288,learn,50052.99997329712,Fri Oct 04 2024 09:45:11 GMT-0500 (Central Daylight Time),549478.5,A,m,I,m,317,1,333.1000000014901,549145.3999999985,8003,WL,A,7.0
4,10.013000011444092,learn,49986.99998855591,Fri Oct 04 2024 09:45:11 GMT-0500 (Central Daylight Time),549545.0,A,me,I,e,47,1,399.6000000014901,549145.3999999985,8003,WL,A,7.0
4,10.164000034332275,learn,49835.999965667725,Fri Oct 04 2024 09:45:11 GMT-0500 (Central Daylight Time),549695.8999999985,A,mea,I,a,133,1,550.5,549145.3999999985,8003,WL,A,7.0
4,10.380000114440918,learn,49619.99988555908,Fri Oct 04 2024 09:45:11 GMT-0500 (Central Daylight Time),549911.700000003,A,mead,I,d,197,1,766.3000000044703,549145.3999999985,8003,WL,A,7.0
4,10.663000106811523,learn,49336.99989318848,Fri Oct 04 2024 09:45:11 GMT-0500 (Central Daylight Time),550194.6000000015,A,meado,I,o,270,1,1049.2000000029802,549145.3999999985,8003,WL,A,7.0
4,10.77999997138977,learn,49220.00002861023,Fri Oct 04 2024 09:45:11 GMT-0500 (Central Daylight Time),550311.200000003,A,meadow,I,w,107,1,1165.8000000044703,549145.3999999985,8003,WL,A,7.0
4,11.02999997138977,learn,48970.00002861023,Fri Oct 04 2024 09:45:11 GMT-0500 (Central Daylight Time),550561.299999997,A,meadowenter,I,enter,239,1,1415.8999999985099,549145.3999999985,8003,WL,A,7.0
4,14.245000123977661,learn,45754.99987602234,Fri Oct 04 2024 09:45:11 GMT-0500 (Central Daylight Time),553776.700000003,A,h,I,h,3205,1,3215.10000000149,550561.6000000015,8003,WL,A,8.0
4,14.378000020980835,learn,45621.999979019165,Fri Oct 04 2024 09:45:11 GMT-0500 (Central Daylight Time),553910.200000003,A,ha,I,a,117,1,3348.60000000149,550561.6000000015,8003,WL,A,8.0
4,14.962000131607056,learn,45037.999868392944,Fri Oct 04 2024 09:45:11 GMT-0500 (Central Daylight Time),554493.3999999985,A,har,I,r,575,1,3931.7999999970198,550561.6000000015,8003,WL,A,8.0
4,15.312000036239624,learn,44687.999963760376,Fri Oct 04 2024 09:45:11 GMT-0500 (Central Daylight Time),554843.299999997,A,harp,I,p,336,1,4281.69999999553,550561.6000000015,8003,WL,A,8.0
4,15.644999980926514,learn,44355.000019073486,Fri Oct 04 2024 09:45:11 GMT-0500 (Central Daylight Time),555176.6000000015,A,harpenter,I,enter,314,1,4615.0,550561.6000000015,8003,WL,A,8.0
4,15.796000003814697,learn,44203.9999961853,Fri Oct 04 2024 09:45:11 GMT-0500 (Central Daylight Time),555327.299999997,A,s,I,s,141,1,150.39999999850988,555176.8999999985,8003,WL,A,9.0
4,16.09500002861023,learn,43904.99997138977,Fri Oct 04 2024 09:45:11 GMT-0500 (Central Daylight Time),555626.5,A,sa,I,a,286,1,449.6000000014901,555176.8999999985,8003,WL,A,9.0
4,16.296000003814697,learn,43703.9999961853,Fri Oct 04 2024 09:45:11 GMT-0500 (Central Daylight Time),555827.3999999985,A,sal,I,l,187,1,650.5,555176.8999999985,8003,WL,A,9.0
4,16.59500002861023,learn,43404.99997138977,Fri Oct 04 2024 09:45:11 GMT-0500 (Central Daylight Time),556126.3999999985,A,salt,I,t,282,1,949.5,555176.8999999985,8003,WL,A,9.0
4,16.844000101089478,learn,43155.99989891052,Fri Oct 04 2024 09:45:11 GMT-0500 (Central Daylight Time),556376.0,A,saltenter,I,enter,231,1,1199.1000000014901,555176.8999999985,8003,WL,A,9.0
4,24.89199995994568,learn,35108.00004005432,Fri Oct 04 2024 09:45:11 GMT-0500 (Central Daylight Time),564423.5,A,b,I,b,8030,1,8047.20000000298,556376.299999997,8003,WL,A,10.0
4,25.02500009536743,learn,34974.99990463257,Fri Oct 04 2024 09:45:11 GMT-0500 (Central Daylight Time),564556.799999997,A,bu,I,u,125,1,8180.5,556376.299999997,8003,WL,A,10.0
4,25.174999952316284,learn,34825.000047683716,Fri Oct 04 2024 09:45:11 GMT-0500 (Central Daylight Time),564706.8999999985,A,but,I,t,130,1,8330.60000000149,556376.299999997,8003,WL,A,10.0
4,25.325999975204468,learn,34674.00002479553,Fri Oct 04 2024 09:45:11 GMT-0500 (Central Daylight Time),564858.0,A,butt,I,t,131,1,8481.70000000298,556376.299999997,8003,WL,A,10.0
4,25.475000143051147,learn,34524.99985694885,Fri Oct 04 2024 09:45:11 GMT-0500 (Central Daylight Time),565006.799999997,A,butto,I,o,132,1,8630.5,556376.299999997,8003,WL,A,10.0
4,25.575000047683716,learn,34424.999952316284,Fri Oct 04 2024 09:45:11 GMT-0500 (Central Daylight Time),565106.6000000015,A,button,I,n,79,1,8730.30000000447,556376.299999997,8003,WL,A,10.0
4,25.875,learn,34125.0,Fri Oct 04 2024 09:45:11 GMT-0500 (Central Daylight Time),565406.700000003,A,buttonenter,I,enter,291,1,9030.40000000596,556376.299999997,8003,WL,A,10.0
4,35.50500011444092,learn,24494.999885559082,Fri Oct 04 2024 09:45:11 GMT-0500 (Central Daylight Time),575036.8999999985,A,h,I,h,9623,1,9629.79999999702,565407.1000000015,8003,WL,A,11.0
4,37.07200002670288,learn,22927.99997329712,Fri Oct 04 2024 09:45:11 GMT-0500 (Central Daylight Time),576603.299999997,A,,I,backspace,1552,1,11196.19999999553,565407.1000000015,8003,WL,A,11.0
4,44.45300006866455,learn,15546.99993133545,Fri Oct 04 2024 09:45:11 GMT-0500 (Central Daylight Time),583984.299999997,A,f,I,f,7371,1,18577.19999999553,565407.1000000015,8003,WL,A,11.0
4,44.60199999809265,learn,15398.000001907349,Fri Oct 04 2024 09:45:11 GMT-0500 (Central Daylight Time),584134.200000003,A,fl,I,l,133,1,18727.10000000149,565407.1000000015,8003,WL,A,11.0
4,44.8199999332428,learn,15180.000066757202,Fri Oct 04 2024 09:45:11 GMT-0500 (Central Daylight Time),584351.8999999985,A,flo,I,o,199,1,18944.79999999702,565407.1000000015,8003,WL,A,11.0
4,44.901999950408936,learn,15098.000049591064,Fri Oct 04 2024 09:45:11 GMT-0500 (Central Daylight Time),584433.8999999985,A,flow,I,w,70,1,19026.79999999702,565407.1000000015,8003,WL,A,11.0
4,45.05200004577637,learn,14947.999954223633,Fri Oct 04 2024 09:45:11 GMT-0500 (Central Daylight Time),584584.0,A,flowe,I,e,140,1,19176.89999999851,565407.1000000015,8003,WL,A,11.0
4,45.71799993515015,learn,14282.000064849854,Fri Oct 04 2024 09:45:11 GMT-0500 (Central Daylight Time),585250.200000003,A,flower,I,r,646,1,19843.10000000149,565407.1000000015,8003,WL,A,11.0
4,46.00200009346008,learn,13997.999906539917,Fri Oct 04 2024 09:45:11 GMT-0500 (Central Daylight Time),585534.0,A,flowerenter,I,enter,267,1,20126.89999999851,565407.1000000015,8003,WL,A,11.0
4,53.71600008010864,learn,6283.999919891357,Fri Oct 04 2024 09:45:11 GMT-0500 (Central Daylight Time),593248.0,A,k,I,k,7696,1,7713.60000000149,585534.3999999985,8003,WL,A,12.0
4,53.91600012779236,learn,6083.999872207642,Fri Oct 04 2024 09:45:11 GMT-0500 (Central Daylight Time),593447.799999997,A,ke,I,e,190,1,7913.39999999851,585534.3999999985,8003,WL,A,12.0
4,54.98200011253357,learn,5017.999887466431,Fri Oct 04 2024 09:45:11 GMT-0500 (Central Daylight Time),594513.799999997,A,k,I,backspace,1046,1,8979.39999999851,585534.3999999985,8003,WL,A,12.0
4,55.58299994468689,learn,4417.00005531311,Fri Oct 04 2024 09:45:11 GMT-0500 (Central Daylight Time),595114.6000000015,A,,I,backspace,596,1,9580.20000000298,585534.3999999985,8003,WL,A,12.0
4,60.013999938964844,learn,-13.99993896484375,Fri Oct 04 2024 09:45:11 GMT-0500 (Central Daylight Time),599546.1000000015,A,None,I,None,4427,1,14011.70000000298,585534.3999999985,8003,WL,A,12.0
5,0.5509998798370361,learn,60000.0,Fri Oct 04 2024 09:45:11 GMT-0500 (Central Daylight Time),674006.0,A,g,I,g,534,1,549.8999999985099,673456.1000000015,8003,WL,A,1.0
5,0.6499998569488525,learn,60000.0,Fri Oct 04 2024 09:45:11 GMT-0500 (Central Daylight Time),674105.8999999985,A,go,I,o,87,1,649.7999999970198,673456.1000000015,8003,WL,A,1.0
5,0.8669998645782471,learn,60000.0,Fri Oct 04 2024 09:45:11 GMT-0500 (Central Daylight Time),674322.5,A,gol,I,l,204,1,866.3999999985099,673456.1000000015,8003,WL,A,1.0
5,1.0169999599456787,learn,60000.0,Fri Oct 04 2024 09:45:11 GMT-0500 (Central Daylight Time),674472.1000000015,A,gold,I,d,139,1,1016.0,673456.1000000015,8003,WL,A,1.0
5,1.2170000076293945,learn,60000.0,Fri Oct 04 2024 09:45:11 GMT-0500 (Central Daylight Time),674672.5,A,goldenter,I,enter,190,1,1216.3999999985099,673456.1000000015,8003,WL,A,1.0
5,1.5339999198913574,learn,60000.0,Fri Oct 04 2024 09:45:11 GMT-0500 (Central Daylight Time),674989.1000000015,A,k,I,k,301,1,316.20000000298023,674672.8999999985,8003,WL,A,2.0
5,1.684000015258789,learn,60000.0,Fri Oct 04 2024 09:45:11 GMT-0500 (Central Daylight Time),675138.8999999985,A,ke,I,e,137,1,466.0,674672.8999999985,8003,WL,A,2.0
5,1.9170000553131104,learn,60000.0,Fri Oct 04 2024 09:45:11 GMT-0500 (Central Daylight Time),675372.0,A,key,I,y,228,1,699.1000000014901,674672.8999999985,8003,WL,A,2.0
5,2.444999933242798,learn,60000.0,Fri Oct 04 2024 09:45:11 GMT-0500 (Central Daylight Time),675900.3999999985,A,keyenter,I,enter,377,1,1227.5,674672.8999999985,8003,WL,A,2.0
5,3.0169999599456787,learn,60000.0,Fri Oct 04 2024 09:45:11 GMT-0500 (Central Daylight Time),676472.6000000015,A,t,I,t,561,1,572.0,675900.6000000015,8003,WL,A,3.0
5,3.2339999675750732,learn,60000.0,Fri Oct 04 2024 09:45:11 GMT-0500 (Central Daylight Time),676689.700000003,A,tr,I,r,205,1,789.1000000014901,675900.6000000015,8003,WL,A,3.0
5,3.365999937057495,learn,60000.0,Fri Oct 04 2024 09:45:11 GMT-0500 (Central Daylight Time),676821.6000000015,A,tra,I,a,124,1,921.0,675900.6000000015,8003,WL,A,3.0
5,3.5490000247955322,learn,60000.0,Fri Oct 04 2024 09:45:11 GMT-0500 (Central Daylight Time),677004.799999997,A,trai,I,i,177,1,1104.1999999955297,675900.6000000015,8003,WL,A,3.0
5,3.7330000400543213,learn,60000.0,Fri Oct 04 2024 09:45:11 GMT-0500 (Central Daylight Time),677188.3999999985,A,train,I,n,177,1,1287.7999999970198,675900.6000000015,8003,WL,A,3.0
5,3.9489998817443848,learn,60000.0,Fri Oct 04 2024 09:45:11 GMT-0500 (Central Daylight Time),677404.799999997,A,trainenter,I,enter,209,1,1504.1999999955297,675900.6000000015,8003,WL,A,3.0
5,4.181999921798706,learn,60000.0,Fri Oct 04 2024 09:45:11 GMT-0500 (Central Daylight Time),677637.799999997,A,r,I,r,217,1,232.59999999403954,677405.200000003,8003,WL,A,4.0
5,4.348999977111816,learn,60000.0,Fri Oct 04 2024 09:45:11 GMT-0500 (Central Daylight Time),677804.700000003,A,ra,I,a,159,1,399.5,677405.200000003,8003,WL,A,4.0
5,4.5329999923706055,learn,60000.0,Fri Oct 04 2024 09:45:11 GMT-0500 (Central Daylight Time),677988.1000000015,A,rat,I,t,177,1,582.8999999985099,677405.200000003,8003,WL,A,4.0
5,4.698999881744385,learn,60000.0,Fri Oct 04 2024 09:45:11 GMT-0500 (Central Daylight Time),678154.6000000015,A,ratt,I,t,154,1,749.3999999985099,677405.200000003,8003,WL,A,4.0
5,4.815999984741211,learn,60000.0,Fri Oct 04 2024 09:45:11 GMT-0500 (Central Daylight Time),678271.299999997,A,rattl,I,l,99,1,866.0999999940395,677405.200000003,8003,WL,A,4.0
5,4.915999889373779,learn,60000.0,Fri Oct 04 2024 09:45:11 GMT-0500 (Central Daylight Time),678371.200000003,A,rattle,I,e,96,1,966.0,677405.200000003,8003,WL,A,4.0
5,5.131999969482422,learn,60000.0,Fri Oct 04 2024 09:45:11 GMT-0500 (Central Daylight Time),678587.799999997,A,rattleenter,I,enter,202,1,1182.5999999940395,677405.200000003,8003,WL,A,4.0
5,5.398999929428101,learn,60000.0,Fri Oct 04 2024 09:45:11 GMT-0500 (Central Daylight Time),678854.700000003,A,s,I,s,250,1,266.6000000014901,678588.1000000015,8003,WL,A,5.0
5,5.516000032424927,learn,60000.0,Fri Oct 04 2024 09:45:11 GMT-0500 (Central Daylight Time),678971.0,A,sl,I,l,111,1,382.8999999985099,678588.1000000015,8003,WL,A,5.0
5,6.198999881744385,learn,60000.0,Fri Oct 04 2024 09:45:11 GMT-0500 (Central Daylight Time),679654.200000003,A,s,I,backspace,676,1,1066.1000000014901,678588.1000000015,8003,WL,A,5.0
5,6.315000057220459,learn,60000.0,Fri Oct 04 2024 09:45:11 GMT-0500 (Central Daylight Time),679770.799999997,A,sa,I,a,103,1,1182.6999999955297,678588.1000000015,8003,WL,A,5.0
5,6.549000024795532,learn,60000.0,Fri Oct 04 2024 09:45:11 GMT-0500 (Central Daylight Time),680004.1000000015,A,sal,I,l,227,1,1416.0,678588.1000000015,8003,WL,A,5.0
5,6.7149999141693115,learn,60000.0,Fri Oct 04 2024 09:45:11 GMT-0500 (Central Daylight Time),680170.6000000015,A,sals,I,s,154,1,1582.5,678588.1000000015,8003,WL,A,5.0
5,7.332000017166138,learn,60000.0,Fri Oct 04 2024 09:45:11 GMT-0500 (Central Daylight Time),680787.200000003,A,sal,I,backspace,604,1,2199.10000000149,678588.1000000015,8003,WL,A,5.0
5,7.414999961853027,learn,60000.0,Fri Oct 04 2024 09:45:11 GMT-0500 (Central Daylight Time),680870.700000003,A,salt,I,t,67,1,2282.60000000149,678588.1000000015,8003,WL,A,5.0
5,7.664999961853027,learn,60000.0,Fri Oct 04 2024 09:45:11 GMT-0500 (Central Daylight Time),681120.5,A,saltenter,I,enter,239,1,2532.39999999851,678588.1000000015,8003,WL,A,5.0
5,8.297999858856201,learn,60000.0,Fri Oct 04 2024 09:45:11 GMT-0500 (Central Daylight Time),681753.3999999985,A,f,I,f,613,1,632.6000000014901,681120.799999997,8003,WL,A,6.0
5,8.747999906539917,learn,60000.0,Fri Oct 04 2024 09:45:11 GMT-0500 (Central Daylight Time),682203.3999999985,A,,I,backspace,437,1,1082.6000000014901,681120.799999997,8003,WL,A,6.0
5,8.830999851226807,learn,60000.0,Fri Oct 04 2024 09:45:11 GMT-0500 (Central Daylight Time),682286.6000000015,A,r,I,r,66,1,1165.8000000044703,681120.799999997,8003,WL,A,6.0
5,8.96399998664856,learn,60000.0,Fri Oct 04 2024 09:45:11 GMT-0500 (Central Daylight Time),682419.799999997,A,ru,I,u,128,1,1299.0,681120.799999997,8003,WL,A,6.0
5,9.348000049591064,learn,60000.0,Fri Oct 04 2024 09:45:11 GMT-0500 (Central Daylight Time),682803.0,A,run,I,n,378,1,1682.2000000029802,681120.799999997,8003,WL,A,6.0
5,9.664000034332275,learn,60000.0,Fri Oct 04 2024 09:45:11 GMT-0500 (Central Daylight Time),683119.700000003,A,runenter,I,enter,299,1,1998.9000000059605,681120.799999997,8003,WL,A,6.0
5,10.480999946594238,learn,60000.0,Fri Oct 04 2024 09:45:11 GMT-0500 (Central Daylight Time),683936.200000003,A,b,I,b,806,1,816.2000000029802,683120.0,8003,WL,A,7.0
5,10.69700002670288,learn,60000.0,Fri Oct 04 2024 09:45:11 GMT-0500 (Central Daylight Time),684152.799999997,A,bo,I,o,205,1,1032.7999999970198,683120.0,8003,WL,A,7.0
5,10.930999994277954,learn,60000.0,Fri Oct 04 2024 09:45:11 GMT-0500 (Central Daylight Time),684386.1000000015,A,boo,I,o,213,1,1266.1000000014901,683120.0,8003,WL,A,7.0
5,11.180999994277954,learn,60000.0,Fri Oct 04 2024 09:45:11 GMT-0500 (Central Daylight Time),684636.0,A,book,I,k,237,1,1516.0,683120.0,8003,WL,A,7.0
5,11.430000066757202,learn,60000.0,Fri Oct 04 2024 09:45:11 GMT-0500 (Central Daylight Time),684885.799999997,A,bookenter,I,enter,242,1,1765.7999999970198,683120.0,8003,WL,A,7.0
5,11.596999883651733,learn,60000.0,Fri Oct 04 2024 09:45:11 GMT-0500 (Central Daylight Time),685052.5,A,f,I,f,160,1,166.29999999701977,684886.200000003,8003,WL,A,8.0
5,11.780999898910522,learn,60000.0,Fri Oct 04 2024 09:45:11 GMT-0500 (Central Daylight Time),685235.8999999985,A,fl,I,l,169,1,349.69999999552965,684886.200000003,8003,WL,A,8.0
5,12.013999938964844,learn,60000.0,Fri Oct 04 2024 09:45:11 GMT-0500 (Central Daylight Time),685469.1000000015,A,flo,I,o,226,1,582.8999999985099,684886.200000003,8003,WL,A,8.0
5,12.129999876022339,learn,60000.0,Fri Oct 04 2024 09:45:11 GMT-0500 (Central Daylight Time),685585.5,A,flow,I,w,105,1,699.2999999970198,684886.200000003,8003,WL,A,8.0
5,12.27999997138977,learn,60000.0,Fri Oct 04 2024 09:45:11 GMT-0500 (Central Daylight Time),685735.6000000015,A,flowe,I,e,132,1,849.3999999985099,684886.200000003,8003,WL,A,8.0
5,12.463000059127808,learn,60000.0,Fri Oct 04 2024 09:45:11 GMT-0500 (Central Daylight Time),685918.799999997,A,flower,I,r,166,1,1032.5999999940395,684886.200000003,8003,WL,A,8.0
5,12.613999843597412,learn,60000.0,Fri Oct 04 2024 09:45:11 GMT-0500 (Central Daylight Time),686068.8999999985,A,flowerenter,I,enter,143,1,1182.6999999955297,684886.200000003,8003,WL,A,8.0
5,12.896999835968018,learn,60000.0,Fri Oct 04 2024 09:45:11 GMT-0500 (Central Daylight Time),686352.200000003,A,m,I,m,273,1,282.90000000596046,686069.299999997,8003,WL,A,9.0
5,12.963000059127808,learn,60000.0,Fri Oct 04 2024 09:45:11 GMT-0500 (Central Daylight Time),686418.700000003,A,me,I,e,61,1,349.40000000596046,686069.299999997,8003,WL,A,9.0
5,13.162999868392944,learn,60000.0,Fri Oct 04 2024 09:45:11 GMT-0500 (Central Daylight Time),686618.6000000015,A,mea,I,a,195,1,549.3000000044703,686069.299999997,8003,WL,A,9.0
5,13.396999835968018,learn,60000.0,Fri Oct 04 2024 09:45:11 GMT-0500 (Central Daylight Time),686852.0,A,mead,I,d,227,1,782.7000000029802,686069.299999997,8003,WL,A,9.0
5,13.596999883651733,learn,60000.0,Fri Oct 04 2024 09:45:11 GMT-0500 (Central Daylight Time),687051.8999999985,A,meado,I,o,194,1,982.6000000014901,686069.299999997,8003,WL,A,9.0
5,13.746000051498413,learn,60000.0,Fri Oct 04 2024 09:45:11 GMT-0500 (Central Daylight Time),687201.799999997,A,meadow,I,w,130,1,1132.5,686069.299999997,8003,WL,A,9.0
5,14.062999963760376,learn,60000.0,Fri Oct 04 2024 09:45:11 GMT-0500 (Central Daylight Time),687518.200000003,A,meadowenter,I,enter,301,1,1448.9000000059605,686069.299999997,8003,WL,A,9.0
5,17.046000003814697,learn,60000.0,Fri Oct 04 2024 09:45:11 GMT-0500 (Central Daylight Time),690501.700000003,A,h,I,h,2969,1,2983.10000000149,687518.6000000015,8003,WL,A,10.0
5,17.17899990081787,learn,60000.0,Fri Oct 04 2024 09:45:11 GMT-0500 (Central Daylight Time),690634.0,A,ha,I,a,120,1,3115.39999999851,687518.6000000015,8003,WL,A,10.0
5,17.444999933242798,learn,60000.0,Fri Oct 04 2024 09:45:11 GMT-0500 (Central Daylight Time),690900.6000000015,A,har,I,r,252,1,3382.0,687518.6000000015,8003,WL,A,10.0
5,17.711999893188477,learn,60000.0,Fri Oct 04 2024 09:45:11 GMT-0500 (Central Daylight Time),691167.200000003,A,harp,I,p,257,1,3648.60000000149,687518.6000000015,8003,WL,A,10.0
5,18.07799983024597,learn,60000.0,Fri Oct 04 2024 09:45:11 GMT-0500 (Central Daylight Time),691533.799999997,A,harpenter,I,enter,350,1,4015.1999999955297,687518.6000000015,8003,WL,A,10.0
5,24.65999984741211,learn,60000.0,Fri Oct 04 2024 09:45:11 GMT-0500 (Central Daylight Time),698115.0,A,k,I,k,6569,1,6580.79999999702,691534.200000003,8003,WL,A,11.0
5,24.89299988746643,learn,60000.0,Fri Oct 04 2024 09:45:11 GMT-0500 (Central Daylight Time),698348.299999997,A,ke,I,e,226,1,6814.0999999940395,691534.200000003,8003,WL,A,11.0
5,25.658999919891357,learn,60000.0,Fri Oct 04 2024 09:45:11 GMT-0500 (Central Daylight Time),699114.6000000015,A,k,I,backspace,753,1,7580.39999999851,691534.200000003,8003,WL,A,11.0
5,26.060999870300293,learn,60000.0,Fri Oct 04 2024 09:45:11 GMT-0500 (Central Daylight Time),699516.3999999985,A,,I,backspace,389,1,7982.19999999553,691534.200000003,8003,WL,A,11.0
5,29.774999856948853,learn,60000.0,Fri Oct 04 2024 09:45:11 GMT-0500 (Central Daylight Time),703230.1000000015,A,r,I,r,3698,1,11695.89999999851,691534.200000003,8003,WL,A,11.0
5,30.325999975204468,learn,60000.0,Fri Oct 04 2024 09:45:11 GMT-0500 (Central Daylight Time),703780.8999999985,A,,I,backspace,544,1,12246.69999999553,691534.200000003,8003,WL,A,11.0
5,36.37399983406067,learn,60000.0,Fri Oct 04 2024 09:45:11 GMT-0500 (Central Daylight Time),709829.200000003,A,a,I,a,6034,1,18295.0,691534.200000003,8003,WL,A,11.0
5,36.65599989891052,learn,60000.0,Fri Oct 04 2024 09:45:11 GMT-0500 (Central Daylight Time),710111.3999999985,A,ap,I,p,272,1,18577.19999999553,691534.200000003,8003,WL,A,11.0
5,36.83899998664856,learn,60000.0,Fri Oct 04 2024 09:45:11 GMT-0500 (Central Daylight Time),710294.3999999985,A,app,I,p,174,1,18760.19999999553,691534.200000003,8003,WL,A,11.0
5,37.02199983596802,learn,60000.0,Fri Oct 04 2024 09:45:11 GMT-0500 (Central Daylight Time),710477.799999997,A,appl,I,l,167,1,18943.59999999404,691534.200000003,8003,WL,A,11.0
5,37.121999979019165,learn,60000.0,Fri Oct 04 2024 09:45:11 GMT-0500 (Central Daylight Time),710577.6000000015,A,apple,I,e,80,1,19043.39999999851,691534.200000003,8003,WL,A,11.0
5,37.306999921798706,learn,60000.0,Fri Oct 04 2024 09:45:11 GMT-0500 (Central Daylight Time),710762.299999997,A,appleenter,I,enter,173,1,19228.09999999404,691534.200000003,8003,WL,A,11.0
5,41.28699994087219,learn,60000.0,Fri Oct 04 2024 09:45:11 GMT-0500 (Central Daylight Time),714743.1000000015,A,f,I,f,3971,1,3980.3000000044703,710762.799999997,8003,WL,A,12.0
5,41.45299983024597,learn,60000.0,Fri Oct 04 2024 09:45:11 GMT-0500 (Central Daylight Time),714909.8999999985,A,fi,I,i,160,1,4147.10000000149,710762.799999997,8003,WL,A,12.0
5,41.53600001335144,learn,60000.0,Fri Oct 04 2024 09:45:11 GMT-0500 (Central Daylight Time),714993.0,A,fin,I,n,64,1,4230.20000000298,710762.799999997,8003,WL,A,12.0
5,41.753000020980835,learn,60000.0,Fri Oct 04 2024 09:45:11 GMT-0500 (Central Daylight Time),715209.5,A,fing,I,g,206,1,4446.70000000298,710762.799999997,8003,WL,A,12.0
5,41.93599987030029,learn,60000.0,Fri Oct 04 2024 09:45:11 GMT-0500 (Central Daylight Time),715392.8999999985,A,finge,I,e,164,1,4630.10000000149,710762.799999997,8003,WL,A,12.0
5,42.003000020980835,learn,60000.0,Fri Oct 04 2024 09:45:11 GMT-0500 (Central Daylight Time),715459.700000003,A,finger,I,r,54,1,4696.9000000059605,710762.799999997,8003,WL,A,12.0
5,42.15299987792969,learn,60000.0,Fri Oct 04 2024 09:45:11 GMT-0500 (Central Daylight Time),715609.3999999985,A,fingerenter,I,enter,130,1,4846.60000000149,710762.799999997,8003,WL,A,12.0
5,46.28499984741211,learn,60000.0,Fri Oct 04 2024 09:45:11 GMT-0500 (Central Daylight Time),719741.5,A,b,I,b,4124,1,4131.79999999702,715609.700000003,8003,WL,A,13.0
5,46.51799988746643,learn,60000.0,Fri Oct 04 2024 09:45:11 GMT-0500 (Central Daylight Time),719974.8999999985,A,bu,I,u,216,1,4365.19999999553,715609.700000003,8003,WL,A,13.0
5,46.60199999809265,learn,60000.0,Fri Oct 04 2024 09:45:11 GMT-0500 (Central Daylight Time),720058.1000000015,A,but,I,t,71,1,4448.39999999851,715609.700000003,8003,WL,A,13.0
5,46.734999895095825,learn,60000.0,Fri Oct 04 2024 09:45:11 GMT-0500 (Central Daylight Time),720191.3999999985,A,butt,I,t,124,1,4581.69999999553,715609.700000003,8003,WL,A,13.0
5,46.83500003814697,learn,60000.0,Fri Oct 04 2024 09:45:11 GMT-0500 (Central Daylight Time),720291.200000003,A,butto,I,o,95,1,4681.5,715609.700000003,8003,WL,A,13.0
5,46.93499994277954,learn,60000.0,Fri Oct 04 2024 09:45:11 GMT-0500 (Central Daylight Time),720391.3999999985,A,button,I,n,91,1,4781.69999999553,715609.700000003,8003,WL,A,13.0
5,47.11800003051758,learn,60000.0,Fri Oct 04 2024 09:45:11 GMT-0500 (Central Daylight Time),720574.700000003,A,buttonenter,I,enter,175,1,4965.0,715609.700000003,8003,WL,A,13.0
5,107.13199996948242,learn,60000.0,Fri Oct 04 2024 09:45:11 GMT-0500 (Central Daylight Time),780589.299999997,A,None,I,None,60010,1,60014.29999999702,720575.0,8003,WL,A,14.0
6,1.616999864578247,distr,58383.00013542175,Fri Oct 04 2024 09:45:11 GMT-0500 (Central Daylight Time),863246.799999997,B,b,I,b,1609,1,1616.1999999955297,861630.6000000015,8003,WL,A,1.0
6,1.750999927520752,distr,58249.00007247925,Fri Oct 04 2024 09:45:11 GMT-0500 (Central Daylight Time),863380.8999999985,B,bo,I,o,127,1,1750.2999999970198,861630.6000000015,8003,WL,A,1.0
6,1.8999998569488525,distr,58100.00014305115,Fri Oct 04 2024 09:45:11 GMT-0500 (Central Daylight Time),863529.799999997,B,bow,I,w,136,1,1899.1999999955297,861630.6000000015,8003,WL,A,1.0
6,2.2170000076293945,distr,57782.999992370605,Fri Oct 04 2024 09:45:11 GMT-0500 (Central Daylight Time),863846.6000000015,B,bowl,I,l,300,1,2216.0,861630.6000000015,8003,WL,A,1.0
6,3.0,distr,57000.0,Fri Oct 04 2024 09:45:11 GMT-0500 (Central Daylight Time),864629.700000003,B,bowlenter,I,enter,775,1,2999.10000000149,861630.6000000015,8003,WL,A,1.0
6,3.5160000324249268,distr,56483.99996757507,Fri Oct 04 2024 09:45:11 GMT-0500 (Central Daylight Time),865146.1000000015,B,p,I,p,496,1,516.1000000014901,864630.0,8003,WL,A,2.0
6,3.615999937057495,distr,56384.000062942505,Fri Oct 04 2024 09:45:11 GMT-0500 (Central Daylight Time),865246.0,B,pe,I,e,84,1,616.0,864630.0,8003,WL,A,2.0
6,3.7829999923706055,distr,56217.000007629395,Fri Oct 04 2024 09:45:11 GMT-0500 (Central Daylight Time),865412.6000000015,B,pea,I,a,153,1,782.6000000014901,864630.0,8003,WL,A,2.0
6,4.115999937057495,distr,55884.000062942505,Fri Oct 04 2024 09:45:11 GMT-0500 (Central Daylight Time),865745.799999997,B,peac,I,c,313,1,1115.7999999970198,864630.0,8003,WL,A,2.0
6,4.233000040054321,distr,55766.99995994568,Fri Oct 04 2024 09:45:11 GMT-0500 (Central Daylight Time),865862.5,B,peach,I,h,100,1,1232.5,864630.0,8003,WL,A,2.0
6,4.549000024795532,distr,55450.99997520447,Fri Oct 04 2024 09:45:11 GMT-0500 (Central Daylight Time),866179.0,B,peachenter,I,enter,312,1,1549.0,864630.0,8003,WL,A,2.0
6,5.248999834060669,distr,54751.00016593933,Fri Oct 04 2024 09:45:11 GMT-0500 (Central Daylight Time),866878.700000003,B,c,I,c,691,1,699.5,866179.200000003,8003,WL,A,3.0
6,5.415999889373779,distr,54584.00011062622,Fri Oct 04 2024 09:45:11 GMT-0500 (Central Daylight Time),867045.700000003,B,ch,I,h,151,1,866.5,866179.200000003,8003,WL,A,3.0
6,5.516000032424927,distr,54483.99996757507,Fri Oct 04 2024 09:45:11 GMT-0500 (Central Daylight Time),867145.5,B,cha,I,a,88,1,966.2999999970198,866179.200000003,8003,WL,A,3.0
6,5.748999834060669,distr,54251.00016593933,Fri Oct 04 2024 09:45:11 GMT-0500 (Central Daylight Time),867378.5,B,chai,I,i,220,1,1199.2999999970198,866179.200000003,8003,WL,A,3.0
6,5.898999929428101,distr,54101.0000705719,Fri Oct 04 2024 09:45:11 GMT-0500 (Central Daylight Time),867528.700000003,B,chair,I,r,139,1,1349.5,866179.200000003,8003,WL,A,3.0
6,6.131999969482422,distr,53868.00003051758,Fri Oct 04 2024 09:45:11 GMT-0500 (Central Daylight Time),867762.1000000015,B,chairenter,I,enter,221,1,1582.8999999985099,866179.200000003,8003,WL,A,3.0
6,7.73199987411499,distr,52268.00012588501,Fri Oct 04 2024 09:45:11 GMT-0500 (Central Daylight Time),869361.3999999985,B,b,I,b,1588,1,1598.8999999985099,867762.5,8003,WL,A,4.0
6,7.865000009536743,distr,52134.99999046326,Fri Oct 04 2024 09:45:11 GMT-0500 (Central Daylight Time),869494.700000003,B,bo,I,o,125,1,1732.2000000029802,867762.5,8003,WL,A,4.0
6,8.031999826431274,distr,51968.000173568726,Fri Oct 04 2024 09:45:11 GMT-0500 (Central Daylight Time),869661.3999999985,B,bot,I,t,151,1,1898.8999999985099,867762.5,8003,WL,A,4.0
6,8.197999954223633,distr,51802.00004577637,Fri Oct 04 2024 09:45:11 GMT-0500 (Central Daylight Time),869827.799999997,B,bott,I,t,153,1,2065.2999999970198,867762.5,8003,WL,A,4.0
6,8.297999858856201,distr,51702.0001411438,Fri Oct 04 2024 09:45:11 GMT-0500 (Central Daylight Time),869927.700000003,B,bottl,I,l,91,1,2165.2000000029802,867762.5,8003,WL,A,4.0
6,8.497999906539917,distr,51502.00009346008,Fri Oct 04 2024 09:45:11 GMT-0500 (Central Daylight Time),870127.8999999985,B,bottle,I,e,182,1,2365.39999999851,867762.5,8003,WL,A,4.0
6,8.781999826431274,distr,51218.000173568726,Fri Oct 04 2024 09:45:11 GMT-0500 (Central Daylight Time),870412.3999999985,B,bottleenter,I,enter,271,1,2649.89999999851,867762.5,8003,WL,A,4.0
6,10.63100004196167,distr,49368.99995803833,Fri Oct 04 2024 09:45:11 GMT-0500 (Central Daylight Time),872260.5,B,d,I,d,1833,1,1847.8999999985099,870412.6000000015,8003,WL,A,5.0
6,10.763999938964844,distr,49236.000061035156,Fri Oct 04 2024 09:45:11 GMT-0500 (Central Daylight Time),872393.700000003,B,da,I,a,113,1,1981.1000000014901,870412.6000000015,8003,WL,A,5.0
6,11.030999898910522,distr,48969.00010108948,Fri Oct 04 2024 09:45:11 GMT-0500 (Central Daylight Time),872660.3999999985,B,daw,I,w,253,1,2247.7999999970198,870412.6000000015,8003,WL,A,5.0
6,11.329999923706055,distr,48670.000076293945,Fri Oct 04 2024 09:45:11 GMT-0500 (Central Daylight Time),872960.200000003,B,dawn,I,n,281,1,2547.60000000149,870412.6000000015,8003,WL,A,5.0
6,12.013000011444092,distr,47986.99998855591,Fri Oct 04 2024 09:45:11 GMT-0500 (Central Daylight Time),873643.299999997,B,dawnenter,I,enter,670,1,3230.6999999955297,870412.6000000015,8003,WL,A,5.0
6,13.246999979019165,distr,46753.000020980835,Fri Oct 04 2024 09:45:11 GMT-0500 (Central Daylight Time),874876.5,B,i,I,i,1218,1,1232.7999999970198,873643.700000003,8003,WL,A,6.0
6,13.395999908447266,distr,46604.000091552734,Fri Oct 04 2024 09:45:11 GMT-0500 (Central Daylight Time),875026.299999997,B,in,I,n,129,1,1382.5999999940395,873643.700000003,8003,WL,A,6.0
6,13.662999868392944,distr,46337.000131607056,Fri Oct 04 2024 09:45:11 GMT-0500 (Central Daylight Time),875293.1000000015,B,ins,I,s,252,1,1649.3999999985099,873643.700000003,8003,WL,A,6.0
6,13.912999868392944,distr,46087.000131607056,Fri Oct 04 2024 09:45:11 GMT-0500 (Central Daylight Time),875542.6000000015,B,insc,I,c,241,1,1898.8999999985099,873643.700000003,8003,WL,A,6.0
6,14.162999868392944,distr,45837.000131607056,Fri Oct 04 2024 09:45:11 GMT-0500 (Central Daylight Time),875792.6000000015,B,insce,I,e,231,1,2148.89999999851,873643.700000003,8003,WL,A,6.0
6,15.329999923706055,distr,44670.000076293945,Fri Oct 04 2024 09:45:11 GMT-0500 (Central Daylight Time),876960.0,B,insc,I,backspace,1149,1,3316.2999999970198,873643.700000003,8003,WL,A,6.0
6,15.461999893188477,distr,44538.00010681152,Fri Oct 04 2024 09:45:11 GMT-0500 (Central Daylight Time),877092.299999997,B,ins,I,backspace,127,1,3448.5999999940395,873643.700000003,8003,WL,A,6.0
6,15.611999988555908,distr,44388.00001144409,Fri Oct 04 2024 09:45:11 GMT-0500 (Central Daylight Time),877242.200000003,B,inse,I,e,130,1,3598.5,873643.700000003,8003,WL,A,6.0
6,15.76199984550476,distr,44238.00015449524,Fri Oct 04 2024 09:45:11 GMT-0500 (Central Daylight Time),877392.200000003,B,insen,I,n,139,1,3748.5,873643.700000003,8003,WL,A,6.0
6,16.42899990081787,distr,43571.00009918213,Fri Oct 04 2024 09:45:11 GMT-0500 (Central Daylight Time),878058.700000003,B,inse,I,backspace,662,1,4415.0,873643.700000003,8003,WL,A,6.0
6,16.52900004386902,distr,43470.99995613098,Fri Oct 04 2024 09:45:11 GMT-0500 (Central Daylight Time),878158.799999997,B,insec,I,c,92,1,4515.0999999940395,873643.700000003,8003,WL,A,6.0
6,16.828999996185303,distr,43171.0000038147,Fri Oct 04 2024 09:45:11 GMT-0500 (Central Daylight Time),878458.3999999985,B,insect,I,t,279,1,4814.69999999553,873643.700000003,8003,WL,A,6.0
6,17.044999837875366,distr,42955.000162124634,Fri Oct 04 2024 09:45:11 GMT-0500 (Central Daylight Time),878675.0,B,insectenter,I,enter,203,1,5031.29999999702,873643.700000003,8003,WL,A,6.0
6,17.578999996185303,distr,42421.0000038147,Fri Oct 04 2024 09:45:11 GMT-0500 (Central Daylight Time),879208.6000000015,B,p,I,p,515,1,533.2000000029802,878675.3999999985,8003,WL,A,7.0
6,17.794999837875366,distr,42205.000162124634,Fri Oct 04 2024 09:45:11 GMT-0500 (Central Daylight Time),879424.799999997,B,pl,I,l,198,1,749.3999999985099,878675.3999999985,8003,WL,A,7.0
6,17.894999980926514,distr,42105.000019073486,Fri Oct 04 2024 09:45:11 GMT-0500 (Central Daylight Time),879524.799999997,B,pla,I,a,94,1,849.3999999985099,878675.3999999985,8003,WL,A,7.0
6,18.42799997329712,distr,41572.00002670288,Fri Oct 04 2024 09:45:11 GMT-0500 (Central Daylight Time),880057.8999999985,B,plan,I,n,513,1,1382.5,878675.3999999985,8003,WL,A,7.0
6,18.494999885559082,distr,41505.00011444092,Fri Oct 04 2024 09:45:11 GMT-0500 (Central Daylight Time),880124.700000003,B,plane,I,e,52,1,1449.3000000044703,878675.3999999985,8003,WL,A,7.0
6,19.32799983024597,distr,40672.00016975403,Fri Oct 04 2024 09:45:11 GMT-0500 (Central Daylight Time),880957.700000003,B,planeenter,I,enter,818,1,2282.3000000044703,878675.3999999985,8003,WL,A,7.0
6,29.391000032424927,distr,30608.999967575073,Fri Oct 04 2024 09:45:11 GMT-0500 (Central Daylight Time),891021.299999997,B,g,I,g,10049,1,10063.19999999553,880958.1000000015,8003,WL,A,8.0
6,29.674999952316284,distr,30325.000047683716,Fri Oct 04 2024 09:45:11 GMT-0500 (Central Daylight Time),891304.799999997,B,gr,I,r,273,1,10346.69999999553,880958.1000000015,8003,WL,A,8.0
6,29.840999841690063,distr,30159.000158309937,Fri Oct 04 2024 09:45:11 GMT-0500 (Central Daylight Time),891471.1000000015,B,gra,I,a,150,1,10513.0,880958.1000000015,8003,WL,A,8.0
6,29.990999937057495,distr,30009.000062942505,Fri Oct 04 2024 09:45:11 GMT-0500 (Central Daylight Time),891621.299999997,B,gran,I,n,134,1,10663.19999999553,880958.1000000015,8003,WL,A,8.0
6,30.157999992370605,distr,29842.000007629395,Fri Oct 04 2024 09:45:11 GMT-0500 (Central Daylight Time),891787.3999999985,B,grant,I,t,162,1,10829.29999999702,880958.1000000015,8003,WL,A,8.0
6,30.990999937057495,distr,29009.000062942505,Fri Oct 04 2024 09:45:11 GMT-0500 (Central Daylight Time),892620.799999997,B,grantenter,I,enter,820,1,11662.69999999553,880958.1000000015,8003,WL,A,8.0
6,38.30399990081787,distr,21696.00009918213,Fri Oct 04 2024 09:45:11 GMT-0500 (Central Daylight Time),899935.0,B,d,I,d,7307,1,7313.89999999851,892621.1000000015,8003,WL,A,9.0
6,38.7039999961853,distr,21296.000003814697,Fri Oct 04 2024 09:45:11 GMT-0500 (Central Daylight Time),900335.1000000015,B,da,I,a,383,1,7714.0,892621.1000000015,8003,WL,A,9.0
6,39.15299987792969,distr,20847.000122070312,Fri Oct 04 2024 09:45:11 GMT-0500 (Central Daylight Time),900784.799999997,B,daw,I,w,430,1,8163.69999999553,892621.1000000015,8003,WL,A,9.0
6,39.6029999256134,distr,20397.000074386597,Fri Oct 04 2024 09:45:11 GMT-0500 (Central Daylight Time),901234.700000003,B,dawn,I,n,438,1,8613.60000000149,892621.1000000015,8003,WL,A,9.0
6,40.253000020980835,distr,19746.999979019165,Fri Oct 04 2024 09:45:11 GMT-0500 (Central Daylight Time),901884.6000000015,B,dawnenter,I,enter,635,1,9263.5,892621.1000000015,8003,WL,A,9.0
6,49.31699991226196,distr,10683.000087738037,Fri Oct 04 2024 09:45:11 GMT-0500 (Central Daylight Time),910948.5,B,s,I,s,9049,1,9063.5,901885.0,8003,WL,A,10.0
6,49.91700005531311,distr,10082.99994468689,Fri Oct 04 2024 09:45:11 GMT-0500 (Central Daylight Time),911548.200000003,B,so,I,o,594,1,9663.20000000298,901885.0,8003,WL,A,10.0
6,50.25,distr,9750.0,Fri Oct 04 2024 09:45:11 GMT-0500 (Central Daylight Time),911881.3999999985,B,soi,I,i,314,1,9996.39999999851,901885.0,8003,WL,A,10.0
6,50.532999992370605,distr,9467.000007629395,Fri Oct 04 2024 09:45:11 GMT-0500 (Central Daylight Time),912164.700000003,B,soil,I,l,268,1,10279.70000000298,901885.0,8003,WL,A,10.0
6,50.89999985694885,distr,9100.000143051147,Fri Oct 04 2024 09:45:11 GMT-0500 (Central Daylight Time),912531.0,B,soilenter,I,enter,362,1,10646.0,901885.0,8003,WL,A,10.0
6,60.013999938964844,distr,-13.99993896484375,Fri Oct 04 2024 09:45:11 GMT-0500 (Central Daylight Time),921645.1000000015,B,None,I,None,9109,1,9113.80000000447,912531.299999997,8003,WL,A,11.0
7,2.1489999294281006,immed,57851.0000705719,Fri Oct 04 2024 09:45:11 GMT-0500 (Central Daylight Time),940905.700000003,A,t,I,t,2130,1,2149.10000000149,938756.6000000015,8003,WL,A,1.0
7,2.381999969482422,immed,57618.00003051758,Fri Oct 04 2024 09:45:11 GMT-0500 (Central Daylight Time),941138.799999997,A,tr,I,r,228,1,2382.1999999955297,938756.6000000015,8003,WL,A,1.0
7,2.5829999446868896,immed,57417.00005531311,Fri Oct 04 2024 09:45:11 GMT-0500 (Central Daylight Time),941338.8999999985,A,tra,I,a,187,1,2582.2999999970198,938756.6000000015,8003,WL,A,1.0
7,2.882999897003174,immed,57117.000102996826,Fri Oct 04 2024 09:45:11 GMT-0500 (Central Daylight Time),941638.799999997,A,trai,I,i,292,1,2882.1999999955297,938756.6000000015,8003,WL,A,1.0
7,3.1989998817443848,immed,56801.000118255615,Fri Oct 04 2024 09:45:11 GMT-0500 (Central Daylight Time),941955.1000000015,A,train,I,n,312,1,3198.5,938756.6000000015,8003,WL,A,1.0
7,3.881999969482422,immed,56118.00003051758,Fri Oct 04 2024 09:45:11 GMT-0500 (Central Daylight Time),942638.3999999985,A,trainenter,I,enter,668,1,3881.7999999970198,938756.6000000015,8003,WL,A,1.0
7,4.299000024795532,immed,55700.99997520447,Fri Oct 04 2024 09:45:11 GMT-0500 (Central Daylight Time),943055.0,A,r,I,r,408,1,416.20000000298023,942638.799999997,8003,WL,A,2.0
7,4.514999866485596,immed,55485.000133514404,Fri Oct 04 2024 09:45:11 GMT-0500 (Central Daylight Time),943271.6000000015,A,ra,I,a,200,1,632.8000000044703,942638.799999997,8003,WL,A,2.0
7,4.8480000495910645,immed,55151.999950408936,Fri Oct 04 2024 09:45:11 GMT-0500 (Central Daylight Time),943604.700000003,A,rat,I,t,327,1,965.9000000059605,942638.799999997,8003,WL,A,2.0
7,5.014999866485596,immed,54985.000133514404,Fri Oct 04 2024 09:45:11 GMT-0500 (Central Daylight Time),943771.5,A,ratt,I,t,154,1,1132.7000000029802,942638.799999997,8003,WL,A,2.0
7,5.164999961853027,immed,54835.00003814697,Fri Oct 04 2024 09:45:11 GMT-0500 (Central Daylight Time),943921.3999999985,A,rattl,I,l,131,1,1282.6000000014901,942638.799999997,8003,WL,A,2.0
7,5.431999921798706,immed,54568.000078201294,Fri Oct 04 2024 09:45:11 GMT-0500 (Central Daylight Time),944188.0,A,rattle,I,e,252,1,1549.2000000029802,942638.799999997,8003,WL,A,2.0
7,5.747999906539917,immed,54252.00009346008,Fri Oct 04 2024 09:45:11 GMT-0500 (Central Daylight Time),944504.5,A,rattleenter,I,enter,299,1,1865.7000000029802,942638.799999997,8003,WL,A,2.0
7,6.014999866485596,immed,53985.000133514404,Fri Oct 04 2024 09:45:11 GMT-0500 (Central Daylight Time),944771.0,A,s,I,s,254,1,266.1000000014901,944504.8999999985,8003,WL,A,3.0
7,6.565000057220459,immed,53434.99994277954,Fri Oct 04 2024 09:45:11 GMT-0500 (Central Daylight Time),945321.1000000015,A,sa,I,a,532,1,816.2000000029802,944504.8999999985,8003,WL,A,3.0
7,6.764999866485596,immed,53235.000133514404,Fri Oct 04 2024 09:45:11 GMT-0500 (Central Daylight Time),945520.8999999985,A,sal,I,l,181,1,1016.0,944504.8999999985,8003,WL,A,3.0
7,7.297999858856201,immed,52702.0001411438,Fri Oct 04 2024 09:45:11 GMT-0500 (Central Daylight Time),946054.1000000015,A,salt,I,t,526,1,1549.2000000029802,944504.8999999985,8003,WL,A,3.0
7,7.896999835968018,immed,52103.00016403198,Fri Oct 04 2024 09:45:11 GMT-0500 (Central Daylight Time),946653.799999997,A,saltenter,I,enter,584,1,2148.89999999851,944504.8999999985,8003,WL,A,3.0
7,8.613999843597412,immed,51386.00015640259,Fri Oct 04 2024 09:45:11 GMT-0500 (Central Daylight Time),947370.200000003,A,b,I,b,704,1,716.1000000014901,946654.1000000015,8003,WL,A,4.0
7,8.763999938964844,immed,51236.000061035156,Fri Oct 04 2024 09:45:11 GMT-0500 (Central Daylight Time),947520.200000003,A,bo,I,o,139,1,866.1000000014901,946654.1000000015,8003,WL,A,4.0
7,8.980999946594238,immed,51019.00005340576,Fri Oct 04 2024 09:45:11 GMT-0500 (Central Daylight Time),947737.0,A,boo,I,o,205,1,1082.8999999985099,946654.1000000015,8003,WL,A,4.0
7,9.329999923706055,immed,50670.000076293945,Fri Oct 04 2024 09:45:11 GMT-0500 (Central Daylight Time),948086.700000003,A,book,I,k,341,1,1432.6000000014901,946654.1000000015,8003,WL,A,4.0
7,9.996999979019165,immed,50003.000020980835,Fri Oct 04 2024 09:45:11 GMT-0500 (Central Daylight Time),948753.200000003,A,bookenter,I,enter,655,1,2099.10000000149,946654.1000000015,8003,WL,A,4.0
7,10.263000011444092,immed,49736.99998855591,Fri Oct 04 2024 09:45:11 GMT-0500 (Central Daylight Time),949019.3999999985,A,f,I,f,260,1,265.8999999985099,948753.5,8003,WL,A,5.0
7,10.396999835968018,immed,49603.00016403198,Fri Oct 04 2024 09:45:11 GMT-0500 (Central Daylight Time),949153.0,A,fl,I,l,123,1,399.5,948753.5,8003,WL,A,5.0
7,10.646999835968018,immed,49353.00016403198,Fri Oct 04 2024 09:45:11 GMT-0500 (Central Daylight Time),949402.799999997,A,flo,I,o,244,1,649.2999999970198,948753.5,8003,WL,A,5.0
7,10.730000019073486,immed,49269.999980926514,Fri Oct 04 2024 09:45:11 GMT-0500 (Central Daylight Time),949486.200000003,A,flow,I,w,76,1,732.7000000029802,948753.5,8003,WL,A,5.0
7,10.879999876022339,immed,49120.00012397766,Fri Oct 04 2024 09:45:11 GMT-0500 (Central Daylight Time),949636.299999997,A,flowe,I,e,135,1,882.7999999970198,948753.5,8003,WL,A,5.0
7,11.096999883651733,immed,48903.00011634827,Fri Oct 04 2024 09:45:11 GMT-0500 (Central Daylight Time),949852.799999997,A,flower,I,r,202,1,1099.2999999970198,948753.5,8003,WL,A,5.0
7,11.36299991607666,immed,48637.00008392334,Fri Oct 04 2024 09:45:11 GMT-0500 (Central Daylight Time),950119.3999999985,A,flowerenter,I,enter,258,1,1365.8999999985099,948753.5,8003,WL,A,5.0
7,11.662999868392944,immed,48337.000131607056,Fri Oct 04 2024 09:45:11 GMT-0500 (Central Daylight Time),950419.3999999985,A,m,I,m,286,1,299.6000000014901,950119.799999997,8003,WL,A,6.0
7,11.730000019073486,immed,48269.999980926514,Fri Oct 04 2024 09:45:11 GMT-0500 (Central Daylight Time),950486.0,A,me,I,e,51,1,366.20000000298023,950119.799999997,8003,WL,A,6.0
7,11.86299991607666,immed,48137.00008392334,Fri Oct 04 2024 09:45:11 GMT-0500 (Central Daylight Time),950619.200000003,A,mea,I,a,121,1,499.40000000596046,950119.799999997,8003,WL,A,6.0
7,12.19599986076355,immed,47804.00013923645,Fri Oct 04 2024 09:45:11 GMT-0500 (Central Daylight Time),950952.5,A,mead,I,d,315,1,832.7000000029802,950119.799999997,8003,WL,A,6.0
7,12.463000059127808,immed,47536.99994087219,Fri Oct 04 2024 09:45:11 GMT-0500 (Central Daylight Time),951219.0,A,meado,I,o,253,1,1099.2000000029802,950119.799999997,8003,WL,A,6.0
7,13.013000011444092,immed,46986.99998855591,Fri Oct 04 2024 09:45:11 GMT-0500 (Central Daylight Time),951768.799999997,A,meadow,I,w,539,1,1649.0,950119.799999997,8003,WL,A,6.0
7,14.744999885559082,immed,45255.00011444092,Fri Oct 04 2024 09:45:11 GMT-0500 (Central Daylight Time),953501.700000003,A,meadowenter,I,enter,1718,1,3381.9000000059605,950119.799999997,8003,WL,A,6.0
7,14.944999933242798,immed,45055.0000667572,Fri Oct 04 2024 09:45:11 GMT-0500 (Central Daylight Time),953701.5,A,a,I,a,185,1,199.5,953502.0,8003,WL,A,7.0
7,15.17799997329712,immed,44822.00002670288,Fri Oct 04 2024 09:45:11 GMT-0500 (Central Daylight Time),953934.799999997,A,ap,I,p,224,1,432.79999999701977,953502.0,8003,WL,A,7.0
7,15.327999830245972,immed,44672.00016975403,Fri Oct 04 2024 09:45:11 GMT-0500 (Central Daylight Time),954084.8999999985,A,app,I,p,144,1,582.8999999985099,953502.0,8003,WL,A,7.0
7,15.543999910354614,immed,44456.000089645386,Fri Oct 04 2024 09:45:11 GMT-0500 (Central Daylight Time),954301.5,A,appl,I,l,210,1,799.5,953502.0,8003,WL,A,7.0
7,15.66100001335144,immed,44338.99998664856,Fri Oct 04 2024 09:45:11 GMT-0500 (Central Daylight Time),954418.0,A,apple,I,e,95,1,916.0,953502.0,8003,WL,A,7.0
7,16.01099991798401,immed,43989.00008201599,Fri Oct 04 2024 09:45:11 GMT-0500 (Central Daylight Time),954767.8999999985,A,appleenter,I,enter,333,1,1265.8999999985099,953502.0,8003,WL,A,7.0
7,16.378000020980835,immed,43621.999979019165,Fri Oct 04 2024 09:45:11 GMT-0500 (Central Daylight Time),955134.6000000015,A,f,I,f,359,1,366.30000000447035,954768.299999997,8003,WL,A,8.0
7,16.460999965667725,immed,43539.000034332275,Fri Oct 04 2024 09:45:11 GMT-0500 (Central Daylight Time),955217.799999997,A,fi,I,i,63,1,449.5,954768.299999997,8003,WL,A,8.0
7,16.57699990272522,immed,43423.00009727478,Fri Oct 04 2024 09:45:11 GMT-0500 (Central Daylight Time),955334.3999999985,A,fin,I,n,109,1,566.1000000014901,954768.299999997,8003,WL,A,8.0
7,16.82699990272522,immed,43173.00009727478,Fri Oct 04 2024 09:45:11 GMT-0500 (Central Daylight Time),955584.5,A,fing,I,g,240,1,816.2000000029802,954768.299999997,8003,WL,A,8.0
7,17.060999870300293,immed,42939.00012969971,Fri Oct 04 2024 09:45:11 GMT-0500 (Central Daylight Time),955817.799999997,A,finge,I,e,213,1,1049.5,954768.299999997,8003,WL,A,8.0
7,17.126999855041504,immed,42873.000144958496,Fri Oct 04 2024 09:45:11 GMT-0500 (Central Daylight Time),955884.200000003,A,finger,I,r,53,1,1115.9000000059605,954768.299999997,8003,WL,A,8.0
7,17.39400005340576,immed,42605.99994659424,Fri Oct 04 2024 09:45:11 GMT-0500 (Central Daylight Time),956150.799999997,A,fingerenter,I,enter,249,1,1382.5,954768.299999997,8003,WL,A,8.0
7,22.441999912261963,immed,37558.00008773804,Fri Oct 04 2024 09:45:11 GMT-0500 (Central Daylight Time),961199.200000003,A,g,I,g,5032,1,5048.10000000149,956151.1000000015,8003,WL,A,9.0
7,22.608999967575073,immed,37391.00003242493,Fri Oct 04 2024 09:45:11 GMT-0500 (Central Daylight Time),961366.0,A,go,I,o,158,1,5214.89999999851,956151.1000000015,8003,WL,A,9.0
7,22.825999975204468,immed,37174.00002479553,Fri Oct 04 2024 09:45:11 GMT-0500 (Central Daylight Time),961582.5,A,gol,I,l,201,1,5431.39999999851,956151.1000000015,8003,WL,A,9.0
7,22.924999952316284,immed,37075.000047683716,Fri Oct 04 2024 09:45:11 GMT-0500 (Central Daylight Time),961682.3999999985,A,gold,I,d,79,1,5531.29999999702,956151.1000000015,8003,WL,A,9.0
7,23.14299988746643,immed,36857.00011253357,Fri Oct 04 2024 09:45:11 GMT-0500 (Central Daylight Time),961900.299999997,A,goldenter,I,enter,203,1,5749.19999999553,956151.1000000015,8003,WL,A,9.0
7,23.39199995994568,immed,36608.00004005432,Fri Oct 04 2024 09:45:11 GMT-0500 (Central Daylight Time),962148.799999997,A,k,I,k,242,1,248.19999999552965,961900.6000000015,8003,WL,A,10.0
7,23.45899987220764,immed,36541.00012779236,Fri Oct 04 2024 09:45:11 GMT-0500 (Central Daylight Time),962215.799999997,A,ke,I,e,58,1,315.19999999552965,961900.6000000015,8003,WL,A,10.0
7,23.741999864578247,immed,36258.00013542175,Fri Oct 04 2024 09:45:11 GMT-0500 (Central Daylight Time),962498.8999999985,A,key,I,y,271,1,598.2999999970198,961900.6000000015,8003,WL,A,10.0
7,24.04200005531311,immed,35957.99994468689,Fri Oct 04 2024 09:45:11 GMT-0500 (Central Daylight Time),962798.6000000015,A,keyenter,I,enter,291,1,898.0,961900.6000000015,8003,WL,A,10.0
7,29.572999954223633,immed,30427.000045776367,Fri Oct 04 2024 09:45:11 GMT-0500 (Central Daylight Time),968330.200000003,A,h,I,h,5520,1,5531.30000000447,962798.8999999985,8003,WL,A,11.0
7,29.69000005722046,immed,30309.99994277954,Fri Oct 04 2024 09:45:11 GMT-0500 (Central Daylight Time),968447.0,A,ha,I,a,100,1,5648.10000000149,962798.8999999985,8003,WL,A,11.0
7,29.9229998588562,immed,30077.0001411438,Fri Oct 04 2024 09:45:11 GMT-0500 (Central Daylight Time),968680.299999997,A,har,I,r,216,1,5881.39999999851,962798.8999999985,8003,WL,A,11.0
7,30.10699987411499,immed,29893.00012588501,Fri Oct 04 2024 09:45:11 GMT-0500 (Central Daylight Time),968863.5,A,harp,I,p,166,1,6064.60000000149,962798.8999999985,8003,WL,A,11.0
7,30.4229998588562,immed,29577.0001411438,Fri Oct 04 2024 09:45:11 GMT-0500 (Central Daylight Time),969180.0,A,harpenter,I,enter,302,1,6381.10000000149,962798.8999999985,8003,WL,A,11.0
7,60.013999938964844,immed,-13.99993896484375,Fri Oct 04 2024 09:45:11 GMT-0500 (Central Daylight Time),998771.0,A,None,I,None,29587,1,29590.60000000149,969180.3999999985,8003,WL,A,12.0
