block_c,block_dur,condition,countdown,datetime,endtime,list,multichar_response,project,response,response_time,session_number,start_end,starttime,subject_id,task,task_vers,trial
,,,,Fri Jan 31 2025 10:45:28 GMT-0600 (Central Standard Time),,,,I,space,408,2,,,8003,WL,C,
prac,,0,,Fri Jan 31 2025 10:45:28 GMT-0600 (Central Standard Time),,NA,b,I,b,11059,2,,,8003,WL,C,1.0
prac,,0,,Fri Jan 31 2025 10:45:28 GMT-0600 (Central Standard Time),,NA,bo,I,o,221,2,,,8003,WL,C,1.0
prac,,0,,Fri Jan 31 2025 10:45:28 GMT-0600 (Central Standard Time),,NA,boo,I,o,149,2,,,8003,WL,C,1.0
prac,,0,,Fri Jan 31 2025 10:45:28 GMT-0600 (Central Standard Time),,NA,boos,I,s,286,2,,,8003,WL,C,1.0
prac,,0,,Fri Jan 31 2025 10:45:28 GMT-0600 (Central Standard Time),,NA,boost,I,t,372,2,,,8003,WL,C,1.0
prac,,0,,Fri Jan 31 2025 10:45:28 GMT-0600 (Central Standard Time),,NA,boostenter,I,enter,4412,2,,,8003,WL,C,1.0
1,2.25,learn,57750.0,Fri Jan 31 2025 10:45:28 GMT-0600 (Central Standard Time),132208.20000000298,A,c,I,c,2227,2,2249.2999999970198,129958.90000000596,8003,WL,C,1.0
1,2.433000087738037,learn,57566.99991226196,Fri Jan 31 2025 10:45:28 GMT-0600 (Central Standard Time),132390.70000000298,A,ca,I,a,160,2,2431.7999999970198,129958.90000000596,8003,WL,C,1.0
1,2.6490001678466797,learn,57350.99983215332,Fri Jan 31 2025 10:45:28 GMT-0600 (Central Standard Time),132607.5,A,cat,I,t,194,2,2648.5999999940395,129958.90000000596,8003,WL,C,1.0
1,2.7990000247955322,learn,57200.99997520447,Fri Jan 31 2025 10:45:28 GMT-0600 (Central Standard Time),132757.40000000596,A,catt,I,t,137,2,2798.5,129958.90000000596,8003,WL,C,1.0
1,3.249000072479248,learn,56750.99992752075,Fri Jan 31 2025 10:45:28 GMT-0600 (Central Standard Time),133207.20000000298,A,cattl,I,l,428,2,3248.2999999970198,129958.90000000596,8003,WL,C,1.0
1,3.3320000171661377,learn,56667.99998283386,Fri Jan 31 2025 10:45:28 GMT-0600 (Central Standard Time),133290.5,A,cattle,I,e,74,2,3331.5999999940395,129958.90000000596,8003,WL,C,1.0
1,4.815999984741211,learn,55184.00001525879,Fri Jan 31 2025 10:45:28 GMT-0600 (Central Standard Time),134773.90000000596,A,cattleenter,I,enter,1472,2,4815.0,129958.90000000596,8003,WL,C,1.0
1,6.881999969482422,learn,53118.00003051758,Fri Jan 31 2025 10:45:28 GMT-0600 (Central Standard Time),136839.70000000298,A,c,I,c,2051,2,2065.10000000149,134774.6000000015,8003,WL,C,2.0
1,7.015000104904175,learn,52984.999895095825,Fri Jan 31 2025 10:45:28 GMT-0600 (Central Standard Time),136972.90000000596,A,co,I,o,121,2,2198.3000000044703,134774.6000000015,8003,WL,C,2.0
1,7.131999969482422,learn,52868.00003051758,Fri Jan 31 2025 10:45:28 GMT-0600 (Central Standard Time),137089.90000000596,A,cor,I,r,109,2,2315.3000000044703,134774.6000000015,8003,WL,C,2.0
1,7.315000057220459,learn,52684.99994277954,Fri Jan 31 2025 10:45:28 GMT-0600 (Central Standard Time),137273.1000000015,A,corn,I,n,167,2,2498.5,134774.6000000015,8003,WL,C,2.0
1,7.498000144958496,learn,52501.999855041504,Fri Jan 31 2025 10:45:28 GMT-0600 (Central Standard Time),137456.20000000298,A,cornenter,I,enter,159,2,2681.60000000149,134774.6000000015,8003,WL,C,2.0
1,7.832000017166138,learn,52167.99998283386,Fri Jan 31 2025 10:45:28 GMT-0600 (Central Standard Time),137789.70000000298,A,w,I,w,313,2,332.8999999985099,137456.80000000447,8003,WL,C,3.0
1,7.981000185012817,learn,52018.99981498718,Fri Jan 31 2025 10:45:28 GMT-0600 (Central Standard Time),137939.5,A,wh,I,h,140,2,482.69999999552965,137456.80000000447,8003,WL,C,3.0
1,8.131999969482422,learn,51868.00003051758,Fri Jan 31 2025 10:45:28 GMT-0600 (Central Standard Time),138089.70000000298,A,whe,I,e,141,2,632.8999999985099,137456.80000000447,8003,WL,C,3.0
1,8.314000129699707,learn,51685.99987030029,Fri Jan 31 2025 10:45:28 GMT-0600 (Central Standard Time),138272.6000000015,A,whea,I,a,160,2,815.7999999970198,137456.80000000447,8003,WL,C,3.0
1,8.614000082015991,learn,51385.99991798401,Fri Jan 31 2025 10:45:28 GMT-0600 (Central Standard Time),138572.5,A,wheat,I,t,290,2,1115.6999999955297,137456.80000000447,8003,WL,C,3.0
1,8.831000089645386,learn,51168.999910354614,Fri Jan 31 2025 10:45:28 GMT-0600 (Central Standard Time),138789.20000000298,A,wheatenter,I,enter,197,2,1332.3999999985099,137456.80000000447,8003,WL,C,3.0
1,9.581000089645386,learn,50418.999910354614,Fri Jan 31 2025 10:45:28 GMT-0600 (Central Standard Time),139538.80000000447,A,q,I,q,732,2,749.2000000029802,138789.6000000015,8003,WL,C,4.0
1,9.764000177383423,learn,50235.99982261658,Fri Jan 31 2025 10:45:28 GMT-0600 (Central Standard Time),139722.20000000298,A,qu,I,u,168,2,932.6000000014901,138789.6000000015,8003,WL,C,4.0
1,9.88100004196167,learn,50118.99995803833,Fri Jan 31 2025 10:45:28 GMT-0600 (Central Standard Time),139838.6000000015,A,que,I,e,103,2,1049.0,138789.6000000015,8003,WL,C,4.0
1,10.080000162124634,learn,49919.999837875366,Fri Jan 31 2025 10:45:28 GMT-0600 (Central Standard Time),140038.5,A,quee,I,e,179,2,1248.8999999985099,138789.6000000015,8003,WL,C,4.0
1,10.27999997138977,learn,49720.00002861023,Fri Jan 31 2025 10:45:28 GMT-0600 (Central Standard Time),140238.5,A,queen,I,n,178,2,1448.8999999985099,138789.6000000015,8003,WL,C,4.0
1,10.897000074386597,learn,49102.9999256134,Fri Jan 31 2025 10:45:28 GMT-0600 (Central Standard Time),140855.40000000596,A,queent,I,t,594,2,2065.8000000044703,138789.6000000015,8003,WL,C,4.0
1,11.02999997138977,learn,48970.00002861023,Fri Jan 31 2025 10:45:28 GMT-0600 (Central Standard Time),140988.5,A,queento,I,o,122,2,2198.89999999851,138789.6000000015,8003,WL,C,4.0
1,11.713000059127808,learn,48286.99994087219,Fri Jan 31 2025 10:45:28 GMT-0600 (Central Standard Time),141671.5,A,queent,I,backspace,669,2,2881.89999999851,138789.6000000015,8003,WL,C,4.0
1,11.897000074386597,learn,48102.9999256134,Fri Jan 31 2025 10:45:28 GMT-0600 (Central Standard Time),141854.80000000447,A,queen,I,backspace,161,2,3065.2000000029802,138789.6000000015,8003,WL,C,4.0
1,12.646000146865845,learn,47353.999853134155,Fri Jan 31 2025 10:45:28 GMT-0600 (Central Standard Time),142604.5,A,queenenter,I,enter,739,2,3814.89999999851,138789.6000000015,8003,WL,C,4.0
1,13.361999988555908,learn,46638.00001144409,Fri Jan 31 2025 10:45:28 GMT-0600 (Central Standard Time),143320.5,A,o,I,o,708,2,715.6999999955297,142604.80000000447,8003,WL,C,5.0
1,13.509999990463257,learn,46490.00000953674,Fri Jan 31 2025 10:45:28 GMT-0600 (Central Standard Time),143467.6000000015,A,ow,I,w,138,2,862.7999999970198,142604.80000000447,8003,WL,C,5.0
1,13.578999996185303,learn,46421.0000038147,Fri Jan 31 2025 10:45:28 GMT-0600 (Central Standard Time),143537.30000000447,A,owe,I,e,59,2,932.5,142604.80000000447,8003,WL,C,5.0
1,13.713000059127808,learn,46286.99994087219,Fri Jan 31 2025 10:45:28 GMT-0600 (Central Standard Time),143670.90000000596,A,ower,I,r,109,2,1066.1000000014901,142604.80000000447,8003,WL,C,5.0
1,14.463000059127808,learn,45536.99994087219,Fri Jan 31 2025 10:45:28 GMT-0600 (Central Standard Time),144420.6000000015,A,owe,I,backspace,739,2,1815.7999999970198,142604.80000000447,8003,WL,C,5.0
1,14.696000099182129,learn,45303.99990081787,Fri Jan 31 2025 10:45:28 GMT-0600 (Central Standard Time),144654.0,A,ow,I,backspace,220,2,2049.1999999955297,142604.80000000447,8003,WL,C,5.0
1,14.92900013923645,learn,45070.99986076355,Fri Jan 31 2025 10:45:28 GMT-0600 (Central Standard Time),144887.40000000596,A,o,I,backspace,218,2,2282.60000000149,142604.80000000447,8003,WL,C,5.0
1,15.162000179290771,learn,44837.99982070923,Fri Jan 31 2025 10:45:28 GMT-0600 (Central Standard Time),145120.5,A,,I,backspace,218,2,2515.6999999955297,142604.80000000447,8003,WL,C,5.0
1,15.412000179290771,learn,44587.99982070923,Fri Jan 31 2025 10:45:28 GMT-0600 (Central Standard Time),145370.20000000298,A,t,I,t,241,2,2765.39999999851,142604.80000000447,8003,WL,C,5.0
1,16.062000036239624,learn,43937.999963760376,Fri Jan 31 2025 10:45:28 GMT-0600 (Central Standard Time),146020.20000000298,A,to,I,o,640,2,3415.39999999851,142604.80000000447,8003,WL,C,5.0
1,16.26200008392334,learn,43737.99991607666,Fri Jan 31 2025 10:45:28 GMT-0600 (Central Standard Time),146220.20000000298,A,tow,I,w,189,2,3615.39999999851,142604.80000000447,8003,WL,C,5.0
1,16.394999980926514,learn,43605.000019073486,Fri Jan 31 2025 10:45:28 GMT-0600 (Central Standard Time),146353.40000000596,A,towe,I,e,110,2,3748.60000000149,142604.80000000447,8003,WL,C,5.0
1,16.51200008392334,learn,43487.99991607666,Fri Jan 31 2025 10:45:28 GMT-0600 (Central Standard Time),146470.1000000015,A,tower,I,r,96,2,3865.2999999970198,142604.80000000447,8003,WL,C,5.0
1,16.828999996185303,learn,43171.0000038147,Fri Jan 31 2025 10:45:28 GMT-0600 (Central Standard Time),146786.80000000447,A,towerenter,I,enter,299,2,4182.0,142604.80000000447,8003,WL,C,5.0
1,18.378000020980835,learn,41621.999979019165,Fri Jan 31 2025 10:45:28 GMT-0600 (Central Standard Time),148336.30000000447,A,d,I,d,1526,2,1549.1000000014901,146787.20000000298,8003,WL,C,6.0
1,18.511000156402588,learn,41488.99984359741,Fri Jan 31 2025 10:45:28 GMT-0600 (Central Standard Time),148469.40000000596,A,do,I,o,121,2,1682.2000000029802,146787.20000000298,8003,WL,C,6.0
1,18.67799997329712,learn,41322.00002670288,Fri Jan 31 2025 10:45:28 GMT-0600 (Central Standard Time),148636.1000000015,A,doc,I,c,148,2,1848.8999999985099,146787.20000000298,8003,WL,C,6.0
1,18.878000020980835,learn,41121.999979019165,Fri Jan 31 2025 10:45:28 GMT-0600 (Central Standard Time),148835.90000000596,A,doct,I,t,181,2,2048.7000000029802,146787.20000000298,8003,WL,C,6.0
1,18.978000164031982,learn,41021.99983596802,Fri Jan 31 2025 10:45:28 GMT-0600 (Central Standard Time),148936.0,A,docto,I,o,87,2,2148.7999999970198,146787.20000000298,8003,WL,C,6.0
1,19.228000164031982,learn,40771.99983596802,Fri Jan 31 2025 10:45:28 GMT-0600 (Central Standard Time),149185.70000000298,A,doctor,I,r,234,2,2398.5,146787.20000000298,8003,WL,C,6.0
1,19.628000020980835,learn,40371.999979019165,Fri Jan 31 2025 10:45:28 GMT-0600 (Central Standard Time),149585.80000000447,A,doctorenter,I,enter,392,2,2798.60000000149,146787.20000000298,8003,WL,C,6.0
1,21.027000188827515,learn,38972.999811172485,Fri Jan 31 2025 10:45:28 GMT-0600 (Central Standard Time),150985.6000000015,A,b,I,b,1376,2,1399.6000000014901,149586.0,8003,WL,C,7.0
1,21.210000038146973,learn,38789.99996185303,Fri Jan 31 2025 10:45:28 GMT-0600 (Central Standard Time),151168.6000000015,A,bo,I,o,169,2,1582.6000000014901,149586.0,8003,WL,C,7.0
1,21.361000061035156,learn,38638.999938964844,Fri Jan 31 2025 10:45:28 GMT-0600 (Central Standard Time),151318.6000000015,A,bod,I,d,129,2,1732.6000000014901,149586.0,8003,WL,C,7.0
1,21.64400005340576,learn,38355.99994659424,Fri Jan 31 2025 10:45:28 GMT-0600 (Central Standard Time),151601.70000000298,A,body,I,y,260,2,2015.7000000029802,149586.0,8003,WL,C,7.0
1,21.960999965667725,learn,38039.000034332275,Fri Jan 31 2025 10:45:28 GMT-0600 (Central Standard Time),151918.70000000298,A,bodyenter,I,enter,296,2,2332.7000000029802,149586.0,8003,WL,C,7.0
1,31.34000015258789,learn,28659.99984741211,Fri Jan 31 2025 10:45:28 GMT-0600 (Central Standard Time),161298.40000000596,A,n,I,n,9371,2,9379.30000000447,151919.1000000015,8003,WL,C,8.0
1,31.52400016784668,learn,28475.99983215332,Fri Jan 31 2025 10:45:28 GMT-0600 (Central Standard Time),161481.90000000596,A,na,I,a,160,2,9562.80000000447,151919.1000000015,8003,WL,C,8.0
1,31.807000160217285,learn,28192.999839782715,Fri Jan 31 2025 10:45:28 GMT-0600 (Central Standard Time),161765.30000000447,A,nai,I,i,271,2,9846.20000000298,151919.1000000015,8003,WL,C,8.0
1,31.957000017166138,learn,28042.999982833862,Fri Jan 31 2025 10:45:28 GMT-0600 (Central Standard Time),161915.1000000015,A,nail,I,l,134,2,9996.0,151919.1000000015,8003,WL,C,8.0
1,32.59000015258789,learn,27409.99984741211,Fri Jan 31 2025 10:45:28 GMT-0600 (Central Standard Time),162548.40000000596,A,nailenter,I,enter,622,2,10629.30000000447,151919.1000000015,8003,WL,C,8.0
1,32.973000049591064,learn,27026.999950408936,Fri Jan 31 2025 10:45:28 GMT-0600 (Central Standard Time),162931.5,A,s,I,s,367,2,382.69999999552965,162548.80000000447,8003,WL,C,9.0
1,33.03999996185303,learn,26960.000038146973,Fri Jan 31 2025 10:45:28 GMT-0600 (Central Standard Time),162998.5,A,sh,I,h,54,2,449.69999999552965,162548.80000000447,8003,WL,C,9.0
1,33.10700011253357,learn,26892.99988746643,Fri Jan 31 2025 10:45:28 GMT-0600 (Central Standard Time),163065.1000000015,A,sho,I,o,43,2,516.2999999970198,162548.80000000447,8003,WL,C,9.0
1,33.24000000953674,learn,26759.999990463257,Fri Jan 31 2025 10:45:28 GMT-0600 (Central Standard Time),163198.20000000298,A,shor,I,r,111,2,649.3999999985099,162548.80000000447,8003,WL,C,9.0
1,33.623000144958496,learn,26376.999855041504,Fri Jan 31 2025 10:45:28 GMT-0600 (Central Standard Time),163581.30000000447,A,shore,I,e,364,2,1032.5,162548.80000000447,8003,WL,C,9.0
1,33.75800013542175,learn,26241.999864578247,Fri Jan 31 2025 10:45:28 GMT-0600 (Central Standard Time),163715.6000000015,A,shoreenter,I,enter,123,2,1166.7999999970198,162548.80000000447,8003,WL,C,9.0
1,45.569000005722046,learn,14430.999994277954,Fri Jan 31 2025 10:45:28 GMT-0600 (Central Standard Time),175527.40000000596,A,b,I,b,11790,2,11811.30000000447,163716.1000000015,8003,WL,C,10.0
1,45.68600010871887,learn,14313.999891281128,Fri Jan 31 2025 10:45:28 GMT-0600 (Central Standard Time),175644.30000000447,A,bo,I,o,107,2,11928.20000000298,163716.1000000015,8003,WL,C,10.0
1,45.88600015640259,learn,14113.999843597412,Fri Jan 31 2025 10:45:28 GMT-0600 (Central Standard Time),175843.90000000596,A,boy,I,y,190,2,12127.80000000447,163716.1000000015,8003,WL,C,10.0
1,46.13700008392334,learn,13862.99991607666,Fri Jan 31 2025 10:45:28 GMT-0600 (Central Standard Time),176095.40000000596,A,boyenter,I,enter,239,2,12379.30000000447,163716.1000000015,8003,WL,C,10.0
1,54.21600008010864,learn,5783.999919891357,Fri Jan 31 2025 10:45:28 GMT-0600 (Central Standard Time),184174.90000000596,A,b,I,b,8059,2,8079.20000000298,176095.70000000298,8003,WL,C,11.0
1,54.49900007247925,learn,5500.999927520752,Fri Jan 31 2025 10:45:28 GMT-0600 (Central Standard Time),184458.0,A,bo,I,o,259,2,8362.29999999702,176095.70000000298,8003,WL,C,11.0
1,54.848999977111816,learn,5151.000022888184,Fri Jan 31 2025 10:45:28 GMT-0600 (Central Standard Time),184807.90000000596,A,boo,I,o,328,2,8712.20000000298,176095.70000000298,8003,WL,C,11.0
1,55.33300018310547,learn,4666.999816894531,Fri Jan 31 2025 10:45:28 GMT-0600 (Central Standard Time),185291.20000000298,A,book,I,k,475,2,9195.5,176095.70000000298,8003,WL,C,11.0
1,55.64900016784668,learn,4350.99983215332,Fri Jan 31 2025 10:45:28 GMT-0600 (Central Standard Time),185607.70000000298,A,bookenter,I,enter,303,2,9512.0,176095.70000000298,8003,WL,C,11.0
1,60.015000104904175,learn,-15.000104904174805,Fri Jan 31 2025 10:45:28 GMT-0600 (Central Standard Time),189973.20000000298,A,None,I,None,4359,2,4365.10000000149,185608.1000000015,8003,WL,C,12.0
2,2.199000120162964,learn,57800.999879837036,Fri Jan 31 2025 10:45:28 GMT-0600 (Central Standard Time),272730.700000003,A,q,I,q,2182,2,2198.2999999970198,270532.40000000596,8003,WL,C,1.0
2,2.615000009536743,learn,57384.99999046326,Fri Jan 31 2025 10:45:28 GMT-0600 (Central Standard Time),273147.30000000447,A,qu,I,u,400,2,2614.89999999851,270532.40000000596,8003,WL,C,1.0
2,2.748000144958496,learn,57251.999855041504,Fri Jan 31 2025 10:45:28 GMT-0600 (Central Standard Time),273280.5,A,que,I,e,110,2,2748.0999999940395,270532.40000000596,8003,WL,C,1.0
2,3.015000104904175,learn,56984.999895095825,Fri Jan 31 2025 10:45:28 GMT-0600 (Central Standard Time),273546.90000000596,A,quee,I,e,250,2,3014.5,270532.40000000596,8003,WL,C,1.0
2,3.181000232696533,learn,56818.99976730347,Fri Jan 31 2025 10:45:28 GMT-0600 (Central Standard Time),273713.30000000447,A,queen,I,n,159,2,3180.89999999851,270532.40000000596,8003,WL,C,1.0
2,3.4140000343322754,learn,56585.999965667725,Fri Jan 31 2025 10:45:28 GMT-0600 (Central Standard Time),273946.6000000015,A,queenenter,I,enter,218,2,3414.1999999955297,270532.40000000596,8003,WL,C,1.0
2,4.0980000495910645,learn,55901.999950408936,Fri Jan 31 2025 10:45:28 GMT-0600 (Central Standard Time),274629.90000000596,A,b,I,b,663,2,683.0,273946.90000000596,8003,WL,C,2.0
2,4.231000185012817,learn,55768.99981498718,Fri Jan 31 2025 10:45:28 GMT-0600 (Central Standard Time),274763.200000003,A,bo,I,o,115,2,816.2999999970198,273946.90000000596,8003,WL,C,2.0
2,4.414000034332275,learn,55585.999965667725,Fri Jan 31 2025 10:45:28 GMT-0600 (Central Standard Time),274946.40000000596,A,boy,I,y,167,2,999.5,273946.90000000596,8003,WL,C,2.0
2,4.765000104904175,learn,55234.999895095825,Fri Jan 31 2025 10:45:28 GMT-0600 (Central Standard Time),275296.700000003,A,boyenter,I,enter,327,2,1349.7999999970198,273946.90000000596,8003,WL,C,2.0
2,6.114000082015991,learn,53885.99991798401,Fri Jan 31 2025 10:45:28 GMT-0600 (Central Standard Time),276645.90000000596,A,c,I,c,1329,2,1349.0,275296.90000000596,8003,WL,C,3.0
2,6.230000019073486,learn,53769.999980926514,Fri Jan 31 2025 10:45:28 GMT-0600 (Central Standard Time),276762.30000000447,A,ca,I,a,107,2,1465.3999999985099,275296.90000000596,8003,WL,C,3.0
2,6.464000225067139,learn,53535.99977493286,Fri Jan 31 2025 10:45:28 GMT-0600 (Central Standard Time),276995.80000000447,A,cat,I,t,223,2,1698.8999999985099,275296.90000000596,8003,WL,C,3.0
2,6.614000082015991,learn,53385.99991798401,Fri Jan 31 2025 10:45:28 GMT-0600 (Central Standard Time),277145.700000003,A,catt,I,t,142,2,1848.7999999970198,275296.90000000596,8003,WL,C,3.0
2,6.8470001220703125,learn,53152.99987792969,Fri Jan 31 2025 10:45:28 GMT-0600 (Central Standard Time),277379.1000000015,A,cattl,I,l,216,2,2082.1999999955297,275296.90000000596,8003,WL,C,3.0
2,6.947000026702881,learn,53052.99997329712,Fri Jan 31 2025 10:45:28 GMT-0600 (Central Standard Time),277479.0,A,cattle,I,e,78,2,2182.0999999940395,275296.90000000596,8003,WL,C,3.0
2,7.230000019073486,learn,52769.999980926514,Fri Jan 31 2025 10:45:28 GMT-0600 (Central Standard Time),277762.200000003,A,cattleenter,I,enter,275,2,2465.2999999970198,275296.90000000596,8003,WL,C,3.0
2,9.09600019454956,learn,50903.99980545044,Fri Jan 31 2025 10:45:28 GMT-0600 (Central Standard Time),279628.5,A,w,I,w,1857,2,1866.0,277762.5,8003,WL,C,4.0
2,9.263000011444092,learn,50736.99998855591,Fri Jan 31 2025 10:45:28 GMT-0600 (Central Standard Time),279795.0,A,wh,I,h,159,2,2032.5,277762.5,8003,WL,C,4.0
2,9.463000059127808,learn,50536.99994087219,Fri Jan 31 2025 10:45:28 GMT-0600 (Central Standard Time),279995.1000000015,A,whe,I,e,183,2,2232.60000000149,277762.5,8003,WL,C,4.0
2,9.61300015449524,learn,50386.99984550476,Fri Jan 31 2025 10:45:28 GMT-0600 (Central Standard Time),280145.0,A,whea,I,a,128,2,2382.5,277762.5,8003,WL,C,4.0
2,9.84600019454956,learn,50153.99980545044,Fri Jan 31 2025 10:45:28 GMT-0600 (Central Standard Time),280378.30000000447,A,wheat,I,t,209,2,2615.8000000044703,277762.5,8003,WL,C,4.0
2,10.063000202178955,learn,49936.999797821045,Fri Jan 31 2025 10:45:28 GMT-0600 (Central Standard Time),280594.6000000015,A,wheatenter,I,enter,199,2,2832.10000000149,277762.5,8003,WL,C,4.0
2,10.396000146865845,learn,49603.999853134155,Fri Jan 31 2025 10:45:28 GMT-0600 (Central Standard Time),280927.90000000596,A,c,I,c,313,2,332.90000000596046,280595.0,8003,WL,C,5.0
2,10.496000051498413,learn,49503.99994850159,Fri Jan 31 2025 10:45:28 GMT-0600 (Central Standard Time),281027.80000000447,A,co,I,o,81,2,432.80000000447035,280595.0,8003,WL,C,5.0
2,10.712000131607056,learn,49287.999868392944,Fri Jan 31 2025 10:45:28 GMT-0600 (Central Standard Time),281244.5,A,cor,I,r,206,2,649.5,280595.0,8003,WL,C,5.0
2,10.862000226974487,learn,49137.99977302551,Fri Jan 31 2025 10:45:28 GMT-0600 (Central Standard Time),281394.30000000447,A,corn,I,n,141,2,799.3000000044703,280595.0,8003,WL,C,5.0
2,11.146000146865845,learn,48853.999853134155,Fri Jan 31 2025 10:45:28 GMT-0600 (Central Standard Time),281677.6000000015,A,cornenter,I,enter,264,2,1082.6000000014901,280595.0,8003,WL,C,5.0
2,12.645000219345093,learn,47354.99978065491,Fri Jan 31 2025 10:45:28 GMT-0600 (Central Standard Time),283177.30000000447,A,s,I,s,1476,2,1499.3999999985099,281677.90000000596,8003,WL,C,6.0
2,12.729000091552734,learn,47270.999908447266,Fri Jan 31 2025 10:45:28 GMT-0600 (Central Standard Time),283261.5,A,ss,I,s,72,2,1583.5999999940395,281677.90000000596,8003,WL,C,6.0
2,13.412000179290771,learn,46587.99982070923,Fri Jan 31 2025 10:45:28 GMT-0600 (Central Standard Time),283943.6000000015,A,s,I,backspace,668,2,2265.6999999955297,281677.90000000596,8003,WL,C,6.0
2,14.187000036239624,learn,45812.999963760376,Fri Jan 31 2025 10:45:28 GMT-0600 (Central Standard Time),284718.700000003,A,so,I,o,769,2,3040.7999999970198,281677.90000000596,8003,WL,C,6.0
2,14.294000148773193,learn,45705.99985122681,Fri Jan 31 2025 10:45:28 GMT-0600 (Central Standard Time),284826.40000000596,A,sor,I,r,97,2,3148.5,281677.90000000596,8003,WL,C,6.0
2,14.41100001335144,learn,45588.99998664856,Fri Jan 31 2025 10:45:28 GMT-0600 (Central Standard Time),284943.40000000596,A,sore,I,e,104,2,3265.5,281677.90000000596,8003,WL,C,6.0
2,15.32800006866455,learn,44671.99993133545,Fri Jan 31 2025 10:45:28 GMT-0600 (Central Standard Time),285859.80000000447,A,sor,I,backspace,898,2,4181.89999999851,281677.90000000596,8003,WL,C,6.0
2,15.57800006866455,learn,44421.99993133545,Fri Jan 31 2025 10:45:28 GMT-0600 (Central Standard Time),286109.6000000015,A,so,I,backspace,237,2,4431.69999999553,281677.90000000596,8003,WL,C,6.0
2,15.927000045776367,learn,44072.99995422363,Fri Jan 31 2025 10:45:28 GMT-0600 (Central Standard Time),286459.6000000015,A,s,I,backspace,341,2,4781.69999999553,281677.90000000596,8003,WL,C,6.0
2,16.72699999809265,learn,43273.00000190735,Fri Jan 31 2025 10:45:28 GMT-0600 (Central Standard Time),287259.5,A,sh,I,h,790,2,5581.5999999940395,281677.90000000596,8003,WL,C,6.0
2,18.110000133514404,learn,41889.999866485596,Fri Jan 31 2025 10:45:28 GMT-0600 (Central Standard Time),288642.200000003,A,sho,I,o,1366,2,6964.29999999702,281677.90000000596,8003,WL,C,6.0
2,18.210000038146973,learn,41789.99996185303,Fri Jan 31 2025 10:45:28 GMT-0600 (Central Standard Time),288742.200000003,A,shor,I,r,80,2,7064.29999999702,281677.90000000596,8003,WL,C,6.0
2,18.326000213623047,learn,41673.99978637695,Fri Jan 31 2025 10:45:28 GMT-0600 (Central Standard Time),288858.6000000015,A,shore,I,e,107,2,7180.69999999553,281677.90000000596,8003,WL,C,6.0
2,18.694000005722046,learn,41305.999994277954,Fri Jan 31 2025 10:45:28 GMT-0600 (Central Standard Time),289225.80000000447,A,shoreenter,I,enter,351,2,7547.89999999851,281677.90000000596,8003,WL,C,6.0
2,20.426000118255615,learn,39573.999881744385,Fri Jan 31 2025 10:45:28 GMT-0600 (Central Standard Time),290958.30000000447,A,t,I,t,1713,2,1732.3000000044703,289226.0,8003,WL,C,7.0
2,20.610000133514404,learn,39389.999866485596,Fri Jan 31 2025 10:45:28 GMT-0600 (Central Standard Time),291141.700000003,A,to,I,o,171,2,1915.7000000029802,289226.0,8003,WL,C,7.0
2,20.776000022888184,learn,39223.99997711182,Fri Jan 31 2025 10:45:28 GMT-0600 (Central Standard Time),291308.0,A,tow,I,w,148,2,2082.0,289226.0,8003,WL,C,7.0
2,20.892000198364258,learn,39107.99980163574,Fri Jan 31 2025 10:45:28 GMT-0600 (Central Standard Time),291424.6000000015,A,towe,I,e,101,2,2198.60000000149,289226.0,8003,WL,C,7.0
2,21.05900001525879,learn,38940.99998474121,Fri Jan 31 2025 10:45:28 GMT-0600 (Central Standard Time),291591.30000000447,A,tower,I,r,145,2,2365.3000000044703,289226.0,8003,WL,C,7.0
2,21.259000062942505,learn,38740.999937057495,Fri Jan 31 2025 10:45:28 GMT-0600 (Central Standard Time),291791.30000000447,A,towerenter,I,enter,187,2,2565.3000000044703,289226.0,8003,WL,C,7.0
2,25.558000087738037,learn,34441.99991226196,Fri Jan 31 2025 10:45:28 GMT-0600 (Central Standard Time),296089.90000000596,A,b,I,b,4283,2,4298.30000000447,291791.6000000015,8003,WL,C,8.0
2,25.674000024795532,learn,34325.99997520447,Fri Jan 31 2025 10:45:28 GMT-0600 (Central Standard Time),296206.5,A,bo,I,o,96,2,4414.89999999851,291791.6000000015,8003,WL,C,8.0
2,25.85800004005432,learn,34141.99995994568,Fri Jan 31 2025 10:45:28 GMT-0600 (Central Standard Time),296389.90000000596,A,boo,I,o,164,2,4598.30000000447,291791.6000000015,8003,WL,C,8.0
2,26.008000135421753,learn,33991.99986457825,Fri Jan 31 2025 10:45:28 GMT-0600 (Central Standard Time),296539.700000003,A,book,I,k,140,2,4748.10000000149,291791.6000000015,8003,WL,C,8.0
2,26.27400016784668,learn,33725.99983215332,Fri Jan 31 2025 10:45:28 GMT-0600 (Central Standard Time),296806.40000000596,A,bookenter,I,enter,254,2,5014.80000000447,291791.6000000015,8003,WL,C,8.0
2,42.485000133514404,learn,17514.999866485596,Fri Jan 31 2025 10:45:28 GMT-0600 (Central Standard Time),313017.90000000596,A,d,I,d,16196,2,16211.10000000149,296806.80000000447,8003,WL,C,9.0
2,42.61900019645691,learn,17380.99980354309,Fri Jan 31 2025 10:45:28 GMT-0600 (Central Standard Time),313151.1000000015,A,do,I,o,119,2,16344.29999999702,296806.80000000447,8003,WL,C,9.0
2,42.78500008583069,learn,17214.99991416931,Fri Jan 31 2025 10:45:28 GMT-0600 (Central Standard Time),313317.700000003,A,doc,I,c,146,2,16510.89999999851,296806.80000000447,8003,WL,C,9.0
2,43.03500008583069,learn,16964.99991416931,Fri Jan 31 2025 10:45:28 GMT-0600 (Central Standard Time),313568.0,A,doct,I,t,228,2,16761.19999999553,296806.80000000447,8003,WL,C,9.0
2,43.152000188827515,learn,16847.999811172485,Fri Jan 31 2025 10:45:28 GMT-0600 (Central Standard Time),313684.40000000596,A,docto,I,o,98,2,16877.60000000149,296806.80000000447,8003,WL,C,9.0
2,43.58500003814697,learn,16414.999961853027,Fri Jan 31 2025 10:45:28 GMT-0600 (Central Standard Time),314117.5,A,doctor,I,r,421,2,17310.69999999553,296806.80000000447,8003,WL,C,9.0
2,44.00200009346008,learn,15997.999906539917,Fri Jan 31 2025 10:45:28 GMT-0600 (Central Standard Time),314534.1000000015,A,doctorenter,I,enter,398,2,17727.29999999702,296806.80000000447,8003,WL,C,9.0
2,44.301000118255615,learn,15698.999881744385,Fri Jan 31 2025 10:45:28 GMT-0600 (Central Standard Time),314833.90000000596,A,b,I,b,276,2,299.40000000596046,314534.5,8003,WL,C,10.0
2,44.402000188827515,learn,15597.999811172485,Fri Jan 31 2025 10:45:28 GMT-0600 (Central Standard Time),314934.30000000447,A,bo,I,o,80,2,399.80000000447035,314534.5,8003,WL,C,10.0
2,44.58500003814697,learn,15414.999961853027,Fri Jan 31 2025 10:45:28 GMT-0600 (Central Standard Time),315117.30000000447,A,bod,I,d,163,2,582.8000000044703,314534.5,8003,WL,C,10.0
2,44.818000078201294,learn,15181.999921798706,Fri Jan 31 2025 10:45:28 GMT-0600 (Central Standard Time),315350.40000000596,A,body,I,y,213,2,815.9000000059605,314534.5,8003,WL,C,10.0
2,45.068000078201294,learn,14931.999921798706,Fri Jan 31 2025 10:45:28 GMT-0600 (Central Standard Time),315600.5,A,bodyenter,I,enter,228,2,1066.0,314534.5,8003,WL,C,10.0
2,49.35000014305115,learn,10649.999856948853,Fri Jan 31 2025 10:45:28 GMT-0600 (Central Standard Time),319882.5,A,l,I,l,4266,2,4281.69999999553,315600.80000000447,8003,WL,C,11.0
2,49.450000047683716,learn,10549.999952316284,Fri Jan 31 2025 10:45:28 GMT-0600 (Central Standard Time),319982.200000003,A,le,I,e,87,2,4381.39999999851,315600.80000000447,8003,WL,C,11.0
2,49.58300018310547,learn,10416.999816894531,Fri Jan 31 2025 10:45:28 GMT-0600 (Central Standard Time),320115.6000000015,A,let,I,t,124,2,4514.79999999702,315600.80000000447,8003,WL,C,11.0
2,49.76700019836426,learn,10232.999801635742,Fri Jan 31 2025 10:45:28 GMT-0600 (Central Standard Time),320299.1000000015,A,lett,I,t,168,2,4698.29999999702,315600.80000000447,8003,WL,C,11.0
2,49.88300013542175,learn,10116.999864578247,Fri Jan 31 2025 10:45:28 GMT-0600 (Central Standard Time),320415.80000000447,A,lette,I,e,95,2,4815.0,315600.80000000447,8003,WL,C,11.0
2,50.0,learn,10000.0,Fri Jan 31 2025 10:45:28 GMT-0600 (Central Standard Time),320532.200000003,A,letter,I,r,107,2,4931.39999999851,315600.80000000447,8003,WL,C,11.0
2,50.18300008773804,learn,9816.999912261963,Fri Jan 31 2025 10:45:28 GMT-0600 (Central Standard Time),320715.40000000596,A,letterenter,I,enter,173,2,5114.60000000149,315600.80000000447,8003,WL,C,11.0
2,60.01300001144409,learn,-13.000011444091797,Fri Jan 31 2025 10:45:28 GMT-0600 (Central Standard Time),330545.80000000447,A,None,I,None,9822,2,9830.10000000149,320715.700000003,8003,WL,C,12.0
3,0.8650000095367432,learn,59134.99999046326,Fri Jan 31 2025 10:45:28 GMT-0600 (Central Standard Time),403789.5,A,s,I,s,854,2,865.0999999940395,402924.40000000596,8003,WL,C,1.0
3,1.2000000476837158,learn,58799.999952316284,Fri Jan 31 2025 10:45:28 GMT-0600 (Central Standard Time),404124.0,A,su,I,u,317,2,1199.5999999940395,402924.40000000596,8003,WL,C,1.0
3,1.433000087738037,learn,58566.99991226196,Fri Jan 31 2025 10:45:28 GMT-0600 (Central Standard Time),404357.200000003,A,sug,I,g,222,2,1432.7999999970198,402924.40000000596,8003,WL,C,1.0
3,1.6150000095367432,learn,58384.99999046326,Fri Jan 31 2025 10:45:28 GMT-0600 (Central Standard Time),404539.200000003,A,suga,I,a,166,2,1614.7999999970198,402924.40000000596,8003,WL,C,1.0
3,1.815000057220459,learn,58184.99994277954,Fri Jan 31 2025 10:45:28 GMT-0600 (Central Standard Time),404739.200000003,A,sugar,I,r,190,2,1814.7999999970198,402924.40000000596,8003,WL,C,1.0
3,1.998000144958496,learn,58001.999855041504,Fri Jan 31 2025 10:45:28 GMT-0600 (Central Standard Time),404922.5,A,sugarenter,I,enter,167,2,1998.0999999940395,402924.40000000596,8003,WL,C,1.0
3,2.4650001525878906,learn,57534.99984741211,Fri Jan 31 2025 10:45:28 GMT-0600 (Central Standard Time),405389.0,A,h,I,h,448,2,466.19999999552965,404922.80000000447,8003,WL,C,2.0
3,2.5820000171661377,learn,57417.99998283386,Fri Jan 31 2025 10:45:28 GMT-0600 (Central Standard Time),405505.6000000015,A,ho,I,o,94,2,582.7999999970198,404922.80000000447,8003,WL,C,2.0
3,2.748000144958496,learn,57251.999855041504,Fri Jan 31 2025 10:45:28 GMT-0600 (Central Standard Time),405672.40000000596,A,hom,I,m,152,2,749.6000000014901,404922.80000000447,8003,WL,C,2.0
3,2.881999969482422,learn,57118.00003051758,Fri Jan 31 2025 10:45:28 GMT-0600 (Central Standard Time),405805.6000000015,A,home,I,e,114,2,882.7999999970198,404922.80000000447,8003,WL,C,2.0
3,3.065000057220459,learn,56934.99994277954,Fri Jan 31 2025 10:45:28 GMT-0600 (Central Standard Time),405988.80000000447,A,homeenter,I,enter,173,2,1066.0,404922.80000000447,8003,WL,C,2.0
3,3.3480000495910645,learn,56651.999950408936,Fri Jan 31 2025 10:45:28 GMT-0600 (Central Standard Time),406272.0,A,c,I,c,261,2,282.79999999701977,405989.200000003,8003,WL,C,3.0
3,3.499000072479248,learn,56500.99992752075,Fri Jan 31 2025 10:45:28 GMT-0600 (Central Standard Time),406422.80000000447,A,ca,I,a,137,2,433.6000000014901,405989.200000003,8003,WL,C,3.0
3,3.698000192642212,learn,56301.99980735779,Fri Jan 31 2025 10:45:28 GMT-0600 (Central Standard Time),406622.1000000015,A,cam,I,m,179,2,632.8999999985099,405989.200000003,8003,WL,C,3.0
3,3.9150002002716064,learn,56084.99979972839,Fri Jan 31 2025 10:45:28 GMT-0600 (Central Standard Time),406838.6000000015,A,camp,I,p,195,2,849.3999999985099,405989.200000003,8003,WL,C,3.0
3,4.514000177383423,learn,55485.99982261658,Fri Jan 31 2025 10:45:28 GMT-0600 (Central Standard Time),407438.40000000596,A,campenter,I,enter,579,2,1449.2000000029802,405989.200000003,8003,WL,C,3.0
3,4.898000001907349,learn,55101.99999809265,Fri Jan 31 2025 10:45:28 GMT-0600 (Central Standard Time),407821.6000000015,A,f,I,f,372,2,382.8999999985099,407438.700000003,8003,WL,C,4.0
3,5.147000074386597,learn,54852.9999256134,Fri Jan 31 2025 10:45:28 GMT-0600 (Central Standard Time),408071.40000000596,A,fl,I,l,237,2,632.7000000029802,407438.700000003,8003,WL,C,4.0
3,5.232000112533569,learn,54767.99988746643,Fri Jan 31 2025 10:45:28 GMT-0600 (Central Standard Time),408155.90000000596,A,fla,I,a,74,2,717.2000000029802,407438.700000003,8003,WL,C,4.0
3,5.447000026702881,learn,54552.99997329712,Fri Jan 31 2025 10:45:28 GMT-0600 (Central Standard Time),408371.40000000596,A,flag,I,g,206,2,932.7000000029802,407438.700000003,8003,WL,C,4.0
3,5.63100004196167,learn,54368.99995803833,Fri Jan 31 2025 10:45:28 GMT-0600 (Central Standard Time),408554.6000000015,A,flagenter,I,enter,175,2,1115.8999999985099,407438.700000003,8003,WL,C,4.0
3,6.014000177383423,learn,53985.99982261658,Fri Jan 31 2025 10:45:28 GMT-0600 (Central Standard Time),408937.90000000596,A,l,I,l,368,2,382.90000000596046,408555.0,8003,WL,C,5.0
3,6.0970001220703125,learn,53902.99987792969,Fri Jan 31 2025 10:45:28 GMT-0600 (Central Standard Time),409021.200000003,A,le,I,e,64,2,466.20000000298023,408555.0,8003,WL,C,5.0
3,6.314000129699707,learn,53685.99987030029,Fri Jan 31 2025 10:45:28 GMT-0600 (Central Standard Time),409237.700000003,A,let,I,t,204,2,682.7000000029802,408555.0,8003,WL,C,5.0
3,6.46399998664856,learn,53536.00001335144,Fri Jan 31 2025 10:45:28 GMT-0600 (Central Standard Time),409387.90000000596,A,lett,I,t,132,2,832.9000000059605,408555.0,8003,WL,C,5.0
3,6.614000082015991,learn,53385.99991798401,Fri Jan 31 2025 10:45:28 GMT-0600 (Central Standard Time),409537.6000000015,A,lette,I,e,133,2,982.6000000014901,408555.0,8003,WL,C,5.0
3,6.730000019073486,learn,53269.999980926514,Fri Jan 31 2025 10:45:28 GMT-0600 (Central Standard Time),409654.40000000596,A,letter,I,r,104,2,1099.4000000059605,408555.0,8003,WL,C,5.0
3,6.96399998664856,learn,53036.00001335144,Fri Jan 31 2025 10:45:28 GMT-0600 (Central Standard Time),409887.700000003,A,letterenter,I,enter,220,2,1332.7000000029802,408555.0,8003,WL,C,5.0
3,7.297000169754028,learn,52702.99983024597,Fri Jan 31 2025 10:45:28 GMT-0600 (Central Standard Time),410220.700000003,A,c,I,c,323,2,332.6000000014901,409888.1000000015,8003,WL,C,6.0
3,7.430000066757202,learn,52569.9999332428,Fri Jan 31 2025 10:45:28 GMT-0600 (Central Standard Time),410354.1000000015,A,ca,I,a,117,2,466.0,409888.1000000015,8003,WL,C,6.0
3,7.5970001220703125,learn,52402.99987792969,Fri Jan 31 2025 10:45:28 GMT-0600 (Central Standard Time),410520.700000003,A,cat,I,t,143,2,632.6000000014901,409888.1000000015,8003,WL,C,6.0
3,7.746999979019165,learn,52253.000020980835,Fri Jan 31 2025 10:45:28 GMT-0600 (Central Standard Time),410670.6000000015,A,catt,I,t,129,2,782.5,409888.1000000015,8003,WL,C,6.0
3,7.913000106811523,learn,52086.99989318848,Fri Jan 31 2025 10:45:28 GMT-0600 (Central Standard Time),410837.30000000447,A,cattl,I,l,155,2,949.2000000029802,409888.1000000015,8003,WL,C,6.0
3,7.996000051498413,learn,52003.99994850159,Fri Jan 31 2025 10:45:28 GMT-0600 (Central Standard Time),410920.40000000596,A,cattle,I,e,68,2,1032.3000000044703,409888.1000000015,8003,WL,C,6.0
3,8.19700002670288,learn,51802.99997329712,Fri Jan 31 2025 10:45:28 GMT-0600 (Central Standard Time),411120.5,A,cattleenter,I,enter,178,2,1232.3999999985099,409888.1000000015,8003,WL,C,6.0
3,8.830000162124634,learn,51169.999837875366,Fri Jan 31 2025 10:45:28 GMT-0600 (Central Standard Time),411753.5,A,w,I,w,625,2,632.5999999940395,411120.90000000596,8003,WL,C,7.0
3,9.02999997138977,learn,50970.00002861023,Fri Jan 31 2025 10:45:28 GMT-0600 (Central Standard Time),411953.6000000015,A,wh,I,h,177,2,832.6999999955297,411120.90000000596,8003,WL,C,7.0
3,9.063000202178955,learn,50936.999797821045,Fri Jan 31 2025 10:45:28 GMT-0600 (Central Standard Time),411986.90000000596,A,whe,I,e,25,2,866.0,411120.90000000596,8003,WL,C,7.0
3,9.21399998664856,learn,50786.00001335144,Fri Jan 31 2025 10:45:28 GMT-0600 (Central Standard Time),412137.700000003,A,whea,I,a,134,2,1016.7999999970198,411120.90000000596,8003,WL,C,7.0
3,9.36300015449524,learn,50636.99984550476,Fri Jan 31 2025 10:45:28 GMT-0600 (Central Standard Time),412286.90000000596,A,wheat,I,t,128,2,1166.0,411120.90000000596,8003,WL,C,7.0
3,9.513000011444092,learn,50486.99998855591,Fri Jan 31 2025 10:45:28 GMT-0600 (Central Standard Time),412437.1000000015,A,wheatenter,I,enter,139,2,1316.1999999955297,411120.90000000596,8003,WL,C,7.0
3,9.828999996185303,learn,50171.0000038147,Fri Jan 31 2025 10:45:28 GMT-0600 (Central Standard Time),412753.30000000447,A,c,I,c,301,2,315.80000000447035,412437.5,8003,WL,C,8.0
3,9.92900013923645,learn,50070.99986076355,Fri Jan 31 2025 10:45:28 GMT-0600 (Central Standard Time),412853.40000000596,A,co,I,o,89,2,415.90000000596046,412437.5,8003,WL,C,8.0
3,10.078999996185303,learn,49921.0000038147,Fri Jan 31 2025 10:45:28 GMT-0600 (Central Standard Time),413003.40000000596,A,cor,I,r,141,2,565.9000000059605,412437.5,8003,WL,C,8.0
3,10.212000131607056,learn,49787.999868392944,Fri Jan 31 2025 10:45:28 GMT-0600 (Central Standard Time),413136.5,A,corn,I,n,120,2,699.0,412437.5,8003,WL,C,8.0
3,10.42900013923645,learn,49570.99986076355,Fri Jan 31 2025 10:45:28 GMT-0600 (Central Standard Time),413353.1000000015,A,cornenter,I,enter,203,2,915.6000000014901,412437.5,8003,WL,C,8.0
3,13.111999988555908,learn,46888.00001144409,Fri Jan 31 2025 10:45:28 GMT-0600 (Central Standard Time),416035.6000000015,A,t,I,t,2673,2,2682.1999999955297,413353.40000000596,8003,WL,C,9.0
3,13.246000051498413,learn,46753.99994850159,Fri Jan 31 2025 10:45:28 GMT-0600 (Central Standard Time),416170.0,A,to,I,o,118,2,2816.5999999940395,413353.40000000596,8003,WL,C,9.0
3,13.32800006866455,learn,46671.99993133545,Fri Jan 31 2025 10:45:28 GMT-0600 (Central Standard Time),416252.40000000596,A,tow,I,w,64,2,2899.0,413353.40000000596,8003,WL,C,9.0
3,13.495000123977661,learn,46504.99987602234,Fri Jan 31 2025 10:45:28 GMT-0600 (Central Standard Time),416418.700000003,A,towe,I,e,159,2,3065.2999999970198,413353.40000000596,8003,WL,C,9.0
3,13.59500002861023,learn,46404.99997138977,Fri Jan 31 2025 10:45:28 GMT-0600 (Central Standard Time),416518.700000003,A,tower,I,r,87,2,3165.2999999970198,413353.40000000596,8003,WL,C,9.0
3,13.82800006866455,learn,46171.99993133545,Fri Jan 31 2025 10:45:28 GMT-0600 (Central Standard Time),416752.0,A,towerenter,I,enter,220,2,3398.5999999940395,413353.40000000596,8003,WL,C,9.0
3,14.34500002861023,learn,45654.99997138977,Fri Jan 31 2025 10:45:28 GMT-0600 (Central Standard Time),417268.700000003,A,q,I,q,498,2,516.3999999985099,416752.30000000447,8003,WL,C,10.0
3,14.57800006866455,learn,45421.99993133545,Fri Jan 31 2025 10:45:28 GMT-0600 (Central Standard Time),417501.80000000447,A,qu,I,u,213,2,749.5,416752.30000000447,8003,WL,C,10.0
3,14.794000148773193,learn,45205.99985122681,Fri Jan 31 2025 10:45:28 GMT-0600 (Central Standard Time),417718.5,A,que,I,e,196,2,966.1999999955297,416752.30000000447,8003,WL,C,10.0
3,14.944000005722046,learn,45055.999994277954,Fri Jan 31 2025 10:45:28 GMT-0600 (Central Standard Time),417868.40000000596,A,quee,I,e,139,2,1116.1000000014901,416752.30000000447,8003,WL,C,10.0
3,15.144000053405762,learn,44855.99994659424,Fri Jan 31 2025 10:45:28 GMT-0600 (Central Standard Time),418068.30000000447,A,queen,I,n,191,2,1316.0,416752.30000000447,8003,WL,C,10.0
3,15.360000133514404,learn,44639.999866485596,Fri Jan 31 2025 10:45:28 GMT-0600 (Central Standard Time),418284.80000000447,A,queenenter,I,enter,205,2,1532.5,416752.30000000447,8003,WL,C,10.0
3,16.06000018119812,learn,43939.99981880188,Fri Jan 31 2025 10:45:28 GMT-0600 (Central Standard Time),418984.80000000447,A,b,I,b,685,2,699.7000000029802,418285.1000000015,8003,WL,C,11.0
3,16.212000131607056,learn,43787.999868392944,Fri Jan 31 2025 10:45:28 GMT-0600 (Central Standard Time),419135.90000000596,A,bo,I,o,137,2,850.8000000044703,418285.1000000015,8003,WL,C,11.0
3,16.361000061035156,learn,43638.999938964844,Fri Jan 31 2025 10:45:28 GMT-0600 (Central Standard Time),419285.700000003,A,bod,I,d,139,2,1000.6000000014901,418285.1000000015,8003,WL,C,11.0
3,16.511000156402588,learn,43488.99984359741,Fri Jan 31 2025 10:45:28 GMT-0600 (Central Standard Time),419435.700000003,A,body,I,y,141,2,1150.6000000014901,418285.1000000015,8003,WL,C,11.0
3,16.743000030517578,learn,43256.99996948242,Fri Jan 31 2025 10:45:28 GMT-0600 (Central Standard Time),419667.80000000447,A,bodyenter,I,enter,222,2,1382.7000000029802,418285.1000000015,8003,WL,C,11.0
3,17.377000093460083,learn,42622.99990653992,Fri Jan 31 2025 10:45:28 GMT-0600 (Central Standard Time),420300.90000000596,A,b,I,b,624,2,632.8000000044703,419668.1000000015,8003,WL,C,12.0
3,17.460000038146973,learn,42539.99996185303,Fri Jan 31 2025 10:45:28 GMT-0600 (Central Standard Time),420384.30000000447,A,bo,I,o,61,2,716.2000000029802,419668.1000000015,8003,WL,C,12.0
3,17.66000008583069,learn,42339.99991416931,Fri Jan 31 2025 10:45:28 GMT-0600 (Central Standard Time),420584.40000000596,A,boy,I,y,186,2,916.3000000044703,419668.1000000015,8003,WL,C,12.0
3,17.860000133514404,learn,42139.999866485596,Fri Jan 31 2025 10:45:28 GMT-0600 (Central Standard Time),420784.200000003,A,boyenter,I,enter,186,2,1116.1000000014901,419668.1000000015,8003,WL,C,12.0
3,18.093000173568726,learn,41906.999826431274,Fri Jan 31 2025 10:45:28 GMT-0600 (Central Standard Time),421017.1000000015,A,d,I,d,218,2,232.60000000149012,420784.5,8003,WL,C,13.0
3,18.243000030517578,learn,41756.99996948242,Fri Jan 31 2025 10:45:28 GMT-0600 (Central Standard Time),421167.30000000447,A,do,I,o,128,2,382.80000000447035,420784.5,8003,WL,C,13.0
3,18.39300012588501,learn,41606.99987411499,Fri Jan 31 2025 10:45:28 GMT-0600 (Central Standard Time),421317.40000000596,A,doc,I,c,138,2,532.9000000059605,420784.5,8003,WL,C,13.0
3,18.575999975204468,learn,41424.00002479553,Fri Jan 31 2025 10:45:28 GMT-0600 (Central Standard Time),421500.5,A,doct,I,t,173,2,716.0,420784.5,8003,WL,C,13.0
3,18.676000118255615,learn,41323.999881744385,Fri Jan 31 2025 10:45:28 GMT-0600 (Central Standard Time),421600.700000003,A,docto,I,o,87,2,816.2000000029802,420784.5,8003,WL,C,13.0
3,18.792999982833862,learn,41207.00001716614,Fri Jan 31 2025 10:45:28 GMT-0600 (Central Standard Time),421717.6000000015,A,doctor,I,r,99,2,933.1000000014901,420784.5,8003,WL,C,13.0
3,18.993000030517578,learn,41006.99996948242,Fri Jan 31 2025 10:45:28 GMT-0600 (Central Standard Time),421917.1000000015,A,doctorenter,I,enter,188,2,1132.6000000014901,420784.5,8003,WL,C,13.0
3,30.67300009727478,learn,29326.99990272522,Fri Jan 31 2025 10:45:28 GMT-0600 (Central Standard Time),433596.90000000596,A,l,I,l,11670,2,11679.40000000596,421917.5,8003,WL,C,14.0
3,30.75600004196167,learn,29243.99995803833,Fri Jan 31 2025 10:45:28 GMT-0600 (Central Standard Time),433680.30000000447,A,le,I,e,61,2,11762.80000000447,421917.5,8003,WL,C,14.0
3,30.972000122070312,learn,29027.999877929688,Fri Jan 31 2025 10:45:28 GMT-0600 (Central Standard Time),433896.700000003,A,let,I,t,202,2,11979.20000000298,421917.5,8003,WL,C,14.0
3,31.189000129699707,learn,28810.999870300293,Fri Jan 31 2025 10:45:28 GMT-0600 (Central Standard Time),434113.40000000596,A,lett,I,t,194,2,12195.90000000596,421917.5,8003,WL,C,14.0
3,31.289000034332275,learn,28710.999965667725,Fri Jan 31 2025 10:45:28 GMT-0600 (Central Standard Time),434213.30000000447,A,lette,I,e,90,2,12295.80000000447,421917.5,8003,WL,C,14.0
3,31.4060001373291,learn,28593.9998626709,Fri Jan 31 2025 10:45:28 GMT-0600 (Central Standard Time),434330.0,A,letter,I,r,100,2,12412.5,421917.5,8003,WL,C,14.0
3,31.57200002670288,learn,28427.99997329712,Fri Jan 31 2025 10:45:28 GMT-0600 (Central Standard Time),434496.700000003,A,letterenter,I,enter,153,2,12579.20000000298,421917.5,8003,WL,C,14.0
3,42.402000188827515,learn,17597.999811172485,Fri Jan 31 2025 10:45:28 GMT-0600 (Central Standard Time),445326.700000003,A,n,I,n,10810,2,10829.79999999702,434496.90000000596,8003,WL,C,15.0
3,42.53500008583069,learn,17464.99991416931,Fri Jan 31 2025 10:45:28 GMT-0600 (Central Standard Time),445459.700000003,A,na,I,a,122,2,10962.79999999702,434496.90000000596,8003,WL,C,15.0
3,42.735000133514404,learn,17264.999866485596,Fri Jan 31 2025 10:45:28 GMT-0600 (Central Standard Time),445659.6000000015,A,nai,I,i,182,2,11162.69999999553,434496.90000000596,8003,WL,C,15.0
3,42.86900019645691,learn,17130.99980354309,Fri Jan 31 2025 10:45:28 GMT-0600 (Central Standard Time),445793.0,A,nail,I,l,110,2,11296.09999999404,434496.90000000596,8003,WL,C,15.0
3,43.152000188827515,learn,16847.999811172485,Fri Jan 31 2025 10:45:28 GMT-0600 (Central Standard Time),446076.30000000447,A,nailenter,I,enter,273,2,11579.39999999851,434496.90000000596,8003,WL,C,15.0
4,1.5830001831054688,learn,58416.99981689453,Fri Jan 31 2025 10:45:28 GMT-0600 (Central Standard Time),518836.80000000447,A,s,I,s,1564,2,1582.6000000014901,517254.200000003,8003,WL,C,1.0
4,1.7000000476837158,learn,58299.999952316284,Fri Jan 31 2025 10:45:28 GMT-0600 (Central Standard Time),518953.6000000015,A,sh,I,h,93,2,1699.3999999985099,517254.200000003,8003,WL,C,1.0
4,1.8000001907348633,learn,58199.99980926514,Fri Jan 31 2025 10:45:28 GMT-0600 (Central Standard Time),519053.700000003,A,sho,I,o,88,2,1799.5,517254.200000003,8003,WL,C,1.0
4,1.883000135421753,learn,58116.99986457825,Fri Jan 31 2025 10:45:28 GMT-0600 (Central Standard Time),519136.700000003,A,shor,I,r,70,2,1882.5,517254.200000003,8003,WL,C,1.0
4,1.933000087738037,learn,58066.99991226196,Fri Jan 31 2025 10:45:28 GMT-0600 (Central Standard Time),519186.30000000447,A,shore,I,e,42,2,1932.1000000014901,517254.200000003,8003,WL,C,1.0
4,2.2330000400543213,learn,57766.99995994568,Fri Jan 31 2025 10:45:28 GMT-0600 (Central Standard Time),519486.6000000015,A,shoreenter,I,enter,289,2,2232.39999999851,517254.200000003,8003,WL,C,1.0
4,2.6600000858306885,learn,57339.99991416931,Fri Jan 31 2025 10:45:28 GMT-0600 (Central Standard Time),519914.0,A,c,I,c,421,2,427.0,519487.0,8003,WL,C,2.0
4,2.808000087738037,learn,57191.99991226196,Fri Jan 31 2025 10:45:28 GMT-0600 (Central Standard Time),520061.200000003,A,ca,I,a,138,2,574.2000000029802,519487.0,8003,WL,C,2.0
4,2.9179999828338623,learn,57082.00001716614,Fri Jan 31 2025 10:45:28 GMT-0600 (Central Standard Time),520171.6000000015,A,cam,I,m,86,2,684.6000000014901,519487.0,8003,WL,C,2.0
4,4.216000080108643,learn,55783.99991989136,Fri Jan 31 2025 10:45:28 GMT-0600 (Central Standard Time),521469.30000000447,A,camp,I,p,1285,2,1982.3000000044703,519487.0,8003,WL,C,2.0
4,4.565999984741211,learn,55434.00001525879,Fri Jan 31 2025 10:45:28 GMT-0600 (Central Standard Time),521819.30000000447,A,campenter,I,enter,340,2,2332.3000000044703,519487.0,8003,WL,C,2.0
4,5.049000024795532,learn,54950.99997520447,Fri Jan 31 2025 10:45:28 GMT-0600 (Central Standard Time),522302.40000000596,A,f,I,f,463,2,482.80000000447035,521819.6000000015,8003,WL,C,3.0
4,5.1650002002716064,learn,54834.99979972839,Fri Jan 31 2025 10:45:28 GMT-0600 (Central Standard Time),522418.90000000596,A,fl,I,l,100,2,599.3000000044703,521819.6000000015,8003,WL,C,3.0
4,5.299000024795532,learn,54700.99997520447,Fri Jan 31 2025 10:45:28 GMT-0600 (Central Standard Time),522552.40000000596,A,fla,I,a,120,2,732.8000000044703,521819.6000000015,8003,WL,C,3.0
4,5.449000120162964,learn,54550.999879837036,Fri Jan 31 2025 10:45:28 GMT-0600 (Central Standard Time),522702.30000000447,A,flag,I,g,139,2,882.7000000029802,521819.6000000015,8003,WL,C,3.0
4,5.6650002002716064,learn,54334.99979972839,Fri Jan 31 2025 10:45:28 GMT-0600 (Central Standard Time),522918.80000000447,A,flagenter,I,enter,204,2,1099.2000000029802,521819.6000000015,8003,WL,C,3.0
4,7.38100004196167,learn,52618.99995803833,Fri Jan 31 2025 10:45:28 GMT-0600 (Central Standard Time),524634.900000006,A,l,I,l,1700,2,1715.7000000029802,522919.200000003,8003,WL,C,4.0
4,7.498000144958496,learn,52501.999855041504,Fri Jan 31 2025 10:45:28 GMT-0600 (Central Standard Time),524751.6000000015,A,le,I,e,95,2,1832.3999999985099,522919.200000003,8003,WL,C,4.0
4,7.680999994277954,learn,52319.000005722046,Fri Jan 31 2025 10:45:28 GMT-0600 (Central Standard Time),524934.900000006,A,let,I,t,163,2,2015.7000000029802,522919.200000003,8003,WL,C,4.0
4,7.799000024795532,learn,52200.99997520447,Fri Jan 31 2025 10:45:28 GMT-0600 (Central Standard Time),525052.8000000045,A,lett,I,t,100,2,2133.60000000149,522919.200000003,8003,WL,C,4.0
4,7.9150002002716064,learn,52084.99979972839,Fri Jan 31 2025 10:45:28 GMT-0600 (Central Standard Time),525168.3000000045,A,lette,I,e,101,2,2249.10000000149,522919.200000003,8003,WL,C,4.0
4,8.015000104904175,learn,51984.999895095825,Fri Jan 31 2025 10:45:28 GMT-0600 (Central Standard Time),525268.1000000015,A,letter,I,r,90,2,2348.89999999851,522919.200000003,8003,WL,C,4.0
4,8.23200011253357,learn,51767.99988746643,Fri Jan 31 2025 10:45:28 GMT-0600 (Central Standard Time),525485.8000000045,A,letterenter,I,enter,198,2,2566.60000000149,522919.200000003,8003,WL,C,4.0
4,8.564000129699707,learn,51435.99987030029,Fri Jan 31 2025 10:45:28 GMT-0600 (Central Standard Time),525818.0,A,b,I,b,325,2,331.8999999985099,525486.1000000015,8003,WL,C,5.0
4,8.914000034332275,learn,51085.999965667725,Fri Jan 31 2025 10:45:28 GMT-0600 (Central Standard Time),526167.8000000045,A,bo,I,o,328,2,681.7000000029802,525486.1000000015,8003,WL,C,5.0
4,9.496999979019165,learn,50503.000020980835,Fri Jan 31 2025 10:45:28 GMT-0600 (Central Standard Time),526750.900000006,A,bod,I,d,563,2,1264.8000000044703,525486.1000000015,8003,WL,C,5.0
4,9.764000177383423,learn,50235.99982261658,Fri Jan 31 2025 10:45:28 GMT-0600 (Central Standard Time),527017.700000003,A,body,I,y,252,2,1531.6000000014901,525486.1000000015,8003,WL,C,5.0
4,10.047000169754028,learn,49952.99983024597,Fri Jan 31 2025 10:45:28 GMT-0600 (Central Standard Time),527300.8000000045,A,bodyenter,I,enter,266,2,1814.7000000029802,525486.1000000015,8003,WL,C,5.0
4,10.730000019073486,learn,49269.999980926514,Fri Jan 31 2025 10:45:28 GMT-0600 (Central Standard Time),527983.8000000045,A,b,I,b,669,2,682.7000000029802,527301.1000000015,8003,WL,C,6.0
4,10.847000122070312,learn,49152.99987792969,Fri Jan 31 2025 10:45:28 GMT-0600 (Central Standard Time),528100.5,A,bo,I,o,98,2,799.3999999985099,527301.1000000015,8003,WL,C,6.0
4,11.014000177383423,learn,48985.99982261658,Fri Jan 31 2025 10:45:28 GMT-0600 (Central Standard Time),528267.200000003,A,boy,I,y,158,2,966.1000000014901,527301.1000000015,8003,WL,C,6.0
4,11.19700002670288,learn,48802.99997329712,Fri Jan 31 2025 10:45:28 GMT-0600 (Central Standard Time),528450.5,A,boyenter,I,enter,168,2,1149.3999999985099,527301.1000000015,8003,WL,C,6.0
4,11.430000066757202,learn,48569.9999332428,Fri Jan 31 2025 10:45:28 GMT-0600 (Central Standard Time),528683.8000000045,A,d,I,d,224,2,233.0,528450.8000000045,8003,WL,C,7.0
4,11.547000169754028,learn,48452.99983024597,Fri Jan 31 2025 10:45:28 GMT-0600 (Central Standard Time),528800.6000000015,A,do,I,o,94,2,349.79999999701977,528450.8000000045,8003,WL,C,7.0
4,11.69700002670288,learn,48302.99997329712,Fri Jan 31 2025 10:45:28 GMT-0600 (Central Standard Time),528950.3000000045,A,doc,I,c,137,2,499.5,528450.8000000045,8003,WL,C,7.0
4,11.94700002670288,learn,48052.99997329712,Fri Jan 31 2025 10:45:28 GMT-0600 (Central Standard Time),529200.200000003,A,doct,I,t,228,2,749.3999999985099,528450.8000000045,8003,WL,C,7.0
4,12.063000202178955,learn,47936.999797821045,Fri Jan 31 2025 10:45:28 GMT-0600 (Central Standard Time),529317.1000000015,A,docto,I,o,105,2,866.2999999970198,528450.8000000045,8003,WL,C,7.0
4,12.196000099182129,learn,47803.99990081787,Fri Jan 31 2025 10:45:28 GMT-0600 (Central Standard Time),529450.1000000015,A,doctor,I,r,110,2,999.2999999970198,528450.8000000045,8003,WL,C,7.0
4,12.413000106811523,learn,47586.99989318848,Fri Jan 31 2025 10:45:28 GMT-0600 (Central Standard Time),529666.6000000015,A,doctorenter,I,enter,208,2,1215.7999999970198,528450.8000000045,8003,WL,C,7.0
4,14.912000179290771,learn,45087.99982070923,Fri Jan 31 2025 10:45:28 GMT-0600 (Central Standard Time),532165.900000006,A,c,I,c,2489,2,2499.0,529666.900000006,8003,WL,C,8.0
4,15.01200008392334,learn,44987.99991607666,Fri Jan 31 2025 10:45:28 GMT-0600 (Central Standard Time),532265.8000000045,A,ca,I,a,93,2,2598.89999999851,529666.900000006,8003,WL,C,8.0
4,15.17900013923645,learn,44820.99986076355,Fri Jan 31 2025 10:45:28 GMT-0600 (Central Standard Time),532432.700000003,A,cat,I,t,153,2,2765.7999999970198,529666.900000006,8003,WL,C,8.0
4,15.34600019454956,learn,44653.99980545044,Fri Jan 31 2025 10:45:28 GMT-0600 (Central Standard Time),532599.200000003,A,catt,I,t,145,2,2932.2999999970198,529666.900000006,8003,WL,C,8.0
4,15.51200008392334,learn,44487.99991607666,Fri Jan 31 2025 10:45:28 GMT-0600 (Central Standard Time),532765.8000000045,A,cattl,I,l,146,2,3098.89999999851,529666.900000006,8003,WL,C,8.0
4,15.611999988555908,learn,44388.00001144409,Fri Jan 31 2025 10:45:28 GMT-0600 (Central Standard Time),532865.700000003,A,cattle,I,e,85,2,3198.7999999970198,529666.900000006,8003,WL,C,8.0
4,15.84500002861023,learn,44154.99997138977,Fri Jan 31 2025 10:45:28 GMT-0600 (Central Standard Time),533098.8000000045,A,cattleenter,I,enter,224,2,3431.89999999851,529666.900000006,8003,WL,C,8.0
4,16.312000036239624,learn,43687.999963760376,Fri Jan 31 2025 10:45:28 GMT-0600 (Central Standard Time),533565.5,A,w,I,w,456,2,466.5,533099.0,8003,WL,C,9.0
4,16.462000131607056,learn,43537.999868392944,Fri Jan 31 2025 10:45:28 GMT-0600 (Central Standard Time),533715.5,A,wh,I,h,140,2,616.5,533099.0,8003,WL,C,9.0
4,16.562000036239624,learn,43437.999963760376,Fri Jan 31 2025 10:45:28 GMT-0600 (Central Standard Time),533815.5,A,whe,I,e,87,2,716.5,533099.0,8003,WL,C,9.0
4,16.712000131607056,learn,43287.999868392944,Fri Jan 31 2025 10:45:28 GMT-0600 (Central Standard Time),533965.5,A,whea,I,a,138,2,866.5,533099.0,8003,WL,C,9.0
4,16.861999988555908,learn,43138.00001144409,Fri Jan 31 2025 10:45:28 GMT-0600 (Central Standard Time),534115.400000006,A,wheat,I,t,132,2,1016.4000000059605,533099.0,8003,WL,C,9.0
4,17.462000131607056,learn,42537.999868392944,Fri Jan 31 2025 10:45:28 GMT-0600 (Central Standard Time),534715.200000003,A,wheatenter,I,enter,582,2,1616.2000000029802,533099.0,8003,WL,C,9.0
4,17.894999980926514,learn,42105.000019073486,Fri Jan 31 2025 10:45:28 GMT-0600 (Central Standard Time),535148.400000006,A,c,I,c,423,2,432.90000000596046,534715.5,8003,WL,C,10.0
4,17.99500012397766,learn,42004.99987602234,Fri Jan 31 2025 10:45:28 GMT-0600 (Central Standard Time),535248.400000006,A,co,I,o,87,2,532.9000000059605,534715.5,8003,WL,C,10.0
4,18.111999988555908,learn,41888.00001144409,Fri Jan 31 2025 10:45:28 GMT-0600 (Central Standard Time),535365.1000000015,A,cor,I,r,106,2,649.6000000014901,534715.5,8003,WL,C,10.0
4,18.261000156402588,learn,41738.99984359741,Fri Jan 31 2025 10:45:28 GMT-0600 (Central Standard Time),535514.8000000045,A,corn,I,n,133,2,799.3000000044703,534715.5,8003,WL,C,10.0
4,18.511000156402588,learn,41488.99984359741,Fri Jan 31 2025 10:45:28 GMT-0600 (Central Standard Time),535764.700000003,A,cornenter,I,enter,231,2,1049.2000000029802,534715.5,8003,WL,C,10.0
4,19.261000156402588,learn,40738.99984359741,Fri Jan 31 2025 10:45:28 GMT-0600 (Central Standard Time),536514.8000000045,A,n,I,n,733,2,749.8000000044703,535765.0,8003,WL,C,11.0
4,19.344000101089478,learn,40655.99989891052,Fri Jan 31 2025 10:45:28 GMT-0600 (Central Standard Time),536597.8000000045,A,na,I,a,62,2,832.8000000044703,535765.0,8003,WL,C,11.0
4,19.511000156402588,learn,40488.99984359741,Fri Jan 31 2025 10:45:28 GMT-0600 (Central Standard Time),536764.8000000045,A,nai,I,i,149,2,999.8000000044703,535765.0,8003,WL,C,11.0
4,19.64400005340576,learn,40355.99994659424,Fri Jan 31 2025 10:45:28 GMT-0600 (Central Standard Time),536897.700000003,A,nail,I,l,118,2,1132.7000000029802,535765.0,8003,WL,C,11.0
4,20.044000148773193,learn,39955.99985122681,Fri Jan 31 2025 10:45:28 GMT-0600 (Central Standard Time),537297.6000000015,A,nailenter,I,enter,377,2,1532.6000000014901,535765.0,8003,WL,C,11.0
4,20.72699999809265,learn,39273.00000190735,Fri Jan 31 2025 10:45:28 GMT-0600 (Central Standard Time),537980.700000003,A,h,I,h,665,2,682.7999999970198,537297.900000006,8003,WL,C,12.0
4,20.8270001411438,learn,39172.9998588562,Fri Jan 31 2025 10:45:28 GMT-0600 (Central Standard Time),538080.700000003,A,ho,I,o,77,2,782.7999999970198,537297.900000006,8003,WL,C,12.0
4,21.044000148773193,learn,38955.99985122681,Fri Jan 31 2025 10:45:28 GMT-0600 (Central Standard Time),538297.5,A,hom,I,m,202,2,999.5999999940395,537297.900000006,8003,WL,C,12.0
4,21.177000045776367,learn,38822.99995422363,Fri Jan 31 2025 10:45:28 GMT-0600 (Central Standard Time),538430.5,A,home,I,e,121,2,1132.5999999940395,537297.900000006,8003,WL,C,12.0
4,21.377000093460083,learn,38622.99990653992,Fri Jan 31 2025 10:45:28 GMT-0600 (Central Standard Time),538630.6000000015,A,homeenter,I,enter,187,2,1332.6999999955297,537297.900000006,8003,WL,C,12.0
4,22.22699999809265,learn,37773.00000190735,Fri Jan 31 2025 10:45:28 GMT-0600 (Central Standard Time),539480.400000006,A,l,I,l,836,2,849.5,538630.900000006,8003,WL,C,13.0
4,22.292999982833862,learn,37707.00001716614,Fri Jan 31 2025 10:45:28 GMT-0600 (Central Standard Time),539546.900000006,A,le,I,e,57,2,916.0,538630.900000006,8003,WL,C,13.0
4,22.542999982833862,learn,37457.00001716614,Fri Jan 31 2025 10:45:28 GMT-0600 (Central Standard Time),539796.8000000045,A,let,I,t,240,2,1165.8999999985099,538630.900000006,8003,WL,C,13.0
4,22.64300012588501,learn,37356.99987411499,Fri Jan 31 2025 10:45:28 GMT-0600 (Central Standard Time),539897.1000000015,A,lete,I,e,86,2,1266.1999999955297,538630.900000006,8003,WL,C,13.0
4,22.759999990463257,learn,37240.00000953674,Fri Jan 31 2025 10:45:28 GMT-0600 (Central Standard Time),540013.200000003,A,leter,I,r,105,2,1382.2999999970198,538630.900000006,8003,WL,C,13.0
4,23.825999975204468,learn,36174.00002479553,Fri Jan 31 2025 10:45:28 GMT-0600 (Central Standard Time),541080.1000000015,A,lete,I,backspace,1054,2,2449.1999999955297,538630.900000006,8003,WL,C,13.0
4,24.026000022888184,learn,35973.99997711182,Fri Jan 31 2025 10:45:28 GMT-0600 (Central Standard Time),541279.8000000045,A,let,I,backspace,186,2,2648.89999999851,538630.900000006,8003,WL,C,13.0
4,24.20900011062622,learn,35790.99988937378,Fri Jan 31 2025 10:45:28 GMT-0600 (Central Standard Time),541463.0,A,le,I,backspace,169,2,2832.0999999940395,538630.900000006,8003,WL,C,13.0
4,24.55900001525879,learn,35440.99998474121,Fri Jan 31 2025 10:45:28 GMT-0600 (Central Standard Time),541812.900000006,A,l,I,backspace,331,2,3182.0,538630.900000006,8003,WL,C,13.0
4,24.759000062942505,learn,35240.999937057495,Fri Jan 31 2025 10:45:28 GMT-0600 (Central Standard Time),542012.900000006,A,,I,backspace,182,2,3382.0,538630.900000006,8003,WL,C,13.0
4,25.54200005531311,learn,34457.99994468689,Fri Jan 31 2025 10:45:28 GMT-0600 (Central Standard Time),542796.0,A,t,I,t,765,2,4165.0999999940395,538630.900000006,8003,WL,C,13.0
4,25.659000158309937,learn,34340.99984169006,Fri Jan 31 2025 10:45:28 GMT-0600 (Central Standard Time),542912.700000003,A,to,I,o,94,2,4281.79999999702,538630.900000006,8003,WL,C,13.0
4,25.759000062942505,learn,34240.999937057495,Fri Jan 31 2025 10:45:28 GMT-0600 (Central Standard Time),543012.700000003,A,tow,I,w,89,2,4381.79999999702,538630.900000006,8003,WL,C,13.0
4,25.859000205993652,learn,34140.99979400635,Fri Jan 31 2025 10:45:28 GMT-0600 (Central Standard Time),543112.6000000015,A,towe,I,e,77,2,4481.69999999553,538630.900000006,8003,WL,C,13.0
4,25.95900011062622,learn,34040.99988937378,Fri Jan 31 2025 10:45:28 GMT-0600 (Central Standard Time),543212.5,A,tower,I,r,82,2,4581.5999999940395,538630.900000006,8003,WL,C,13.0
4,26.203999996185303,learn,33796.0000038147,Fri Jan 31 2025 10:45:28 GMT-0600 (Central Standard Time),543458.1000000015,A,towerenter,I,enter,238,2,4827.19999999553,538630.900000006,8003,WL,C,13.0
4,27.842000007629395,learn,32157.999992370605,Fri Jan 31 2025 10:45:28 GMT-0600 (Central Standard Time),545095.200000003,A,q,I,q,1616,2,1636.7999999970198,543458.400000006,8003,WL,C,14.0
4,28.058000087738037,learn,31941.999912261963,Fri Jan 31 2025 10:45:28 GMT-0600 (Central Standard Time),545312.200000003,A,qu,I,u,202,2,1853.7999999970198,543458.400000006,8003,WL,C,14.0
4,28.157999992370605,learn,31842.000007629395,Fri Jan 31 2025 10:45:28 GMT-0600 (Central Standard Time),545411.6000000015,A,que,I,e,82,2,1953.1999999955297,543458.400000006,8003,WL,C,14.0
4,28.375,learn,31625.0,Fri Jan 31 2025 10:45:28 GMT-0600 (Central Standard Time),545628.400000006,A,quee,I,e,206,2,2170.0,543458.400000006,8003,WL,C,14.0
4,28.575000047683716,learn,31424.999952316284,Fri Jan 31 2025 10:45:28 GMT-0600 (Central Standard Time),545828.400000006,A,queen,I,n,191,2,2370.0,543458.400000006,8003,WL,C,14.0
4,28.841000080108643,learn,31158.999919891357,Fri Jan 31 2025 10:45:28 GMT-0600 (Central Standard Time),546094.900000006,A,queenenter,I,enter,246,2,2636.5,543458.400000006,8003,WL,C,14.0
4,37.13900017738342,learn,22860.999822616577,Fri Jan 31 2025 10:45:28 GMT-0600 (Central Standard Time),554392.3000000045,A,h,I,h,8276,2,8297.10000000149,546095.200000003,8003,WL,C,15.0
4,37.289000034332275,learn,22710.999965667725,Fri Jan 31 2025 10:45:28 GMT-0600 (Central Standard Time),554542.400000006,A,ho,I,o,129,2,8447.20000000298,546095.200000003,8003,WL,C,15.0
4,37.48800015449524,learn,22511.99984550476,Fri Jan 31 2025 10:45:28 GMT-0600 (Central Standard Time),554742.1000000015,A,hom,I,m,188,2,8646.89999999851,546095.200000003,8003,WL,C,15.0
4,37.58899998664856,learn,22411.00001335144,Fri Jan 31 2025 10:45:28 GMT-0600 (Central Standard Time),554842.3000000045,A,home,I,e,93,2,8747.10000000149,546095.200000003,8003,WL,C,15.0
4,37.75500011444092,learn,22244.999885559082,Fri Jan 31 2025 10:45:28 GMT-0600 (Central Standard Time),555008.700000003,A,homeenter,I,enter,144,2,8913.5,546095.200000003,8003,WL,C,15.0
5,0.9830000400543213,learn,60000.0,Fri Jan 31 2025 10:45:28 GMT-0600 (Central Standard Time),627252.900000006,A,s,I,s,974,2,983.0,626269.900000006,8003,WL,C,1.0
5,1.0829999446868896,learn,60000.0,Fri Jan 31 2025 10:45:28 GMT-0600 (Central Standard Time),627353.0,A,sh,I,h,76,2,1083.0999999940395,626269.900000006,8003,WL,C,1.0
5,1.2160000801086426,learn,60000.0,Fri Jan 31 2025 10:45:28 GMT-0600 (Central Standard Time),627486.0,A,sho,I,o,113,2,1216.0999999940395,626269.900000006,8003,WL,C,1.0
5,1.3329999446868896,learn,60000.0,Fri Jan 31 2025 10:45:28 GMT-0600 (Central Standard Time),627602.6000000015,A,shor,I,r,100,2,1332.6999999955297,626269.900000006,8003,WL,C,1.0
5,1.4490001201629639,learn,60000.0,Fri Jan 31 2025 10:45:28 GMT-0600 (Central Standard Time),627719.0,A,shore,I,e,103,2,1449.0999999940395,626269.900000006,8003,WL,C,1.0
5,1.683000087738037,learn,60000.0,Fri Jan 31 2025 10:45:28 GMT-0600 (Central Standard Time),627952.700000003,A,shoreenter,I,enter,211,2,1682.7999999970198,626269.900000006,8003,WL,C,1.0
5,2.0329999923706055,learn,60000.0,Fri Jan 31 2025 10:45:28 GMT-0600 (Central Standard Time),628302.6000000015,A,c,I,c,329,2,349.6000000014901,627953.0,8003,WL,C,2.0
5,2.2660000324249268,learn,60000.0,Fri Jan 31 2025 10:45:28 GMT-0600 (Central Standard Time),628535.6000000015,A,ca,I,a,211,2,582.6000000014901,627953.0,8003,WL,C,2.0
5,2.432000160217285,learn,60000.0,Fri Jan 31 2025 10:45:28 GMT-0600 (Central Standard Time),628702.5,A,cam,I,m,154,2,749.5,627953.0,8003,WL,C,2.0
5,2.7320001125335693,learn,60000.0,Fri Jan 31 2025 10:45:28 GMT-0600 (Central Standard Time),629002.200000003,A,camp,I,p,292,2,1049.2000000029802,627953.0,8003,WL,C,2.0
5,3.199000120162964,learn,60000.0,Fri Jan 31 2025 10:45:28 GMT-0600 (Central Standard Time),629468.6000000015,A,campenter,I,enter,456,2,1515.6000000014901,627953.0,8003,WL,C,2.0
5,3.5490000247955322,learn,60000.0,Fri Jan 31 2025 10:45:28 GMT-0600 (Central Standard Time),629818.5,A,f,I,f,341,2,349.5,629469.0,8003,WL,C,3.0
5,3.699000120162964,learn,60000.0,Fri Jan 31 2025 10:45:28 GMT-0600 (Central Standard Time),629968.6000000015,A,fl,I,l,127,2,499.6000000014901,629469.0,8003,WL,C,3.0
5,3.815000057220459,learn,60000.0,Fri Jan 31 2025 10:45:28 GMT-0600 (Central Standard Time),630085.3000000045,A,fla,I,a,105,2,616.3000000044703,629469.0,8003,WL,C,3.0
5,4.065000057220459,learn,60000.0,Fri Jan 31 2025 10:45:28 GMT-0600 (Central Standard Time),630335.3000000045,A,flag,I,g,236,2,866.3000000044703,629469.0,8003,WL,C,3.0
5,4.299000024795532,learn,60000.0,Fri Jan 31 2025 10:45:28 GMT-0600 (Central Standard Time),630568.6000000015,A,flagenter,I,enter,210,2,1099.6000000014901,629469.0,8003,WL,C,3.0
5,4.615000009536743,learn,60000.0,Fri Jan 31 2025 10:45:28 GMT-0600 (Central Standard Time),630885.0,A,l,I,l,297,2,316.09999999403954,630568.900000006,8003,WL,C,4.0
5,4.715000152587891,learn,60000.0,Fri Jan 31 2025 10:45:28 GMT-0600 (Central Standard Time),630985.0,A,le,I,e,86,2,416.09999999403954,630568.900000006,8003,WL,C,4.0
5,4.881999969482422,learn,60000.0,Fri Jan 31 2025 10:45:28 GMT-0600 (Central Standard Time),631151.700000003,A,let,I,t,154,2,582.7999999970198,630568.900000006,8003,WL,C,4.0
5,5.065000057220459,learn,60000.0,Fri Jan 31 2025 10:45:28 GMT-0600 (Central Standard Time),631334.900000006,A,lett,I,t,163,2,766.0,630568.900000006,8003,WL,C,4.0
5,5.131999969482422,learn,60000.0,Fri Jan 31 2025 10:45:28 GMT-0600 (Central Standard Time),631401.700000003,A,lette,I,e,51,2,832.7999999970198,630568.900000006,8003,WL,C,4.0
5,5.265000104904175,learn,60000.0,Fri Jan 31 2025 10:45:28 GMT-0600 (Central Standard Time),631534.8000000045,A,letter,I,r,122,2,965.8999999985099,630568.900000006,8003,WL,C,4.0
5,5.531000137329102,learn,60000.0,Fri Jan 31 2025 10:45:28 GMT-0600 (Central Standard Time),631801.400000006,A,letterenter,I,enter,252,2,1232.5,630568.900000006,8003,WL,C,4.0
5,6.148000001907349,learn,60000.0,Fri Jan 31 2025 10:45:28 GMT-0600 (Central Standard Time),632417.900000006,A,b,I,b,594,2,616.1000000014901,631801.8000000045,8003,WL,C,5.0
5,6.265000104904175,learn,60000.0,Fri Jan 31 2025 10:45:28 GMT-0600 (Central Standard Time),632534.700000003,A,bo,I,o,105,2,732.8999999985099,631801.8000000045,8003,WL,C,5.0
5,6.480999946594238,learn,60000.0,Fri Jan 31 2025 10:45:28 GMT-0600 (Central Standard Time),632751.0,A,boy,I,y,196,2,949.1999999955297,631801.8000000045,8003,WL,C,5.0
5,6.71399998664856,learn,60000.0,Fri Jan 31 2025 10:45:28 GMT-0600 (Central Standard Time),632984.400000006,A,boyenter,I,enter,219,2,1182.6000000014901,631801.8000000045,8003,WL,C,5.0
5,6.947999954223633,learn,60000.0,Fri Jan 31 2025 10:45:28 GMT-0600 (Central Standard Time),633217.6000000015,A,b,I,b,210,2,232.79999999701977,632984.8000000045,8003,WL,C,6.0
5,7.047000169754028,learn,60000.0,Fri Jan 31 2025 10:45:28 GMT-0600 (Central Standard Time),633317.400000006,A,bo,I,o,80,2,332.6000000014901,632984.8000000045,8003,WL,C,6.0
5,7.248000144958496,learn,60000.0,Fri Jan 31 2025 10:45:28 GMT-0600 (Central Standard Time),633517.700000003,A,bod,I,d,188,2,532.8999999985099,632984.8000000045,8003,WL,C,6.0
5,7.398000001907349,learn,60000.0,Fri Jan 31 2025 10:45:28 GMT-0600 (Central Standard Time),633667.6000000015,A,body,I,y,142,2,682.7999999970198,632984.8000000045,8003,WL,C,6.0
5,7.63100004196167,learn,60000.0,Fri Jan 31 2025 10:45:28 GMT-0600 (Central Standard Time),633900.700000003,A,bodyenter,I,enter,222,2,915.8999999985099,632984.8000000045,8003,WL,C,6.0
5,7.797000169754028,learn,60000.0,Fri Jan 31 2025 10:45:28 GMT-0600 (Central Standard Time),634067.3000000045,A,d,I,d,150,2,166.20000000298023,633901.1000000015,8003,WL,C,7.0
5,7.947000026702881,learn,60000.0,Fri Jan 31 2025 10:45:28 GMT-0600 (Central Standard Time),634217.3000000045,A,do,I,o,126,2,316.20000000298023,633901.1000000015,8003,WL,C,7.0
5,8.064000129699707,learn,60000.0,Fri Jan 31 2025 10:45:28 GMT-0600 (Central Standard Time),634333.700000003,A,doc,I,c,98,2,432.6000000014901,633901.1000000015,8003,WL,C,7.0
5,8.281000137329102,learn,60000.0,Fri Jan 31 2025 10:45:28 GMT-0600 (Central Standard Time),634550.700000003,A,doct,I,t,197,2,649.6000000014901,633901.1000000015,8003,WL,C,7.0
5,8.397000074386597,learn,60000.0,Fri Jan 31 2025 10:45:28 GMT-0600 (Central Standard Time),634667.3000000045,A,docto,I,o,108,2,766.2000000029802,633901.1000000015,8003,WL,C,7.0
5,8.531000137329102,learn,60000.0,Fri Jan 31 2025 10:45:28 GMT-0600 (Central Standard Time),634800.6000000015,A,doctor,I,r,112,2,899.5,633901.1000000015,8003,WL,C,7.0
5,8.746999979019165,learn,60000.0,Fri Jan 31 2025 10:45:28 GMT-0600 (Central Standard Time),635017.0,A,doctorenter,I,enter,201,2,1115.8999999985099,633901.1000000015,8003,WL,C,7.0
5,10.380000114440918,learn,60000.0,Fri Jan 31 2025 10:45:28 GMT-0600 (Central Standard Time),636650.0,A,h,I,h,1618,2,1632.6999999955297,635017.3000000045,8003,WL,C,8.0
5,10.496999979019165,learn,60000.0,Fri Jan 31 2025 10:45:28 GMT-0600 (Central Standard Time),636766.6000000015,A,ho,I,o,97,2,1749.2999999970198,635017.3000000045,8003,WL,C,8.0
5,10.69700002670288,learn,60000.0,Fri Jan 31 2025 10:45:28 GMT-0600 (Central Standard Time),636966.6000000015,A,hom,I,m,187,2,1949.2999999970198,635017.3000000045,8003,WL,C,8.0
5,10.830000162124634,learn,60000.0,Fri Jan 31 2025 10:45:28 GMT-0600 (Central Standard Time),637099.6000000015,A,home,I,e,125,2,2082.2999999970198,635017.3000000045,8003,WL,C,8.0
5,10.996999979019165,learn,60000.0,Fri Jan 31 2025 10:45:28 GMT-0600 (Central Standard Time),637266.5,A,homeenter,I,enter,152,2,2249.1999999955297,635017.3000000045,8003,WL,C,8.0
5,12.797000169754028,learn,60000.0,Fri Jan 31 2025 10:45:28 GMT-0600 (Central Standard Time),639067.0,A,c,I,c,1776,2,1800.1999999955297,637266.8000000045,8003,WL,C,9.0
5,12.913000106811523,learn,60000.0,Fri Jan 31 2025 10:45:28 GMT-0600 (Central Standard Time),639182.5,A,ca,I,a,95,2,1915.6999999955297,637266.8000000045,8003,WL,C,9.0
5,13.078999996185303,learn,60000.0,Fri Jan 31 2025 10:45:28 GMT-0600 (Central Standard Time),639349.200000003,A,cat,I,t,155,2,2082.39999999851,637266.8000000045,8003,WL,C,9.0
5,13.246000051498413,learn,60000.0,Fri Jan 31 2025 10:45:28 GMT-0600 (Central Standard Time),639515.5,A,catt,I,t,149,2,2248.6999999955297,637266.8000000045,8003,WL,C,9.0
5,13.446000099182129,learn,60000.0,Fri Jan 31 2025 10:45:28 GMT-0600 (Central Standard Time),639715.6000000015,A,cattl,I,l,191,2,2448.7999999970198,637266.8000000045,8003,WL,C,9.0
5,13.578999996185303,learn,60000.0,Fri Jan 31 2025 10:45:28 GMT-0600 (Central Standard Time),639849.0,A,cattle,I,e,120,2,2582.1999999955297,637266.8000000045,8003,WL,C,9.0
5,13.796000003814697,learn,60000.0,Fri Jan 31 2025 10:45:28 GMT-0600 (Central Standard Time),640065.8000000045,A,cattleenter,I,enter,193,2,2799.0,637266.8000000045,8003,WL,C,9.0
5,14.111999988555908,learn,60000.0,Fri Jan 31 2025 10:45:28 GMT-0600 (Central Standard Time),640382.1000000015,A,s,I,s,306,2,316.0,640066.1000000015,8003,WL,C,10.0
5,14.245000123977661,learn,60000.0,Fri Jan 31 2025 10:45:28 GMT-0600 (Central Standard Time),640515.400000006,A,su,I,u,124,2,449.30000000447035,640066.1000000015,8003,WL,C,10.0
5,14.545000076293945,learn,60000.0,Fri Jan 31 2025 10:45:28 GMT-0600 (Central Standard Time),640815.400000006,A,sug,I,g,287,2,749.3000000044703,640066.1000000015,8003,WL,C,10.0
5,14.695000171661377,learn,60000.0,Fri Jan 31 2025 10:45:28 GMT-0600 (Central Standard Time),640965.200000003,A,suga,I,a,140,2,899.1000000014901,640066.1000000015,8003,WL,C,10.0
5,14.861999988555908,learn,60000.0,Fri Jan 31 2025 10:45:28 GMT-0600 (Central Standard Time),641131.700000003,A,sugar,I,r,149,2,1065.6000000014901,640066.1000000015,8003,WL,C,10.0
5,15.111999988555908,learn,60000.0,Fri Jan 31 2025 10:45:28 GMT-0600 (Central Standard Time),641381.700000003,A,sugarenter,I,enter,239,2,1315.6000000014901,640066.1000000015,8003,WL,C,10.0
5,15.528000116348267,learn,60000.0,Fri Jan 31 2025 10:45:28 GMT-0600 (Central Standard Time),641798.3000000045,A,w,I,w,404,2,416.30000000447035,641382.0,8003,WL,C,11.0
5,15.695000171661377,learn,60000.0,Fri Jan 31 2025 10:45:28 GMT-0600 (Central Standard Time),641964.8000000045,A,wh,I,h,155,2,582.8000000044703,641382.0,8003,WL,C,11.0
5,15.778000116348267,learn,60000.0,Fri Jan 31 2025 10:45:28 GMT-0600 (Central Standard Time),642048.400000006,A,whe,I,e,70,2,666.4000000059605,641382.0,8003,WL,C,11.0
5,15.960999965667725,learn,60000.0,Fri Jan 31 2025 10:45:28 GMT-0600 (Central Standard Time),642231.5,A,whea,I,a,170,2,849.5,641382.0,8003,WL,C,11.0
5,16.128000020980835,learn,60000.0,Fri Jan 31 2025 10:45:28 GMT-0600 (Central Standard Time),642398.0,A,wheat,I,t,146,2,1016.0,641382.0,8003,WL,C,11.0
5,16.311000108718872,learn,60000.0,Fri Jan 31 2025 10:45:28 GMT-0600 (Central Standard Time),642581.400000006,A,wheatenter,I,enter,172,2,1199.4000000059605,641382.0,8003,WL,C,11.0
5,16.91100001335144,learn,60000.0,Fri Jan 31 2025 10:45:28 GMT-0600 (Central Standard Time),643181.200000003,A,c,I,c,581,2,599.5,642581.700000003,8003,WL,C,12.0
5,17.011000156402588,learn,60000.0,Fri Jan 31 2025 10:45:28 GMT-0600 (Central Standard Time),643281.0,A,co,I,o,77,2,699.2999999970198,642581.700000003,8003,WL,C,12.0
5,17.194000005722046,learn,60000.0,Fri Jan 31 2025 10:45:28 GMT-0600 (Central Standard Time),643464.5,A,cor,I,r,161,2,882.7999999970198,642581.700000003,8003,WL,C,12.0
5,17.294000148773193,learn,60000.0,Fri Jan 31 2025 10:45:28 GMT-0600 (Central Standard Time),643564.5,A,corn,I,n,90,2,982.7999999970198,642581.700000003,8003,WL,C,12.0
5,17.561000108718872,learn,60000.0,Fri Jan 31 2025 10:45:28 GMT-0600 (Central Standard Time),643831.200000003,A,cornenter,I,enter,253,2,1249.5,642581.700000003,8003,WL,C,12.0
5,19.011000156402588,learn,60000.0,Fri Jan 31 2025 10:45:28 GMT-0600 (Central Standard Time),645280.700000003,A,n,I,n,1427,2,1449.2000000029802,643831.5,8003,WL,C,13.0
5,19.111000061035156,learn,60000.0,Fri Jan 31 2025 10:45:28 GMT-0600 (Central Standard Time),645380.700000003,A,na,I,a,90,2,1549.2000000029802,643831.5,8003,WL,C,13.0
5,19.24399995803833,learn,60000.0,Fri Jan 31 2025 10:45:28 GMT-0600 (Central Standard Time),645513.900000006,A,nai,I,i,111,2,1682.4000000059605,643831.5,8003,WL,C,13.0
5,19.294000148773193,learn,60000.0,Fri Jan 31 2025 10:45:28 GMT-0600 (Central Standard Time),645563.6000000015,A,nail,I,l,41,2,1732.1000000014901,643831.5,8003,WL,C,13.0
5,19.710999965667725,learn,60000.0,Fri Jan 31 2025 10:45:28 GMT-0600 (Central Standard Time),645980.5,A,nailenter,I,enter,398,2,2149.0,643831.5,8003,WL,C,13.0
5,21.210000038146973,learn,60000.0,Fri Jan 31 2025 10:45:28 GMT-0600 (Central Standard Time),647480.0,A,t,I,t,1486,2,1499.0999999940395,645980.900000006,8003,WL,C,14.0
5,21.360000133514404,learn,60000.0,Fri Jan 31 2025 10:45:28 GMT-0600 (Central Standard Time),647629.8000000045,A,to,I,o,130,2,1648.8999999985099,645980.900000006,8003,WL,C,14.0
5,21.460000038146973,learn,60000.0,Fri Jan 31 2025 10:45:28 GMT-0600 (Central Standard Time),647729.700000003,A,tow,I,w,85,2,1748.7999999970198,645980.900000006,8003,WL,C,14.0
5,21.62600016593933,learn,60000.0,Fri Jan 31 2025 10:45:28 GMT-0600 (Central Standard Time),647896.5,A,towe,I,e,153,2,1915.5999999940395,645980.900000006,8003,WL,C,14.0
5,21.743000030517578,learn,60000.0,Fri Jan 31 2025 10:45:28 GMT-0600 (Central Standard Time),648013.1000000015,A,tower,I,r,106,2,2032.1999999955297,645980.900000006,8003,WL,C,14.0
5,22.62600016593933,learn,60000.0,Fri Jan 31 2025 10:45:28 GMT-0600 (Central Standard Time),648896.200000003,A,towe,I,backspace,861,2,2915.2999999970198,645980.900000006,8003,WL,C,14.0
5,22.825999975204468,learn,60000.0,Fri Jan 31 2025 10:45:28 GMT-0600 (Central Standard Time),649095.900000006,A,tow,I,backspace,187,2,3115.0,645980.900000006,8003,WL,C,14.0
5,23.009000062942505,learn,60000.0,Fri Jan 31 2025 10:45:28 GMT-0600 (Central Standard Time),649279.200000003,A,to,I,backspace,170,2,3298.2999999970198,645980.900000006,8003,WL,C,14.0
5,23.20900011062622,learn,60000.0,Fri Jan 31 2025 10:45:28 GMT-0600 (Central Standard Time),649479.3000000045,A,t,I,backspace,187,2,3498.39999999851,645980.900000006,8003,WL,C,14.0
5,23.39300012588501,learn,60000.0,Fri Jan 31 2025 10:45:28 GMT-0600 (Central Standard Time),649662.5,A,,I,backspace,171,2,3681.5999999940395,645980.900000006,8003,WL,C,14.0
5,23.55900001525879,learn,60000.0,Fri Jan 31 2025 10:45:28 GMT-0600 (Central Standard Time),649829.200000003,A,q,I,q,148,2,3848.2999999970198,645980.900000006,8003,WL,C,14.0
5,23.992000102996826,learn,60000.0,Fri Jan 31 2025 10:45:28 GMT-0600 (Central Standard Time),650262.3000000045,A,qu,I,u,422,2,4281.39999999851,645980.900000006,8003,WL,C,14.0
5,24.075999975204468,learn,60000.0,Fri Jan 31 2025 10:45:28 GMT-0600 (Central Standard Time),650345.700000003,A,que,I,e,61,2,4364.79999999702,645980.900000006,8003,WL,C,14.0
5,24.409000158309937,learn,60000.0,Fri Jan 31 2025 10:45:28 GMT-0600 (Central Standard Time),650678.8000000045,A,quee,I,e,313,2,4697.89999999851,645980.900000006,8003,WL,C,14.0
5,24.575999975204468,learn,60000.0,Fri Jan 31 2025 10:45:28 GMT-0600 (Central Standard Time),650845.6000000015,A,queen,I,n,156,2,4864.69999999553,645980.900000006,8003,WL,C,14.0
5,24.79200005531311,learn,60000.0,Fri Jan 31 2025 10:45:28 GMT-0600 (Central Standard Time),651061.900000006,A,queenenter,I,enter,196,2,5081.0,645980.900000006,8003,WL,C,14.0
5,25.092000007629395,learn,60000.0,Fri Jan 31 2025 10:45:28 GMT-0600 (Central Standard Time),651361.900000006,A,t,I,t,292,2,299.6000000014901,651062.3000000045,8003,WL,C,15.0
5,25.259000062942505,learn,60000.0,Fri Jan 31 2025 10:45:28 GMT-0600 (Central Standard Time),651528.6000000015,A,to,I,o,153,2,466.29999999701977,651062.3000000045,8003,WL,C,15.0
5,25.308000087738037,learn,60000.0,Fri Jan 31 2025 10:45:28 GMT-0600 (Central Standard Time),651578.200000003,A,tow,I,w,42,2,515.8999999985099,651062.3000000045,8003,WL,C,15.0
5,25.492000102996826,learn,60000.0,Fri Jan 31 2025 10:45:28 GMT-0600 (Central Standard Time),651762.1000000015,A,towe,I,e,160,2,699.7999999970198,651062.3000000045,8003,WL,C,15.0
5,25.674999952316284,learn,60000.0,Fri Jan 31 2025 10:45:28 GMT-0600 (Central Standard Time),651945.3000000045,A,tower,I,r,159,2,883.0,651062.3000000045,8003,WL,C,15.0
5,25.992000102996826,learn,60000.0,Fri Jan 31 2025 10:45:28 GMT-0600 (Central Standard Time),652261.700000003,A,towerenter,I,enter,304,2,1199.3999999985099,651062.3000000045,8003,WL,C,15.0
6,1.25,distr,58750.0,Fri Jan 31 2025 10:45:28 GMT-0600 (Central Standard Time),725805.6000000015,B,s,I,s,1232,2,1249.6999999955297,724555.900000006,8003,WL,C,1.0
6,1.3329999446868896,distr,58667.00005531311,Fri Jan 31 2025 10:45:28 GMT-0600 (Central Standard Time),725888.8000000045,B,sk,I,k,69,2,1332.8999999985099,724555.900000006,8003,WL,C,1.0
6,1.6659998893737793,distr,58334.00011062622,Fri Jan 31 2025 10:45:28 GMT-0600 (Central Standard Time),726221.8000000045,B,sky,I,y,314,2,1665.8999999985099,724555.900000006,8003,WL,C,1.0
6,1.8829998970031738,distr,58117.000102996826,Fri Jan 31 2025 10:45:28 GMT-0600 (Central Standard Time),726438.6000000015,B,skyenter,I,enter,204,2,1882.6999999955297,724555.900000006,8003,WL,C,1.0
6,2.1670000553131104,distr,57832.99994468689,Fri Jan 31 2025 10:45:28 GMT-0600 (Central Standard Time),726722.0,B,h,I,h,260,2,283.19999999552965,726438.8000000045,8003,WL,C,2.0
6,2.2660000324249268,distr,57733.99996757507,Fri Jan 31 2025 10:45:28 GMT-0600 (Central Standard Time),726821.700000003,B,ho,I,o,81,2,382.8999999985099,726438.8000000045,8003,WL,C,2.0
6,2.382999897003174,distr,57617.000102996826,Fri Jan 31 2025 10:45:28 GMT-0600 (Central Standard Time),726938.200000003,B,hot,I,t,109,2,499.3999999985099,726438.8000000045,8003,WL,C,2.0
6,2.5,distr,57500.0,Fri Jan 31 2025 10:45:28 GMT-0600 (Central Standard Time),727054.8000000045,B,hote,I,e,95,2,616.0,726438.8000000045,8003,WL,C,2.0
6,3.0329999923706055,distr,56967.000007629395,Fri Jan 31 2025 10:45:28 GMT-0600 (Central Standard Time),727588.1000000015,B,hotel,I,l,516,2,1149.2999999970198,726438.8000000045,8003,WL,C,2.0
6,3.3489999771118164,distr,56651.00002288818,Fri Jan 31 2025 10:45:28 GMT-0600 (Central Standard Time),727904.700000003,B,hotelenter,I,enter,302,2,1465.8999999985099,726438.8000000045,8003,WL,C,2.0
6,3.999000072479248,distr,56000.99992752075,Fri Jan 31 2025 10:45:28 GMT-0600 (Central Standard Time),728554.400000006,B,d,I,d,643,2,649.3000000044703,727905.1000000015,8003,WL,C,3.0
6,4.065999984741211,distr,55934.00001525879,Fri Jan 31 2025 10:45:28 GMT-0600 (Central Standard Time),728621.0,B,do,I,o,57,2,715.8999999985099,727905.1000000015,8003,WL,C,3.0
6,4.332000017166138,distr,55667.99998283386,Fri Jan 31 2025 10:45:28 GMT-0600 (Central Standard Time),728887.700000003,B,dol,I,l,245,2,982.6000000014901,727905.1000000015,8003,WL,C,3.0
6,4.499000072479248,distr,55500.99992752075,Fri Jan 31 2025 10:45:28 GMT-0600 (Central Standard Time),729054.3000000045,B,doll,I,l,148,2,1149.2000000029802,727905.1000000015,8003,WL,C,3.0
6,4.565999984741211,distr,55434.00001525879,Fri Jan 31 2025 10:45:28 GMT-0600 (Central Standard Time),729121.200000003,B,dolla,I,a,44,2,1216.1000000014901,727905.1000000015,8003,WL,C,3.0
6,4.664999961853027,distr,55335.00003814697,Fri Jan 31 2025 10:45:28 GMT-0600 (Central Standard Time),729220.8000000045,B,dollar,I,r,80,2,1315.7000000029802,727905.1000000015,8003,WL,C,3.0
6,4.865000009536743,distr,55134.99999046326,Fri Jan 31 2025 10:45:28 GMT-0600 (Central Standard Time),729420.8000000045,B,dollarenter,I,enter,182,2,1515.7000000029802,727905.1000000015,8003,WL,C,3.0
6,6.197999954223633,distr,53802.00004577637,Fri Jan 31 2025 10:45:28 GMT-0600 (Central Standard Time),730753.700000003,B,m,I,m,1311,2,1332.7000000029802,729421.0,8003,WL,C,4.0
6,6.381999969482422,distr,53618.00003051758,Fri Jan 31 2025 10:45:28 GMT-0600 (Central Standard Time),730937.200000003,B,mo,I,o,160,2,1516.2000000029802,729421.0,8003,WL,C,4.0
6,6.4649999141693115,distr,53535.00008583069,Fri Jan 31 2025 10:45:28 GMT-0600 (Central Standard Time),731020.400000006,B,mon,I,n,74,2,1599.4000000059605,729421.0,8003,WL,C,4.0
6,6.582000017166138,distr,53417.99998283386,Fri Jan 31 2025 10:45:28 GMT-0600 (Central Standard Time),731137.0,B,mone,I,e,93,2,1716.0,729421.0,8003,WL,C,4.0
6,6.797999858856201,distr,53202.0001411438,Fri Jan 31 2025 10:45:28 GMT-0600 (Central Standard Time),731353.400000006,B,money,I,y,193,2,1932.4000000059605,729421.0,8003,WL,C,4.0
6,6.997999906539917,distr,53002.00009346008,Fri Jan 31 2025 10:45:28 GMT-0600 (Central Standard Time),731553.6000000015,B,moneyenter,I,enter,192,2,2132.60000000149,729421.0,8003,WL,C,4.0
6,7.325999975204468,distr,52674.00002479553,Fri Jan 31 2025 10:45:28 GMT-0600 (Central Standard Time),731880.900000006,B,d,I,d,320,2,327.0,731553.900000006,8003,WL,C,5.0
6,7.434000015258789,distr,52565.99998474121,Fri Jan 31 2025 10:45:28 GMT-0600 (Central Standard Time),731988.900000006,B,di,I,i,87,2,435.0,731553.900000006,8003,WL,C,5.0
6,7.563999891281128,distr,52436.00010871887,Fri Jan 31 2025 10:45:28 GMT-0600 (Central Standard Time),732119.6000000015,B,dia,I,a,109,2,565.6999999955297,731553.900000006,8003,WL,C,5.0
6,7.764999866485596,distr,52235.000133514404,Fri Jan 31 2025 10:45:28 GMT-0600 (Central Standard Time),732319.900000006,B,diam,I,m,187,2,766.0,731553.900000006,8003,WL,C,5.0
6,7.997999906539917,distr,52002.00009346008,Fri Jan 31 2025 10:45:28 GMT-0600 (Central Standard Time),732552.900000006,B,diamo,I,o,218,2,999.0,731553.900000006,8003,WL,C,5.0
6,8.096999883651733,distr,51903.00011634827,Fri Jan 31 2025 10:45:28 GMT-0600 (Central Standard Time),732652.8000000045,B,diamon,I,n,88,2,1098.8999999985099,731553.900000006,8003,WL,C,5.0
6,8.330999851226807,distr,51669.00014877319,Fri Jan 31 2025 10:45:28 GMT-0600 (Central Standard Time),732886.200000003,B,diamond,I,d,213,2,1332.2999999970198,731553.900000006,8003,WL,C,5.0
6,8.430999994277954,distr,51569.000005722046,Fri Jan 31 2025 10:45:28 GMT-0600 (Central Standard Time),732986.1000000015,B,diamondenter,I,enter,83,2,1432.1999999955297,731553.900000006,8003,WL,C,5.0
6,9.763999938964844,distr,50236.000061035156,Fri Jan 31 2025 10:45:28 GMT-0600 (Central Standard Time),734319.6000000015,B,m,I,m,1312,2,1333.1999999955297,732986.400000006,8003,WL,C,6.0
6,9.914000034332275,distr,50085.999965667725,Fri Jan 31 2025 10:45:28 GMT-0600 (Central Standard Time),734469.200000003,B,mo,I,o,130,2,1482.7999999970198,732986.400000006,8003,WL,C,6.0
6,10.063999891281128,distr,49936.00010871887,Fri Jan 31 2025 10:45:28 GMT-0600 (Central Standard Time),734619.3000000045,B,mot,I,t,134,2,1632.8999999985099,732986.400000006,8003,WL,C,6.0
6,10.13100004196167,distr,49868.99995803833,Fri Jan 31 2025 10:45:28 GMT-0600 (Central Standard Time),734686.0,B,moth,I,h,55,2,1699.5999999940395,732986.400000006,8003,WL,C,6.0
6,10.21399998664856,distr,49786.00001335144,Fri Jan 31 2025 10:45:28 GMT-0600 (Central Standard Time),734769.1000000015,B,mothe,I,e,60,2,1782.6999999955297,732986.400000006,8003,WL,C,6.0
6,10.329999923706055,distr,49670.000076293945,Fri Jan 31 2025 10:45:28 GMT-0600 (Central Standard Time),734885.8000000045,B,mother,I,r,105,2,1899.3999999985099,732986.400000006,8003,WL,C,6.0
6,10.44700002670288,distr,49552.99997329712,Fri Jan 31 2025 10:45:28 GMT-0600 (Central Standard Time),735002.5,B,motherenter,I,enter,100,2,2016.0999999940395,732986.400000006,8003,WL,C,6.0
6,12.147000074386597,distr,47852.9999256134,Fri Jan 31 2025 10:45:28 GMT-0600 (Central Standard Time),736701.900000006,B,c,I,c,1680,2,1699.1000000014901,735002.8000000045,8003,WL,C,7.0
6,12.280999898910522,distr,47719.00010108948,Fri Jan 31 2025 10:45:28 GMT-0600 (Central Standard Time),736836.200000003,B,ch,I,h,125,2,1833.3999999985099,735002.8000000045,8003,WL,C,7.0
6,12.379999876022339,distr,47620.00012397766,Fri Jan 31 2025 10:45:28 GMT-0600 (Central Standard Time),736935.0,B,chr,I,r,86,2,1932.1999999955297,735002.8000000045,8003,WL,C,7.0
6,12.513000011444092,distr,47486.99998855591,Fri Jan 31 2025 10:45:28 GMT-0600 (Central Standard Time),737068.5,B,chri,I,i,116,2,2065.6999999955297,735002.8000000045,8003,WL,C,7.0
6,12.595999956130981,distr,47404.00004386902,Fri Jan 31 2025 10:45:28 GMT-0600 (Central Standard Time),737151.700000003,B,chris,I,s,63,2,2148.89999999851,735002.8000000045,8003,WL,C,7.0
6,12.713000059127808,distr,47286.99994087219,Fri Jan 31 2025 10:45:28 GMT-0600 (Central Standard Time),737268.5,B,christ,I,t,106,2,2265.6999999955297,735002.8000000045,8003,WL,C,7.0
6,12.980000019073486,distr,47019.999980926514,Fri Jan 31 2025 10:45:28 GMT-0600 (Central Standard Time),737535.0,B,christm,I,m,255,2,2532.1999999955297,735002.8000000045,8003,WL,C,7.0
6,13.062999963760376,distr,46937.000036239624,Fri Jan 31 2025 10:45:28 GMT-0600 (Central Standard Time),737618.5,B,christma,I,a,60,2,2615.6999999955297,735002.8000000045,8003,WL,C,7.0
6,13.162999868392944,distr,46837.000131607056,Fri Jan 31 2025 10:45:28 GMT-0600 (Central Standard Time),737718.200000003,B,christmas,I,s,80,2,2715.39999999851,735002.8000000045,8003,WL,C,7.0
6,13.328999996185303,distr,46671.0000038147,Fri Jan 31 2025 10:45:28 GMT-0600 (Central Standard Time),737884.8000000045,B,christmasenter,I,enter,147,2,2882.0,735002.8000000045,8003,WL,C,7.0
6,25.741999864578247,distr,34258.00013542175,Fri Jan 31 2025 10:45:28 GMT-0600 (Central Standard Time),750297.700000003,B,t,I,t,12391,2,12412.60000000149,737885.1000000015,8003,WL,C,8.0
6,25.858999967575073,distr,34141.00003242493,Fri Jan 31 2025 10:45:28 GMT-0600 (Central Standard Time),750414.3000000045,B,to,I,o,96,2,12529.20000000298,737885.1000000015,8003,WL,C,8.0
6,26.026000022888184,distr,33973.99997711182,Fri Jan 31 2025 10:45:28 GMT-0600 (Central Standard Time),750581.0,B,too,I,o,157,2,12695.89999999851,737885.1000000015,8003,WL,C,8.0
6,26.441999912261963,distr,33558.00008773804,Fri Jan 31 2025 10:45:28 GMT-0600 (Central Standard Time),750997.400000006,B,tool,I,l,407,2,13112.30000000447,737885.1000000015,8003,WL,C,8.0
6,26.80900001525879,distr,33190.99998474121,Fri Jan 31 2025 10:45:28 GMT-0600 (Central Standard Time),751364.1000000015,B,toolenter,I,enter,350,2,13479.0,737885.1000000015,8003,WL,C,8.0
6,27.72499990463257,distr,32275.00009536743,Fri Jan 31 2025 10:45:28 GMT-0600 (Central Standard Time),752280.5,B,p,I,p,895,2,916.0999999940395,751364.400000006,8003,WL,C,9.0
6,27.95799994468689,distr,32042.00005531311,Fri Jan 31 2025 10:45:28 GMT-0600 (Central Standard Time),752513.700000003,B,pl,I,l,218,2,1149.2999999970198,751364.400000006,8003,WL,C,9.0
6,28.024999856948853,distr,31975.000143051147,Fri Jan 31 2025 10:45:28 GMT-0600 (Central Standard Time),752580.400000006,B,pla,I,a,49,2,1216.0,751364.400000006,8003,WL,C,9.0
6,28.158999919891357,distr,31841.000080108643,Fri Jan 31 2025 10:45:28 GMT-0600 (Central Standard Time),752713.900000006,B,plan,I,n,109,2,1349.5,751364.400000006,8003,WL,C,9.0
6,28.257999897003174,distr,31742.000102996826,Fri Jan 31 2025 10:45:28 GMT-0600 (Central Standard Time),752813.5,B,plant,I,t,80,2,1449.0999999940395,751364.400000006,8003,WL,C,9.0
6,28.39199995994568,distr,31608.00004005432,Fri Jan 31 2025 10:45:28 GMT-0600 (Central Standard Time),752947.8000000045,B,plantenter,I,enter,125,2,1583.3999999985099,751364.400000006,8003,WL,C,9.0
6,60.014999866485596,distr,-14.999866485595703,Fri Jan 31 2025 10:45:28 GMT-0600 (Central Standard Time),784570.200000003,B,None,I,None,31615,2,31622.10000000149,752948.1000000015,8003,WL,C,10.0
7,14.895999908447266,immed,45104.000091552734,Fri Jan 31 2025 10:45:28 GMT-0600 (Central Standard Time),801315.200000003,A,t,I,t,14880,2,14895.5,786419.700000003,8003,WL,C,1.0
7,14.978999853134155,immed,45021.000146865845,Fri Jan 31 2025 10:45:28 GMT-0600 (Central Standard Time),801398.3000000045,A,to,I,o,71,2,14978.60000000149,786419.700000003,8003,WL,C,1.0
7,15.128999948501587,immed,44871.00005149841,Fri Jan 31 2025 10:45:28 GMT-0600 (Central Standard Time),801548.1000000015,A,tow,I,w,133,2,15128.39999999851,786419.700000003,8003,WL,C,1.0
7,15.296000003814697,immed,44703.9999961853,Fri Jan 31 2025 10:45:28 GMT-0600 (Central Standard Time),801715.0,A,towe,I,e,151,2,15295.29999999702,786419.700000003,8003,WL,C,1.0
7,15.428999900817871,immed,44571.00009918213,Fri Jan 31 2025 10:45:28 GMT-0600 (Central Standard Time),801848.0,A,tower,I,r,112,2,15428.29999999702,786419.700000003,8003,WL,C,1.0
7,15.611999988555908,immed,44388.00001144409,Fri Jan 31 2025 10:45:28 GMT-0600 (Central Standard Time),802031.6000000015,A,towerenter,I,enter,169,2,15611.89999999851,786419.700000003,8003,WL,C,1.0
7,15.891999959945679,immed,44108.00004005432,Fri Jan 31 2025 10:45:28 GMT-0600 (Central Standard Time),802311.900000006,A,s,I,s,274,2,280.0,802031.900000006,8003,WL,C,2.0
7,16.039999961853027,immed,43960.00003814697,Fri Jan 31 2025 10:45:28 GMT-0600 (Central Standard Time),802459.400000006,A,sh,I,h,139,2,427.5,802031.900000006,8003,WL,C,2.0
7,16.061999797821045,immed,43938.000202178955,Fri Jan 31 2025 10:45:28 GMT-0600 (Central Standard Time),802481.0,A,sho,I,o,4,2,449.09999999403954,802031.900000006,8003,WL,C,2.0
7,16.194999933242798,immed,43805.0000667572,Fri Jan 31 2025 10:45:28 GMT-0600 (Central Standard Time),802614.3000000045,A,shor,I,r,121,2,582.3999999985099,802031.900000006,8003,WL,C,2.0
7,16.34499979019165,immed,43655.00020980835,Fri Jan 31 2025 10:45:28 GMT-0600 (Central Standard Time),802764.6000000015,A,shore,I,e,132,2,732.6999999955297,802031.900000006,8003,WL,C,2.0
7,16.727999925613403,immed,43272.0000743866,Fri Jan 31 2025 10:45:28 GMT-0600 (Central Standard Time),803147.900000006,A,shoreenter,I,enter,366,2,1116.0,802031.900000006,8003,WL,C,2.0
7,17.877999782562256,immed,42122.000217437744,Fri Jan 31 2025 10:45:28 GMT-0600 (Central Standard Time),804297.8000000045,A,c,I,c,1127,2,1149.6000000014901,803148.200000003,8003,WL,C,3.0
7,17.994999885559082,immed,42005.00011444092,Fri Jan 31 2025 10:45:28 GMT-0600 (Central Standard Time),804414.0,A,ca,I,a,96,2,1265.7999999970198,803148.200000003,8003,WL,C,3.0
7,18.17799997329712,immed,41822.00002670288,Fri Jan 31 2025 10:45:28 GMT-0600 (Central Standard Time),804597.400000006,A,cam,I,m,165,2,1449.2000000029802,803148.200000003,8003,WL,C,3.0
7,18.41099977493286,immed,41589.00022506714,Fri Jan 31 2025 10:45:28 GMT-0600 (Central Standard Time),804830.700000003,A,camp,I,p,222,2,1682.5,803148.200000003,8003,WL,C,3.0
7,18.793999910354614,immed,41206.000089645386,Fri Jan 31 2025 10:45:28 GMT-0600 (Central Standard Time),805213.700000003,A,campenter,I,enter,373,2,2065.5,803148.200000003,8003,WL,C,3.0
7,19.026999950408936,immed,40973.000049591064,Fri Jan 31 2025 10:45:28 GMT-0600 (Central Standard Time),805446.700000003,A,f,I,f,212,2,232.70000000298023,805214.0,8003,WL,C,4.0
7,19.17799997329712,immed,40822.00002670288,Fri Jan 31 2025 10:45:28 GMT-0600 (Central Standard Time),805597.1000000015,A,fl,I,l,140,2,383.1000000014901,805214.0,8003,WL,C,4.0
7,19.3439998626709,immed,40656.0001373291,Fri Jan 31 2025 10:45:28 GMT-0600 (Central Standard Time),805763.700000003,A,fla,I,a,149,2,549.7000000029802,805214.0,8003,WL,C,4.0
7,19.5939998626709,immed,40406.0001373291,Fri Jan 31 2025 10:45:28 GMT-0600 (Central Standard Time),806013.5,A,flag,I,g,230,2,799.5,805214.0,8003,WL,C,4.0
7,19.777999877929688,immed,40222.00012207031,Fri Jan 31 2025 10:45:28 GMT-0600 (Central Standard Time),806197.0,A,flagenter,I,enter,165,2,983.0,805214.0,8003,WL,C,4.0
7,20.176999807357788,immed,39823.00019264221,Fri Jan 31 2025 10:45:28 GMT-0600 (Central Standard Time),806596.6000000015,A,l,I,l,382,2,399.29999999701977,806197.3000000045,8003,WL,C,5.0
7,20.30999994277954,immed,39690.00005722046,Fri Jan 31 2025 10:45:28 GMT-0600 (Central Standard Time),806729.900000006,A,le,I,e,118,2,532.6000000014901,806197.3000000045,8003,WL,C,5.0
7,20.57699990272522,immed,39423.00009727478,Fri Jan 31 2025 10:45:28 GMT-0600 (Central Standard Time),806996.700000003,A,let,I,t,249,2,799.3999999985099,806197.3000000045,8003,WL,C,5.0
7,20.74399995803833,immed,39256.00004196167,Fri Jan 31 2025 10:45:28 GMT-0600 (Central Standard Time),807163.200000003,A,lett,I,t,158,2,965.8999999985099,806197.3000000045,8003,WL,C,5.0
7,20.8439998626709,immed,39156.0001373291,Fri Jan 31 2025 10:45:28 GMT-0600 (Central Standard Time),807263.200000003,A,lette,I,e,80,2,1065.8999999985099,806197.3000000045,8003,WL,C,5.0
7,20.944000005722046,immed,39055.999994277954,Fri Jan 31 2025 10:45:28 GMT-0600 (Central Standard Time),807363.1000000015,A,letter,I,r,91,2,1165.7999999970198,806197.3000000045,8003,WL,C,5.0
7,21.060999870300293,immed,38939.00012969971,Fri Jan 31 2025 10:45:28 GMT-0600 (Central Standard Time),807480.0,A,letterenter,I,enter,95,2,1282.6999999955297,806197.3000000045,8003,WL,C,5.0
7,22.709999799728394,immed,37290.00020027161,Fri Jan 31 2025 10:45:28 GMT-0600 (Central Standard Time),809129.200000003,A,d,I,d,1635,2,1648.7999999970198,807480.400000006,8003,WL,C,6.0
7,22.859999895095825,immed,37140.000104904175,Fri Jan 31 2025 10:45:28 GMT-0600 (Central Standard Time),809279.200000003,A,do,I,o,137,2,1798.7999999970198,807480.400000006,8003,WL,C,6.0
7,22.97599983215332,immed,37024.00016784668,Fri Jan 31 2025 10:45:28 GMT-0600 (Central Standard Time),809395.6000000015,A,doc,I,c,108,2,1915.1999999955297,807480.400000006,8003,WL,C,6.0
7,23.125999927520752,immed,36874.00007247925,Fri Jan 31 2025 10:45:28 GMT-0600 (Central Standard Time),809545.8000000045,A,doct,I,t,142,2,2065.39999999851,807480.400000006,8003,WL,C,6.0
7,23.242999792099,immed,36757.000207901,Fri Jan 31 2025 10:45:28 GMT-0600 (Central Standard Time),809662.400000006,A,docto,I,o,105,2,2182.0,807480.400000006,8003,WL,C,6.0
7,23.325999975204468,immed,36674.00002479553,Fri Jan 31 2025 10:45:28 GMT-0600 (Central Standard Time),809745.6000000015,A,doctor,I,r,67,2,2265.1999999955297,807480.400000006,8003,WL,C,6.0
7,23.925999879837036,immed,36074.000120162964,Fri Jan 31 2025 10:45:28 GMT-0600 (Central Standard Time),810345.6000000015,A,doctorenter,I,enter,586,2,2865.1999999955297,807480.400000006,8003,WL,C,6.0
7,24.258999824523926,immed,35741.000175476074,Fri Jan 31 2025 10:45:28 GMT-0600 (Central Standard Time),810678.900000006,A,b,I,b,322,2,333.0,810345.900000006,8003,WL,C,7.0
7,24.325999975204468,immed,35674.00002479553,Fri Jan 31 2025 10:45:28 GMT-0600 (Central Standard Time),810745.400000006,A,bo,I,o,44,2,399.5,810345.900000006,8003,WL,C,7.0
7,24.55899977684021,immed,35441.00022315979,Fri Jan 31 2025 10:45:28 GMT-0600 (Central Standard Time),810978.3000000045,A,boy,I,y,225,2,632.3999999985099,810345.900000006,8003,WL,C,7.0
7,24.825999975204468,immed,35174.00002479553,Fri Jan 31 2025 10:45:28 GMT-0600 (Central Standard Time),811245.1000000015,A,boyenter,I,enter,249,2,899.1999999955297,810345.900000006,8003,WL,C,7.0
7,25.20899987220764,immed,34791.00012779236,Fri Jan 31 2025 10:45:28 GMT-0600 (Central Standard Time),811628.5,A,b,I,b,365,2,383.0,811245.5,8003,WL,C,8.0
7,25.72599983215332,immed,34274.00016784668,Fri Jan 31 2025 10:45:28 GMT-0600 (Central Standard Time),812145.1000000015,A,bo,I,o,502,2,899.6000000014901,811245.5,8003,WL,C,8.0
7,25.89199995994568,immed,34108.00004005432,Fri Jan 31 2025 10:45:28 GMT-0600 (Central Standard Time),812311.700000003,A,bod,I,d,154,2,1066.2000000029802,811245.5,8003,WL,C,8.0
7,26.158999919891357,immed,33841.00008010864,Fri Jan 31 2025 10:45:28 GMT-0600 (Central Standard Time),812578.200000003,A,body,I,y,259,2,1332.7000000029802,811245.5,8003,WL,C,8.0
7,26.907999992370605,immed,33092.000007629395,Fri Jan 31 2025 10:45:28 GMT-0600 (Central Standard Time),813327.8000000045,A,bodyenter,I,enter,737,2,2082.3000000044703,811245.5,8003,WL,C,8.0
7,28.54099988937378,immed,31459.00011062622,Fri Jan 31 2025 10:45:28 GMT-0600 (Central Standard Time),814960.8000000045,A,c,I,c,1611,2,1632.7000000029802,813328.1000000015,8003,WL,C,9.0
7,28.657999992370605,immed,31342.000007629395,Fri Jan 31 2025 10:45:28 GMT-0600 (Central Standard Time),815077.400000006,A,ca,I,a,98,2,1749.3000000044703,813328.1000000015,8003,WL,C,9.0
7,28.807999849319458,immed,31192.000150680542,Fri Jan 31 2025 10:45:28 GMT-0600 (Central Standard Time),815227.5,A,cat,I,t,134,2,1899.3999999985099,813328.1000000015,8003,WL,C,9.0
7,28.973999977111816,immed,31026.000022888184,Fri Jan 31 2025 10:45:28 GMT-0600 (Central Standard Time),815393.900000006,A,catt,I,t,143,2,2065.8000000044703,813328.1000000015,8003,WL,C,9.0
7,29.107999801635742,immed,30892.000198364258,Fri Jan 31 2025 10:45:28 GMT-0600 (Central Standard Time),815527.3000000045,A,cattl,I,l,112,2,2199.2000000029802,813328.1000000015,8003,WL,C,9.0
7,29.19099998474121,immed,30809.00001525879,Fri Jan 31 2025 10:45:28 GMT-0600 (Central Standard Time),815610.6000000015,A,cattle,I,e,67,2,2282.5,813328.1000000015,8003,WL,C,9.0
7,29.473999977111816,immed,30526.000022888184,Fri Jan 31 2025 10:45:28 GMT-0600 (Central Standard Time),815893.700000003,A,cattleenter,I,enter,272,2,2565.60000000149,813328.1000000015,8003,WL,C,9.0
7,29.69099998474121,immed,30309.00001525879,Fri Jan 31 2025 10:45:28 GMT-0600 (Central Standard Time),816110.5,A,s,I,s,206,2,216.59999999403954,815893.900000006,8003,WL,C,10.0
7,29.823999881744385,immed,30176.000118255615,Fri Jan 31 2025 10:45:28 GMT-0600 (Central Standard Time),816243.700000003,A,su,I,u,116,2,349.79999999701977,815893.900000006,8003,WL,C,10.0
7,30.006999969482422,immed,29993.000030517578,Fri Jan 31 2025 10:45:28 GMT-0600 (Central Standard Time),816426.900000006,A,sug,I,g,174,2,533.0,815893.900000006,8003,WL,C,10.0
7,30.19099998474121,immed,29809.00001525879,Fri Jan 31 2025 10:45:28 GMT-0600 (Central Standard Time),816610.3000000045,A,suga,I,a,168,2,716.3999999985099,815893.900000006,8003,WL,C,10.0
7,30.375,immed,29625.0,Fri Jan 31 2025 10:45:28 GMT-0600 (Central Standard Time),816794.3000000045,A,sugar,I,r,159,2,900.3999999985099,815893.900000006,8003,WL,C,10.0
7,30.557999849319458,immed,29442.000150680542,Fri Jan 31 2025 10:45:28 GMT-0600 (Central Standard Time),816977.700000003,A,sugarenter,I,enter,175,2,1083.7999999970198,815893.900000006,8003,WL,C,10.0
7,32.4229998588562,immed,27577.0001411438,Fri Jan 31 2025 10:45:28 GMT-0600 (Central Standard Time),818842.8000000045,A,w,I,w,1850,2,1865.0,816977.8000000045,8003,WL,C,11.0
7,32.62299990653992,immed,27377.000093460083,Fri Jan 31 2025 10:45:28 GMT-0600 (Central Standard Time),819042.700000003,A,wh,I,h,182,2,2064.89999999851,816977.8000000045,8003,WL,C,11.0
7,32.83999991416931,immed,27160.00008583069,Fri Jan 31 2025 10:45:28 GMT-0600 (Central Standard Time),819259.5,A,wha,I,a,208,2,2281.6999999955297,816977.8000000045,8003,WL,C,11.0
7,33.45599985122681,immed,26544.000148773193,Fri Jan 31 2025 10:45:28 GMT-0600 (Central Standard Time),819875.8000000045,A,wh,I,backspace,599,2,2898.0,816977.8000000045,8003,WL,C,11.0
7,33.52300000190735,immed,26476.99999809265,Fri Jan 31 2025 10:45:28 GMT-0600 (Central Standard Time),819942.5,A,whe,I,e,47,2,2964.6999999955297,816977.8000000045,8003,WL,C,11.0
