block_c,block_dur,condition,countdown,datetime,endtime,list,multichar_response,project,response,response_time,session_number,start_end,starttime,subject_id,task,task_vers,trial
,,,,Wed Nov 13 2024 10:46:09 GMT-0500 (Eastern Standard Time),,,,I,space,618,1,,,9005,WL,A,
prac,,0,,Wed Nov 13 2024 10:46:09 GMT-0500 (Eastern Standard Time),,NA,b,I,b,5064,1,,,9005,WL,A,1.0
prac,,0,,Wed Nov 13 2024 10:46:09 GMT-0500 (Eastern Standard Time),,NA,bo,I,o,481,1,,,9005,WL,A,1.0
prac,,0,,Wed Nov 13 2024 10:46:09 GMT-0500 (Eastern Standard Time),,NA,boo,I,o,229,1,,,9005,WL,A,1.0
prac,,0,,Wed Nov 13 2024 10:46:09 GMT-0500 (Eastern Standard Time),,NA,boos,I,s,130,1,,,9005,WL,A,1.0
prac,,0,,Wed Nov 13 2024 10:46:09 GMT-0500 (Eastern Standard Time),,NA,boost,I,t,400,1,,,9005,WL,A,1.0
prac,,0,,Wed Nov 13 2024 10:46:09 GMT-0500 (Eastern Standard Time),,NA,boostenter,I,enter,2491,1,,,9005,WL,A,1.0
1,1.6010000705718994,learn,58398.9999294281,Wed Nov 13 2024 10:46:09 GMT-0500 (Eastern Standard Time),153679.60000038147,A,c,I,c,1576,1,1599.6000003814697,152080.0,9005,WL,A,1.0
1,1.817000150680542,learn,58182.99984931946,Wed Nov 13 2024 10:46:09 GMT-0500 (Eastern Standard Time),153896.2000002861,A,ch,I,h,198,1,1816.2000002861023,152080.0,9005,WL,A,1.0
1,1.9670000076293945,learn,58032.999992370605,Wed Nov 13 2024 10:46:09 GMT-0500 (Eastern Standard Time),154046.0,A,chi,I,i,119,1,1966.0,152080.0,9005,WL,A,1.0
1,2.251000165939331,learn,57748.99983406067,Wed Nov 13 2024 10:46:09 GMT-0500 (Eastern Standard Time),154329.5,A,chim,I,m,257,1,2249.5,152080.0,9005,WL,A,1.0
1,2.6670000553131104,learn,57332.99994468689,Wed Nov 13 2024 10:46:09 GMT-0500 (Eastern Standard Time),154746.10000038147,A,chimn,I,n,398,1,2666.1000003814697,152080.0,9005,WL,A,1.0
1,3.017000198364258,learn,56982.99980163574,Wed Nov 13 2024 10:46:09 GMT-0500 (Eastern Standard Time),155095.90000009537,A,chimne,I,e,335,1,3015.9000000953674,152080.0,9005,WL,A,1.0
1,3.2170000076293945,learn,56782.999992370605,Wed Nov 13 2024 10:46:09 GMT-0500 (Eastern Standard Time),155295.90000009537,A,chimney,I,y,169,1,3215.9000000953674,152080.0,9005,WL,A,1.0
1,3.5500001907348633,learn,56449.99980926514,Wed Nov 13 2024 10:46:09 GMT-0500 (Eastern Standard Time),155628.90000009537,A,chimneyenter,I,enter,305,1,3548.9000000953674,152080.0,9005,WL,A,1.0
1,4.017000198364258,learn,55982.99980163574,Wed Nov 13 2024 10:46:09 GMT-0500 (Eastern Standard Time),156095.60000038147,A,l,I,l,445,1,465.90000009536743,155629.7000002861,9005,WL,A,2.0
1,4.234000205993652,learn,55765.99979400635,Wed Nov 13 2024 10:46:09 GMT-0500 (Eastern Standard Time),156312.5,A,lo,I,o,202,1,682.7999997138977,155629.7000002861,9005,WL,A,2.0
1,4.434000015258789,learn,55565.99998474121,Wed Nov 13 2024 10:46:09 GMT-0500 (Eastern Standard Time),156512.7000002861,A,log,I,g,175,1,883.0,155629.7000002861,9005,WL,A,2.0
1,4.800000190734863,learn,55199.99980926514,Wed Nov 13 2024 10:46:09 GMT-0500 (Eastern Standard Time),156878.90000009537,A,logenter,I,enter,343,1,1249.1999998092651,155629.7000002861,9005,WL,A,2.0
1,14.333000183105469,learn,45666.99981689453,Wed Nov 13 2024 10:46:09 GMT-0500 (Eastern Standard Time),166412.2000002861,A,g,I,g,9515,1,9532.800000190735,156879.40000009537,9005,WL,A,3.0
1,14.41700005531311,learn,45582.99994468689,Wed Nov 13 2024 10:46:09 GMT-0500 (Eastern Standard Time),166496.0,A,go,I,o,64,1,9616.599999904633,156879.40000009537,9005,WL,A,3.0
1,14.650000095367432,learn,45349.99990463257,Wed Nov 13 2024 10:46:09 GMT-0500 (Eastern Standard Time),166729.30000019073,A,gol,I,l,209,1,9849.900000095367,156879.40000009537,9005,WL,A,3.0
1,14.784000158309937,learn,45215.99984169006,Wed Nov 13 2024 10:46:09 GMT-0500 (Eastern Standard Time),166862.80000019073,A,gold,I,d,111,1,9983.400000095367,156879.40000009537,9005,WL,A,3.0
1,14.933000087738037,learn,45066.99991226196,Wed Nov 13 2024 10:46:09 GMT-0500 (Eastern Standard Time),167012.2000002861,A,goldenter,I,enter,129,1,10132.800000190735,156879.40000009537,9005,WL,A,3.0
1,17.734000205993652,learn,42265.99979400635,Wed Nov 13 2024 10:46:09 GMT-0500 (Eastern Standard Time),169812.7000002861,A,k,I,k,2791,1,2800.0,167012.7000002861,9005,WL,A,4.0
1,17.8510000705719,learn,42148.9999294281,Wed Nov 13 2024 10:46:09 GMT-0500 (Eastern Standard Time),169929.5,A,ke,I,e,100,1,2916.7999997138977,167012.7000002861,9005,WL,A,4.0
1,18.067000150680542,learn,41932.99984931946,Wed Nov 13 2024 10:46:09 GMT-0500 (Eastern Standard Time),170146.10000038147,A,key,I,y,183,1,3133.4000000953674,167012.7000002861,9005,WL,A,4.0
1,18.350000143051147,learn,41649.99985694885,Wed Nov 13 2024 10:46:09 GMT-0500 (Eastern Standard Time),170428.90000009537,A,keyenter,I,enter,260,1,3416.199999809265,167012.7000002861,9005,WL,A,4.0
1,22.43400001525879,learn,37565.99998474121,Wed Nov 13 2024 10:46:09 GMT-0500 (Eastern Standard Time),174512.7000002861,A,r,I,r,4063,1,4083.300000190735,170429.40000009537,9005,WL,A,5.0
1,22.534000158309937,learn,37465.99984169006,Wed Nov 13 2024 10:46:09 GMT-0500 (Eastern Standard Time),174612.60000038147,A,ro,I,o,88,1,4183.200000286102,170429.40000009537,9005,WL,A,5.0
1,22.767000198364258,learn,37232.99980163574,Wed Nov 13 2024 10:46:09 GMT-0500 (Eastern Standard Time),174845.90000009537,A,rol,I,l,213,1,4416.5,170429.40000009537,9005,WL,A,5.0
1,22.93400001525879,learn,37065.99998474121,Wed Nov 13 2024 10:46:09 GMT-0500 (Eastern Standard Time),175012.60000038147,A,roll,I,l,155,1,4583.200000286102,170429.40000009537,9005,WL,A,5.0
1,23.15000009536743,learn,36849.99990463257,Wed Nov 13 2024 10:46:09 GMT-0500 (Eastern Standard Time),175228.80000019073,A,rollenter,I,enter,195,1,4799.400000095367,170429.40000009537,9005,WL,A,5.0
1,37.1010000705719,learn,22898.9999294281,Wed Nov 13 2024 10:46:09 GMT-0500 (Eastern Standard Time),189179.40000009537,A,a,I,a,13934,1,13949.900000095367,175229.5,9005,WL,A,6.0
1,37.55000019073486,learn,22449.999809265137,Wed Nov 13 2024 10:46:09 GMT-0500 (Eastern Standard Time),189629.0,A,ap,I,p,428,1,14399.5,175229.5,9005,WL,A,6.0
1,37.75,learn,22250.0,Wed Nov 13 2024 10:46:09 GMT-0500 (Eastern Standard Time),189829.30000019073,A,app,I,p,190,1,14599.800000190735,175229.5,9005,WL,A,6.0
1,38.01700019836426,learn,21982.999801635742,Wed Nov 13 2024 10:46:09 GMT-0500 (Eastern Standard Time),190096.10000038147,A,appl,I,l,236,1,14866.60000038147,175229.5,9005,WL,A,6.0
1,38.10000014305115,learn,21899.999856948853,Wed Nov 13 2024 10:46:09 GMT-0500 (Eastern Standard Time),190178.60000038147,A,apple,I,e,72,1,14949.10000038147,175229.5,9005,WL,A,6.0
1,38.33300018310547,learn,21666.99981689453,Wed Nov 13 2024 10:46:09 GMT-0500 (Eastern Standard Time),190412.2000002861,A,appleenter,I,enter,215,1,15182.700000286102,175229.5,9005,WL,A,6.0
1,48.65000009536743,learn,11349.999904632568,Wed Nov 13 2024 10:46:09 GMT-0500 (Eastern Standard Time),200729.2000002861,A,b,I,b,10304,1,10316.599999904633,190412.60000038147,9005,WL,A,7.0
1,48.76700019836426,learn,11232.999801635742,Wed Nov 13 2024 10:46:09 GMT-0500 (Eastern Standard Time),200846.10000038147,A,be,I,e,94,1,10433.5,190412.60000038147,9005,WL,A,7.0
1,48.98400020599365,learn,11015.999794006348,Wed Nov 13 2024 10:46:09 GMT-0500 (Eastern Standard Time),201062.5,A,bel,I,l,201,1,10649.89999961853,190412.60000038147,9005,WL,A,7.0
1,49.200000047683716,learn,10799.999952316284,Wed Nov 13 2024 10:46:09 GMT-0500 (Eastern Standard Time),201279.40000009537,A,bell,I,l,186,1,10866.799999713898,190412.60000038147,9005,WL,A,7.0
1,49.41799998283386,learn,10582.000017166138,Wed Nov 13 2024 10:46:09 GMT-0500 (Eastern Standard Time),201496.40000009537,A,bellenter,I,enter,200,1,11083.799999713898,190412.60000038147,9005,WL,A,7.0
1,53.91700005531311,learn,6082.99994468689,Wed Nov 13 2024 10:46:09 GMT-0500 (Eastern Standard Time),205996.0,A,b,I,b,4483,1,4499.299999713898,201496.7000002861,9005,WL,A,8.0
1,54.26700019836426,learn,5732.999801635742,Wed Nov 13 2024 10:46:09 GMT-0500 (Eastern Standard Time),206346.2000002861,A,bo,I,o,332,1,4849.5,201496.7000002861,9005,WL,A,8.0
1,54.43400001525879,learn,5565.999984741211,Wed Nov 13 2024 10:46:09 GMT-0500 (Eastern Standard Time),206512.80000019073,A,boo,I,o,143,1,5016.099999904633,201496.7000002861,9005,WL,A,8.0
1,54.617000102996826,learn,5382.999897003174,Wed Nov 13 2024 10:46:09 GMT-0500 (Eastern Standard Time),206695.5,A,book,I,k,159,1,5198.799999713898,201496.7000002861,9005,WL,A,8.0
1,54.85000014305115,learn,5149.9998569488525,Wed Nov 13 2024 10:46:09 GMT-0500 (Eastern Standard Time),206928.80000019073,A,bookenter,I,enter,211,1,5432.099999904633,201496.7000002861,9005,WL,A,8.0
1,60.01700019836426,learn,-17.000198364257812,Wed Nov 13 2024 10:46:09 GMT-0500 (Eastern Standard Time),212096.2000002861,A,None,I,None,5160,1,5167.0,206929.2000002861,9005,WL,A,9.0
2,1.066999912261963,learn,58933.00008773804,Wed Nov 13 2024 10:46:09 GMT-0500 (Eastern Standard Time),291279.40000009537,A,b,I,b,1046,1,1066.4000000953674,290213.0,9005,WL,A,1.0
2,1.4670000076293945,learn,58532.999992370605,Wed Nov 13 2024 10:46:09 GMT-0500 (Eastern Standard Time),291679.40000009537,A,bo,I,o,376,1,1466.4000000953674,290213.0,9005,WL,A,1.0
2,1.6329998970031738,learn,58367.000102996826,Wed Nov 13 2024 10:46:09 GMT-0500 (Eastern Standard Time),291846.10000038147,A,boo,I,o,154,1,1633.1000003814697,290213.0,9005,WL,A,1.0
2,1.8339998722076416,learn,58166.00012779236,Wed Nov 13 2024 10:46:09 GMT-0500 (Eastern Standard Time),292046.30000019073,A,book,I,k,180,1,1833.3000001907349,290213.0,9005,WL,A,1.0
2,2.299999952316284,learn,57700.000047683716,Wed Nov 13 2024 10:46:09 GMT-0500 (Eastern Standard Time),292512.30000019073,A,bookenter,I,enter,433,1,2299.300000190735,290213.0,9005,WL,A,1.0
2,2.682999849319458,learn,57317.00015068054,Wed Nov 13 2024 10:46:09 GMT-0500 (Eastern Standard Time),292896.2000002861,A,t,I,t,364,1,383.5,292512.7000002861,9005,WL,A,2.0
2,2.9159998893737793,learn,57084.00011062622,Wed Nov 13 2024 10:46:09 GMT-0500 (Eastern Standard Time),293129.10000038147,A,tr,I,r,216,1,616.4000000953674,292512.7000002861,9005,WL,A,2.0
2,3.132999897003174,learn,56867.000102996826,Wed Nov 13 2024 10:46:09 GMT-0500 (Eastern Standard Time),293345.5,A,tra,I,a,193,1,832.7999997138977,292512.7000002861,9005,WL,A,2.0
2,3.2330000400543213,learn,56766.99995994568,Wed Nov 13 2024 10:46:09 GMT-0500 (Eastern Standard Time),293446.0,A,trai,I,i,90,1,933.2999997138977,292512.7000002861,9005,WL,A,2.0
2,3.450000047683716,learn,56549.999952316284,Wed Nov 13 2024 10:46:09 GMT-0500 (Eastern Standard Time),293662.80000019073,A,train,I,n,193,1,1150.0999999046326,292512.7000002861,9005,WL,A,2.0
2,3.7330000400543213,learn,56266.99995994568,Wed Nov 13 2024 10:46:09 GMT-0500 (Eastern Standard Time),293945.60000038147,A,trainenter,I,enter,257,1,1432.9000000953674,292512.7000002861,9005,WL,A,2.0
2,4.132999897003174,learn,55867.000102996826,Wed Nov 13 2024 10:46:09 GMT-0500 (Eastern Standard Time),294346.10000038147,A,m,I,m,387,1,400.1000003814697,293946.0,9005,WL,A,3.0
2,4.266999959945679,learn,55733.00004005432,Wed Nov 13 2024 10:46:09 GMT-0500 (Eastern Standard Time),294479.30000019073,A,me,I,e,111,1,533.3000001907349,293946.0,9005,WL,A,3.0
2,4.4670000076293945,learn,55532.999992370605,Wed Nov 13 2024 10:46:09 GMT-0500 (Eastern Standard Time),294679.5,A,mea,I,a,186,1,733.5,293946.0,9005,WL,A,3.0
2,4.75,learn,55250.0,Wed Nov 13 2024 10:46:09 GMT-0500 (Eastern Standard Time),294962.80000019073,A,mead,I,d,257,1,1016.8000001907349,293946.0,9005,WL,A,3.0
2,4.983000040054321,learn,55016.99995994568,Wed Nov 13 2024 10:46:09 GMT-0500 (Eastern Standard Time),295196.10000038147,A,meado,I,o,214,1,1250.1000003814697,293946.0,9005,WL,A,3.0
2,5.233999967575073,learn,54766.00003242493,Wed Nov 13 2024 10:46:09 GMT-0500 (Eastern Standard Time),295446.10000038147,A,meadow,I,w,237,1,1500.1000003814697,293946.0,9005,WL,A,3.0
2,5.533999919891357,learn,54466.00008010864,Wed Nov 13 2024 10:46:09 GMT-0500 (Eastern Standard Time),295745.60000038147,A,meadowenter,I,enter,274,1,1799.6000003814697,293946.0,9005,WL,A,3.0
2,5.917999982833862,learn,54082.00001716614,Wed Nov 13 2024 10:46:09 GMT-0500 (Eastern Standard Time),296129.5,A,l,I,l,363,1,383.5,295746.0,9005,WL,A,4.0
2,6.101000070571899,learn,53898.9999294281,Wed Nov 13 2024 10:46:09 GMT-0500 (Eastern Standard Time),296312.80000019073,A,lo,I,o,168,1,566.8000001907349,295746.0,9005,WL,A,4.0
2,6.283999919891357,learn,53716.00008010864,Wed Nov 13 2024 10:46:09 GMT-0500 (Eastern Standard Time),296496.2000002861,A,log,I,g,160,1,750.2000002861023,295746.0,9005,WL,A,4.0
2,6.4670000076293945,learn,53532.999992370605,Wed Nov 13 2024 10:46:09 GMT-0500 (Eastern Standard Time),296679.0,A,logenter,I,enter,169,1,933.0,295746.0,9005,WL,A,4.0
2,7.568000078201294,learn,52431.999921798706,Wed Nov 13 2024 10:46:09 GMT-0500 (Eastern Standard Time),297779.40000009537,A,f,I,f,1093,1,1099.9000000953674,296679.5,9005,WL,A,5.0
2,7.700999975204468,learn,52299.00002479553,Wed Nov 13 2024 10:46:09 GMT-0500 (Eastern Standard Time),297912.80000019073,A,fl,I,l,116,1,1233.3000001907349,296679.5,9005,WL,A,5.0
2,7.934000015258789,learn,52065.99998474121,Wed Nov 13 2024 10:46:09 GMT-0500 (Eastern Standard Time),298145.80000019073,A,flo,I,o,206,1,1466.3000001907349,296679.5,9005,WL,A,5.0
2,8.01799988746643,learn,51982.00011253357,Wed Nov 13 2024 10:46:09 GMT-0500 (Eastern Standard Time),298229.5,A,flow,I,w,72,1,1550.0,296679.5,9005,WL,A,5.0
2,8.151000022888184,learn,51848.99997711182,Wed Nov 13 2024 10:46:09 GMT-0500 (Eastern Standard Time),298363.10000038147,A,flowe,I,e,114,1,1683.6000003814697,296679.5,9005,WL,A,5.0
2,8.26799988746643,learn,51732.00011253357,Wed Nov 13 2024 10:46:09 GMT-0500 (Eastern Standard Time),298479.60000038147,A,flower,I,r,85,1,1800.1000003814697,296679.5,9005,WL,A,5.0
2,8.700999975204468,learn,51299.00002479553,Wed Nov 13 2024 10:46:09 GMT-0500 (Eastern Standard Time),298912.30000019073,A,flowerenter,I,enter,402,1,2232.800000190735,296679.5,9005,WL,A,5.0
2,9.033999919891357,learn,50966.00008010864,Wed Nov 13 2024 10:46:09 GMT-0500 (Eastern Standard Time),299246.2000002861,A,r,I,r,315,1,333.30000019073486,298912.90000009537,9005,WL,A,6.0
2,9.184000015258789,learn,50815.99998474121,Wed Nov 13 2024 10:46:09 GMT-0500 (Eastern Standard Time),299396.0,A,ra,I,a,138,1,483.09999990463257,298912.90000009537,9005,WL,A,6.0
2,9.333999872207642,learn,50666.00012779236,Wed Nov 13 2024 10:46:09 GMT-0500 (Eastern Standard Time),299546.0,A,rat,I,t,135,1,633.0999999046326,298912.90000009537,9005,WL,A,6.0
2,9.533999919891357,learn,50466.00008010864,Wed Nov 13 2024 10:46:09 GMT-0500 (Eastern Standard Time),299746.2000002861,A,ratt,I,t,168,1,833.3000001907349,298912.90000009537,9005,WL,A,6.0
2,9.634000062942505,learn,50365.999937057495,Wed Nov 13 2024 10:46:09 GMT-0500 (Eastern Standard Time),299846.10000038147,A,rattl,I,l,86,1,933.2000002861023,298912.90000009537,9005,WL,A,6.0
2,9.750999927520752,learn,50249.00007247925,Wed Nov 13 2024 10:46:09 GMT-0500 (Eastern Standard Time),299962.90000009537,A,rattle,I,e,100,1,1050.0,298912.90000009537,9005,WL,A,6.0
2,9.967000007629395,learn,50032.999992370605,Wed Nov 13 2024 10:46:09 GMT-0500 (Eastern Standard Time),300178.7000002861,A,rattleenter,I,enter,203,1,1265.8000001907349,298912.90000009537,9005,WL,A,6.0
2,11.217999935150146,learn,48782.00006484985,Wed Nov 13 2024 10:46:09 GMT-0500 (Eastern Standard Time),301429.5,A,k,I,k,1242,1,1250.5999999046326,300178.90000009537,9005,WL,A,7.0
2,11.368000030517578,learn,48631.99996948242,Wed Nov 13 2024 10:46:09 GMT-0500 (Eastern Standard Time),301579.60000038147,A,ke,I,e,130,1,1400.7000002861023,300178.90000009537,9005,WL,A,7.0
2,11.6010000705719,learn,48398.9999294281,Wed Nov 13 2024 10:46:09 GMT-0500 (Eastern Standard Time),301812.80000019073,A,key,I,y,221,1,1633.9000000953674,300178.90000009537,9005,WL,A,7.0
2,11.967999935150146,learn,48032.00006484985,Wed Nov 13 2024 10:46:09 GMT-0500 (Eastern Standard Time),302180.0,A,keyenter,I,enter,353,1,2001.0999999046326,300178.90000009537,9005,WL,A,7.0
2,12.318000078201294,learn,47681.999921798706,Wed Nov 13 2024 10:46:09 GMT-0500 (Eastern Standard Time),302529.5,A,a,I,a,328,1,349.09999990463257,302180.40000009537,9005,WL,A,8.0
2,12.450999975204468,learn,47549.00002479553,Wed Nov 13 2024 10:46:09 GMT-0500 (Eastern Standard Time),302662.90000009537,A,ap,I,p,120,1,482.5,302180.40000009537,9005,WL,A,8.0
2,12.618000030517578,learn,47381.99996948242,Wed Nov 13 2024 10:46:09 GMT-0500 (Eastern Standard Time),302829.40000009537,A,app,I,p,139,1,649.0,302180.40000009537,9005,WL,A,8.0
2,12.818000078201294,learn,47181.999921798706,Wed Nov 13 2024 10:46:09 GMT-0500 (Eastern Standard Time),303029.30000019073,A,appl,I,l,187,1,848.9000000953674,302180.40000009537,9005,WL,A,8.0
2,12.917999982833862,learn,47082.00001716614,Wed Nov 13 2024 10:46:09 GMT-0500 (Eastern Standard Time),303129.5,A,apple,I,e,83,1,949.0999999046326,302180.40000009537,9005,WL,A,8.0
2,13.134000062942505,learn,46865.999937057495,Wed Nov 13 2024 10:46:09 GMT-0500 (Eastern Standard Time),303345.7000002861,A,appleenter,I,enter,183,1,1165.3000001907349,302180.40000009537,9005,WL,A,8.0
2,14.250999927520752,learn,45749.00007247925,Wed Nov 13 2024 10:46:09 GMT-0500 (Eastern Standard Time),304462.80000019073,A,f,I,f,1099,1,1116.8000001907349,303346.0,9005,WL,A,9.0
2,14.300999879837036,learn,45699.000120162964,Wed Nov 13 2024 10:46:09 GMT-0500 (Eastern Standard Time),304512.60000038147,A,fi,I,i,27,1,1166.6000003814697,303346.0,9005,WL,A,9.0
2,14.500999927520752,learn,45499.00007247925,Wed Nov 13 2024 10:46:09 GMT-0500 (Eastern Standard Time),304713.0,A,fin,I,n,176,1,1367.0,303346.0,9005,WL,A,9.0
2,14.568000078201294,learn,45431.999921798706,Wed Nov 13 2024 10:46:09 GMT-0500 (Eastern Standard Time),304779.5,A,fing,I,g,47,1,1433.5,303346.0,9005,WL,A,9.0
2,14.76799988746643,learn,45232.00011253357,Wed Nov 13 2024 10:46:09 GMT-0500 (Eastern Standard Time),304979.40000009537,A,finge,I,e,167,1,1633.4000000953674,303346.0,9005,WL,A,9.0
2,14.866999864578247,learn,45133.00013542175,Wed Nov 13 2024 10:46:09 GMT-0500 (Eastern Standard Time),305078.60000038147,A,finger,I,r,84,1,1732.6000003814697,303346.0,9005,WL,A,9.0
2,15.049999952316284,learn,44950.000047683716,Wed Nov 13 2024 10:46:09 GMT-0500 (Eastern Standard Time),305262.2000002861,A,fingerenter,I,enter,165,1,1916.2000002861023,303346.0,9005,WL,A,9.0
2,17.901000022888184,learn,42098.99997711182,Wed Nov 13 2024 10:46:09 GMT-0500 (Eastern Standard Time),308112.7000002861,A,l,I,l,2830,1,2850.0999999046326,305262.60000038147,9005,WL,A,10.0
2,18.1010000705719,learn,41898.9999294281,Wed Nov 13 2024 10:46:09 GMT-0500 (Eastern Standard Time),308312.80000019073,A,lo,I,o,185,1,3050.199999809265,305262.60000038147,9005,WL,A,10.0
2,18.300999879837036,learn,41699.000120162964,Wed Nov 13 2024 10:46:09 GMT-0500 (Eastern Standard Time),308512.40000009537,A,log,I,g,175,1,3249.7999997138977,305262.60000038147,9005,WL,A,10.0
2,18.483999967575073,learn,41516.00003242493,Wed Nov 13 2024 10:46:09 GMT-0500 (Eastern Standard Time),308695.7000002861,A,logenter,I,enter,171,1,3433.0999999046326,305262.60000038147,9005,WL,A,10.0
2,18.967000007629395,learn,41032.999992370605,Wed Nov 13 2024 10:46:09 GMT-0500 (Eastern Standard Time),309179.0,A,r,I,r,468,1,482.8999996185303,308696.10000038147,9005,WL,A,11.0
2,19.050999879837036,learn,40949.000120162964,Wed Nov 13 2024 10:46:09 GMT-0500 (Eastern Standard Time),309262.90000009537,A,ru,I,u,63,1,566.7999997138977,308696.10000038147,9005,WL,A,11.0
2,19.283999919891357,learn,40716.00008010864,Wed Nov 13 2024 10:46:09 GMT-0500 (Eastern Standard Time),309496.2000002861,A,rug,I,g,212,1,800.0999999046326,308696.10000038147,9005,WL,A,11.0
2,19.618000030517578,learn,40381.99996948242,Wed Nov 13 2024 10:46:09 GMT-0500 (Eastern Standard Time),309830.0,A,rugenter,I,enter,321,1,1133.8999996185303,308696.10000038147,9005,WL,A,11.0
2,22.550999879837036,learn,37449.000120162964,Wed Nov 13 2024 10:46:09 GMT-0500 (Eastern Standard Time),312762.90000009537,A,d,I,d,2918,1,2932.5,309830.40000009537,9005,WL,A,12.0
2,22.651000022888184,learn,37348.99997711182,Wed Nov 13 2024 10:46:09 GMT-0500 (Eastern Standard Time),312862.40000009537,A,do,I,o,69,1,3032.0,309830.40000009537,9005,WL,A,12.0
2,22.83399987220764,learn,37166.00012779236,Wed Nov 13 2024 10:46:09 GMT-0500 (Eastern Standard Time),313046.2000002861,A,doo,I,o,172,1,3215.800000190735,309830.40000009537,9005,WL,A,12.0
2,22.93400001525879,learn,37065.99998474121,Wed Nov 13 2024 10:46:09 GMT-0500 (Eastern Standard Time),313145.60000038147,A,door,I,r,75,1,3315.2000002861023,309830.40000009537,9005,WL,A,12.0
2,23.1010000705719,learn,36898.9999294281,Wed Nov 13 2024 10:46:09 GMT-0500 (Eastern Standard Time),313312.30000019073,A,doorenter,I,enter,143,1,3481.9000000953674,309830.40000009537,9005,WL,A,12.0
2,25.118000030517578,learn,34881.99996948242,Wed Nov 13 2024 10:46:09 GMT-0500 (Eastern Standard Time),315329.5,A,w,I,w,1996,1,2016.7999997138977,313312.7000002861,9005,WL,A,13.0
2,25.16700005531311,learn,34832.99994468689,Wed Nov 13 2024 10:46:09 GMT-0500 (Eastern Standard Time),315378.7000002861,A,wi,I,i,38,1,2066.0,313312.7000002861,9005,WL,A,13.0
2,25.3510000705719,learn,34648.9999294281,Wed Nov 13 2024 10:46:09 GMT-0500 (Eastern Standard Time),315562.90000009537,A,win,I,n,168,1,2250.199999809265,313312.7000002861,9005,WL,A,13.0
2,25.450999975204468,learn,34549.00002479553,Wed Nov 13 2024 10:46:09 GMT-0500 (Eastern Standard Time),315662.7000002861,A,wind,I,d,71,1,2350.0,313312.7000002861,9005,WL,A,13.0
2,25.568000078201294,learn,34431.999921798706,Wed Nov 13 2024 10:46:09 GMT-0500 (Eastern Standard Time),315779.7000002861,A,windo,I,o,91,1,2467.0,313312.7000002861,9005,WL,A,13.0
2,25.616999864578247,learn,34383.00013542175,Wed Nov 13 2024 10:46:09 GMT-0500 (Eastern Standard Time),315829.10000038147,A,window,I,w,29,1,2516.4000000953674,313312.7000002861,9005,WL,A,13.0
2,25.816999912261963,learn,34183.00008773804,Wed Nov 13 2024 10:46:09 GMT-0500 (Eastern Standard Time),316028.90000009537,A,windowenter,I,enter,182,1,2716.199999809265,313312.7000002861,9005,WL,A,13.0
2,28.651000022888184,learn,31348.999977111816,Wed Nov 13 2024 10:46:09 GMT-0500 (Eastern Standard Time),318862.5,A,c,I,c,2814,1,2833.199999809265,316029.30000019073,9005,WL,A,14.0
2,28.983999967575073,learn,31016.000032424927,Wed Nov 13 2024 10:46:09 GMT-0500 (Eastern Standard Time),319196.2000002861,A,ch,I,h,316,1,3166.9000000953674,316029.30000019073,9005,WL,A,14.0
2,29.200999975204468,learn,30799.000024795532,Wed Nov 13 2024 10:46:09 GMT-0500 (Eastern Standard Time),319412.7000002861,A,chi,I,i,204,1,3383.4000000953674,316029.30000019073,9005,WL,A,14.0
2,29.450999975204468,learn,30549.000024795532,Wed Nov 13 2024 10:46:09 GMT-0500 (Eastern Standard Time),319662.7000002861,A,chim,I,m,229,1,3633.4000000953674,316029.30000019073,9005,WL,A,14.0
2,29.83399987220764,learn,30166.00012779236,Wed Nov 13 2024 10:46:09 GMT-0500 (Eastern Standard Time),320046.0,A,chimn,I,n,363,1,4016.699999809265,316029.30000019073,9005,WL,A,14.0
2,30.134999990463257,learn,29865.000009536743,Wed Nov 13 2024 10:46:09 GMT-0500 (Eastern Standard Time),320346.5,A,chimne,I,e,284,1,4317.199999809265,316029.30000019073,9005,WL,A,14.0
2,30.318000078201294,learn,29681.999921798706,Wed Nov 13 2024 10:46:09 GMT-0500 (Eastern Standard Time),320529.60000038147,A,chimney,I,y,162,1,4500.300000190735,316029.30000019073,9005,WL,A,14.0
2,30.616999864578247,learn,29383.000135421753,Wed Nov 13 2024 10:46:09 GMT-0500 (Eastern Standard Time),320829.0,A,chimneyenter,I,enter,272,1,4799.699999809265,316029.30000019073,9005,WL,A,14.0
2,41.33399987220764,learn,18666.00012779236,Wed Nov 13 2024 10:46:09 GMT-0500 (Eastern Standard Time),331546.30000019073,A,a,I,a,10703,1,10716.900000095367,320829.40000009537,9005,WL,A,15.0
2,41.50099992752075,learn,18499.000072479248,Wed Nov 13 2024 10:46:09 GMT-0500 (Eastern Standard Time),331712.90000009537,A,ap,I,p,143,1,10883.5,320829.40000009537,9005,WL,A,15.0
2,41.634000062942505,learn,18365.999937057495,Wed Nov 13 2024 10:46:09 GMT-0500 (Eastern Standard Time),331846.10000038147,A,app,I,p,120,1,11016.700000286102,320829.40000009537,9005,WL,A,15.0
2,41.86800003051758,learn,18131.999969482422,Wed Nov 13 2024 10:46:09 GMT-0500 (Eastern Standard Time),332079.5,A,appl,I,l,210,1,11250.099999904633,320829.40000009537,9005,WL,A,15.0
2,41.95099997520447,learn,18049.000024795532,Wed Nov 13 2024 10:46:09 GMT-0500 (Eastern Standard Time),332162.90000009537,A,apple,I,e,57,1,11333.5,320829.40000009537,9005,WL,A,15.0
2,42.1010000705719,learn,17898.9999294281,Wed Nov 13 2024 10:46:09 GMT-0500 (Eastern Standard Time),332312.30000019073,A,appleenter,I,enter,126,1,11482.900000095367,320829.40000009537,9005,WL,A,15.0
3,1.4670000076293945,learn,58532.999992370605,Wed Nov 13 2024 10:46:09 GMT-0500 (Eastern Standard Time),408863.10000038147,A,b,I,b,1447,1,1466.7000002861023,407396.40000009537,9005,WL,A,1.0
3,1.8329999446868896,learn,58167.00005531311,Wed Nov 13 2024 10:46:09 GMT-0500 (Eastern Standard Time),409229.2000002861,A,bo,I,o,345,1,1832.8000001907349,407396.40000009537,9005,WL,A,1.0
3,2.0169999599456787,learn,57983.00004005432,Wed Nov 13 2024 10:46:09 GMT-0500 (Eastern Standard Time),409412.80000019073,A,boo,I,o,174,1,2016.4000000953674,407396.40000009537,9005,WL,A,1.0
3,2.2339999675750732,learn,57766.00003242493,Wed Nov 13 2024 10:46:09 GMT-0500 (Eastern Standard Time),409629.7000002861,A,book,I,k,189,1,2233.300000190735,407396.40000009537,9005,WL,A,1.0
3,2.6499998569488525,learn,57350.00014305115,Wed Nov 13 2024 10:46:09 GMT-0500 (Eastern Standard Time),410045.80000019073,A,bookenter,I,enter,386,1,2649.4000000953674,407396.40000009537,9005,WL,A,1.0
3,3.4170000553131104,learn,56582.99994468689,Wed Nov 13 2024 10:46:09 GMT-0500 (Eastern Standard Time),410812.30000019073,A,t,I,t,749,1,766.0999999046326,410046.2000002861,9005,WL,A,2.0
3,3.6499998569488525,learn,56350.00014305115,Wed Nov 13 2024 10:46:09 GMT-0500 (Eastern Standard Time),411046.2000002861,A,tr,I,r,221,1,1000.0,410046.2000002861,9005,WL,A,2.0
3,3.866999864578247,learn,56133.00013542175,Wed Nov 13 2024 10:46:09 GMT-0500 (Eastern Standard Time),411263.0,A,tra,I,a,194,1,1216.7999997138977,410046.2000002861,9005,WL,A,2.0
3,3.9839999675750732,learn,56016.00003242493,Wed Nov 13 2024 10:46:09 GMT-0500 (Eastern Standard Time),411379.7000002861,A,trai,I,i,90,1,1333.5,410046.2000002861,9005,WL,A,2.0
3,4.233999967575073,learn,55766.00003242493,Wed Nov 13 2024 10:46:09 GMT-0500 (Eastern Standard Time),411629.7000002861,A,train,I,n,222,1,1583.5,410046.2000002861,9005,WL,A,2.0
3,4.682999849319458,learn,55317.00015068054,Wed Nov 13 2024 10:46:09 GMT-0500 (Eastern Standard Time),412079.0,A,trainenter,I,enter,427,1,2032.7999997138977,410046.2000002861,9005,WL,A,2.0
3,5.065999984741211,learn,54934.00001525879,Wed Nov 13 2024 10:46:09 GMT-0500 (Eastern Standard Time),412462.2000002861,A,h,I,h,364,1,382.80000019073486,412079.40000009537,9005,WL,A,3.0
3,5.266999959945679,learn,54733.00004005432,Wed Nov 13 2024 10:46:09 GMT-0500 (Eastern Standard Time),412662.90000009537,A,ha,I,a,190,1,583.5,412079.40000009537,9005,WL,A,3.0
3,5.450000047683716,learn,54549.999952316284,Wed Nov 13 2024 10:46:09 GMT-0500 (Eastern Standard Time),412845.80000019073,A,har,I,r,162,1,766.4000000953674,412079.40000009537,9005,WL,A,3.0
3,5.66700005531311,learn,54332.99994468689,Wed Nov 13 2024 10:46:09 GMT-0500 (Eastern Standard Time),413063.0,A,harp,I,p,206,1,983.5999999046326,412079.40000009537,9005,WL,A,3.0
3,6.16700005531311,learn,53832.99994468689,Wed Nov 13 2024 10:46:09 GMT-0500 (Eastern Standard Time),413562.40000009537,A,harpenter,I,enter,474,1,1483.0,412079.40000009537,9005,WL,A,3.0
3,6.91700005531311,learn,53082.99994468689,Wed Nov 13 2024 10:46:09 GMT-0500 (Eastern Standard Time),414312.90000009537,A,m,I,m,738,1,750.0999999046326,413562.80000019073,9005,WL,A,4.0
3,7.0329999923706055,learn,52967.000007629395,Wed Nov 13 2024 10:46:09 GMT-0500 (Eastern Standard Time),414429.2000002861,A,me,I,e,96,1,866.4000000953674,413562.80000019073,9005,WL,A,4.0
3,7.16700005531311,learn,52832.99994468689,Wed Nov 13 2024 10:46:09 GMT-0500 (Eastern Standard Time),414562.80000019073,A,mea,I,a,109,1,1000.0,413562.80000019073,9005,WL,A,4.0
3,7.401000022888184,learn,52598.99997711182,Wed Nov 13 2024 10:46:09 GMT-0500 (Eastern Standard Time),414796.40000009537,A,mead,I,d,207,1,1233.5999999046326,413562.80000019073,9005,WL,A,4.0
3,7.516999959945679,learn,52483.00004005432,Wed Nov 13 2024 10:46:09 GMT-0500 (Eastern Standard Time),414912.7000002861,A,meado,I,o,93,1,1349.9000000953674,413562.80000019073,9005,WL,A,4.0
3,7.66700005531311,learn,52332.99994468689,Wed Nov 13 2024 10:46:09 GMT-0500 (Eastern Standard Time),415063.0,A,meadow,I,w,137,1,1500.1999998092651,413562.80000019073,9005,WL,A,4.0
3,8.016999959945679,learn,51983.00004005432,Wed Nov 13 2024 10:46:09 GMT-0500 (Eastern Standard Time),415412.40000009537,A,meadowenter,I,enter,338,1,1849.5999999046326,413562.80000019073,9005,WL,A,4.0
3,8.384000062942505,learn,51615.999937057495,Wed Nov 13 2024 10:46:09 GMT-0500 (Eastern Standard Time),415779.7000002861,A,a,I,a,360,1,366.80000019073486,415412.90000009537,9005,WL,A,5.0
3,8.5,learn,51500.0,Wed Nov 13 2024 10:46:09 GMT-0500 (Eastern Standard Time),415896.2000002861,A,ap,I,p,103,1,483.30000019073486,415412.90000009537,9005,WL,A,5.0
3,8.66700005531311,learn,51332.99994468689,Wed Nov 13 2024 10:46:09 GMT-0500 (Eastern Standard Time),416063.0,A,app,I,p,138,1,650.0999999046326,415412.90000009537,9005,WL,A,5.0
3,8.849999904632568,learn,51150.00009536743,Wed Nov 13 2024 10:46:09 GMT-0500 (Eastern Standard Time),416246.30000019073,A,appl,I,l,164,1,833.4000000953674,415412.90000009537,9005,WL,A,5.0
3,8.950000047683716,learn,51049.999952316284,Wed Nov 13 2024 10:46:09 GMT-0500 (Eastern Standard Time),416346.10000038147,A,apple,I,e,83,1,933.2000002861023,415412.90000009537,9005,WL,A,5.0
3,9.132999897003174,learn,50867.000102996826,Wed Nov 13 2024 10:46:09 GMT-0500 (Eastern Standard Time),416529.10000038147,A,appleenter,I,enter,149,1,1116.2000002861023,415412.90000009537,9005,WL,A,5.0
3,9.58299994468689,learn,50417.00005531311,Wed Nov 13 2024 10:46:09 GMT-0500 (Eastern Standard Time),416979.0,A,r,I,r,428,1,449.5,416529.5,9005,WL,A,6.0
3,9.816999912261963,learn,50183.00008773804,Wed Nov 13 2024 10:46:09 GMT-0500 (Eastern Standard Time),417213.0,A,ru,I,u,217,1,683.5,416529.5,9005,WL,A,6.0
3,10.099999904632568,learn,49900.00009536743,Wed Nov 13 2024 10:46:09 GMT-0500 (Eastern Standard Time),417495.7000002861,A,rug,I,g,267,1,966.2000002861023,416529.5,9005,WL,A,6.0
3,10.299999952316284,learn,49700.000047683716,Wed Nov 13 2024 10:46:09 GMT-0500 (Eastern Standard Time),417695.80000019073,A,rugenter,I,enter,180,1,1166.3000001907349,416529.5,9005,WL,A,6.0
3,10.649999856948853,learn,49350.00014305115,Wed Nov 13 2024 10:46:09 GMT-0500 (Eastern Standard Time),418045.80000019073,A,l,I,l,332,1,349.59999990463257,417696.2000002861,9005,WL,A,7.0
3,10.849999904632568,learn,49150.00009536743,Wed Nov 13 2024 10:46:09 GMT-0500 (Eastern Standard Time),418246.10000038147,A,lo,I,o,187,1,549.9000000953674,417696.2000002861,9005,WL,A,7.0
3,11.083999872207642,learn,48916.00012779236,Wed Nov 13 2024 10:46:09 GMT-0500 (Eastern Standard Time),418479.7000002861,A,log,I,g,204,1,783.5,417696.2000002861,9005,WL,A,7.0
3,11.399999856948853,learn,48600.00014305115,Wed Nov 13 2024 10:46:09 GMT-0500 (Eastern Standard Time),418795.80000019073,A,logenter,I,enter,297,1,1099.5999999046326,417696.2000002861,9005,WL,A,7.0
3,14.41700005531311,learn,45582.99994468689,Wed Nov 13 2024 10:46:09 GMT-0500 (Eastern Standard Time),421813.0,A,s,I,s,3008,1,3016.7999997138977,418796.2000002861,9005,WL,A,8.0
3,14.599999904632568,learn,45400.00009536743,Wed Nov 13 2024 10:46:09 GMT-0500 (Eastern Standard Time),421996.10000038147,A,sa,I,a,163,1,3199.9000000953674,418796.2000002861,9005,WL,A,8.0
3,14.717000007629395,learn,45282.999992370605,Wed Nov 13 2024 10:46:09 GMT-0500 (Eastern Standard Time),422112.80000019073,A,sal,I,l,86,1,3316.5999999046326,418796.2000002861,9005,WL,A,8.0
3,14.934000015258789,learn,45065.99998474121,Wed Nov 13 2024 10:46:09 GMT-0500 (Eastern Standard Time),422329.60000038147,A,salt,I,t,194,1,3533.4000000953674,418796.2000002861,9005,WL,A,8.0
3,15.649999856948853,learn,44350.00014305115,Wed Nov 13 2024 10:46:09 GMT-0500 (Eastern Standard Time),423045.7000002861,A,saltenter,I,enter,703,1,4249.5,418796.2000002861,9005,WL,A,8.0
3,16.450000047683716,learn,43549.999952316284,Wed Nov 13 2024 10:46:09 GMT-0500 (Eastern Standard Time),423846.10000038147,A,r,I,r,791,1,800.0,423046.10000038147,9005,WL,A,9.0
3,16.634000062942505,learn,43365.999937057495,Wed Nov 13 2024 10:46:09 GMT-0500 (Eastern Standard Time),424029.80000019073,A,ra,I,a,164,1,983.6999998092651,423046.10000038147,9005,WL,A,9.0
3,16.83299994468689,learn,43167.00005531311,Wed Nov 13 2024 10:46:09 GMT-0500 (Eastern Standard Time),424229.10000038147,A,rat,I,t,179,1,1183.0,423046.10000038147,9005,WL,A,9.0
3,17.033999919891357,learn,42966.00008010864,Wed Nov 13 2024 10:46:09 GMT-0500 (Eastern Standard Time),424429.80000019073,A,ratt,I,t,183,1,1383.6999998092651,423046.10000038147,9005,WL,A,9.0
3,17.134000062942505,learn,42865.999937057495,Wed Nov 13 2024 10:46:09 GMT-0500 (Eastern Standard Time),424529.30000019073,A,rattl,I,l,67,1,1483.1999998092651,423046.10000038147,9005,WL,A,9.0
3,17.217000007629395,learn,42782.999992370605,Wed Nov 13 2024 10:46:09 GMT-0500 (Eastern Standard Time),424612.60000038147,A,rattle,I,e,64,1,1566.5,423046.10000038147,9005,WL,A,9.0
3,17.450000047683716,learn,42549.999952316284,Wed Nov 13 2024 10:46:09 GMT-0500 (Eastern Standard Time),424845.7000002861,A,rattleenter,I,enter,213,1,1799.5999999046326,423046.10000038147,9005,WL,A,9.0
3,20.066999912261963,learn,39933.00008773804,Wed Nov 13 2024 10:46:09 GMT-0500 (Eastern Standard Time),427462.90000009537,A,c,I,c,2607,1,2616.9000000953674,424846.0,9005,WL,A,10.0
3,20.26699995994568,learn,39733.00004005432,Wed Nov 13 2024 10:46:09 GMT-0500 (Eastern Standard Time),427663.0,A,ch,I,h,179,1,2817.0,424846.0,9005,WL,A,10.0
3,20.399999856948853,learn,39600.00014305115,Wed Nov 13 2024 10:46:09 GMT-0500 (Eastern Standard Time),427795.90000009537,A,chi,I,i,116,1,2949.9000000953674,424846.0,9005,WL,A,10.0
3,20.634000062942505,learn,39365.999937057495,Wed Nov 13 2024 10:46:09 GMT-0500 (Eastern Standard Time),428029.5,A,chim,I,m,215,1,3183.5,424846.0,9005,WL,A,10.0
3,20.799999952316284,learn,39200.000047683716,Wed Nov 13 2024 10:46:09 GMT-0500 (Eastern Standard Time),428195.80000019073,A,chimn,I,n,156,1,3349.800000190735,424846.0,9005,WL,A,10.0
3,20.91700005531311,learn,39082.99994468689,Wed Nov 13 2024 10:46:09 GMT-0500 (Eastern Standard Time),428313.0,A,chimne,I,e,101,1,3467.0,424846.0,9005,WL,A,10.0
3,21.149999856948853,learn,38850.00014305115,Wed Nov 13 2024 10:46:09 GMT-0500 (Eastern Standard Time),428546.2000002861,A,chimney,I,y,208,1,3700.2000002861023,424846.0,9005,WL,A,10.0
3,21.432999849319458,learn,38567.00015068054,Wed Nov 13 2024 10:46:09 GMT-0500 (Eastern Standard Time),428829.2000002861,A,chimneyenter,I,enter,260,1,3983.2000002861023,424846.0,9005,WL,A,10.0
3,21.799999952316284,learn,38200.000047683716,Wed Nov 13 2024 10:46:09 GMT-0500 (Eastern Standard Time),429196.2000002861,A,g,I,g,351,1,366.59999990463257,428829.60000038147,9005,WL,A,11.0
3,21.866999864578247,learn,38133.00013542175,Wed Nov 13 2024 10:46:09 GMT-0500 (Eastern Standard Time),429262.5,A,go,I,o,43,1,432.8999996185303,428829.60000038147,9005,WL,A,11.0
3,22.09999990463257,learn,37900.00009536743,Wed Nov 13 2024 10:46:09 GMT-0500 (Eastern Standard Time),429496.2000002861,A,gol,I,l,220,1,666.5999999046326,428829.60000038147,9005,WL,A,11.0
3,22.18400001525879,learn,37815.99998474121,Wed Nov 13 2024 10:46:09 GMT-0500 (Eastern Standard Time),429579.7000002861,A,gold,I,d,65,1,750.0999999046326,428829.60000038147,9005,WL,A,11.0
3,22.33299994468689,learn,37667.00005531311,Wed Nov 13 2024 10:46:09 GMT-0500 (Eastern Standard Time),429729.0,A,goldenter,I,enter,118,1,899.3999996185303,428829.60000038147,9005,WL,A,11.0
3,28.533999919891357,learn,31466.000080108643,Wed Nov 13 2024 10:46:09 GMT-0500 (Eastern Standard Time),435929.7000002861,A,f,I,f,6188,1,6200.300000190735,429729.40000009537,9005,WL,A,12.0
3,28.634000062942505,learn,31365.999937057495,Wed Nov 13 2024 10:46:09 GMT-0500 (Eastern Standard Time),436029.5,A,fi,I,i,78,1,6300.099999904633,429729.40000009537,9005,WL,A,12.0
3,28.816999912261963,learn,31183.000087738037,Wed Nov 13 2024 10:46:09 GMT-0500 (Eastern Standard Time),436212.40000009537,A,fin,I,n,164,1,6483.0,429729.40000009537,9005,WL,A,12.0
3,28.901000022888184,learn,31098.999977111816,Wed Nov 13 2024 10:46:09 GMT-0500 (Eastern Standard Time),436296.40000009537,A,fing,I,g,72,1,6567.0,429729.40000009537,9005,WL,A,12.0
3,29.08399987220764,learn,30916.00012779236,Wed Nov 13 2024 10:46:09 GMT-0500 (Eastern Standard Time),436479.5,A,finge,I,e,154,1,6750.099999904633,429729.40000009537,9005,WL,A,12.0
3,29.182999849319458,learn,30817.000150680542,Wed Nov 13 2024 10:46:09 GMT-0500 (Eastern Standard Time),436579.2000002861,A,finger,I,r,90,1,6849.800000190735,429729.40000009537,9005,WL,A,12.0
3,29.316999912261963,learn,30683.000087738037,Wed Nov 13 2024 10:46:09 GMT-0500 (Eastern Standard Time),436712.5,A,fingerenter,I,enter,120,1,6983.099999904633,429729.40000009537,9005,WL,A,12.0
3,36.83399987220764,learn,23166.00012779236,Wed Nov 13 2024 10:46:09 GMT-0500 (Eastern Standard Time),444229.60000038147,A,r,I,r,7507,1,7516.700000286102,436712.90000009537,9005,WL,A,13.0
3,36.98300004005432,learn,23016.99995994568,Wed Nov 13 2024 10:46:09 GMT-0500 (Eastern Standard Time),444379.30000019073,A,ru,I,u,128,1,7666.400000095367,436712.90000009537,9005,WL,A,13.0
3,37.200000047683716,learn,22799.999952316284,Wed Nov 13 2024 10:46:09 GMT-0500 (Eastern Standard Time),444595.90000009537,A,rug,I,g,208,1,7883.0,436712.90000009537,9005,WL,A,13.0
3,37.282999992370605,learn,22717.000007629395,Wed Nov 13 2024 10:46:09 GMT-0500 (Eastern Standard Time),444679.2000002861,A,rugenter,I,enter,68,1,7966.300000190735,436712.90000009537,9005,WL,A,13.0
3,42.217000007629395,learn,17782.999992370605,Wed Nov 13 2024 10:46:09 GMT-0500 (Eastern Standard Time),449613.0,A,f,I,f,4917,1,4933.5,444679.5,9005,WL,A,14.0
3,42.26699995994568,learn,17733.00004005432,Wed Nov 13 2024 10:46:09 GMT-0500 (Eastern Standard Time),449662.40000009537,A,fl,I,l,21,1,4982.900000095367,444679.5,9005,WL,A,14.0
3,42.48399996757507,learn,17516.000032424927,Wed Nov 13 2024 10:46:09 GMT-0500 (Eastern Standard Time),449879.60000038147,A,flo,I,o,207,1,5200.10000038147,444679.5,9005,WL,A,14.0
3,42.549999952316284,learn,17450.000047683716,Wed Nov 13 2024 10:46:09 GMT-0500 (Eastern Standard Time),449946.10000038147,A,flow,I,w,48,1,5266.60000038147,444679.5,9005,WL,A,14.0
3,42.70099997520447,learn,17299.000024795532,Wed Nov 13 2024 10:46:09 GMT-0500 (Eastern Standard Time),450096.40000009537,A,flowe,I,e,129,1,5416.900000095367,444679.5,9005,WL,A,14.0
3,42.782999992370605,learn,17217.000007629395,Wed Nov 13 2024 10:46:09 GMT-0500 (Eastern Standard Time),450179.2000002861,A,flower,I,r,74,1,5499.700000286102,444679.5,9005,WL,A,14.0
3,42.93299984931946,learn,17067.000150680542,Wed Nov 13 2024 10:46:09 GMT-0500 (Eastern Standard Time),450329.2000002861,A,flowerenter,I,enter,131,1,5649.700000286102,444679.5,9005,WL,A,14.0
3,52.18400001525879,learn,7815.999984741211,Wed Nov 13 2024 10:46:09 GMT-0500 (Eastern Standard Time),459579.60000038147,A,g,I,g,9236,1,9250.10000038147,450329.5,9005,WL,A,15.0
3,52.25099992752075,learn,7749.000072479248,Wed Nov 13 2024 10:46:09 GMT-0500 (Eastern Standard Time),459646.40000009537,A,go,I,o,45,1,9316.900000095367,450329.5,9005,WL,A,15.0
3,52.51699995994568,learn,7483.000040054321,Wed Nov 13 2024 10:46:09 GMT-0500 (Eastern Standard Time),459913.0,A,gol,I,l,241,1,9583.5,450329.5,9005,WL,A,15.0
3,52.73399996757507,learn,7266.000032424927,Wed Nov 13 2024 10:46:09 GMT-0500 (Eastern Standard Time),460129.7000002861,A,gold,I,d,192,1,9800.200000286102,450329.5,9005,WL,A,15.0
3,52.93299984931946,learn,7067.000150680542,Wed Nov 13 2024 10:46:09 GMT-0500 (Eastern Standard Time),460329.10000038147,A,goldenter,I,enter,176,1,9999.60000038147,450329.5,9005,WL,A,15.0
4,1.2839999198913574,learn,58716.00008010864,Wed Nov 13 2024 10:46:09 GMT-0500 (Eastern Standard Time),536396.5,A,b,I,b,1265,1,1283.0,535113.5,9005,WL,A,1.0
4,1.75,learn,58250.0,Wed Nov 13 2024 10:46:09 GMT-0500 (Eastern Standard Time),536862.5,A,bo,I,o,436,1,1749.0,535113.5,9005,WL,A,1.0
4,1.934000015258789,learn,58065.99998474121,Wed Nov 13 2024 10:46:09 GMT-0500 (Eastern Standard Time),537046.4000000954,A,boo,I,o,174,1,1932.9000000953674,535113.5,9005,WL,A,1.0
4,2.132999897003174,learn,57867.000102996826,Wed Nov 13 2024 10:46:09 GMT-0500 (Eastern Standard Time),537246.3000001907,A,book,I,k,172,1,2132.800000190735,535113.5,9005,WL,A,1.0
4,2.4659998416900635,learn,57534.00015830994,Wed Nov 13 2024 10:46:09 GMT-0500 (Eastern Standard Time),537579.1000003815,A,bookenter,I,enter,315,1,2465.6000003814697,535113.5,9005,WL,A,1.0
4,2.7669999599456787,learn,57233.00004005432,Wed Nov 13 2024 10:46:09 GMT-0500 (Eastern Standard Time),537879.4000000954,A,t,I,t,290,1,299.90000009536743,537579.5,9005,WL,A,2.0
4,3.049999952316284,learn,56950.000047683716,Wed Nov 13 2024 10:46:09 GMT-0500 (Eastern Standard Time),538162.9000000954,A,tr,I,r,258,1,583.4000000953674,537579.5,9005,WL,A,2.0
4,3.2330000400543213,learn,56766.99995994568,Wed Nov 13 2024 10:46:09 GMT-0500 (Eastern Standard Time),538346.3000001907,A,tra,I,a,164,1,766.8000001907349,537579.5,9005,WL,A,2.0
4,3.3499999046325684,learn,56650.00009536743,Wed Nov 13 2024 10:46:09 GMT-0500 (Eastern Standard Time),538463.1000003815,A,trai,I,i,89,1,883.6000003814697,537579.5,9005,WL,A,2.0
4,3.566999912261963,learn,56433.00008773804,Wed Nov 13 2024 10:46:09 GMT-0500 (Eastern Standard Time),538679.6000003815,A,train,I,n,195,1,1100.1000003814697,537579.5,9005,WL,A,2.0
4,3.8999998569488525,learn,56100.00014305115,Wed Nov 13 2024 10:46:09 GMT-0500 (Eastern Standard Time),539012.5,A,trainenter,I,enter,321,1,1433.0,537579.5,9005,WL,A,2.0
4,4.349999904632568,learn,55650.00009536743,Wed Nov 13 2024 10:46:09 GMT-0500 (Eastern Standard Time),539462.6000003815,A,m,I,m,439,1,449.6000003814697,539013.0,9005,WL,A,3.0
4,4.483999967575073,learn,55516.00003242493,Wed Nov 13 2024 10:46:09 GMT-0500 (Eastern Standard Time),539596.4000000954,A,me,I,e,118,1,583.4000000953674,539013.0,9005,WL,A,3.0
4,4.633999824523926,learn,55366.000175476074,Wed Nov 13 2024 10:46:09 GMT-0500 (Eastern Standard Time),539746.5,A,mea,I,a,118,1,733.5,539013.0,9005,WL,A,3.0
4,4.849999904632568,learn,55150.00009536743,Wed Nov 13 2024 10:46:09 GMT-0500 (Eastern Standard Time),539962.5,A,mead,I,d,191,1,949.5,539013.0,9005,WL,A,3.0
4,4.9670000076293945,learn,55032.999992370605,Wed Nov 13 2024 10:46:09 GMT-0500 (Eastern Standard Time),540079.6000003815,A,meado,I,o,99,1,1066.6000003814697,539013.0,9005,WL,A,3.0
4,5.116999864578247,learn,54883.00013542175,Wed Nov 13 2024 10:46:09 GMT-0500 (Eastern Standard Time),540229.7000002861,A,meadow,I,w,131,1,1216.7000002861023,539013.0,9005,WL,A,3.0
4,5.4659998416900635,learn,54534.00015830994,Wed Nov 13 2024 10:46:09 GMT-0500 (Eastern Standard Time),540579.1000003815,A,meadowenter,I,enter,323,1,1566.1000003814697,539013.0,9005,WL,A,3.0
4,5.799999952316284,learn,54200.000047683716,Wed Nov 13 2024 10:46:09 GMT-0500 (Eastern Standard Time),540913.1000003815,A,f,I,f,314,1,333.7000002861023,540579.4000000954,9005,WL,A,4.0
4,5.849999904632568,learn,54150.00009536743,Wed Nov 13 2024 10:46:09 GMT-0500 (Eastern Standard Time),540962.6000003815,A,fi,I,i,25,1,383.2000002861023,540579.4000000954,9005,WL,A,4.0
4,6.049999952316284,learn,53950.000047683716,Wed Nov 13 2024 10:46:09 GMT-0500 (Eastern Standard Time),541163.1000003815,A,fin,I,n,185,1,583.7000002861023,540579.4000000954,9005,WL,A,4.0
4,6.184000015258789,learn,53815.99998474121,Wed Nov 13 2024 10:46:09 GMT-0500 (Eastern Standard Time),541296.4000000954,A,fing,I,g,111,1,717.0,540579.4000000954,9005,WL,A,4.0
4,6.366999864578247,learn,53633.00013542175,Wed Nov 13 2024 10:46:09 GMT-0500 (Eastern Standard Time),541479.7000002861,A,finge,I,e,162,1,900.3000001907349,540579.4000000954,9005,WL,A,4.0
4,6.450000047683716,learn,53549.999952316284,Wed Nov 13 2024 10:46:09 GMT-0500 (Eastern Standard Time),541562.8000001907,A,finger,I,r,64,1,983.4000000953674,540579.4000000954,9005,WL,A,4.0
4,6.632999897003174,learn,53367.000102996826,Wed Nov 13 2024 10:46:09 GMT-0500 (Eastern Standard Time),541745.9000000954,A,fingerenter,I,enter,157,1,1166.5,540579.4000000954,9005,WL,A,4.0
4,6.866999864578247,learn,53133.00013542175,Wed Nov 13 2024 10:46:09 GMT-0500 (Eastern Standard Time),541979.9000000954,A,s,I,s,218,1,233.59999990463257,541746.3000001907,9005,WL,A,5.0
4,7.016999959945679,learn,52983.00004005432,Wed Nov 13 2024 10:46:09 GMT-0500 (Eastern Standard Time),542129.8000001907,A,sa,I,a,126,1,383.5,541746.3000001907,9005,WL,A,5.0
4,7.116999864578247,learn,52883.00013542175,Wed Nov 13 2024 10:46:09 GMT-0500 (Eastern Standard Time),542229.5,A,sal,I,l,79,1,483.19999980926514,541746.3000001907,9005,WL,A,5.0
4,7.299999952316284,learn,52700.000047683716,Wed Nov 13 2024 10:46:09 GMT-0500 (Eastern Standard Time),542413.0,A,salt,I,t,162,1,666.6999998092651,541746.3000001907,9005,WL,A,5.0
4,7.483000040054321,learn,52516.99995994568,Wed Nov 13 2024 10:46:09 GMT-0500 (Eastern Standard Time),542595.6000003815,A,saltenter,I,enter,170,1,849.3000001907349,541746.3000001907,9005,WL,A,5.0
4,8.583999872207642,learn,51416.00012779236,Wed Nov 13 2024 10:46:09 GMT-0500 (Eastern Standard Time),543696.5,A,h,I,h,1080,1,1100.5,542596.0,9005,WL,A,6.0
4,8.717000007629395,learn,51282.999992370605,Wed Nov 13 2024 10:46:09 GMT-0500 (Eastern Standard Time),543829.7000002861,A,ha,I,a,114,1,1233.7000002861023,542596.0,9005,WL,A,6.0
4,8.849999904632568,learn,51150.00009536743,Wed Nov 13 2024 10:46:09 GMT-0500 (Eastern Standard Time),543963.1000003815,A,har,I,r,109,1,1367.1000003814697,542596.0,9005,WL,A,6.0
4,9.16700005531311,learn,50832.99994468689,Wed Nov 13 2024 10:46:09 GMT-0500 (Eastern Standard Time),544279.8000001907,A,harp,I,p,296,1,1683.8000001907349,542596.0,9005,WL,A,6.0
4,9.41599988937378,learn,50584.00011062622,Wed Nov 13 2024 10:46:09 GMT-0500 (Eastern Standard Time),544529.3000001907,A,harpenter,I,enter,225,1,1933.3000001907349,542596.0,9005,WL,A,6.0
4,10.132999897003174,learn,49867.000102996826,Wed Nov 13 2024 10:46:09 GMT-0500 (Eastern Standard Time),545245.8000001907,A,g,I,g,699,1,716.0999999046326,544529.7000002861,9005,WL,A,7.0
4,10.200000047683716,learn,49799.999952316284,Wed Nov 13 2024 10:46:09 GMT-0500 (Eastern Standard Time),545312.7000002861,A,go,I,o,38,1,783.0,544529.7000002861,9005,WL,A,7.0
4,10.467000007629395,learn,49532.999992370605,Wed Nov 13 2024 10:46:09 GMT-0500 (Eastern Standard Time),545579.8000001907,A,gol,I,l,244,1,1050.0999999046326,544529.7000002861,9005,WL,A,7.0
4,10.565999984741211,learn,49434.00001525879,Wed Nov 13 2024 10:46:09 GMT-0500 (Eastern Standard Time),545679.2000002861,A,gold,I,d,77,1,1149.5,544529.7000002861,9005,WL,A,7.0
4,10.75,learn,49250.0,Wed Nov 13 2024 10:46:09 GMT-0500 (Eastern Standard Time),545862.6000003815,A,goldenter,I,enter,168,1,1332.9000000953674,544529.7000002861,9005,WL,A,7.0
4,11.833999872207642,learn,48166.00012779236,Wed Nov 13 2024 10:46:09 GMT-0500 (Eastern Standard Time),546946.4000000954,A,b,I,b,1062,1,1083.5,545862.9000000954,9005,WL,A,8.0
4,12.149999856948853,learn,47850.00014305115,Wed Nov 13 2024 10:46:09 GMT-0500 (Eastern Standard Time),547263.0,A,bu,I,u,296,1,1400.0999999046326,545862.9000000954,9005,WL,A,8.0
4,12.299999952316284,learn,47700.000047683716,Wed Nov 13 2024 10:46:09 GMT-0500 (Eastern Standard Time),547413.0,A,but,I,t,139,1,1550.0999999046326,545862.9000000954,9005,WL,A,8.0
4,12.532999992370605,learn,47467.000007629395,Wed Nov 13 2024 10:46:09 GMT-0500 (Eastern Standard Time),547646.3000001907,A,butt,I,t,211,1,1783.4000000953674,545862.9000000954,9005,WL,A,8.0
4,12.599999904632568,learn,47400.00009536743,Wed Nov 13 2024 10:46:09 GMT-0500 (Eastern Standard Time),547712.5,A,butto,I,o,42,1,1849.5999999046326,545862.9000000954,9005,WL,A,8.0
4,12.83299994468689,learn,47167.00005531311,Wed Nov 13 2024 10:46:09 GMT-0500 (Eastern Standard Time),547946.3000001907,A,button,I,n,219,1,2083.4000000953674,545862.9000000954,9005,WL,A,8.0
4,13.08299994468689,learn,46917.00005531311,Wed Nov 13 2024 10:46:09 GMT-0500 (Eastern Standard Time),548195.8000001907,A,buttonenter,I,enter,239,1,2332.9000000953674,545862.9000000954,9005,WL,A,8.0
4,14.533999919891357,learn,45466.00008010864,Wed Nov 13 2024 10:46:09 GMT-0500 (Eastern Standard Time),549646.8000001907,A,a,I,a,1432,1,1450.5999999046326,548196.2000002861,9005,WL,A,9.0
4,14.700000047683716,learn,45299.999952316284,Wed Nov 13 2024 10:46:09 GMT-0500 (Eastern Standard Time),549812.9000000954,A,ap,I,p,155,1,1616.6999998092651,548196.2000002861,9005,WL,A,9.0
4,14.849999904632568,learn,45150.00009536743,Wed Nov 13 2024 10:46:09 GMT-0500 (Eastern Standard Time),549963.1000003815,A,app,I,p,133,1,1766.9000000953674,548196.2000002861,9005,WL,A,9.0
4,15.049999952316284,learn,44950.000047683716,Wed Nov 13 2024 10:46:09 GMT-0500 (Eastern Standard Time),550163.0,A,appl,I,l,175,1,1966.7999997138977,548196.2000002861,9005,WL,A,9.0
4,15.149999856948853,learn,44850.00014305115,Wed Nov 13 2024 10:46:09 GMT-0500 (Eastern Standard Time),550262.6000003815,A,apple,I,e,80,1,2066.4000000953674,548196.2000002861,9005,WL,A,9.0
4,15.365999937057495,learn,44634.000062942505,Wed Nov 13 2024 10:46:09 GMT-0500 (Eastern Standard Time),550479.1000003815,A,appleenter,I,enter,195,1,2282.9000000953674,548196.2000002861,9005,WL,A,9.0
4,16.26699995994568,learn,43733.00004005432,Wed Nov 13 2024 10:46:09 GMT-0500 (Eastern Standard Time),551379.7000002861,A,k,I,k,877,1,900.0999999046326,550479.6000003815,9005,WL,A,10.0
4,16.366999864578247,learn,43633.00013542175,Wed Nov 13 2024 10:46:09 GMT-0500 (Eastern Standard Time),551479.9000000954,A,ke,I,e,86,1,1000.2999997138977,550479.6000003815,9005,WL,A,10.0
4,16.533999919891357,learn,43466.00008010864,Wed Nov 13 2024 10:46:09 GMT-0500 (Eastern Standard Time),551646.4000000954,A,key,I,y,145,1,1166.7999997138977,550479.6000003815,9005,WL,A,10.0
4,16.782999992370605,learn,43217.000007629395,Wed Nov 13 2024 10:46:09 GMT-0500 (Eastern Standard Time),551895.9000000954,A,keyenter,I,enter,235,1,1416.2999997138977,550479.6000003815,9005,WL,A,10.0
4,17.217000007629395,learn,42782.999992370605,Wed Nov 13 2024 10:46:09 GMT-0500 (Eastern Standard Time),552329.9000000954,A,l,I,l,420,1,433.59999990463257,551896.3000001907,9005,WL,A,11.0
4,17.467000007629395,learn,42532.999992370605,Wed Nov 13 2024 10:46:09 GMT-0500 (Eastern Standard Time),552579.7000002861,A,lo,I,o,222,1,683.4000000953674,551896.3000001907,9005,WL,A,11.0
4,17.59999990463257,learn,42400.00009536743,Wed Nov 13 2024 10:46:09 GMT-0500 (Eastern Standard Time),552713.1000003815,A,log,I,g,118,1,816.8000001907349,551896.3000001907,9005,WL,A,11.0
4,17.799999952316284,learn,42200.000047683716,Wed Nov 13 2024 10:46:09 GMT-0500 (Eastern Standard Time),552912.6000003815,A,logenter,I,enter,176,1,1016.3000001907349,551896.3000001907,9005,WL,A,11.0
4,18.09999990463257,learn,41900.00009536743,Wed Nov 13 2024 10:46:09 GMT-0500 (Eastern Standard Time),553213.1000003815,A,r,I,r,283,1,300.1000003814697,552913.0,9005,WL,A,12.0
4,18.200000047683716,learn,41799.999952316284,Wed Nov 13 2024 10:46:09 GMT-0500 (Eastern Standard Time),553313.2000002861,A,ru,I,u,75,1,400.2000002861023,552913.0,9005,WL,A,12.0
4,18.5,learn,41500.0,Wed Nov 13 2024 10:46:09 GMT-0500 (Eastern Standard Time),553613.1000003815,A,rug,I,g,274,1,700.1000003814697,552913.0,9005,WL,A,12.0
4,18.76699995994568,learn,41233.00004005432,Wed Nov 13 2024 10:46:09 GMT-0500 (Eastern Standard Time),553880.1000003815,A,rugenter,I,enter,252,1,967.1000003814697,552913.0,9005,WL,A,12.0
4,19.91700005531311,learn,40082.99994468689,Wed Nov 13 2024 10:46:09 GMT-0500 (Eastern Standard Time),555029.7000002861,A,g,I,g,1141,1,1149.3000001907349,553880.4000000954,9005,WL,A,13.0
4,19.967000007629395,learn,40032.999992370605,Wed Nov 13 2024 10:46:09 GMT-0500 (Eastern Standard Time),555079.5,A,go,I,o,36,1,1199.0999999046326,553880.4000000954,9005,WL,A,13.0
4,20.23300004005432,learn,39766.99995994568,Wed Nov 13 2024 10:46:09 GMT-0500 (Eastern Standard Time),555346.2000002861,A,gol,I,l,242,1,1465.8000001907349,553880.4000000954,9005,WL,A,13.0
4,20.299999952316284,learn,39700.000047683716,Wed Nov 13 2024 10:46:09 GMT-0500 (Eastern Standard Time),555413.0,A,gold,I,d,54,1,1532.5999999046326,553880.4000000954,9005,WL,A,13.0
4,22.032999992370605,learn,37967.000007629395,Wed Nov 13 2024 10:46:09 GMT-0500 (Eastern Standard Time),557145.9000000954,A,goldenter,I,enter,1709,1,3265.5,553880.4000000954,9005,WL,A,13.0
4,24.533999919891357,learn,35466.00008010864,Wed Nov 13 2024 10:46:09 GMT-0500 (Eastern Standard Time),559646.6000003815,A,c,I,c,2482,1,2500.2000002861023,557146.4000000954,9005,WL,A,14.0
4,24.58299994468689,learn,35417.00005531311,Wed Nov 13 2024 10:46:09 GMT-0500 (Eastern Standard Time),559695.8000001907,A,ch,I,h,24,1,2549.4000000953674,557146.4000000954,9005,WL,A,14.0
4,24.682999849319458,learn,35317.00015068054,Wed Nov 13 2024 10:46:09 GMT-0500 (Eastern Standard Time),559795.9000000954,A,chi,I,i,91,1,2649.5,557146.4000000954,9005,WL,A,14.0
4,24.93400001525879,learn,35065.99998474121,Wed Nov 13 2024 10:46:09 GMT-0500 (Eastern Standard Time),560046.3000001907,A,chim,I,m,223,1,2899.9000000953674,557146.4000000954,9005,WL,A,14.0
4,25.066999912261963,learn,34933.00008773804,Wed Nov 13 2024 10:46:09 GMT-0500 (Eastern Standard Time),560179.8000001907,A,chimn,I,n,123,1,3033.4000000953674,557146.4000000954,9005,WL,A,14.0
4,25.149999856948853,learn,34850.00014305115,Wed Nov 13 2024 10:46:09 GMT-0500 (Eastern Standard Time),560263.1000003815,A,chimne,I,e,70,1,3116.7000002861023,557146.4000000954,9005,WL,A,14.0
4,25.717000007629395,learn,34282.999992370605,Wed Nov 13 2024 10:46:09 GMT-0500 (Eastern Standard Time),560829.9000000954,A,chimney,I,y,539,1,3683.5,557146.4000000954,9005,WL,A,14.0
4,26.200000047683716,learn,33799.999952316284,Wed Nov 13 2024 10:46:09 GMT-0500 (Eastern Standard Time),561312.6000003815,A,chimneyenter,I,enter,458,1,4166.200000286102,557146.4000000954,9005,WL,A,14.0
4,34.18400001525879,learn,25815.99998474121,Wed Nov 13 2024 10:46:09 GMT-0500 (Eastern Standard Time),569296.3000001907,A,k,I,k,7964,1,7983.300000190735,561313.0,9005,WL,A,15.0
4,34.282999992370605,learn,25717.000007629395,Wed Nov 13 2024 10:46:09 GMT-0500 (Eastern Standard Time),569395.9000000954,A,ke,I,e,90,1,8082.900000095367,561313.0,9005,WL,A,15.0
4,36.16700005531311,learn,23832.99994468689,Wed Nov 13 2024 10:46:09 GMT-0500 (Eastern Standard Time),571279.9000000954,A,key,I,y,1862,1,9966.900000095367,561313.0,9005,WL,A,15.0
4,36.48300004005432,learn,23516.99995994568,Wed Nov 13 2024 10:46:09 GMT-0500 (Eastern Standard Time),571595.9000000954,A,keyenter,I,enter,296,1,10282.900000095367,561313.0,9005,WL,A,15.0
5,1.4839999675750732,learn,60000.0,Wed Nov 13 2024 10:46:09 GMT-0500 (Eastern Standard Time),652796.9000000954,A,b,I,b,1466,1,1483.4000000953674,651313.5,9005,WL,A,1.0
5,1.93399977684021,learn,60000.0,Wed Nov 13 2024 10:46:09 GMT-0500 (Eastern Standard Time),653246.7000002861,A,bo,I,o,426,1,1933.2000002861023,651313.5,9005,WL,A,1.0
5,2.2339999675750732,learn,60000.0,Wed Nov 13 2024 10:46:09 GMT-0500 (Eastern Standard Time),653546.5,A,boo,I,o,282,1,2233.0,651313.5,9005,WL,A,1.0
5,2.4499998092651367,learn,60000.0,Wed Nov 13 2024 10:46:09 GMT-0500 (Eastern Standard Time),653763.0,A,book,I,k,190,1,2449.5,651313.5,9005,WL,A,1.0
5,2.732999801635742,learn,60000.0,Wed Nov 13 2024 10:46:09 GMT-0500 (Eastern Standard Time),654045.8000001907,A,bookenter,I,enter,262,1,2732.300000190735,651313.5,9005,WL,A,1.0
5,3.116999864578247,learn,60000.0,Wed Nov 13 2024 10:46:09 GMT-0500 (Eastern Standard Time),654429.9000000954,A,t,I,t,367,1,383.7999997138977,654046.1000003815,9005,WL,A,2.0
5,3.3499999046325684,learn,60000.0,Wed Nov 13 2024 10:46:09 GMT-0500 (Eastern Standard Time),654662.8000001907,A,tr,I,r,219,1,616.6999998092651,654046.1000003815,9005,WL,A,2.0
5,3.5339999198913574,learn,60000.0,Wed Nov 13 2024 10:46:09 GMT-0500 (Eastern Standard Time),654846.4000000954,A,tra,I,a,164,1,800.2999997138977,654046.1000003815,9005,WL,A,2.0
5,3.6669998168945312,learn,60000.0,Wed Nov 13 2024 10:46:09 GMT-0500 (Eastern Standard Time),654979.9000000954,A,trai,I,i,102,1,933.7999997138977,654046.1000003815,9005,WL,A,2.0
5,3.9169998168945312,learn,60000.0,Wed Nov 13 2024 10:46:09 GMT-0500 (Eastern Standard Time),655229.7000002861,A,train,I,n,222,1,1183.5999999046326,654046.1000003815,9005,WL,A,2.0
5,4.449999809265137,learn,60000.0,Wed Nov 13 2024 10:46:09 GMT-0500 (Eastern Standard Time),655762.7000002861,A,trainenter,I,enter,508,1,1716.5999999046326,654046.1000003815,9005,WL,A,2.0
5,4.75,learn,60000.0,Wed Nov 13 2024 10:46:09 GMT-0500 (Eastern Standard Time),656063.2000002861,A,f,I,f,282,1,300.2000002861023,655763.0,9005,WL,A,3.0
5,4.816999912261963,learn,60000.0,Wed Nov 13 2024 10:46:09 GMT-0500 (Eastern Standard Time),656130.2000002861,A,fl,I,l,43,1,367.2000002861023,655763.0,9005,WL,A,3.0
5,5.016999959945679,learn,60000.0,Wed Nov 13 2024 10:46:09 GMT-0500 (Eastern Standard Time),656330.0,A,flo,I,o,184,1,567.0,655763.0,9005,WL,A,3.0
5,5.166999816894531,learn,60000.0,Wed Nov 13 2024 10:46:09 GMT-0500 (Eastern Standard Time),656479.9000000954,A,flow,I,w,128,1,716.9000000953674,655763.0,9005,WL,A,3.0
5,5.266999959945679,learn,60000.0,Wed Nov 13 2024 10:46:09 GMT-0500 (Eastern Standard Time),656579.9000000954,A,flowe,I,e,72,1,816.9000000953674,655763.0,9005,WL,A,3.0
5,5.3999998569488525,learn,60000.0,Wed Nov 13 2024 10:46:09 GMT-0500 (Eastern Standard Time),656712.8000001907,A,flower,I,r,111,1,949.8000001907349,655763.0,9005,WL,A,3.0
5,5.599999904632568,learn,60000.0,Wed Nov 13 2024 10:46:09 GMT-0500 (Eastern Standard Time),656912.7000002861,A,flowerenter,I,enter,176,1,1149.7000002861023,655763.0,9005,WL,A,3.0
5,5.8999998569488525,learn,60000.0,Wed Nov 13 2024 10:46:09 GMT-0500 (Eastern Standard Time),657212.6000003815,A,m,I,m,283,1,299.5,656913.1000003815,9005,WL,A,4.0
5,6.033999919891357,learn,60000.0,Wed Nov 13 2024 10:46:09 GMT-0500 (Eastern Standard Time),657346.7000002861,A,me,I,e,111,1,433.59999990463257,656913.1000003815,9005,WL,A,4.0
5,6.116999864578247,learn,60000.0,Wed Nov 13 2024 10:46:09 GMT-0500 (Eastern Standard Time),657429.5,A,mea,I,a,64,1,516.3999996185303,656913.1000003815,9005,WL,A,4.0
5,6.299999952316284,learn,60000.0,Wed Nov 13 2024 10:46:09 GMT-0500 (Eastern Standard Time),657613.2000002861,A,mead,I,d,165,1,700.0999999046326,656913.1000003815,9005,WL,A,4.0
5,6.416999816894531,learn,60000.0,Wed Nov 13 2024 10:46:09 GMT-0500 (Eastern Standard Time),657729.7000002861,A,meado,I,o,92,1,816.5999999046326,656913.1000003815,9005,WL,A,4.0
5,6.566999912261963,learn,60000.0,Wed Nov 13 2024 10:46:09 GMT-0500 (Eastern Standard Time),657879.9000000954,A,meadow,I,w,137,1,966.7999997138977,656913.1000003815,9005,WL,A,4.0
5,6.865999937057495,learn,60000.0,Wed Nov 13 2024 10:46:09 GMT-0500 (Eastern Standard Time),658179.1000003815,A,meadowenter,I,enter,283,1,1266.0,656913.1000003815,9005,WL,A,4.0
5,8.283999919891357,learn,60000.0,Wed Nov 13 2024 10:46:09 GMT-0500 (Eastern Standard Time),659596.6000003815,A,r,I,r,1402,1,1417.1000003814697,658179.5,9005,WL,A,5.0
5,8.482999801635742,learn,60000.0,Wed Nov 13 2024 10:46:09 GMT-0500 (Eastern Standard Time),659796.0,A,ru,I,u,189,1,1616.5,658179.5,9005,WL,A,5.0
5,8.866999864578247,learn,60000.0,Wed Nov 13 2024 10:46:09 GMT-0500 (Eastern Standard Time),660180.1000003815,A,rug,I,g,372,1,2000.6000003814697,658179.5,9005,WL,A,5.0
5,9.066999912261963,learn,60000.0,Wed Nov 13 2024 10:46:09 GMT-0500 (Eastern Standard Time),660379.3000001907,A,rugenter,I,enter,181,1,2199.800000190735,658179.5,9005,WL,A,5.0
5,9.399999856948853,learn,60000.0,Wed Nov 13 2024 10:46:09 GMT-0500 (Eastern Standard Time),660713.2000002861,A,k,I,k,321,1,333.5,660379.7000002861,9005,WL,A,6.0
5,9.549999952316284,learn,60000.0,Wed Nov 13 2024 10:46:09 GMT-0500 (Eastern Standard Time),660862.9000000954,A,ke,I,e,127,1,483.19999980926514,660379.7000002861,9005,WL,A,6.0
5,9.782999992370605,learn,60000.0,Wed Nov 13 2024 10:46:09 GMT-0500 (Eastern Standard Time),661096.2000002861,A,key,I,y,219,1,716.5,660379.7000002861,9005,WL,A,6.0
5,10.032999992370605,learn,60000.0,Wed Nov 13 2024 10:46:09 GMT-0500 (Eastern Standard Time),661345.8000001907,A,keyenter,I,enter,225,1,966.0999999046326,660379.7000002861,9005,WL,A,6.0
5,10.399999856948853,learn,60000.0,Wed Nov 13 2024 10:46:09 GMT-0500 (Eastern Standard Time),661713.1000003815,A,l,I,l,347,1,367.0,661346.1000003815,9005,WL,A,7.0
5,10.599999904632568,learn,60000.0,Wed Nov 13 2024 10:46:09 GMT-0500 (Eastern Standard Time),661912.4000000954,A,lo,I,o,182,1,566.2999997138977,661346.1000003815,9005,WL,A,7.0
5,10.849999904632568,learn,60000.0,Wed Nov 13 2024 10:46:09 GMT-0500 (Eastern Standard Time),662162.5,A,log,I,g,228,1,816.3999996185303,661346.1000003815,9005,WL,A,7.0
5,11.049999952316284,learn,60000.0,Wed Nov 13 2024 10:46:09 GMT-0500 (Eastern Standard Time),662362.7000002861,A,logenter,I,enter,187,1,1016.5999999046326,661346.1000003815,9005,WL,A,7.0
5,12.08299994468689,learn,60000.0,Wed Nov 13 2024 10:46:09 GMT-0500 (Eastern Standard Time),663396.2000002861,A,r,I,r,1011,1,1033.0999999046326,662363.1000003815,9005,WL,A,8.0
5,12.233999967575073,learn,60000.0,Wed Nov 13 2024 10:46:09 GMT-0500 (Eastern Standard Time),663546.5,A,ra,I,a,131,1,1183.3999996185303,662363.1000003815,9005,WL,A,8.0
5,12.349999904632568,learn,60000.0,Wed Nov 13 2024 10:46:09 GMT-0500 (Eastern Standard Time),663663.3000001907,A,rat,I,t,94,1,1300.1999998092651,662363.1000003815,9005,WL,A,8.0
5,12.549999952316284,learn,60000.0,Wed Nov 13 2024 10:46:09 GMT-0500 (Eastern Standard Time),663863.2000002861,A,ratt,I,t,181,1,1500.0999999046326,662363.1000003815,9005,WL,A,8.0
5,12.866999864578247,learn,60000.0,Wed Nov 13 2024 10:46:09 GMT-0500 (Eastern Standard Time),664179.8000001907,A,ratte,I,e,284,1,1816.6999998092651,662363.1000003815,9005,WL,A,8.0
5,14.182999849319458,learn,60000.0,Wed Nov 13 2024 10:46:09 GMT-0500 (Eastern Standard Time),665496.0,A,ratt,I,backspace,1301,1,3132.8999996185303,662363.1000003815,9005,WL,A,8.0
5,14.565999984741211,learn,60000.0,Wed Nov 13 2024 10:46:09 GMT-0500 (Eastern Standard Time),665879.0,A,rattl,I,l,370,1,3515.8999996185303,662363.1000003815,9005,WL,A,8.0
5,14.715999841690063,learn,60000.0,Wed Nov 13 2024 10:46:09 GMT-0500 (Eastern Standard Time),666029.1000003815,A,rattle,I,e,132,1,3666.0,662363.1000003815,9005,WL,A,8.0
5,14.83299994468689,learn,60000.0,Wed Nov 13 2024 10:46:09 GMT-0500 (Eastern Standard Time),666145.6000003815,A,rattleenter,I,enter,95,1,3782.5,662363.1000003815,9005,WL,A,8.0
5,16.83299994468689,learn,60000.0,Wed Nov 13 2024 10:46:09 GMT-0500 (Eastern Standard Time),668146.2000002861,A,c,I,c,1979,1,2000.2000002861023,666146.0,9005,WL,A,9.0
5,16.91699981689453,learn,60000.0,Wed Nov 13 2024 10:46:09 GMT-0500 (Eastern Standard Time),668229.5,A,ch,I,h,72,1,2083.5,666146.0,9005,WL,A,9.0
5,17.066999912261963,learn,60000.0,Wed Nov 13 2024 10:46:09 GMT-0500 (Eastern Standard Time),668379.3000001907,A,chi,I,i,130,1,2233.300000190735,666146.0,9005,WL,A,9.0
5,17.282999992370605,learn,60000.0,Wed Nov 13 2024 10:46:09 GMT-0500 (Eastern Standard Time),668595.9000000954,A,chim,I,m,208,1,2449.9000000953674,666146.0,9005,WL,A,9.0
5,17.449999809265137,learn,60000.0,Wed Nov 13 2024 10:46:09 GMT-0500 (Eastern Standard Time),668762.9000000954,A,chimn,I,n,152,1,2616.9000000953674,666146.0,9005,WL,A,9.0
5,17.566999912261963,learn,60000.0,Wed Nov 13 2024 10:46:09 GMT-0500 (Eastern Standard Time),668879.3000001907,A,chimne,I,e,87,1,2733.300000190735,666146.0,9005,WL,A,9.0
5,17.732999801635742,learn,60000.0,Wed Nov 13 2024 10:46:09 GMT-0500 (Eastern Standard Time),669045.9000000954,A,chimney,I,y,156,1,2899.9000000953674,666146.0,9005,WL,A,9.0
5,18.049999952316284,learn,60000.0,Wed Nov 13 2024 10:46:09 GMT-0500 (Eastern Standard Time),669362.5,A,chimneyenter,I,enter,293,1,3216.5,666146.0,9005,WL,A,9.0
5,18.265999794006348,learn,60000.0,Wed Nov 13 2024 10:46:09 GMT-0500 (Eastern Standard Time),669579.2000002861,A,a,I,a,200,1,216.5,669362.7000002861,9005,WL,A,10.0
5,18.382999897003174,learn,60000.0,Wed Nov 13 2024 10:46:09 GMT-0500 (Eastern Standard Time),669696.0,A,ap,I,p,96,1,333.2999997138977,669362.7000002861,9005,WL,A,10.0
5,18.515999794006348,learn,60000.0,Wed Nov 13 2024 10:46:09 GMT-0500 (Eastern Standard Time),669829.1000003815,A,app,I,p,124,1,466.40000009536743,669362.7000002861,9005,WL,A,10.0
5,18.732999801635742,learn,60000.0,Wed Nov 13 2024 10:46:09 GMT-0500 (Eastern Standard Time),670045.8000001907,A,appl,I,l,198,1,683.0999999046326,669362.7000002861,9005,WL,A,10.0
5,18.816999912261963,learn,60000.0,Wed Nov 13 2024 10:46:09 GMT-0500 (Eastern Standard Time),670129.5,A,apple,I,e,62,1,766.7999997138977,669362.7000002861,9005,WL,A,10.0
5,19.199999809265137,learn,60000.0,Wed Nov 13 2024 10:46:09 GMT-0500 (Eastern Standard Time),670512.4000000954,A,appleenter,I,enter,361,1,1149.6999998092651,669362.7000002861,9005,WL,A,10.0
5,19.5,learn,60000.0,Wed Nov 13 2024 10:46:09 GMT-0500 (Eastern Standard Time),670812.5,A,g,I,g,283,1,299.7999997138977,670512.7000002861,9005,WL,A,11.0
5,19.58299994468689,learn,60000.0,Wed Nov 13 2024 10:46:09 GMT-0500 (Eastern Standard Time),670895.7000002861,A,go,I,o,64,1,383.0,670512.7000002861,9005,WL,A,11.0
5,19.816999912261963,learn,60000.0,Wed Nov 13 2024 10:46:09 GMT-0500 (Eastern Standard Time),671129.4000000954,A,gol,I,l,221,1,616.6999998092651,670512.7000002861,9005,WL,A,11.0
5,19.91699981689453,learn,60000.0,Wed Nov 13 2024 10:46:09 GMT-0500 (Eastern Standard Time),671229.8000001907,A,gold,I,d,83,1,717.0999999046326,670512.7000002861,9005,WL,A,11.0
5,20.06599998474121,learn,60000.0,Wed Nov 13 2024 10:46:09 GMT-0500 (Eastern Standard Time),671379.0,A,goldenter,I,enter,140,1,866.2999997138977,670512.7000002861,9005,WL,A,11.0
5,22.75,learn,60000.0,Wed Nov 13 2024 10:46:09 GMT-0500 (Eastern Standard Time),674063.0,A,b,I,b,2665,1,2683.699999809265,671379.3000001907,9005,WL,A,12.0
5,23.0,learn,60000.0,Wed Nov 13 2024 10:46:09 GMT-0500 (Eastern Standard Time),674312.6000003815,A,bu,I,u,236,1,2933.300000190735,671379.3000001907,9005,WL,A,12.0
5,23.149999856948853,learn,60000.0,Wed Nov 13 2024 10:46:09 GMT-0500 (Eastern Standard Time),674463.2000002861,A,but,I,t,132,1,3083.9000000953674,671379.3000001907,9005,WL,A,12.0
5,23.365999937057495,learn,60000.0,Wed Nov 13 2024 10:46:09 GMT-0500 (Eastern Standard Time),674679.0,A,butt,I,t,195,1,3299.699999809265,671379.3000001907,9005,WL,A,12.0
5,23.449999809265137,learn,60000.0,Wed Nov 13 2024 10:46:09 GMT-0500 (Eastern Standard Time),674762.4000000954,A,butto,I,o,68,1,3383.0999999046326,671379.3000001907,9005,WL,A,12.0
5,23.715999841690063,learn,60000.0,Wed Nov 13 2024 10:46:09 GMT-0500 (Eastern Standard Time),675029.0,A,button,I,n,257,1,3649.699999809265,671379.3000001907,9005,WL,A,12.0
5,23.932999849319458,learn,60000.0,Wed Nov 13 2024 10:46:09 GMT-0500 (Eastern Standard Time),675245.8000001907,A,buttonenter,I,enter,200,1,3866.5,671379.3000001907,9005,WL,A,12.0
5,24.16599988937378,learn,60000.0,Wed Nov 13 2024 10:46:09 GMT-0500 (Eastern Standard Time),675479.1000003815,A,h,I,h,221,1,233.0,675246.1000003815,9005,WL,A,13.0
5,24.299999952316284,learn,60000.0,Wed Nov 13 2024 10:46:09 GMT-0500 (Eastern Standard Time),675612.6000003815,A,ha,I,a,117,1,366.5,675246.1000003815,9005,WL,A,13.0
5,24.432999849319458,learn,60000.0,Wed Nov 13 2024 10:46:09 GMT-0500 (Eastern Standard Time),675745.8000001907,A,har,I,r,111,1,499.69999980926514,675246.1000003815,9005,WL,A,13.0
5,25.399999856948853,learn,60000.0,Wed Nov 13 2024 10:46:09 GMT-0500 (Eastern Standard Time),676712.4000000954,A,harp,I,p,955,1,1466.2999997138977,675246.1000003815,9005,WL,A,13.0
5,25.699999809265137,learn,60000.0,Wed Nov 13 2024 10:46:09 GMT-0500 (Eastern Standard Time),677012.4000000954,A,harpenter,I,enter,291,1,1766.2999997138977,675246.1000003815,9005,WL,A,13.0
5,31.467000007629395,learn,60000.0,Wed Nov 13 2024 10:46:09 GMT-0500 (Eastern Standard Time),682779.4000000954,A,s,I,s,5752,1,5766.5,677012.9000000954,9005,WL,A,14.0
5,31.616999864578247,learn,60000.0,Wed Nov 13 2024 10:46:09 GMT-0500 (Eastern Standard Time),682929.7000002861,A,sa,I,a,129,1,5916.800000190735,677012.9000000954,9005,WL,A,14.0
5,31.699999809265137,learn,60000.0,Wed Nov 13 2024 10:46:09 GMT-0500 (Eastern Standard Time),683012.8000001907,A,sal,I,l,71,1,5999.900000095367,677012.9000000954,9005,WL,A,14.0
5,31.816999912261963,learn,60000.0,Wed Nov 13 2024 10:46:09 GMT-0500 (Eastern Standard Time),683130.0,A,salt,I,t,99,1,6117.099999904633,677012.9000000954,9005,WL,A,14.0
5,31.965999841690063,learn,60000.0,Wed Nov 13 2024 10:46:09 GMT-0500 (Eastern Standard Time),683279.2000002861,A,saltenter,I,enter,122,1,6266.300000190735,677012.9000000954,9005,WL,A,14.0
5,36.39999985694885,learn,60000.0,Wed Nov 13 2024 10:46:09 GMT-0500 (Eastern Standard Time),687713.0,A,g,I,g,4414,1,4433.5,683279.5,9005,WL,A,15.0
5,36.44999980926514,learn,60000.0,Wed Nov 13 2024 10:46:09 GMT-0500 (Eastern Standard Time),687762.6000003815,A,go,I,o,24,1,4483.10000038147,683279.5,9005,WL,A,15.0
5,36.66599988937378,learn,60000.0,Wed Nov 13 2024 10:46:09 GMT-0500 (Eastern Standard Time),687979.2000002861,A,gol,I,l,200,1,4699.700000286102,683279.5,9005,WL,A,15.0
5,36.75,learn,60000.0,Wed Nov 13 2024 10:46:09 GMT-0500 (Eastern Standard Time),688062.4000000954,A,gold,I,d,66,1,4782.900000095367,683279.5,9005,WL,A,15.0
5,36.865999937057495,learn,60000.0,Wed Nov 13 2024 10:46:09 GMT-0500 (Eastern Standard Time),688179.1000003815,A,goldenter,I,enter,94,1,4899.60000038147,683279.5,9005,WL,A,15.0
6,1.2000000476837158,distr,58799.999952316284,Wed Nov 13 2024 10:46:09 GMT-0500 (Eastern Standard Time),765579.9000000954,B,p,I,p,1181,1,1199.7999997138977,764380.1000003815,9005,WL,A,1.0
6,1.4500000476837158,distr,58549.999952316284,Wed Nov 13 2024 10:46:09 GMT-0500 (Eastern Standard Time),765830.0,B,pl,I,l,235,1,1449.8999996185303,764380.1000003815,9005,WL,A,1.0
6,1.616999864578247,distr,58383.00013542175,Wed Nov 13 2024 10:46:09 GMT-0500 (Eastern Standard Time),765996.5,B,pla,I,a,148,1,1616.3999996185303,764380.1000003815,9005,WL,A,1.0
6,1.7829999923706055,distr,58217.000007629395,Wed Nov 13 2024 10:46:09 GMT-0500 (Eastern Standard Time),766163.1000003815,B,plan,I,n,134,1,1783.0,764380.1000003815,9005,WL,A,1.0
6,1.9170000553131104,distr,58082.99994468689,Wed Nov 13 2024 10:46:09 GMT-0500 (Eastern Standard Time),766296.7000002861,B,plane,I,e,118,1,1916.5999999046326,764380.1000003815,9005,WL,A,1.0
6,2.615999937057495,distr,57384.000062942505,Wed Nov 13 2024 10:46:09 GMT-0500 (Eastern Standard Time),766996.0,B,planeenter,I,enter,685,1,2615.8999996185303,764380.1000003815,9005,WL,A,1.0
6,3.1500000953674316,distr,56849.99990463257,Wed Nov 13 2024 10:46:09 GMT-0500 (Eastern Standard Time),767529.9000000954,B,b,I,b,521,1,533.5,766996.4000000954,9005,WL,A,2.0
6,3.549999952316284,distr,56450.000047683716,Wed Nov 13 2024 10:46:09 GMT-0500 (Eastern Standard Time),767930.0,B,bo,I,o,384,1,933.5999999046326,766996.4000000954,9005,WL,A,2.0
6,3.9670000076293945,distr,56032.999992370605,Wed Nov 13 2024 10:46:09 GMT-0500 (Eastern Standard Time),768346.7000002861,B,bow,I,w,400,1,1350.3000001907349,766996.4000000954,9005,WL,A,2.0
6,4.599999904632568,distr,55400.00009536743,Wed Nov 13 2024 10:46:09 GMT-0500 (Eastern Standard Time),768980.0,B,bowl,I,l,622,1,1983.5999999046326,766996.4000000954,9005,WL,A,2.0
6,4.849999904632568,distr,55150.00009536743,Wed Nov 13 2024 10:46:09 GMT-0500 (Eastern Standard Time),769229.4000000954,B,bowlenter,I,enter,230,1,2233.0,766996.4000000954,9005,WL,A,2.0
6,5.400000095367432,distr,54599.99990463257,Wed Nov 13 2024 10:46:09 GMT-0500 (Eastern Standard Time),769779.3000001907,B,m,I,m,542,1,549.5,769229.8000001907,9005,WL,A,3.0
6,5.566999912261963,distr,54433.00008773804,Wed Nov 13 2024 10:46:09 GMT-0500 (Eastern Standard Time),769946.5,B,me,I,e,153,1,716.6999998092651,769229.8000001907,9005,WL,A,3.0
6,7.934000015258789,distr,52065.99998474121,Wed Nov 13 2024 10:46:09 GMT-0500 (Eastern Standard Time),772313.5,B,mea,I,a,2350,1,3083.699999809265,769229.8000001907,9005,WL,A,3.0
6,8.366999864578247,distr,51633.00013542175,Wed Nov 13 2024 10:46:09 GMT-0500 (Eastern Standard Time),772746.6000003815,B,meal,I,l,418,1,3516.800000190735,769229.8000001907,9005,WL,A,3.0
6,8.683000087738037,distr,51316.99991226196,Wed Nov 13 2024 10:46:09 GMT-0500 (Eastern Standard Time),773062.9000000954,B,mealenter,I,enter,303,1,3833.0999999046326,769229.8000001907,9005,WL,A,3.0
6,14.349999904632568,distr,45650.00009536743,Wed Nov 13 2024 10:46:09 GMT-0500 (Eastern Standard Time),778730.1000003815,B,i,I,i,5655,1,5666.900000095367,773063.2000002861,9005,WL,A,4.0
6,14.549999952316284,distr,45450.000047683716,Wed Nov 13 2024 10:46:09 GMT-0500 (Eastern Standard Time),778930.1000003815,B,in,I,n,175,1,5866.900000095367,773063.2000002861,9005,WL,A,4.0
6,14.683000087738037,distr,45316.99991226196,Wed Nov 13 2024 10:46:09 GMT-0500 (Eastern Standard Time),779062.9000000954,B,ins,I,s,113,1,5999.699999809265,773063.2000002861,9005,WL,A,4.0
6,14.799999952316284,distr,45200.000047683716,Wed Nov 13 2024 10:46:09 GMT-0500 (Eastern Standard Time),779180.2000002861,B,inse,I,e,101,1,6117.0,773063.2000002861,9005,WL,A,4.0
6,15.116999864578247,distr,44883.00013542175,Wed Nov 13 2024 10:46:09 GMT-0500 (Eastern Standard Time),779496.7000002861,B,insec,I,c,295,1,6433.5,773063.2000002861,9005,WL,A,4.0
6,15.467000007629395,distr,44532.999992370605,Wed Nov 13 2024 10:46:09 GMT-0500 (Eastern Standard Time),779846.6000003815,B,insect,I,t,337,1,6783.400000095367,773063.2000002861,9005,WL,A,4.0
6,16.31599998474121,distr,43684.00001525879,Wed Nov 13 2024 10:46:09 GMT-0500 (Eastern Standard Time),780696.1000003815,B,insectenter,I,enter,833,1,7632.900000095367,773063.2000002861,9005,WL,A,4.0
6,16.866999864578247,distr,43133.00013542175,Wed Nov 13 2024 10:46:09 GMT-0500 (Eastern Standard Time),781246.7000002861,B,s,I,s,533,1,550.2000002861023,780696.5,9005,WL,A,5.0
6,17.0,distr,43000.0,Wed Nov 13 2024 10:46:09 GMT-0500 (Eastern Standard Time),781379.8000001907,B,se,I,e,101,1,683.3000001907349,780696.5,9005,WL,A,5.0
6,17.16700005531311,distr,42832.99994468689,Wed Nov 13 2024 10:46:09 GMT-0500 (Eastern Standard Time),781546.6000003815,B,see,I,e,150,1,850.1000003814697,780696.5,9005,WL,A,5.0
6,17.40000009536743,distr,42599.99990463257,Wed Nov 13 2024 10:46:09 GMT-0500 (Eastern Standard Time),781780.0,B,seed,I,d,207,1,1083.5,780696.5,9005,WL,A,5.0
6,17.549999952316284,distr,42450.000047683716,Wed Nov 13 2024 10:46:09 GMT-0500 (Eastern Standard Time),781929.4000000954,B,seedenter,I,enter,127,1,1232.9000000953674,780696.5,9005,WL,A,5.0
6,24.48300004005432,distr,35516.99995994568,Wed Nov 13 2024 10:46:09 GMT-0500 (Eastern Standard Time),788862.6000003815,B,b,I,b,6915,1,6932.800000190735,781929.8000001907,9005,WL,A,6.0
6,24.66599988937378,distr,35334.00011062622,Wed Nov 13 2024 10:46:09 GMT-0500 (Eastern Standard Time),789045.8000001907,B,bo,I,o,173,1,7116.0,781929.8000001907,9005,WL,A,6.0
6,24.799000024795532,distr,35200.99997520447,Wed Nov 13 2024 10:46:09 GMT-0500 (Eastern Standard Time),789179.1000003815,B,bot,I,t,118,1,7249.300000190735,781929.8000001907,9005,WL,A,6.0
6,25.0,distr,35000.0,Wed Nov 13 2024 10:46:09 GMT-0500 (Eastern Standard Time),789379.9000000954,B,bott,I,t,194,1,7450.099999904633,781929.8000001907,9005,WL,A,6.0
6,25.08299994468689,distr,34917.00005531311,Wed Nov 13 2024 10:46:09 GMT-0500 (Eastern Standard Time),789463.3000001907,B,bottl,I,l,65,1,7533.5,781929.8000001907,9005,WL,A,6.0
6,25.183000087738037,distr,34816.99991226196,Wed Nov 13 2024 10:46:09 GMT-0500 (Eastern Standard Time),789562.4000000954,B,bottle,I,e,76,1,7632.599999904633,781929.8000001907,9005,WL,A,6.0
6,25.299999952316284,distr,34700.000047683716,Wed Nov 13 2024 10:46:09 GMT-0500 (Eastern Standard Time),789679.5,B,bottleenter,I,enter,98,1,7749.699999809265,781929.8000001907,9005,WL,A,6.0
6,60.01699995994568,distr,-16.99995994567871,Wed Nov 13 2024 10:46:09 GMT-0500 (Eastern Standard Time),824396.4000000954,B,None,I,None,34710,1,34716.59999990463,789679.8000001907,9005,WL,A,7.0
7,5.184000015258789,immed,54815.99998474121,Wed Nov 13 2024 10:46:09 GMT-0500 (Eastern Standard Time),843946.6000003815,A,b,I,b,5168,1,5183.0,838763.6000003815,9005,WL,A,1.0
7,5.66700005531311,immed,54332.99994468689,Wed Nov 13 2024 10:46:09 GMT-0500 (Eastern Standard Time),844430.1000003815,A,bo,I,o,464,1,5666.5,838763.6000003815,9005,WL,A,1.0
7,5.8500001430511475,immed,54149.99985694885,Wed Nov 13 2024 10:46:09 GMT-0500 (Eastern Standard Time),844613.3000001907,A,boo,I,o,172,1,5849.699999809265,838763.6000003815,9005,WL,A,1.0
7,6.067000150680542,immed,53932.99984931946,Wed Nov 13 2024 10:46:09 GMT-0500 (Eastern Standard Time),844830.2000002861,A,book,I,k,197,1,6066.599999904633,838763.6000003815,9005,WL,A,1.0
7,6.433000087738037,immed,53566.99991226196,Wed Nov 13 2024 10:46:09 GMT-0500 (Eastern Standard Time),845195.8000001907,A,bookenter,I,enter,347,1,6432.199999809265,838763.6000003815,9005,WL,A,1.0
7,6.900000095367432,immed,53099.99990463257,Wed Nov 13 2024 10:46:09 GMT-0500 (Eastern Standard Time),845663.5,A,t,I,t,450,1,467.5,845196.0,9005,WL,A,2.0
7,7.134000062942505,immed,52865.999937057495,Wed Nov 13 2024 10:46:09 GMT-0500 (Eastern Standard Time),845896.6000003815,A,tr,I,r,220,1,700.6000003814697,845196.0,9005,WL,A,2.0
7,7.400000095367432,immed,52599.99990463257,Wed Nov 13 2024 10:46:09 GMT-0500 (Eastern Standard Time),846163.3000001907,A,tra,I,a,241,1,967.3000001907349,845196.0,9005,WL,A,2.0
7,7.6000001430511475,immed,52399.99985694885,Wed Nov 13 2024 10:46:09 GMT-0500 (Eastern Standard Time),846363.5,A,trai,I,i,184,1,1167.5,845196.0,9005,WL,A,2.0
7,7.884000062942505,immed,52115.999937057495,Wed Nov 13 2024 10:46:09 GMT-0500 (Eastern Standard Time),846646.7000002861,A,train,I,n,263,1,1450.7000002861023,845196.0,9005,WL,A,2.0
7,8.700000047683716,immed,51299.999952316284,Wed Nov 13 2024 10:46:09 GMT-0500 (Eastern Standard Time),847462.9000000954,A,trainenter,I,enter,799,1,2266.9000000953674,845196.0,9005,WL,A,2.0
7,9.200000047683716,immed,50799.999952316284,Wed Nov 13 2024 10:46:09 GMT-0500 (Eastern Standard Time),847963.3000001907,A,f,I,f,487,1,500.09999990463257,847463.2000002861,9005,WL,A,3.0
7,9.33400011062622,immed,50665.99988937378,Wed Nov 13 2024 10:46:09 GMT-0500 (Eastern Standard Time),848096.8000001907,A,fl,I,l,111,1,633.5999999046326,847463.2000002861,9005,WL,A,3.0
7,9.516000032424927,immed,50483.99996757507,Wed Nov 13 2024 10:46:09 GMT-0500 (Eastern Standard Time),848279.4000000954,A,flo,I,o,162,1,816.1999998092651,847463.2000002861,9005,WL,A,3.0
7,9.617000102996826,immed,50382.999897003174,Wed Nov 13 2024 10:46:09 GMT-0500 (Eastern Standard Time),848379.9000000954,A,flow,I,w,86,1,916.6999998092651,847463.2000002861,9005,WL,A,3.0
7,9.717000007629395,immed,50282.999992370605,Wed Nov 13 2024 10:46:09 GMT-0500 (Eastern Standard Time),848480.2000002861,A,flowe,I,e,80,1,1017.0,847463.2000002861,9005,WL,A,3.0
7,9.850000143051147,immed,50149.99985694885,Wed Nov 13 2024 10:46:09 GMT-0500 (Eastern Standard Time),848613.3000001907,A,flower,I,r,114,1,1150.0999999046326,847463.2000002861,9005,WL,A,3.0
7,10.217000007629395,immed,49782.999992370605,Wed Nov 13 2024 10:46:09 GMT-0500 (Eastern Standard Time),848979.6000003815,A,flowerenter,I,enter,339,1,1516.4000000953674,847463.2000002861,9005,WL,A,3.0
7,10.583000183105469,immed,49416.99981689453,Wed Nov 13 2024 10:46:09 GMT-0500 (Eastern Standard Time),849346.2000002861,A,m,I,m,345,1,366.2000002861023,848980.0,9005,WL,A,4.0
7,10.884000062942505,immed,49115.999937057495,Wed Nov 13 2024 10:46:09 GMT-0500 (Eastern Standard Time),849646.7000002861,A,me,I,e,283,1,666.7000002861023,848980.0,9005,WL,A,4.0
7,11.083000183105469,immed,48916.99981689453,Wed Nov 13 2024 10:46:09 GMT-0500 (Eastern Standard Time),849846.3000001907,A,mea,I,a,187,1,866.3000001907349,848980.0,9005,WL,A,4.0
7,11.367000102996826,immed,48632.999897003174,Wed Nov 13 2024 10:46:09 GMT-0500 (Eastern Standard Time),850130.0,A,mead,I,d,263,1,1150.0,848980.0,9005,WL,A,4.0
7,11.534000158309937,immed,48465.99984169006,Wed Nov 13 2024 10:46:09 GMT-0500 (Eastern Standard Time),850296.5,A,meado,I,o,152,1,1316.5,848980.0,9005,WL,A,4.0
7,11.91700005531311,immed,48082.99994468689,Wed Nov 13 2024 10:46:09 GMT-0500 (Eastern Standard Time),850680.0,A,meadow,I,w,364,1,1700.0,848980.0,9005,WL,A,4.0
7,13.317000150680542,immed,46682.99984931946,Wed Nov 13 2024 10:46:09 GMT-0500 (Eastern Standard Time),852079.5,A,meadowenter,I,enter,1378,1,3099.5,848980.0,9005,WL,A,4.0
7,14.58400011062622,immed,45415.99988937378,Wed Nov 13 2024 10:46:09 GMT-0500 (Eastern Standard Time),853346.8000001907,A,l,I,l,1245,1,1266.9000000953674,852079.9000000954,9005,WL,A,5.0
7,14.767000198364258,immed,45232.99980163574,Wed Nov 13 2024 10:46:09 GMT-0500 (Eastern Standard Time),853529.9000000954,A,lo,I,o,168,1,1450.0,852079.9000000954,9005,WL,A,5.0
7,14.900000095367432,immed,45099.99990463257,Wed Nov 13 2024 10:46:09 GMT-0500 (Eastern Standard Time),853663.4000000954,A,log,I,g,112,1,1583.5,852079.9000000954,9005,WL,A,5.0
7,15.032999992370605,immed,44967.000007629395,Wed Nov 13 2024 10:46:09 GMT-0500 (Eastern Standard Time),853796.1000003815,A,logenter,I,enter,115,1,1716.2000002861023,852079.9000000954,9005,WL,A,5.0
7,15.41700005531311,immed,44582.99994468689,Wed Nov 13 2024 10:46:09 GMT-0500 (Eastern Standard Time),854180.1000003815,A,k,I,k,361,1,383.6000003814697,853796.5,9005,WL,A,6.0
7,15.5,immed,44500.0,Wed Nov 13 2024 10:46:09 GMT-0500 (Eastern Standard Time),854263.4000000954,A,ke,I,e,71,1,466.90000009536743,853796.5,9005,WL,A,6.0
7,15.700000047683716,immed,44299.999952316284,Wed Nov 13 2024 10:46:09 GMT-0500 (Eastern Standard Time),854463.4000000954,A,key,I,y,180,1,666.9000000953674,853796.5,9005,WL,A,6.0
7,15.933000087738037,immed,44066.99991226196,Wed Nov 13 2024 10:46:09 GMT-0500 (Eastern Standard Time),854696.2000002861,A,keyenter,I,enter,217,1,899.7000002861023,853796.5,9005,WL,A,6.0
7,16.117000102996826,immed,43882.999897003174,Wed Nov 13 2024 10:46:09 GMT-0500 (Eastern Standard Time),854880.1000003815,A,s,I,s,164,1,183.60000038146973,854696.5,9005,WL,A,7.0
7,16.267000198364258,immed,43732.99980163574,Wed Nov 13 2024 10:46:09 GMT-0500 (Eastern Standard Time),855030.2000002861,A,sa,I,a,137,1,333.7000002861023,854696.5,9005,WL,A,7.0
7,16.367000102996826,immed,43632.999897003174,Wed Nov 13 2024 10:46:09 GMT-0500 (Eastern Standard Time),855130.1000003815,A,sal,I,l,79,1,433.6000003814697,854696.5,9005,WL,A,7.0
7,16.550000190734863,immed,43449.99980926514,Wed Nov 13 2024 10:46:09 GMT-0500 (Eastern Standard Time),855313.4000000954,A,salt,I,t,154,1,616.9000000953674,854696.5,9005,WL,A,7.0
7,16.717000007629395,immed,43282.999992370605,Wed Nov 13 2024 10:46:09 GMT-0500 (Eastern Standard Time),855479.6000003815,A,saltenter,I,enter,151,1,783.1000003814697,854696.5,9005,WL,A,7.0
7,17.200000047683716,immed,42799.999952316284,Wed Nov 13 2024 10:46:09 GMT-0500 (Eastern Standard Time),855963.4000000954,A,h,I,h,470,1,483.2999997138977,855480.1000003815,9005,WL,A,8.0
7,17.300000190734863,immed,42699.99980926514,Wed Nov 13 2024 10:46:09 GMT-0500 (Eastern Standard Time),856063.1000003815,A,ha,I,a,78,1,583.0,855480.1000003815,9005,WL,A,8.0
7,17.41700005531311,immed,42582.99994468689,Wed Nov 13 2024 10:46:09 GMT-0500 (Eastern Standard Time),856180.2000002861,A,har,I,r,89,1,700.0999999046326,855480.1000003815,9005,WL,A,8.0
7,17.782999992370605,immed,42217.000007629395,Wed Nov 13 2024 10:46:09 GMT-0500 (Eastern Standard Time),856546.3000001907,A,harp,I,p,335,1,1066.1999998092651,855480.1000003815,9005,WL,A,8.0
7,18.032999992370605,immed,41967.000007629395,Wed Nov 13 2024 10:46:09 GMT-0500 (Eastern Standard Time),856796.2000002861,A,harpenter,I,enter,234,1,1316.0999999046326,855480.1000003815,9005,WL,A,8.0
7,19.41700005531311,immed,40582.99994468689,Wed Nov 13 2024 10:46:09 GMT-0500 (Eastern Standard Time),858180.1000003815,A,g,I,g,1377,1,1383.5,856796.6000003815,9005,WL,A,9.0
7,19.48300004005432,immed,40516.99995994568,Wed Nov 13 2024 10:46:09 GMT-0500 (Eastern Standard Time),858246.4000000954,A,go,I,o,52,1,1449.7999997138977,856796.6000003815,9005,WL,A,9.0
7,19.733999967575073,immed,40266.00003242493,Wed Nov 13 2024 10:46:09 GMT-0500 (Eastern Standard Time),858496.7000002861,A,gol,I,l,228,1,1700.0999999046326,856796.6000003815,9005,WL,A,9.0
7,19.817000150680542,immed,40182.99984931946,Wed Nov 13 2024 10:46:09 GMT-0500 (Eastern Standard Time),858579.7000002861,A,gold,I,d,55,1,1783.0999999046326,856796.6000003815,9005,WL,A,9.0
7,19.950000047683716,immed,40049.999952316284,Wed Nov 13 2024 10:46:09 GMT-0500 (Eastern Standard Time),858712.9000000954,A,goldenter,I,enter,116,1,1916.2999997138977,856796.6000003815,9005,WL,A,9.0
7,20.16700005531311,immed,39832.99994468689,Wed Nov 13 2024 10:46:09 GMT-0500 (Eastern Standard Time),858930.2000002861,A,a,I,a,196,1,217.0,858713.2000002861,9005,WL,A,10.0
7,20.350000143051147,immed,39649.99985694885,Wed Nov 13 2024 10:46:09 GMT-0500 (Eastern Standard Time),859113.0,A,ap,I,p,162,1,399.7999997138977,858713.2000002861,9005,WL,A,10.0
7,20.700000047683716,immed,39299.999952316284,Wed Nov 13 2024 10:46:09 GMT-0500 (Eastern Standard Time),859463.4000000954,A,apl,I,l,340,1,750.1999998092651,858713.2000002861,9005,WL,A,10.0
7,21.483999967575073,immed,38516.00003242493,Wed Nov 13 2024 10:46:09 GMT-0500 (Eastern Standard Time),860246.7000002861,A,ap,I,backspace,770,1,1533.5,858713.2000002861,9005,WL,A,10.0
7,22.200000047683716,immed,37799.999952316284,Wed Nov 13 2024 10:46:09 GMT-0500 (Eastern Standard Time),860963.2000002861,A,app,I,p,691,1,2250.0,858713.2000002861,9005,WL,A,10.0
7,22.40000009536743,immed,37599.99990463257,Wed Nov 13 2024 10:46:09 GMT-0500 (Eastern Standard Time),861163.3000001907,A,appl,I,l,182,1,2450.0999999046326,858713.2000002861,9005,WL,A,10.0
7,22.483999967575073,immed,37516.00003242493,Wed Nov 13 2024 10:46:09 GMT-0500 (Eastern Standard Time),861246.7000002861,A,apple,I,e,62,1,2533.5,858713.2000002861,9005,WL,A,10.0
7,22.66700005531311,immed,37332.99994468689,Wed Nov 13 2024 10:46:09 GMT-0500 (Eastern Standard Time),861429.6000003815,A,appleenter,I,enter,172,1,2716.4000000953674,858713.2000002861,9005,WL,A,10.0
7,25.983999967575073,immed,34016.00003242493,Wed Nov 13 2024 10:46:09 GMT-0500 (Eastern Standard Time),864746.7000002861,A,r,I,r,3303,1,3316.7000002861023,861430.0,9005,WL,A,11.0
7,26.200000047683716,immed,33799.999952316284,Wed Nov 13 2024 10:46:09 GMT-0500 (Eastern Standard Time),864963.3000001907,A,ru,I,u,188,1,3533.300000190735,861430.0,9005,WL,A,11.0
7,26.384000062942505,immed,33615.999937057495,Wed Nov 13 2024 10:46:09 GMT-0500 (Eastern Standard Time),865146.8000001907,A,rug,I,g,161,1,3716.800000190735,861430.0,9005,WL,A,11.0
7,26.550000190734863,immed,33449.99980926514,Wed Nov 13 2024 10:46:09 GMT-0500 (Eastern Standard Time),865312.8000001907,A,rugenter,I,enter,143,1,3882.800000190735,861430.0,9005,WL,A,11.0
7,27.884000062942505,immed,32115.999937057495,Wed Nov 13 2024 10:46:09 GMT-0500 (Eastern Standard Time),866646.6000003815,A,a,I,a,1324,1,1333.4000000953674,865313.2000002861,9005,WL,A,12.0
7,28.050000190734863,immed,31949.999809265137,Wed Nov 13 2024 10:46:09 GMT-0500 (Eastern Standard Time),866813.5,A,at,I,t,148,1,1500.2999997138977,865313.2000002861,9005,WL,A,12.0
7,28.267000198364258,immed,31732.999801635742,Wed Nov 13 2024 10:46:09 GMT-0500 (Eastern Standard Time),867030.1000003815,A,att,I,t,204,1,1716.9000000953674,865313.2000002861,9005,WL,A,12.0
7,28.40000009536743,immed,31599.99990463257,Wed Nov 13 2024 10:46:09 GMT-0500 (Eastern Standard Time),867163.3000001907,A,attl,I,l,112,1,1850.0999999046326,865313.2000002861,9005,WL,A,12.0
7,28.517000198364258,immed,31482.999801635742,Wed Nov 13 2024 10:46:09 GMT-0500 (Eastern Standard Time),867280.1000003815,A,attle,I,e,87,1,1966.9000000953674,865313.2000002861,9005,WL,A,12.0
7,28.683000087738037,immed,31316.999912261963,Wed Nov 13 2024 10:46:09 GMT-0500 (Eastern Standard Time),867446.1000003815,A,attleenter,I,enter,153,1,2132.9000000953674,865313.2000002861,9005,WL,A,12.0
7,29.367000102996826,immed,30632.999897003174,Wed Nov 13 2024 10:46:09 GMT-0500 (Eastern Standard Time),868129.9000000954,A,b,I,b,663,1,683.5,867446.4000000954,9005,WL,A,13.0
7,29.634000062942505,immed,30365.999937057495,Wed Nov 13 2024 10:46:09 GMT-0500 (Eastern Standard Time),868396.6000003815,A,bu,I,u,248,1,950.2000002861023,867446.4000000954,9005,WL,A,13.0
7,29.75,immed,30250.0,Wed Nov 13 2024 10:46:09 GMT-0500 (Eastern Standard Time),868513.4000000954,A,but,I,t,85,1,1067.0,867446.4000000954,9005,WL,A,13.0
7,29.950000047683716,immed,30049.999952316284,Wed Nov 13 2024 10:46:09 GMT-0500 (Eastern Standard Time),868713.5,A,butt,I,t,185,1,1267.0999999046326,867446.4000000954,9005,WL,A,13.0
7,30.034000158309937,immed,29965.999841690063,Wed Nov 13 2024 10:46:09 GMT-0500 (Eastern Standard Time),868796.5,A,butto,I,o,65,1,1350.0999999046326,867446.4000000954,9005,WL,A,13.0
7,30.23300004005432,immed,29766.99995994568,Wed Nov 13 2024 10:46:09 GMT-0500 (Eastern Standard Time),868996.3000001907,A,button,I,n,190,1,1549.9000000953674,867446.4000000954,9005,WL,A,13.0
7,30.450000047683716,immed,29549.999952316284,Wed Nov 13 2024 10:46:09 GMT-0500 (Eastern Standard Time),869213.0,A,buttonenter,I,enter,198,1,1766.5999999046326,867446.4000000954,9005,WL,A,13.0
7,33.551000118255615,immed,26448.999881744385,Wed Nov 13 2024 10:46:09 GMT-0500 (Eastern Standard Time),872313.7000002861,A,c,I,c,3088,1,3100.4000000953674,869213.3000001907,9005,WL,A,14.0
7,33.66700005531311,immed,26332.99994468689,Wed Nov 13 2024 10:46:09 GMT-0500 (Eastern Standard Time),872430.2000002861,A,ch,I,h,97,1,3216.9000000953674,869213.3000001907,9005,WL,A,14.0
7,33.75,immed,26250.0,Wed Nov 13 2024 10:46:09 GMT-0500 (Eastern Standard Time),872513.4000000954,A,chi,I,i,60,1,3300.0999999046326,869213.3000001907,9005,WL,A,14.0
7,34.00100016593933,immed,25998.99983406067,Wed Nov 13 2024 10:46:09 GMT-0500 (Eastern Standard Time),872763.5,A,chim,I,m,226,1,3550.199999809265,869213.3000001907,9005,WL,A,14.0
7,34.16700005531311,immed,25832.99994468689,Wed Nov 13 2024 10:46:09 GMT-0500 (Eastern Standard Time),872930.2000002861,A,chimn,I,n,143,1,3716.9000000953674,869213.3000001907,9005,WL,A,14.0
7,34.23300004005432,immed,25766.99995994568,Wed Nov 13 2024 10:46:09 GMT-0500 (Eastern Standard Time),872996.1000003815,A,chimne,I,e,54,1,3782.800000190735,869213.3000001907,9005,WL,A,14.0
7,34.367000102996826,immed,25632.999897003174,Wed Nov 13 2024 10:46:09 GMT-0500 (Eastern Standard Time),873130.0,A,chimney,I,y,120,1,3916.699999809265,869213.3000001907,9005,WL,A,14.0
7,34.60000014305115,immed,25399.999856948853,Wed Nov 13 2024 10:46:09 GMT-0500 (Eastern Standard Time),873362.8000001907,A,chimneyenter,I,enter,201,1,4149.5,869213.3000001907,9005,WL,A,14.0
7,43.967000007629395,immed,16032.999992370605,Wed Nov 13 2024 10:46:09 GMT-0500 (Eastern Standard Time),882729.9000000954,A,m,I,m,9355,1,9366.699999809265,873363.2000002861,9005,WL,A,15.0
7,44.56700015068054,immed,15432.999849319458,Wed Nov 13 2024 10:46:09 GMT-0500 (Eastern Standard Time),883330.0,A,me,I,e,576,1,9966.799999713898,873363.2000002861,9005,WL,A,15.0
7,44.867000102996826,immed,15132.999897003174,Wed Nov 13 2024 10:46:09 GMT-0500 (Eastern Standard Time),883630.2000002861,A,mea,I,a,279,1,10267.0,873363.2000002861,9005,WL,A,15.0
7,45.10000014305115,immed,14899.999856948853,Wed Nov 13 2024 10:46:09 GMT-0500 (Eastern Standard Time),883863.4000000954,A,mead,I,d,220,1,10500.199999809265,873363.2000002861,9005,WL,A,15.0
7,45.200000047683716,immed,14799.999952316284,Wed Nov 13 2024 10:46:09 GMT-0500 (Eastern Standard Time),883963.4000000954,A,meado,I,o,75,1,10600.199999809265,873363.2000002861,9005,WL,A,15.0
7,45.33400011062622,immed,14665.99988937378,Wed Nov 13 2024 10:46:09 GMT-0500 (Eastern Standard Time),884096.7000002861,A,meadow,I,w,111,1,10733.5,873363.2000002861,9005,WL,A,15.0
7,45.48300004005432,immed,14516.999959945679,Wed Nov 13 2024 10:46:09 GMT-0500 (Eastern Standard Time),884246.3000001907,A,meadowenter,I,enter,136,1,10883.099999904633,873363.2000002861,9005,WL,A,15.0
