block_c,block_dur,condition,countdown,datetime,endtime,list,multichar_response,project,response,response_time,session_number,start_end,starttime,subject_id,task,task_vers,trial
,,,,Wed Mar 26 2025 11:33:46 GMT-0400 (Eastern Daylight Time),,,,I,space,713,2,,,9005,WL,C,
prac,,0,,Wed Mar 26 2025 11:33:46 GMT-0400 (Eastern Daylight Time),,NA,b,I,b,4014,2,,,9005,WL,C,1.0
prac,,0,,Wed Mar 26 2025 11:33:46 GMT-0400 (Eastern Daylight Time),,NA,bo,I,o,416,2,,,9005,WL,C,1.0
prac,,0,,Wed Mar 26 2025 11:33:46 GMT-0400 (Eastern Daylight Time),,NA,boo,I,o,196,2,,,9005,WL,C,1.0
prac,,0,,Wed Mar 26 2025 11:33:46 GMT-0400 (Eastern Daylight Time),,NA,boos,I,s,112,2,,,9005,WL,C,1.0
prac,,0,,Wed Mar 26 2025 11:33:46 GMT-0400 (Eastern Daylight Time),,NA,boost,I,t,462,2,,,9005,WL,C,1.0
prac,,0,,Wed Mar 26 2025 11:33:46 GMT-0400 (Eastern Daylight Time),,NA,boostenter,I,enter,1631,2,,,9005,WL,C,1.0
1,0.16700005531311035,learn,59832.99994468689,Wed Mar 26 2025 11:33:46 GMT-0400 (Eastern Daylight Time),153299.40000009537,A,t,I,t,146,2,166.09999990463257,153133.30000019073,9005,WL,C,1.0
1,0.35000014305114746,learn,59649.99985694885,Wed Mar 26 2025 11:33:46 GMT-0400 (Eastern Daylight Time),153483.0,A,to,I,o,161,2,349.69999980926514,153133.30000019073,9005,WL,C,1.0
1,0.5830001831054688,learn,59416.99981689453,Wed Mar 26 2025 11:33:46 GMT-0400 (Eastern Daylight Time),153715.40000009537,A,tow,I,w,212,2,582.0999999046326,153133.30000019073,9005,WL,C,1.0
1,0.75,learn,59250.0,Wed Mar 26 2025 11:33:46 GMT-0400 (Eastern Daylight Time),153882.5,A,towe,I,e,142,2,749.1999998092651,153133.30000019073,9005,WL,C,1.0
1,0.9170000553131104,learn,59082.99994468689,Wed Mar 26 2025 11:33:46 GMT-0400 (Eastern Daylight Time),154049.19999980927,A,tower,I,r,148,2,915.8999996185303,153133.30000019073,9005,WL,C,1.0
1,1.6660001277923584,learn,58333.99987220764,Wed Mar 26 2025 11:33:46 GMT-0400 (Eastern Daylight Time),154798.69999980927,A,towerenter,I,enter,724,2,1665.3999996185303,153133.30000019073,9005,WL,C,1.0
1,2.0830001831054688,learn,57916.99981689453,Wed Mar 26 2025 11:33:46 GMT-0400 (Eastern Daylight Time),155215.90000009537,A,w,I,w,402,2,416.5,154799.40000009537,9005,WL,C,2.0
1,2.5830001831054688,learn,57416.99981689453,Wed Mar 26 2025 11:33:46 GMT-0400 (Eastern Daylight Time),155716.0,A,wh,I,h,479,2,916.5999999046326,154799.40000009537,9005,WL,C,2.0
1,2.9660000801086426,learn,57033.99991989136,Wed Mar 26 2025 11:33:46 GMT-0400 (Eastern Daylight Time),156099.09999990463,A,whe,I,e,362,2,1299.6999998092651,154799.40000009537,9005,WL,C,2.0
1,3.25,learn,56750.0,Wed Mar 26 2025 11:33:46 GMT-0400 (Eastern Daylight Time),156382.59999990463,A,whea,I,a,266,2,1583.1999998092651,154799.40000009537,9005,WL,C,2.0
1,3.4830000400543213,learn,56516.99995994568,Wed Mar 26 2025 11:33:46 GMT-0400 (Eastern Daylight Time),156615.90000009537,A,wheat,I,t,207,2,1816.5,154799.40000009537,9005,WL,C,2.0
1,3.7829999923706055,learn,56217.000007629395,Wed Mar 26 2025 11:33:46 GMT-0400 (Eastern Daylight Time),156915.30000019073,A,wheatenter,I,enter,278,2,2115.9000000953674,154799.40000009537,9005,WL,C,2.0
1,5.1000001430511475,learn,54899.99985694885,Wed Mar 26 2025 11:33:46 GMT-0400 (Eastern Daylight Time),158232.5,A,b,I,b,1294,2,1316.5999999046326,156915.90000009537,9005,WL,C,3.0
1,5.550000190734863,learn,54449.99980926514,Wed Mar 26 2025 11:33:46 GMT-0400 (Eastern Daylight Time),158682.80000019073,A,bo,I,o,438,2,1766.9000000953674,156915.90000009537,9005,WL,C,3.0
1,5.950000047683716,learn,54049.999952316284,Wed Mar 26 2025 11:33:46 GMT-0400 (Eastern Daylight Time),159082.5,A,boy,I,y,372,2,2166.5999999046326,156915.90000009537,9005,WL,C,3.0
1,6.199000120162964,learn,53800.999879837036,Wed Mar 26 2025 11:33:46 GMT-0400 (Eastern Daylight Time),159332.0,A,boyenter,I,enter,227,2,2416.0999999046326,156915.90000009537,9005,WL,C,3.0
1,6.700000047683716,learn,53299.999952316284,Wed Mar 26 2025 11:33:46 GMT-0400 (Eastern Daylight Time),159832.40000009537,A,q,I,q,478,2,500.0,159332.40000009537,9005,WL,C,4.0
1,6.966000080108643,learn,53033.99991989136,Wed Mar 26 2025 11:33:46 GMT-0400 (Eastern Daylight Time),160099.0,A,qu,I,u,247,2,766.5999999046326,159332.40000009537,9005,WL,C,4.0
1,7.150000095367432,learn,52849.99990463257,Wed Mar 26 2025 11:33:46 GMT-0400 (Eastern Daylight Time),160282.80000019073,A,que,I,e,173,2,950.4000000953674,159332.40000009537,9005,WL,C,4.0
1,7.383000135421753,learn,52616.99986457825,Wed Mar 26 2025 11:33:46 GMT-0400 (Eastern Daylight Time),160515.80000019073,A,quee,I,e,204,2,1183.4000000953674,159332.40000009537,9005,WL,C,4.0
1,7.583000183105469,learn,52416.99981689453,Wed Mar 26 2025 11:33:46 GMT-0400 (Eastern Daylight Time),160715.69999980927,A,queen,I,n,179,2,1383.2999997138977,159332.40000009537,9005,WL,C,4.0
1,8.233000040054321,learn,51766.99995994568,Wed Mar 26 2025 11:33:46 GMT-0400 (Eastern Daylight Time),161365.40000009537,A,queenenter,I,enter,619,2,2033.0,159332.40000009537,9005,WL,C,4.0
1,8.733000040054321,learn,51266.99995994568,Wed Mar 26 2025 11:33:46 GMT-0400 (Eastern Daylight Time),161865.69999980927,A,c,I,c,476,2,499.7999997138977,161365.90000009537,9005,WL,C,5.0
1,8.867000102996826,learn,51132.999897003174,Wed Mar 26 2025 11:33:46 GMT-0400 (Eastern Daylight Time),161999.19999980927,A,ca,I,a,119,2,633.2999997138977,161365.90000009537,9005,WL,C,5.0
1,9.065999984741211,learn,50934.00001525879,Wed Mar 26 2025 11:33:46 GMT-0400 (Eastern Daylight Time),162199.0,A,cam,I,m,176,2,833.0999999046326,161365.90000009537,9005,WL,C,5.0
1,9.683000087738037,learn,50316.99991226196,Wed Mar 26 2025 11:33:46 GMT-0400 (Eastern Daylight Time),162815.90000009537,A,camp,I,p,598,2,1450.0,161365.90000009537,9005,WL,C,5.0
1,10.266000032424927,learn,49733.99996757507,Wed Mar 26 2025 11:33:46 GMT-0400 (Eastern Daylight Time),163398.59999990463,A,campenter,I,enter,558,2,2032.6999998092651,161365.90000009537,9005,WL,C,5.0
1,10.617000102996826,learn,49382.999897003174,Wed Mar 26 2025 11:33:46 GMT-0400 (Eastern Daylight Time),163749.19999980927,A,d,I,d,331,2,350.19999980926514,163399.0,9005,WL,C,6.0
1,10.75,learn,49250.0,Wed Mar 26 2025 11:33:46 GMT-0400 (Eastern Daylight Time),163882.40000009537,A,do,I,o,106,2,483.40000009536743,163399.0,9005,WL,C,6.0
1,10.900000095367432,learn,49099.99990463257,Wed Mar 26 2025 11:33:46 GMT-0400 (Eastern Daylight Time),164032.5,A,doc,I,c,124,2,633.5,163399.0,9005,WL,C,6.0
1,11.200000047683716,learn,48799.999952316284,Wed Mar 26 2025 11:33:46 GMT-0400 (Eastern Daylight Time),164332.40000009537,A,doct,I,t,287,2,933.4000000953674,163399.0,9005,WL,C,6.0
1,11.516999959945679,learn,48483.00004005432,Wed Mar 26 2025 11:33:46 GMT-0400 (Eastern Daylight Time),164649.09999990463,A,docto,I,o,291,2,1250.0999999046326,163399.0,9005,WL,C,6.0
1,11.75,learn,48250.0,Wed Mar 26 2025 11:33:46 GMT-0400 (Eastern Daylight Time),164882.40000009537,A,doctor,I,r,214,2,1483.4000000953674,163399.0,9005,WL,C,6.0
1,11.999000072479248,learn,48000.99992752075,Wed Mar 26 2025 11:33:46 GMT-0400 (Eastern Daylight Time),165132.09999990463,A,doctorenter,I,enter,227,2,1733.0999999046326,163399.0,9005,WL,C,6.0
1,12.315999984741211,learn,47684.00001525879,Wed Mar 26 2025 11:33:46 GMT-0400 (Eastern Daylight Time),165449.09999990463,A,l,I,l,293,2,316.59999990463257,165132.5,9005,WL,C,7.0
1,12.433000087738037,learn,47566.99991226196,Wed Mar 26 2025 11:33:46 GMT-0400 (Eastern Daylight Time),165565.80000019073,A,le,I,e,103,2,433.30000019073486,165132.5,9005,WL,C,7.0
1,12.565999984741211,learn,47434.00001525879,Wed Mar 26 2025 11:33:46 GMT-0400 (Eastern Daylight Time),165699.0,A,let,I,t,106,2,566.5,165132.5,9005,WL,C,7.0
1,12.766000032424927,learn,47233.99996757507,Wed Mar 26 2025 11:33:46 GMT-0400 (Eastern Daylight Time),165898.69999980927,A,lett,I,t,180,2,766.1999998092651,165132.5,9005,WL,C,7.0
1,12.983000040054321,learn,47016.99995994568,Wed Mar 26 2025 11:33:46 GMT-0400 (Eastern Daylight Time),166115.90000009537,A,lette,I,e,197,2,983.4000000953674,165132.5,9005,WL,C,7.0
1,13.083000183105469,learn,46916.99981689453,Wed Mar 26 2025 11:33:46 GMT-0400 (Eastern Daylight Time),166215.90000009537,A,letter,I,r,67,2,1083.4000000953674,165132.5,9005,WL,C,7.0
1,13.449000120162964,learn,46550.999879837036,Wed Mar 26 2025 11:33:46 GMT-0400 (Eastern Daylight Time),166582.0,A,letterenter,I,enter,342,2,1449.5,165132.5,9005,WL,C,7.0
1,19.216000080108643,learn,40783.99991989136,Wed Mar 26 2025 11:33:46 GMT-0400 (Eastern Daylight Time),172349.0,A,f,I,f,5756,2,5766.5,166582.5,9005,WL,C,8.0
1,19.33300018310547,learn,40666.99981689453,Wed Mar 26 2025 11:33:46 GMT-0400 (Eastern Daylight Time),172465.90000009537,A,fi,I,i,98,2,5883.400000095367,166582.5,9005,WL,C,8.0
1,19.450000047683716,learn,40549.999952316284,Wed Mar 26 2025 11:33:46 GMT-0400 (Eastern Daylight Time),172582.5,A,fir,I,r,85,2,6000.0,166582.5,9005,WL,C,8.0
1,19.549000024795532,learn,40450.99997520447,Wed Mar 26 2025 11:33:46 GMT-0400 (Eastern Daylight Time),172681.90000009537,A,fire,I,e,81,2,6099.400000095367,166582.5,9005,WL,C,8.0
1,19.64900016784668,learn,40350.99983215332,Wed Mar 26 2025 11:33:46 GMT-0400 (Eastern Daylight Time),172781.90000009537,A,fireenter,I,enter,87,2,6199.400000095367,166582.5,9005,WL,C,8.0
1,41.200000047683716,learn,18799.999952316284,Wed Mar 26 2025 11:33:46 GMT-0400 (Eastern Daylight Time),194332.40000009537,A,f,I,f,21541,2,21550.099999904633,172782.30000019073,9005,WL,C,9.0
1,41.48300004005432,learn,18516.99995994568,Wed Mar 26 2025 11:33:46 GMT-0400 (Eastern Daylight Time),194615.80000019073,A,fa,I,a,259,2,21833.5,172782.30000019073,9005,WL,C,9.0
1,41.66600012779236,learn,18333.99987220764,Wed Mar 26 2025 11:33:46 GMT-0400 (Eastern Daylight Time),194799.0,A,far,I,r,169,2,22016.699999809265,172782.30000019073,9005,WL,C,9.0
1,41.91700005531311,learn,18082.99994468689,Wed Mar 26 2025 11:33:46 GMT-0400 (Eastern Daylight Time),195049.19999980927,A,farm,I,m,223,2,22266.89999961853,172782.30000019073,9005,WL,C,9.0
1,42.16600012779236,learn,17833.99987220764,Wed Mar 26 2025 11:33:46 GMT-0400 (Eastern Daylight Time),195298.69999980927,A,farmenter,I,enter,230,2,22516.39999961853,172782.30000019073,9005,WL,C,9.0
1,47.96600008010864,learn,12033.999919891357,Wed Mar 26 2025 11:33:46 GMT-0400 (Eastern Daylight Time),201098.80000019073,A,t,I,t,5792,2,5799.800000190735,195299.0,9005,WL,C,10.0
1,48.16600012779236,learn,11833.999872207642,Wed Mar 26 2025 11:33:46 GMT-0400 (Eastern Daylight Time),201299.0,A,to,I,o,182,2,6000.0,195299.0,9005,WL,C,10.0
1,48.282999992370605,learn,11717.000007629395,Wed Mar 26 2025 11:33:46 GMT-0400 (Eastern Daylight Time),201415.59999990463,A,tow,I,w,85,2,6116.599999904633,195299.0,9005,WL,C,10.0
1,48.41600012779236,learn,11583.999872207642,Wed Mar 26 2025 11:33:46 GMT-0400 (Eastern Daylight Time),201549.09999990463,A,towe,I,e,113,2,6250.099999904633,195299.0,9005,WL,C,10.0
1,48.66600012779236,learn,11333.999872207642,Wed Mar 26 2025 11:33:46 GMT-0400 (Eastern Daylight Time),201799.0,A,towel,I,l,218,2,6500.0,195299.0,9005,WL,C,10.0
1,48.96600008010864,learn,11033.999919891357,Wed Mar 26 2025 11:33:46 GMT-0400 (Eastern Daylight Time),202098.59999990463,A,towelenter,I,enter,280,2,6799.599999904633,195299.0,9005,WL,C,10.0
1,60.01699995994568,learn,-16.99995994567871,Wed Mar 26 2025 11:33:46 GMT-0400 (Eastern Daylight Time),213149.19999980927,A,None,I,None,11044,2,11050.199999809265,202099.0,9005,WL,C,11.0
2,1.0,learn,59000.0,Wed Mar 26 2025 11:33:46 GMT-0400 (Eastern Daylight Time),288315.59999990463,A,t,I,t,988,2,999.2999997138977,287316.30000019073,9005,WL,C,1.0
2,1.2829999923706055,learn,58717.000007629395,Wed Mar 26 2025 11:33:46 GMT-0400 (Eastern Daylight Time),288598.80000019073,A,to,I,o,261,2,1282.5,287316.30000019073,9005,WL,C,1.0
2,1.5329999923706055,learn,58467.000007629395,Wed Mar 26 2025 11:33:46 GMT-0400 (Eastern Daylight Time),288849.0,A,tow,I,w,234,2,1532.6999998092651,287316.30000019073,9005,WL,C,1.0
2,1.75,learn,58250.0,Wed Mar 26 2025 11:33:46 GMT-0400 (Eastern Daylight Time),289065.59999990463,A,towe,I,e,182,2,1749.2999997138977,287316.30000019073,9005,WL,C,1.0
2,1.9670000076293945,learn,58032.999992370605,Wed Mar 26 2025 11:33:46 GMT-0400 (Eastern Daylight Time),289282.30000019073,A,tower,I,r,192,2,1966.0,287316.30000019073,9005,WL,C,1.0
2,2.3329999446868896,learn,57667.00005531311,Wed Mar 26 2025 11:33:46 GMT-0400 (Eastern Daylight Time),289648.5,A,towerenter,I,enter,340,2,2332.199999809265,287316.30000019073,9005,WL,C,1.0
2,2.6670000553131104,learn,57332.99994468689,Wed Mar 26 2025 11:33:46 GMT-0400 (Eastern Daylight Time),289982.30000019073,A,w,I,w,322,2,333.40000009536743,289648.90000009537,9005,WL,C,2.0
2,2.816999912261963,learn,57183.00008773804,Wed Mar 26 2025 11:33:46 GMT-0400 (Eastern Daylight Time),290132.30000019073,A,wh,I,h,128,2,483.40000009536743,289648.90000009537,9005,WL,C,2.0
2,2.882999897003174,learn,57117.000102996826,Wed Mar 26 2025 11:33:46 GMT-0400 (Eastern Daylight Time),290198.40000009537,A,whe,I,e,34,2,549.5,289648.90000009537,9005,WL,C,2.0
2,3.0329999923706055,learn,56967.000007629395,Wed Mar 26 2025 11:33:46 GMT-0400 (Eastern Daylight Time),290348.80000019073,A,whea,I,a,140,2,699.9000000953674,289648.90000009537,9005,WL,C,2.0
2,3.1500000953674316,learn,56849.99990463257,Wed Mar 26 2025 11:33:46 GMT-0400 (Eastern Daylight Time),290465.5,A,wheat,I,t,90,2,816.5999999046326,289648.90000009537,9005,WL,C,2.0
2,3.450000047683716,learn,56549.999952316284,Wed Mar 26 2025 11:33:46 GMT-0400 (Eastern Daylight Time),290765.09999990463,A,wheatenter,I,enter,286,2,1116.1999998092651,289648.90000009537,9005,WL,C,2.0
2,4.016999959945679,learn,55983.00004005432,Wed Mar 26 2025 11:33:46 GMT-0400 (Eastern Daylight Time),291332.5,A,q,I,q,549,2,566.9000000953674,290765.59999990463,9005,WL,C,3.0
2,4.150000095367432,learn,55849.99990463257,Wed Mar 26 2025 11:33:46 GMT-0400 (Eastern Daylight Time),291465.69999980927,A,qu,I,u,107,2,700.0999999046326,290765.59999990463,9005,WL,C,3.0
2,4.266999959945679,learn,55733.00004005432,Wed Mar 26 2025 11:33:46 GMT-0400 (Eastern Daylight Time),291582.30000019073,A,que,I,e,102,2,816.7000002861023,290765.59999990463,9005,WL,C,3.0
2,4.5,learn,55500.0,Wed Mar 26 2025 11:33:46 GMT-0400 (Eastern Daylight Time),291815.59999990463,A,quee,I,e,209,2,1050.0,290765.59999990463,9005,WL,C,3.0
2,4.617000102996826,learn,55382.999897003174,Wed Mar 26 2025 11:33:46 GMT-0400 (Eastern Daylight Time),291932.30000019073,A,queen,I,n,102,2,1166.7000002861023,290765.59999990463,9005,WL,C,3.0
2,4.950000047683716,learn,55049.999952316284,Wed Mar 26 2025 11:33:46 GMT-0400 (Eastern Daylight Time),292265.30000019073,A,queenenter,I,enter,315,2,1499.7000002861023,290765.59999990463,9005,WL,C,3.0
2,5.450000047683716,learn,54549.999952316284,Wed Mar 26 2025 11:33:46 GMT-0400 (Eastern Daylight Time),292765.59999990463,A,s,I,s,490,2,500.0,292265.59999990463,9005,WL,C,4.0
2,5.566999912261963,learn,54433.00008773804,Wed Mar 26 2025 11:33:46 GMT-0400 (Eastern Daylight Time),292882.09999990463,A,su,I,u,98,2,616.5,292265.59999990463,9005,WL,C,4.0
2,5.7829999923706055,learn,54217.000007629395,Wed Mar 26 2025 11:33:46 GMT-0400 (Eastern Daylight Time),293098.59999990463,A,sug,I,g,196,2,833.0,292265.59999990463,9005,WL,C,4.0
2,5.933000087738037,learn,54066.99991226196,Wed Mar 26 2025 11:33:46 GMT-0400 (Eastern Daylight Time),293248.90000009537,A,suga,I,a,134,2,983.3000001907349,292265.59999990463,9005,WL,C,4.0
2,6.066999912261963,learn,53933.00008773804,Wed Mar 26 2025 11:33:46 GMT-0400 (Eastern Daylight Time),293382.19999980927,A,sugar,I,r,103,2,1116.5999999046326,292265.59999990463,9005,WL,C,4.0
2,6.365999937057495,learn,53634.000062942505,Wed Mar 26 2025 11:33:46 GMT-0400 (Eastern Daylight Time),293681.90000009537,A,sugarenter,I,enter,272,2,1416.3000001907349,292265.59999990463,9005,WL,C,4.0
2,6.683000087738037,learn,53316.99991226196,Wed Mar 26 2025 11:33:46 GMT-0400 (Eastern Daylight Time),293998.80000019073,A,h,I,h,305,2,316.6000003814697,293682.19999980927,9005,WL,C,5.0
2,6.83299994468689,learn,53167.00005531311,Wed Mar 26 2025 11:33:46 GMT-0400 (Eastern Daylight Time),294149.09999990463,A,ho,I,o,129,2,466.90000009536743,293682.19999980927,9005,WL,C,5.0
2,7.08299994468689,learn,52917.00005531311,Wed Mar 26 2025 11:33:46 GMT-0400 (Eastern Daylight Time),294398.80000019073,A,hom,I,m,233,2,716.6000003814697,293682.19999980927,9005,WL,C,5.0
2,7.233000040054321,learn,52766.99995994568,Wed Mar 26 2025 11:33:46 GMT-0400 (Eastern Daylight Time),294548.90000009537,A,home,I,e,120,2,866.7000002861023,293682.19999980927,9005,WL,C,5.0
2,7.632999897003174,learn,52367.000102996826,Wed Mar 26 2025 11:33:46 GMT-0400 (Eastern Daylight Time),294948.5,A,homeenter,I,enter,378,2,1266.3000001907349,293682.19999980927,9005,WL,C,5.0
2,8.049999952316284,learn,51950.000047683716,Wed Mar 26 2025 11:33:46 GMT-0400 (Eastern Daylight Time),295365.5,A,b,I,b,398,2,416.5,294949.0,9005,WL,C,6.0
2,8.450000047683716,learn,51549.999952316284,Wed Mar 26 2025 11:33:46 GMT-0400 (Eastern Daylight Time),295765.69999980927,A,bo,I,o,377,2,816.6999998092651,294949.0,9005,WL,C,6.0
2,8.766999959945679,learn,51233.00004005432,Wed Mar 26 2025 11:33:46 GMT-0400 (Eastern Daylight Time),296082.19999980927,A,boy,I,y,298,2,1133.1999998092651,294949.0,9005,WL,C,6.0
2,9.065999984741211,learn,50934.00001525879,Wed Mar 26 2025 11:33:46 GMT-0400 (Eastern Daylight Time),296381.80000019073,A,boyenter,I,enter,284,2,1432.8000001907349,294949.0,9005,WL,C,6.0
2,9.41700005531311,learn,50582.99994468689,Wed Mar 26 2025 11:33:46 GMT-0400 (Eastern Daylight Time),296732.19999980927,A,c,I,c,341,2,349.8999996185303,296382.30000019073,9005,WL,C,7.0
2,9.532999992370605,learn,50467.000007629395,Wed Mar 26 2025 11:33:46 GMT-0400 (Eastern Daylight Time),296849.19999980927,A,co,I,o,101,2,466.8999996185303,296382.30000019073,9005,WL,C,7.0
2,9.766999959945679,learn,50233.00004005432,Wed Mar 26 2025 11:33:46 GMT-0400 (Eastern Daylight Time),297082.40000009537,A,cor,I,r,207,2,700.0999999046326,296382.30000019073,9005,WL,C,7.0
2,9.900000095367432,learn,50099.99990463257,Wed Mar 26 2025 11:33:46 GMT-0400 (Eastern Daylight Time),297215.59999990463,A,corn,I,n,118,2,833.2999997138977,296382.30000019073,9005,WL,C,7.0
2,11.382999897003174,learn,48617.000102996826,Wed Mar 26 2025 11:33:46 GMT-0400 (Eastern Daylight Time),298698.40000009537,A,cornenter,I,enter,1472,2,2316.0999999046326,296382.30000019073,9005,WL,C,7.0
2,12.032999992370605,learn,47967.000007629395,Wed Mar 26 2025 11:33:46 GMT-0400 (Eastern Daylight Time),299348.90000009537,A,n,I,n,633,2,650.2000002861023,298698.69999980927,9005,WL,C,8.0
2,12.400000095367432,learn,47599.99990463257,Wed Mar 26 2025 11:33:46 GMT-0400 (Eastern Daylight Time),299715.59999990463,A,na,I,a,348,2,1016.9000000953674,298698.69999980927,9005,WL,C,8.0
2,12.650000095367432,learn,47349.99990463257,Wed Mar 26 2025 11:33:46 GMT-0400 (Eastern Daylight Time),299965.59999990463,A,nai,I,i,236,2,1266.9000000953674,298698.69999980927,9005,WL,C,8.0
2,13.150000095367432,learn,46849.99990463257,Wed Mar 26 2025 11:33:46 GMT-0400 (Eastern Daylight Time),300465.59999990463,A,nail,I,l,482,2,1766.9000000953674,298698.69999980927,9005,WL,C,8.0
2,13.882999897003174,learn,46117.000102996826,Wed Mar 26 2025 11:33:46 GMT-0400 (Eastern Daylight Time),301198.5,A,nailenter,I,enter,718,2,2499.800000190735,298698.69999980927,9005,WL,C,8.0
2,16.15000009536743,learn,43849.99990463257,Wed Mar 26 2025 11:33:46 GMT-0400 (Eastern Daylight Time),303465.59999990463,A,d,I,d,2246,2,2266.7999997138977,301198.80000019073,9005,WL,C,9.0
2,16.23300004005432,learn,43766.99995994568,Wed Mar 26 2025 11:33:46 GMT-0400 (Eastern Daylight Time),303548.80000019073,A,do,I,o,70,2,2350.0,301198.80000019073,9005,WL,C,9.0
2,16.40000009536743,learn,43599.99990463257,Wed Mar 26 2025 11:33:46 GMT-0400 (Eastern Daylight Time),303715.59999990463,A,doc,I,c,142,2,2516.7999997138977,301198.80000019073,9005,WL,C,9.0
2,16.65000009536743,learn,43349.99990463257,Wed Mar 26 2025 11:33:46 GMT-0400 (Eastern Daylight Time),303965.59999990463,A,doct,I,t,228,2,2766.7999997138977,301198.80000019073,9005,WL,C,9.0
2,16.76699995994568,learn,43233.00004005432,Wed Mar 26 2025 11:33:46 GMT-0400 (Eastern Daylight Time),304082.19999980927,A,docto,I,o,99,2,2883.3999996185303,301198.80000019073,9005,WL,C,9.0
2,16.91700005531311,learn,43082.99994468689,Wed Mar 26 2025 11:33:46 GMT-0400 (Eastern Daylight Time),304232.30000019073,A,doctor,I,r,116,2,3033.5,301198.80000019073,9005,WL,C,9.0
2,17.16599988937378,learn,42834.00011062622,Wed Mar 26 2025 11:33:46 GMT-0400 (Eastern Daylight Time),304481.69999980927,A,doctorenter,I,enter,223,2,3282.8999996185303,301198.80000019073,9005,WL,C,9.0
2,17.65000009536743,learn,42349.99990463257,Wed Mar 26 2025 11:33:46 GMT-0400 (Eastern Daylight Time),304965.69999980927,A,l,I,l,466,2,483.59999990463257,304482.09999990463,9005,WL,C,10.0
2,17.75,learn,42250.0,Wed Mar 26 2025 11:33:46 GMT-0400 (Eastern Daylight Time),305065.5,A,le,I,e,74,2,583.4000000953674,304482.09999990463,9005,WL,C,10.0
2,17.882999897003174,learn,42117.000102996826,Wed Mar 26 2025 11:33:46 GMT-0400 (Eastern Daylight Time),305198.80000019073,A,let,I,t,112,2,716.7000002861023,304482.09999990463,9005,WL,C,10.0
2,18.09999990463257,learn,41900.00009536743,Wed Mar 26 2025 11:33:46 GMT-0400 (Eastern Daylight Time),305415.69999980927,A,lett,I,t,195,2,933.5999999046326,304482.09999990463,9005,WL,C,10.0
2,18.26699995994568,learn,41733.00004005432,Wed Mar 26 2025 11:33:46 GMT-0400 (Eastern Daylight Time),305582.30000019073,A,lette,I,e,152,2,1100.2000002861023,304482.09999990463,9005,WL,C,10.0
2,18.367000102996826,learn,41632.999897003174,Wed Mar 26 2025 11:33:46 GMT-0400 (Eastern Daylight Time),305682.40000009537,A,letter,I,r,81,2,1200.3000001907349,304482.09999990463,9005,WL,C,10.0
2,19.183000087738037,learn,40816.99991226196,Wed Mar 26 2025 11:33:46 GMT-0400 (Eastern Daylight Time),306498.59999990463,A,letterenter,I,enter,796,2,2016.5,304482.09999990463,9005,WL,C,10.0
2,22.25,learn,37750.0,Wed Mar 26 2025 11:33:46 GMT-0400 (Eastern Daylight Time),309565.59999990463,A,c,I,c,3056,2,3066.699999809265,306498.90000009537,9005,WL,C,11.0
2,23.34999990463257,learn,36650.00009536743,Wed Mar 26 2025 11:33:46 GMT-0400 (Eastern Daylight Time),310665.09999990463,A,,I,backspace,1072,2,4166.199999809265,306498.90000009537,9005,WL,C,11.0
2,23.65000009536743,learn,36349.99990463257,Wed Mar 26 2025 11:33:46 GMT-0400 (Eastern Daylight Time),310965.59999990463,A,h,I,h,283,2,4466.699999809265,306498.90000009537,9005,WL,C,11.0
2,23.867000102996826,learn,36132.999897003174,Wed Mar 26 2025 11:33:46 GMT-0400 (Eastern Daylight Time),311182.30000019073,A,ho,I,o,203,2,4683.400000095367,306498.90000009537,9005,WL,C,11.0
2,23.967000007629395,learn,36032.999992370605,Wed Mar 26 2025 11:33:46 GMT-0400 (Eastern Daylight Time),311282.19999980927,A,hou,I,u,82,2,4783.299999713898,306498.90000009537,9005,WL,C,11.0
2,24.08299994468689,learn,35917.00005531311,Wed Mar 26 2025 11:33:46 GMT-0400 (Eastern Daylight Time),311398.80000019073,A,hous,I,s,86,2,4899.900000095367,306498.90000009537,9005,WL,C,11.0
2,24.183000087738037,learn,35816.99991226196,Wed Mar 26 2025 11:33:46 GMT-0400 (Eastern Daylight Time),311498.59999990463,A,house,I,e,80,2,4999.699999809265,306498.90000009537,9005,WL,C,11.0
2,24.33299994468689,learn,35667.00005531311,Wed Mar 26 2025 11:33:46 GMT-0400 (Eastern Daylight Time),311648.40000009537,A,houseenter,I,enter,125,2,5149.5,306498.90000009537,9005,WL,C,11.0
2,30.75,learn,29250.0,Wed Mar 26 2025 11:33:46 GMT-0400 (Eastern Daylight Time),318065.19999980927,A,b,I,b,6402,2,6416.39999961853,311648.80000019073,9005,WL,C,12.0
2,31.25,learn,28750.0,Wed Mar 26 2025 11:33:46 GMT-0400 (Eastern Daylight Time),318565.5,A,bo,I,o,483,2,6916.699999809265,311648.80000019073,9005,WL,C,12.0
2,31.48300004005432,learn,28516.99995994568,Wed Mar 26 2025 11:33:46 GMT-0400 (Eastern Daylight Time),318798.5,A,bod,I,d,218,2,7149.699999809265,311648.80000019073,9005,WL,C,12.0
2,31.66599988937378,learn,28334.00011062622,Wed Mar 26 2025 11:33:46 GMT-0400 (Eastern Daylight Time),318981.69999980927,A,body,I,y,160,2,7332.89999961853,311648.80000019073,9005,WL,C,12.0
2,32.04900002479553,learn,27950.999975204468,Wed Mar 26 2025 11:33:46 GMT-0400 (Eastern Daylight Time),319365.09999990463,A,bodyenter,I,enter,362,2,7716.299999713898,311648.80000019073,9005,WL,C,12.0
2,32.71600008010864,learn,27283.999919891357,Wed Mar 26 2025 11:33:46 GMT-0400 (Eastern Daylight Time),320031.40000009537,A,n,I,n,652,2,665.9000000953674,319365.5,9005,WL,C,13.0
2,32.91599988937378,learn,27084.00011062622,Wed Mar 26 2025 11:33:46 GMT-0400 (Eastern Daylight Time),320232.09999990463,A,na,I,a,178,2,866.5999999046326,319365.5,9005,WL,C,13.0
2,33.08299994468689,learn,26917.00005531311,Wed Mar 26 2025 11:33:46 GMT-0400 (Eastern Daylight Time),320398.80000019073,A,nai,I,i,142,2,1033.3000001907349,319365.5,9005,WL,C,13.0
2,33.33299994468689,learn,26667.00005531311,Wed Mar 26 2025 11:33:46 GMT-0400 (Eastern Daylight Time),320649.0,A,nail,I,l,222,2,1283.5,319365.5,9005,WL,C,13.0
2,33.65000009536743,learn,26349.99990463257,Wed Mar 26 2025 11:33:46 GMT-0400 (Eastern Daylight Time),320965.09999990463,A,nailenter,I,enter,287,2,1599.5999999046326,319365.5,9005,WL,C,13.0
2,41.75,learn,18250.0,Wed Mar 26 2025 11:33:46 GMT-0400 (Eastern Daylight Time),329065.69999980927,A,q,I,q,8077,2,8100.199999809265,320965.5,9005,WL,C,14.0
2,42.06699991226196,learn,17933.000087738037,Wed Mar 26 2025 11:33:46 GMT-0400 (Eastern Daylight Time),329382.40000009537,A,qu,I,u,293,2,8416.900000095367,320965.5,9005,WL,C,14.0
2,42.382999897003174,learn,17617.000102996826,Wed Mar 26 2025 11:33:46 GMT-0400 (Eastern Daylight Time),329699.0,A,que,I,e,298,2,8733.5,320965.5,9005,WL,C,14.0
2,42.59999990463257,learn,17400.00009536743,Wed Mar 26 2025 11:33:46 GMT-0400 (Eastern Daylight Time),329915.40000009537,A,quee,I,e,204,2,8949.900000095367,320965.5,9005,WL,C,14.0
2,42.867000102996826,learn,17132.999897003174,Wed Mar 26 2025 11:33:46 GMT-0400 (Eastern Daylight Time),330182.30000019073,A,queen,I,n,237,2,9216.800000190735,320965.5,9005,WL,C,14.0
2,43.31599998474121,learn,16684.00001525879,Wed Mar 26 2025 11:33:46 GMT-0400 (Eastern Daylight Time),330631.80000019073,A,queenenter,I,enter,425,2,9666.300000190735,320965.5,9005,WL,C,14.0
2,52.08299994468689,learn,7917.00005531311,Wed Mar 26 2025 11:33:46 GMT-0400 (Eastern Daylight Time),339398.90000009537,A,f,I,f,8747,2,8766.700000286102,330632.19999980927,9005,WL,C,15.0
2,52.31699991226196,learn,7683.000087738037,Wed Mar 26 2025 11:33:46 GMT-0400 (Eastern Daylight Time),339632.19999980927,A,fl,I,l,215,2,9000.0,330632.19999980927,9005,WL,C,15.0
2,52.467000007629395,learn,7532.9999923706055,Wed Mar 26 2025 11:33:46 GMT-0400 (Eastern Daylight Time),339782.30000019073,A,fla,I,a,121,2,9150.10000038147,330632.19999980927,9005,WL,C,15.0
2,52.700000047683716,learn,7299.999952316284,Wed Mar 26 2025 11:33:46 GMT-0400 (Eastern Daylight Time),340015.59999990463,A,flag,I,g,218,2,9383.400000095367,330632.19999980927,9005,WL,C,15.0
2,53.200000047683716,learn,6799.999952316284,Wed Mar 26 2025 11:33:46 GMT-0400 (Eastern Daylight Time),340515.09999990463,A,flagenter,I,enter,481,2,9882.900000095367,330632.19999980927,9005,WL,C,15.0
3,1.7340002059936523,learn,58265.99979400635,Wed Mar 26 2025 11:33:46 GMT-0400 (Eastern Daylight Time),410932.19999980927,A,t,I,t,1714,2,1733.0999999046326,409199.09999990463,9005,WL,C,1.0
3,2.1500000953674316,learn,57849.99990463257,Wed Mar 26 2025 11:33:46 GMT-0400 (Eastern Daylight Time),411348.80000019073,A,to,I,o,396,2,2149.7000002861023,409199.09999990463,9005,WL,C,1.0
3,2.684000015258789,learn,57315.99998474121,Wed Mar 26 2025 11:33:46 GMT-0400 (Eastern Daylight Time),411882.30000019073,A,tow,I,w,524,2,2683.2000002861023,409199.09999990463,9005,WL,C,1.0
3,3.0,learn,57000.0,Wed Mar 26 2025 11:33:46 GMT-0400 (Eastern Daylight Time),412198.69999980927,A,towe,I,e,292,2,2999.5999999046326,409199.09999990463,9005,WL,C,1.0
3,3.2829999923706055,learn,56717.000007629395,Wed Mar 26 2025 11:33:46 GMT-0400 (Eastern Daylight Time),412482.09999990463,A,tower,I,r,266,2,3283.0,409199.09999990463,9005,WL,C,1.0
3,3.6000001430511475,learn,56399.99985694885,Wed Mar 26 2025 11:33:46 GMT-0400 (Eastern Daylight Time),412798.30000019073,A,towerenter,I,enter,300,2,3599.2000002861023,409199.09999990463,9005,WL,C,1.0
3,3.9840002059936523,learn,56015.99979400635,Wed Mar 26 2025 11:33:46 GMT-0400 (Eastern Daylight Time),413182.19999980927,A,q,I,q,372,2,383.5,412798.69999980927,9005,WL,C,2.0
3,4.1000001430511475,learn,55899.99985694885,Wed Mar 26 2025 11:33:46 GMT-0400 (Eastern Daylight Time),413298.69999980927,A,qu,I,u,98,2,500.0,412798.69999980927,9005,WL,C,2.0
3,4.267000198364258,learn,55732.99980163574,Wed Mar 26 2025 11:33:46 GMT-0400 (Eastern Daylight Time),413465.40000009537,A,que,I,e,139,2,666.7000002861023,412798.69999980927,9005,WL,C,2.0
3,4.483000040054321,learn,55516.99995994568,Wed Mar 26 2025 11:33:46 GMT-0400 (Eastern Daylight Time),413682.09999990463,A,quee,I,e,198,2,883.4000000953674,412798.69999980927,9005,WL,C,2.0
3,4.6000001430511475,learn,55399.99985694885,Wed Mar 26 2025 11:33:46 GMT-0400 (Eastern Daylight Time),413798.19999980927,A,queen,I,n,93,2,999.5,412798.69999980927,9005,WL,C,2.0
3,4.866000175476074,learn,55133.999824523926,Wed Mar 26 2025 11:33:46 GMT-0400 (Eastern Daylight Time),414065.0,A,queenenter,I,enter,251,2,1266.3000001907349,412798.69999980927,9005,WL,C,2.0
3,5.25,learn,54750.0,Wed Mar 26 2025 11:33:46 GMT-0400 (Eastern Daylight Time),414448.69999980927,A,c,I,c,370,2,383.2999997138977,414065.40000009537,9005,WL,C,3.0
3,5.450000047683716,learn,54549.999952316284,Wed Mar 26 2025 11:33:46 GMT-0400 (Eastern Daylight Time),414648.69999980927,A,ca,I,a,174,2,583.2999997138977,414065.40000009537,9005,WL,C,3.0
3,5.6000001430511475,learn,54399.99985694885,Wed Mar 26 2025 11:33:46 GMT-0400 (Eastern Daylight Time),414798.80000019073,A,cat,I,t,127,2,733.4000000953674,414065.40000009537,9005,WL,C,3.0
3,5.7829999923706055,learn,54217.000007629395,Wed Mar 26 2025 11:33:46 GMT-0400 (Eastern Daylight Time),414982.09999990463,A,catt,I,t,153,2,916.6999998092651,414065.40000009537,9005,WL,C,3.0
3,5.884000062942505,learn,54115.999937057495,Wed Mar 26 2025 11:33:46 GMT-0400 (Eastern Daylight Time),415082.30000019073,A,cattl,I,l,91,2,1016.9000000953674,414065.40000009537,9005,WL,C,3.0
3,5.983000040054321,learn,54016.99995994568,Wed Mar 26 2025 11:33:46 GMT-0400 (Eastern Daylight Time),415181.69999980927,A,cattle,I,e,77,2,1116.2999997138977,414065.40000009537,9005,WL,C,3.0
3,6.166000127792358,learn,53833.99987220764,Wed Mar 26 2025 11:33:46 GMT-0400 (Eastern Daylight Time),415364.90000009537,A,cattleenter,I,enter,162,2,1299.5,414065.40000009537,9005,WL,C,3.0
3,6.384000062942505,learn,53615.999937057495,Wed Mar 26 2025 11:33:46 GMT-0400 (Eastern Daylight Time),415582.09999990463,A,s,I,s,206,2,216.7999997138977,415365.30000019073,9005,WL,C,4.0
3,6.550000190734863,learn,53449.99980926514,Wed Mar 26 2025 11:33:46 GMT-0400 (Eastern Daylight Time),415748.69999980927,A,sh,I,h,146,2,383.3999996185303,415365.30000019073,9005,WL,C,4.0
3,6.700000047683716,learn,53299.999952316284,Wed Mar 26 2025 11:33:46 GMT-0400 (Eastern Daylight Time),415898.59999990463,A,sho,I,o,138,2,533.2999997138977,415365.30000019073,9005,WL,C,4.0
3,6.8500001430511475,learn,53149.99985694885,Wed Mar 26 2025 11:33:46 GMT-0400 (Eastern Daylight Time),416048.69999980927,A,shor,I,r,123,2,683.3999996185303,415365.30000019073,9005,WL,C,4.0
3,6.916000127792358,learn,53083.99987220764,Wed Mar 26 2025 11:33:46 GMT-0400 (Eastern Daylight Time),416115.0,A,shore,I,e,38,2,749.6999998092651,415365.30000019073,9005,WL,C,4.0
3,7.1000001430511475,learn,52899.99985694885,Wed Mar 26 2025 11:33:46 GMT-0400 (Eastern Daylight Time),416298.19999980927,A,shoreenter,I,enter,175,2,932.8999996185303,415365.30000019073,9005,WL,C,4.0
3,7.650000095367432,learn,52349.99990463257,Wed Mar 26 2025 11:33:46 GMT-0400 (Eastern Daylight Time),416848.80000019073,A,n,I,n,537,2,550.2000002861023,416298.59999990463,9005,WL,C,5.0
3,7.833000183105469,learn,52166.99981689453,Wed Mar 26 2025 11:33:46 GMT-0400 (Eastern Daylight Time),417032.09999990463,A,na,I,a,157,2,733.5,416298.59999990463,9005,WL,C,5.0
3,7.933000087738037,learn,52066.99991226196,Wed Mar 26 2025 11:33:46 GMT-0400 (Eastern Daylight Time),417131.80000019073,A,nai,I,i,86,2,833.2000002861023,416298.59999990463,9005,WL,C,5.0
3,8.134000062942505,learn,51865.999937057495,Wed Mar 26 2025 11:33:46 GMT-0400 (Eastern Daylight Time),417332.19999980927,A,nail,I,l,175,2,1033.5999999046326,416298.59999990463,9005,WL,C,5.0
3,8.383000135421753,learn,51616.99986457825,Wed Mar 26 2025 11:33:46 GMT-0400 (Eastern Daylight Time),417581.59999990463,A,nailenter,I,enter,236,2,1283.0,416298.59999990463,9005,WL,C,5.0
3,8.767000198364258,learn,51232.99980163574,Wed Mar 26 2025 11:33:46 GMT-0400 (Eastern Daylight Time),417965.40000009537,A,c,I,c,374,2,383.5,417581.90000009537,9005,WL,C,6.0
3,8.884000062942505,learn,51115.999937057495,Wed Mar 26 2025 11:33:46 GMT-0400 (Eastern Daylight Time),418082.09999990463,A,co,I,o,98,2,500.19999980926514,417581.90000009537,9005,WL,C,6.0
3,9.083000183105469,learn,50916.99981689453,Wed Mar 26 2025 11:33:46 GMT-0400 (Eastern Daylight Time),418282.09999990463,A,cor,I,r,167,2,700.1999998092651,417581.90000009537,9005,WL,C,6.0
3,9.25,learn,50750.0,Wed Mar 26 2025 11:33:46 GMT-0400 (Eastern Daylight Time),418448.80000019073,A,corn,I,n,150,2,866.9000000953674,417581.90000009537,9005,WL,C,6.0
3,9.766000032424927,learn,50233.99996757507,Wed Mar 26 2025 11:33:46 GMT-0400 (Eastern Daylight Time),418964.90000009537,A,cornenter,I,enter,494,2,1383.0,417581.90000009537,9005,WL,C,6.0
3,10.633000135421753,learn,49366.99986457825,Wed Mar 26 2025 11:33:46 GMT-0400 (Eastern Daylight Time),419832.0,A,b,I,b,846,2,866.6999998092651,418965.30000019073,9005,WL,C,7.0
3,11.050000190734863,learn,48949.99980926514,Wed Mar 26 2025 11:33:46 GMT-0400 (Eastern Daylight Time),420248.80000019073,A,bo,I,o,391,2,1283.5,418965.30000019073,9005,WL,C,7.0
3,11.300000190734863,learn,48699.99980926514,Wed Mar 26 2025 11:33:46 GMT-0400 (Eastern Daylight Time),420498.80000019073,A,bod,I,d,231,2,1533.5,418965.30000019073,9005,WL,C,7.0
3,11.450000047683716,learn,48549.999952316284,Wed Mar 26 2025 11:33:46 GMT-0400 (Eastern Daylight Time),420648.59999990463,A,body,I,y,122,2,1683.2999997138977,418965.30000019073,9005,WL,C,7.0
3,11.766000032424927,learn,48233.99996757507,Wed Mar 26 2025 11:33:46 GMT-0400 (Eastern Daylight Time),420964.90000009537,A,bodyenter,I,enter,294,2,1999.5999999046326,418965.30000019073,9005,WL,C,7.0
3,12.100000143051147,learn,47899.99985694885,Wed Mar 26 2025 11:33:46 GMT-0400 (Eastern Daylight Time),421298.69999980927,A,l,I,l,318,2,333.5,420965.19999980927,9005,WL,C,8.0
3,12.282999992370605,learn,47717.000007629395,Wed Mar 26 2025 11:33:46 GMT-0400 (Eastern Daylight Time),421482.09999990463,A,le,I,e,157,2,516.9000000953674,420965.19999980927,9005,WL,C,8.0
3,12.41700005531311,learn,47582.99994468689,Wed Mar 26 2025 11:33:46 GMT-0400 (Eastern Daylight Time),421615.40000009537,A,let,I,t,118,2,650.2000002861023,420965.19999980927,9005,WL,C,8.0
3,12.633000135421753,learn,47366.99986457825,Wed Mar 26 2025 11:33:46 GMT-0400 (Eastern Daylight Time),421832.0,A,lett,I,t,192,2,866.8000001907349,420965.19999980927,9005,WL,C,8.0
3,12.867000102996826,learn,47132.999897003174,Wed Mar 26 2025 11:33:46 GMT-0400 (Eastern Daylight Time),422065.5,A,lette,I,e,216,2,1100.3000001907349,420965.19999980927,9005,WL,C,8.0
3,12.933000087738037,learn,47066.99991226196,Wed Mar 26 2025 11:33:46 GMT-0400 (Eastern Daylight Time),422131.5,A,letter,I,r,38,2,1166.3000001907349,420965.19999980927,9005,WL,C,8.0
3,13.083000183105469,learn,46916.99981689453,Wed Mar 26 2025 11:33:46 GMT-0400 (Eastern Daylight Time),422281.30000019073,A,letterenter,I,enter,143,2,1316.1000003814697,420965.19999980927,9005,WL,C,8.0
3,13.367000102996826,learn,46632.999897003174,Wed Mar 26 2025 11:33:46 GMT-0400 (Eastern Daylight Time),422565.40000009537,A,d,I,d,266,2,283.80000019073486,422281.59999990463,9005,WL,C,9.0
3,13.484000205993652,learn,46515.99979400635,Wed Mar 26 2025 11:33:46 GMT-0400 (Eastern Daylight Time),422682.19999980927,A,do,I,o,106,2,400.59999990463257,422281.59999990463,9005,WL,C,9.0
3,13.634000062942505,learn,46365.999937057495,Wed Mar 26 2025 11:33:46 GMT-0400 (Eastern Daylight Time),422832.19999980927,A,doc,I,c,134,2,550.5999999046326,422281.59999990463,9005,WL,C,9.0
3,13.867000102996826,learn,46132.999897003174,Wed Mar 26 2025 11:33:46 GMT-0400 (Eastern Daylight Time),423065.40000009537,A,doct,I,t,199,2,783.8000001907349,422281.59999990463,9005,WL,C,9.0
3,13.984000205993652,learn,46015.99979400635,Wed Mar 26 2025 11:33:46 GMT-0400 (Eastern Daylight Time),423182.19999980927,A,docto,I,o,103,2,900.5999999046326,422281.59999990463,9005,WL,C,9.0
3,14.100000143051147,learn,45899.99985694885,Wed Mar 26 2025 11:33:46 GMT-0400 (Eastern Daylight Time),423298.69999980927,A,doctor,I,r,96,2,1017.0999999046326,422281.59999990463,9005,WL,C,9.0
3,15.050000190734863,learn,44949.99980926514,Wed Mar 26 2025 11:33:46 GMT-0400 (Eastern Daylight Time),424248.19999980927,A,doctorenter,I,enter,916,2,1966.5999999046326,422281.59999990463,9005,WL,C,9.0
3,15.400000095367432,learn,44599.99990463257,Wed Mar 26 2025 11:33:46 GMT-0400 (Eastern Daylight Time),424598.80000019073,A,s,I,s,331,2,350.30000019073486,424248.5,9005,WL,C,10.0
3,15.617000102996826,learn,44382.999897003174,Wed Mar 26 2025 11:33:46 GMT-0400 (Eastern Daylight Time),424815.5,A,su,I,u,201,2,567.0,424248.5,9005,WL,C,10.0
3,15.83400011062622,learn,44165.99988937378,Wed Mar 26 2025 11:33:46 GMT-0400 (Eastern Daylight Time),425032.19999980927,A,sug,I,g,192,2,783.6999998092651,424248.5,9005,WL,C,10.0
3,16.034000158309937,learn,43965.99984169006,Wed Mar 26 2025 11:33:46 GMT-0400 (Eastern Daylight Time),425232.09999990463,A,suga,I,a,185,2,983.5999999046326,424248.5,9005,WL,C,10.0
3,16.183000087738037,learn,43816.99991226196,Wed Mar 26 2025 11:33:46 GMT-0400 (Eastern Daylight Time),425382.09999990463,A,sugar,I,r,128,2,1133.5999999046326,424248.5,9005,WL,C,10.0
3,16.532999992370605,learn,43467.000007629395,Wed Mar 26 2025 11:33:46 GMT-0400 (Eastern Daylight Time),425731.69999980927,A,sugarenter,I,enter,328,2,1483.1999998092651,424248.5,9005,WL,C,10.0
3,16.884000062942505,learn,43115.999937057495,Wed Mar 26 2025 11:33:46 GMT-0400 (Eastern Daylight Time),426082.19999980927,A,f,I,f,335,2,350.19999980926514,425732.0,9005,WL,C,11.0
3,16.98300004005432,learn,43016.99995994568,Wed Mar 26 2025 11:33:46 GMT-0400 (Eastern Daylight Time),426182.0,A,fl,I,l,76,2,450.0,425732.0,9005,WL,C,11.0
3,17.15000009536743,learn,42849.99990463257,Wed Mar 26 2025 11:33:46 GMT-0400 (Eastern Daylight Time),426348.59999990463,A,fla,I,a,145,2,616.5999999046326,425732.0,9005,WL,C,11.0
3,17.433000087738037,learn,42566.99991226196,Wed Mar 26 2025 11:33:46 GMT-0400 (Eastern Daylight Time),426632.0,A,flag,I,g,252,2,900.0,425732.0,9005,WL,C,11.0
3,17.782999992370605,learn,42217.000007629395,Wed Mar 26 2025 11:33:46 GMT-0400 (Eastern Daylight Time),426981.69999980927,A,flagenter,I,enter,327,2,1249.6999998092651,425732.0,9005,WL,C,11.0
3,18.133000135421753,learn,41866.99986457825,Wed Mar 26 2025 11:33:46 GMT-0400 (Eastern Daylight Time),427332.09999990463,A,c,I,c,334,2,350.09999990463257,426982.0,9005,WL,C,12.0
3,18.25,learn,41750.0,Wed Mar 26 2025 11:33:46 GMT-0400 (Eastern Daylight Time),427448.40000009537,A,ca,I,a,90,2,466.40000009536743,426982.0,9005,WL,C,12.0
3,18.40000009536743,learn,41599.99990463257,Wed Mar 26 2025 11:33:46 GMT-0400 (Eastern Daylight Time),427598.69999980927,A,cam,I,m,139,2,616.6999998092651,426982.0,9005,WL,C,12.0
3,19.133000135421753,learn,40866.99986457825,Wed Mar 26 2025 11:33:46 GMT-0400 (Eastern Daylight Time),428332.0,A,camp,I,p,714,2,1350.0,426982.0,9005,WL,C,12.0
3,19.867000102996826,learn,40132.999897003174,Wed Mar 26 2025 11:33:46 GMT-0400 (Eastern Daylight Time),429065.09999990463,A,campenter,I,enter,723,2,2083.0999999046326,426982.0,9005,WL,C,12.0
3,26.800000190734863,learn,33199.99980926514,Wed Mar 26 2025 11:33:46 GMT-0400 (Eastern Daylight Time),435998.80000019073,A,b,I,b,6922,2,6933.400000095367,429065.40000009537,9005,WL,C,13.0
3,27.217000007629395,learn,32782.999992370605,Wed Mar 26 2025 11:33:46 GMT-0400 (Eastern Daylight Time),436415.59999990463,A,bo,I,o,400,2,7350.199999809265,429065.40000009537,9005,WL,C,13.0
3,27.532999992370605,learn,32467.000007629395,Wed Mar 26 2025 11:33:46 GMT-0400 (Eastern Daylight Time),436732.09999990463,A,boy,I,y,304,2,7666.699999809265,429065.40000009537,9005,WL,C,13.0
3,28.383000135421753,learn,31616.999864578247,Wed Mar 26 2025 11:33:46 GMT-0400 (Eastern Daylight Time),437581.69999980927,A,boyenter,I,enter,835,2,8516.299999713898,429065.40000009537,9005,WL,C,13.0
3,30.800000190734863,learn,29199.999809265137,Wed Mar 26 2025 11:33:46 GMT-0400 (Eastern Daylight Time),439998.80000019073,A,q,I,q,2405,2,2416.800000190735,437582.0,9005,WL,C,14.0
3,30.90000009536743,learn,29099.99990463257,Wed Mar 26 2025 11:33:46 GMT-0400 (Eastern Daylight Time),440098.69999980927,A,qu,I,u,80,2,2516.699999809265,437582.0,9005,WL,C,14.0
3,31.050000190734863,learn,28949.999809265137,Wed Mar 26 2025 11:33:46 GMT-0400 (Eastern Daylight Time),440248.80000019073,A,que,I,e,125,2,2666.800000190735,437582.0,9005,WL,C,14.0
3,31.23300004005432,learn,28766.99995994568,Wed Mar 26 2025 11:33:46 GMT-0400 (Eastern Daylight Time),440432.09999990463,A,quee,I,e,167,2,2850.0999999046326,437582.0,9005,WL,C,14.0
3,31.350000143051147,learn,28649.999856948853,Wed Mar 26 2025 11:33:46 GMT-0400 (Eastern Daylight Time),440548.90000009537,A,queen,I,n,87,2,2966.9000000953674,437582.0,9005,WL,C,14.0
3,31.700000047683716,learn,28299.999952316284,Wed Mar 26 2025 11:33:46 GMT-0400 (Eastern Daylight Time),440898.30000019073,A,queenenter,I,enter,330,2,3316.300000190735,437582.0,9005,WL,C,14.0
3,32.53400015830994,learn,27465.999841690063,Wed Mar 26 2025 11:33:46 GMT-0400 (Eastern Daylight Time),441732.09999990463,A,w,I,w,817,2,833.2999997138977,440898.80000019073,9005,WL,C,15.0
3,32.66700005531311,learn,27332.99994468689,Wed Mar 26 2025 11:33:46 GMT-0400 (Eastern Daylight Time),441865.40000009537,A,wh,I,h,108,2,966.5999999046326,440898.80000019073,9005,WL,C,15.0
3,32.75,learn,27250.0,Wed Mar 26 2025 11:33:46 GMT-0400 (Eastern Daylight Time),441948.19999980927,A,whe,I,e,62,2,1049.3999996185303,440898.80000019073,9005,WL,C,15.0
3,32.867000102996826,learn,27132.999897003174,Wed Mar 26 2025 11:33:46 GMT-0400 (Eastern Daylight Time),442065.5,A,whea,I,a,103,2,1166.6999998092651,440898.80000019073,9005,WL,C,15.0
3,32.98300004005432,learn,27016.99995994568,Wed Mar 26 2025 11:33:46 GMT-0400 (Eastern Daylight Time),442182.0,A,wheat,I,t,95,2,1283.1999998092651,440898.80000019073,9005,WL,C,15.0
3,33.18300008773804,learn,26816.999912261963,Wed Mar 26 2025 11:33:46 GMT-0400 (Eastern Daylight Time),442381.59999990463,A,wheatenter,I,enter,185,2,1482.7999997138977,440898.80000019073,9005,WL,C,15.0
4,1.6670000553131104,learn,58332.99994468689,Wed Mar 26 2025 11:33:46 GMT-0400 (Eastern Daylight Time),520265.19999980927,A,t,I,t,1643,2,1666.6999998092651,518598.5,9005,WL,C,1.0
4,1.8670001029968262,learn,58132.999897003174,Wed Mar 26 2025 11:33:46 GMT-0400 (Eastern Daylight Time),520465.40000009537,A,to,I,o,182,2,1866.9000000953674,518598.5,9005,WL,C,1.0
4,2.299999952316284,learn,57700.000047683716,Wed Mar 26 2025 11:33:46 GMT-0400 (Eastern Daylight Time),520898.59999990463,A,tow,I,w,407,2,2300.0999999046326,518598.5,9005,WL,C,1.0
4,2.566999912261963,learn,57433.00008773804,Wed Mar 26 2025 11:33:46 GMT-0400 (Eastern Daylight Time),521165.09999990463,A,towe,I,e,253,2,2566.5999999046326,518598.5,9005,WL,C,1.0
4,2.816999912261963,learn,57183.00008773804,Wed Mar 26 2025 11:33:46 GMT-0400 (Eastern Daylight Time),521415.30000019073,A,tower,I,r,227,2,2816.800000190735,518598.5,9005,WL,C,1.0
4,3.865999937057495,learn,56134.000062942505,Wed Mar 26 2025 11:33:46 GMT-0400 (Eastern Daylight Time),522464.80000019073,A,towerenter,I,enter,1031,2,3866.300000190735,518598.5,9005,WL,C,1.0
4,4.75,learn,55250.0,Wed Mar 26 2025 11:33:46 GMT-0400 (Eastern Daylight Time),523348.59999990463,A,w,I,w,865,2,883.4000000953674,522465.19999980927,9005,WL,C,2.0
4,4.9670000076293945,learn,55032.999992370605,Wed Mar 26 2025 11:33:46 GMT-0400 (Eastern Daylight Time),523565.30000019073,A,wh,I,h,203,2,1100.1000003814697,522465.19999980927,9005,WL,C,2.0
4,5.132999897003174,learn,54867.000102996826,Wed Mar 26 2025 11:33:46 GMT-0400 (Eastern Daylight Time),523732.09999990463,A,whe,I,e,138,2,1266.9000000953674,522465.19999980927,9005,WL,C,2.0
4,5.299999952316284,learn,54700.000047683716,Wed Mar 26 2025 11:33:46 GMT-0400 (Eastern Daylight Time),523898.5,A,whea,I,a,139,2,1433.3000001907349,522465.19999980927,9005,WL,C,2.0
4,5.4670000076293945,learn,54532.999992370605,Wed Mar 26 2025 11:33:46 GMT-0400 (Eastern Daylight Time),524065.30000019073,A,wheat,I,t,144,2,1600.1000003814697,522465.19999980927,9005,WL,C,2.0
4,5.882999897003174,learn,54117.000102996826,Wed Mar 26 2025 11:33:46 GMT-0400 (Eastern Daylight Time),524481.4000000954,A,wheatenter,I,enter,398,2,2016.2000002861023,522465.19999980927,9005,WL,C,2.0
4,6.900000095367432,learn,53099.99990463257,Wed Mar 26 2025 11:33:46 GMT-0400 (Eastern Daylight Time),525498.1999998093,A,q,I,q,1008,2,1016.3999996185303,524481.8000001907,9005,WL,C,3.0
4,7.16700005531311,learn,52832.99994468689,Wed Mar 26 2025 11:33:46 GMT-0400 (Eastern Daylight Time),525765.4000000954,A,qu,I,u,245,2,1283.5999999046326,524481.8000001907,9005,WL,C,3.0
4,7.315999984741211,learn,52684.00001525879,Wed Mar 26 2025 11:33:46 GMT-0400 (Eastern Daylight Time),525915.0999999046,A,que,I,e,137,2,1433.2999997138977,524481.8000001907,9005,WL,C,3.0
4,7.5329999923706055,learn,52467.000007629395,Wed Mar 26 2025 11:33:46 GMT-0400 (Eastern Daylight Time),526131.8000001907,A,quee,I,e,195,2,1650.0,524481.8000001907,9005,WL,C,3.0
4,7.66700005531311,learn,52332.99994468689,Wed Mar 26 2025 11:33:46 GMT-0400 (Eastern Daylight Time),526265.1999998093,A,queen,I,n,108,2,1783.3999996185303,524481.8000001907,9005,WL,C,3.0
4,8.098999977111816,learn,51901.00002288818,Wed Mar 26 2025 11:33:46 GMT-0400 (Eastern Daylight Time),526698.0999999046,A,queenenter,I,enter,415,2,2216.2999997138977,524481.8000001907,9005,WL,C,3.0
4,8.58299994468689,learn,51417.00005531311,Wed Mar 26 2025 11:33:46 GMT-0400 (Eastern Daylight Time),527181.9000000954,A,h,I,h,473,2,483.40000009536743,526698.5,9005,WL,C,4.0
4,8.766999959945679,learn,51233.00004005432,Wed Mar 26 2025 11:33:46 GMT-0400 (Eastern Daylight Time),527365.3000001907,A,ho,I,o,160,2,666.8000001907349,526698.5,9005,WL,C,4.0
4,9.016999959945679,learn,50983.00004005432,Wed Mar 26 2025 11:33:46 GMT-0400 (Eastern Daylight Time),527615.3000001907,A,hom,I,m,227,2,916.8000001907349,526698.5,9005,WL,C,4.0
4,9.183000087738037,learn,50816.99991226196,Wed Mar 26 2025 11:33:46 GMT-0400 (Eastern Daylight Time),527782.0,A,home,I,e,144,2,1083.5,526698.5,9005,WL,C,4.0
4,9.41599988937378,learn,50584.00011062622,Wed Mar 26 2025 11:33:46 GMT-0400 (Eastern Daylight Time),528014.8000001907,A,homeenter,I,enter,209,2,1316.3000001907349,526698.5,9005,WL,C,4.0
4,9.766999959945679,learn,50233.00004005432,Wed Mar 26 2025 11:33:46 GMT-0400 (Eastern Daylight Time),528365.4000000954,A,s,I,s,340,2,350.30000019073486,528015.0999999046,9005,WL,C,5.0
4,9.933000087738037,learn,50066.99991226196,Wed Mar 26 2025 11:33:46 GMT-0400 (Eastern Daylight Time),528531.9000000954,A,su,I,u,147,2,516.8000001907349,528015.0999999046,9005,WL,C,5.0
4,10.150000095367432,learn,49849.99990463257,Wed Mar 26 2025 11:33:46 GMT-0400 (Eastern Daylight Time),528748.5999999046,A,sug,I,g,203,2,733.5,528015.0999999046,9005,WL,C,5.0
4,10.41700005531311,learn,49582.99994468689,Wed Mar 26 2025 11:33:46 GMT-0400 (Eastern Daylight Time),529015.1999998093,A,suga,I,a,243,2,1000.0999999046326,528015.0999999046,9005,WL,C,5.0
4,10.683000087738037,learn,49316.99991226196,Wed Mar 26 2025 11:33:46 GMT-0400 (Eastern Daylight Time),529281.9000000954,A,sugar,I,r,248,2,1266.8000001907349,528015.0999999046,9005,WL,C,5.0
4,11.266000032424927,learn,48733.99996757507,Wed Mar 26 2025 11:33:46 GMT-0400 (Eastern Daylight Time),529864.5999999046,A,sugarenter,I,enter,557,2,1849.5,528015.0999999046,9005,WL,C,5.0
4,11.816999912261963,learn,48183.00008773804,Wed Mar 26 2025 11:33:46 GMT-0400 (Eastern Daylight Time),530415.3000001907,A,b,I,b,539,2,550.3000001907349,529865.0,9005,WL,C,6.0
4,12.299999952316284,learn,47700.000047683716,Wed Mar 26 2025 11:33:46 GMT-0400 (Eastern Daylight Time),530898.5,A,bo,I,o,462,2,1033.5,529865.0,9005,WL,C,6.0
4,12.698999881744385,learn,47301.000118255615,Wed Mar 26 2025 11:33:46 GMT-0400 (Eastern Daylight Time),531297.8000001907,A,boy,I,y,380,2,1432.8000001907349,529865.0,9005,WL,C,6.0
4,13.532999992370605,learn,46467.000007629395,Wed Mar 26 2025 11:33:46 GMT-0400 (Eastern Daylight Time),532131.4000000954,A,boyenter,I,enter,815,2,2266.4000000953674,529865.0,9005,WL,C,6.0
4,15.983000040054321,learn,44016.99995994568,Wed Mar 26 2025 11:33:46 GMT-0400 (Eastern Daylight Time),534582.0,A,q,I,q,2431,2,2450.199999809265,532131.8000001907,9005,WL,C,7.0
4,16.183000087738037,learn,43816.99991226196,Wed Mar 26 2025 11:33:46 GMT-0400 (Eastern Daylight Time),534782.0,A,qu,I,u,185,2,2650.199999809265,532131.8000001907,9005,WL,C,7.0
4,16.316999912261963,learn,43683.00008773804,Wed Mar 26 2025 11:33:46 GMT-0400 (Eastern Daylight Time),534915.3000001907,A,que,I,e,105,2,2783.5,532131.8000001907,9005,WL,C,7.0
4,16.51699995994568,learn,43483.00004005432,Wed Mar 26 2025 11:33:46 GMT-0400 (Eastern Daylight Time),535115.3000001907,A,quee,I,e,180,2,2983.5,532131.8000001907,9005,WL,C,7.0
4,16.65000009536743,learn,43349.99990463257,Wed Mar 26 2025 11:33:46 GMT-0400 (Eastern Daylight Time),535248.5,A,queen,I,n,107,2,3116.699999809265,532131.8000001907,9005,WL,C,7.0
4,17.365999937057495,learn,42634.000062942505,Wed Mar 26 2025 11:33:46 GMT-0400 (Eastern Daylight Time),535964.8000001907,A,queenenter,I,enter,703,2,3833.0,532131.8000001907,9005,WL,C,7.0
4,17.933000087738037,learn,42066.99991226196,Wed Mar 26 2025 11:33:46 GMT-0400 (Eastern Daylight Time),536531.9000000954,A,c,I,c,550,2,566.7000002861023,535965.1999998093,9005,WL,C,8.0
4,18.132999897003174,learn,41867.000102996826,Wed Mar 26 2025 11:33:46 GMT-0400 (Eastern Daylight Time),536731.8000001907,A,ca,I,a,187,2,766.6000003814697,535965.1999998093,9005,WL,C,8.0
4,18.299999952316284,learn,41700.000047683716,Wed Mar 26 2025 11:33:46 GMT-0400 (Eastern Daylight Time),536898.5,A,cat,I,t,149,2,933.3000001907349,535965.1999998093,9005,WL,C,8.0
4,18.5,learn,41500.0,Wed Mar 26 2025 11:33:46 GMT-0400 (Eastern Daylight Time),537098.3000001907,A,catt,I,t,188,2,1133.1000003814697,535965.1999998093,9005,WL,C,8.0
4,18.615999937057495,learn,41384.000062942505,Wed Mar 26 2025 11:33:46 GMT-0400 (Eastern Daylight Time),537215.0,A,cattl,I,l,93,2,1249.8000001907349,535965.1999998093,9005,WL,C,8.0
4,18.716000080108643,learn,41283.99991989136,Wed Mar 26 2025 11:33:46 GMT-0400 (Eastern Daylight Time),537315.0,A,cattle,I,e,82,2,1349.8000001907349,535965.1999998093,9005,WL,C,8.0
4,18.966000080108643,learn,41033.99991989136,Wed Mar 26 2025 11:33:46 GMT-0400 (Eastern Daylight Time),537564.9000000954,A,cattleenter,I,enter,229,2,1599.7000002861023,535965.1999998093,9005,WL,C,8.0
4,19.23300004005432,learn,40766.99995994568,Wed Mar 26 2025 11:33:46 GMT-0400 (Eastern Daylight Time),537831.6999998093,A,s,I,s,245,2,266.5,537565.1999998093,9005,WL,C,9.0
4,19.532999992370605,learn,40467.000007629395,Wed Mar 26 2025 11:33:46 GMT-0400 (Eastern Daylight Time),538131.0999999046,A,sh,I,h,278,2,565.9000000953674,537565.1999998093,9005,WL,C,9.0
4,19.716000080108643,learn,40283.99991989136,Wed Mar 26 2025 11:33:46 GMT-0400 (Eastern Daylight Time),538314.5,A,sho,I,o,173,2,749.3000001907349,537565.1999998093,9005,WL,C,9.0
4,19.8989999294281,learn,40101.0000705719,Wed Mar 26 2025 11:33:46 GMT-0400 (Eastern Daylight Time),538498.0999999046,A,shor,I,r,167,2,932.9000000953674,537565.1999998093,9005,WL,C,9.0
4,20.01699995994568,learn,39983.00004005432,Wed Mar 26 2025 11:33:46 GMT-0400 (Eastern Daylight Time),538615.1999998093,A,shore,I,e,92,2,1050.0,537565.1999998093,9005,WL,C,9.0
4,20.249000072479248,learn,39750.99992752075,Wed Mar 26 2025 11:33:46 GMT-0400 (Eastern Daylight Time),538848.0999999046,A,shoreenter,I,enter,209,2,1282.9000000953674,537565.1999998093,9005,WL,C,9.0
4,21.90000009536743,learn,38099.99990463257,Wed Mar 26 2025 11:33:46 GMT-0400 (Eastern Daylight Time),540498.5,A,n,I,n,1634,2,1650.0999999046326,538848.4000000954,9005,WL,C,10.0
4,22.09999990463257,learn,37900.00009536743,Wed Mar 26 2025 11:33:46 GMT-0400 (Eastern Daylight Time),540698.3000001907,A,na,I,a,187,2,1849.9000000953674,538848.4000000954,9005,WL,C,10.0
4,22.23300004005432,learn,37766.99995994568,Wed Mar 26 2025 11:33:46 GMT-0400 (Eastern Daylight Time),540831.9000000954,A,nai,I,i,108,2,1983.5,538848.4000000954,9005,WL,C,10.0
4,22.5,learn,37500.0,Wed Mar 26 2025 11:33:46 GMT-0400 (Eastern Daylight Time),541098.4000000954,A,nail,I,l,254,2,2250.0,538848.4000000954,9005,WL,C,10.0
4,22.81599998474121,learn,37184.00001525879,Wed Mar 26 2025 11:33:46 GMT-0400 (Eastern Daylight Time),541414.6999998093,A,nailenter,I,enter,292,2,2566.2999997138977,538848.4000000954,9005,WL,C,10.0
4,24.882999897003174,learn,35117.000102996826,Wed Mar 26 2025 11:33:46 GMT-0400 (Eastern Daylight Time),543482.0,A,b,I,b,2044,2,2066.9000000953674,541415.0999999046,9005,WL,C,11.0
4,25.26699995994568,learn,34733.00004005432,Wed Mar 26 2025 11:33:46 GMT-0400 (Eastern Daylight Time),543865.4000000954,A,bo,I,o,357,2,2450.300000190735,541415.0999999046,9005,WL,C,11.0
4,25.532999992370605,learn,34467.000007629395,Wed Mar 26 2025 11:33:46 GMT-0400 (Eastern Daylight Time),544132.0,A,boy,I,y,246,2,2716.9000000953674,541415.0999999046,9005,WL,C,11.0
4,25.83299994468689,learn,34167.00005531311,Wed Mar 26 2025 11:33:46 GMT-0400 (Eastern Daylight Time),544431.4000000954,A,boyenter,I,enter,283,2,3016.300000190735,541415.0999999046,9005,WL,C,11.0
4,26.217000007629395,learn,33782.999992370605,Wed Mar 26 2025 11:33:46 GMT-0400 (Eastern Daylight Time),544815.1999998093,A,d,I,d,370,2,383.3999996185303,544431.8000001907,9005,WL,C,12.0
4,26.467000007629395,learn,33532.999992370605,Wed Mar 26 2025 11:33:46 GMT-0400 (Eastern Daylight Time),545065.1999998093,A,do,I,o,224,2,633.3999996185303,544431.8000001907,9005,WL,C,12.0
4,26.58299994468689,learn,33417.00005531311,Wed Mar 26 2025 11:33:46 GMT-0400 (Eastern Daylight Time),545181.9000000954,A,doc,I,c,103,2,750.0999999046326,544431.8000001907,9005,WL,C,12.0
4,26.83299994468689,learn,33167.00005531311,Wed Mar 26 2025 11:33:46 GMT-0400 (Eastern Daylight Time),545431.9000000954,A,doct,I,t,226,2,1000.0999999046326,544431.8000001907,9005,WL,C,12.0
4,26.950000047683716,learn,33049.999952316284,Wed Mar 26 2025 11:33:46 GMT-0400 (Eastern Daylight Time),545548.5,A,docto,I,o,104,2,1116.6999998092651,544431.8000001907,9005,WL,C,12.0
4,27.08299994468689,learn,32917.00005531311,Wed Mar 26 2025 11:33:46 GMT-0400 (Eastern Daylight Time),545681.8000001907,A,doctor,I,r,107,2,1250.0,544431.8000001907,9005,WL,C,12.0
4,27.282999992370605,learn,32717.000007629395,Wed Mar 26 2025 11:33:46 GMT-0400 (Eastern Daylight Time),545881.3000001907,A,doctorenter,I,enter,190,2,1449.5,544431.8000001907,9005,WL,C,12.0
4,27.882999897003174,learn,32117.000102996826,Wed Mar 26 2025 11:33:46 GMT-0400 (Eastern Daylight Time),546481.8000001907,A,l,I,l,585,2,600.2000002861023,545881.5999999046,9005,WL,C,13.0
4,28.049999952316284,learn,31950.000047683716,Wed Mar 26 2025 11:33:46 GMT-0400 (Eastern Daylight Time),546648.5999999046,A,le,I,e,142,2,767.0,545881.5999999046,9005,WL,C,13.0
4,28.217000007629395,learn,31782.999992370605,Wed Mar 26 2025 11:33:46 GMT-0400 (Eastern Daylight Time),546815.1999998093,A,let,I,t,150,2,933.5999999046326,545881.5999999046,9005,WL,C,13.0
4,28.41700005531311,learn,31582.99994468689,Wed Mar 26 2025 11:33:46 GMT-0400 (Eastern Daylight Time),547015.3000001907,A,lett,I,t,177,2,1133.7000002861023,545881.5999999046,9005,WL,C,13.0
4,28.65000009536743,learn,31349.99990463257,Wed Mar 26 2025 11:33:46 GMT-0400 (Eastern Daylight Time),547248.5,A,lette,I,e,216,2,1366.9000000953674,545881.5999999046,9005,WL,C,13.0
4,28.75,learn,31250.0,Wed Mar 26 2025 11:33:46 GMT-0400 (Eastern Daylight Time),547348.5,A,letter,I,r,79,2,1466.9000000953674,545881.5999999046,9005,WL,C,13.0
4,28.933000087738037,learn,31066.999912261963,Wed Mar 26 2025 11:33:46 GMT-0400 (Eastern Daylight Time),547531.4000000954,A,letterenter,I,enter,163,2,1649.8000001907349,545881.5999999046,9005,WL,C,13.0
4,29.299999952316284,learn,30700.000047683716,Wed Mar 26 2025 11:33:46 GMT-0400 (Eastern Daylight Time),547898.0999999046,A,b,I,b,359,2,366.40000009536743,547531.6999998093,9005,WL,C,14.0
4,29.66700005531311,learn,30332.99994468689,Wed Mar 26 2025 11:33:46 GMT-0400 (Eastern Daylight Time),548265.1999998093,A,bo,I,o,343,2,733.5,547531.6999998093,9005,WL,C,14.0
4,29.867000102996826,learn,30132.999897003174,Wed Mar 26 2025 11:33:46 GMT-0400 (Eastern Daylight Time),548465.1999998093,A,bod,I,d,182,2,933.5,547531.6999998093,9005,WL,C,14.0
4,30.032999992370605,learn,29967.000007629395,Wed Mar 26 2025 11:33:46 GMT-0400 (Eastern Daylight Time),548631.9000000954,A,body,I,y,140,2,1100.2000002861023,547531.6999998093,9005,WL,C,14.0
4,31.049999952316284,learn,28950.000047683716,Wed Mar 26 2025 11:33:46 GMT-0400 (Eastern Daylight Time),549648.0999999046,A,bodyenter,I,enter,992,2,2116.4000000953674,547531.6999998093,9005,WL,C,14.0
4,37.782999992370605,learn,22217.000007629395,Wed Mar 26 2025 11:33:46 GMT-0400 (Eastern Daylight Time),556381.9000000954,A,q,I,q,6723,2,6733.400000095367,549648.5,9005,WL,C,15.0
4,38.01699995994568,learn,21983.00004005432,Wed Mar 26 2025 11:33:46 GMT-0400 (Eastern Daylight Time),556615.3000001907,A,qu,I,u,208,2,6966.800000190735,549648.5,9005,WL,C,15.0
4,38.15000009536743,learn,21849.99990463257,Wed Mar 26 2025 11:33:46 GMT-0400 (Eastern Daylight Time),556748.5,A,que,I,e,111,2,7100.0,549648.5,9005,WL,C,15.0
4,38.367000102996826,learn,21632.999897003174,Wed Mar 26 2025 11:33:46 GMT-0400 (Eastern Daylight Time),556965.1999998093,A,quee,I,e,187,2,7316.699999809265,549648.5,9005,WL,C,15.0
4,38.51699995994568,learn,21483.00004005432,Wed Mar 26 2025 11:33:46 GMT-0400 (Eastern Daylight Time),557115.0999999046,A,queen,I,n,138,2,7466.599999904633,549648.5,9005,WL,C,15.0
4,39.41599988937378,learn,20584.00011062622,Wed Mar 26 2025 11:33:46 GMT-0400 (Eastern Daylight Time),558014.4000000954,A,queenenter,I,enter,883,2,8365.900000095367,549648.5,9005,WL,C,15.0
5,1.7330000400543213,learn,60000.0,Wed Mar 26 2025 11:33:46 GMT-0400 (Eastern Daylight Time),638532.0999999046,A,t,I,t,1713,2,1733.4000000953674,636798.6999998093,9005,WL,C,1.0
5,1.9670000076293945,learn,60000.0,Wed Mar 26 2025 11:33:46 GMT-0400 (Eastern Daylight Time),638765.5,A,to,I,o,218,2,1966.8000001907349,636798.6999998093,9005,WL,C,1.0
5,2.2159998416900635,learn,60000.0,Wed Mar 26 2025 11:33:46 GMT-0400 (Eastern Daylight Time),639015.0,A,tow,I,w,226,2,2216.300000190735,636798.6999998093,9005,WL,C,1.0
5,2.382999897003174,learn,60000.0,Wed Mar 26 2025 11:33:46 GMT-0400 (Eastern Daylight Time),639181.9000000954,A,towe,I,e,152,2,2383.2000002861023,636798.6999998093,9005,WL,C,1.0
5,2.5829999446868896,learn,60000.0,Wed Mar 26 2025 11:33:46 GMT-0400 (Eastern Daylight Time),639381.8000001907,A,tower,I,r,178,2,2583.1000003814697,636798.6999998093,9005,WL,C,1.0
5,3.132999897003174,learn,60000.0,Wed Mar 26 2025 11:33:46 GMT-0400 (Eastern Daylight Time),639931.1999998093,A,towerenter,I,enter,535,2,3132.5,636798.6999998093,9005,WL,C,1.0
5,3.5999999046325684,learn,60000.0,Wed Mar 26 2025 11:33:46 GMT-0400 (Eastern Daylight Time),640398.8000001907,A,w,I,w,455,2,467.1000003814697,639931.6999998093,9005,WL,C,2.0
5,3.7330000400543213,learn,60000.0,Wed Mar 26 2025 11:33:46 GMT-0400 (Eastern Daylight Time),640531.9000000954,A,wh,I,h,113,2,600.2000002861023,639931.6999998093,9005,WL,C,2.0
5,3.932999849319458,learn,60000.0,Wed Mar 26 2025 11:33:46 GMT-0400 (Eastern Daylight Time),640731.8000001907,A,whe,I,e,187,2,800.1000003814697,639931.6999998093,9005,WL,C,2.0
5,4.099999904632568,learn,60000.0,Wed Mar 26 2025 11:33:46 GMT-0400 (Eastern Daylight Time),640898.4000000954,A,whea,I,a,140,2,966.7000002861023,639931.6999998093,9005,WL,C,2.0
5,4.2159998416900635,learn,60000.0,Wed Mar 26 2025 11:33:46 GMT-0400 (Eastern Daylight Time),641015.0,A,wheat,I,t,91,2,1083.3000001907349,639931.6999998093,9005,WL,C,2.0
5,4.665999889373779,learn,60000.0,Wed Mar 26 2025 11:33:46 GMT-0400 (Eastern Daylight Time),641464.5999999046,A,wheatenter,I,enter,425,2,1532.9000000953674,639931.6999998093,9005,WL,C,2.0
5,5.632999897003174,learn,60000.0,Wed Mar 26 2025 11:33:46 GMT-0400 (Eastern Daylight Time),642431.9000000954,A,c,I,c,954,2,966.9000000953674,641465.0,9005,WL,C,3.0
5,5.733000040054321,learn,60000.0,Wed Mar 26 2025 11:33:46 GMT-0400 (Eastern Daylight Time),642531.6999998093,A,co,I,o,80,2,1066.6999998092651,641465.0,9005,WL,C,3.0
5,5.915999889373779,learn,60000.0,Wed Mar 26 2025 11:33:46 GMT-0400 (Eastern Daylight Time),642715.0,A,cor,I,r,172,2,1250.0,641465.0,9005,WL,C,3.0
5,6.115999937057495,learn,60000.0,Wed Mar 26 2025 11:33:46 GMT-0400 (Eastern Daylight Time),642915.0999999046,A,corn,I,n,179,2,1450.0999999046326,641465.0,9005,WL,C,3.0
5,6.432999849319458,learn,60000.0,Wed Mar 26 2025 11:33:46 GMT-0400 (Eastern Daylight Time),643231.3000001907,A,cornenter,I,enter,299,2,1766.3000001907349,641465.0,9005,WL,C,3.0
5,7.4670000076293945,learn,60000.0,Wed Mar 26 2025 11:33:46 GMT-0400 (Eastern Daylight Time),644265.1999998093,A,s,I,s,1011,2,1033.5999999046326,643231.5999999046,9005,WL,C,4.0
5,7.6499998569488525,learn,60000.0,Wed Mar 26 2025 11:33:46 GMT-0400 (Eastern Daylight Time),644448.3000001907,A,su,I,u,166,2,1216.7000002861023,643231.5999999046,9005,WL,C,4.0
5,7.865999937057495,learn,60000.0,Wed Mar 26 2025 11:33:46 GMT-0400 (Eastern Daylight Time),644664.9000000954,A,sug,I,g,190,2,1433.3000001907349,643231.5999999046,9005,WL,C,4.0
5,8.08299994468689,learn,60000.0,Wed Mar 26 2025 11:33:46 GMT-0400 (Eastern Daylight Time),644881.8000001907,A,suga,I,a,192,2,1650.2000002861023,643231.5999999046,9005,WL,C,4.0
5,8.182999849319458,learn,60000.0,Wed Mar 26 2025 11:33:46 GMT-0400 (Eastern Daylight Time),644981.8000001907,A,sugar,I,r,76,2,1750.2000002861023,643231.5999999046,9005,WL,C,4.0
5,8.348999977111816,learn,60000.0,Wed Mar 26 2025 11:33:46 GMT-0400 (Eastern Daylight Time),645148.0,A,sugarenter,I,enter,153,2,1916.4000000953674,643231.5999999046,9005,WL,C,4.0
5,8.66599988937378,learn,60000.0,Wed Mar 26 2025 11:33:46 GMT-0400 (Eastern Daylight Time),645465.0,A,q,I,q,294,2,316.59999990463257,645148.4000000954,9005,WL,C,5.0
5,8.815999984741211,learn,60000.0,Wed Mar 26 2025 11:33:46 GMT-0400 (Eastern Daylight Time),645615.0,A,qu,I,u,134,2,466.59999990463257,645148.4000000954,9005,WL,C,5.0
5,8.91599988937378,learn,60000.0,Wed Mar 26 2025 11:33:46 GMT-0400 (Eastern Daylight Time),645715.0999999046,A,que,I,e,81,2,566.6999998092651,645148.4000000954,9005,WL,C,5.0
5,9.115999937057495,learn,60000.0,Wed Mar 26 2025 11:33:46 GMT-0400 (Eastern Daylight Time),645914.9000000954,A,quee,I,e,181,2,766.5,645148.4000000954,9005,WL,C,5.0
5,9.266000032424927,learn,60000.0,Wed Mar 26 2025 11:33:46 GMT-0400 (Eastern Daylight Time),646065.0999999046,A,queen,I,n,124,2,916.6999998092651,645148.4000000954,9005,WL,C,5.0
5,9.615999937057495,learn,60000.0,Wed Mar 26 2025 11:33:46 GMT-0400 (Eastern Daylight Time),646414.6999998093,A,queenenter,I,enter,333,2,1266.2999997138977,645148.4000000954,9005,WL,C,5.0
5,10.432999849319458,learn,60000.0,Wed Mar 26 2025 11:33:46 GMT-0400 (Eastern Daylight Time),647231.6999998093,A,b,I,b,804,2,816.5999999046326,646415.0999999046,9005,WL,C,6.0
5,10.799999952316284,learn,60000.0,Wed Mar 26 2025 11:33:46 GMT-0400 (Eastern Daylight Time),647598.4000000954,A,bo,I,o,352,2,1183.3000001907349,646415.0999999046,9005,WL,C,6.0
5,11.132999897003174,learn,60000.0,Wed Mar 26 2025 11:33:46 GMT-0400 (Eastern Daylight Time),647931.8000001907,A,boy,I,y,320,2,1516.7000002861023,646415.0999999046,9005,WL,C,6.0
5,11.483000040054321,learn,60000.0,Wed Mar 26 2025 11:33:46 GMT-0400 (Eastern Daylight Time),648281.1999998093,A,boyenter,I,enter,339,2,1866.0999999046326,646415.0999999046,9005,WL,C,6.0
5,11.799999952316284,learn,60000.0,Wed Mar 26 2025 11:33:46 GMT-0400 (Eastern Daylight Time),648598.4000000954,A,h,I,h,297,2,316.90000009536743,648281.5,9005,WL,C,7.0
5,11.882999897003174,learn,60000.0,Wed Mar 26 2025 11:33:46 GMT-0400 (Eastern Daylight Time),648681.1999998093,A,ho,I,o,72,2,399.69999980926514,648281.5,9005,WL,C,7.0
5,12.149999856948853,learn,60000.0,Wed Mar 26 2025 11:33:46 GMT-0400 (Eastern Daylight Time),648948.4000000954,A,hom,I,m,247,2,666.9000000953674,648281.5,9005,WL,C,7.0
5,12.450000047683716,learn,60000.0,Wed Mar 26 2025 11:33:46 GMT-0400 (Eastern Daylight Time),649248.5,A,home,I,e,283,2,967.0,648281.5,9005,WL,C,7.0
5,12.83299994468689,learn,60000.0,Wed Mar 26 2025 11:33:46 GMT-0400 (Eastern Daylight Time),649631.1999998093,A,homeenter,I,enter,368,2,1349.6999998092651,648281.5,9005,WL,C,7.0
5,14.099999904632568,learn,60000.0,Wed Mar 26 2025 11:33:46 GMT-0400 (Eastern Daylight Time),650898.4000000954,A,b,I,b,1251,2,1266.8000001907349,649631.5999999046,9005,WL,C,8.0
5,14.58299994468689,learn,60000.0,Wed Mar 26 2025 11:33:46 GMT-0400 (Eastern Daylight Time),651381.6999998093,A,bo,I,o,460,2,1750.0999999046326,649631.5999999046,9005,WL,C,8.0
5,14.799999952316284,learn,60000.0,Wed Mar 26 2025 11:33:46 GMT-0400 (Eastern Daylight Time),651598.3000001907,A,bod,I,d,202,2,1966.7000002861023,649631.5999999046,9005,WL,C,8.0
5,14.91599988937378,learn,60000.0,Wed Mar 26 2025 11:33:46 GMT-0400 (Eastern Daylight Time),651715.0999999046,A,body,I,y,91,2,2083.5,649631.5999999046,9005,WL,C,8.0
5,15.1489999294281,learn,60000.0,Wed Mar 26 2025 11:33:46 GMT-0400 (Eastern Daylight Time),651948.0,A,bodyenter,I,enter,209,2,2316.4000000953674,649631.5999999046,9005,WL,C,8.0
5,16.200000047683716,learn,60000.0,Wed Mar 26 2025 11:33:46 GMT-0400 (Eastern Daylight Time),652998.3000001907,A,l,I,l,1031,2,1050.0,651948.3000001907,9005,WL,C,9.0
5,16.31599998474121,learn,60000.0,Wed Mar 26 2025 11:33:46 GMT-0400 (Eastern Daylight Time),653114.9000000954,A,le,I,e,104,2,1166.5999999046326,651948.3000001907,9005,WL,C,9.0
5,16.450000047683716,learn,60000.0,Wed Mar 26 2025 11:33:46 GMT-0400 (Eastern Daylight Time),653248.5,A,let,I,t,112,2,1300.1999998092651,651948.3000001907,9005,WL,C,9.0
5,16.649999856948853,learn,60000.0,Wed Mar 26 2025 11:33:46 GMT-0400 (Eastern Daylight Time),653448.5,A,lett,I,t,176,2,1500.1999998092651,651948.3000001907,9005,WL,C,9.0
5,16.81599998474121,learn,60000.0,Wed Mar 26 2025 11:33:46 GMT-0400 (Eastern Daylight Time),653615.0999999046,A,lette,I,e,151,2,1666.7999997138977,651948.3000001907,9005,WL,C,9.0
5,16.899999856948853,learn,60000.0,Wed Mar 26 2025 11:33:46 GMT-0400 (Eastern Daylight Time),653698.3000001907,A,letter,I,r,64,2,1750.0,651948.3000001907,9005,WL,C,9.0
5,17.16599988937378,learn,60000.0,Wed Mar 26 2025 11:33:46 GMT-0400 (Eastern Daylight Time),653964.6999998093,A,letterenter,I,enter,247,2,2016.3999996185303,651948.3000001907,9005,WL,C,9.0
5,18.799999952316284,learn,60000.0,Wed Mar 26 2025 11:33:46 GMT-0400 (Eastern Daylight Time),655598.4000000954,A,d,I,d,1622,2,1633.2000002861023,653965.1999998093,9005,WL,C,10.0
5,18.932999849319458,learn,60000.0,Wed Mar 26 2025 11:33:46 GMT-0400 (Eastern Daylight Time),655731.5999999046,A,do,I,o,114,2,1766.4000000953674,653965.1999998093,9005,WL,C,10.0
5,19.08299994468689,learn,60000.0,Wed Mar 26 2025 11:33:46 GMT-0400 (Eastern Daylight Time),655882.0,A,doc,I,c,132,2,1916.8000001907349,653965.1999998093,9005,WL,C,10.0
5,19.34999990463257,learn,60000.0,Wed Mar 26 2025 11:33:46 GMT-0400 (Eastern Daylight Time),656148.5,A,doct,I,t,238,2,2183.300000190735,653965.1999998093,9005,WL,C,10.0
5,19.48300004005432,learn,60000.0,Wed Mar 26 2025 11:33:46 GMT-0400 (Eastern Daylight Time),656282.0,A,docto,I,o,123,2,2316.800000190735,653965.1999998093,9005,WL,C,10.0
5,19.56599998474121,learn,60000.0,Wed Mar 26 2025 11:33:46 GMT-0400 (Eastern Daylight Time),656365.0999999046,A,doctor,I,r,62,2,2399.9000000953674,653965.1999998093,9005,WL,C,10.0
5,19.782999992370605,learn,60000.0,Wed Mar 26 2025 11:33:46 GMT-0400 (Eastern Daylight Time),656581.3000001907,A,doctorenter,I,enter,185,2,2616.1000003814697,653965.1999998093,9005,WL,C,10.0
5,20.31599998474121,learn,60000.0,Wed Mar 26 2025 11:33:46 GMT-0400 (Eastern Daylight Time),657114.9000000954,A,c,I,c,525,2,533.3000001907349,656581.5999999046,9005,WL,C,11.0
5,20.450000047683716,learn,60000.0,Wed Mar 26 2025 11:33:46 GMT-0400 (Eastern Daylight Time),657248.4000000954,A,co,I,o,117,2,666.8000001907349,656581.5999999046,9005,WL,C,11.0
5,20.615999937057495,learn,60000.0,Wed Mar 26 2025 11:33:46 GMT-0400 (Eastern Daylight Time),657415.0,A,cor,I,r,135,2,833.4000000953674,656581.5999999046,9005,WL,C,11.0
5,20.75,learn,60000.0,Wed Mar 26 2025 11:33:46 GMT-0400 (Eastern Daylight Time),657548.3000001907,A,corn,I,n,121,2,966.7000002861023,656581.5999999046,9005,WL,C,11.0
5,21.115999937057495,learn,60000.0,Wed Mar 26 2025 11:33:46 GMT-0400 (Eastern Daylight Time),657914.5999999046,A,cornenter,I,enter,355,2,1333.0,656581.5999999046,9005,WL,C,11.0
5,23.932999849319458,learn,60000.0,Wed Mar 26 2025 11:33:46 GMT-0400 (Eastern Daylight Time),660731.6999998093,A,c,I,c,2808,2,2816.699999809265,657915.0,9005,WL,C,12.0
5,24.182999849319458,learn,60000.0,Wed Mar 26 2025 11:33:46 GMT-0400 (Eastern Daylight Time),660981.9000000954,A,ca,I,a,227,2,3066.9000000953674,657915.0,9005,WL,C,12.0
5,24.465999841690063,learn,60000.0,Wed Mar 26 2025 11:33:46 GMT-0400 (Eastern Daylight Time),661265.0999999046,A,cam,I,m,266,2,3350.0999999046326,657915.0,9005,WL,C,12.0
5,24.965999841690063,learn,60000.0,Wed Mar 26 2025 11:33:46 GMT-0400 (Eastern Daylight Time),661765.0999999046,A,camp,I,p,479,2,3850.0999999046326,657915.0,9005,WL,C,12.0
5,25.215999841690063,learn,60000.0,Wed Mar 26 2025 11:33:46 GMT-0400 (Eastern Daylight Time),662014.5999999046,A,campenter,I,enter,234,2,4099.599999904633,657915.0,9005,WL,C,12.0
5,25.649999856948853,learn,60000.0,Wed Mar 26 2025 11:33:46 GMT-0400 (Eastern Daylight Time),662448.4000000954,A,f,I,f,420,2,433.40000009536743,662015.0,9005,WL,C,13.0
5,25.882999897003174,learn,60000.0,Wed Mar 26 2025 11:33:46 GMT-0400 (Eastern Daylight Time),662682.0,A,fl,I,l,223,2,667.0,662015.0,9005,WL,C,13.0
5,26.06599998474121,learn,60000.0,Wed Mar 26 2025 11:33:46 GMT-0400 (Eastern Daylight Time),662865.0,A,fla,I,a,164,2,850.0,662015.0,9005,WL,C,13.0
5,26.33299994468689,learn,60000.0,Wed Mar 26 2025 11:33:46 GMT-0400 (Eastern Daylight Time),663131.8000001907,A,flag,I,g,254,2,1116.8000001907349,662015.0,9005,WL,C,13.0
5,26.615999937057495,learn,60000.0,Wed Mar 26 2025 11:33:46 GMT-0400 (Eastern Daylight Time),663414.6999998093,A,flagenter,I,enter,260,2,1399.6999998092651,662015.0,9005,WL,C,13.0
5,26.98300004005432,learn,60000.0,Wed Mar 26 2025 11:33:46 GMT-0400 (Eastern Daylight Time),663781.9000000954,A,n,I,n,347,2,367.0,663414.9000000954,9005,WL,C,14.0
5,27.16700005531311,learn,60000.0,Wed Mar 26 2025 11:33:46 GMT-0400 (Eastern Daylight Time),663965.3000001907,A,na,I,a,169,2,550.4000000953674,663414.9000000954,9005,WL,C,14.0
5,27.31599998474121,learn,60000.0,Wed Mar 26 2025 11:33:46 GMT-0400 (Eastern Daylight Time),664115.0999999046,A,nai,I,i,130,2,700.1999998092651,663414.9000000954,9005,WL,C,14.0
5,28.0,learn,60000.0,Wed Mar 26 2025 11:33:46 GMT-0400 (Eastern Daylight Time),664798.4000000954,A,nail,I,l,660,2,1383.5,663414.9000000954,9005,WL,C,14.0
5,28.24899983406067,learn,60000.0,Wed Mar 26 2025 11:33:46 GMT-0400 (Eastern Daylight Time),665047.9000000954,A,nailenter,I,enter,224,2,1633.0,663414.9000000954,9005,WL,C,14.0
5,28.5,learn,60000.0,Wed Mar 26 2025 11:33:46 GMT-0400 (Eastern Daylight Time),665298.4000000954,A,c,I,c,234,2,250.09999990463257,665048.3000001907,9005,WL,C,15.0
5,28.682999849319458,learn,60000.0,Wed Mar 26 2025 11:33:46 GMT-0400 (Eastern Daylight Time),665481.8000001907,A,ca,I,a,173,2,433.5,665048.3000001907,9005,WL,C,15.0
5,28.83299994468689,learn,60000.0,Wed Mar 26 2025 11:33:46 GMT-0400 (Eastern Daylight Time),665631.6999998093,A,cat,I,t,133,2,583.3999996185303,665048.3000001907,9005,WL,C,15.0
5,29.049999952316284,learn,60000.0,Wed Mar 26 2025 11:33:46 GMT-0400 (Eastern Daylight Time),665848.3000001907,A,catt,I,t,191,2,800.0,665048.3000001907,9005,WL,C,15.0
5,29.16599988937378,learn,60000.0,Wed Mar 26 2025 11:33:46 GMT-0400 (Eastern Daylight Time),665965.0999999046,A,cattl,I,l,104,2,916.7999997138977,665048.3000001907,9005,WL,C,15.0
5,29.282999992370605,learn,60000.0,Wed Mar 26 2025 11:33:46 GMT-0400 (Eastern Daylight Time),666081.8000001907,A,cattle,I,e,91,2,1033.5,665048.3000001907,9005,WL,C,15.0
5,29.465999841690063,learn,60000.0,Wed Mar 26 2025 11:33:46 GMT-0400 (Eastern Daylight Time),666264.8000001907,A,cattleenter,I,enter,167,2,1216.5,665048.3000001907,9005,WL,C,15.0
6,1.6500000953674316,distr,58349.99990463257,Wed Mar 26 2025 11:33:46 GMT-0400 (Eastern Daylight Time),749081.9000000954,B,s,I,s,1641,2,1650.0999999046326,747431.8000001907,9005,WL,C,1.0
6,1.8670001029968262,distr,58132.999897003174,Wed Mar 26 2025 11:33:46 GMT-0400 (Eastern Daylight Time),749298.3000001907,B,sk,I,k,196,2,1866.5,747431.8000001907,9005,WL,C,1.0
6,2.133000135421753,distr,57866.99986457825,Wed Mar 26 2025 11:33:46 GMT-0400 (Eastern Daylight Time),749565.0,B,sky,I,y,246,2,2133.199999809265,747431.8000001907,9005,WL,C,1.0
6,2.799999952316284,distr,57200.000047683716,Wed Mar 26 2025 11:33:46 GMT-0400 (Eastern Daylight Time),750231.1999998093,B,skyenter,I,enter,643,2,2799.3999996185303,747431.8000001907,9005,WL,C,1.0
6,3.1000001430511475,distr,56899.99985694885,Wed Mar 26 2025 11:33:46 GMT-0400 (Eastern Daylight Time),750531.5,B,c,I,c,283,2,299.80000019073486,750231.6999998093,9005,WL,C,2.0
6,3.25,distr,56750.0,Wed Mar 26 2025 11:33:46 GMT-0400 (Eastern Daylight Time),750681.5,B,ch,I,h,125,2,449.80000019073486,750231.6999998093,9005,WL,C,2.0
6,3.433000087738037,distr,56566.99991226196,Wed Mar 26 2025 11:33:46 GMT-0400 (Eastern Daylight Time),750865.0,B,chr,I,r,165,2,633.3000001907349,750231.6999998093,9005,WL,C,2.0
6,3.5160000324249268,distr,56483.99996757507,Wed Mar 26 2025 11:33:46 GMT-0400 (Eastern Daylight Time),750948.0,B,chri,I,i,62,2,716.3000001907349,750231.6999998093,9005,WL,C,2.0
6,3.6670000553131104,distr,56332.99994468689,Wed Mar 26 2025 11:33:46 GMT-0400 (Eastern Daylight Time),751098.1999998093,B,chris,I,s,140,2,866.5,750231.6999998093,9005,WL,C,2.0
6,3.817000150680542,distr,56182.99984931946,Wed Mar 26 2025 11:33:46 GMT-0400 (Eastern Daylight Time),751248.3000001907,B,christ,I,t,126,2,1016.6000003814697,750231.6999998093,9005,WL,C,2.0
6,4.516999959945679,distr,55483.00004005432,Wed Mar 26 2025 11:33:46 GMT-0400 (Eastern Daylight Time),751948.1999998093,B,christm,I,m,687,2,1716.5,750231.6999998093,9005,WL,C,2.0
6,4.75,distr,55250.0,Wed Mar 26 2025 11:33:46 GMT-0400 (Eastern Daylight Time),752181.5999999046,B,christma,I,a,210,2,1949.9000000953674,750231.6999998093,9005,WL,C,2.0
6,4.983000040054321,distr,55016.99995994568,Wed Mar 26 2025 11:33:46 GMT-0400 (Eastern Daylight Time),752415.0,B,christmas,I,s,216,2,2183.300000190735,750231.6999998093,9005,WL,C,2.0
6,5.2829999923706055,distr,54717.000007629395,Wed Mar 26 2025 11:33:46 GMT-0400 (Eastern Daylight Time),752714.4000000954,B,christmasenter,I,enter,289,2,2482.7000002861023,750231.6999998093,9005,WL,C,2.0
6,5.75,distr,54250.0,Wed Mar 26 2025 11:33:46 GMT-0400 (Eastern Daylight Time),753181.6999998093,B,t,I,t,455,2,466.8999996185303,752714.8000001907,9005,WL,C,3.0
6,6.08299994468689,distr,53917.00005531311,Wed Mar 26 2025 11:33:46 GMT-0400 (Eastern Daylight Time),753514.8000001907,B,to,I,o,321,2,800.0,752714.8000001907,9005,WL,C,3.0
6,6.2829999923706055,distr,53717.000007629395,Wed Mar 26 2025 11:33:46 GMT-0400 (Eastern Daylight Time),753715.0,B,too,I,o,181,2,1000.1999998092651,752714.8000001907,9005,WL,C,3.0
6,6.483000040054321,distr,53516.99995994568,Wed Mar 26 2025 11:33:46 GMT-0400 (Eastern Daylight Time),753914.5999999046,B,tool,I,l,188,2,1199.7999997138977,752714.8000001907,9005,WL,C,3.0
6,6.766000032424927,distr,53233.99996757507,Wed Mar 26 2025 11:33:46 GMT-0400 (Eastern Daylight Time),754197.8000001907,B,toolenter,I,enter,260,2,1483.0,752714.8000001907,9005,WL,C,3.0
6,7.08299994468689,distr,52917.00005531311,Wed Mar 26 2025 11:33:46 GMT-0400 (Eastern Daylight Time),754514.9000000954,B,m,I,m,300,2,316.80000019073486,754198.0999999046,9005,WL,C,4.0
6,7.266000032424927,distr,52733.99996757507,Wed Mar 26 2025 11:33:46 GMT-0400 (Eastern Daylight Time),754698.0999999046,B,mo,I,o,172,2,500.0,754198.0999999046,9005,WL,C,4.0
6,7.483000040054321,distr,52516.99995994568,Wed Mar 26 2025 11:33:46 GMT-0400 (Eastern Daylight Time),754914.9000000954,B,mon,I,n,190,2,716.8000001907349,754198.0999999046,9005,WL,C,4.0
6,7.7829999923706055,distr,52217.000007629395,Wed Mar 26 2025 11:33:46 GMT-0400 (Eastern Daylight Time),755215.0,B,mone,I,e,285,2,1016.9000000953674,754198.0999999046,9005,WL,C,4.0
6,7.933000087738037,distr,52066.99991226196,Wed Mar 26 2025 11:33:46 GMT-0400 (Eastern Daylight Time),755364.9000000954,B,money,I,y,129,2,1166.8000001907349,754198.0999999046,9005,WL,C,4.0
6,8.5,distr,51500.0,Wed Mar 26 2025 11:33:46 GMT-0400 (Eastern Daylight Time),755931.0999999046,B,moneyenter,I,enter,554,2,1733.0,754198.0999999046,9005,WL,C,4.0
6,8.865999937057495,distr,51134.000062942505,Wed Mar 26 2025 11:33:46 GMT-0400 (Eastern Daylight Time),756297.8000001907,B,m,I,m,360,2,366.30000019073486,755931.5,9005,WL,C,5.0
6,9.08299994468689,distr,50917.00005531311,Wed Mar 26 2025 11:33:46 GMT-0400 (Eastern Daylight Time),756515.0,B,mo,I,o,195,2,583.5,755931.5,9005,WL,C,5.0
6,9.217000007629395,distr,50782.999992370605,Wed Mar 26 2025 11:33:46 GMT-0400 (Eastern Daylight Time),756648.4000000954,B,mot,I,t,100,2,716.9000000953674,755931.5,9005,WL,C,5.0
6,9.299999952316284,distr,50700.000047683716,Wed Mar 26 2025 11:33:46 GMT-0400 (Eastern Daylight Time),756731.1999998093,B,moth,I,h,63,2,799.6999998092651,755931.5,9005,WL,C,5.0
6,9.450000047683716,distr,50549.999952316284,Wed Mar 26 2025 11:33:46 GMT-0400 (Eastern Daylight Time),756881.6999998093,B,mothe,I,e,131,2,950.1999998092651,755931.5,9005,WL,C,5.0
6,9.516999959945679,distr,50483.00004005432,Wed Mar 26 2025 11:33:46 GMT-0400 (Eastern Daylight Time),756948.1999998093,B,mother,I,r,45,2,1016.6999998092651,755931.5,9005,WL,C,5.0
6,9.6489999294281,distr,50351.0000705719,Wed Mar 26 2025 11:33:46 GMT-0400 (Eastern Daylight Time),757080.8000001907,B,motherenter,I,enter,122,2,1149.3000001907349,755931.5,9005,WL,C,5.0
6,9.867000102996826,distr,50132.999897003174,Wed Mar 26 2025 11:33:46 GMT-0400 (Eastern Daylight Time),757298.1999998093,B,d,I,d,202,2,217.09999990463257,757081.0999999046,9005,WL,C,6.0
6,10.0,distr,50000.0,Wed Mar 26 2025 11:33:46 GMT-0400 (Eastern Daylight Time),757431.5999999046,B,di,I,i,106,2,350.5,757081.0999999046,9005,WL,C,6.0
6,10.150000095367432,distr,49849.99990463257,Wed Mar 26 2025 11:33:46 GMT-0400 (Eastern Daylight Time),757581.5999999046,B,dia,I,a,129,2,500.5,757081.0999999046,9005,WL,C,6.0
6,10.266999959945679,distr,49733.00004005432,Wed Mar 26 2025 11:33:46 GMT-0400 (Eastern Daylight Time),757698.3000001907,B,diam,I,m,92,2,617.2000002861023,757081.0999999046,9005,WL,C,6.0
6,10.617000102996826,distr,49382.999897003174,Wed Mar 26 2025 11:33:46 GMT-0400 (Eastern Daylight Time),758048.1999998093,B,diamn,I,n,334,2,967.0999999046326,757081.0999999046,9005,WL,C,6.0
6,12.049999952316284,distr,47950.000047683716,Wed Mar 26 2025 11:33:46 GMT-0400 (Eastern Daylight Time),759481.6999998093,B,diam,I,backspace,1408,2,2400.5999999046326,757081.0999999046,9005,WL,C,6.0
6,12.850000143051147,distr,47149.99985694885,Wed Mar 26 2025 11:33:46 GMT-0400 (Eastern Daylight Time),760281.9000000954,B,diamo,I,o,790,2,3200.800000190735,757081.0999999046,9005,WL,C,6.0
6,13.067000150680542,distr,46932.99984931946,Wed Mar 26 2025 11:33:46 GMT-0400 (Eastern Daylight Time),760498.1999998093,B,diamon,I,n,197,2,3417.0999999046326,757081.0999999046,9005,WL,C,6.0
6,13.383000135421753,distr,46616.99986457825,Wed Mar 26 2025 11:33:46 GMT-0400 (Eastern Daylight Time),760814.9000000954,B,diamond,I,d,301,2,3733.800000190735,757081.0999999046,9005,WL,C,6.0
6,14.049000024795532,distr,45950.99997520447,Wed Mar 26 2025 11:33:46 GMT-0400 (Eastern Daylight Time),761480.8000001907,B,diamondenter,I,enter,657,2,4399.700000286102,757081.0999999046,9005,WL,C,6.0
6,21.51699995994568,distr,38483.00004005432,Wed Mar 26 2025 11:33:46 GMT-0400 (Eastern Daylight Time),768948.4000000954,B,h,I,h,7450,2,7467.300000190735,761481.0999999046,9005,WL,C,7.0
6,21.683000087738037,distr,38316.99991226196,Wed Mar 26 2025 11:33:46 GMT-0400 (Eastern Daylight Time),769114.8000001907,B,ho,I,o,154,2,7633.700000286102,761481.0999999046,9005,WL,C,7.0
6,21.782999992370605,distr,38217.000007629395,Wed Mar 26 2025 11:33:46 GMT-0400 (Eastern Daylight Time),769214.9000000954,B,hot,I,t,85,2,7733.800000190735,761481.0999999046,9005,WL,C,7.0
6,21.91700005531311,distr,38082.99994468689,Wed Mar 26 2025 11:33:46 GMT-0400 (Eastern Daylight Time),769348.1999998093,B,hote,I,e,105,2,7867.099999904633,761481.0999999046,9005,WL,C,7.0
6,22.383000135421753,distr,37616.99986457825,Wed Mar 26 2025 11:33:46 GMT-0400 (Eastern Daylight Time),769815.0,B,hotel,I,l,444,2,8333.900000095367,761481.0999999046,9005,WL,C,7.0
6,22.699000120162964,distr,37300.999879837036,Wed Mar 26 2025 11:33:46 GMT-0400 (Eastern Daylight Time),770131.0,B,hotelenter,I,enter,296,2,8649.900000095367,761481.0999999046,9005,WL,C,7.0
6,53.967000007629395,distr,6032.9999923706055,Wed Mar 26 2025 11:33:46 GMT-0400 (Eastern Daylight Time),801398.1999998093,B,p,I,p,31247,2,31266.799999713898,770131.4000000954,9005,WL,C,8.0
6,54.18300008773804,distr,5816.999912261963,Wed Mar 26 2025 11:33:46 GMT-0400 (Eastern Daylight Time),801614.9000000954,B,pl,I,l,201,2,31483.5,770131.4000000954,9005,WL,C,8.0
6,54.35000014305115,distr,5649.9998569488525,Wed Mar 26 2025 11:33:46 GMT-0400 (Eastern Daylight Time),801781.5999999046,B,pla,I,a,137,2,31650.199999809265,770131.4000000954,9005,WL,C,8.0
6,54.5,distr,5500.0,Wed Mar 26 2025 11:33:46 GMT-0400 (Eastern Daylight Time),801931.5,B,plan,I,n,139,2,31800.099999904633,770131.4000000954,9005,WL,C,8.0
6,54.76699995994568,distr,5233.000040054321,Wed Mar 26 2025 11:33:46 GMT-0400 (Eastern Daylight Time),802198.1999998093,B,plant,I,t,235,2,32066.799999713898,770131.4000000954,9005,WL,C,8.0
6,55.76600003242493,distr,4233.999967575073,Wed Mar 26 2025 11:33:46 GMT-0400 (Eastern Daylight Time),803197.6999998093,B,plantenter,I,enter,984,2,33066.2999997139,770131.4000000954,9005,WL,C,8.0
6,56.46600008010864,distr,3533.9999198913574,Wed Mar 26 2025 11:33:46 GMT-0400 (Eastern Daylight Time),803897.9000000954,B,m,I,m,692,2,699.8000001907349,803198.0999999046,9005,WL,C,9.0
6,56.56599998474121,distr,3434.000015258789,Wed Mar 26 2025 11:33:46 GMT-0400 (Eastern Daylight Time),803998.0999999046,B,me,I,e,85,2,800.0,803198.0999999046,9005,WL,C,9.0
6,56.68300008773804,distr,3316.999912261963,Wed Mar 26 2025 11:33:46 GMT-0400 (Eastern Daylight Time),804114.9000000954,B,mea,I,a,98,2,916.8000001907349,803198.0999999046,9005,WL,C,9.0
6,56.83299994468689,distr,3167.0000553131104,Wed Mar 26 2025 11:33:46 GMT-0400 (Eastern Daylight Time),804264.8000001907,B,meat,I,t,117,2,1066.7000002861023,803198.0999999046,9005,WL,C,9.0
6,57.199000120162964,distr,2800.999879837036,Wed Mar 26 2025 11:33:46 GMT-0400 (Eastern Daylight Time),804631.0999999046,B,meatenter,I,enter,334,2,1433.0,803198.0999999046,9005,WL,C,9.0
6,60.01699995994568,distr,-16.99995994567871,Wed Mar 26 2025 11:33:46 GMT-0400 (Eastern Daylight Time),807448.3000001907,B,None,I,None,2810,2,2816.9000000953674,804631.4000000954,9005,WL,C,10.0
7,2.367000102996826,immed,57632.999897003174,Wed Mar 26 2025 11:33:46 GMT-0400 (Eastern Daylight Time),819048.4000000954,A,t,I,t,2342,2,2366.4000000953674,816682.0,9005,WL,C,1.0
7,2.5329999923706055,immed,57467.000007629395,Wed Mar 26 2025 11:33:46 GMT-0400 (Eastern Daylight Time),819214.9000000954,A,to,I,o,151,2,2532.9000000953674,816682.0,9005,WL,C,1.0
7,2.7829999923706055,immed,57217.000007629395,Wed Mar 26 2025 11:33:46 GMT-0400 (Eastern Daylight Time),819464.8000001907,A,tow,I,w,215,2,2782.800000190735,816682.0,9005,WL,C,1.0
7,2.9000000953674316,immed,57099.99990463257,Wed Mar 26 2025 11:33:46 GMT-0400 (Eastern Daylight Time),819581.5,A,towe,I,e,103,2,2899.5,816682.0,9005,WL,C,1.0
7,3.049999952316284,immed,56950.000047683716,Wed Mar 26 2025 11:33:46 GMT-0400 (Eastern Daylight Time),819731.5999999046,A,tower,I,r,131,2,3049.5999999046326,816682.0,9005,WL,C,1.0
7,3.4830000400543213,immed,56516.99995994568,Wed Mar 26 2025 11:33:46 GMT-0400 (Eastern Daylight Time),820164.4000000954,A,towerenter,I,enter,411,2,3482.4000000953674,816682.0,9005,WL,C,1.0
7,4.016000032424927,immed,55983.99996757507,Wed Mar 26 2025 11:33:46 GMT-0400 (Eastern Daylight Time),820698.0,A,w,I,w,526,2,533.3000001907349,820164.6999998093,9005,WL,C,2.0
7,4.25,immed,55750.0,Wed Mar 26 2025 11:33:46 GMT-0400 (Eastern Daylight Time),820931.5,A,wh,I,h,214,2,766.8000001907349,820164.6999998093,9005,WL,C,2.0
7,4.33299994468689,immed,55667.00005531311,Wed Mar 26 2025 11:33:46 GMT-0400 (Eastern Daylight Time),821014.3000001907,A,whe,I,e,51,2,849.6000003814697,820164.6999998093,9005,WL,C,2.0
7,4.483000040054321,immed,55516.99995994568,Wed Mar 26 2025 11:33:46 GMT-0400 (Eastern Daylight Time),821164.6999998093,A,whea,I,a,139,2,1000.0,820164.6999998093,9005,WL,C,2.0
7,4.617000102996826,immed,55382.999897003174,Wed Mar 26 2025 11:33:46 GMT-0400 (Eastern Daylight Time),821298.1999998093,A,wheat,I,t,115,2,1133.5,820164.6999998093,9005,WL,C,2.0
7,4.898999929428101,immed,55101.0000705719,Wed Mar 26 2025 11:33:46 GMT-0400 (Eastern Daylight Time),821581.0,A,wheatenter,I,enter,260,2,1416.3000001907349,820164.6999998093,9005,WL,C,2.0
7,5.315999984741211,immed,54684.00001525879,Wed Mar 26 2025 11:33:46 GMT-0400 (Eastern Daylight Time),821998.0999999046,A,q,I,q,405,2,416.7999997138977,821581.3000001907,9005,WL,C,3.0
7,5.483000040054321,immed,54516.99995994568,Wed Mar 26 2025 11:33:46 GMT-0400 (Eastern Daylight Time),822164.8000001907,A,qh,I,h,145,2,583.5,821581.3000001907,9005,WL,C,3.0
7,6.1000001430511475,immed,53899.99985694885,Wed Mar 26 2025 11:33:46 GMT-0400 (Eastern Daylight Time),822781.5999999046,A,q,I,backspace,602,2,1200.2999997138977,821581.3000001907,9005,WL,C,3.0
7,6.5329999923706055,immed,53467.000007629395,Wed Mar 26 2025 11:33:46 GMT-0400 (Eastern Daylight Time),823214.9000000954,A,qu,I,u,418,2,1633.5999999046326,821581.3000001907,9005,WL,C,3.0
7,6.766000032424927,immed,53233.99996757507,Wed Mar 26 2025 11:33:46 GMT-0400 (Eastern Daylight Time),823448.0999999046,A,que,I,e,209,2,1866.7999997138977,821581.3000001907,9005,WL,C,3.0
7,6.983000040054321,immed,53016.99995994568,Wed Mar 26 2025 11:33:46 GMT-0400 (Eastern Daylight Time),823664.8000001907,A,quee,I,e,193,2,2083.5,821581.3000001907,9005,WL,C,3.0
7,8.067000150680542,immed,51932.99984931946,Wed Mar 26 2025 11:33:46 GMT-0400 (Eastern Daylight Time),824748.1999998093,A,queen,I,n,1069,2,3166.8999996185303,821581.3000001907,9005,WL,C,3.0
7,8.815999984741211,immed,51184.00001525879,Wed Mar 26 2025 11:33:46 GMT-0400 (Eastern Daylight Time),825497.6999998093,A,queenenter,I,enter,738,2,3916.3999996185303,821581.3000001907,9005,WL,C,3.0
7,10.350000143051147,immed,49649.99985694885,Wed Mar 26 2025 11:33:46 GMT-0400 (Eastern Daylight Time),827031.4000000954,A,h,I,h,1513,2,1533.5,825497.9000000954,9005,WL,C,4.0
7,10.450000047683716,immed,49549.999952316284,Wed Mar 26 2025 11:33:46 GMT-0400 (Eastern Daylight Time),827131.3000001907,A,ho,I,o,86,2,1633.4000000953674,825497.9000000954,9005,WL,C,4.0
7,10.75,immed,49250.0,Wed Mar 26 2025 11:33:46 GMT-0400 (Eastern Daylight Time),827431.5,A,hom,I,m,269,2,1933.5999999046326,825497.9000000954,9005,WL,C,4.0
7,10.900000095367432,immed,49099.99990463257,Wed Mar 26 2025 11:33:46 GMT-0400 (Eastern Daylight Time),827581.4000000954,A,home,I,e,136,2,2083.5,825497.9000000954,9005,WL,C,4.0
7,11.098999977111816,immed,48901.00002288818,Wed Mar 26 2025 11:33:46 GMT-0400 (Eastern Daylight Time),827780.9000000954,A,homeenter,I,enter,177,2,2283.0,825497.9000000954,9005,WL,C,4.0
7,11.58299994468689,immed,48417.00005531311,Wed Mar 26 2025 11:33:46 GMT-0400 (Eastern Daylight Time),828264.8000001907,A,b,I,b,461,2,483.5,827781.3000001907,9005,WL,C,5.0
7,12.0,immed,48000.0,Wed Mar 26 2025 11:33:46 GMT-0400 (Eastern Daylight Time),828681.3000001907,A,bo,I,o,390,2,900.0,827781.3000001907,9005,WL,C,5.0
7,12.299999952316284,immed,47700.000047683716,Wed Mar 26 2025 11:33:46 GMT-0400 (Eastern Daylight Time),828981.5,A,boy,I,y,279,2,1200.1999998092651,827781.3000001907,9005,WL,C,5.0
7,12.683000087738037,immed,47316.99991226196,Wed Mar 26 2025 11:33:46 GMT-0400 (Eastern Daylight Time),829364.4000000954,A,boyenter,I,enter,361,2,1583.0999999046326,827781.3000001907,9005,WL,C,5.0
7,13.567000150680542,immed,46432.99984931946,Wed Mar 26 2025 11:33:46 GMT-0400 (Eastern Daylight Time),830248.0999999046,A,s,I,s,862,2,883.4000000953674,829364.6999998093,9005,WL,C,6.0
7,13.733000040054321,immed,46266.99995994568,Wed Mar 26 2025 11:33:46 GMT-0400 (Eastern Daylight Time),830414.8000001907,A,su,I,u,150,2,1050.1000003814697,829364.6999998093,9005,WL,C,6.0
7,13.900000095367432,immed,46099.99990463257,Wed Mar 26 2025 11:33:46 GMT-0400 (Eastern Daylight Time),830581.5999999046,A,sug,I,g,144,2,1216.9000000953674,829364.6999998093,9005,WL,C,6.0
7,14.065999984741211,immed,45934.00001525879,Wed Mar 26 2025 11:33:46 GMT-0400 (Eastern Daylight Time),830748.0999999046,A,suga,I,a,146,2,1383.4000000953674,829364.6999998093,9005,WL,C,6.0
7,14.166000127792358,immed,45833.99987220764,Wed Mar 26 2025 11:33:46 GMT-0400 (Eastern Daylight Time),830848.0,A,sugar,I,r,76,2,1483.3000001907349,829364.6999998093,9005,WL,C,6.0
7,14.416000127792358,immed,45583.99987220764,Wed Mar 26 2025 11:33:46 GMT-0400 (Eastern Daylight Time),831097.5999999046,A,sugarenter,I,enter,230,2,1732.9000000953674,829364.6999998093,9005,WL,C,6.0
7,14.815999984741211,immed,45184.00001525879,Wed Mar 26 2025 11:33:46 GMT-0400 (Eastern Daylight Time),831497.8000001907,A,c,I,c,392,2,399.90000009536743,831097.9000000954,9005,WL,C,7.0
7,14.950000047683716,immed,45049.999952316284,Wed Mar 26 2025 11:33:46 GMT-0400 (Eastern Daylight Time),831631.4000000954,A,co,I,o,115,2,533.5,831097.9000000954,9005,WL,C,7.0
7,15.216000080108643,immed,44783.99991989136,Wed Mar 26 2025 11:33:46 GMT-0400 (Eastern Daylight Time),831897.8000001907,A,cor,I,r,248,2,799.9000000953674,831097.9000000954,9005,WL,C,7.0
7,15.483000040054321,immed,44516.99995994568,Wed Mar 26 2025 11:33:46 GMT-0400 (Eastern Daylight Time),832164.8000001907,A,corn,I,n,246,2,1066.9000000953674,831097.9000000954,9005,WL,C,7.0
7,16.3989999294281,immed,43601.0000705719,Wed Mar 26 2025 11:33:46 GMT-0400 (Eastern Daylight Time),833081.0999999046,A,cornenter,I,enter,891,2,1983.1999998092651,831097.9000000954,9005,WL,C,7.0
7,17.16700005531311,immed,42832.99994468689,Wed Mar 26 2025 11:33:46 GMT-0400 (Eastern Daylight Time),833848.1999998093,A,b,I,b,745,2,766.6999998092651,833081.5,9005,WL,C,8.0
7,17.598999977111816,immed,42401.00002288818,Wed Mar 26 2025 11:33:46 GMT-0400 (Eastern Daylight Time),834280.8000001907,A,bo,I,o,423,2,1199.3000001907349,833081.5,9005,WL,C,8.0
7,17.865999937057495,immed,42134.000062942505,Wed Mar 26 2025 11:33:46 GMT-0400 (Eastern Daylight Time),834547.8000001907,A,bod,I,d,247,2,1466.3000001907349,833081.5,9005,WL,C,8.0
7,17.98300004005432,immed,42016.99995994568,Wed Mar 26 2025 11:33:46 GMT-0400 (Eastern Daylight Time),834664.0999999046,A,body,I,y,91,2,1582.5999999046326,833081.5,9005,WL,C,8.0
7,18.433000087738037,immed,41566.99991226196,Wed Mar 26 2025 11:33:46 GMT-0400 (Eastern Daylight Time),835114.1999998093,A,bodyenter,I,enter,441,2,2032.6999998092651,833081.5,9005,WL,C,8.0
7,18.799999952316284,immed,41200.000047683716,Wed Mar 26 2025 11:33:46 GMT-0400 (Eastern Daylight Time),835481.4000000954,A,d,I,d,344,2,366.80000019073486,835114.5999999046,9005,WL,C,9.0
7,18.883000135421753,immed,41116.99986457825,Wed Mar 26 2025 11:33:46 GMT-0400 (Eastern Daylight Time),835564.8000001907,A,do,I,o,71,2,450.2000002861023,835114.5999999046,9005,WL,C,9.0
7,19.049999952316284,immed,40950.000047683716,Wed Mar 26 2025 11:33:46 GMT-0400 (Eastern Daylight Time),835731.3000001907,A,doc,I,c,146,2,616.7000002861023,835114.5999999046,9005,WL,C,9.0
7,19.299999952316284,immed,40700.000047683716,Wed Mar 26 2025 11:33:46 GMT-0400 (Eastern Daylight Time),835981.5,A,doct,I,t,236,2,866.9000000953674,835114.5999999046,9005,WL,C,9.0
7,19.41700005531311,immed,40582.99994468689,Wed Mar 26 2025 11:33:46 GMT-0400 (Eastern Daylight Time),836098.1999998093,A,docto,I,o,97,2,983.5999999046326,835114.5999999046,9005,WL,C,9.0
7,19.56599998474121,immed,40434.00001525879,Wed Mar 26 2025 11:33:46 GMT-0400 (Eastern Daylight Time),836248.0999999046,A,doctor,I,r,124,2,1133.5,835114.5999999046,9005,WL,C,9.0
7,19.716000080108643,immed,40283.99991989136,Wed Mar 26 2025 11:33:46 GMT-0400 (Eastern Daylight Time),836397.6999998093,A,doctorenter,I,enter,135,2,1283.0999999046326,835114.5999999046,9005,WL,C,9.0
7,20.133000135421753,immed,39866.99986457825,Wed Mar 26 2025 11:33:46 GMT-0400 (Eastern Daylight Time),836814.9000000954,A,l,I,l,405,2,416.80000019073486,836398.0999999046,9005,WL,C,10.0
7,20.299999952316284,immed,39700.000047683716,Wed Mar 26 2025 11:33:46 GMT-0400 (Eastern Daylight Time),836981.5,A,le,I,e,145,2,583.4000000953674,836398.0999999046,9005,WL,C,10.0
7,20.450000047683716,immed,39549.999952316284,Wed Mar 26 2025 11:33:46 GMT-0400 (Eastern Daylight Time),837131.4000000954,A,let,I,t,137,2,733.3000001907349,836398.0999999046,9005,WL,C,10.0
7,20.683000087738037,immed,39316.99991226196,Wed Mar 26 2025 11:33:46 GMT-0400 (Eastern Daylight Time),837364.8000001907,A,lett,I,t,212,2,966.7000002861023,836398.0999999046,9005,WL,C,10.0
7,20.91700005531311,immed,39082.99994468689,Wed Mar 26 2025 11:33:46 GMT-0400 (Eastern Daylight Time),837598.0999999046,A,lette,I,e,219,2,1200.0,836398.0999999046,9005,WL,C,10.0
7,21.067000150680542,immed,38932.99984931946,Wed Mar 26 2025 11:33:46 GMT-0400 (Eastern Daylight Time),837748.1999998093,A,letter,I,r,131,2,1350.0999999046326,836398.0999999046,9005,WL,C,10.0
7,21.949000120162964,immed,38050.999879837036,Wed Mar 26 2025 11:33:46 GMT-0400 (Eastern Daylight Time),838631.0,A,letterenter,I,enter,851,2,2232.9000000953674,836398.0999999046,9005,WL,C,10.0
7,24.567000150680542,immed,35432.99984931946,Wed Mar 26 2025 11:33:46 GMT-0400 (Eastern Daylight Time),841248.0999999046,A,c,I,c,2603,2,2616.699999809265,838631.4000000954,9005,WL,C,11.0
7,24.83299994468689,immed,35167.00005531311,Wed Mar 26 2025 11:33:46 GMT-0400 (Eastern Daylight Time),841514.6999998093,A,ca,I,a,253,2,2883.2999997138977,838631.4000000954,9005,WL,C,11.0
7,25.133000135421753,immed,34866.99986457825,Wed Mar 26 2025 11:33:46 GMT-0400 (Eastern Daylight Time),841814.8000001907,A,cam,I,m,277,2,3183.4000000953674,838631.4000000954,9005,WL,C,11.0
7,25.600000143051147,immed,34399.99985694885,Wed Mar 26 2025 11:33:46 GMT-0400 (Eastern Daylight Time),842281.4000000954,A,camp,I,p,439,2,3650.0,838631.4000000954,9005,WL,C,11.0
7,25.848999977111816,immed,34151.00002288818,Wed Mar 26 2025 11:33:46 GMT-0400 (Eastern Daylight Time),842530.9000000954,A,campenter,I,enter,229,2,3899.5,838631.4000000954,9005,WL,C,11.0
7,26.183000087738037,immed,33816.99991226196,Wed Mar 26 2025 11:33:46 GMT-0400 (Eastern Daylight Time),842864.8000001907,A,f,I,f,319,2,333.5,842531.3000001907,9005,WL,C,12.0
7,26.31599998474121,immed,33684.00001525879,Wed Mar 26 2025 11:33:46 GMT-0400 (Eastern Daylight Time),842998.0999999046,A,fl,I,l,108,2,466.7999997138977,842531.3000001907,9005,WL,C,12.0
7,26.549999952316284,immed,33450.000047683716,Wed Mar 26 2025 11:33:46 GMT-0400 (Eastern Daylight Time),843231.4000000954,A,fla,I,a,216,2,700.0999999046326,842531.3000001907,9005,WL,C,12.0
7,26.75,immed,33250.0,Wed Mar 26 2025 11:33:46 GMT-0400 (Eastern Daylight Time),843431.5,A,flag,I,g,174,2,900.1999998092651,842531.3000001907,9005,WL,C,12.0
7,27.199000120162964,immed,32800.999879837036,Wed Mar 26 2025 11:33:46 GMT-0400 (Eastern Daylight Time),843881.0,A,flagenter,I,enter,415,2,1349.6999998092651,842531.3000001907,9005,WL,C,12.0
7,27.567000150680542,immed,32432.999849319458,Wed Mar 26 2025 11:33:46 GMT-0400 (Eastern Daylight Time),844248.1999998093,A,n,I,n,345,2,366.7999997138977,843881.4000000954,9005,WL,C,13.0
7,27.75,immed,32250.0,Wed Mar 26 2025 11:33:46 GMT-0400 (Eastern Daylight Time),844431.5,A,na,I,a,167,2,550.0999999046326,843881.4000000954,9005,WL,C,13.0
7,27.865999937057495,immed,32134.000062942505,Wed Mar 26 2025 11:33:46 GMT-0400 (Eastern Daylight Time),844548.0,A,nai,I,i,95,2,666.5999999046326,843881.4000000954,9005,WL,C,13.0
7,28.067000150680542,immed,31932.999849319458,Wed Mar 26 2025 11:33:46 GMT-0400 (Eastern Daylight Time),844748.1999998093,A,nail,I,l,186,2,866.7999997138977,843881.4000000954,9005,WL,C,13.0
7,28.865999937057495,immed,31134.000062942505,Wed Mar 26 2025 11:33:46 GMT-0400 (Eastern Daylight Time),845547.5999999046,A,nailenter,I,enter,785,2,1666.1999998092651,843881.4000000954,9005,WL,C,13.0
7,30.532999992370605,immed,29467.000007629395,Wed Mar 26 2025 11:33:46 GMT-0400 (Eastern Daylight Time),847214.8000001907,A,c,I,c,1655,2,1666.8000001907349,845548.0,9005,WL,C,14.0
7,30.683000087738037,immed,29316.999912261963,Wed Mar 26 2025 11:33:46 GMT-0400 (Eastern Daylight Time),847364.6999998093,A,ca,I,a,127,2,1816.6999998092651,845548.0,9005,WL,C,14.0
7,30.850000143051147,immed,29149.999856948853,Wed Mar 26 2025 11:33:46 GMT-0400 (Eastern Daylight Time),847531.5,A,cat,I,t,155,2,1983.5,845548.0,9005,WL,C,14.0
7,31.032999992370605,immed,28967.000007629395,Wed Mar 26 2025 11:33:46 GMT-0400 (Eastern Daylight Time),847714.8000001907,A,catt,I,t,164,2,2166.800000190735,845548.0,9005,WL,C,14.0
7,31.16600012779236,immed,28833.99987220764,Wed Mar 26 2025 11:33:46 GMT-0400 (Eastern Daylight Time),847847.9000000954,A,cattl,I,l,107,2,2299.9000000953674,845548.0,9005,WL,C,14.0
7,31.299999952316284,immed,28700.000047683716,Wed Mar 26 2025 11:33:46 GMT-0400 (Eastern Daylight Time),847981.5,A,cattle,I,e,119,2,2433.5,845548.0,9005,WL,C,14.0
7,31.433000087738037,immed,28566.999912261963,Wed Mar 26 2025 11:33:46 GMT-0400 (Eastern Daylight Time),848114.3000001907,A,cattleenter,I,enter,105,2,2566.300000190735,845548.0,9005,WL,C,14.0
7,31.75,immed,28250.0,Wed Mar 26 2025 11:33:46 GMT-0400 (Eastern Daylight Time),848431.3000001907,A,s,I,s,304,2,316.6000003814697,848114.6999998093,9005,WL,C,15.0
7,31.848999977111816,immed,28151.000022888184,Wed Mar 26 2025 11:33:46 GMT-0400 (Eastern Daylight Time),848531.0999999046,A,sh,I,h,78,2,416.40000009536743,848114.6999998093,9005,WL,C,15.0
7,32.0,immed,28000.0,Wed Mar 26 2025 11:33:46 GMT-0400 (Eastern Daylight Time),848681.5,A,sho,I,o,128,2,566.8000001907349,848114.6999998093,9005,WL,C,15.0
7,32.08299994468689,immed,27917.00005531311,Wed Mar 26 2025 11:33:46 GMT-0400 (Eastern Daylight Time),848764.9000000954,A,shor,I,r,62,2,650.2000002861023,848114.6999998093,9005,WL,C,15.0
7,32.200000047683716,immed,27799.999952316284,Wed Mar 26 2025 11:33:46 GMT-0400 (Eastern Daylight Time),848881.1999998093,A,shore,I,e,98,2,766.5,848114.6999998093,9005,WL,C,15.0
7,32.365999937057495,immed,27634.000062942505,Wed Mar 26 2025 11:33:46 GMT-0400 (Eastern Daylight Time),849047.5,A,shoreenter,I,enter,141,2,932.8000001907349,848114.6999998093,9005,WL,C,15.0
