block_c,block_dur,condition,countdown,datetime,endtime,list,multichar_response,project,response,response_time,session_number,start_end,starttime,subject_id,task,task_vers,trial
,,,,Thu Feb 20 2025 17:37:51 GMT-0600 (Central Standard Time),,,,O,space,858,1,,,7050,WL,A,
prac,,0,,Thu Feb 20 2025 17:37:51 GMT-0600 (Central Standard Time),,NA,b,O,b,3622,1,,,7050,WL,A,1.0
prac,,0,,Thu Feb 20 2025 17:37:51 GMT-0600 (Central Standard Time),,NA,bo,O,o,248,1,,,7050,WL,A,1.0
prac,,0,,Thu Feb 20 2025 17:37:51 GMT-0600 (Central Standard Time),,NA,boo,O,o,190,1,,,7050,WL,A,1.0
prac,,0,,Thu Feb 20 2025 17:37:51 GMT-0600 (Central Standard Time),,NA,boos,O,s,119,1,,,7050,WL,A,1.0
prac,,0,,Thu Feb 20 2025 17:37:51 GMT-0600 (Central Standard Time),,NA,boost,O,t,258,1,,,7050,WL,A,1.0
prac,,0,,Thu Feb 20 2025 17:37:51 GMT-0600 (Central Standard Time),,NA,boostenter,O,enter,2047,1,,,7050,WL,A,1.0
1,3.447999954223633,learn,56552.00004577637,Thu Feb 20 2025 17:37:51 GMT-0600 (Central Standard Time),164700.19999999925,A,g,O,g,3439,1,3447.800000000745,161252.3999999985,7050,WL,A,1.0
1,3.6480000019073486,learn,56351.99999809265,Thu Feb 20 2025 17:37:51 GMT-0600 (Central Standard Time),164900.09999999776,A,go,O,o,192,1,3647.699999999255,161252.3999999985,7050,WL,A,1.0
1,3.930999994277954,learn,56069.000005722046,Thu Feb 20 2025 17:37:51 GMT-0600 (Central Standard Time),165183.19999999925,A,gol,O,l,272,1,3930.800000000745,161252.3999999985,7050,WL,A,1.0
1,4.2149999141693115,learn,55785.00008583069,Thu Feb 20 2025 17:37:51 GMT-0600 (Central Standard Time),165466.59999999776,A,gold,O,d,277,1,4214.199999999255,161252.3999999985,7050,WL,A,1.0
1,4.88100004196167,learn,55118.99995803833,Thu Feb 20 2025 17:37:51 GMT-0600 (Central Standard Time),166133.19999999925,A,goldenter,O,enter,658,1,4880.800000000745,161252.3999999985,7050,WL,A,1.0
1,6.046999931335449,learn,53953.00006866455,Thu Feb 20 2025 17:37:51 GMT-0600 (Central Standard Time),167299.19999999925,A,m,O,m,1151,1,1165.5,166133.69999999925,7050,WL,A,2.0
1,6.21399998664856,learn,53786.00001335144,Thu Feb 20 2025 17:37:51 GMT-0600 (Central Standard Time),167466.0,A,me,O,e,153,1,1332.300000000745,166133.69999999925,7050,WL,A,2.0
1,6.46399998664856,learn,53536.00001335144,Thu Feb 20 2025 17:37:51 GMT-0600 (Central Standard Time),167716.09999999776,A,mea,O,a,235,1,1582.3999999985099,166133.69999999925,7050,WL,A,2.0
1,6.71399998664856,learn,53286.00001335144,Thu Feb 20 2025 17:37:51 GMT-0600 (Central Standard Time),167965.80000000075,A,mead,O,d,241,1,1832.1000000014901,166133.69999999925,7050,WL,A,2.0
1,6.947000026702881,learn,53052.99997329712,Thu Feb 20 2025 17:37:51 GMT-0600 (Central Standard Time),168199.19999999925,A,meado,O,o,223,1,2065.5,166133.69999999925,7050,WL,A,2.0
1,7.2799999713897705,learn,52720.00002861023,Thu Feb 20 2025 17:37:51 GMT-0600 (Central Standard Time),168532.30000000075,A,meadow,O,w,325,1,2398.60000000149,166133.69999999925,7050,WL,A,2.0
1,7.61299991607666,learn,52387.00008392334,Thu Feb 20 2025 17:37:51 GMT-0600 (Central Standard Time),168865.59999999776,A,meadowenter,O,enter,320,1,2731.89999999851,166133.69999999925,7050,WL,A,2.0
1,9.196000099182129,learn,50803.99990081787,Thu Feb 20 2025 17:37:51 GMT-0600 (Central Standard Time),170448.30000000075,A,s,O,s,1571,1,1582.1000000014901,168866.19999999925,7050,WL,A,3.0
1,9.446000099182129,learn,50553.99990081787,Thu Feb 20 2025 17:37:51 GMT-0600 (Central Standard Time),170698.3999999985,A,sa,O,a,228,1,1832.199999999255,168866.19999999925,7050,WL,A,3.0
1,9.645999908447266,learn,50354.000091552734,Thu Feb 20 2025 17:37:51 GMT-0600 (Central Standard Time),170898.19999999925,A,sal,O,l,178,1,2032.0,168866.19999999925,7050,WL,A,3.0
1,10.312000036239624,learn,49687.999963760376,Thu Feb 20 2025 17:37:51 GMT-0600 (Central Standard Time),171564.80000000075,A,salt,O,t,658,1,2698.60000000149,168866.19999999925,7050,WL,A,3.0
1,10.628999948501587,learn,49371.00005149841,Thu Feb 20 2025 17:37:51 GMT-0600 (Central Standard Time),171881.09999999776,A,saltenter,O,enter,304,1,3014.89999999851,168866.19999999925,7050,WL,A,3.0
1,12.611999988555908,learn,47388.00001144409,Thu Feb 20 2025 17:37:51 GMT-0600 (Central Standard Time),173864.0,A,m,O,m,1972,1,1982.4000000022352,171881.59999999776,7050,WL,A,4.0
1,12.745000123977661,learn,47254.99987602234,Thu Feb 20 2025 17:37:51 GMT-0600 (Central Standard Time),173997.3999999985,A,me,O,e,124,1,2115.800000000745,171881.59999999776,7050,WL,A,4.0
1,12.995000123977661,learn,47004.99987602234,Thu Feb 20 2025 17:37:51 GMT-0600 (Central Standard Time),174247.0,A,mea,O,a,232,1,2365.400000002235,171881.59999999776,7050,WL,A,4.0
1,13.245000123977661,learn,46754.99987602234,Thu Feb 20 2025 17:37:51 GMT-0600 (Central Standard Time),174497.09999999776,A,mead,O,d,238,1,2615.5,171881.59999999776,7050,WL,A,4.0
1,13.41100001335144,learn,46588.99998664856,Thu Feb 20 2025 17:37:51 GMT-0600 (Central Standard Time),174663.69999999925,A,meado,O,o,147,1,2782.10000000149,171881.59999999776,7050,WL,A,4.0
1,13.67799997329712,learn,46322.00002670288,Thu Feb 20 2025 17:37:51 GMT-0600 (Central Standard Time),174930.3999999985,A,meadow,O,w,251,1,3048.800000000745,171881.59999999776,7050,WL,A,4.0
1,13.894999980926514,learn,46105.000019073486,Thu Feb 20 2025 17:37:51 GMT-0600 (Central Standard Time),175146.8999999985,A,meadowenter,O,enter,202,1,3265.300000000745,171881.59999999776,7050,WL,A,4.0
1,19.325999975204468,learn,40674.00002479553,Thu Feb 20 2025 17:37:51 GMT-0600 (Central Standard Time),180578.59999999776,A,h,O,h,5418,1,5431.29999999702,175147.30000000075,7050,WL,A,5.0
1,19.509999990463257,learn,40490.00000953674,Thu Feb 20 2025 17:37:51 GMT-0600 (Central Standard Time),180762.0,A,ha,O,a,169,1,5614.699999999255,175147.30000000075,7050,WL,A,5.0
1,19.842999935150146,learn,40157.00006484985,Thu Feb 20 2025 17:37:51 GMT-0600 (Central Standard Time),181094.8999999985,A,har,O,r,315,1,5947.599999997765,175147.30000000075,7050,WL,A,5.0
1,20.14300012588501,learn,39856.99987411499,Thu Feb 20 2025 17:37:51 GMT-0600 (Central Standard Time),181395.19999999925,A,harp,O,p,286,1,6247.89999999851,175147.30000000075,7050,WL,A,5.0
1,20.575999975204468,learn,39424.00002479553,Thu Feb 20 2025 17:37:51 GMT-0600 (Central Standard Time),181827.8999999985,A,harpenter,O,enter,418,1,6680.599999997765,175147.30000000075,7050,WL,A,5.0
1,25.174999952316284,learn,34825.000047683716,Thu Feb 20 2025 17:37:51 GMT-0600 (Central Standard Time),186426.8999999985,A,r,O,r,4577,1,4598.599999997765,181828.30000000075,7050,WL,A,6.0
1,25.424000024795532,learn,34575.99997520447,Thu Feb 20 2025 17:37:51 GMT-0600 (Central Standard Time),186676.59999999776,A,ra,O,a,234,1,4848.29999999702,181828.30000000075,7050,WL,A,6.0
1,25.758000135421753,learn,34241.99986457825,Thu Feb 20 2025 17:37:51 GMT-0600 (Central Standard Time),187010.09999999776,A,rat,O,t,320,1,5181.79999999702,181828.30000000075,7050,WL,A,6.0
1,25.907999992370605,learn,34092.000007629395,Thu Feb 20 2025 17:37:51 GMT-0600 (Central Standard Time),187159.80000000075,A,ratt,O,t,138,1,5331.5,181828.30000000075,7050,WL,A,6.0
1,26.091000080108643,learn,33908.99991989136,Thu Feb 20 2025 17:37:51 GMT-0600 (Central Standard Time),187343.09999999776,A,rattl,O,l,173,1,5514.79999999702,181828.30000000075,7050,WL,A,6.0
1,26.324000120162964,learn,33675.999879837036,Thu Feb 20 2025 17:37:51 GMT-0600 (Central Standard Time),187576.5,A,rattle,O,e,213,1,5748.199999999255,181828.30000000075,7050,WL,A,6.0
1,26.94099998474121,learn,33059.00001525879,Thu Feb 20 2025 17:37:51 GMT-0600 (Central Standard Time),188192.8999999985,A,rattleenter,O,enter,597,1,6364.599999997765,181828.30000000075,7050,WL,A,6.0
1,28.223999977111816,learn,31776.000022888184,Thu Feb 20 2025 17:37:51 GMT-0600 (Central Standard Time),189475.8999999985,A,d,O,d,1268,1,1282.5,188193.3999999985,7050,WL,A,7.0
1,28.506999969482422,learn,31493.000030517578,Thu Feb 20 2025 17:37:51 GMT-0600 (Central Standard Time),189759.0,A,du,O,u,265,1,1565.6000000014901,188193.3999999985,7050,WL,A,7.0
1,28.657000064849854,learn,31342.999935150146,Thu Feb 20 2025 17:37:51 GMT-0600 (Central Standard Time),189909.09999999776,A,dus,O,s,142,1,1715.699999999255,188193.3999999985,7050,WL,A,7.0
1,28.907000064849854,learn,31092.999935150146,Thu Feb 20 2025 17:37:51 GMT-0600 (Central Standard Time),190159.09999999776,A,dust,O,t,240,1,1965.699999999255,188193.3999999985,7050,WL,A,7.0
1,29.289999961853027,learn,30710.000038146973,Thu Feb 20 2025 17:37:51 GMT-0600 (Central Standard Time),190542.09999999776,A,dustenter,O,enter,365,1,2348.699999999255,188193.3999999985,7050,WL,A,7.0
1,39.88599991798401,learn,20114.00008201599,Thu Feb 20 2025 17:37:51 GMT-0600 (Central Standard Time),201138.69999999925,A,m,O,m,10590,1,10596.10000000149,190542.59999999776,7050,WL,A,8.0
1,40.085999965667725,learn,19914.000034332275,Thu Feb 20 2025 17:37:51 GMT-0600 (Central Standard Time),201338.5,A,me,O,e,194,1,10795.900000002235,190542.59999999776,7050,WL,A,8.0
1,40.30399990081787,learn,19696.00009918213,Thu Feb 20 2025 17:37:51 GMT-0600 (Central Standard Time),201556.3999999985,A,met,O,t,211,1,11013.800000000745,190542.59999999776,7050,WL,A,8.0
1,40.736000061035156,learn,19263.999938964844,Thu Feb 20 2025 17:37:51 GMT-0600 (Central Standard Time),201988.5,A,meta,O,a,417,1,11445.900000002235,190542.59999999776,7050,WL,A,8.0
1,40.96900010108948,learn,19030.999898910522,Thu Feb 20 2025 17:37:51 GMT-0600 (Central Standard Time),202221.80000000075,A,metal,O,l,217,1,11679.20000000298,190542.59999999776,7050,WL,A,8.0
1,41.418999910354614,learn,18581.000089645386,Thu Feb 20 2025 17:37:51 GMT-0600 (Central Standard Time),202671.59999999776,A,metalenter,O,enter,439,1,12129.0,190542.59999999776,7050,WL,A,8.0
1,43.03600001335144,learn,16963.99998664856,Thu Feb 20 2025 17:37:51 GMT-0600 (Central Standard Time),204288.0,A,f,O,f,1597,1,1616.0,202672.0,7050,WL,A,9.0
1,43.235000133514404,learn,16764.999866485596,Thu Feb 20 2025 17:37:51 GMT-0600 (Central Standard Time),204487.69999999925,A,fl,O,l,181,1,1815.699999999255,202672.0,7050,WL,A,9.0
1,43.45300006866455,learn,16546.99993133545,Thu Feb 20 2025 17:37:51 GMT-0600 (Central Standard Time),204705.5,A,flo,O,o,198,1,2033.5,202672.0,7050,WL,A,9.0
1,43.651999950408936,learn,16348.000049591064,Thu Feb 20 2025 17:37:51 GMT-0600 (Central Standard Time),204904.30000000075,A,flow,O,w,180,1,2232.300000000745,202672.0,7050,WL,A,9.0
1,43.80200004577637,learn,16197.999954223633,Thu Feb 20 2025 17:37:51 GMT-0600 (Central Standard Time),205054.19999999925,A,flowe,O,e,141,1,2382.199999999255,202672.0,7050,WL,A,9.0
1,44.11800003051758,learn,15881.999969482422,Thu Feb 20 2025 17:37:51 GMT-0600 (Central Standard Time),205370.69999999925,A,flower,O,r,311,1,2698.699999999255,202672.0,7050,WL,A,9.0
1,44.45199990272522,learn,15548.00009727478,Thu Feb 20 2025 17:37:51 GMT-0600 (Central Standard Time),205704.0,A,flowerenter,O,enter,322,1,3032.0,202672.0,7050,WL,A,9.0
1,55.39800000190735,learn,4601.999998092651,Thu Feb 20 2025 17:37:51 GMT-0600 (Central Standard Time),216650.59999999776,A,enter,O,enter,10933,1,10946.39999999851,205704.19999999925,7050,WL,A,10.0
1,56.46499991416931,learn,3535.0000858306885,Thu Feb 20 2025 17:37:51 GMT-0600 (Central Standard Time),217717.09999999776,A,enter,O,enter,1050,1,1066.199999999255,216650.8999999985,7050,WL,A,11.0
1,56.99799990653992,learn,3002.000093460083,Thu Feb 20 2025 17:37:51 GMT-0600 (Central Standard Time),218250.19999999925,A,enter,O,enter,512,1,532.6999999992549,217717.5,7050,WL,A,12.0
1,57.331000089645386,learn,2668.9999103546143,Thu Feb 20 2025 17:37:51 GMT-0600 (Central Standard Time),218583.19999999925,A,enter,O,enter,315,1,332.6000000014901,218250.59999999776,7050,WL,A,13.0
1,57.56400012969971,learn,2435.999870300293,Thu Feb 20 2025 17:37:51 GMT-0600 (Central Standard Time),218816.69999999925,A,enter,O,enter,214,1,232.89999999850988,218583.80000000075,7050,WL,A,14.0
1,57.7810001373291,learn,2218.9998626708984,Thu Feb 20 2025 17:37:51 GMT-0600 (Central Standard Time),219033.09999999776,A,enter,O,enter,196,1,215.79999999701977,218817.30000000075,7050,WL,A,15.0
2,11.962999820709229,learn,48037.00017929077,Thu Feb 20 2025 17:37:51 GMT-0600 (Central Standard Time),303056.80000000075,A,c,O,c,11952,1,11962.400000002235,291094.3999999985,7050,WL,A,1.0
2,12.079999923706055,learn,47920.000076293945,Thu Feb 20 2025 17:37:51 GMT-0600 (Central Standard Time),303173.69999999925,A,ch,O,h,99,1,12079.300000000745,291094.3999999985,7050,WL,A,1.0
2,12.27999997138977,learn,47720.00002861023,Thu Feb 20 2025 17:37:51 GMT-0600 (Central Standard Time),303373.3999999985,A,chu,O,u,191,1,12279.0,291094.3999999985,7050,WL,A,1.0
2,13.11299991607666,learn,46887.00008392334,Thu Feb 20 2025 17:37:51 GMT-0600 (Central Standard Time),304206.5,A,ch,O,backspace,816,1,13112.10000000149,291094.3999999985,7050,WL,A,1.0
2,13.513000011444092,learn,46486.99998855591,Thu Feb 20 2025 17:37:51 GMT-0600 (Central Standard Time),304606.5,A,chi,O,i,383,1,13512.10000000149,291094.3999999985,7050,WL,A,1.0
2,13.828999996185303,learn,46171.0000038147,Thu Feb 20 2025 17:37:51 GMT-0600 (Central Standard Time),304922.8999999985,A,chim,O,m,311,1,13828.5,291094.3999999985,7050,WL,A,1.0
2,14.145999908447266,learn,45854.000091552734,Thu Feb 20 2025 17:37:51 GMT-0600 (Central Standard Time),305239.69999999925,A,chimn,O,n,298,1,14145.300000000745,291094.3999999985,7050,WL,A,1.0
2,14.313999891281128,learn,45686.00010871887,Thu Feb 20 2025 17:37:51 GMT-0600 (Central Standard Time),305407.30000000075,A,chimne,O,e,149,1,14312.900000002235,291094.3999999985,7050,WL,A,1.0
2,14.461999893188477,learn,45538.00010681152,Thu Feb 20 2025 17:37:51 GMT-0600 (Central Standard Time),305556.0,A,chimney,O,y,133,1,14461.60000000149,291094.3999999985,7050,WL,A,1.0
2,15.411999940872192,learn,44588.00005912781,Thu Feb 20 2025 17:37:51 GMT-0600 (Central Standard Time),306505.80000000075,A,chimneyenter,O,enter,929,1,15411.400000002235,291094.3999999985,7050,WL,A,1.0
2,16.17899990081787,learn,43821.00009918213,Thu Feb 20 2025 17:37:51 GMT-0600 (Central Standard Time),307272.30000000075,A,l,O,l,747,1,766.2000000029802,306506.09999999776,7050,WL,A,2.0
2,16.361999988555908,learn,43638.00001144409,Thu Feb 20 2025 17:37:51 GMT-0600 (Central Standard Time),307455.30000000075,A,lo,O,o,173,1,949.2000000029802,306506.09999999776,7050,WL,A,2.0
2,17.17899990081787,learn,42821.00009918213,Thu Feb 20 2025 17:37:51 GMT-0600 (Central Standard Time),308272.19999999925,A,log,O,g,798,1,1766.1000000014901,306506.09999999776,7050,WL,A,2.0
2,17.894999980926514,learn,42105.000019073486,Thu Feb 20 2025 17:37:51 GMT-0600 (Central Standard Time),308988.3999999985,A,logenter,O,enter,709,1,2482.300000000745,306506.09999999776,7050,WL,A,2.0
2,18.878000020980835,learn,41121.999979019165,Thu Feb 20 2025 17:37:51 GMT-0600 (Central Standard Time),309971.09999999776,A,r,O,r,977,1,982.2999999970198,308988.80000000075,7050,WL,A,3.0
2,19.128000020980835,learn,40871.999979019165,Thu Feb 20 2025 17:37:51 GMT-0600 (Central Standard Time),310221.30000000075,A,ra,O,a,234,1,1232.5,308988.80000000075,7050,WL,A,3.0
2,19.444000005722046,learn,40555.999994277954,Thu Feb 20 2025 17:37:51 GMT-0600 (Central Standard Time),310537.8999999985,A,rat,O,t,304,1,1549.0999999977648,308988.80000000075,7050,WL,A,3.0
2,19.610999822616577,learn,40389.00017738342,Thu Feb 20 2025 17:37:51 GMT-0600 (Central Standard Time),310704.5,A,ratt,O,t,147,1,1715.699999999255,308988.80000000075,7050,WL,A,3.0
2,19.776999950408936,learn,40223.000049591064,Thu Feb 20 2025 17:37:51 GMT-0600 (Central Standard Time),310871.09999999776,A,rattl,O,l,157,1,1882.2999999970198,308988.80000000075,7050,WL,A,3.0
2,19.99399995803833,learn,40006.00004196167,Thu Feb 20 2025 17:37:51 GMT-0600 (Central Standard Time),311087.80000000075,A,rattle,O,e,198,1,2099.0,308988.80000000075,7050,WL,A,3.0
2,21.177000045776367,learn,38822.99995422363,Thu Feb 20 2025 17:37:51 GMT-0600 (Central Standard Time),312270.80000000075,A,rattleenter,O,enter,1173,1,3282.0,308988.80000000075,7050,WL,A,3.0
2,22.460000038146973,learn,37539.99996185303,Thu Feb 20 2025 17:37:51 GMT-0600 (Central Standard Time),313553.59999999776,A,h,O,h,1262,1,1282.3999999985099,312271.19999999925,7050,WL,A,4.0
2,22.626999855041504,learn,37373.000144958496,Thu Feb 20 2025 17:37:51 GMT-0600 (Central Standard Time),313720.3999999985,A,ha,O,a,148,1,1449.199999999255,312271.19999999925,7050,WL,A,4.0
2,22.942999839782715,learn,37057.000160217285,Thu Feb 20 2025 17:37:51 GMT-0600 (Central Standard Time),314036.8999999985,A,har,O,r,309,1,1765.699999999255,312271.19999999925,7050,WL,A,4.0
2,23.276000022888184,learn,36723.99997711182,Thu Feb 20 2025 17:37:51 GMT-0600 (Central Standard Time),314370.19999999925,A,harp,O,p,320,1,2099.0,312271.19999999925,7050,WL,A,4.0
2,23.776000022888184,learn,36223.99997711182,Thu Feb 20 2025 17:37:51 GMT-0600 (Central Standard Time),314869.8999999985,A,harpenter,O,enter,483,1,2598.699999999255,312271.19999999925,7050,WL,A,4.0
2,25.108999967575073,learn,34891.00003242493,Thu Feb 20 2025 17:37:51 GMT-0600 (Central Standard Time),316202.80000000075,A,,O,backspace,1319,1,1332.5,314870.30000000075,7050,WL,A,5.0
2,25.54200005531311,learn,34457.99994468689,Thu Feb 20 2025 17:37:51 GMT-0600 (Central Standard Time),316636.09999999776,A,f,O,f,419,1,1765.7999999970198,314870.30000000075,7050,WL,A,5.0
2,25.875999927520752,learn,34124.00007247925,Thu Feb 20 2025 17:37:51 GMT-0600 (Central Standard Time),316969.19999999925,A,fi,O,i,313,1,2098.89999999851,314870.30000000075,7050,WL,A,5.0
2,26.125,learn,33875.0,Thu Feb 20 2025 17:37:51 GMT-0600 (Central Standard Time),317219.09999999776,A,fin,O,n,244,1,2348.7999999970198,314870.30000000075,7050,WL,A,5.0
2,26.375,learn,33625.0,Thu Feb 20 2025 17:37:51 GMT-0600 (Central Standard Time),317469.19999999925,A,fing,O,g,242,1,2598.89999999851,314870.30000000075,7050,WL,A,5.0
2,26.491999864578247,learn,33508.00013542175,Thu Feb 20 2025 17:37:51 GMT-0600 (Central Standard Time),317585.69999999925,A,finge,O,e,104,1,2715.39999999851,314870.30000000075,7050,WL,A,5.0
2,26.55900001525879,learn,33440.99998474121,Thu Feb 20 2025 17:37:51 GMT-0600 (Central Standard Time),317652.30000000075,A,finger,O,r,59,1,2782.0,314870.30000000075,7050,WL,A,5.0
2,26.825000047683716,learn,33174.999952316284,Thu Feb 20 2025 17:37:51 GMT-0600 (Central Standard Time),317919.0,A,fingerenter,O,enter,249,1,3048.699999999255,314870.30000000075,7050,WL,A,5.0
2,29.10800004005432,learn,30891.99995994568,Thu Feb 20 2025 17:37:51 GMT-0600 (Central Standard Time),320201.59999999776,A,d,O,d,2270,1,2282.2999999970198,317919.30000000075,7050,WL,A,6.0
2,29.257999897003174,learn,30742.000102996826,Thu Feb 20 2025 17:37:51 GMT-0600 (Central Standard Time),320351.59999999776,A,du,O,u,139,1,2432.2999999970198,317919.30000000075,7050,WL,A,6.0
2,29.391000032424927,learn,30608.999967575073,Thu Feb 20 2025 17:37:51 GMT-0600 (Central Standard Time),320484.80000000075,A,dus,O,s,126,1,2565.5,317919.30000000075,7050,WL,A,6.0
2,29.804999828338623,learn,30195.000171661377,Thu Feb 20 2025 17:37:51 GMT-0600 (Central Standard Time),320898.3999999985,A,dust,O,t,408,1,2979.099999997765,317919.30000000075,7050,WL,A,6.0
2,30.12399983406067,learn,29876.00016593933,Thu Feb 20 2025 17:37:51 GMT-0600 (Central Standard Time),321217.5,A,dustenter,O,enter,307,1,3298.199999999255,317919.30000000075,7050,WL,A,6.0
2,31.256999969482422,learn,28743.000030517578,Thu Feb 20 2025 17:37:51 GMT-0600 (Central Standard Time),322350.8999999985,A,g,O,g,1124,1,1133.0999999977648,321217.80000000075,7050,WL,A,7.0
2,31.406999826431274,learn,28593.000173568726,Thu Feb 20 2025 17:37:51 GMT-0600 (Central Standard Time),322500.8999999985,A,go,O,o,142,1,1283.0999999977648,321217.80000000075,7050,WL,A,7.0
2,31.639999866485596,learn,28360.000133514404,Thu Feb 20 2025 17:37:51 GMT-0600 (Central Standard Time),322734.0,A,gol,O,l,224,1,1516.199999999255,321217.80000000075,7050,WL,A,7.0
2,32.50699996948242,learn,27493.000030517578,Thu Feb 20 2025 17:37:51 GMT-0600 (Central Standard Time),323600.5,A,gold,O,d,847,1,2382.699999999255,321217.80000000075,7050,WL,A,7.0
2,32.95700001716614,learn,27042.999982833862,Thu Feb 20 2025 17:37:51 GMT-0600 (Central Standard Time),324050.19999999925,A,goldenter,O,enter,445,1,2832.39999999851,321217.80000000075,7050,WL,A,7.0
2,33.889999866485596,learn,26110.000133514404,Thu Feb 20 2025 17:37:51 GMT-0600 (Central Standard Time),324983.5,A,m,O,m,923,1,933.1000000014901,324050.3999999985,7050,WL,A,8.0
2,34.00600004196167,learn,25993.99995803833,Thu Feb 20 2025 17:37:51 GMT-0600 (Central Standard Time),325100.0,A,me,O,e,110,1,1049.6000000014901,324050.3999999985,7050,WL,A,8.0
2,34.24000000953674,learn,25759.999990463257,Thu Feb 20 2025 17:37:51 GMT-0600 (Central Standard Time),325333.3999999985,A,mea,O,a,225,1,1283.0,324050.3999999985,7050,WL,A,8.0
2,34.40599989891052,learn,25594.000101089478,Thu Feb 20 2025 17:37:51 GMT-0600 (Central Standard Time),325499.8999999985,A,mead,O,d,160,1,1449.5,324050.3999999985,7050,WL,A,8.0
2,34.57299995422363,learn,25427.000045776367,Thu Feb 20 2025 17:37:51 GMT-0600 (Central Standard Time),325666.8999999985,A,meado,O,o,146,1,1616.5,324050.3999999985,7050,WL,A,8.0
2,34.85599994659424,learn,25144.00005340576,Thu Feb 20 2025 17:37:51 GMT-0600 (Central Standard Time),325950.0,A,meadow,O,w,266,1,1899.6000000014901,324050.3999999985,7050,WL,A,8.0
2,35.15599989891052,learn,24844.000101089478,Thu Feb 20 2025 17:37:51 GMT-0600 (Central Standard Time),326249.59999999776,A,meadowenter,O,enter,279,1,2199.199999999255,324050.3999999985,7050,WL,A,8.0
2,36.539000034332275,learn,23460.999965667725,Thu Feb 20 2025 17:37:51 GMT-0600 (Central Standard Time),327632.5,A,t,O,t,1372,1,1382.5,326250.0,7050,WL,A,9.0
2,36.73899984359741,learn,23261.000156402588,Thu Feb 20 2025 17:37:51 GMT-0600 (Central Standard Time),327832.5,A,tr,O,r,189,1,1582.5,326250.0,7050,WL,A,9.0
2,37.02199983596802,learn,22978.000164031982,Thu Feb 20 2025 17:37:51 GMT-0600 (Central Standard Time),328115.69999999925,A,tra,O,a,269,1,1865.699999999255,326250.0,7050,WL,A,9.0
2,37.32200002670288,learn,22677.99997329712,Thu Feb 20 2025 17:37:51 GMT-0600 (Central Standard Time),328415.59999999776,A,trai,O,i,290,1,2165.599999997765,326250.0,7050,WL,A,9.0
2,37.58899998664856,learn,22411.00001335144,Thu Feb 20 2025 17:37:51 GMT-0600 (Central Standard Time),328682.19999999925,A,train,O,n,262,1,2432.199999999255,326250.0,7050,WL,A,9.0
2,38.187999963760376,learn,21812.000036239624,Thu Feb 20 2025 17:37:51 GMT-0600 (Central Standard Time),329282.09999999776,A,trainenter,O,enter,587,1,3032.099999997765,326250.0,7050,WL,A,9.0
2,39.520999908447266,learn,20479.000091552734,Thu Feb 20 2025 17:37:51 GMT-0600 (Central Standard Time),330615.09999999776,A,c,O,c,1315,1,1332.5999999977648,329282.5,7050,WL,A,10.0
2,39.65499997138977,learn,20345.00002861023,Thu Feb 20 2025 17:37:51 GMT-0600 (Central Standard Time),330748.19999999925,A,ch,O,h,126,1,1465.699999999255,329282.5,7050,WL,A,10.0
2,39.98799991607666,learn,20012.00008392334,Thu Feb 20 2025 17:37:51 GMT-0600 (Central Standard Time),331081.3999999985,A,chi,O,i,321,1,1798.8999999985099,329282.5,7050,WL,A,10.0
2,40.62100005149841,learn,19378.999948501587,Thu Feb 20 2025 17:37:51 GMT-0600 (Central Standard Time),331714.59999999776,A,chim,O,m,628,1,2432.099999997765,329282.5,7050,WL,A,10.0
2,40.88800001144409,learn,19111.99998855591,Thu Feb 20 2025 17:37:51 GMT-0600 (Central Standard Time),331981.19999999925,A,chimn,O,n,251,1,2698.699999999255,329282.5,7050,WL,A,10.0
2,41.08699989318848,learn,18913.000106811523,Thu Feb 20 2025 17:37:51 GMT-0600 (Central Standard Time),332181.09999999776,A,chimne,O,e,192,1,2898.599999997765,329282.5,7050,WL,A,10.0
2,41.25399994850159,learn,18746.000051498413,Thu Feb 20 2025 17:37:51 GMT-0600 (Central Standard Time),332347.80000000075,A,chimney,O,y,152,1,3065.300000000745,329282.5,7050,WL,A,10.0
2,41.603999853134155,learn,18396.000146865845,Thu Feb 20 2025 17:37:51 GMT-0600 (Central Standard Time),332697.5,A,chimneyenter,O,enter,329,1,3415.0,329282.5,7050,WL,A,10.0
2,45.63599991798401,learn,14364.000082015991,Thu Feb 20 2025 17:37:51 GMT-0600 (Central Standard Time),336729.69999999925,A,l,O,l,4020,1,4031.800000000745,332697.8999999985,7050,WL,A,11.0
2,45.8529999256134,learn,14147.000074386597,Thu Feb 20 2025 17:37:51 GMT-0600 (Central Standard Time),336946.30000000075,A,lo,O,o,203,1,4248.400000002235,332697.8999999985,7050,WL,A,11.0
2,46.01900005340576,learn,13980.999946594238,Thu Feb 20 2025 17:37:51 GMT-0600 (Central Standard Time),337113.09999999776,A,log,O,g,147,1,4415.199999999255,332697.8999999985,7050,WL,A,11.0
2,46.2189998626709,learn,13781.000137329102,Thu Feb 20 2025 17:37:51 GMT-0600 (Central Standard Time),337312.8999999985,A,logenter,O,enter,188,1,4615.0,332697.8999999985,7050,WL,A,11.0
2,52.03399991989136,learn,7966.000080108643,Thu Feb 20 2025 17:37:51 GMT-0600 (Central Standard Time),343127.8999999985,A,b,O,b,5796,1,5814.599999997765,337313.30000000075,7050,WL,A,12.0
2,52.20099997520447,learn,7799.000024795532,Thu Feb 20 2025 17:37:51 GMT-0600 (Central Standard Time),343294.3999999985,A,bu,O,u,149,1,5981.099999997765,337313.30000000075,7050,WL,A,12.0
2,52.45099997520447,learn,7549.000024795532,Thu Feb 20 2025 17:37:51 GMT-0600 (Central Standard Time),343544.30000000075,A,but,O,t,231,1,6231.0,337313.30000000075,7050,WL,A,12.0
2,52.61699986457825,learn,7383.000135421753,Thu Feb 20 2025 17:37:51 GMT-0600 (Central Standard Time),343710.80000000075,A,butt,O,t,157,1,6397.5,337313.30000000075,7050,WL,A,12.0
2,52.76699995994568,learn,7233.000040054321,Thu Feb 20 2025 17:37:51 GMT-0600 (Central Standard Time),343860.8999999985,A,butto,O,o,142,1,6547.599999997765,337313.30000000075,7050,WL,A,12.0
2,53.06699991226196,learn,6933.000087738037,Thu Feb 20 2025 17:37:51 GMT-0600 (Central Standard Time),344160.69999999925,A,button,O,n,288,1,6847.39999999851,337313.30000000075,7050,WL,A,12.0
2,53.66700005531311,learn,6332.99994468689,Thu Feb 20 2025 17:37:51 GMT-0600 (Central Standard Time),344760.5,A,buttonenter,O,enter,581,1,7447.199999999255,337313.30000000075,7050,WL,A,12.0
2,56.66599988937378,learn,3334.0001106262207,Thu Feb 20 2025 17:37:51 GMT-0600 (Central Standard Time),347759.59999999776,A,k,O,k,2989,1,2998.699999999255,344760.8999999985,7050,WL,A,13.0
2,56.848999977111816,learn,3151.0000228881836,Thu Feb 20 2025 17:37:51 GMT-0600 (Central Standard Time),347943.09999999776,A,ke,O,e,166,1,3182.199999999255,344760.8999999985,7050,WL,A,13.0
2,57.16599988937378,learn,2834.0001106262207,Thu Feb 20 2025 17:37:51 GMT-0600 (Central Standard Time),348259.59999999776,A,key,O,y,310,1,3498.699999999255,344760.8999999985,7050,WL,A,13.0
2,57.38199996948242,learn,2618.000030517578,Thu Feb 20 2025 17:37:51 GMT-0600 (Central Standard Time),348476.09999999776,A,keyenter,O,enter,210,1,3715.199999999255,344760.8999999985,7050,WL,A,13.0
2,59.83099985122681,learn,169.00014877319336,Thu Feb 20 2025 17:37:51 GMT-0600 (Central Standard Time),350925.09999999776,A,enter,O,enter,2441,1,2448.599999997765,348476.5,7050,WL,A,14.0
2,60.014999866485596,learn,-14.999866485595703,Thu Feb 20 2025 17:37:51 GMT-0600 (Central Standard Time),351108.59999999776,A,None,O,None,178,1,183.09999999776483,350925.5,7050,WL,A,15.0
3,1.565999984741211,learn,58434.00001525879,Thu Feb 20 2025 17:37:51 GMT-0600 (Central Standard Time),422152.8999999985,A,b,O,b,1555,1,1565.699999999255,420587.19999999925,7050,WL,A,1.0
3,1.8489999771118164,learn,58151.00002288818,Thu Feb 20 2025 17:37:51 GMT-0600 (Central Standard Time),422436.3999999985,A,bo,O,o,276,1,1849.199999999255,420587.19999999925,7050,WL,A,1.0
3,2.0319998264312744,learn,57968.000173568726,Thu Feb 20 2025 17:37:51 GMT-0600 (Central Standard Time),422619.30000000075,A,boo,O,o,177,1,2032.1000000014901,420587.19999999925,7050,WL,A,1.0
3,2.4839999675750732,learn,57516.00003242493,Thu Feb 20 2025 17:37:51 GMT-0600 (Central Standard Time),423070.59999999776,A,book,O,k,442,1,2483.39999999851,420587.19999999925,7050,WL,A,1.0
3,3.248999834060669,learn,56751.00016593933,Thu Feb 20 2025 17:37:51 GMT-0600 (Central Standard Time),423835.8999999985,A,bookenter,O,enter,751,1,3248.699999999255,420587.19999999925,7050,WL,A,1.0
3,3.8489999771118164,learn,56151.00002288818,Thu Feb 20 2025 17:37:51 GMT-0600 (Central Standard Time),424435.69999999925,A,f,O,f,586,1,599.3999999985099,423836.30000000075,7050,WL,A,2.0
3,3.9819998741149902,learn,56018.00012588501,Thu Feb 20 2025 17:37:51 GMT-0600 (Central Standard Time),424569.0,A,fl,O,l,122,1,732.6999999992549,423836.30000000075,7050,WL,A,2.0
3,4.2159998416900635,learn,55784.00015830994,Thu Feb 20 2025 17:37:51 GMT-0600 (Central Standard Time),424803.0,A,flo,O,o,220,1,966.6999999992549,423836.30000000075,7050,WL,A,2.0
3,4.332000017166138,learn,55667.99998283386,Thu Feb 20 2025 17:37:51 GMT-0600 (Central Standard Time),424918.80000000075,A,flow,O,w,106,1,1082.5,423836.30000000075,7050,WL,A,2.0
3,4.431999921798706,learn,55568.000078201294,Thu Feb 20 2025 17:37:51 GMT-0600 (Central Standard Time),425019.0,A,flowe,O,e,86,1,1182.699999999255,423836.30000000075,7050,WL,A,2.0
3,4.697999954223633,learn,55302.00004577637,Thu Feb 20 2025 17:37:51 GMT-0600 (Central Standard Time),425285.30000000075,A,flower,O,r,250,1,1449.0,423836.30000000075,7050,WL,A,2.0
3,4.881999969482422,learn,55118.00003051758,Thu Feb 20 2025 17:37:51 GMT-0600 (Central Standard Time),425468.69999999925,A,flowerenter,O,enter,176,1,1632.3999999985099,423836.30000000075,7050,WL,A,2.0
3,5.23199987411499,learn,54768.00012588501,Thu Feb 20 2025 17:37:51 GMT-0600 (Central Standard Time),425818.5,A,t,O,t,345,1,349.4000000022352,425469.09999999776,7050,WL,A,3.0
3,5.365000009536743,learn,54634.99999046326,Thu Feb 20 2025 17:37:51 GMT-0600 (Central Standard Time),425951.8999999985,A,tr,O,r,123,1,482.80000000074506,425469.09999999776,7050,WL,A,3.0
3,5.664999961853027,learn,54335.00003814697,Thu Feb 20 2025 17:37:51 GMT-0600 (Central Standard Time),426251.80000000075,A,tra,O,a,293,1,782.7000000029802,425469.09999999776,7050,WL,A,3.0
3,5.830999851226807,learn,54169.00014877319,Thu Feb 20 2025 17:37:51 GMT-0600 (Central Standard Time),426418.3999999985,A,trai,O,i,154,1,949.3000000007451,425469.09999999776,7050,WL,A,3.0
3,6.080999851226807,learn,53919.00014877319,Thu Feb 20 2025 17:37:51 GMT-0600 (Central Standard Time),426668.19999999925,A,train,O,n,235,1,1199.1000000014901,425469.09999999776,7050,WL,A,3.0
3,6.398000001907349,learn,53601.99999809265,Thu Feb 20 2025 17:37:51 GMT-0600 (Central Standard Time),426984.8999999985,A,trainenter,O,enter,305,1,1515.800000000745,425469.09999999776,7050,WL,A,3.0
3,6.763999938964844,learn,53236.000061035156,Thu Feb 20 2025 17:37:51 GMT-0600 (Central Standard Time),427351.30000000075,A,h,O,h,349,1,366.20000000298023,426985.09999999776,7050,WL,A,4.0
3,6.914999961853027,learn,53085.00003814697,Thu Feb 20 2025 17:37:51 GMT-0600 (Central Standard Time),427501.5,A,ha,O,a,134,1,516.4000000022352,426985.09999999776,7050,WL,A,4.0
3,7.180999994277954,learn,52819.000005722046,Thu Feb 20 2025 17:37:51 GMT-0600 (Central Standard Time),427767.8999999985,A,har,O,r,248,1,782.8000000007451,426985.09999999776,7050,WL,A,4.0
3,7.430999994277954,learn,52569.000005722046,Thu Feb 20 2025 17:37:51 GMT-0600 (Central Standard Time),428018.0,A,harp,O,p,229,1,1032.9000000022352,426985.09999999776,7050,WL,A,4.0
3,7.746999979019165,learn,52253.000020980835,Thu Feb 20 2025 17:37:51 GMT-0600 (Central Standard Time),428334.3999999985,A,harpenter,O,enter,299,1,1349.300000000745,426985.09999999776,7050,WL,A,4.0
3,8.330999851226807,learn,51669.00014877319,Thu Feb 20 2025 17:37:51 GMT-0600 (Central Standard Time),428917.5,A,m,O,m,566,1,582.8000000007451,428334.69999999925,7050,WL,A,5.0
3,8.46399998664856,learn,51536.00001335144,Thu Feb 20 2025 17:37:51 GMT-0600 (Central Standard Time),429051.0,A,me,O,e,120,1,716.3000000007451,428334.69999999925,7050,WL,A,5.0
3,8.763999938964844,learn,51236.000061035156,Thu Feb 20 2025 17:37:51 GMT-0600 (Central Standard Time),429350.8999999985,A,mea,O,a,290,1,1016.1999999992549,428334.69999999925,7050,WL,A,5.0
3,8.996999979019165,learn,51003.000020980835,Thu Feb 20 2025 17:37:51 GMT-0600 (Central Standard Time),429584.0,A,mead,O,d,214,1,1249.300000000745,428334.69999999925,7050,WL,A,5.0
3,9.180999994277954,learn,50819.000005722046,Thu Feb 20 2025 17:37:51 GMT-0600 (Central Standard Time),429767.59999999776,A,meado,O,o,165,1,1432.8999999985099,428334.69999999925,7050,WL,A,5.0
3,9.763999938964844,learn,50236.000061035156,Thu Feb 20 2025 17:37:51 GMT-0600 (Central Standard Time),430350.69999999925,A,meadow,O,w,574,1,2016.0,428334.69999999925,7050,WL,A,5.0
3,9.929999828338623,learn,50070.00017166138,Thu Feb 20 2025 17:37:51 GMT-0600 (Central Standard Time),430517.30000000075,A,meadowenter,O,enter,158,1,2182.60000000149,428334.69999999925,7050,WL,A,5.0
3,10.246999979019165,learn,49753.000020980835,Thu Feb 20 2025 17:37:51 GMT-0600 (Central Standard Time),430833.80000000075,A,f,O,f,304,1,316.20000000298023,430517.59999999776,7050,WL,A,6.0
3,10.52999997138977,learn,49470.00002861023,Thu Feb 20 2025 17:37:51 GMT-0600 (Central Standard Time),431117.09999999776,A,fi,O,i,275,1,599.5,430517.59999999776,7050,WL,A,6.0
3,10.912999868392944,learn,49087.000131607056,Thu Feb 20 2025 17:37:51 GMT-0600 (Central Standard Time),431500.19999999925,A,fin,O,n,368,1,982.6000000014901,430517.59999999776,7050,WL,A,6.0
3,11.212999820709229,learn,48787.00017929077,Thu Feb 20 2025 17:37:51 GMT-0600 (Central Standard Time),431800.19999999925,A,fing,O,g,281,1,1282.6000000014901,430517.59999999776,7050,WL,A,6.0
3,11.495999813079834,learn,48504.000186920166,Thu Feb 20 2025 17:37:51 GMT-0600 (Central Standard Time),432083.30000000075,A,finge,O,e,269,1,1565.7000000029802,430517.59999999776,7050,WL,A,6.0
3,11.595999956130981,learn,48404.00004386902,Thu Feb 20 2025 17:37:51 GMT-0600 (Central Standard Time),432183.3999999985,A,finger,O,r,90,1,1665.800000000745,430517.59999999776,7050,WL,A,6.0
3,12.162999868392944,learn,47837.000131607056,Thu Feb 20 2025 17:37:51 GMT-0600 (Central Standard Time),432749.69999999925,A,fingerenter,O,enter,550,1,2232.10000000149,430517.59999999776,7050,WL,A,6.0
3,12.928999900817871,learn,47071.00009918213,Thu Feb 20 2025 17:37:51 GMT-0600 (Central Standard Time),433516.19999999925,A,h,O,h,759,1,766.3000000007451,432749.8999999985,7050,WL,A,7.0
3,13.129999876022339,learn,46870.00012397766,Thu Feb 20 2025 17:37:51 GMT-0600 (Central Standard Time),433717.30000000075,A,ha,O,a,185,1,967.4000000022352,432749.8999999985,7050,WL,A,7.0
3,13.395999908447266,learn,46604.000091552734,Thu Feb 20 2025 17:37:51 GMT-0600 (Central Standard Time),433982.69999999925,A,har,O,r,256,1,1232.800000000745,432749.8999999985,7050,WL,A,7.0
3,13.628999948501587,learn,46371.00005149841,Thu Feb 20 2025 17:37:51 GMT-0600 (Central Standard Time),434215.8999999985,A,harp,O,p,215,1,1466.0,432749.8999999985,7050,WL,A,7.0
3,14.378999948501587,learn,45621.00005149841,Thu Feb 20 2025 17:37:51 GMT-0600 (Central Standard Time),434965.69999999925,A,harpenter,O,enter,742,1,2215.800000000745,432749.8999999985,7050,WL,A,7.0
3,15.327999830245972,learn,44672.00016975403,Thu Feb 20 2025 17:37:51 GMT-0600 (Central Standard Time),435915.19999999925,A,l,O,l,944,1,949.1999999992549,434966.0,7050,WL,A,8.0
3,15.577999830245972,learn,44422.00016975403,Thu Feb 20 2025 17:37:51 GMT-0600 (Central Standard Time),436165.3999999985,A,lo,O,o,242,1,1199.3999999985099,434966.0,7050,WL,A,8.0
3,16.17799997329712,learn,43822.00002670288,Thu Feb 20 2025 17:37:51 GMT-0600 (Central Standard Time),436765.0,A,log,O,g,584,1,1799.0,434966.0,7050,WL,A,8.0
3,16.394999980926514,learn,43605.000019073486,Thu Feb 20 2025 17:37:51 GMT-0600 (Central Standard Time),436981.80000000075,A,logenter,O,enter,200,1,2015.800000000745,434966.0,7050,WL,A,8.0
3,17.17799997329712,learn,42822.00002670288,Thu Feb 20 2025 17:37:51 GMT-0600 (Central Standard Time),437764.8999999985,A,k,O,k,776,1,782.8000000007451,436982.09999999776,7050,WL,A,9.0
3,17.444000005722046,learn,42555.999994277954,Thu Feb 20 2025 17:37:51 GMT-0600 (Central Standard Time),438031.3999999985,A,ke,O,e,256,1,1049.300000000745,436982.09999999776,7050,WL,A,9.0
3,17.67799997329712,learn,42322.00002670288,Thu Feb 20 2025 17:37:51 GMT-0600 (Central Standard Time),438264.80000000075,A,key,O,y,214,1,1282.7000000029802,436982.09999999776,7050,WL,A,9.0
3,18.06599998474121,learn,41934.00001525879,Thu Feb 20 2025 17:37:51 GMT-0600 (Central Standard Time),438653.3999999985,A,keyenter,O,enter,384,1,1671.300000000745,436982.09999999776,7050,WL,A,9.0
3,20.07699990272522,learn,39923.00009727478,Thu Feb 20 2025 17:37:51 GMT-0600 (Central Standard Time),440664.09999999776,A,g,O,g,1991,1,2010.3999999985099,438653.69999999925,7050,WL,A,10.0
3,20.22699999809265,learn,39773.00000190735,Thu Feb 20 2025 17:37:51 GMT-0600 (Central Standard Time),440813.80000000075,A,go,O,o,141,1,2160.10000000149,438653.69999999925,7050,WL,A,10.0
3,20.459999799728394,learn,39540.00020027161,Thu Feb 20 2025 17:37:51 GMT-0600 (Central Standard Time),441047.30000000075,A,gol,O,l,215,1,2393.60000000149,438653.69999999925,7050,WL,A,10.0
3,20.64299988746643,learn,39357.00011253357,Thu Feb 20 2025 17:37:51 GMT-0600 (Central Standard Time),441230.5,A,gold,O,d,166,1,2576.800000000745,438653.69999999925,7050,WL,A,10.0
3,20.792999982833862,learn,39207.00001716614,Thu Feb 20 2025 17:37:51 GMT-0600 (Central Standard Time),441380.3999999985,A,goldenter,O,enter,135,1,2726.699999999255,438653.69999999925,7050,WL,A,10.0
3,22.70899987220764,learn,37291.00012779236,Thu Feb 20 2025 17:37:51 GMT-0600 (Central Standard Time),443296.3999999985,A,d,O,d,1905,1,1915.800000000745,441380.59999999776,7050,WL,A,11.0
3,22.925999879837036,learn,37074.000120162964,Thu Feb 20 2025 17:37:51 GMT-0600 (Central Standard Time),443513.09999999776,A,du,O,u,204,1,2132.5,441380.59999999776,7050,WL,A,11.0
3,23.075999975204468,learn,36924.00002479553,Thu Feb 20 2025 17:37:51 GMT-0600 (Central Standard Time),443663.19999999925,A,dus,O,s,140,1,2282.60000000149,441380.59999999776,7050,WL,A,11.0
3,23.375999927520752,learn,36624.00007247925,Thu Feb 20 2025 17:37:51 GMT-0600 (Central Standard Time),443962.8999999985,A,dust,O,t,286,1,2582.300000000745,441380.59999999776,7050,WL,A,11.0
3,24.108999967575073,learn,35891.00003242493,Thu Feb 20 2025 17:37:51 GMT-0600 (Central Standard Time),444696.09999999776,A,dustenter,O,enter,714,1,3315.5,441380.59999999776,7050,WL,A,11.0
3,24.425999879837036,learn,35574.000120162964,Thu Feb 20 2025 17:37:51 GMT-0600 (Central Standard Time),445012.5,A,s,O,s,309,1,316.1000000014901,444696.3999999985,7050,WL,A,12.0
3,24.674999952316284,learn,35325.000047683716,Thu Feb 20 2025 17:37:51 GMT-0600 (Central Standard Time),445262.3999999985,A,sa,O,a,233,1,566.0,444696.3999999985,7050,WL,A,12.0
3,24.875999927520752,learn,35124.00007247925,Thu Feb 20 2025 17:37:51 GMT-0600 (Central Standard Time),445462.59999999776,A,sal,O,l,191,1,766.1999999992549,444696.3999999985,7050,WL,A,12.0
3,25.64199995994568,learn,34358.00004005432,Thu Feb 20 2025 17:37:51 GMT-0600 (Central Standard Time),446228.80000000075,A,salt,O,t,759,1,1532.4000000022352,444696.3999999985,7050,WL,A,12.0
3,27.257999897003174,learn,32742.000102996826,Thu Feb 20 2025 17:37:51 GMT-0600 (Central Standard Time),447845.19999999925,A,saltenter,O,enter,1609,1,3148.800000000745,444696.3999999985,7050,WL,A,12.0
3,31.207000017166138,learn,28792.999982833862,Thu Feb 20 2025 17:37:51 GMT-0600 (Central Standard Time),451793.5,A,f,O,f,3928,1,3948.10000000149,447845.3999999985,7050,WL,A,13.0
3,31.35599994659424,learn,28644.00005340576,Thu Feb 20 2025 17:37:51 GMT-0600 (Central Standard Time),451943.5,A,fl,O,l,139,1,4098.10000000149,447845.3999999985,7050,WL,A,13.0
3,31.572999954223633,learn,28427.000045776367,Thu Feb 20 2025 17:37:51 GMT-0600 (Central Standard Time),452160.19999999925,A,flo,O,o,205,1,4314.800000000745,447845.3999999985,7050,WL,A,13.0
3,31.789999961853027,learn,28210.000038146973,Thu Feb 20 2025 17:37:51 GMT-0600 (Central Standard Time),452377.0,A,flow,O,w,196,1,4531.60000000149,447845.3999999985,7050,WL,A,13.0
3,31.889999866485596,learn,28110.000133514404,Thu Feb 20 2025 17:37:51 GMT-0600 (Central Standard Time),452476.69999999925,A,flowe,O,e,92,1,4631.300000000745,447845.3999999985,7050,WL,A,13.0
3,32.1729998588562,learn,27827.0001411438,Thu Feb 20 2025 17:37:51 GMT-0600 (Central Standard Time),452759.8999999985,A,flower,O,r,264,1,4914.5,447845.3999999985,7050,WL,A,13.0
3,32.4229998588562,learn,27577.0001411438,Thu Feb 20 2025 17:37:51 GMT-0600 (Central Standard Time),453009.80000000075,A,flowerenter,O,enter,230,1,5164.400000002235,447845.3999999985,7050,WL,A,13.0
3,34.83899998664856,learn,25161.00001335144,Thu Feb 20 2025 17:37:51 GMT-0600 (Central Standard Time),455426.30000000075,A,f,O,f,2395,1,2416.300000000745,453010.0,7050,WL,A,14.0
3,34.97199988365173,learn,25028.000116348267,Thu Feb 20 2025 17:37:51 GMT-0600 (Central Standard Time),455559.30000000075,A,fi,O,i,123,1,2549.300000000745,453010.0,7050,WL,A,14.0
3,35.22199988365173,learn,24778.000116348267,Thu Feb 20 2025 17:37:51 GMT-0600 (Central Standard Time),455809.30000000075,A,fin,O,n,238,1,2799.300000000745,453010.0,7050,WL,A,14.0
3,35.50499987602234,learn,24495.00012397766,Thu Feb 20 2025 17:37:51 GMT-0600 (Central Standard Time),456092.30000000075,A,fing,O,g,276,1,3082.300000000745,453010.0,7050,WL,A,14.0
3,35.65499997138977,learn,24345.00002861023,Thu Feb 20 2025 17:37:51 GMT-0600 (Central Standard Time),456242.3999999985,A,finge,O,e,130,1,3232.39999999851,453010.0,7050,WL,A,14.0
3,35.73899984359741,learn,24261.000156402588,Thu Feb 20 2025 17:37:51 GMT-0600 (Central Standard Time),456325.69999999925,A,finger,O,r,67,1,3315.699999999255,453010.0,7050,WL,A,14.0
3,35.92199993133545,learn,24078.00006866455,Thu Feb 20 2025 17:37:51 GMT-0600 (Central Standard Time),456509.09999999776,A,fingerenter,O,enter,168,1,3499.099999997765,453010.0,7050,WL,A,14.0
3,38.47199988365173,learn,21528.000116348267,Thu Feb 20 2025 17:37:51 GMT-0600 (Central Standard Time),459058.5,A,b,O,b,2544,1,2549.10000000149,456509.3999999985,7050,WL,A,15.0
3,38.63800001144409,learn,21361.99998855591,Thu Feb 20 2025 17:37:51 GMT-0600 (Central Standard Time),459224.8999999985,A,bu,O,u,147,1,2715.5,456509.3999999985,7050,WL,A,15.0
3,38.853999853134155,learn,21146.000146865845,Thu Feb 20 2025 17:37:51 GMT-0600 (Central Standard Time),459441.3999999985,A,but,O,t,196,1,2932.0,456509.3999999985,7050,WL,A,15.0
3,39.020999908447266,learn,20979.000091552734,Thu Feb 20 2025 17:37:51 GMT-0600 (Central Standard Time),459608.0,A,butt,O,t,156,1,3098.60000000149,456509.3999999985,7050,WL,A,15.0
3,39.187999963760376,learn,20812.000036239624,Thu Feb 20 2025 17:37:51 GMT-0600 (Central Standard Time),459774.59999999776,A,butto,O,o,157,1,3265.199999999255,456509.3999999985,7050,WL,A,15.0
3,39.53699994087219,learn,20463.000059127808,Thu Feb 20 2025 17:37:51 GMT-0600 (Central Standard Time),460124.5,A,button,O,n,335,1,3615.10000000149,456509.3999999985,7050,WL,A,15.0
3,40.23699998855591,learn,19763.00001144409,Thu Feb 20 2025 17:37:51 GMT-0600 (Central Standard Time),460824.30000000075,A,buttonenter,O,enter,689,1,4314.900000002235,456509.3999999985,7050,WL,A,15.0
4,1.3330001831054688,learn,58666.99981689453,Thu Feb 20 2025 17:37:51 GMT-0600 (Central Standard Time),528436.5999999978,A,b,O,b,1326,1,1332.7999999970198,527103.8000000007,7050,WL,A,1.0
4,1.6000001430511475,learn,58399.99985694885,Thu Feb 20 2025 17:37:51 GMT-0600 (Central Standard Time),528703.3000000007,A,bo,O,o,248,1,1599.5,527103.8000000007,7050,WL,A,1.0
4,1.75,learn,58250.0,Thu Feb 20 2025 17:37:51 GMT-0600 (Central Standard Time),528853.0,A,boo,O,o,142,1,1749.199999999255,527103.8000000007,7050,WL,A,1.0
4,1.9830000400543213,learn,58016.99995994568,Thu Feb 20 2025 17:37:51 GMT-0600 (Central Standard Time),529086.5999999978,A,book,O,k,224,1,1982.7999999970198,527103.8000000007,7050,WL,A,1.0
4,2.31600022315979,learn,57683.99977684021,Thu Feb 20 2025 17:37:51 GMT-0600 (Central Standard Time),529419.3999999985,A,bookenter,O,enter,327,1,2315.599999997765,527103.8000000007,7050,WL,A,1.0
4,3.183000087738037,learn,56816.99991226196,Thu Feb 20 2025 17:37:51 GMT-0600 (Central Standard Time),530286.0,A,f,O,f,858,1,866.4000000022352,529419.5999999978,7050,WL,A,2.0
4,3.366000175476074,learn,56633.999824523926,Thu Feb 20 2025 17:37:51 GMT-0600 (Central Standard Time),530469.1999999993,A,fl,O,l,175,1,1049.6000000014901,529419.5999999978,7050,WL,A,2.0
4,3.56600022315979,learn,56433.99977684021,Thu Feb 20 2025 17:37:51 GMT-0600 (Central Standard Time),530669.1999999993,A,flo,O,o,184,1,1249.6000000014901,529419.5999999978,7050,WL,A,2.0
4,3.7320001125335693,learn,56267.99988746643,Thu Feb 20 2025 17:37:51 GMT-0600 (Central Standard Time),530835.8000000007,A,flow,O,w,160,1,1416.2000000029802,529419.5999999978,7050,WL,A,2.0
4,3.8320000171661377,learn,56167.99998283386,Thu Feb 20 2025 17:37:51 GMT-0600 (Central Standard Time),530935.6999999993,A,flowe,O,e,82,1,1516.1000000014901,529419.5999999978,7050,WL,A,2.0
4,4.116000175476074,learn,55883.999824523926,Thu Feb 20 2025 17:37:51 GMT-0600 (Central Standard Time),531219.0,A,flower,O,r,262,1,1799.4000000022352,529419.5999999978,7050,WL,A,2.0
4,4.317000150680542,learn,55682.99984931946,Thu Feb 20 2025 17:37:51 GMT-0600 (Central Standard Time),531420.0,A,flowerenter,O,enter,194,1,2000.4000000022352,529419.5999999978,7050,WL,A,2.0
4,4.949000120162964,learn,55050.999879837036,Thu Feb 20 2025 17:37:51 GMT-0600 (Central Standard Time),532052.3000000007,A,g,O,g,625,1,632.0,531420.3000000007,7050,WL,A,3.0
4,5.14900016784668,learn,54850.99983215332,Thu Feb 20 2025 17:37:51 GMT-0600 (Central Standard Time),532252.0999999978,A,go,O,o,185,1,831.7999999970198,531420.3000000007,7050,WL,A,3.0
4,5.382000207901001,learn,54617.999792099,Thu Feb 20 2025 17:37:51 GMT-0600 (Central Standard Time),532485.3000000007,A,gol,O,l,217,1,1065.0,531420.3000000007,7050,WL,A,3.0
4,5.875,learn,54125.0,Thu Feb 20 2025 17:37:51 GMT-0600 (Central Standard Time),532977.8999999985,A,gold,O,d,341,1,1557.5999999977648,531420.3000000007,7050,WL,A,3.0
4,5.882000207901001,learn,54117.999792099,Thu Feb 20 2025 17:37:51 GMT-0600 (Central Standard Time),532984.8000000007,A,goldenter,O,enter,0,1,1564.5,531420.3000000007,7050,WL,A,3.0
4,6.565000057220459,learn,53434.99994277954,Thu Feb 20 2025 17:37:51 GMT-0600 (Central Standard Time),533668.0999999978,A,d,O,d,666,1,680.8999999985099,532987.1999999993,7050,WL,A,4.0
4,6.715000152587891,learn,53284.99984741211,Thu Feb 20 2025 17:37:51 GMT-0600 (Central Standard Time),533818.1999999993,A,du,O,u,137,1,831.0,532987.1999999993,7050,WL,A,4.0
4,6.898000001907349,learn,53101.99999809265,Thu Feb 20 2025 17:37:51 GMT-0600 (Central Standard Time),534001.3999999985,A,dus,O,s,171,1,1014.1999999992549,532987.1999999993,7050,WL,A,4.0
4,7.1650002002716064,learn,52834.99979972839,Thu Feb 20 2025 17:37:51 GMT-0600 (Central Standard Time),534268.0999999978,A,dust,O,t,260,1,1280.8999999985099,532987.1999999993,7050,WL,A,4.0
4,7.964000225067139,learn,52035.99977493286,Thu Feb 20 2025 17:37:51 GMT-0600 (Central Standard Time),535067.5999999978,A,dustenter,O,enter,793,1,2080.39999999851,532987.1999999993,7050,WL,A,4.0
4,8.88100004196167,learn,51118.99995803833,Thu Feb 20 2025 17:37:51 GMT-0600 (Central Standard Time),535983.8999999985,A,t,O,t,906,1,915.8999999985099,535068.0,7050,WL,A,5.0
4,8.997000217437744,learn,51002.999782562256,Thu Feb 20 2025 17:37:51 GMT-0600 (Central Standard Time),536100.5999999978,A,tr,O,r,101,1,1032.5999999977648,535068.0,7050,WL,A,5.0
4,9.347000122070312,learn,50652.99987792969,Thu Feb 20 2025 17:37:51 GMT-0600 (Central Standard Time),536450.8000000007,A,tra,O,a,336,1,1382.800000000745,535068.0,7050,WL,A,5.0
4,9.514000177383423,learn,50485.99982261658,Thu Feb 20 2025 17:37:51 GMT-0600 (Central Standard Time),536617.5999999978,A,trai,O,i,147,1,1549.5999999977648,535068.0,7050,WL,A,5.0
4,9.747000217437744,learn,50252.999782562256,Thu Feb 20 2025 17:37:51 GMT-0600 (Central Standard Time),536850.5999999978,A,train,O,n,228,1,1782.5999999977648,535068.0,7050,WL,A,5.0
4,10.047000169754028,learn,49952.99983024597,Thu Feb 20 2025 17:37:51 GMT-0600 (Central Standard Time),537150.3999999985,A,trainenter,O,enter,283,1,2082.39999999851,535068.0,7050,WL,A,5.0
4,10.264000177383423,learn,49735.99982261658,Thu Feb 20 2025 17:37:51 GMT-0600 (Central Standard Time),537367.1999999993,A,a,O,a,207,1,216.39999999850988,537150.8000000007,7050,WL,A,6.0
4,10.48200011253357,learn,49517.99988746643,Thu Feb 20 2025 17:37:51 GMT-0600 (Central Standard Time),537584.8999999985,A,ap,O,p,206,1,434.0999999977648,537150.8000000007,7050,WL,A,6.0
4,10.647000074386597,learn,49352.9999256134,Thu Feb 20 2025 17:37:51 GMT-0600 (Central Standard Time),537750.5,A,app,O,p,149,1,599.6999999992549,537150.8000000007,7050,WL,A,6.0
4,10.830000162124634,learn,49169.999837875366,Thu Feb 20 2025 17:37:51 GMT-0600 (Central Standard Time),537933.3000000007,A,appl,O,l,167,1,782.5,537150.8000000007,7050,WL,A,6.0
4,11.630000114440918,learn,48369.99988555908,Thu Feb 20 2025 17:37:51 GMT-0600 (Central Standard Time),538733.3000000007,A,apple,O,e,784,1,1582.5,537150.8000000007,7050,WL,A,6.0
4,12.546000003814697,learn,47453.9999961853,Thu Feb 20 2025 17:37:51 GMT-0600 (Central Standard Time),539649.5999999978,A,appleenter,O,enter,904,1,2498.7999999970198,537150.8000000007,7050,WL,A,6.0
4,13.713000059127808,learn,46286.99994087219,Thu Feb 20 2025 17:37:51 GMT-0600 (Central Standard Time),540815.8999999985,A,f,O,f,1156,1,1165.8999999985099,539650.0,7050,WL,A,7.0
4,13.86300015449524,learn,46136.99984550476,Thu Feb 20 2025 17:37:51 GMT-0600 (Central Standard Time),540966.0,A,fi,O,i,134,1,1316.0,539650.0,7050,WL,A,7.0
4,14.063000202178955,learn,45936.999797821045,Thu Feb 20 2025 17:37:51 GMT-0600 (Central Standard Time),541165.8999999985,A,fin,O,n,191,1,1515.8999999985099,539650.0,7050,WL,A,7.0
4,14.264000177383423,learn,45735.99982261658,Thu Feb 20 2025 17:37:51 GMT-0600 (Central Standard Time),541366.8999999985,A,fing,O,g,191,1,1716.8999999985099,539650.0,7050,WL,A,7.0
4,14.563000202178955,learn,45436.999797821045,Thu Feb 20 2025 17:37:51 GMT-0600 (Central Standard Time),541665.8999999985,A,finge,O,e,279,1,2015.8999999985099,539650.0,7050,WL,A,7.0
4,14.662000179290771,learn,45337.99982070923,Thu Feb 20 2025 17:37:51 GMT-0600 (Central Standard Time),541765.8000000007,A,finger,O,r,83,1,2115.800000000745,539650.0,7050,WL,A,7.0
4,14.862000226974487,learn,45137.99977302551,Thu Feb 20 2025 17:37:51 GMT-0600 (Central Standard Time),541965.5999999978,A,fingerenter,O,enter,192,1,2315.599999997765,539650.0,7050,WL,A,7.0
4,15.396000146865845,learn,44603.999853134155,Thu Feb 20 2025 17:37:51 GMT-0600 (Central Standard Time),542499.0999999978,A,h,O,h,512,1,533.1999999992549,541965.8999999985,7050,WL,A,8.0
4,15.562000036239624,learn,44437.999963760376,Thu Feb 20 2025 17:37:51 GMT-0600 (Central Standard Time),542665.5,A,ha,O,a,154,1,699.6000000014901,541965.8999999985,7050,WL,A,8.0
4,15.828999996185303,learn,44171.0000038147,Thu Feb 20 2025 17:37:51 GMT-0600 (Central Standard Time),542932.0999999978,A,har,O,r,252,1,966.1999999992549,541965.8999999985,7050,WL,A,8.0
4,16.112000226974487,learn,43887.99977302551,Thu Feb 20 2025 17:37:51 GMT-0600 (Central Standard Time),543215.3999999985,A,harp,O,p,265,1,1249.5,541965.8999999985,7050,WL,A,8.0
4,16.612000226974487,learn,43387.99977302551,Thu Feb 20 2025 17:37:51 GMT-0600 (Central Standard Time),543715.0999999978,A,harpenter,O,enter,494,1,1749.199999999255,541965.8999999985,7050,WL,A,8.0
4,17.228000164031982,learn,42771.99983596802,Thu Feb 20 2025 17:37:51 GMT-0600 (Central Standard Time),544331.3000000007,A,k,O,k,610,1,616.0,543715.3000000007,7050,WL,A,9.0
4,17.4280002117157,learn,42571.9997882843,Thu Feb 20 2025 17:37:51 GMT-0600 (Central Standard Time),544531.5,A,ke,O,e,186,1,816.1999999992549,543715.3000000007,7050,WL,A,9.0
4,17.795000076293945,learn,42204.999923706055,Thu Feb 20 2025 17:37:51 GMT-0600 (Central Standard Time),544898.3000000007,A,key,O,y,346,1,1183.0,543715.3000000007,7050,WL,A,9.0
4,17.962000131607056,learn,42037.999868392944,Thu Feb 20 2025 17:37:51 GMT-0600 (Central Standard Time),545064.8000000007,A,keyenter,O,enter,155,1,1349.5,543715.3000000007,7050,WL,A,9.0
4,18.57800006866455,learn,41421.99993133545,Thu Feb 20 2025 17:37:51 GMT-0600 (Central Standard Time),545681.0999999978,A,l,O,l,605,1,616.0,545065.0999999978,7050,WL,A,10.0
4,18.778000116348267,learn,41221.99988365173,Thu Feb 20 2025 17:37:51 GMT-0600 (Central Standard Time),545881.1999999993,A,lo,O,o,188,1,816.1000000014901,545065.0999999978,7050,WL,A,10.0
4,19.011000156402588,learn,40988.99984359741,Thu Feb 20 2025 17:37:51 GMT-0600 (Central Standard Time),546114.5999999978,A,log,O,g,212,1,1049.5,545065.0999999978,7050,WL,A,10.0
4,19.6780002117157,learn,40321.9997882843,Thu Feb 20 2025 17:37:51 GMT-0600 (Central Standard Time),546780.8000000007,A,logenter,O,enter,659,1,1715.7000000029802,545065.0999999978,7050,WL,A,10.0
4,22.04300022125244,learn,37956.99977874756,Thu Feb 20 2025 17:37:51 GMT-0600 (Central Standard Time),549146.8000000007,A,h,O,h,2361,1,2365.60000000149,546781.1999999993,7050,WL,A,11.0
4,22.24400019645691,learn,37755.99980354309,Thu Feb 20 2025 17:37:51 GMT-0600 (Central Standard Time),549346.8999999985,A,ha,O,a,179,1,2565.699999999255,546781.1999999993,7050,WL,A,11.0
4,22.527000188827515,learn,37472.999811172485,Thu Feb 20 2025 17:37:51 GMT-0600 (Central Standard Time),549630.0,A,har,O,r,275,1,2848.800000000745,546781.1999999993,7050,WL,A,11.0
4,22.89300012588501,learn,37106.99987411499,Thu Feb 20 2025 17:37:51 GMT-0600 (Central Standard Time),549996.3999999985,A,harp,O,p,359,1,3215.199999999255,546781.1999999993,7050,WL,A,11.0
4,23.743000030517578,learn,36256.99996948242,Thu Feb 20 2025 17:37:51 GMT-0600 (Central Standard Time),550846.1999999993,A,harpenter,O,enter,833,1,4065.0,546781.1999999993,7050,WL,A,11.0
4,24.093000173568726,learn,35906.999826431274,Thu Feb 20 2025 17:37:51 GMT-0600 (Central Standard Time),551196.0999999978,A,r,O,r,336,1,349.5999999977648,550846.5,7050,WL,A,12.0
4,24.30900001525879,learn,35690.99998474121,Thu Feb 20 2025 17:37:51 GMT-0600 (Central Standard Time),551412.6999999993,A,ra,O,a,201,1,566.1999999992549,550846.5,7050,WL,A,12.0
4,24.576000213623047,learn,35423.99978637695,Thu Feb 20 2025 17:37:51 GMT-0600 (Central Standard Time),551679.3999999985,A,rat,O,t,249,1,832.8999999985099,550846.5,7050,WL,A,12.0
4,24.743000030517578,learn,35256.99996948242,Thu Feb 20 2025 17:37:51 GMT-0600 (Central Standard Time),551845.8999999985,A,ratt,O,t,158,1,999.3999999985099,550846.5,7050,WL,A,12.0
4,24.89300012588501,learn,35106.99987411499,Thu Feb 20 2025 17:37:51 GMT-0600 (Central Standard Time),551995.8000000007,A,rattl,O,l,135,1,1149.300000000745,550846.5,7050,WL,A,12.0
4,25.093000173568726,learn,34906.999826431274,Thu Feb 20 2025 17:37:51 GMT-0600 (Central Standard Time),552195.8000000007,A,rattle,O,e,193,1,1349.300000000745,550846.5,7050,WL,A,12.0
4,25.326000213623047,learn,34673.99978637695,Thu Feb 20 2025 17:37:51 GMT-0600 (Central Standard Time),552429.0999999978,A,rattleenter,O,enter,217,1,1582.5999999977648,550846.5,7050,WL,A,12.0
4,35.873000144958496,learn,24126.999855041504,Thu Feb 20 2025 17:37:51 GMT-0600 (Central Standard Time),562975.8000000007,A,t,O,t,10536,1,10546.300000000745,552429.5,7050,WL,A,13.0
4,36.00600004196167,learn,23993.99995803833,Thu Feb 20 2025 17:37:51 GMT-0600 (Central Standard Time),563109.0,A,tr,O,r,117,1,10679.5,552429.5,7050,WL,A,13.0
4,36.30600023269653,learn,23693.999767303467,Thu Feb 20 2025 17:37:51 GMT-0600 (Central Standard Time),563408.8999999985,A,tra,O,a,288,1,10979.39999999851,552429.5,7050,WL,A,13.0
4,36.48900008201599,learn,23510.99991798401,Thu Feb 20 2025 17:37:51 GMT-0600 (Central Standard Time),563592.1999999993,A,trai,O,i,165,1,11162.699999999255,552429.5,7050,WL,A,13.0
4,36.68900012969971,learn,23310.999870300293,Thu Feb 20 2025 17:37:51 GMT-0600 (Central Standard Time),563792.1999999993,A,train,O,n,189,1,11362.699999999255,552429.5,7050,WL,A,13.0
4,37.205000162124634,learn,22794.999837875366,Thu Feb 20 2025 17:37:51 GMT-0600 (Central Standard Time),564308.5999999978,A,trainenter,O,enter,501,1,11879.099999997765,552429.5,7050,WL,A,13.0
4,46.7020001411438,learn,13297.999858856201,Thu Feb 20 2025 17:37:51 GMT-0600 (Central Standard Time),573805.5999999978,A,enter,O,enter,9481,1,9496.699999999255,564308.8999999985,7050,WL,A,14.0
4,47.46900010108948,learn,12530.999898910522,Thu Feb 20 2025 17:37:51 GMT-0600 (Central Standard Time),574572.0999999978,A,enter,O,enter,752,1,766.1999999992549,573805.8999999985,7050,WL,A,15.0
5,0.6160001754760742,learn,60000.0,Thu Feb 20 2025 17:37:51 GMT-0600 (Central Standard Time),640834.8000000007,A,b,O,b,603,1,616.1000000014901,640218.6999999993,7050,WL,A,1.0
5,0.8000001907348633,learn,60000.0,Thu Feb 20 2025 17:37:51 GMT-0600 (Central Standard Time),641018.3000000007,A,bo,O,o,162,1,799.6000000014901,640218.6999999993,7050,WL,A,1.0
5,0.9660000801086426,learn,60000.0,Thu Feb 20 2025 17:37:51 GMT-0600 (Central Standard Time),641184.3999999985,A,boo,O,o,147,1,965.6999999992549,640218.6999999993,7050,WL,A,1.0
5,1.1490001678466797,learn,60000.0,Thu Feb 20 2025 17:37:51 GMT-0600 (Central Standard Time),641367.8000000007,A,book,O,k,173,1,1149.1000000014901,640218.6999999993,7050,WL,A,1.0
5,1.4490001201629639,learn,60000.0,Thu Feb 20 2025 17:37:51 GMT-0600 (Central Standard Time),641667.8000000007,A,bookenter,O,enter,294,1,1449.1000000014901,640218.6999999993,7050,WL,A,1.0
5,2.2660000324249268,learn,60000.0,Thu Feb 20 2025 17:37:51 GMT-0600 (Central Standard Time),642484.3999999985,A,f,O,f,801,1,816.1999999992549,641668.1999999993,7050,WL,A,2.0
5,2.449000120162964,learn,60000.0,Thu Feb 20 2025 17:37:51 GMT-0600 (Central Standard Time),642667.5,A,fl,O,l,169,1,999.3000000007451,641668.1999999993,7050,WL,A,2.0
5,2.633000135421753,learn,60000.0,Thu Feb 20 2025 17:37:51 GMT-0600 (Central Standard Time),642850.8999999985,A,flo,O,o,179,1,1182.699999999255,641668.1999999993,7050,WL,A,2.0
5,2.8490002155303955,learn,60000.0,Thu Feb 20 2025 17:37:51 GMT-0600 (Central Standard Time),643067.0999999978,A,flow,O,w,210,1,1398.8999999985099,641668.1999999993,7050,WL,A,2.0
5,2.932000160217285,learn,60000.0,Thu Feb 20 2025 17:37:51 GMT-0600 (Central Standard Time),643150.8000000007,A,flowe,O,e,74,1,1482.6000000014901,641668.1999999993,7050,WL,A,2.0
5,3.2320001125335693,learn,60000.0,Thu Feb 20 2025 17:37:51 GMT-0600 (Central Standard Time),643450.5999999978,A,flower,O,r,279,1,1782.3999999985099,641668.1999999993,7050,WL,A,2.0
5,3.5320000648498535,learn,60000.0,Thu Feb 20 2025 17:37:51 GMT-0600 (Central Standard Time),643750.5999999978,A,flowerenter,O,enter,282,1,2082.39999999851,641668.1999999993,7050,WL,A,2.0
5,4.432000160217285,learn,60000.0,Thu Feb 20 2025 17:37:51 GMT-0600 (Central Standard Time),644650.3000000007,A,g,O,g,887,1,899.4000000022352,643750.8999999985,7050,WL,A,3.0
5,4.615000009536743,learn,60000.0,Thu Feb 20 2025 17:37:51 GMT-0600 (Central Standard Time),644833.5,A,go,O,o,172,1,1082.6000000014901,643750.8999999985,7050,WL,A,3.0
5,4.866000175476074,learn,60000.0,Thu Feb 20 2025 17:37:51 GMT-0600 (Central Standard Time),645084.5,A,gol,O,l,244,1,1333.6000000014901,643750.8999999985,7050,WL,A,3.0
5,5.232000112533569,learn,60000.0,Thu Feb 20 2025 17:37:51 GMT-0600 (Central Standard Time),645450.0,A,gold,O,d,345,1,1699.1000000014901,643750.8999999985,7050,WL,A,3.0
5,5.432000160217285,learn,60000.0,Thu Feb 20 2025 17:37:51 GMT-0600 (Central Standard Time),645650.0,A,goldenter,O,enter,188,1,1899.1000000014901,643750.8999999985,7050,WL,A,3.0
5,7.38100004196167,learn,60000.0,Thu Feb 20 2025 17:37:51 GMT-0600 (Central Standard Time),647599.3000000007,A,d,O,d,1940,1,1949.0,645650.3000000007,7050,WL,A,4.0
5,7.547000169754028,learn,60000.0,Thu Feb 20 2025 17:37:51 GMT-0600 (Central Standard Time),647765.6999999993,A,du,O,u,150,1,2115.39999999851,645650.3000000007,7050,WL,A,4.0
5,7.71399998664856,learn,60000.0,Thu Feb 20 2025 17:37:51 GMT-0600 (Central Standard Time),647932.3999999985,A,dus,O,s,160,1,2282.099999997765,645650.3000000007,7050,WL,A,4.0
5,7.96399998664856,learn,60000.0,Thu Feb 20 2025 17:37:51 GMT-0600 (Central Standard Time),648182.5999999978,A,dust,O,t,233,1,2532.2999999970198,645650.3000000007,7050,WL,A,4.0
5,8.147000074386597,learn,60000.0,Thu Feb 20 2025 17:37:51 GMT-0600 (Central Standard Time),648365.6999999993,A,dustenter,O,enter,167,1,2715.39999999851,645650.3000000007,7050,WL,A,4.0
5,8.897000074386597,learn,60000.0,Thu Feb 20 2025 17:37:51 GMT-0600 (Central Standard Time),649115.3000000007,A,m,O,m,736,1,749.3000000007451,648366.0,7050,WL,A,5.0
5,9.031000137329102,learn,60000.0,Thu Feb 20 2025 17:37:51 GMT-0600 (Central Standard Time),649249.0,A,me,O,e,115,1,883.0,648366.0,7050,WL,A,5.0
5,9.297000169754028,learn,60000.0,Thu Feb 20 2025 17:37:51 GMT-0600 (Central Standard Time),649515.3999999985,A,mea,O,a,252,1,1149.3999999985099,648366.0,7050,WL,A,5.0
5,9.480000019073486,learn,60000.0,Thu Feb 20 2025 17:37:51 GMT-0600 (Central Standard Time),649698.5999999978,A,mead,O,d,178,1,1332.5999999977648,648366.0,7050,WL,A,5.0
5,9.614000082015991,learn,60000.0,Thu Feb 20 2025 17:37:51 GMT-0600 (Central Standard Time),649832.0,A,meado,O,o,115,1,1466.0,648366.0,7050,WL,A,5.0
5,9.86300015449524,learn,60000.0,Thu Feb 20 2025 17:37:51 GMT-0600 (Central Standard Time),650082.0,A,meadow,O,w,229,1,1716.0,648366.0,7050,WL,A,5.0
5,10.013000011444092,learn,60000.0,Thu Feb 20 2025 17:37:51 GMT-0600 (Central Standard Time),650232.0,A,meadowenter,O,enter,132,1,1866.0,648366.0,7050,WL,A,5.0
5,10.468000173568726,learn,60000.0,Thu Feb 20 2025 17:37:51 GMT-0600 (Central Standard Time),650686.5999999978,A,h,O,h,449,1,454.29999999701977,650232.3000000007,7050,WL,A,6.0
5,10.546000003814697,learn,60000.0,Thu Feb 20 2025 17:37:51 GMT-0600 (Central Standard Time),650764.6999999993,A,ha,O,a,64,1,532.3999999985099,650232.3000000007,7050,WL,A,6.0
5,10.830000162124634,learn,60000.0,Thu Feb 20 2025 17:37:51 GMT-0600 (Central Standard Time),651048.1999999993,A,har,O,r,265,1,815.8999999985099,650232.3000000007,7050,WL,A,6.0
5,11.28000020980835,learn,60000.0,Thu Feb 20 2025 17:37:51 GMT-0600 (Central Standard Time),651498.1999999993,A,harp,O,p,429,1,1265.8999999985099,650232.3000000007,7050,WL,A,6.0
5,11.546000003814697,learn,60000.0,Thu Feb 20 2025 17:37:51 GMT-0600 (Central Standard Time),651764.8000000007,A,harpenter,O,enter,259,1,1532.5,650232.3000000007,7050,WL,A,6.0
5,12.946000099182129,learn,60000.0,Thu Feb 20 2025 17:37:51 GMT-0600 (Central Standard Time),653164.1999999993,A,c,O,c,1393,1,1399.0,651765.1999999993,7050,WL,A,7.0
5,13.078999996185303,learn,60000.0,Thu Feb 20 2025 17:37:51 GMT-0600 (Central Standard Time),653297.5,A,ch,O,h,121,1,1532.300000000745,651765.1999999993,7050,WL,A,7.0
5,13.361999988555908,learn,60000.0,Thu Feb 20 2025 17:37:51 GMT-0600 (Central Standard Time),653580.8999999985,A,chi,O,i,276,1,1815.699999999255,651765.1999999993,7050,WL,A,7.0
5,13.76200008392334,learn,60000.0,Thu Feb 20 2025 17:37:51 GMT-0600 (Central Standard Time),653980.5999999978,A,chim,O,m,393,1,2215.39999999851,651765.1999999993,7050,WL,A,7.0
5,13.979000091552734,learn,60000.0,Thu Feb 20 2025 17:37:51 GMT-0600 (Central Standard Time),654197.3999999985,A,chimn,O,n,209,1,2432.199999999255,651765.1999999993,7050,WL,A,7.0
5,14.111999988555908,learn,60000.0,Thu Feb 20 2025 17:37:51 GMT-0600 (Central Standard Time),654330.8000000007,A,chimne,O,e,128,1,2565.60000000149,651765.1999999993,7050,WL,A,7.0
5,14.295000076293945,learn,60000.0,Thu Feb 20 2025 17:37:51 GMT-0600 (Central Standard Time),654513.6999999993,A,chimney,O,y,163,1,2748.5,651765.1999999993,7050,WL,A,7.0
5,14.712000131607056,learn,60000.0,Thu Feb 20 2025 17:37:51 GMT-0600 (Central Standard Time),654930.3999999985,A,chimneyenter,O,enter,412,1,3165.199999999255,651765.1999999993,7050,WL,A,7.0
5,16.311000108718872,learn,60000.0,Thu Feb 20 2025 17:37:51 GMT-0600 (Central Standard Time),656529.5,A,r,O,r,1579,1,1598.800000000745,654930.6999999993,7050,WL,A,8.0
5,16.528000116348267,learn,60000.0,Thu Feb 20 2025 17:37:51 GMT-0600 (Central Standard Time),656746.6999999993,A,ra,O,a,211,1,1816.0,654930.6999999993,7050,WL,A,8.0
5,16.795000076293945,learn,60000.0,Thu Feb 20 2025 17:37:51 GMT-0600 (Central Standard Time),657013.0999999978,A,rat,O,t,259,1,2082.39999999851,654930.6999999993,7050,WL,A,8.0
5,16.978000164031982,learn,60000.0,Thu Feb 20 2025 17:37:51 GMT-0600 (Central Standard Time),657196.5999999978,A,ratt,O,t,168,1,2265.89999999851,654930.6999999993,7050,WL,A,8.0
5,17.14400005340576,learn,60000.0,Thu Feb 20 2025 17:37:51 GMT-0600 (Central Standard Time),657362.8999999985,A,rattl,O,l,161,1,2432.199999999255,654930.6999999993,7050,WL,A,8.0
5,17.361000061035156,learn,60000.0,Thu Feb 20 2025 17:37:51 GMT-0600 (Central Standard Time),657579.3999999985,A,rattle,O,e,203,1,2648.699999999255,654930.6999999993,7050,WL,A,8.0
5,17.6780002117157,learn,60000.0,Thu Feb 20 2025 17:37:51 GMT-0600 (Central Standard Time),657896.5,A,rattleenter,O,enter,305,1,2965.800000000745,654930.6999999993,7050,WL,A,8.0
5,18.694000005722046,learn,60000.0,Thu Feb 20 2025 17:37:51 GMT-0600 (Central Standard Time),658912.3999999985,A,b,O,b,997,1,1015.6999999992549,657896.6999999993,7050,WL,A,9.0
5,18.877000093460083,learn,60000.0,Thu Feb 20 2025 17:37:51 GMT-0600 (Central Standard Time),659095.6999999993,A,bo,O,o,173,1,1199.0,657896.6999999993,7050,WL,A,9.0
5,19.061000108718872,learn,60000.0,Thu Feb 20 2025 17:37:51 GMT-0600 (Central Standard Time),659279.0,A,boo,O,o,166,1,1382.300000000745,657896.6999999993,7050,WL,A,9.0
5,19.259999990463257,learn,60000.0,Thu Feb 20 2025 17:37:51 GMT-0600 (Central Standard Time),659478.8999999985,A,book,O,k,182,1,1582.199999999255,657896.6999999993,7050,WL,A,9.0
5,19.460000038146973,learn,60000.0,Thu Feb 20 2025 17:37:51 GMT-0600 (Central Standard Time),659678.8999999985,A,bookenter,O,enter,191,1,1782.199999999255,657896.6999999993,7050,WL,A,9.0
5,19.794000148773193,learn,60000.0,Thu Feb 20 2025 17:37:51 GMT-0600 (Central Standard Time),660012.0999999978,A,t,O,t,326,1,332.5999999977648,659679.5,7050,WL,A,10.0
5,19.89400005340576,learn,60000.0,Thu Feb 20 2025 17:37:51 GMT-0600 (Central Standard Time),660112.0999999978,A,tr,O,r,89,1,432.5999999977648,659679.5,7050,WL,A,10.0
5,20.22699999809265,learn,60000.0,Thu Feb 20 2025 17:37:51 GMT-0600 (Central Standard Time),660445.3999999985,A,tra,O,a,318,1,765.8999999985099,659679.5,7050,WL,A,10.0
5,20.41000008583069,learn,60000.0,Thu Feb 20 2025 17:37:51 GMT-0600 (Central Standard Time),660628.5,A,trai,O,i,168,1,949.0,659679.5,7050,WL,A,10.0
5,20.677000045776367,learn,60000.0,Thu Feb 20 2025 17:37:51 GMT-0600 (Central Standard Time),660895.1999999993,A,train,O,n,257,1,1215.699999999255,659679.5,7050,WL,A,10.0
5,21.443000078201294,learn,60000.0,Thu Feb 20 2025 17:37:51 GMT-0600 (Central Standard Time),661661.8000000007,A,trainenter,O,enter,750,1,1982.300000000745,659679.5,7050,WL,A,10.0
5,24.725000143051147,learn,60000.0,Thu Feb 20 2025 17:37:51 GMT-0600 (Central Standard Time),664943.8999999985,A,k,O,k,3271,1,3281.800000000745,661662.0999999978,7050,WL,A,11.0
5,24.925000190734863,learn,60000.0,Thu Feb 20 2025 17:37:51 GMT-0600 (Central Standard Time),665143.8000000007,A,ke,O,e,189,1,3481.7000000029802,661662.0999999978,7050,WL,A,11.0
5,25.125,learn,60000.0,Thu Feb 20 2025 17:37:51 GMT-0600 (Central Standard Time),665343.8000000007,A,keu,O,u,190,1,3681.7000000029802,661662.0999999978,7050,WL,A,11.0
5,25.592000007629395,learn,60000.0,Thu Feb 20 2025 17:37:51 GMT-0600 (Central Standard Time),665810.3999999985,A,ke,O,backspace,454,1,4148.300000000745,661662.0999999978,7050,WL,A,11.0
5,25.808000087738037,learn,60000.0,Thu Feb 20 2025 17:37:51 GMT-0600 (Central Standard Time),666026.6999999993,A,key,O,y,211,1,4364.60000000149,661662.0999999978,7050,WL,A,11.0
5,26.258000135421753,learn,60000.0,Thu Feb 20 2025 17:37:51 GMT-0600 (Central Standard Time),666476.8999999985,A,keyenter,O,enter,443,1,4814.800000000745,661662.0999999978,7050,WL,A,11.0
5,26.641000032424927,learn,60000.0,Thu Feb 20 2025 17:37:51 GMT-0600 (Central Standard Time),666859.8999999985,A,l,O,l,369,1,382.69999999925494,666477.1999999993,7050,WL,A,12.0
5,26.825000047683716,learn,60000.0,Thu Feb 20 2025 17:37:51 GMT-0600 (Central Standard Time),667043.1999999993,A,lo,O,o,170,1,566.0,666477.1999999993,7050,WL,A,12.0
5,27.02500009536743,learn,60000.0,Thu Feb 20 2025 17:37:51 GMT-0600 (Central Standard Time),667243.3999999985,A,log,O,g,186,1,766.1999999992549,666477.1999999993,7050,WL,A,12.0
5,27.591000080108643,learn,60000.0,Thu Feb 20 2025 17:37:51 GMT-0600 (Central Standard Time),667809.8000000007,A,logenter,O,enter,554,1,1332.6000000014901,666477.1999999993,7050,WL,A,12.0
5,31.69000005722046,learn,60000.0,Thu Feb 20 2025 17:37:51 GMT-0600 (Central Standard Time),671908.5,A,r,O,r,4092,1,4098.400000002235,667810.0999999978,7050,WL,A,13.0
5,31.956000089645386,learn,60000.0,Thu Feb 20 2025 17:37:51 GMT-0600 (Central Standard Time),672175.0,A,ra,O,a,257,1,4364.900000002235,667810.0999999978,7050,WL,A,13.0
5,32.27300000190735,learn,60000.0,Thu Feb 20 2025 17:37:51 GMT-0600 (Central Standard Time),672491.3000000007,A,rat,O,t,310,1,4681.20000000298,667810.0999999978,7050,WL,A,13.0
5,32.456000089645386,learn,60000.0,Thu Feb 20 2025 17:37:51 GMT-0600 (Central Standard Time),672674.6999999993,A,ratt,O,t,170,1,4864.60000000149,667810.0999999978,7050,WL,A,13.0
5,32.6560001373291,learn,60000.0,Thu Feb 20 2025 17:37:51 GMT-0600 (Central Standard Time),672874.6999999993,A,rattl,O,l,187,1,5064.60000000149,667810.0999999978,7050,WL,A,13.0
5,32.873000144958496,learn,60000.0,Thu Feb 20 2025 17:37:51 GMT-0600 (Central Standard Time),673091.5,A,rattle,O,e,203,1,5281.400000002235,667810.0999999978,7050,WL,A,13.0
5,33.140000104904175,learn,60000.0,Thu Feb 20 2025 17:37:51 GMT-0600 (Central Standard Time),673358.0999999978,A,rattleenter,O,enter,259,1,5548.0,667810.0999999978,7050,WL,A,13.0
5,33.95100021362305,learn,60000.0,Thu Feb 20 2025 17:37:51 GMT-0600 (Central Standard Time),674169.8000000007,A,f,O,f,807,1,811.4000000022352,673358.3999999985,7050,WL,A,14.0
5,34.00600004196167,learn,60000.0,Thu Feb 20 2025 17:37:51 GMT-0600 (Central Standard Time),674224.0999999978,A,fi,O,i,45,1,865.6999999992549,673358.3999999985,7050,WL,A,14.0
5,34.2720000743866,learn,60000.0,Thu Feb 20 2025 17:37:51 GMT-0600 (Central Standard Time),674490.8999999985,A,fin,O,n,251,1,1132.5,673358.3999999985,7050,WL,A,14.0
5,34.372000217437744,learn,60000.0,Thu Feb 20 2025 17:37:51 GMT-0600 (Central Standard Time),674590.8999999985,A,fing,O,g,90,1,1232.5,673358.3999999985,7050,WL,A,14.0
5,34.57200002670288,learn,60000.0,Thu Feb 20 2025 17:37:51 GMT-0600 (Central Standard Time),674790.8000000007,A,finge,O,e,190,1,1432.4000000022352,673358.3999999985,7050,WL,A,14.0
5,34.67200016975403,learn,60000.0,Thu Feb 20 2025 17:37:51 GMT-0600 (Central Standard Time),674890.8000000007,A,finger,O,r,95,1,1532.4000000022352,673358.3999999985,7050,WL,A,14.0
5,34.872000217437744,learn,60000.0,Thu Feb 20 2025 17:37:51 GMT-0600 (Central Standard Time),675090.6999999993,A,fingerenter,O,enter,195,1,1732.300000000745,673358.3999999985,7050,WL,A,14.0
5,38.80400013923645,learn,60000.0,Thu Feb 20 2025 17:37:51 GMT-0600 (Central Standard Time),679022.8999999985,A,b,O,b,3923,1,3932.0,675090.8999999985,7050,WL,A,15.0
5,38.97100019454956,learn,60000.0,Thu Feb 20 2025 17:37:51 GMT-0600 (Central Standard Time),679189.3000000007,A,bo,O,o,159,1,4098.400000002235,675090.8999999985,7050,WL,A,15.0
5,39.1710000038147,learn,60000.0,Thu Feb 20 2025 17:37:51 GMT-0600 (Central Standard Time),679389.3999999985,A,boo,O,o,184,1,4298.5,675090.8999999985,7050,WL,A,15.0
5,39.4539999961853,learn,60000.0,Thu Feb 20 2025 17:37:51 GMT-0600 (Central Standard Time),679672.5,A,book,O,k,264,1,4581.60000000149,675090.8999999985,7050,WL,A,15.0
5,39.9210000038147,learn,60000.0,Thu Feb 20 2025 17:37:51 GMT-0600 (Central Standard Time),680139.3000000007,A,bookenter,O,enter,453,1,5048.400000002235,675090.8999999985,7050,WL,A,15.0
6,1.4170000553131104,distr,58582.99994468689,Thu Feb 20 2025 17:37:51 GMT-0600 (Central Standard Time),747884.6999999993,B,b,O,b,1402,1,1416.3999999985099,746468.3000000007,7050,WL,A,1.0
6,1.8340001106262207,distr,58165.99988937378,Thu Feb 20 2025 17:37:51 GMT-0600 (Central Standard Time),748301.1999999993,B,bo,O,o,400,1,1832.8999999985099,746468.3000000007,7050,WL,A,1.0
6,2.0,distr,58000.0,Thu Feb 20 2025 17:37:51 GMT-0600 (Central Standard Time),748467.8000000007,B,boo,O,o,160,1,1999.5,746468.3000000007,7050,WL,A,1.0
6,2.299999952316284,distr,57700.000047683716,Thu Feb 20 2025 17:37:51 GMT-0600 (Central Standard Time),748767.6999999993,B,book,O,k,282,1,2299.39999999851,746468.3000000007,7050,WL,A,1.0
6,2.6510000228881836,distr,57348.99997711182,Thu Feb 20 2025 17:37:51 GMT-0600 (Central Standard Time),749118.8000000007,B,bookenter,O,enter,334,1,2650.5,746468.3000000007,7050,WL,A,1.0
6,3.049999952316284,distr,56950.000047683716,Thu Feb 20 2025 17:37:51 GMT-0600 (Central Standard Time),749517.5,B,c,O,c,391,1,398.4000000022352,749119.0999999978,7050,WL,A,2.0
6,3.1670000553131104,distr,56832.99994468689,Thu Feb 20 2025 17:37:51 GMT-0600 (Central Standard Time),749634.3000000007,B,co,O,o,105,1,515.2000000029802,749119.0999999978,7050,WL,A,2.0
6,3.4660000801086426,distr,56533.99991989136,Thu Feb 20 2025 17:37:51 GMT-0600 (Central Standard Time),749934.0,B,cou,O,u,284,1,814.9000000022352,749119.0999999978,7050,WL,A,2.0
6,3.7660000324249268,distr,56233.99996757507,Thu Feb 20 2025 17:37:51 GMT-0600 (Central Standard Time),750233.8000000007,B,coun,O,n,279,1,1114.7000000029802,749119.0999999978,7050,WL,A,2.0
6,3.9160001277923584,distr,56083.99987220764,Thu Feb 20 2025 17:37:51 GMT-0600 (Central Standard Time),750383.8000000007,B,count,O,t,140,1,1264.7000000029802,749119.0999999978,7050,WL,A,2.0
6,4.134000062942505,distr,55865.999937057495,Thu Feb 20 2025 17:37:51 GMT-0600 (Central Standard Time),750601.8000000007,B,county,O,y,206,1,1482.7000000029802,749119.0999999978,7050,WL,A,2.0
6,4.598999977111816,distr,55401.00002288818,Thu Feb 20 2025 17:37:51 GMT-0600 (Central Standard Time),751066.8000000007,B,countyenter,O,enter,460,1,1947.7000000029802,749119.0999999978,7050,WL,A,2.0
6,5.016000032424927,distr,54983.99996757507,Thu Feb 20 2025 17:37:51 GMT-0600 (Central Standard Time),751483.5,B,j,O,j,403,1,416.30000000074506,751067.1999999993,7050,WL,A,3.0
6,5.232000112533569,distr,54767.99988746643,Thu Feb 20 2025 17:37:51 GMT-0600 (Central Standard Time),751700.0999999978,B,ju,O,u,202,1,632.8999999985099,751067.1999999993,7050,WL,A,3.0
6,5.999000072479248,distr,54000.99992752075,Thu Feb 20 2025 17:37:51 GMT-0600 (Central Standard Time),752466.5,B,jud,O,d,746,1,1399.300000000745,751067.1999999993,7050,WL,A,3.0
6,6.131999969482422,distr,53868.00003051758,Thu Feb 20 2025 17:37:51 GMT-0600 (Central Standard Time),752599.8000000007,B,judg,O,g,115,1,1532.6000000014901,751067.1999999993,7050,WL,A,3.0
6,6.398999929428101,distr,53601.0000705719,Thu Feb 20 2025 17:37:51 GMT-0600 (Central Standard Time),752866.3999999985,B,judge,O,e,253,1,1799.199999999255,751067.1999999993,7050,WL,A,3.0
6,6.732000112533569,distr,53267.99988746643,Thu Feb 20 2025 17:37:51 GMT-0600 (Central Standard Time),753199.5999999978,B,judgeenter,O,enter,315,1,2132.39999999851,751067.1999999993,7050,WL,A,3.0
6,9.230999946594238,distr,50769.00005340576,Thu Feb 20 2025 17:37:51 GMT-0600 (Central Standard Time),755698.8000000007,B,c,O,c,2486,1,2498.800000000745,753200.0,7050,WL,A,4.0
6,9.38100004196167,distr,50618.99995803833,Thu Feb 20 2025 17:37:51 GMT-0600 (Central Standard Time),755848.8000000007,B,ch,O,h,131,1,2648.800000000745,753200.0,7050,WL,A,4.0
6,9.598000049591064,distr,50401.999950408936,Thu Feb 20 2025 17:37:51 GMT-0600 (Central Standard Time),756065.5999999978,B,cha,O,a,205,1,2865.599999997765,753200.0,7050,WL,A,4.0
6,9.864000082015991,distr,50135.99991798401,Thu Feb 20 2025 17:37:51 GMT-0600 (Central Standard Time),756332.0999999978,B,chai,O,i,253,1,3132.099999997765,753200.0,7050,WL,A,4.0
6,10.647000074386597,distr,49352.9999256134,Thu Feb 20 2025 17:37:51 GMT-0600 (Central Standard Time),757115.0,B,chair,O,r,778,1,3915.0,753200.0,7050,WL,A,4.0
6,11.246999979019165,distr,48753.000020980835,Thu Feb 20 2025 17:37:51 GMT-0600 (Central Standard Time),757714.8000000007,B,chairenter,O,enter,579,1,4514.800000000745,753200.0,7050,WL,A,4.0
6,21.97699999809265,distr,38023.00000190735,Thu Feb 20 2025 17:37:51 GMT-0600 (Central Standard Time),768444.6999999993,B,f,O,f,10715,1,10729.60000000149,757715.0999999978,7050,WL,A,5.0
6,22.24399995803833,distr,37756.00004196167,Thu Feb 20 2025 17:37:51 GMT-0600 (Central Standard Time),768711.6999999993,B,fo,O,o,246,1,10996.60000000149,757715.0999999978,7050,WL,A,5.0
6,22.41100001335144,distr,37588.99998664856,Thu Feb 20 2025 17:37:51 GMT-0600 (Central Standard Time),768878.1999999993,B,foo,O,o,159,1,11163.10000000149,757715.0999999978,7050,WL,A,5.0
6,22.594000101089478,distr,37405.99989891052,Thu Feb 20 2025 17:37:51 GMT-0600 (Central Standard Time),769061.5,B,food,O,d,175,1,11346.400000002235,757715.0999999978,7050,WL,A,5.0
6,22.877000093460083,distr,37122.99990653992,Thu Feb 20 2025 17:37:51 GMT-0600 (Central Standard Time),769344.5999999978,B,foodenter,O,enter,264,1,11629.5,757715.0999999978,7050,WL,A,5.0
6,29.407999992370605,distr,30592.000007629395,Thu Feb 20 2025 17:37:51 GMT-0600 (Central Standard Time),775875.8999999985,B,d,O,d,6517,1,6531.0,769344.8999999985,7050,WL,A,6.0
6,29.591000080108643,distr,30408.999919891357,Thu Feb 20 2025 17:37:51 GMT-0600 (Central Standard Time),776059.0,B,da,O,a,177,1,6714.10000000149,769344.8999999985,7050,WL,A,6.0
6,29.926000118255615,distr,30073.999881744385,Thu Feb 20 2025 17:37:51 GMT-0600 (Central Standard Time),776393.6999999993,B,daw,O,w,314,1,7048.800000000745,769344.8999999985,7050,WL,A,6.0
6,30.091000080108643,distr,29908.999919891357,Thu Feb 20 2025 17:37:51 GMT-0600 (Central Standard Time),776559.0,B,dawn,O,n,157,1,7214.10000000149,769344.8999999985,7050,WL,A,6.0
6,30.558000087738037,distr,29441.999912261963,Thu Feb 20 2025 17:37:51 GMT-0600 (Central Standard Time),777025.3000000007,B,dawnenter,O,enter,454,1,7680.400000002235,769344.8999999985,7050,WL,A,6.0
6,35.49000000953674,distr,24509.999990463257,Thu Feb 20 2025 17:37:51 GMT-0600 (Central Standard Time),781957.5,B,f,O,f,4917,1,4931.900000002235,777025.5999999978,7050,WL,A,7.0
6,35.640000104904175,distr,24359.999895095825,Thu Feb 20 2025 17:37:51 GMT-0600 (Central Standard Time),782107.5,B,fi,O,i,137,1,5081.900000002235,777025.5999999978,7050,WL,A,7.0
6,35.92300009727478,distr,24076.99990272522,Thu Feb 20 2025 17:37:51 GMT-0600 (Central Standard Time),782390.5,B,fin,O,n,274,1,5364.900000002235,777025.5999999978,7050,WL,A,7.0
6,36.223000049591064,distr,23776.999950408936,Thu Feb 20 2025 17:37:51 GMT-0600 (Central Standard Time),782690.5,B,fing,O,g,279,1,5664.900000002235,777025.5999999978,7050,WL,A,7.0
6,36.373000144958496,distr,23626.999855041504,Thu Feb 20 2025 17:37:51 GMT-0600 (Central Standard Time),782840.5,B,finge,O,e,140,1,5814.900000002235,777025.5999999978,7050,WL,A,7.0
6,36.44099998474121,distr,23559.00001525879,Thu Feb 20 2025 17:37:51 GMT-0600 (Central Standard Time),782908.3000000007,B,finger,O,r,61,1,5882.70000000298,777025.5999999978,7050,WL,A,7.0
6,36.6560001373291,distr,23343.9998626709,Thu Feb 20 2025 17:37:51 GMT-0600 (Central Standard Time),783123.3999999985,B,fingerenter,O,enter,210,1,6097.800000000745,777025.5999999978,7050,WL,A,7.0
6,40.83800005912781,distr,19161.999940872192,Thu Feb 20 2025 17:37:51 GMT-0600 (Central Standard Time),787305.6999999993,B,w,O,w,4171,1,4182.0,783123.6999999993,7050,WL,A,8.0
6,41.03800010681152,distr,18961.999893188477,Thu Feb 20 2025 17:37:51 GMT-0600 (Central Standard Time),787505.5999999978,B,wo,O,o,188,1,4381.89999999851,783123.6999999993,7050,WL,A,8.0
6,41.30400013923645,distr,18695.99986076355,Thu Feb 20 2025 17:37:51 GMT-0600 (Central Standard Time),787772.3000000007,B,wor,O,r,252,1,4648.60000000149,783123.6999999993,7050,WL,A,8.0
6,41.83800005912781,distr,18161.999940872192,Thu Feb 20 2025 17:37:51 GMT-0600 (Central Standard Time),788305.5999999978,B,worm,O,m,522,1,5181.89999999851,783123.6999999993,7050,WL,A,8.0
6,42.28800010681152,distr,17711.999893188477,Thu Feb 20 2025 17:37:51 GMT-0600 (Central Standard Time),788755.3000000007,B,wormenter,O,enter,436,1,5631.60000000149,783123.6999999993,7050,WL,A,8.0
6,47.1029999256134,distr,12897.000074386597,Thu Feb 20 2025 17:37:51 GMT-0600 (Central Standard Time),793570.3999999985,B,c,O,c,4803,1,4814.699999999255,788755.6999999993,7050,WL,A,9.0
6,47.236000061035156,distr,12763.999938964844,Thu Feb 20 2025 17:37:51 GMT-0600 (Central Standard Time),793703.5999999978,B,ch,O,h,123,1,4947.89999999851,788755.6999999993,7050,WL,A,9.0
6,47.41900014877319,distr,12580.999851226807,Thu Feb 20 2025 17:37:51 GMT-0600 (Central Standard Time),793887.0999999978,B,cha,O,a,166,1,5131.39999999851,788755.6999999993,7050,WL,A,9.0
6,47.66900014877319,distr,12330.999851226807,Thu Feb 20 2025 17:37:51 GMT-0600 (Central Standard Time),794136.8999999985,B,chai,O,i,230,1,5381.199999999255,788755.6999999993,7050,WL,A,9.0
6,47.91900014877319,distr,12080.999851226807,Thu Feb 20 2025 17:37:51 GMT-0600 (Central Standard Time),794387.0999999978,B,chair,O,r,230,1,5631.39999999851,788755.6999999993,7050,WL,A,9.0
6,48.18600010871887,distr,11813.999891281128,Thu Feb 20 2025 17:37:51 GMT-0600 (Central Standard Time),794653.3999999985,B,chairenter,O,enter,258,1,5897.699999999255,788755.6999999993,7050,WL,A,9.0
6,52.68400001525879,distr,7315.999984741211,Thu Feb 20 2025 17:37:51 GMT-0600 (Central Standard Time),799152.0,B,enter,O,enter,4488,1,4498.199999999255,794653.8000000007,7050,WL,A,10.0
6,53.051000118255615,distr,6948.999881744385,Thu Feb 20 2025 17:37:51 GMT-0600 (Central Standard Time),799518.8000000007,B,enter,O,enter,351,1,366.5,799152.3000000007,7050,WL,A,11.0
6,53.41700005531311,distr,6582.99994468689,Thu Feb 20 2025 17:37:51 GMT-0600 (Central Standard Time),799885.0999999978,B,enter,O,enter,359,1,366.0,799519.0999999978,7050,WL,A,12.0
6,53.801000118255615,distr,6198.999881744385,Thu Feb 20 2025 17:37:51 GMT-0600 (Central Standard Time),800268.3999999985,B,enter,O,enter,377,1,383.0,799885.3999999985,7050,WL,A,13.0
6,54.18400001525879,distr,5815.999984741211,Thu Feb 20 2025 17:37:51 GMT-0600 (Central Standard Time),800651.5999999978,B,enter,O,enter,369,1,382.79999999701977,800268.8000000007,7050,WL,A,14.0
6,54.58400011062622,distr,5415.999889373779,Thu Feb 20 2025 17:37:51 GMT-0600 (Central Standard Time),801051.3999999985,B,enter,O,enter,387,1,399.5,800651.8999999985,7050,WL,A,15.0
7,9.230999946594238,immed,50769.00005340576,Thu Feb 20 2025 17:37:51 GMT-0600 (Central Standard Time),813497.6999999993,A,m,O,m,9211,1,9230.5,804267.1999999993,7050,WL,A,1.0
7,9.364000082015991,immed,50635.99991798401,Thu Feb 20 2025 17:37:51 GMT-0600 (Central Standard Time),813630.8999999985,A,me,O,e,123,1,9363.699999999255,804267.1999999993,7050,WL,A,1.0
7,9.647000074386597,immed,50352.9999256134,Thu Feb 20 2025 17:37:51 GMT-0600 (Central Standard Time),813914.0,A,mea,O,a,271,1,9646.800000000745,804267.1999999993,7050,WL,A,1.0
7,9.914000034332275,immed,50085.999965667725,Thu Feb 20 2025 17:37:51 GMT-0600 (Central Standard Time),814180.5999999978,A,mead,O,d,252,1,9913.39999999851,804267.1999999993,7050,WL,A,1.0
7,10.04699993133545,immed,49953.00006866455,Thu Feb 20 2025 17:37:51 GMT-0600 (Central Standard Time),814314.0,A,meado,O,o,113,1,10046.800000000745,804267.1999999993,7050,WL,A,1.0
7,10.329999923706055,immed,49670.000076293945,Thu Feb 20 2025 17:37:51 GMT-0600 (Central Standard Time),814597.3000000007,A,meadow,O,w,275,1,10330.10000000149,804267.1999999993,7050,WL,A,1.0
7,11.206000089645386,immed,48793.999910354614,Thu Feb 20 2025 17:37:51 GMT-0600 (Central Standard Time),815472.6999999993,A,meadowenter,O,enter,724,1,11205.5,804267.1999999993,7050,WL,A,1.0
7,15.461999893188477,immed,44538.00010681152,Thu Feb 20 2025 17:37:51 GMT-0600 (Central Standard Time),819728.8999999985,A,k,O,k,4237,1,4255.89999999851,815473.0,7050,WL,A,2.0
7,15.644999980926514,immed,44355.000019073486,Thu Feb 20 2025 17:37:51 GMT-0600 (Central Standard Time),819912.0,A,ke,O,e,164,1,4439.0,815473.0,7050,WL,A,2.0
7,15.995000123977661,immed,44004.99987602234,Thu Feb 20 2025 17:37:51 GMT-0600 (Central Standard Time),820262.1999999993,A,key,O,y,342,1,4789.199999999255,815473.0,7050,WL,A,2.0
7,16.361999988555908,immed,43638.00001144409,Thu Feb 20 2025 17:37:51 GMT-0600 (Central Standard Time),820628.5999999978,A,keyenter,O,enter,360,1,5155.599999997765,815473.0,7050,WL,A,2.0
7,17.378000020980835,immed,42621.999979019165,Thu Feb 20 2025 17:37:51 GMT-0600 (Central Standard Time),821645.0999999978,A,l,O,l,1002,1,1016.1999999992549,820628.8999999985,7050,WL,A,3.0
7,17.57800006866455,immed,42421.99993133545,Thu Feb 20 2025 17:37:51 GMT-0600 (Central Standard Time),821844.8999999985,A,lo,O,o,184,1,1216.0,820628.8999999985,7050,WL,A,3.0
7,17.778000116348267,immed,42221.99988365173,Thu Feb 20 2025 17:37:51 GMT-0600 (Central Standard Time),822045.0,A,log,O,g,194,1,1416.1000000014901,820628.8999999985,7050,WL,A,3.0
7,18.01099991798401,immed,41989.00008201599,Thu Feb 20 2025 17:37:51 GMT-0600 (Central Standard Time),822278.0999999978,A,logenter,O,enter,225,1,1649.199999999255,820628.8999999985,7050,WL,A,3.0
7,18.694999933242798,immed,41305.0000667572,Thu Feb 20 2025 17:37:51 GMT-0600 (Central Standard Time),822961.3000000007,A,g,O,g,672,1,683.0,822278.3000000007,7050,WL,A,4.0
7,18.89400005340576,immed,41105.99994659424,Thu Feb 20 2025 17:37:51 GMT-0600 (Central Standard Time),823161.0999999978,A,go,O,o,180,1,882.7999999970198,822278.3000000007,7050,WL,A,4.0
7,19.128000020980835,immed,40871.999979019165,Thu Feb 20 2025 17:37:51 GMT-0600 (Central Standard Time),823394.5999999978,A,gol,O,l,221,1,1116.2999999970198,822278.3000000007,7050,WL,A,4.0
7,19.344000101089478,immed,40655.99989891052,Thu Feb 20 2025 17:37:51 GMT-0600 (Central Standard Time),823611.0999999978,A,gold,O,d,196,1,1332.7999999970198,822278.3000000007,7050,WL,A,4.0
7,19.89400005340576,immed,40105.99994659424,Thu Feb 20 2025 17:37:51 GMT-0600 (Central Standard Time),824160.8999999985,A,goldenter,O,enter,530,1,1882.5999999977648,822278.3000000007,7050,WL,A,4.0
7,20.359999895095825,immed,39640.000104904175,Thu Feb 20 2025 17:37:51 GMT-0600 (Central Standard Time),824627.0999999978,A,d,O,d,461,1,466.0,824161.0999999978,7050,WL,A,5.0
7,20.627000093460083,immed,39372.99990653992,Thu Feb 20 2025 17:37:51 GMT-0600 (Central Standard Time),824893.8999999985,A,du,O,u,250,1,732.8000000007451,824161.0999999978,7050,WL,A,5.0
7,20.82699990272522,immed,39173.00009727478,Thu Feb 20 2025 17:37:51 GMT-0600 (Central Standard Time),825093.8000000007,A,dus,O,s,184,1,932.7000000029802,824161.0999999978,7050,WL,A,5.0
7,21.109999895095825,immed,38890.000104904175,Thu Feb 20 2025 17:37:51 GMT-0600 (Central Standard Time),825377.1999999993,A,dust,O,t,272,1,1216.1000000014901,824161.0999999978,7050,WL,A,5.0
7,21.80999994277954,immed,38190.00005722046,Thu Feb 20 2025 17:37:51 GMT-0600 (Central Standard Time),826076.8999999985,A,dustenter,O,enter,685,1,1915.800000000745,824161.0999999978,7050,WL,A,5.0
7,22.07699990272522,immed,37923.00009727478,Thu Feb 20 2025 17:37:51 GMT-0600 (Central Standard Time),826343.5,A,r,O,r,250,1,266.30000000074506,826077.1999999993,7050,WL,A,6.0
7,22.30999994277954,immed,37690.00005722046,Thu Feb 20 2025 17:37:51 GMT-0600 (Central Standard Time),826576.8000000007,A,ra,O,a,222,1,499.6000000014901,826077.1999999993,7050,WL,A,6.0
7,22.627000093460083,immed,37372.99990653992,Thu Feb 20 2025 17:37:51 GMT-0600 (Central Standard Time),826893.3999999985,A,rat,O,t,301,1,816.1999999992549,826077.1999999993,7050,WL,A,6.0
7,22.792999982833862,immed,37207.00001716614,Thu Feb 20 2025 17:37:51 GMT-0600 (Central Standard Time),827059.8999999985,A,ratt,O,t,152,1,982.6999999992549,826077.1999999993,7050,WL,A,6.0
7,22.9760000705719,immed,37023.9999294281,Thu Feb 20 2025 17:37:51 GMT-0600 (Central Standard Time),827243.1999999993,A,rattl,O,l,163,1,1166.0,826077.1999999993,7050,WL,A,6.0
7,23.176000118255615,immed,36823.999881744385,Thu Feb 20 2025 17:37:51 GMT-0600 (Central Standard Time),827443.0,A,rattle,O,e,195,1,1365.800000000745,826077.1999999993,7050,WL,A,6.0
7,23.493000030517578,immed,36506.99996948242,Thu Feb 20 2025 17:37:51 GMT-0600 (Central Standard Time),827759.6999999993,A,rattleenter,O,enter,298,1,1682.5,826077.1999999993,7050,WL,A,6.0
7,26.64199995994568,immed,33358.00004005432,Thu Feb 20 2025 17:37:51 GMT-0600 (Central Standard Time),830908.8999999985,A,a,O,a,3142,1,3148.89999999851,827760.0,7050,WL,A,7.0
7,26.85800004005432,immed,33141.99995994568,Thu Feb 20 2025 17:37:51 GMT-0600 (Central Standard Time),831125.3999999985,A,ap,O,p,209,1,3365.39999999851,827760.0,7050,WL,A,7.0
7,27.02500009536743,immed,32974.99990463257,Thu Feb 20 2025 17:37:51 GMT-0600 (Central Standard Time),831291.8000000007,A,app,O,p,160,1,3531.800000000745,827760.0,7050,WL,A,7.0
7,27.20799994468689,immed,32792.00005531311,Thu Feb 20 2025 17:37:51 GMT-0600 (Central Standard Time),831475.0999999978,A,appl,O,l,179,1,3715.099999997765,827760.0,7050,WL,A,7.0
7,27.407999992370605,immed,32592.000007629395,Thu Feb 20 2025 17:37:51 GMT-0600 (Central Standard Time),831675.0,A,apple,O,e,194,1,3915.0,827760.0,7050,WL,A,7.0
7,27.592000007629395,immed,32407.999992370605,Thu Feb 20 2025 17:37:51 GMT-0600 (Central Standard Time),831858.5,A,appleenter,O,enter,170,1,4098.5,827760.0,7050,WL,A,7.0
7,27.825000047683716,immed,32174.999952316284,Thu Feb 20 2025 17:37:51 GMT-0600 (Central Standard Time),832091.5999999978,A,c,O,c,219,1,232.79999999701977,831858.8000000007,7050,WL,A,8.0
7,28.007999897003174,immed,31992.000102996826,Thu Feb 20 2025 17:37:51 GMT-0600 (Central Standard Time),832274.8999999985,A,ch,O,h,178,1,416.0999999977648,831858.8000000007,7050,WL,A,8.0
7,28.259000062942505,immed,31740.999937057495,Thu Feb 20 2025 17:37:51 GMT-0600 (Central Standard Time),832526.0999999978,A,chi,O,i,236,1,667.2999999970198,831858.8000000007,7050,WL,A,8.0
7,28.54099988937378,immed,31459.00011062622,Thu Feb 20 2025 17:37:51 GMT-0600 (Central Standard Time),832808.1999999993,A,chim,O,m,271,1,949.3999999985099,831858.8000000007,7050,WL,A,8.0
7,28.808000087738037,immed,31191.999912261963,Thu Feb 20 2025 17:37:51 GMT-0600 (Central Standard Time),833074.8999999985,A,chimn,O,n,246,1,1216.0999999977648,831858.8000000007,7050,WL,A,8.0
7,28.97499990463257,immed,31025.00009536743,Thu Feb 20 2025 17:37:51 GMT-0600 (Central Standard Time),833241.3999999985,A,chimne,O,e,147,1,1382.5999999977648,831858.8000000007,7050,WL,A,8.0
7,29.157999992370605,immed,30842.000007629395,Thu Feb 20 2025 17:37:51 GMT-0600 (Central Standard Time),833424.5,A,chimney,O,y,172,1,1565.699999999255,831858.8000000007,7050,WL,A,8.0
7,29.924000024795532,immed,30075.999975204468,Thu Feb 20 2025 17:37:51 GMT-0600 (Central Standard Time),834191.3000000007,A,chimneyenter,O,enter,758,1,2332.5,831858.8000000007,7050,WL,A,8.0
7,37.15499997138977,immed,22845.00002861023,Thu Feb 20 2025 17:37:51 GMT-0600 (Central Standard Time),841422.0,A,f,O,f,7214,1,7230.400000002235,834191.5999999978,7050,WL,A,9.0
7,37.33899998664856,immed,22661.00001335144,Thu Feb 20 2025 17:37:51 GMT-0600 (Central Standard Time),841605.5,A,fl,O,l,167,1,7413.900000002235,834191.5999999978,7050,WL,A,9.0
7,37.520999908447266,immed,22479.000091552734,Thu Feb 20 2025 17:37:51 GMT-0600 (Central Standard Time),841788.3000000007,A,flo,O,o,176,1,7596.70000000298,834191.5999999978,7050,WL,A,9.0
7,37.704999923706055,immed,22295.000076293945,Thu Feb 20 2025 17:37:51 GMT-0600 (Central Standard Time),841971.5999999978,A,flow,O,w,169,1,7780.0,834191.5999999978,7050,WL,A,9.0
7,37.770999908447266,immed,22229.000091552734,Thu Feb 20 2025 17:37:51 GMT-0600 (Central Standard Time),842038.1999999993,A,flowe,O,e,57,1,7846.60000000149,834191.5999999978,7050,WL,A,9.0
7,38.08899998664856,immed,21911.00001335144,Thu Feb 20 2025 17:37:51 GMT-0600 (Central Standard Time),842355.5,A,flower,O,r,296,1,8163.900000002235,834191.5999999978,7050,WL,A,9.0
7,38.47200012207031,immed,21527.999877929688,Thu Feb 20 2025 17:37:51 GMT-0600 (Central Standard Time),842738.3999999985,A,flowerenter,O,enter,371,1,8546.800000000745,834191.5999999978,7050,WL,A,9.0
7,50.03500008583069,immed,9964.999914169312,Thu Feb 20 2025 17:37:51 GMT-0600 (Central Standard Time),854301.5999999978,A,w,O,w,11555,1,11562.79999999702,842738.8000000007,7050,WL,A,10.0
7,50.25099992752075,immed,9749.000072479248,Thu Feb 20 2025 17:37:51 GMT-0600 (Central Standard Time),854518.0,A,wo,O,o,199,1,11779.199999999255,842738.8000000007,7050,WL,A,10.0
7,50.484999895095825,immed,9515.000104904175,Thu Feb 20 2025 17:37:51 GMT-0600 (Central Standard Time),854751.3999999985,A,wor,O,r,215,1,12012.599999997765,842738.8000000007,7050,WL,A,10.0
7,50.71799993515015,immed,9282.000064849854,Thu Feb 20 2025 17:37:51 GMT-0600 (Central Standard Time),854984.6999999993,A,worm,O,m,223,1,12245.89999999851,842738.8000000007,7050,WL,A,10.0
7,51.1010000705719,immed,8898.9999294281,Thu Feb 20 2025 17:37:51 GMT-0600 (Central Standard Time),855367.6999999993,A,wormenter,O,enter,364,1,12628.89999999851,842738.8000000007,7050,WL,A,10.0
7,59.44799995422363,immed,552.0000457763672,Thu Feb 20 2025 17:37:51 GMT-0600 (Central Standard Time),863715.1999999993,A,g,O,g,8327,1,8347.199999999255,855368.0,7050,WL,A,11.0
7,59.61500000953674,immed,384.99999046325684,Thu Feb 20 2025 17:37:51 GMT-0600 (Central Standard Time),863881.8999999985,A,go,O,o,155,1,8513.89999999851,855368.0,7050,WL,A,11.0
7,59.848000049591064,immed,151.99995040893555,Thu Feb 20 2025 17:37:51 GMT-0600 (Central Standard Time),864115.0,A,gol,O,l,221,1,8747.0,855368.0,7050,WL,A,11.0
7,60.015000104904175,immed,-15.000104904174805,Thu Feb 20 2025 17:37:51 GMT-0600 (Central Standard Time),864281.8999999985,A,golNone,O,None,163,1,8913.89999999851,855368.0,7050,WL,A,11.0
