acc_sum,block,block_c,condition,correct,correct_response,datetime,endtime,flanker,jitter,project,response,response_test_buffer_response,response_test_target_response,response_time,response_time_test_buffer_response,response_time_test_target_response,row_sel,session_number,start_end,starttime,subject_id,target,task,task_vers,time_test_buffer,time_test_buffer_response,time_test_constants,time_test_flanker,time_test_jitter,time_test_logger,time_test_target,time_test_target_response,time_test_variables,trial
1,prac,1,inc,1,m,Tue Feb 18 2025 13:32:54 GMT-0600 (Central Standard Time),178300.20000000298,pear,900,I,m,,,734,,,14,1,2945.0,175355.20000000298,8016,iron,NF,C,,,,,,,,,,1
1,prac,1,con,0,z,Tue Feb 18 2025 13:32:54 GMT-0600 (Central Standard Time),181049.30000001192,orange,1000,I,m,,,437,,,3,1,2743.1000000089407,178306.20000000298,8016,orange,NF,C,,,,,,,,,,2
2,prac,1,con,1,m,Tue Feb 18 2025 13:32:54 GMT-0600 (Central Standard Time),183998.30000001192,silver,1000,I,m,,,640,,,11,1,2944.300000011921,181054.0,8016,silver,NF,C,,,,,,,,,,3
3,prac,1,con,1,z,Tue Feb 18 2025 13:32:54 GMT-0600 (Central Standard Time),186714.20000000298,lime,800,I,z,,,603,,,5,1,2711.2999999970198,184002.90000000596,8016,lime,NF,C,,,,,,,,,,4
4,prac,1,inc,1,m,Tue Feb 18 2025 13:32:54 GMT-0600 (Central Standard Time),189746.40000000596,plum,1100,I,m,,,627,,,16,1,3027.5,186718.90000000596,8016,lead,NF,C,,,,,,,,,,5
5,prac,1,con,1,m,Tue Feb 18 2025 13:32:54 GMT-0600 (Central Standard Time),192828.70000000298,zinc,1000,I,m,,,782,,,15,1,3077.8999999910593,189750.80000001192,8016,zinc,NF,C,,,,,,,,,,6
6,prac,1,inc,1,z,Tue Feb 18 2025 13:32:54 GMT-0600 (Central Standard Time),195694.5,iron,900,I,z,,,655,,,6,1,2861.3999999910593,192833.10000000894,8016,pear,NF,C,,,,,,,,,,7
7,prac,1,inc,1,z,Tue Feb 18 2025 13:32:54 GMT-0600 (Central Standard Time),198626.60000000894,copper,900,I,z,,,719,,,2,1,2928.1000000089407,195698.5,8016,cherry,NF,C,,,,,,,,,,8
8,prac,1,inc,1,m,Tue Feb 18 2025 13:32:54 GMT-0600 (Central Standard Time),201576.20000000298,cherry,900,I,m,,,746,,,10,1,2945.2000000029802,198631.0,8016,copper,NF,C,,,,,,,,,,9
9,prac,1,con,1,z,Tue Feb 18 2025 13:32:54 GMT-0600 (Central Standard Time),204608.40000000596,kiwi,1000,I,z,,,721,,,7,1,3027.2999999970198,201581.10000000894,8016,kiwi,NF,C,,,,,,,,,,10
10,prac,1,inc,1,z,Tue Feb 18 2025 13:32:54 GMT-0600 (Central Standard Time),207691.0,cobalt,1100,I,z,,,676,,,4,1,3077.699999988079,204613.30000001192,8016,raisin,NF,C,,,,,,,,,,11
11,prac,1,inc,1,z,Tue Feb 18 2025 13:32:54 GMT-0600 (Central Standard Time),210773.20000000298,lead,1100,I,z,,,666,,,8,1,3077.7999999970198,207695.40000000596,8016,plum,NF,C,,,,,,,,,,12
12,prac,1,inc,1,m,Tue Feb 18 2025 13:32:54 GMT-0600 (Central Standard Time),213805.5,raisin,1100,I,m,,,631,,,12,1,3028.0999999940395,210777.40000000596,8016,cobalt,NF,C,,,,,,,,,,13
13,prac,1,con,1,m,Tue Feb 18 2025 13:32:54 GMT-0600 (Central Standard Time),216588.20000000298,bronze,800,I,m,,,674,,,9,1,2778.5,213809.70000000298,8016,bronze,NF,C,,,,,,,,,,14
14,prac,1,con,1,m,Tue Feb 18 2025 13:32:54 GMT-0600 (Central Standard Time),219570.40000000596,gold,800,I,m,,,869,,,13,1,2977.7000000029802,216592.70000000298,8016,gold,NF,C,,,,,,,,,,15
15,prac,1,con,1,z,Tue Feb 18 2025 13:32:54 GMT-0600 (Central Standard Time),222269.40000000596,banana,800,I,z,,,598,,,1,1,2694.7999999970198,219574.60000000894,8016,banana,NF,C,,,,,,,,,,16
1,test,1,inc,1,m,Tue Feb 18 2025 13:32:54 GMT-0600 (Central Standard Time),245496.80000001192,orange,1000,I,m,m,None,1240,1040.0,200.0,79,1,2780.1000000089407,242716.70000000298,8016,copper,NF,C,240286,240286,238557,239570,238557,241337,240086,240086,241337,1
2,test,1,inc,1,z,Tue Feb 18 2025 13:32:54 GMT-0600 (Central Standard Time),247445.10000000894,gold,800,I,z,z,None,600,401.0,199.0,45,1,1944.1000000089407,245501.0,8016,pear,NF,C,242869,242869,241341,242152,241341,243285,242669,242669,243285,2
3,test,1,con,1,z,Tue Feb 18 2025 13:32:54 GMT-0600 (Central Standard Time),249827.60000000894,orange,1000,I,z,z,None,836,636.0,200.0,19,1,2378.2000000029802,247449.40000000596,8016,orange,NF,C,245018,245018,243289,244302,243290,245668,244818,244818,245668,3
4,test,1,con,1,m,Tue Feb 18 2025 13:32:54 GMT-0600 (Central Standard Time),252226.70000000298,copper,1100,I,m,m,None,752,553.0,199.0,76,1,2394.8999999910593,249831.80000001192,8016,copper,NF,C,247501,247501,245672,246784,245672,248067,247301,247301,248067,4
5,test,1,inc,1,z,Tue Feb 18 2025 13:32:54 GMT-0600 (Central Standard Time),254276.20000000298,copper,900,I,z,z,None,610,410.0,200.0,6,1,2045.2000000029802,252231.0,8016,banana,NF,C,249700,249700,248071,248984,248072,250116,249500,249500,250116,5
6,test,1,con,1,m,Tue Feb 18 2025 13:32:54 GMT-0600 (Central Standard Time),256508.80000001192,silver,1000,I,m,m,None,684,485.0,199.0,83,1,2228.800000011921,254280.0,8016,silver,NF,C,251849,251849,250120,251133,250120,252349,251650,251650,252349,6
7,test,1,inc,1,m,Tue Feb 18 2025 13:32:54 GMT-0600 (Central Standard Time),258991.0,raisin,1100,I,m,m,None,848,648.0,200.0,96,1,2478.199999988079,256512.80000001192,8016,cobalt,NF,C,254182,254182,252353,253465,252353,254831,253982,253982,254831,7
8,test,1,con,1,m,Tue Feb 18 2025 13:32:54 GMT-0600 (Central Standard Time),261435.10000000894,lead,1000,I,m,m,None,910,711.0,199.0,123,1,2439.5,258995.60000000894,8016,lead,NF,C,256564,256564,254836,255848,254836,257275,256365,256365,257275,8
9,test,1,inc,1,m,Tue Feb 18 2025 13:32:54 GMT-0600 (Central Standard Time),263706.60000000894,pear,900,I,m,m,None,827,628.0,199.0,102,1,2267.2000000029802,261439.40000000596,8016,gold,NF,C,258914,258914,257279,258197,257280,259547,258714,258714,259547,9
10,test,1,inc,1,m,Tue Feb 18 2025 13:32:54 GMT-0600 (Central Standard Time),265822.40000000596,banana,800,I,m,m,None,774,575.0,199.0,93,1,2111.7000000029802,263710.700000003,8016,cobalt,NF,C,261080,261080,259551,260363,259551,261663,260880,260880,261662,10
11,test,1,con,1,m,Tue Feb 18 2025 13:32:54 GMT-0600 (Central Standard Time),267955.200000003,bronze,900,I,m,m,None,693,493.0,200.0,66,1,2128.2999999970198,265826.90000000596,8016,bronze,NF,C,263297,263297,261667,262579,261667,263795,263096,263096,263795,11
12,test,1,inc,1,z,Tue Feb 18 2025 13:32:54 GMT-0600 (Central Standard Time),270321.10000000894,zinc,1000,I,z,z,None,830,630.0,200.0,39,1,2361.7000000029802,267959.40000000596,8016,lime,NF,C,265528,265528,263799,264812,263800,266161,265328,265328,266161,12
13,test,1,inc,1,z,Tue Feb 18 2025 13:32:54 GMT-0600 (Central Standard Time),272587.200000003,iron,900,I,z,z,None,820,620.0,200.0,38,1,2262.2999999970198,270324.90000000596,8016,lime,NF,C,267794,267794,266165,267078,266165,268427,267594,267594,268427,13
14,test,1,inc,1,m,Tue Feb 18 2025 13:32:54 GMT-0600 (Central Standard Time),274736.3000000119,cherry,900,I,m,m,None,714,514.0,200.0,70,1,2145.1000000089407,272591.200000003,8016,bronze,NF,C,270060,270060,268431,269344,268432,270576,269860,269860,270576,14
15,test,1,con,1,z,Tue Feb 18 2025 13:32:54 GMT-0600 (Central Standard Time),277002.200000003,raisin,1100,I,z,z,None,621,421.0,200.0,28,1,2261.5,274740.700000003,8016,raisin,NF,C,272409,272409,270581,271693,270581,272842,272209,272209,272842,15
16,test,1,inc,1,z,Tue Feb 18 2025 13:32:54 GMT-0600 (Central Standard Time),279118.5,copper,900,I,z,z,None,674,475.0,199.0,22,1,2112.5,277006.0,8016,orange,NF,C,274475,274475,272846,273759,272847,274959,274276,274276,274959,16
17,test,1,con,1,m,Tue Feb 18 2025 13:32:54 GMT-0600 (Central Standard Time),281267.5,iron,900,I,m,m,None,701,502.0,199.0,106,1,2145.0999999940395,279122.40000000596,8016,iron,NF,C,276591,276592,274962,275875,274963,277108,276392,276392,277107,17
18,test,1,inc,1,m,Tue Feb 18 2025 13:32:54 GMT-0600 (Central Standard Time),283400.40000000596,lime,800,I,m,m,None,796,597.0,199.0,117,1,2128.9000000059605,281271.5,8016,zinc,NF,C,278641,278641,277112,277924,277112,279240,278441,278441,279240,18
19,test,1,con,1,m,Tue Feb 18 2025 13:32:54 GMT-0600 (Central Standard Time),285649.5,bronze,1000,I,m,m,None,652,446.0,206.0,67,1,2245.199999988079,283404.3000000119,8016,bronze,NF,C,281040,281040,279244,280257,279245,281490,280834,280834,281490,19
20,test,1,con,1,m,Tue Feb 18 2025 13:32:54 GMT-0600 (Central Standard Time),287932.10000000894,silver,1100,I,m,m,None,643,444.0,199.0,84,1,2278.6000000089407,285653.5,8016,silver,NF,C,283323,283323,281494,282606,281494,283772,283123,283123,283772,20
21,test,1,inc,1,z,Tue Feb 18 2025 13:32:54 GMT-0600 (Central Standard Time),290298.10000000894,lead,1100,I,z,z,None,744,529.0,215.0,64,1,2361.7999999970198,287936.3000000119,8016,plum,NF,C,285605,285605,283776,284889,283777,286138,285390,285390,286138,21
22,test,1,inc,1,m,Tue Feb 18 2025 13:32:54 GMT-0600 (Central Standard Time),292747.40000000596,plum,1100,I,m,m,None,802,603.0,199.0,128,1,2443.9000000059605,290303.5,8016,lead,NF,C,287971,287971,286143,287255,286144,288587,287771,287772,288587,22
23,test,1,inc,1,m,Tue Feb 18 2025 13:32:54 GMT-0600 (Central Standard Time),295129.90000000596,plum,1100,I,m,m,None,746,546.0,200.0,112,1,2378.2000000029802,292751.700000003,8016,iron,NF,C,290420,290420,288592,289704,288592,290970,290220,290220,290970,23
24,test,1,inc,1,z,Tue Feb 18 2025 13:32:54 GMT-0600 (Central Standard Time),297562.5,cobalt,1100,I,z,z,None,787,587.0,200.0,8,1,2428.5999999940395,295133.90000000596,8016,banana,NF,C,292803,292803,290974,292087,290974,293403,292603,292603,293402,24
25,test,1,inc,1,m,Tue Feb 18 2025 13:32:54 GMT-0600 (Central Standard Time),299645.3000000119,cherry,900,I,m,m,None,633,434.0,199.0,78,1,2078.7000000029802,297566.60000000894,8016,copper,NF,C,295036,295036,293407,294319,293407,295485,294836,294836,295485,25
26,test,1,con,1,z,Tue Feb 18 2025 13:32:54 GMT-0600 (Central Standard Time),301977.8000000119,raisin,1000,I,z,z,None,787,588.0,199.0,27,1,2328.5,299649.3000000119,8016,raisin,NF,C,297218,297218,295489,296502,295490,297818,297019,297019,297818,26
27,test,1,inc,1,z,Tue Feb 18 2025 13:32:54 GMT-0600 (Central Standard Time),304343.60000000894,zinc,1000,I,z,z,None,831,631.0,200.0,47,1,2361.5,301982.10000000894,8016,pear,NF,C,299551,299551,297822,298837,297823,300184,299351,299351,300184,27
28,test,1,con,1,m,Tue Feb 18 2025 13:32:54 GMT-0600 (Central Standard Time),306643.0,lead,900,I,m,m,None,852,653.0,199.0,122,1,2295.0999999940395,304347.90000000596,8016,lead,NF,C,301817,301817,300188,301100,300188,302483,301617,301617,302483,28
29,test,1,inc,1,m,Tue Feb 18 2025 13:32:54 GMT-0600 (Central Standard Time),308825.5,banana,800,I,m,m,None,846,646.0,200.0,85,1,2178.5999999940395,306646.90000000596,8016,silver,NF,C,304016,304016,302487,303300,302487,304666,303816,303816,304665,29
30,test,1,inc,1,m,Tue Feb 18 2025 13:32:54 GMT-0600 (Central Standard Time),311192.60000000894,raisin,1100,I,m,m,None,731,532.0,199.0,72,1,2363.2000000029802,308829.40000000596,8016,bronze,NF,C,306499,306499,304669,305783,304670,307033,306299,306299,307033,30
31,test,1,inc,1,m,Tue Feb 18 2025 13:32:54 GMT-0600 (Central Standard Time),313474.10000000894,raisin,1100,I,m,m,None,644,445.0,199.0,80,1,2277.6000000089407,311196.5,8016,copper,NF,C,308865,308865,307037,308148,307037,309314,308665,308665,309314,31
32,test,1,inc,1,z,Tue Feb 18 2025 13:32:54 GMT-0600 (Central Standard Time),315690.3000000119,copper,900,I,z,z,None,771,571.0,200.0,30,1,2212.1000000089407,313478.200000003,8016,raisin,NF,C,310947,310947,309318,310231,309319,311530,310747,310747,311530,32
33,test,1,inc,1,z,Tue Feb 18 2025 13:32:54 GMT-0600 (Central Standard Time),318022.700000003,gold,800,I,z,z,None,982,783.0,199.0,53,1,2328.5,315694.200000003,8016,kiwi,NF,C,313063,313063,311534,312347,311535,313863,312864,312864,313863,33
34,test,1,inc,1,m,Tue Feb 18 2025 13:32:54 GMT-0600 (Central Standard Time),320405.5,plum,1100,I,m,m,None,734,534.0,200.0,104,1,2379.0,318026.5,8016,gold,NF,C,315696,315696,313867,314979,313867,316246,315496,315496,316246,34
35,test,1,con,1,z,Tue Feb 18 2025 13:32:54 GMT-0600 (Central Standard Time),322804.5,lime,1100,I,z,z,None,750,551.0,199.0,36,1,2394.8999999910593,320409.60000000894,8016,lime,NF,C,318079,318079,316250,317362,316250,318645,317879,317879,318645,35
36,test,1,con,1,m,Tue Feb 18 2025 13:32:54 GMT-0600 (Central Standard Time),324970.60000000894,copper,900,I,m,m,None,719,520.0,199.0,74,1,2162.0,322808.60000000894,8016,copper,NF,C,320278,320278,318649,319561,318649,320811,320078,320078,320811,36
37,test,1,inc,1,m,Tue Feb 18 2025 13:32:54 GMT-0600 (Central Standard Time),327236.3000000119,kiwi,1000,I,m,m,None,725,526.0,199.0,103,1,2261.6000000089407,324974.700000003,8016,gold,NF,C,322544,322544,320815,321827,320815,323076,322344,322344,323076,37
38,test,1,inc,1,m,Tue Feb 18 2025 13:32:54 GMT-0600 (Central Standard Time),329469.10000000894,kiwi,1000,I,m,m,None,691,476.0,215.0,119,1,2228.7000000029802,327240.40000000596,8016,zinc,NF,C,324826,324826,323080,324093,323081,325309,324611,324611,325309,38
39,test,1,inc,1,m,Tue Feb 18 2025 13:32:54 GMT-0600 (Central Standard Time),331751.8000000119,orange,1000,I,m,m,None,740,540.0,200.0,95,1,2278.5,329473.3000000119,8016,cobalt,NF,C,327042,327042,325313,326326,325314,327592,326842,326842,327592,39
40,test,1,con,1,z,Tue Feb 18 2025 13:32:54 GMT-0600 (Central Standard Time),333901.10000000894,banana,900,I,z,z,None,701,501.0,200.0,2,1,2144.9000000059605,331756.200000003,8016,banana,NF,C,329225,329225,327596,328509,327597,329741,329025,329025,329741,40
40,test,1,con,0,z,Tue Feb 18 2025 13:32:54 GMT-0600 (Central Standard Time),336366.700000003,orange,1100,I,m,m,None,832,632.0,200.0,20,1,2461.7000000029802,333905.0,8016,orange,NF,C,331574,331574,329745,330858,329745,332207,331374,331374,332207,41
41,test,1,inc,1,m,Tue Feb 18 2025 13:32:54 GMT-0600 (Central Standard Time),338599.60000000894,lime,800,I,m,m,None,890,690.0,200.0,125,1,2228.7000000029802,336370.90000000596,8016,lead,NF,C,333740,333740,332211,333024,332211,334440,333540,333540,334440,42
42,test,1,con,1,z,Tue Feb 18 2025 13:32:54 GMT-0600 (Central Standard Time),341015.60000000894,kiwi,1100,I,z,z,None,772,573.0,199.0,52,1,2412.0,338603.60000000894,8016,kiwi,NF,C,336273,336273,334444,335556,334444,336856,336073,336073,336856,43
43,test,1,inc,1,z,Tue Feb 18 2025 13:32:54 GMT-0600 (Central Standard Time),343414.60000000894,gold,800,I,z,z,None,1056,857.0,199.0,37,1,2395.2000000029802,341019.40000000596,8016,lime,NF,C,338389,338389,336859,337672,336860,339255,338189,338189,339255,44
44,test,1,con,1,z,Tue Feb 18 2025 13:32:54 GMT-0600 (Central Standard Time),346463.700000003,pear,1000,I,z,z,None,1506,1306.0,200.0,43,1,3045.0,343418.700000003,8016,pear,NF,C,340988,340988,339259,340271,339259,342304,340788,340788,342304,45
45,test,1,inc,1,m,Tue Feb 18 2025 13:32:54 GMT-0600 (Central Standard Time),348596.40000000596,cherry,900,I,m,m,None,685,485.0,200.0,86,1,2128.5999999940395,346467.8000000119,8016,silver,NF,C,343937,343937,342308,343220,342308,344436,343737,343737,344436,46
46,test,1,con,1,z,Tue Feb 18 2025 13:32:54 GMT-0600 (Central Standard Time),350812.3000000119,plum,900,I,z,z,None,767,568.0,199.0,58,1,2211.7000000029802,348600.60000000894,8016,plum,NF,C,346070,346070,344441,345355,344441,346652,345870,345870,346652,47
47,test,1,con,1,m,Tue Feb 18 2025 13:32:54 GMT-0600 (Central Standard Time),353278.40000000596,gold,1000,I,m,m,None,925,726.0,199.0,99,1,2462.4000000059605,350816.0,8016,gold,NF,C,348385,348385,346656,347669,346656,349119,348185,348186,349118,48
48,test,1,con,1,m,Tue Feb 18 2025 13:32:54 GMT-0600 (Central Standard Time),355491.40000000596,iron,800,I,m,m,None,880,680.0,200.0,105,1,2209.2000000029802,353282.200000003,8016,iron,NF,C,350651,350651,349122,349935,349123,351331,350451,350451,351331,49
49,test,1,inc,1,z,Tue Feb 18 2025 13:32:54 GMT-0600 (Central Standard Time),357726.90000000596,iron,900,I,z,z,None,791,591.0,200.0,46,1,2230.9000000059605,355496.0,8016,pear,NF,C,352967,352967,351336,352251,351336,353567,352767,352767,353567,50
50,test,1,inc,1,m,Tue Feb 18 2025 13:32:54 GMT-0600 (Central Standard Time),360159.10000000894,pear,900,I,m,m,None,990,790.0,200.0,110,1,2428.2999999970198,357730.8000000119,8016,iron,NF,C,355200,355200,353571,354483,353571,355999,355000,355000,355999,51
51,test,1,con,1,z,Tue Feb 18 2025 13:32:54 GMT-0600 (Central Standard Time),362625.0,lime,1000,I,z,z,None,920,721.0,199.0,35,1,2462.199999988079,360162.8000000119,8016,lime,NF,C,357733,357733,356003,357016,356003,358465,357533,357533,358465,52
52,test,1,con,1,m,Tue Feb 18 2025 13:32:54 GMT-0600 (Central Standard Time),364674.60000000894,silver,800,I,m,m,None,710,511.0,199.0,81,1,2045.6000000089407,362629.0,8016,silver,NF,C,359998,359999,358469,359282,358469,360515,359799,359799,360515,53
53,test,1,con,1,m,Tue Feb 18 2025 13:32:54 GMT-0600 (Central Standard Time),366774.10000000894,lead,800,I,m,m,None,758,558.0,200.0,121,1,2095.5,364678.60000000894,8016,lead,NF,C,362048,362048,360519,361332,360519,362614,361848,361848,362614,54
54,test,1,con,1,z,Tue Feb 18 2025 13:32:54 GMT-0600 (Central Standard Time),369006.700000003,cherry,900,I,z,z,None,799,599.0,200.0,10,1,2228.2999999970198,366778.40000000596,8016,cherry,NF,C,364247,364247,362618,363531,362619,364847,364047,364047,364847,55
55,test,1,con,1,z,Tue Feb 18 2025 13:32:54 GMT-0600 (Central Standard Time),371339.5,pear,900,I,z,z,None,886,686.0,200.0,42,1,2329.0,369010.5,8016,pear,NF,C,366480,366480,364851,365764,364851,367180,366280,366280,367179,56
56,test,1,inc,1,m,Tue Feb 18 2025 13:32:54 GMT-0600 (Central Standard Time),373688.40000000596,orange,1000,I,m,m,None,805,606.0,199.0,87,1,2344.7999999970198,371343.60000000894,8016,silver,NF,C,368912,368912,367184,368196,367184,369528,368713,368713,369528,57
57,test,1,con,1,m,Tue Feb 18 2025 13:32:54 GMT-0600 (Central Standard Time),376037.8000000119,copper,800,I,m,m,None,1007,808.0,199.0,73,1,2345.4000000059605,373692.40000000596,8016,copper,NF,C,371062,371062,369532,370345,369533,371878,370862,370862,371878,58
58,test,1,con,1,z,Tue Feb 18 2025 13:32:54 GMT-0600 (Central Standard Time),378037.3000000119,raisin,800,I,z,z,None,659,459.0,200.0,25,1,1995.7000000029802,376041.60000000894,8016,raisin,NF,C,373411,373411,371882,372694,371882,373877,373211,373211,373877,59
59,test,1,con,1,z,Tue Feb 18 2025 13:32:54 GMT-0600 (Central Standard Time),380519.700000003,pear,1100,I,z,z,None,831,631.0,200.0,44,1,2478.5,378041.200000003,8016,pear,NF,C,375727,375727,373881,375020,373881,376360,375527,375527,376360,60
60,test,1,inc,1,m,Tue Feb 18 2025 13:32:54 GMT-0600 (Central Standard Time),383052.3000000119,plum,1100,I,m,m,None,893,693.0,200.0,120,1,2528.5,380523.8000000119,8016,zinc,NF,C,378193,378193,376364,377476,376364,378892,377993,377993,378892,61
61,test,1,inc,1,m,Tue Feb 18 2025 13:32:54 GMT-0600 (Central Standard Time),385534.700000003,kiwi,1000,I,m,m,None,948,749.0,199.0,111,1,2478.3999999910593,383056.3000000119,8016,iron,NF,C,380625,380625,378896,379909,378897,381375,380426,380426,381375,62
62,test,1,inc,1,z,Tue Feb 18 2025 13:32:54 GMT-0600 (Central Standard Time),388034.10000000894,lead,1100,I,z,z,None,854,654.0,200.0,56,1,2495.7000000029802,385538.40000000596,8016,kiwi,NF,C,383208,383208,381378,382492,381379,383874,383008,383008,383874,63
63,test,1,con,1,z,Tue Feb 18 2025 13:32:54 GMT-0600 (Central Standard Time),390683.200000003,banana,1000,I,z,z,None,1111,911.0,200.0,3,1,2645.5,388037.700000003,8016,banana,NF,C,385607,385607,383878,384891,383878,386523,385407,385407,386523,64
64,test,1,con,1,z,Tue Feb 18 2025 13:32:54 GMT-0600 (Central Standard Time),392800.3000000119,plum,800,I,z,z,None,782,582.0,200.0,57,1,2112.9000000059605,390687.40000000596,8016,plum,NF,C,388056,388056,386527,387340,386528,388640,387856,387856,388640,65
65,test,1,inc,1,z,Tue Feb 18 2025 13:32:54 GMT-0600 (Central Standard Time),395398.40000000596,lead,1100,I,z,z,None,950,750.0,200.0,48,1,2594.2000000029802,392804.200000003,8016,pear,NF,C,390472,390472,388644,389756,388645,391238,390272,390272,391238,66
66,test,1,inc,1,z,Tue Feb 18 2025 13:32:54 GMT-0600 (Central Standard Time),397714.200000003,silver,1000,I,z,z,None,777,578.0,199.0,15,1,2311.7000000029802,395402.5,8016,cherry,NF,C,392972,392972,391243,392255,391243,393554,392772,392772,393554,67
67,test,1,con,1,z,Tue Feb 18 2025 13:32:54 GMT-0600 (Central Standard Time),399997.0,banana,800,I,z,z,None,933,734.0,199.0,1,1,2279.0999999940395,397717.90000000596,8016,banana,NF,C,395088,395088,393558,394371,393558,395837,394888,394888,395837,68
68,test,1,con,1,z,Tue Feb 18 2025 13:32:54 GMT-0600 (Central Standard Time),402212.90000000596,kiwi,1000,I,z,z,None,676,476.0,200.0,51,1,2211.5,400001.40000000596,8016,kiwi,NF,C,397570,397570,395841,396854,395842,398053,397370,397370,398053,69
69,test,1,con,1,z,Tue Feb 18 2025 13:32:54 GMT-0600 (Central Standard Time),404512.200000003,lime,900,I,z,z,None,864,664.0,200.0,34,1,2295.3999999910593,402216.8000000119,8016,lime,NF,C,399686,399686,398057,398970,398057,400352,399486,399486,400352,70
70,test,1,con,1,m,Tue Feb 18 2025 13:32:54 GMT-0600 (Central Standard Time),406844.8000000119,lead,1100,I,m,m,None,685,485.0,200.0,124,1,2328.6000000089407,404516.200000003,8016,lead,NF,C,402185,402185,400356,401469,400357,402685,401985,401985,402685,71
71,test,1,con,1,m,Tue Feb 18 2025 13:32:54 GMT-0600 (Central Standard Time),408827.40000000596,bronze,800,I,m,m,None,636,436.0,200.0,65,1,1978.5999999940395,406848.8000000119,8016,bronze,NF,C,404218,404218,402689,403501,402689,404667,404018,404018,404667,72
72,test,1,inc,1,m,Tue Feb 18 2025 13:32:54 GMT-0600 (Central Standard Time),410926.8000000119,pear,900,I,m,m,None,656,457.0,199.0,118,1,2095.6000000089407,408831.200000003,8016,zinc,NF,C,406301,406301,404671,405584,404672,406767,406101,406101,406767,73
73,test,1,inc,1,z,Tue Feb 18 2025 13:32:54 GMT-0600 (Central Standard Time),413192.8000000119,iron,900,I,z,z,None,822,622.0,200.0,54,1,2262.0,410930.8000000119,8016,kiwi,NF,C,408400,408400,406771,407684,406771,409033,408200,408200,409033,74
74,test,1,inc,1,m,Tue Feb 18 2025 13:32:54 GMT-0600 (Central Standard Time),415292.3000000119,lime,800,I,m,m,None,752,552.0,200.0,101,1,2095.4000000059605,413196.90000000596,8016,gold,NF,C,410566,410566,409037,409850,409037,411132,410366,410366,411132,75
75,test,1,con,1,m,Tue Feb 18 2025 13:32:54 GMT-0600 (Central Standard Time),417824.8000000119,cobalt,1000,I,m,m,None,988,789.0,199.0,91,1,2528.6000000089407,415296.200000003,8016,cobalt,NF,C,412865,412865,411136,412149,411137,413665,412666,412666,413665,76
76,test,1,inc,1,z,Tue Feb 18 2025 13:32:54 GMT-0600 (Central Standard Time),420190.700000003,zinc,1000,I,z,z,None,831,632.0,199.0,55,1,2362.0,417828.700000003,8016,kiwi,NF,C,415398,415398,413669,414681,413669,416031,415198,415198,416031,77
77,test,1,con,1,z,Tue Feb 18 2025 13:32:54 GMT-0600 (Central Standard Time),422656.3000000119,plum,1100,I,z,z,None,821,622.0,199.0,60,1,2461.9000000059605,420194.40000000596,8016,plum,NF,C,417864,417864,416034,417147,416035,418496,417664,417664,418496,78
78,test,1,inc,1,z,Tue Feb 18 2025 13:32:54 GMT-0600 (Central Standard Time),425222.40000000596,zinc,1000,I,z,z,None,1031,832.0,199.0,63,1,2562.2999999970198,422660.10000000894,8016,plum,NF,C,420229,420230,418500,419513,418501,421063,420030,420030,421062,79
79,test,1,inc,1,z,Tue Feb 18 2025 13:32:54 GMT-0600 (Central Standard Time),427638.40000000596,cobalt,1100,I,z,z,None,774,575.0,199.0,32,1,2412.4000000059605,425226.0,8016,raisin,NF,C,422895,422895,421066,422179,421066,423478,422696,422696,423478,80
80,test,1,con,1,z,Tue Feb 18 2025 13:32:54 GMT-0600 (Central Standard Time),429870.700000003,banana,1100,I,z,z,None,598,399.0,199.0,4,1,2228.5999999940395,427642.10000000894,8016,banana,NF,C,425311,425311,423482,424595,423483,425711,425111,425112,425711,81
81,test,1,inc,1,z,Tue Feb 18 2025 13:32:54 GMT-0600 (Central Standard Time),432236.8000000119,cobalt,1100,I,z,z,None,726,526.0,200.0,16,1,2362.300000011921,429874.5,8016,cherry,NF,C,427544,427544,425715,426828,425715,428077,427344,427344,428077,82
82,test,1,con,1,m,Tue Feb 18 2025 13:32:54 GMT-0600 (Central Standard Time),434252.8000000119,zinc,800,I,m,m,None,668,468.0,200.0,113,1,2012.2000000029802,432240.60000000894,8016,zinc,NF,C,429610,429610,428081,428894,428081,430093,429410,429410,430093,83
83,test,1,inc,1,z,Tue Feb 18 2025 13:32:54 GMT-0600 (Central Standard Time),436485.40000000596,silver,1000,I,z,z,None,692,491.0,201.0,7,1,2228.7000000029802,434256.700000003,8016,banana,NF,C,431827,431827,430097,431110,430097,432326,431626,431626,432325,84
84,test,1,con,1,m,Tue Feb 18 2025 13:32:54 GMT-0600 (Central Standard Time),438568.3000000119,iron,1000,I,m,m,None,538,339.0,199.0,107,1,2078.7000000029802,436489.60000000894,8016,iron,NF,C,434059,434059,432330,433342,432330,434408,433859,433859,434408,85
85,test,1,con,1,m,Tue Feb 18 2025 13:32:54 GMT-0600 (Central Standard Time),440601.0,gold,900,I,m,m,None,597,397.0,200.0,98,1,2028.8999999910593,438572.10000000894,8016,gold,NF,C,436041,436041,434412,435325,434412,436441,435841,435841,436441,86
86,test,1,inc,1,z,Tue Feb 18 2025 13:32:54 GMT-0600 (Central Standard Time),442800.200000003,silver,1000,I,z,z,None,656,456.0,200.0,23,1,2195.5,440604.700000003,8016,orange,NF,C,438174,438174,436445,437458,436445,438640,437974,437974,438640,87
87,test,1,con,1,m,Tue Feb 18 2025 13:32:54 GMT-0600 (Central Standard Time),444982.700000003,silver,900,I,m,m,None,749,549.0,200.0,82,1,2178.7999999970198,442803.90000000596,8016,silver,NF,C,440273,440273,438644,439557,438644,440823,440073,440073,440823,88
88,test,1,con,1,z,Tue Feb 18 2025 13:32:54 GMT-0600 (Central Standard Time),447265.40000000596,cherry,1100,I,z,z,None,638,438.0,200.0,12,1,2279.0,444986.40000000596,8016,cherry,NF,C,442656,442656,440826,441940,440827,443105,442456,442456,443105,89
89,test,1,con,1,z,Tue Feb 18 2025 13:32:54 GMT-0600 (Central Standard Time),449448.3000000119,kiwi,800,I,z,z,None,838,638.0,200.0,49,1,2179.1000000089407,447269.200000003,8016,kiwi,NF,C,444640,444640,443109,443922,443109,445288,444439,444439,445288,90
90,test,1,con,1,m,Tue Feb 18 2025 13:32:54 GMT-0600 (Central Standard Time),451830.700000003,zinc,1100,I,m,m,None,749,549.0,200.0,116,1,2378.7999999970198,449451.90000000596,8016,zinc,NF,C,447121,447121,445292,446405,445292,447671,446921,446921,447671,91
91,test,1,con,1,m,Tue Feb 18 2025 13:32:54 GMT-0600 (Central Standard Time),454346.5,cobalt,1100,I,m,m,None,878,678.0,200.0,92,1,2512.2999999970198,451834.200000003,8016,cobalt,NF,C,449504,449504,447674,448787,447674,450187,449304,449304,450186,92
92,test,1,con,1,m,Tue Feb 18 2025 13:32:54 GMT-0600 (Central Standard Time),456579.200000003,cobalt,900,I,m,m,None,785,586.0,199.0,90,1,2228.7999999970198,454350.40000000596,8016,cobalt,NF,C,451820,451820,450190,451103,450191,452419,451620,451620,452419,93
93,test,1,con,1,z,Tue Feb 18 2025 13:32:54 GMT-0600 (Central Standard Time),458728.60000000894,orange,800,I,z,z,None,813,614.0,199.0,17,1,2145.7000000029802,456582.90000000596,8016,orange,NF,C,453952,453952,452423,453236,452423,454569,453753,453753,454569,94
94,test,1,con,1,m,Tue Feb 18 2025 13:32:54 GMT-0600 (Central Standard Time),461094.40000000596,gold,1100,I,m,m,None,731,532.0,199.0,100,1,2361.9000000059605,458732.5,8016,gold,NF,C,456402,456402,454573,455685,454573,456934,456202,456202,456934,95
95,test,1,inc,1,z,Tue Feb 18 2025 13:32:54 GMT-0600 (Central Standard Time),463460.3000000119,lead,1100,I,z,z,None,718,519.0,199.0,40,1,2362.0,461098.3000000119,8016,lime,NF,C,458767,458767,456938,458051,456939,459300,458568,458568,459300,96
96,test,1,inc,1,m,Tue Feb 18 2025 13:32:54 GMT-0600 (Central Standard Time),465726.40000000596,pear,900,I,m,m,None,832,633.0,199.0,126,1,2262.0999999940395,463464.3000000119,8016,lead,NF,C,460933,460933,459304,460217,459305,461566,460734,460734,461566,97
97,test,1,inc,1,z,Tue Feb 18 2025 13:32:54 GMT-0600 (Central Standard Time),467792.40000000596,bronze,800,I,z,z,None,729,530.0,199.0,29,1,2062.2000000029802,465730.200000003,8016,raisin,NF,C,463100,463100,461570,462383,461570,463632,462900,462900,463632,98
98,test,1,con,1,m,Tue Feb 18 2025 13:32:54 GMT-0600 (Central Standard Time),470241.40000000596,zinc,1000,I,m,m,None,911,712.0,199.0,115,1,2445.2000000029802,467796.200000003,8016,zinc,NF,C,465366,465366,463636,464649,463636,466081,465166,465166,466081,99
99,test,1,inc,1,z,Tue Feb 18 2025 13:32:54 GMT-0600 (Central Standard Time),473075.0,bronze,800,I,z,z,None,1486,1287.0,199.0,13,1,2829.699999988079,470245.3000000119,8016,cherry,NF,C,467615,467615,466085,466899,466086,468915,467415,467415,468915,100
100,test,1,con,1,m,Tue Feb 18 2025 13:32:54 GMT-0600 (Central Standard Time),475306.60000000894,zinc,900,I,m,m,None,787,587.0,200.0,114,1,2227.7000000029802,473078.90000000596,8016,zinc,NF,C,470547,470547,468919,469831,468919,471147,470347,470347,471147,101
101,test,1,con,1,z,Tue Feb 18 2025 13:32:54 GMT-0600 (Central Standard Time),477673.60000000894,orange,900,I,z,z,None,930,730.0,200.0,18,1,2363.2000000029802,475310.40000000596,8016,orange,NF,C,472780,472780,471150,472063,471151,473514,472580,472580,473514,102
102,test,1,con,1,z,Tue Feb 18 2025 13:32:54 GMT-0600 (Central Standard Time),480021.90000000596,cherry,800,I,z,z,None,999,800.0,199.0,9,1,2344.2999999970198,477677.60000000894,8016,cherry,NF,C,475046,475046,473518,474329,473518,475862,474846,474846,475862,103
103,test,1,inc,1,z,Tue Feb 18 2025 13:32:54 GMT-0600 (Central Standard Time),482254.40000000596,gold,800,I,z,z,None,884,684.0,200.0,61,1,2228.5999999940395,480025.8000000119,8016,plum,NF,C,477395,477395,475866,476679,475866,478094,477195,477195,478094,104
104,test,1,inc,1,z,Tue Feb 18 2025 13:32:54 GMT-0600 (Central Standard Time),484503.60000000894,bronze,800,I,z,z,None,906,707.0,199.0,21,1,2245.4000000059605,482258.200000003,8016,orange,NF,C,479627,479627,478098,478911,478098,480344,479428,479428,480344,105
105,test,1,inc,1,m,Tue Feb 18 2025 13:32:54 GMT-0600 (Central Standard Time),486653.10000000894,banana,800,I,m,m,None,809,610.0,199.0,69,1,2145.6000000089407,484507.5,8016,bronze,NF,C,481876,481876,480348,481161,480348,482493,481677,481677,482493,106
106,test,1,inc,1,m,Tue Feb 18 2025 13:32:54 GMT-0600 (Central Standard Time),488819.0,lime,800,I,m,m,None,827,628.0,199.0,109,1,2162.0,486657.0,8016,iron,NF,C,484026,484026,482497,483310,482497,484659,483827,483827,484659,107
107,test,1,inc,1,m,Tue Feb 18 2025 13:32:54 GMT-0600 (Central Standard Time),491018.40000000596,orange,1000,I,m,m,None,661,462.0,199.0,71,1,2195.5,488822.90000000596,8016,bronze,NF,C,486392,486392,484663,485676,484663,486858,486193,486193,486858,108
108,test,1,con,1,m,Tue Feb 18 2025 13:32:54 GMT-0600 (Central Standard Time),493067.700000003,gold,800,I,m,m,None,702,503.0,199.0,97,1,2045.2000000029802,491022.5,8016,gold,NF,C,488391,488391,486863,487675,486863,488908,488192,488192,488908,109
109,test,1,con,1,m,Tue Feb 18 2025 13:32:54 GMT-0600 (Central Standard Time),495350.40000000596,bronze,1100,I,m,m,None,632,433.0,199.0,68,1,2278.7000000029802,493071.700000003,8016,bronze,NF,C,490741,490741,488912,490024,488912,491190,490541,490541,491190,110
110,test,1,con,1,z,Tue Feb 18 2025 13:32:54 GMT-0600 (Central Standard Time),497832.40000000596,cherry,1000,I,z,z,None,860,655.0,205.0,11,1,2477.9000000059605,495354.5,8016,cherry,NF,C,493007,493007,491195,492207,491195,493672,492801,492801,493672,111
111,test,1,con,1,z,Tue Feb 18 2025 13:32:54 GMT-0600 (Central Standard Time),500082.200000003,plum,1000,I,z,z,None,703,504.0,199.0,59,1,2245.2000000029802,497837.0,8016,plum,NF,C,495406,495406,493677,494690,493677,495922,495206,495206,495922,112
112,test,1,inc,1,m,Tue Feb 18 2025 13:32:54 GMT-0600 (Central Standard Time),502381.200000003,raisin,1100,I,m,m,None,659,459.0,200.0,88,1,2295.2000000029802,500086.0,8016,silver,NF,C,497755,497755,495926,497039,495926,498221,497555,497555,498221,113
113,test,1,con,1,z,Tue Feb 18 2025 13:32:54 GMT-0600 (Central Standard Time),504414.0,lime,800,I,z,z,None,691,490.0,201.0,33,1,2027.0999999940395,502386.90000000596,8016,lime,NF,C,499756,499756,498227,499038,498227,500254,499555,499555,500254,114
114,test,1,inc,1,z,Tue Feb 18 2025 13:32:54 GMT-0600 (Central Standard Time),506713.5,silver,1000,I,z,z,None,761,562.0,199.0,31,1,2295.0999999940395,504418.40000000596,8016,raisin,NF,C,501988,501988,500258,501271,500259,502554,501787,501788,502553,115
115,test,1,con,1,z,Tue Feb 18 2025 13:32:54 GMT-0600 (Central Standard Time),509246.0,pear,800,I,z,z,None,1183,984.0,199.0,41,1,2528.5999999940395,506717.40000000596,8016,pear,NF,C,504086,504086,502557,503370,502558,505086,503887,503887,505086,116
116,test,1,inc,1,m,Tue Feb 18 2025 13:32:54 GMT-0600 (Central Standard Time),511428.40000000596,cherry,900,I,m,m,None,735,535.0,200.0,94,1,2178.7999999970198,509249.60000000894,8016,cobalt,NF,C,506719,506719,505090,506003,505090,507269,506519,506519,507268,117
117,test,1,inc,1,z,Tue Feb 18 2025 13:32:54 GMT-0600 (Central Standard Time),513544.5,bronze,800,I,z,z,None,780,579.0,201.0,5,1,2112.199999988079,511432.3000000119,8016,banana,NF,C,508803,508803,507272,508085,507273,509385,508602,508602,509385,118
118,test,1,inc,1,m,Tue Feb 18 2025 13:32:54 GMT-0600 (Central Standard Time),515977.3000000119,kiwi,1000,I,m,m,None,888,688.0,200.0,127,1,2428.9000000059605,513548.40000000596,8016,lead,NF,C,511118,511118,509388,510403,509389,511817,510918,510918,511817,119
119,test,1,con,1,m,Tue Feb 18 2025 13:32:54 GMT-0600 (Central Standard Time),518393.3000000119,iron,1100,I,m,m,None,773,573.0,200.0,108,1,2412.300000011921,515981.0,8016,iron,NF,C,513650,513650,511821,512934,511821,514233,513450,513450,514233,120
120,test,1,inc,1,z,Tue Feb 18 2025 13:32:54 GMT-0600 (Central Standard Time),520659.40000000596,copper,900,I,z,z,None,828,628.0,200.0,14,1,2262.5,518396.90000000596,8016,cherry,NF,C,515866,515866,514237,515150,514237,516499,515666,515666,516499,121
121,test,1,con,1,z,Tue Feb 18 2025 13:32:54 GMT-0600 (Central Standard Time),522958.3000000119,raisin,900,I,z,z,None,857,658.0,199.0,26,1,2294.6000000089407,520663.700000003,8016,raisin,NF,C,518132,518132,516504,517416,516504,518798,517933,517933,518798,122
122,test,1,inc,1,m,Tue Feb 18 2025 13:32:54 GMT-0600 (Central Standard Time),524974.400000006,banana,800,I,m,m,None,665,466.0,199.0,77,1,2012.0999999940395,522962.3000000119,8016,copper,NF,C,520332,520332,518802,519615,518803,520814,520132,520132,520814,123
123,test,1,inc,1,z,Tue Feb 18 2025 13:32:54 GMT-0600 (Central Standard Time),527257.0,cobalt,1100,I,z,z,None,638,439.0,199.0,24,1,2278.7999999970198,524978.200000003,8016,orange,NF,C,522647,522647,520818,521931,520819,523097,522448,522448,523097,124
124,test,1,con,1,m,Tue Feb 18 2025 13:32:54 GMT-0600 (Central Standard Time),529589.6000000089,copper,1000,I,m,m,None,784,584.0,200.0,75,1,2328.7999999970198,527260.8000000119,8016,copper,NF,C,524830,524830,523101,524114,523101,525430,524630,524630,525430,125
125,test,1,con,1,m,Tue Feb 18 2025 13:32:54 GMT-0600 (Central Standard Time),531605.6000000089,cobalt,800,I,m,m,None,674,475.0,199.0,89,1,2012.1000000089407,529593.5,8016,cobalt,NF,C,526963,526963,525434,526247,525434,527446,526763,526763,527446,126
126,test,1,inc,1,z,Tue Feb 18 2025 13:32:54 GMT-0600 (Central Standard Time),533755.1000000089,iron,900,I,z,z,None,702,503.0,199.0,62,1,2145.6000000089407,531609.5,8016,plum,NF,C,529079,529079,527449,528363,527450,529595,528879,528879,529595,127
127,test,1,con,1,z,Tue Feb 18 2025 13:32:54 GMT-0600 (Central Standard Time),535854.400000006,kiwi,900,I,z,z,None,650,450.0,200.0,50,1,2095.5,533758.900000006,8016,kiwi,NF,C,531228,531228,529599,530512,529599,531694,531028,531028,531694,128
