acc_sum,block,block_c,change,condition,correct,correct_response,datetime,endtime,face,project,response,response_time,row_sel,session_number,start_end,starttime,subject_id,task,task_vers,trial
0,prac,1,,1-Back,,,Thu Apr 03 2025 14:06:11 GMT-0500 (Central Daylight Time),,124_o_f_d_a.png,O,space,10578,1,1,,,7113,VNB,A,0
1,prac,1,0.0,1-Back,1,m,Thu Apr 03 2025 14:06:11 GMT-0500 (Central Daylight Time),169875.09999996424,071_y_f_n_a.png,O,m,1110,2,1,1928.300000011921,167946.79999995232,7113,VNB,A,1
2,prac,1,0.0,1-Back,1,m,Thu Apr 03 2025 14:06:11 GMT-0500 (Central Daylight Time),171740.79999995232,165_m_m_h_a.png,O,m,1000,3,1,1824.0999999642372,169916.69999998808,7113,VNB,A,2
3,prac,1,0.0,1-Back,1,m,Thu Apr 03 2025 14:06:11 GMT-0500 (Central Daylight Time),173456.79999995232,109_y_m_d_a.png,O,m,843,4,1,1676.5999999642372,171780.19999998808,7113,VNB,A,3
3,prac,1,0.0,1-Back,0,m,Thu Apr 03 2025 14:06:11 GMT-0500 (Central Daylight Time),175488.59999996424,124_o_f_n_a.png,O,z,1119,5,1,1994.5,173494.09999996424,7113,VNB,A,4
4,prac,1,1.0,1-Back,1,z,Thu Apr 03 2025 14:06:11 GMT-0500 (Central Daylight Time),177621.89999997616,109_y_m_n_a.png,O,z,1307,6,1,2121.699999988079,175500.19999998808,7113,VNB,A,5
5,prac,1,0.0,1-Back,1,m,Thu Apr 03 2025 14:06:11 GMT-0500 (Central Daylight Time),179288.0,039_o_m_h_a.png,O,m,804,7,1,1626.1000000238419,177661.89999997616,7113,VNB,A,6
5,prac,1,0.0,1-Back,0,m,Thu Apr 03 2025 14:06:11 GMT-0500 (Central Daylight Time),181154.0,139_m_f_d_a.png,O,z,1016,8,1,1834.7000000476837,179319.29999995232,7113,VNB,A,7
6,prac,1,1.0,1-Back,1,z,Thu Apr 03 2025 14:06:11 GMT-0500 (Central Daylight Time),183519.89999997616,071_y_f_d_a.png,O,z,1514,9,1,2338.699999988079,181181.19999998808,7113,VNB,A,8
6,prac,1,0.0,1-Back,0,m,Thu Apr 03 2025 14:06:11 GMT-0500 (Central Daylight Time),186202.29999995232,165_m_m_n_a.png,O,z,1808,10,1,2655.0,183547.29999995232,7113,VNB,A,9
6,prac,1,0.0,1-Back,0,m,Thu Apr 03 2025 14:06:11 GMT-0500 (Central Daylight Time),189101.29999995232,124_o_f_h_a.png,O,None,2015,11,1,2859.699999988079,186241.59999996424,7113,VNB,A,10
7,prac,1,0.0,1-Back,1,m,Thu Apr 03 2025 14:06:11 GMT-0500 (Central Daylight Time),191334.09999996424,109_y_m_d_a.png,O,m,1426,12,1,2205.0,189129.09999996424,7113,VNB,A,11
0,prac,2,0.0,1-Back,,,Thu Apr 03 2025 14:06:11 GMT-0500 (Central Daylight Time),191334.09999996424,124_o_f_d_a.png,O,a,9735,1,1,2205.0,189129.09999996424,7113,VNB,A,0
1,prac,2,0.0,1-Back,1,m,Thu Apr 03 2025 14:06:11 GMT-0500 (Central Daylight Time),206629.19999998808,071_y_f_n_a.png,O,m,1613,2,1,2444.100000023842,204185.09999996424,7113,VNB,A,1
2,prac,2,0.0,1-Back,1,m,Thu Apr 03 2025 14:06:11 GMT-0500 (Central Daylight Time),208628.79999995232,165_m_m_h_a.png,O,m,1124,3,1,1959.7999999523163,206669.0,7113,VNB,A,2
3,prac,2,0.0,1-Back,1,m,Thu Apr 03 2025 14:06:11 GMT-0500 (Central Daylight Time),210394.79999995232,109_y_m_d_a.png,O,m,969,4,1,1737.0,208657.79999995232,7113,VNB,A,3
4,prac,2,0.0,1-Back,1,m,Thu Apr 03 2025 14:06:11 GMT-0500 (Central Daylight Time),212293.79999995232,124_o_f_n_a.png,O,m,998,5,1,1867.7999999523163,210426.0,7113,VNB,A,4
5,prac,2,1.0,1-Back,1,z,Thu Apr 03 2025 14:06:11 GMT-0500 (Central Daylight Time),214476.59999996424,109_y_m_n_a.png,O,z,1330,6,1,2160.0,212316.59999996424,7113,VNB,A,5
6,prac,2,0.0,1-Back,1,m,Thu Apr 03 2025 14:06:11 GMT-0500 (Central Daylight Time),216442.5,039_o_m_h_a.png,O,m,1101,7,1,1933.300000011921,214509.19999998808,7113,VNB,A,6
7,prac,2,0.0,1-Back,1,m,Thu Apr 03 2025 14:06:11 GMT-0500 (Central Daylight Time),218191.19999998808,139_m_f_d_a.png,O,m,890,8,1,1710.6000000238419,216480.59999996424,7113,VNB,A,7
8,prac,2,1.0,1-Back,1,z,Thu Apr 03 2025 14:06:11 GMT-0500 (Central Daylight Time),220374.79999995232,071_y_f_d_a.png,O,z,1362,9,1,2172.199999988079,218202.59999996424,7113,VNB,A,8
9,prac,2,0.0,1-Back,1,m,Thu Apr 03 2025 14:06:11 GMT-0500 (Central Daylight Time),222324.0,165_m_m_n_a.png,O,m,1090,10,1,1912.1000000238419,220411.89999997616,7113,VNB,A,9
10,prac,2,0.0,1-Back,1,m,Thu Apr 03 2025 14:06:11 GMT-0500 (Central Daylight Time),224774.29999995232,124_o_f_h_a.png,O,m,1561,11,1,2412.599999964237,222361.69999998808,7113,VNB,A,10
10,prac,2,0.0,1-Back,0,m,Thu Apr 03 2025 14:06:11 GMT-0500 (Central Daylight Time),227055.89999997616,109_y_m_d_a.png,O,z,1481,12,1,2254.300000011921,224801.59999996424,7113,VNB,A,11
0,test,1,0.0,1-Back,,,Thu Apr 03 2025 14:06:11 GMT-0500 (Central Daylight Time),227055.89999997616,071_y_f_d_a.png,O,space,11871,1,1,2254.300000011921,224801.59999996424,7113,VNB,A,0
1,test,1,0.0,1-Back,1,m,Thu Apr 03 2025 14:06:11 GMT-0500 (Central Daylight Time),249933.09999996424,139_m_f_n_a.png,O,m,999,2,1,2016.0,247917.09999996424,7113,VNB,A,1
2,test,1,0.0,1-Back,1,m,Thu Apr 03 2025 14:06:11 GMT-0500 (Central Daylight Time),251864.5,039_o_m_h_a.png,O,m,886,3,1,1901.7000000476837,249962.79999995232,7113,VNB,A,2
3,test,1,1.0,1-Back,1,z,Thu Apr 03 2025 14:06:11 GMT-0500 (Central Daylight Time),253930.0,165_m_m_h_a.png,O,z,1001,4,1,2032.300000011921,251897.69999998808,7113,VNB,A,3
4,test,1,0.0,1-Back,1,m,Thu Apr 03 2025 14:06:11 GMT-0500 (Central Daylight Time),256029.69999998808,124_o_f_n_a.png,O,m,1055,5,1,2071.199999988079,253958.5,7113,VNB,A,4
5,test,1,0.0,1-Back,1,m,Thu Apr 03 2025 14:06:11 GMT-0500 (Central Daylight Time),258445.5,109_y_m_d_a.png,O,m,1380,6,1,2388.300000011921,256057.19999998808,7113,VNB,A,5
6,test,1,1.0,1-Back,1,z,Thu Apr 03 2025 14:06:11 GMT-0500 (Central Daylight Time),260628.0,139_m_f_d_a.png,O,z,1124,7,1,2147.5,258480.5,7113,VNB,A,6
7,test,1,0.0,1-Back,1,m,Thu Apr 03 2025 14:06:11 GMT-0500 (Central Daylight Time),262993.89999997616,071_y_f_h_a.png,O,m,1301,8,1,2332.600000023842,260661.29999995232,7113,VNB,A,7
8,test,1,0.0,1-Back,1,m,Thu Apr 03 2025 14:06:11 GMT-0500 (Central Daylight Time),265709.2999999523,039_o_m_n_a.png,O,m,1663,9,1,2681.599999964237,263027.6999999881,7113,VNB,A,8
9,test,1,0.0,1-Back,1,m,Thu Apr 03 2025 14:06:11 GMT-0500 (Central Daylight Time),268042.39999997616,109_y_m_h_a.png,O,m,1275,10,1,2301.100000023842,265741.2999999523,7113,VNB,A,9
10,test,1,0.0,1-Back,1,m,Thu Apr 03 2025 14:06:11 GMT-0500 (Central Daylight Time),270058.2999999523,039_o_m_d_a.png,O,m,950,11,1,1981.699999988079,268076.59999996424,7113,VNB,A,10
11,test,1,1.0,1-Back,1,z,Thu Apr 03 2025 14:06:11 GMT-0500 (Central Daylight Time),272356.59999996424,124_o_f_d_a.png,O,z,1238,12,1,2266.399999976158,270090.1999999881,7113,VNB,A,11
12,test,1,0.0,1-Back,1,m,Thu Apr 03 2025 14:06:11 GMT-0500 (Central Daylight Time),274356.7999999523,165_m_m_n_a.png,O,m,973,13,1,1991.199999988079,272365.59999996424,7113,VNB,A,12
13,test,1,1.0,1-Back,1,z,Thu Apr 03 2025 14:06:11 GMT-0500 (Central Daylight Time),276756.89999997616,071_y_f_n_a.png,O,z,1365,14,1,2371.699999988079,274385.1999999881,7113,VNB,A,13
14,test,1,0.0,1-Back,1,m,Thu Apr 03 2025 14:06:11 GMT-0500 (Central Daylight Time),278722.5,139_m_f_h_a.png,O,m,918,15,1,1938.6000000238419,276783.89999997616,7113,VNB,A,14
15,test,1,0.0,1-Back,1,m,Thu Apr 03 2025 14:06:11 GMT-0500 (Central Daylight Time),281087.89999997616,165_m_m_d_a.png,O,m,1311,16,1,2332.800000011921,278755.09999996424,7113,VNB,A,15
16,test,1,0.0,1-Back,1,m,Thu Apr 03 2025 14:06:11 GMT-0500 (Central Daylight Time),283070.2999999523,109_y_m_n_a.png,O,m,929,17,1,1949.0999999642372,281121.1999999881,7113,VNB,A,16
17,test,1,0.0,1-Back,1,m,Thu Apr 03 2025 14:06:11 GMT-0500 (Central Daylight Time),285086.1999999881,124_o_f_h_a.png,O,m,962,18,1,1983.6000000238419,283102.59999996424,7113,VNB,A,17
0,test,2,0.0,1-Back,,,Thu Apr 03 2025 14:06:11 GMT-0500 (Central Daylight Time),285086.1999999881,109_y_m_n_a.png,O,space,1924,1,1,1983.6000000238419,283102.59999996424,7113,VNB,A,0
1,test,2,0.0,1-Back,1,m,Thu Apr 03 2025 14:06:11 GMT-0500 (Central Daylight Time),291934.6999999881,071_y_f_h_a.png,O,m,1837,2,1,2852.199999988079,289082.5,7113,VNB,A,1
2,test,2,1.0,1-Back,1,m,Thu Apr 03 2025 14:06:11 GMT-0500 (Central Daylight Time),293767.09999996424,039_o_m_n_a.png,O,m,787,3,1,1803.699999988079,291963.39999997616,7113,VNB,A,2
3,test,2,0.0,1-Back,1,m,Thu Apr 03 2025 14:06:11 GMT-0500 (Central Daylight Time),295983.09999996424,139_m_f_d_a.png,O,m,1170,4,1,2189.5,293793.59999996424,7113,VNB,A,3
3,test,2,0.0,1-Back,0,z,Thu Apr 03 2025 14:06:11 GMT-0500 (Central Daylight Time),298448.89999997616,165_m_m_d_a.png,O,m,1426,5,1,2436.699999988079,296012.1999999881,7113,VNB,A,4
4,test,2,0.0,1-Back,1,m,Thu Apr 03 2025 14:06:11 GMT-0500 (Central Daylight Time),300881.39999997616,109_y_m_h_a.png,O,m,1392,6,1,2405.600000023842,298475.7999999523,7113,VNB,A,5
5,test,2,1.0,1-Back,1,z,Thu Apr 03 2025 14:06:11 GMT-0500 (Central Daylight Time),303447.39999997616,124_o_f_h_a.png,O,z,1528,7,1,2539.699999988079,300907.6999999881,7113,VNB,A,6
6,test,2,0.0,1-Back,1,m,Thu Apr 03 2025 14:06:11 GMT-0500 (Central Daylight Time),305746.7999999523,139_m_f_n_a.png,O,m,1233,8,1,2267.199999988079,303479.59999996424,7113,VNB,A,7
7,test,2,0.0,1-Back,1,m,Thu Apr 03 2025 14:06:11 GMT-0500 (Central Daylight Time),308128.59999996424,071_y_f_d_a.png,O,m,1325,9,1,2349.0,305779.59999996424,7113,VNB,A,8
8,test,2,0.0,1-Back,1,m,Thu Apr 03 2025 14:06:11 GMT-0500 (Central Daylight Time),310111.59999996424,165_m_m_n_a.png,O,m,937,10,1,1963.8999999761581,308147.6999999881,7113,VNB,A,9
9,test,2,1.0,1-Back,1,m,Thu Apr 03 2025 14:06:11 GMT-0500 (Central Daylight Time),312261.1999999881,139_m_f_h_a.png,O,m,1106,11,1,2119.5,310141.6999999881,7113,VNB,A,10
9,test,2,0.0,1-Back,0,z,Thu Apr 03 2025 14:06:11 GMT-0500 (Central Daylight Time),315310.1999999881,039_o_m_h_a.png,O,None,2014,12,1,3026.0,312284.1999999881,7113,VNB,A,11
10,test,2,0.0,1-Back,1,m,Thu Apr 03 2025 14:06:11 GMT-0500 (Central Daylight Time),317542.6999999881,109_y_m_d_a.png,O,m,1188,13,1,2207.100000023842,315335.59999996424,7113,VNB,A,12
11,test,2,0.0,1-Back,1,m,Thu Apr 03 2025 14:06:11 GMT-0500 (Central Daylight Time),319741.7999999523,124_o_f_n_a.png,O,m,1146,14,1,2166.2999999523163,317575.5,7113,VNB,A,13
12,test,2,0.0,1-Back,1,z,Thu Apr 03 2025 14:06:11 GMT-0500 (Central Daylight Time),322257.59999996424,071_y_f_n_a.png,O,z,1467,15,1,2483.899999976158,319773.6999999881,7113,VNB,A,14
13,test,2,1.0,1-Back,1,m,Thu Apr 03 2025 14:06:11 GMT-0500 (Central Daylight Time),324557.1999999881,165_m_m_h_a.png,O,m,1247,16,1,2265.699999988079,322291.5,7113,VNB,A,15
14,test,2,0.0,1-Back,1,m,Thu Apr 03 2025 14:06:11 GMT-0500 (Central Daylight Time),326556.39999997616,124_o_f_d_a.png,O,m,956,17,1,1974.199999988079,324582.1999999881,7113,VNB,A,16
14,test,2,1.0,1-Back,0,z,Thu Apr 03 2025 14:06:11 GMT-0500 (Central Daylight Time),328838.89999997616,039_o_m_d_a.png,O,m,1245,18,1,2255.5,326583.39999997616,7113,VNB,A,17
0,test,3,1.0,1-Back,,,Thu Apr 03 2025 14:06:11 GMT-0500 (Central Daylight Time),328838.89999997616,124_o_f_h_a.png,O,space,1443,1,1,2255.5,326583.39999997616,7113,VNB,A,0
1,test,3,0.0,1-Back,1,m,Thu Apr 03 2025 14:06:11 GMT-0500 (Central Daylight Time),334520.5,139_m_f_d_a.png,O,m,1077,2,1,2085.800000011921,332434.6999999881,7113,VNB,A,1
2,test,3,1.0,1-Back,1,m,Thu Apr 03 2025 14:06:11 GMT-0500 (Central Daylight Time),336869.6999999881,165_m_m_n_a.png,O,m,1288,3,1,2314.100000023842,334555.59999996424,7113,VNB,A,2
3,test,3,0.0,1-Back,1,z,Thu Apr 03 2025 14:06:11 GMT-0500 (Central Daylight Time),339085.5,124_o_f_n_a.png,O,z,1172,4,1,2184.400000035763,336901.09999996424,7113,VNB,A,3
4,test,3,1.0,1-Back,1,m,Thu Apr 03 2025 14:06:11 GMT-0500 (Central Daylight Time),341118.2999999523,039_o_m_d_a.png,O,m,971,5,1,1997.0,339121.2999999523,7113,VNB,A,4
5,test,3,0.0,1-Back,1,m,Thu Apr 03 2025 14:06:11 GMT-0500 (Central Daylight Time),343134.1999999881,071_y_f_h_a.png,O,m,955,6,1,1982.800000011921,341151.39999997616,7113,VNB,A,5
6,test,3,0.0,1-Back,1,z,Thu Apr 03 2025 14:06:11 GMT-0500 (Central Daylight Time),345267.0,109_y_m_h_a.png,O,z,1066,7,1,2097.5,343169.5,7113,VNB,A,6
7,test,3,0.0,1-Back,1,m,Thu Apr 03 2025 14:06:11 GMT-0500 (Central Daylight Time),347316.5,139_m_f_n_a.png,O,m,982,8,1,2016.5,345300.0,7113,VNB,A,7
8,test,3,0.0,1-Back,1,m,Thu Apr 03 2025 14:06:11 GMT-0500 (Central Daylight Time),349282.09999996424,071_y_f_d_a.png,O,m,917,9,1,1938.5,347343.59999996424,7113,VNB,A,8
9,test,3,1.0,1-Back,1,m,Thu Apr 03 2025 14:06:11 GMT-0500 (Central Daylight Time),351498.1999999881,039_o_m_n_a.png,O,m,1150,10,1,2181.800000011921,349316.39999997616,7113,VNB,A,9
10,test,3,0.0,1-Back,1,m,Thu Apr 03 2025 14:06:11 GMT-0500 (Central Daylight Time),353964.59999996424,165_m_m_h_a.png,O,m,1415,11,1,2432.800000011921,351531.7999999523,7113,VNB,A,10
11,test,3,0.0,1-Back,1,z,Thu Apr 03 2025 14:06:11 GMT-0500 (Central Daylight Time),356063.2999999523,139_m_f_h_a.png,O,z,1045,12,1,2061.7999999523163,354001.5,7113,VNB,A,11
12,test,3,1.0,1-Back,1,m,Thu Apr 03 2025 14:06:11 GMT-0500 (Central Daylight Time),357929.59999996424,124_o_f_d_a.png,O,m,809,13,1,1831.3999999761581,356098.1999999881,7113,VNB,A,12
13,test,3,0.0,1-Back,1,z,Thu Apr 03 2025 14:06:11 GMT-0500 (Central Daylight Time),360345.1999999881,165_m_m_d_a.png,O,z,1359,14,1,2382.100000023842,357963.09999996424,7113,VNB,A,13
14,test,3,0.0,1-Back,1,m,Thu Apr 03 2025 14:06:11 GMT-0500 (Central Daylight Time),362577.7999999523,109_y_m_n_a.png,O,m,1177,15,1,2193.199999988079,360384.59999996424,7113,VNB,A,14
15,test,3,1.0,1-Back,1,m,Thu Apr 03 2025 14:06:11 GMT-0500 (Central Daylight Time),364877.39999997616,039_o_m_h_a.png,O,m,1247,16,1,2266.199999988079,362611.1999999881,7113,VNB,A,15
16,test,3,0.0,1-Back,1,m,Thu Apr 03 2025 14:06:11 GMT-0500 (Central Daylight Time),367326.1999999881,109_y_m_d_a.png,O,m,1388,17,1,2414.0,364912.1999999881,7113,VNB,A,16
17,test,3,1.0,1-Back,1,m,Thu Apr 03 2025 14:06:11 GMT-0500 (Central Daylight Time),369509.7999999523,071_y_f_n_a.png,O,m,1148,18,1,2156.2999999523163,367353.5,7113,VNB,A,17
0,test,4,1.0,1-Back,,,Thu Apr 03 2025 14:06:11 GMT-0500 (Central Daylight Time),369509.7999999523,165_m_m_d_a.png,O,space,1460,1,1,2156.2999999523163,367353.5,7113,VNB,A,0
1,test,4,0.0,1-Back,1,z,Thu Apr 03 2025 14:06:11 GMT-0500 (Central Daylight Time),375390.2999999523,039_o_m_d_a.png,O,z,1354,2,1,2369.0,373021.2999999523,7113,VNB,A,1
2,test,4,0.0,1-Back,1,m,Thu Apr 03 2025 14:06:11 GMT-0500 (Central Daylight Time),377956.09999996424,109_y_m_h_a.png,O,m,1506,3,1,2532.899999976158,375423.1999999881,7113,VNB,A,2
3,test,4,0.0,1-Back,1,m,Thu Apr 03 2025 14:06:11 GMT-0500 (Central Daylight Time),379972.1999999881,139_m_f_n_a.png,O,m,966,4,1,1988.199999988079,377984.0,7113,VNB,A,3
4,test,4,1.0,1-Back,1,m,Thu Apr 03 2025 14:06:11 GMT-0500 (Central Daylight Time),382005.7999999523,124_o_f_h_a.png,O,m,982,5,1,1999.0,380006.7999999523,7113,VNB,A,4
5,test,4,0.0,1-Back,1,m,Thu Apr 03 2025 14:06:11 GMT-0500 (Central Daylight Time),384337.1999999881,165_m_m_n_a.png,O,m,1283,6,1,2308.800000011921,382028.39999997616,7113,VNB,A,5
6,test,4,0.0,1-Back,1,m,Thu Apr 03 2025 14:06:11 GMT-0500 (Central Daylight Time),386320.09999996424,109_y_m_d_a.png,O,m,936,7,1,1955.8999999761581,384364.1999999881,7113,VNB,A,6
6,test,4,1.0,1-Back,0,z,Thu Apr 03 2025 14:06:11 GMT-0500 (Central Daylight Time),388285.7999999523,071_y_f_d_a.png,O,m,930,8,1,1940.2999999523163,386345.5,7113,VNB,A,7
7,test,4,0.0,1-Back,1,m,Thu Apr 03 2025 14:06:11 GMT-0500 (Central Daylight Time),390252.2999999523,139_m_f_h_a.png,O,m,899,9,1,1932.7999999523163,388319.5,7113,VNB,A,8
8,test,4,0.0,1-Back,1,z,Thu Apr 03 2025 14:06:11 GMT-0500 (Central Daylight Time),392068.09999996424,039_o_m_h_a.png,O,z,774,10,1,1789.0999999642372,390279.0,7113,VNB,A,9
9,test,4,1.0,1-Back,1,m,Thu Apr 03 2025 14:06:11 GMT-0500 (Central Daylight Time),393917.09999996424,124_o_f_n_a.png,O,m,791,11,1,1816.800000011921,392100.2999999523,7113,VNB,A,10
10,test,4,0.0,1-Back,1,m,Thu Apr 03 2025 14:06:11 GMT-0500 (Central Daylight Time),396483.59999996424,139_m_f_d_a.png,O,m,1515,12,1,2547.699999988079,393935.89999997616,7113,VNB,A,11
11,test,4,0.0,1-Back,1,m,Thu Apr 03 2025 14:06:11 GMT-0500 (Central Daylight Time),399465.7999999523,071_y_f_n_a.png,O,m,1942,13,1,2952.699999988079,396513.09999996424,7113,VNB,A,12
12,test,4,0.0,1-Back,1,m,Thu Apr 03 2025 14:06:11 GMT-0500 (Central Daylight Time),401711.2999999523,124_o_f_d_a.png,O,m,1177,14,1,2222.699999988079,399488.59999996424,7113,VNB,A,13
13,test,4,0.0,1-Back,1,m,Thu Apr 03 2025 14:06:11 GMT-0500 (Central Daylight Time),403948.89999997616,071_y_f_h_a.png,O,m,1199,15,1,2218.5,401730.39999997616,7113,VNB,A,14
14,test,4,1.0,1-Back,1,z,Thu Apr 03 2025 14:06:11 GMT-0500 (Central Daylight Time),406413.5,165_m_m_h_a.png,O,z,1405,16,1,2431.300000011921,403982.1999999881,7113,VNB,A,15
15,test,4,0.0,1-Back,1,m,Thu Apr 03 2025 14:06:11 GMT-0500 (Central Daylight Time),408462.7999999523,039_o_m_n_a.png,O,m,1012,17,1,2019.8999999761581,406442.89999997616,7113,VNB,A,16
16,test,4,1.0,1-Back,1,z,Thu Apr 03 2025 14:06:11 GMT-0500 (Central Daylight Time),410878.5,109_y_m_n_a.png,O,z,1379,18,1,2390.800000011921,408487.6999999881,7113,VNB,A,17
0,test,5,1.0,1-Back,,,Thu Apr 03 2025 14:06:11 GMT-0500 (Central Daylight Time),410878.5,039_o_m_n_a.png,O,space,1540,1,1,2390.800000011921,408487.6999999881,7113,VNB,A,0
1,test,5,1.0,1-Back,1,m,Thu Apr 03 2025 14:06:11 GMT-0500 (Central Daylight Time),416676.89999997616,124_o_f_h_a.png,O,m,1173,2,1,2190.800000011921,414486.09999996424,7113,VNB,A,1
2,test,5,0.0,1-Back,1,m,Thu Apr 03 2025 14:06:11 GMT-0500 (Central Daylight Time),418726.0,109_y_m_d_a.png,O,m,1013,3,1,2021.300000011921,416704.6999999881,7113,VNB,A,2
3,test,5,0.0,1-Back,1,z,Thu Apr 03 2025 14:06:11 GMT-0500 (Central Daylight Time),421192.0,039_o_m_d_a.png,O,z,1428,4,1,2440.300000011921,418751.6999999881,7113,VNB,A,3
4,test,5,0.0,1-Back,1,m,Thu Apr 03 2025 14:06:11 GMT-0500 (Central Daylight Time),423174.59999996424,139_m_f_h_a.png,O,m,929,5,1,1947.199999988079,421227.39999997616,7113,VNB,A,4
5,test,5,0.0,1-Back,1,m,Thu Apr 03 2025 14:06:11 GMT-0500 (Central Daylight Time),425074.0,071_y_f_n_a.png,O,m,842,6,1,1866.4000000357628,423207.59999996424,7113,VNB,A,5
5,test,5,1.0,1-Back,0,z,Thu Apr 03 2025 14:06:11 GMT-0500 (Central Daylight Time),427073.09999996424,124_o_f_n_a.png,O,m,959,7,1,1970.0,425103.09999996424,7113,VNB,A,6
6,test,5,0.0,1-Back,1,m,Thu Apr 03 2025 14:06:11 GMT-0500 (Central Daylight Time),429222.5,139_m_f_d_a.png,O,m,1088,8,1,2114.7000000476837,427107.7999999523,7113,VNB,A,7
7,test,5,0.0,1-Back,1,m,Thu Apr 03 2025 14:06:11 GMT-0500 (Central Daylight Time),431295.39999997616,109_y_m_h_a.png,O,m,1026,9,1,2045.8999999761581,429249.5,7113,VNB,A,8
8,test,5,0.0,1-Back,1,m,Thu Apr 03 2025 14:06:11 GMT-0500 (Central Daylight Time),433221.59999996424,071_y_f_d_a.png,O,m,898,10,1,1912.800000011921,431308.7999999523,7113,VNB,A,9
9,test,5,0.0,1-Back,1,m,Thu Apr 03 2025 14:06:11 GMT-0500 (Central Daylight Time),435304.0,165_m_m_n_a.png,O,m,1028,11,1,2050.400000035763,433253.59999996424,7113,VNB,A,10
10,test,5,1.0,1-Back,1,z,Thu Apr 03 2025 14:06:11 GMT-0500 (Central Daylight Time),437286.7999999523,139_m_f_n_a.png,O,z,932,12,1,1953.699999988079,435333.09999996424,7113,VNB,A,11
11,test,5,0.0,1-Back,1,m,Thu Apr 03 2025 14:06:11 GMT-0500 (Central Daylight Time),439268.6999999881,039_o_m_h_a.png,O,m,946,13,1,1954.6000000238419,437314.09999996424,7113,VNB,A,12
12,test,5,0.0,1-Back,1,z,Thu Apr 03 2025 14:06:11 GMT-0500 (Central Daylight Time),441368.6999999881,165_m_m_h_a.png,O,z,1052,14,1,2079.300000011921,439289.39999997616,7113,VNB,A,13
13,test,5,1.0,1-Back,1,m,Thu Apr 03 2025 14:06:11 GMT-0500 (Central Daylight Time),443285.5,124_o_f_d_a.png,O,m,882,15,1,1890.6000000238419,441394.89999997616,7113,VNB,A,14
14,test,5,0.0,1-Back,1,m,Thu Apr 03 2025 14:06:11 GMT-0500 (Central Daylight Time),445967.09999996424,109_y_m_n_a.png,O,m,1645,16,1,2653.5,443313.59999996424,7113,VNB,A,15
14,test,5,0.0,1-Back,0,m,Thu Apr 03 2025 14:06:11 GMT-0500 (Central Daylight Time),449015.5,071_y_f_h_a.png,O,None,2014,17,1,3024.2000000476837,445991.2999999523,7113,VNB,A,16
15,test,5,0.0,1-Back,1,m,Thu Apr 03 2025 14:06:11 GMT-0500 (Central Daylight Time),451032.89999997616,165_m_m_d_a.png,O,m,986,18,1,2007.8999999761581,449025.0,7113,VNB,A,17
0,prac,1,0.0,2-Back,,,Thu Apr 03 2025 14:06:11 GMT-0500 (Central Daylight Time),451032.89999997616,139_m_f_n_a.png,O,space,14182,1,1,2007.8999999761581,449025.0,7113,VNB,A,0
0,prac,1,0.0,2-Back,,,Thu Apr 03 2025 14:06:11 GMT-0500 (Central Daylight Time),451032.89999997616,124_o_f_h_a.png,O,space,14182,2,1,2007.8999999761581,449025.0,7113,VNB,A,0
1,prac,1,0.0,2-Back,1,m,Thu Apr 03 2025 14:06:11 GMT-0500 (Central Daylight Time),572109.7999999523,039_o_m_d_a.png,O,m,1778,3,1,2592.0,569517.7999999523,7113,VNB,A,1
1,prac,1,1.0,2-Back,0,z,Thu Apr 03 2025 14:06:11 GMT-0500 (Central Daylight Time),574975.2999999523,165_m_m_h_a.png,O,None,2005,4,1,2837.599999964237,572137.6999999881,7113,VNB,A,2
1,prac,1,0.0,2-Back,0,m,Thu Apr 03 2025 14:06:11 GMT-0500 (Central Daylight Time),577857.0999999642,071_y_f_n_a.png,O,None,2005,5,1,2843.599999964237,575013.5,7113,VNB,A,3
1,prac,1,1.0,2-Back,0,z,Thu Apr 03 2025 14:06:11 GMT-0500 (Central Daylight Time),580722.6999999881,039_o_m_h_a.png,O,None,2014,6,1,2827.199999988079,577895.5,7113,VNB,A,4
1,prac,1,1.0,2-Back,0,z,Thu Apr 03 2025 14:06:11 GMT-0500 (Central Daylight Time),582922.5999999642,109_y_m_n_a.png,O,m,1349,7,1,2172.699999988079,580749.8999999762,7113,VNB,A,5
2,prac,1,0.0,2-Back,1,m,Thu Apr 03 2025 14:06:11 GMT-0500 (Central Daylight Time),585304.1999999881,139_m_f_d_a.png,O,m,1498,8,1,2341.800000011921,582962.3999999762,7113,VNB,A,6
2,prac,1,0.0,2-Back,0,m,Thu Apr 03 2025 14:06:11 GMT-0500 (Central Daylight Time),588186.5999999642,124_o_f_d_a.png,O,None,2004,9,1,2862.599999964237,585324.0,7113,VNB,A,7
2,prac,1,0.0,2-Back,0,m,Thu Apr 03 2025 14:06:11 GMT-0500 (Central Daylight Time),590203.1999999881,165_m_m_h_a.png,O,z,1186,10,1,1993.0,588210.1999999881,7113,VNB,A,8
2,prac,1,1.0,2-Back,0,z,Thu Apr 03 2025 14:06:11 GMT-0500 (Central Daylight Time),592969.2999999523,071_y_f_d_a.png,O,m,1907,11,1,2738.7999999523163,590230.5,7113,VNB,A,9
2,prac,1,0.0,2-Back,0,m,Thu Apr 03 2025 14:06:11 GMT-0500 (Central Daylight Time),595368.0,039_o_m_n_a.png,O,z,1525,12,1,2357.5,593010.5,7113,VNB,A,10
0,prac,2,0.0,2-Back,,,Thu Apr 03 2025 14:06:11 GMT-0500 (Central Daylight Time),595368.0,139_m_f_n_a.png,O,a,4778,1,1,2357.5,593010.5,7113,VNB,A,0
0,prac,2,0.0,2-Back,,,Thu Apr 03 2025 14:06:11 GMT-0500 (Central Daylight Time),595368.0,124_o_f_h_a.png,O,a,4778,2,1,2357.5,593010.5,7113,VNB,A,0
0,prac,2,0.0,2-Back,0,m,Thu Apr 03 2025 14:06:11 GMT-0500 (Central Daylight Time),608214.0,039_o_m_d_a.png,O,None,2011,3,1,2843.300000011921,605370.6999999881,7113,VNB,A,1
0,prac,2,1.0,2-Back,0,z,Thu Apr 03 2025 14:06:11 GMT-0500 (Central Daylight Time),611079.7999999523,165_m_m_h_a.png,O,None,2009,4,1,2825.699999988079,608254.0999999642,7113,VNB,A,2
0,prac,2,0.0,2-Back,0,m,Thu Apr 03 2025 14:06:11 GMT-0500 (Central Daylight Time),613829.0,071_y_f_n_a.png,O,z,1894,5,1,2718.800000011921,611110.1999999881,7113,VNB,A,3
1,prac,2,1.0,2-Back,1,z,Thu Apr 03 2025 14:06:11 GMT-0500 (Central Daylight Time),616211.5,039_o_m_h_a.png,O,z,1533,6,1,2347.400000035763,613864.0999999642,7113,VNB,A,4
2,prac,2,1.0,2-Back,1,z,Thu Apr 03 2025 14:06:11 GMT-0500 (Central Daylight Time),618660.6999999881,109_y_m_n_a.png,O,z,1586,7,1,2417.800000011921,616242.8999999762,7113,VNB,A,5
3,prac,2,0.0,2-Back,1,m,Thu Apr 03 2025 14:06:11 GMT-0500 (Central Daylight Time),621043.3999999762,139_m_f_d_a.png,O,m,1516,8,1,2347.699999988079,618695.6999999881,7113,VNB,A,6
3,prac,2,0.0,2-Back,0,m,Thu Apr 03 2025 14:06:11 GMT-0500 (Central Daylight Time),623725.7999999523,124_o_f_d_a.png,O,z,1799,9,1,2654.7999999523163,621071.0,7113,VNB,A,7
4,prac,2,0.0,2-Back,1,m,Thu Apr 03 2025 14:06:11 GMT-0500 (Central Daylight Time),626174.6999999881,165_m_m_h_a.png,O,m,1591,10,1,2410.600000023842,623764.0999999642,7113,VNB,A,8
4,prac,2,1.0,2-Back,0,z,Thu Apr 03 2025 14:06:11 GMT-0500 (Central Daylight Time),629023.6999999881,071_y_f_d_a.png,O,None,2011,11,1,2822.5,626201.1999999881,7113,VNB,A,9
4,prac,2,0.0,2-Back,0,m,Thu Apr 03 2025 14:06:11 GMT-0500 (Central Daylight Time),631872.7999999523,039_o_m_n_a.png,O,None,2010,12,1,2822.099999964237,629050.6999999881,7113,VNB,A,10
0,test,1,0.0,2-Back,,,Thu Apr 03 2025 14:06:11 GMT-0500 (Central Daylight Time),631872.7999999523,109_y_m_h_a.png,O,space,13360,1,1,2822.099999964237,629050.6999999881,7113,VNB,A,0
0,test,1,0.0,2-Back,,,Thu Apr 03 2025 14:06:11 GMT-0500 (Central Daylight Time),631872.7999999523,124_o_f_n_a.png,O,space,13360,2,1,2822.099999964237,629050.6999999881,7113,VNB,A,0
1,test,1,0.0,2-Back,1,z,Thu Apr 03 2025 14:06:11 GMT-0500 (Central Daylight Time),664729.0,039_o_m_h_a.png,O,z,1270,3,1,2298.5,662430.5,7113,VNB,A,1
1,test,1,0.0,2-Back,0,m,Thu Apr 03 2025 14:06:11 GMT-0500 (Central Daylight Time),667794.8999999762,139_m_f_d_a.png,O,None,2016,4,1,3030.100000023842,664764.7999999523,7113,VNB,A,2
1,test,1,1.0,2-Back,0,m,Thu Apr 03 2025 14:06:11 GMT-0500 (Central Daylight Time),670860.0,109_y_m_n_a.png,O,None,2015,5,1,3027.300000011921,667832.6999999881,7113,VNB,A,3
2,test,1,0.0,2-Back,1,z,Thu Apr 03 2025 14:06:11 GMT-0500 (Central Daylight Time),673325.8999999762,071_y_f_d_a.png,O,z,1431,6,1,2434.199999988079,670891.6999999881,7113,VNB,A,4
2,test,1,0.0,2-Back,0,m,Thu Apr 03 2025 14:06:11 GMT-0500 (Central Daylight Time),675575.0,165_m_m_h_a.png,O,z,1211,7,1,2220.5,673354.5,7113,VNB,A,5
2,test,1,1.0,2-Back,0,m,Thu Apr 03 2025 14:06:11 GMT-0500 (Central Daylight Time),677906.7999999523,071_y_f_n_a.png,O,z,1289,8,1,2303.399999976158,675603.3999999762,7113,VNB,A,6
3,test,1,0.0,2-Back,1,z,Thu Apr 03 2025 14:06:11 GMT-0500 (Central Daylight Time),680541.0,124_o_f_h_a.png,O,z,1616,9,1,2624.100000023842,677916.8999999762,7113,VNB,A,7
4,test,1,0.0,2-Back,1,m,Thu Apr 03 2025 14:06:11 GMT-0500 (Central Daylight Time),682972.6999999881,039_o_m_d_a.png,O,m,1374,10,1,2395.5,680577.1999999881,7113,VNB,A,8
5,test,1,1.0,2-Back,1,m,Thu Apr 03 2025 14:06:11 GMT-0500 (Central Daylight Time),685555.3999999762,165_m_m_d_a.png,O,m,1533,11,1,2558.899999976158,682996.5,7113,VNB,A,9
5,test,1,0.0,2-Back,0,m,Thu Apr 03 2025 14:06:11 GMT-0500 (Central Daylight Time),687887.5999999642,139_m_f_n_a.png,O,z,1270,12,1,2297.0,685590.5999999642,7113,VNB,A,10
6,test,1,0.0,2-Back,1,m,Thu Apr 03 2025 14:06:11 GMT-0500 (Central Daylight Time),690719.8999999762,071_y_f_h_a.png,O,m,1778,13,1,2797.399999976158,687922.5,7113,VNB,A,11
7,test,1,0.0,2-Back,1,z,Thu Apr 03 2025 14:06:11 GMT-0500 (Central Daylight Time),693037.0999999642,165_m_m_n_a.png,O,z,1264,14,1,2284.899999976158,690752.1999999881,7113,VNB,A,12
8,test,1,0.0,2-Back,1,m,Thu Apr 03 2025 14:06:11 GMT-0500 (Central Daylight Time),695485.3999999762,109_y_m_d_a.png,O,m,1416,15,1,2420.300000011921,693065.0999999642,7113,VNB,A,13
9,test,1,1.0,2-Back,1,m,Thu Apr 03 2025 14:06:11 GMT-0500 (Central Daylight Time),697734.2999999523,139_m_f_h_a.png,O,m,1196,16,1,2214.599999964237,695519.6999999881,7113,VNB,A,14
10,test,1,0.0,2-Back,1,z,Thu Apr 03 2025 14:06:11 GMT-0500 (Central Daylight Time),700233.8999999762,124_o_f_d_a.png,O,z,1434,17,1,2463.699999988079,697770.1999999881,7113,VNB,A,15
10,test,1,0.0,2-Back,0,m,Thu Apr 03 2025 14:06:11 GMT-0500 (Central Daylight Time),702933.2999999523,039_o_m_n_a.png,O,z,1649,18,1,2668.7999999523163,700264.5,7113,VNB,A,16
0,test,2,0.0,2-Back,,,Thu Apr 03 2025 14:06:11 GMT-0500 (Central Daylight Time),702933.2999999523,165_m_m_h_a.png,O,space,1452,1,1,2668.7999999523163,700264.5,7113,VNB,A,0
0,test,2,0.0,2-Back,,,Thu Apr 03 2025 14:06:11 GMT-0500 (Central Daylight Time),702933.2999999523,071_y_f_n_a.png,O,space,1452,2,1,2668.7999999523163,700264.5,7113,VNB,A,0
1,test,2,1.0,2-Back,1,z,Thu Apr 03 2025 14:06:11 GMT-0500 (Central Daylight Time),711929.3999999762,124_o_f_h_a.png,O,z,1283,3,1,2312.600000023842,709616.7999999523,7113,VNB,A,1
2,test,2,0.0,2-Back,1,m,Thu Apr 03 2025 14:06:11 GMT-0500 (Central Daylight Time),714379.0,039_o_m_d_a.png,O,m,1417,4,1,2434.7000000476837,711944.2999999523,7113,VNB,A,2
3,test,2,0.0,2-Back,1,m,Thu Apr 03 2025 14:06:11 GMT-0500 (Central Daylight Time),716861.5999999642,139_m_f_d_a.png,O,m,1422,5,1,2446.599999964237,714415.0,7113,VNB,A,3
3,test,2,0.0,2-Back,0,m,Thu Apr 03 2025 14:06:11 GMT-0500 (Central Daylight Time),719510.8999999762,109_y_m_h_a.png,O,z,1605,6,1,2621.600000023842,716889.2999999523,7113,VNB,A,4
4,test,2,0.0,2-Back,1,m,Thu Apr 03 2025 14:06:11 GMT-0500 (Central Daylight Time),722343.3999999762,124_o_f_n_a.png,O,m,1771,7,1,2794.5,719548.8999999762,7113,VNB,A,5
5,test,2,1.0,2-Back,1,z,Thu Apr 03 2025 14:06:11 GMT-0500 (Central Daylight Time),724842.2999999523,039_o_m_h_a.png,O,z,1443,8,1,2467.099999964237,722375.1999999881,7113,VNB,A,6
6,test,2,0.0,2-Back,1,m,Thu Apr 03 2025 14:06:11 GMT-0500 (Central Daylight Time),727391.3999999762,071_y_f_d_a.png,O,m,1503,9,1,2523.399999976158,724868.0,7113,VNB,A,7
6,test,2,0.0,2-Back,0,m,Thu Apr 03 2025 14:06:11 GMT-0500 (Central Daylight Time),730440.8999999762,109_y_m_d_a.png,O,None,2013,10,1,3021.399999976158,727419.5,7113,VNB,A,8
6,test,2,0.0,2-Back,0,m,Thu Apr 03 2025 14:06:11 GMT-0500 (Central Daylight Time),732639.7999999523,165_m_m_n_a.png,O,z,1137,11,1,2167.099999964237,730472.6999999881,7113,VNB,A,9
6,test,2,0.0,2-Back,0,m,Thu Apr 03 2025 14:06:11 GMT-0500 (Central Daylight Time),735688.8999999762,139_m_f_h_a.png,O,None,2015,12,1,3022.0,732666.8999999762,7113,VNB,A,10
7,test,2,1.0,2-Back,1,z,Thu Apr 03 2025 14:06:11 GMT-0500 (Central Daylight Time),738454.1999999881,039_o_m_n_a.png,O,z,1713,13,1,2731.900000035763,735722.2999999523,7113,VNB,A,11
8,test,2,0.0,2-Back,1,m,Thu Apr 03 2025 14:06:11 GMT-0500 (Central Daylight Time),741020.6999999881,124_o_f_d_a.png,O,m,1518,14,1,2537.0,738483.6999999881,7113,VNB,A,12
9,test,2,0.0,2-Back,1,m,Thu Apr 03 2025 14:06:11 GMT-0500 (Central Daylight Time),743986.0999999642,071_y_f_h_a.png,O,m,1901,15,1,2929.399999976158,741056.6999999881,7113,VNB,A,13
9,test,2,0.0,2-Back,0,z,Thu Apr 03 2025 14:06:11 GMT-0500 (Central Daylight Time),746385.1999999881,165_m_m_d_a.png,O,m,1336,16,1,2362.5,744022.6999999881,7113,VNB,A,14
9,test,2,0.0,2-Back,0,m,Thu Apr 03 2025 14:06:11 GMT-0500 (Central Daylight Time),748717.6999999881,109_y_m_n_a.png,O,z,1271,17,1,2297.100000023842,746420.5999999642,7113,VNB,A,15
9,test,2,1.0,2-Back,0,m,Thu Apr 03 2025 14:06:11 GMT-0500 (Central Daylight Time),750933.7999999523,139_m_f_n_a.png,O,z,1174,18,1,2188.099999964237,748745.6999999881,7113,VNB,A,16
0,test,3,1.0,2-Back,,,Thu Apr 03 2025 14:06:11 GMT-0500 (Central Daylight Time),750933.7999999523,039_o_m_n_a.png,O,space,1557,1,1,2188.099999964237,748745.6999999881,7113,VNB,A,0
0,test,3,1.0,2-Back,,,Thu Apr 03 2025 14:06:11 GMT-0500 (Central Daylight Time),750933.7999999523,124_o_f_d_a.png,O,space,1557,2,1,2188.099999964237,748745.6999999881,7113,VNB,A,0
1,test,3,0.0,2-Back,1,m,Thu Apr 03 2025 14:06:11 GMT-0500 (Central Daylight Time),760047.3999999762,071_y_f_h_a.png,O,m,1262,3,1,2280.600000023842,757766.7999999523,7113,VNB,A,1
2,test,3,0.0,2-Back,1,z,Thu Apr 03 2025 14:06:11 GMT-0500 (Central Daylight Time),762663.1999999881,139_m_f_d_a.png,O,z,1553,4,1,2582.300000011921,760080.8999999762,7113,VNB,A,2
3,test,3,1.0,2-Back,1,m,Thu Apr 03 2025 14:06:11 GMT-0500 (Central Daylight Time),765345.8999999762,109_y_m_n_a.png,O,m,1638,5,1,2652.800000011921,762693.0999999642,7113,VNB,A,3
3,test,3,0.0,2-Back,0,m,Thu Apr 03 2025 14:06:11 GMT-0500 (Central Daylight Time),767661.8999999762,039_o_m_h_a.png,O,z,1259,6,1,2274.0,765387.8999999762,7113,VNB,A,4
4,test,3,0.0,2-Back,1,z,Thu Apr 03 2025 14:06:11 GMT-0500 (Central Daylight Time),769910.8999999762,071_y_f_n_a.png,O,z,1187,7,1,2207.399999976158,767703.5,7113,VNB,A,5
5,test,3,1.0,2-Back,1,m,Thu Apr 03 2025 14:06:11 GMT-0500 (Central Daylight Time),772160.2999999523,165_m_m_d_a.png,O,m,1189,8,1,2213.0,769947.2999999523,7113,VNB,A,6
5,test,3,0.0,2-Back,0,m,Thu Apr 03 2025 14:06:11 GMT-0500 (Central Daylight Time),774710.0999999642,109_y_m_d_a.png,O,z,1497,9,1,2508.899999976158,772201.1999999881,7113,VNB,A,7
5,test,3,0.0,2-Back,0,m,Thu Apr 03 2025 14:06:11 GMT-0500 (Central Daylight Time),777157.6999999881,124_o_f_h_a.png,O,z,1395,10,1,2409.800000011921,774747.8999999762,7113,VNB,A,8
6,test,3,1.0,2-Back,1,m,Thu Apr 03 2025 14:06:11 GMT-0500 (Central Daylight Time),779523.5,139_m_f_n_a.png,O,m,1330,11,1,2346.5,777177.0,7113,VNB,A,9
7,test,3,1.0,2-Back,1,z,Thu Apr 03 2025 14:06:11 GMT-0500 (Central Daylight Time),781723.5999999642,165_m_m_h_a.png,O,z,1175,12,1,2187.099999964237,779536.5,7113,VNB,A,10
7,test,3,0.0,2-Back,0,m,Thu Apr 03 2025 14:06:11 GMT-0500 (Central Daylight Time),784389.5999999642,071_y_f_d_a.png,O,z,1625,13,1,2640.399999976158,781749.1999999881,7113,VNB,A,11
7,test,3,0.0,2-Back,0,m,Thu Apr 03 2025 14:06:11 GMT-0500 (Central Daylight Time),786789.0999999642,124_o_f_n_a.png,O,z,1350,14,1,2371.599999964237,784417.5,7113,VNB,A,12
7,test,3,0.0,2-Back,0,z,Thu Apr 03 2025 14:06:11 GMT-0500 (Central Daylight Time),789104.5,039_o_m_d_a.png,O,m,1278,15,1,2288.800000011921,786815.6999999881,7113,VNB,A,13
8,test,3,1.0,2-Back,1,m,Thu Apr 03 2025 14:06:11 GMT-0500 (Central Daylight Time),791803.7999999523,139_m_f_h_a.png,O,m,1649,16,1,2674.7999999523163,789129.0,7113,VNB,A,14
8,test,3,0.0,2-Back,0,m,Thu Apr 03 2025 14:06:11 GMT-0500 (Central Daylight Time),793969.2999999523,165_m_m_n_a.png,O,z,1128,17,1,2137.399999976158,791831.8999999762,7113,VNB,A,15
8,test,3,0.0,2-Back,0,z,Thu Apr 03 2025 14:06:11 GMT-0500 (Central Daylight Time),796518.6999999881,109_y_m_h_a.png,O,m,1514,18,1,2528.5,793990.1999999881,7113,VNB,A,16
0,test,4,0.0,2-Back,,,Thu Apr 03 2025 14:06:11 GMT-0500 (Central Daylight Time),796518.6999999881,139_m_f_n_a.png,O,space,1592,1,1,2528.5,793990.1999999881,7113,VNB,A,0
0,test,4,0.0,2-Back,,,Thu Apr 03 2025 14:06:11 GMT-0500 (Central Daylight Time),796518.6999999881,039_o_m_n_a.png,O,space,1592,2,1,2528.5,793990.1999999881,7113,VNB,A,0
1,test,4,1.0,2-Back,1,m,Thu Apr 03 2025 14:06:11 GMT-0500 (Central Daylight Time),806282.6999999881,109_y_m_h_a.png,O,m,1924,3,1,2946.900000035763,803335.7999999523,7113,VNB,A,1
1,test,4,1.0,2-Back,0,m,Thu Apr 03 2025 14:06:11 GMT-0500 (Central Daylight Time),809331.2999999523,124_o_f_d_a.png,O,None,2014,4,1,3017.399999976158,806313.8999999762,7113,VNB,A,2
2,test,4,0.0,2-Back,1,z,Thu Apr 03 2025 14:06:11 GMT-0500 (Central Daylight Time),811730.6999999881,039_o_m_h_a.png,O,z,1335,5,1,2362.699999988079,809368.0,7113,VNB,A,3
2,test,4,0.0,2-Back,0,m,Thu Apr 03 2025 14:06:11 GMT-0500 (Central Daylight Time),814380.1999999881,165_m_m_n_a.png,O,z,1583,6,1,2615.0,811765.1999999881,7113,VNB,A,4
2,test,4,0.0,2-Back,0,m,Thu Apr 03 2025 14:06:11 GMT-0500 (Central Daylight Time),817144.7999999523,139_m_f_d_a.png,O,z,1702,7,1,2731.099999964237,814413.6999999881,7113,VNB,A,5
2,test,4,0.0,2-Back,0,z,Thu Apr 03 2025 14:06:11 GMT-0500 (Central Daylight Time),820178.5,071_y_f_n_a.png,O,None,2015,8,1,3020.100000023842,817158.3999999762,7113,VNB,A,6
2,test,4,1.0,2-Back,0,m,Thu Apr 03 2025 14:06:11 GMT-0500 (Central Daylight Time),822660.1999999881,124_o_f_h_a.png,O,z,1432,9,1,2453.699999988079,820206.5,7113,VNB,A,7
2,test,4,0.0,2-Back,0,m,Thu Apr 03 2025 14:06:11 GMT-0500 (Central Daylight Time),824876.3999999762,165_m_m_h_a.png,O,z,1166,10,1,2184.600000023842,822691.7999999523,7113,VNB,A,8
3,test,4,0.0,2-Back,1,m,Thu Apr 03 2025 14:06:11 GMT-0500 (Central Daylight Time),827324.3999999762,071_y_f_d_a.png,O,m,1396,11,1,2413.0,824911.3999999762,7113,VNB,A,9
4,test,4,0.0,2-Back,1,m,Thu Apr 03 2025 14:06:11 GMT-0500 (Central Daylight Time),829907.6999999881,109_y_m_n_a.png,O,m,1549,12,1,2574.0,827333.6999999881,7113,VNB,A,10
4,test,4,0.0,2-Back,0,z,Thu Apr 03 2025 14:06:11 GMT-0500 (Central Daylight Time),832173.7999999523,039_o_m_d_a.png,O,m,1223,13,1,2241.5,829932.2999999523,7113,VNB,A,11
5,test,4,1.0,2-Back,1,m,Thu Apr 03 2025 14:06:11 GMT-0500 (Central Daylight Time),834922.8999999762,139_m_f_h_a.png,O,m,1711,14,1,2718.300000011921,832204.5999999642,7113,VNB,A,12
5,test,4,1.0,2-Back,0,m,Thu Apr 03 2025 14:06:11 GMT-0500 (Central Daylight Time),837505.3999999762,071_y_f_h_a.png,O,z,1518,15,1,2544.699999988079,834960.6999999881,7113,VNB,A,13
6,test,4,0.0,2-Back,1,m,Thu Apr 03 2025 14:06:11 GMT-0500 (Central Daylight Time),840070.3999999762,124_o_f_n_a.png,O,m,1503,16,1,2530.600000023842,837539.7999999523,7113,VNB,A,14
7,test,4,0.0,2-Back,1,m,Thu Apr 03 2025 14:06:11 GMT-0500 (Central Daylight Time),842637.6999999881,109_y_m_d_a.png,O,m,1548,17,1,2553.600000023842,840084.0999999642,7113,VNB,A,15
8,test,4,1.0,2-Back,1,m,Thu Apr 03 2025 14:06:11 GMT-0500 (Central Daylight Time),844818.7999999523,165_m_m_d_a.png,O,m,1117,18,1,2147.199999988079,842671.5999999642,7113,VNB,A,16
0,test,5,1.0,2-Back,,,Thu Apr 03 2025 14:06:11 GMT-0500 (Central Daylight Time),844818.7999999523,071_y_f_d_a.png,O,space,1433,1,1,2147.199999988079,842671.5999999642,7113,VNB,A,0
0,test,5,1.0,2-Back,,,Thu Apr 03 2025 14:06:11 GMT-0500 (Central Daylight Time),844818.7999999523,124_o_f_h_a.png,O,space,1433,2,1,2147.199999988079,842671.5999999642,7113,VNB,A,0
0,test,5,1.0,2-Back,0,z,Thu Apr 03 2025 14:06:11 GMT-0500 (Central Daylight Time),854484.5,039_o_m_d_a.png,O,None,2015,3,1,3032.2000000476837,851452.2999999523,7113,VNB,A,1
1,test,5,1.0,2-Back,1,m,Thu Apr 03 2025 14:06:11 GMT-0500 (Central Daylight Time),856931.5999999642,139_m_f_n_a.png,O,m,1391,4,1,2409.899999976158,854521.6999999881,7113,VNB,A,2
2,test,5,0.0,2-Back,1,m,Thu Apr 03 2025 14:06:11 GMT-0500 (Central Daylight Time),859464.8999999762,165_m_m_h_a.png,O,m,1505,5,1,2522.0,856942.8999999762,7113,VNB,A,3
3,test,5,0.0,2-Back,1,z,Thu Apr 03 2025 14:06:11 GMT-0500 (Central Daylight Time),861963.7999999523,071_y_f_n_a.png,O,z,1433,6,1,2462.699999988079,859501.0999999642,7113,VNB,A,4
4,test,5,0.0,2-Back,1,m,Thu Apr 03 2025 14:06:11 GMT-0500 (Central Daylight Time),864362.5999999642,124_o_f_d_a.png,O,m,1350,7,1,2368.099999964237,861994.5,7113,VNB,A,5
5,test,5,0.0,2-Back,1,m,Thu Apr 03 2025 14:06:11 GMT-0500 (Central Daylight Time),866612.3999999762,039_o_m_h_a.png,O,m,1207,8,1,2229.199999988079,864383.1999999881,7113,VNB,A,6
6,test,5,1.0,2-Back,1,z,Thu Apr 03 2025 14:06:11 GMT-0500 (Central Daylight Time),869294.0,139_m_f_d_a.png,O,z,1636,9,1,2650.900000035763,866643.0999999642,7113,VNB,A,7
6,test,5,0.0,2-Back,0,m,Thu Apr 03 2025 14:06:11 GMT-0500 (Central Daylight Time),871861.5,109_y_m_n_a.png,O,z,1549,10,1,2557.900000035763,869303.5999999642,7113,VNB,A,8
6,test,5,0.0,2-Back,0,m,Thu Apr 03 2025 14:06:11 GMT-0500 (Central Daylight Time),874193.2999999523,165_m_m_n_a.png,O,z,1269,11,1,2300.0,871893.2999999523,7113,VNB,A,9
7,test,5,0.0,2-Back,1,m,Thu Apr 03 2025 14:06:11 GMT-0500 (Central Daylight Time),876676.1999999881,071_y_f_h_a.png,O,m,1419,12,1,2446.100000023842,874230.0999999642,7113,VNB,A,10
8,test,5,0.0,2-Back,1,m,Thu Apr 03 2025 14:06:11 GMT-0500 (Central Daylight Time),879092.0999999642,109_y_m_d_a.png,O,m,1349,13,1,2379.699999988079,876712.3999999762,7113,VNB,A,11
9,test,5,1.0,2-Back,1,z,Thu Apr 03 2025 14:06:11 GMT-0500 (Central Daylight Time),881440.7999999523,139_m_f_h_a.png,O,z,1295,14,1,2316.099999964237,879124.6999999881,7113,VNB,A,12
9,test,5,0.0,2-Back,0,m,Thu Apr 03 2025 14:06:11 GMT-0500 (Central Daylight Time),884106.6999999881,039_o_m_n_a.png,O,z,1628,15,1,2639.199999988079,881467.5,7113,VNB,A,13
10,test,5,0.0,2-Back,1,m,Thu Apr 03 2025 14:06:11 GMT-0500 (Central Daylight Time),886222.3999999762,165_m_m_d_a.png,O,m,1080,16,1,2086.300000011921,884136.0999999642,7113,VNB,A,14
10,test,5,0.0,2-Back,0,z,Thu Apr 03 2025 14:06:11 GMT-0500 (Central Daylight Time),889138.5999999642,124_o_f_n_a.png,O,m,1851,17,1,2880.699999988079,886257.8999999762,7113,VNB,A,15
11,test,5,1.0,2-Back,1,m,Thu Apr 03 2025 14:06:11 GMT-0500 (Central Daylight Time),891870.5,109_y_m_h_a.png,O,m,1672,18,1,2698.400000035763,889172.0999999642,7113,VNB,A,16
