acc_sum,block,block_c,condition,correct,correct_response,datetime,endtime,flanker,jitter,project,response,response_test_buffer_response,response_test_target_response,response_time,response_time_test_buffer_response,response_time_test_target_response,row_sel,session_number,start_end,starttime,subject_id,target,task,task_vers,time_test_buffer,time_test_buffer_response,time_test_constants,time_test_flanker,time_test_jitter,time_test_logger,time_test_target,time_test_target_response,time_test_variables,trial
0,prac,1,inc,0,z,Thu Apr 03 2025 15:09:57 GMT-0500 (Central Daylight Time),136019.70000000298,lead,1100,I,None,,,1799,,,8,1,5157.70000000298,130862.0,7110,plum,NF,C,,,,,,,,,,1
1,prac,1,inc,1,m,Thu Apr 03 2025 15:09:57 GMT-0500 (Central Daylight Time),139150.40000000596,raisin,1100,I,m,,,720,,,12,1,3125.0,136025.40000000596,7110,cobalt,NF,C,,,,,,,,,,2
2,prac,1,con,1,m,Thu Apr 03 2025 15:09:57 GMT-0500 (Central Daylight Time),141767.90000000596,bronze,800,I,m,,,514,,,9,1,2609.0,139158.90000000596,7110,bronze,NF,C,,,,,,,,,,3
3,prac,1,con,1,m,Thu Apr 03 2025 15:09:57 GMT-0500 (Central Daylight Time),144566.80000000447,silver,1000,I,m,,,514,,,11,1,2792.7000000029802,141774.1000000015,7110,silver,NF,C,,,,,,,,,,4
4,prac,1,con,1,z,Thu Apr 03 2025 15:09:57 GMT-0500 (Central Daylight Time),147282.20000000298,kiwi,1000,I,z,,,409,,,7,1,2707.5,144574.70000000298,7110,kiwi,NF,C,,,,,,,,,,5
5,prac,1,con,1,m,Thu Apr 03 2025 15:09:57 GMT-0500 (Central Daylight Time),149732.6000000015,gold,800,I,m,,,355,,,13,1,2444.60000000149,147288.0,7110,gold,NF,C,,,,,,,,,,6
6,prac,1,inc,1,m,Thu Apr 03 2025 15:09:57 GMT-0500 (Central Daylight Time),152747.20000000298,plum,1100,I,m,,,607,,,16,1,3006.7999999970198,149740.40000000596,7110,lead,NF,C,,,,,,,,,,7
7,prac,1,inc,1,z,Thu Apr 03 2025 15:09:57 GMT-0500 (Central Daylight Time),155429.90000000596,copper,900,I,z,,,479,,,2,1,2675.2000000029802,152754.70000000298,7110,cherry,NF,C,,,,,,,,,,8
7,prac,1,con,0,z,Thu Apr 03 2025 15:09:57 GMT-0500 (Central Daylight Time),157928.5,lime,800,I,m,,,394,,,5,1,2493.0999999940395,155435.40000000596,7110,lime,NF,C,,,,,,,,,,9
8,prac,1,inc,1,m,Thu Apr 03 2025 15:09:57 GMT-0500 (Central Daylight Time),160795.1000000015,cherry,900,I,m,,,650,,,10,1,2860.1999999955297,157934.90000000596,7110,copper,NF,C,,,,,,,,,,10
9,prac,1,con,1,m,Thu Apr 03 2025 15:09:57 GMT-0500 (Central Daylight Time),163626.0,zinc,1000,I,m,,,534,,,15,1,2823.5,160802.5,7110,zinc,NF,C,,,,,,,,,,11
10,prac,1,inc,1,z,Thu Apr 03 2025 15:09:57 GMT-0500 (Central Daylight Time),166242.20000000298,iron,900,I,z,,,415,,,6,1,2610.89999999851,163631.30000000447,7110,pear,NF,C,,,,,,,,,,12
11,prac,1,con,1,z,Thu Apr 03 2025 15:09:57 GMT-0500 (Central Daylight Time),168875.1000000015,banana,800,I,z,,,534,,,1,1,2628.0,166247.1000000015,7110,banana,NF,C,,,,,,,,,,13
12,prac,1,con,1,z,Thu Apr 03 2025 15:09:57 GMT-0500 (Central Daylight Time),171740.20000000298,orange,1000,I,z,,,549,,,3,1,2859.2000000029802,168881.0,7110,orange,NF,C,,,,,,,,,,14
13,prac,1,inc,1,z,Thu Apr 03 2025 15:09:57 GMT-0500 (Central Daylight Time),174790.20000000298,cobalt,1100,I,z,,,638,,,4,1,3043.7000000029802,171746.5,7110,raisin,NF,C,,,,,,,,,,15
14,prac,1,inc,1,m,Thu Apr 03 2025 15:09:57 GMT-0500 (Central Daylight Time),177521.70000000298,pear,900,I,m,,,516,,,14,1,2724.7000000029802,174797.0,7110,iron,NF,C,,,,,,,,,,16
1,test,1,con,1,m,Thu Apr 03 2025 15:09:57 GMT-0500 (Central Daylight Time),196131.70000000298,zinc,1100,I,m,m,None,424,222.0,202.0,116,1,2055.89999999851,194075.80000000447,7110,zinc,NF,C,190000,190000,188174,189281,188174,190230,189798,189798,190230,1
1,test,1,inc,0,m,Thu Apr 03 2025 15:09:57 GMT-0500 (Central Daylight Time),197899.1000000015,pear,900,I,z,z,None,325,110.0,215.0,118,1,1761.5,196137.6000000015,7110,zinc,NF,C,191881,191881,190236,191147,190236,191997,191666,191666,191997,2
2,test,1,con,1,m,Thu Apr 03 2025 15:09:57 GMT-0500 (Central Daylight Time),199714.90000000596,zinc,900,I,m,m,None,382,182.0,200.0,114,1,1810.0,197904.90000000596,7110,zinc,NF,C,193616,193616,192003,192914,192003,193813,193415,193415,193813,3
3,test,1,inc,1,z,Thu Apr 03 2025 15:09:57 GMT-0500 (Central Daylight Time),201497.30000000447,copper,900,I,z,z,None,345,146.0,199.0,14,1,1776.6000000014901,199720.70000000298,7110,cherry,NF,C,195446,195446,193819,194730,193819,195595,195247,195247,195595,4
4,test,1,inc,1,m,Thu Apr 03 2025 15:09:57 GMT-0500 (Central Daylight Time),203296.20000000298,banana,800,I,m,m,None,448,233.0,215.0,85,1,1793.8999999985099,201502.30000000447,7110,silver,NF,C,197146,197146,195600,196412,195601,197394,196930,196930,197394,5
5,test,1,con,1,m,Thu Apr 03 2025 15:09:57 GMT-0500 (Central Daylight Time),205112.80000000447,lead,900,I,m,m,None,379,180.0,199.0,122,1,1809.8999999985099,203302.90000000596,7110,lead,NF,C,199028,199028,197401,198313,197401,199211,198828,198828,199211,6
6,test,1,con,1,m,Thu Apr 03 2025 15:09:57 GMT-0500 (Central Daylight Time),207161.90000000596,cobalt,1100,I,m,m,None,410,209.0,201.0,92,1,2043.9000000059605,205118.0,7110,cobalt,NF,C,201046,201046,199216,200329,199216,201260,200844,200844,201260,7
7,test,1,inc,1,m,Thu Apr 03 2025 15:09:57 GMT-0500 (Central Daylight Time),209345.20000000298,raisin,1100,I,m,m,None,543,327.0,216.0,80,1,2177.7000000029802,207167.5,7110,copper,NF,C,203112,203112,201266,202378,201266,203443,202894,202895,203443,8
8,test,1,con,1,m,Thu Apr 03 2025 15:09:57 GMT-0500 (Central Daylight Time),211195.20000000298,gold,900,I,m,m,None,402,203.0,199.0,98,1,1844.7999999970198,209350.40000000596,7110,gold,NF,C,205076,205076,203448,204361,203449,205293,204876,204876,205293,9
9,test,1,con,1,m,Thu Apr 03 2025 15:09:57 GMT-0500 (Central Daylight Time),212992.5,copper,800,I,m,m,None,460,261.0,199.0,73,1,1791.8999999985099,211200.6000000015,7110,copper,NF,C,206826,206826,205299,206111,205299,207091,206626,206627,207091,10
10,test,1,inc,1,z,Thu Apr 03 2025 15:09:57 GMT-0500 (Central Daylight Time),214960.0,zinc,1000,I,z,z,None,421,220.0,201.0,63,1,1961.1999999955297,212998.80000000447,7110,plum,NF,C,208827,208827,207097,208110,207097,209058,208624,208625,209058,11
11,test,1,inc,1,z,Thu Apr 03 2025 15:09:57 GMT-0500 (Central Daylight Time),217060.1000000015,cobalt,1100,I,z,z,None,451,251.0,200.0,8,1,2095.2999999970198,214964.80000000447,7110,banana,NF,C,210892,210892,209063,210175,209063,211158,210692,210692,211158,12
12,test,1,inc,1,z,Thu Apr 03 2025 15:09:57 GMT-0500 (Central Daylight Time),218775.6000000015,bronze,800,I,z,z,None,382,181.0,201.0,29,1,1709.6000000014901,217066.0,7110,raisin,NF,C,212692,212692,211164,211974,211165,212874,212491,212491,212874,13
12,test,1,inc,0,m,Thu Apr 03 2025 15:09:57 GMT-0500 (Central Daylight Time),220675.40000000596,pear,900,I,z,z,None,450,250.0,200.0,110,1,1893.3000000044703,218782.1000000015,7110,iron,NF,C,214508,214508,212880,213790,212881,214773,214307,214307,214773,14
13,test,1,con,1,z,Thu Apr 03 2025 15:09:57 GMT-0500 (Central Daylight Time),222889.80000000447,raisin,1100,I,z,z,None,569,368.0,201.0,28,1,2208.7000000029802,220681.1000000015,7110,raisin,NF,C,216607,216607,214779,215890,214780,216988,216406,216406,216988,15
14,test,1,con,1,m,Thu Apr 03 2025 15:09:57 GMT-0500 (Central Daylight Time),224723.90000000596,iron,800,I,m,m,None,483,267.0,216.0,105,1,1827.9000000059605,222896.0,7110,iron,NF,C,218539,218539,216994,217807,216994,218822,218323,218323,218822,16
15,test,1,con,1,m,Thu Apr 03 2025 15:09:57 GMT-0500 (Central Daylight Time),226406.80000000447,silver,800,I,m,m,None,339,139.0,200.0,81,1,1676.0,224730.80000000447,7110,silver,NF,C,220355,220355,218829,219639,218829,220505,220155,220155,220505,17
16,test,1,con,1,m,Thu Apr 03 2025 15:09:57 GMT-0500 (Central Daylight Time),228523.30000000447,copper,1100,I,m,m,None,467,253.0,214.0,76,1,2112.5,226410.80000000447,7110,copper,NF,C,222353,222353,220509,221623,220509,222621,222139,222139,222621,18
17,test,1,inc,1,z,Thu Apr 03 2025 15:09:57 GMT-0500 (Central Daylight Time),230438.6000000015,zinc,1000,I,z,z,None,372,172.0,200.0,47,1,1911.0,228527.6000000015,7110,pear,NF,C,224355,224355,222626,223638,222626,224537,224154,224154,224537,19
18,test,1,inc,1,m,Thu Apr 03 2025 15:09:57 GMT-0500 (Central Daylight Time),232405.20000000298,orange,1000,I,m,m,None,419,217.0,202.0,87,1,1962.6000000014901,230442.6000000015,7110,silver,NF,C,226270,226270,224541,225553,224541,226503,226068,226068,226503,20
18,test,1,con,0,z,Thu Apr 03 2025 15:09:57 GMT-0500 (Central Daylight Time),234238.30000000447,banana,900,I,m,m,None,398,199.0,199.0,2,1,1829.0,232409.30000000447,7110,banana,NF,C,228121,228121,226507,227418,226508,228336,227921,227921,228336,21
19,test,1,con,1,z,Thu Apr 03 2025 15:09:57 GMT-0500 (Central Daylight Time),236270.6000000015,cherry,900,I,z,z,None,589,390.0,199.0,10,1,2027.7999999970198,234242.80000000447,7110,cherry,NF,C,229968,229968,228341,229253,228341,230369,229768,229768,230369,22
20,test,1,inc,1,m,Thu Apr 03 2025 15:09:57 GMT-0500 (Central Daylight Time),238168.0,lime,800,I,m,m,None,567,352.0,215.0,117,1,1893.0999999940395,236274.90000000596,7110,zinc,NF,C,231902,231902,230373,231185,230373,232266,231686,231686,232266,23
21,test,1,con,1,m,Thu Apr 03 2025 15:09:57 GMT-0500 (Central Daylight Time),240067.80000000447,silver,900,I,m,m,None,456,241.0,215.0,82,1,1893.6000000014901,238174.20000000298,7110,silver,NF,C,233917,233917,232272,233184,232273,234166,233702,233702,234166,24
22,test,1,con,1,m,Thu Apr 03 2025 15:09:57 GMT-0500 (Central Daylight Time),241966.40000000596,copper,900,I,m,m,None,469,254.0,215.0,74,1,1894.7000000029802,240071.70000000298,7110,copper,NF,C,235800,235800,234170,235084,234170,236064,235585,235585,236064,25
23,test,1,inc,1,m,Thu Apr 03 2025 15:09:57 GMT-0500 (Central Daylight Time),244168.0,raisin,1100,I,m,m,None,562,363.0,199.0,88,1,2196.5999999940395,241971.40000000596,7110,silver,NF,C,237899,237899,236069,237182,236070,238266,237700,237700,238266,26
24,test,1,con,1,z,Thu Apr 03 2025 15:09:57 GMT-0500 (Central Daylight Time),246116.30000000447,plum,1000,I,z,z,None,406,207.0,199.0,59,1,1943.6000000014901,244172.70000000298,7110,plum,NF,C,239999,239999,238271,239282,238271,240214,239800,239800,240214,27
25,test,1,inc,1,z,Thu Apr 03 2025 15:09:57 GMT-0500 (Central Daylight Time),247918.40000000596,iron,900,I,z,z,None,368,168.0,200.0,54,1,1798.1000000014901,246120.30000000447,7110,kiwi,NF,C,241848,241848,240218,241132,240219,242016,241648,241648,242016,28
26,test,1,con,1,m,Thu Apr 03 2025 15:09:57 GMT-0500 (Central Daylight Time),249948.0,silver,1000,I,m,m,None,484,269.0,215.0,83,1,2025.0999999940395,247922.90000000596,7110,silver,NF,C,243761,243761,242021,243030,242021,244046,243546,243546,244046,29
27,test,1,inc,1,m,Thu Apr 03 2025 15:09:57 GMT-0500 (Central Daylight Time),251782.40000000596,lime,800,I,m,m,None,507,307.0,200.0,101,1,1831.6000000014901,249950.80000000447,7110,gold,NF,C,245564,245564,244049,244852,244049,245880,245364,245364,245880,30
28,test,1,con,1,z,Thu Apr 03 2025 15:09:57 GMT-0500 (Central Daylight Time),253497.90000000596,kiwi,800,I,z,z,None,369,170.0,199.0,49,1,1710.6000000014901,251787.30000000447,7110,kiwi,NF,C,247413,247413,245885,246698,245886,247596,247214,247214,247596,31
29,test,1,inc,1,m,Thu Apr 03 2025 15:09:57 GMT-0500 (Central Daylight Time),255530.90000000596,cherry,900,I,m,m,None,586,386.0,200.0,94,1,2028.4000000059605,253502.5,7110,cobalt,NF,C,249228,249228,247601,248513,247601,249629,249028,249028,249629,32
30,test,1,con,1,z,Thu Apr 03 2025 15:09:57 GMT-0500 (Central Daylight Time),257678.5,banana,1100,I,z,z,None,512,313.0,199.0,4,1,2142.7999999970198,255535.70000000298,7110,banana,NF,C,251462,251462,249634,250746,249634,251777,251263,251263,251777,33
31,test,1,inc,1,z,Thu Apr 03 2025 15:09:57 GMT-0500 (Central Daylight Time),259528.70000000298,iron,900,I,z,z,None,402,203.0,199.0,46,1,1844.7999999970198,257683.90000000596,7110,pear,NF,C,253411,253411,251782,252695,251782,253627,253211,253211,253627,34
32,test,1,con,1,z,Thu Apr 03 2025 15:09:57 GMT-0500 (Central Daylight Time),261394.90000000596,cherry,800,I,z,z,None,524,325.0,199.0,9,1,1861.0,259533.90000000596,7110,cherry,NF,C,255162,255162,253632,254444,253632,255493,254962,254962,255493,35
33,test,1,inc,1,z,Thu Apr 03 2025 15:09:57 GMT-0500 (Central Daylight Time),263344.80000000447,bronze,800,I,z,z,None,604,405.0,199.0,5,1,1945.6000000014901,261399.20000000298,7110,banana,NF,C,257026,257026,255497,256311,255498,257443,256826,256826,257443,36
34,test,1,con,1,m,Thu Apr 03 2025 15:09:57 GMT-0500 (Central Daylight Time),265412.90000000596,zinc,800,I,m,m,None,717,518.0,199.0,113,1,2063.10000000149,263349.80000000447,7110,zinc,NF,C,258977,258977,257448,258259,257448,259511,258778,258778,259511,37
35,test,1,inc,1,m,Thu Apr 03 2025 15:09:57 GMT-0500 (Central Daylight Time),267559.90000000596,plum,1100,I,m,m,None,515,316.0,199.0,112,1,2142.4000000059605,265417.5,7110,iron,NF,C,261342,261342,259516,260625,259516,261658,261143,261143,261658,38
36,test,1,inc,1,z,Thu Apr 03 2025 15:09:57 GMT-0500 (Central Daylight Time),269742.200000003,lead,1100,I,z,z,None,541,340.0,201.0,64,1,2178.10000000149,267564.1000000015,7110,plum,NF,C,263491,263491,261662,262776,261662,263840,263290,263290,263840,39
37,test,1,con,1,z,Thu Apr 03 2025 15:09:57 GMT-0500 (Central Daylight Time),271657.700000003,raisin,800,I,z,z,None,576,377.0,199.0,25,1,1910.6000000014901,269747.1000000015,7110,raisin,NF,C,265374,265374,263845,264658,263845,265756,265174,265174,265756,40
38,test,1,con,1,z,Thu Apr 03 2025 15:09:57 GMT-0500 (Central Daylight Time),273525.1000000015,banana,800,I,z,z,None,533,333.0,200.0,1,1,1863.3999999985099,271661.700000003,7110,banana,NF,C,267290,267290,265760,266574,265760,267623,267090,267090,267623,41
38,test,1,con,0,z,Thu Apr 03 2025 15:09:57 GMT-0500 (Central Daylight Time),275490.200000003,pear,800,I,m,m,None,632,418.0,214.0,41,1,1959.7000000029802,273530.5,7110,pear,NF,C,269156,269156,267629,268440,267629,269588,268942,268942,269588,42
39,test,1,con,1,z,Thu Apr 03 2025 15:09:57 GMT-0500 (Central Daylight Time),277574.30000000447,kiwi,1100,I,z,z,None,448,249.0,199.0,52,1,2078.7000000029802,275495.6000000015,7110,kiwi,NF,C,271423,271423,269594,270706,269594,271672,271223,271223,271672,43
40,test,1,inc,1,m,Thu Apr 03 2025 15:09:57 GMT-0500 (Central Daylight Time),279489.200000003,banana,800,I,m,m,None,569,370.0,199.0,77,1,1910.6000000014901,277578.6000000015,7110,copper,NF,C,273205,273205,271677,272489,271677,273587,273006,273006,273587,44
41,test,1,con,1,m,Thu Apr 03 2025 15:09:57 GMT-0500 (Central Daylight Time),281622.200000003,bronze,1100,I,m,m,None,490,291.0,199.0,68,1,2128.5,279493.700000003,7110,bronze,NF,C,275420,275420,273592,274705,273592,275720,275221,275221,275720,45
41,test,1,con,0,z,Thu Apr 03 2025 15:09:57 GMT-0500 (Central Daylight Time),283587.0,banana,1000,I,m,m,None,425,225.0,200.0,3,1,1959.5999999940395,281627.40000000596,7110,banana,NF,C,277454,277454,275725,276737,275726,277685,277254,277254,277685,46
42,test,1,con,1,z,Thu Apr 03 2025 15:09:57 GMT-0500 (Central Daylight Time),285405.0,pear,900,I,z,z,None,374,157.0,217.0,42,1,1813.8999999985099,283591.1000000015,7110,pear,NF,C,279338,279338,277689,278604,277689,279503,279120,279120,279503,47
43,test,1,inc,1,m,Thu Apr 03 2025 15:09:57 GMT-0500 (Central Daylight Time),287521.30000000447,orange,1000,I,m,m,None,570,371.0,199.0,71,1,2108.7000000029802,285412.6000000015,7110,bronze,NF,C,281236,281236,279511,280519,279511,281619,281036,281036,281619,48
44,test,1,con,1,m,Thu Apr 03 2025 15:09:57 GMT-0500 (Central Daylight Time),289604.30000000447,bronze,1000,I,m,m,None,534,335.0,199.0,67,1,2072.10000000149,287532.200000003,7110,bronze,NF,C,283352,283352,281630,282635,281631,283702,283153,283153,283702,49
45,test,1,inc,1,m,Thu Apr 03 2025 15:09:57 GMT-0500 (Central Daylight Time),291636.700000003,cherry,900,I,m,m,None,591,392.0,199.0,86,1,2024.5,289612.200000003,7110,silver,NF,C,285335,285335,283710,284618,283711,285735,285135,285135,285735,50
46,test,1,con,1,m,Thu Apr 03 2025 15:09:57 GMT-0500 (Central Daylight Time),293601.30000000447,iron,1000,I,m,m,None,428,228.0,200.0,107,1,1960.3999999985099,291640.90000000596,7110,iron,NF,C,287468,287468,285739,286751,285739,287699,287267,287267,287699,51
47,test,1,con,1,m,Thu Apr 03 2025 15:09:57 GMT-0500 (Central Daylight Time),295669.1000000015,gold,1100,I,m,m,None,416,217.0,199.0,100,1,2062.39999999851,293606.700000003,7110,gold,NF,C,289533,289533,287705,288817,287705,289767,289334,289334,289767,52
48,test,1,inc,1,z,Thu Apr 03 2025 15:09:57 GMT-0500 (Central Daylight Time),297650.700000003,copper,900,I,z,z,None,552,339.0,213.0,22,1,1975.7000000029802,295675.0,7110,orange,NF,C,291397,291397,289773,290682,289774,291749,291184,291184,291749,53
49,test,1,con,1,m,Thu Apr 03 2025 15:09:57 GMT-0500 (Central Daylight Time),299782.700000003,silver,1100,I,m,m,None,497,296.0,201.0,84,1,2126.0,297656.700000003,7110,silver,NF,C,293583,293583,291755,292865,291755,293881,293382,293382,293881,54
50,test,1,inc,1,m,Thu Apr 03 2025 15:09:57 GMT-0500 (Central Daylight Time),301816.80000000447,cherry,900,I,m,m,None,588,388.0,200.0,78,1,2026.6000000014901,299790.200000003,7110,copper,NF,C,295515,295515,293888,294799,293889,295915,295315,295315,295915,55
51,test,1,con,1,m,Thu Apr 03 2025 15:09:57 GMT-0500 (Central Daylight Time),303765.40000000596,iron,900,I,m,m,None,502,301.0,201.0,106,1,1939.3000000044703,301826.1000000015,7110,iron,NF,C,297548,297548,295924,296831,295925,297864,297347,297347,297863,56
52,test,1,con,1,z,Thu Apr 03 2025 15:09:57 GMT-0500 (Central Daylight Time),305534.0,plum,900,I,z,z,None,334,120.0,214.0,58,1,1760.3999999985099,303773.6000000015,7110,plum,NF,C,299512,299512,297872,298780,297872,299632,299298,299298,299632,57
52,test,1,inc,0,m,Thu Apr 03 2025 15:09:57 GMT-0500 (Central Daylight Time),307631.5,kiwi,1000,I,z,z,None,564,365.0,199.0,103,1,2091.6999999955297,305539.80000000447,7110,gold,NF,C,301364,301364,299638,300648,299638,301730,301164,301164,301730,58
53,test,1,con,1,m,Thu Apr 03 2025 15:09:57 GMT-0500 (Central Daylight Time),309699.200000003,iron,1100,I,m,m,None,420,221.0,199.0,108,1,2058.7999999970198,307640.40000000596,7110,iron,NF,C,303562,303562,301738,302845,301739,303797,303362,303362,303797,59
54,test,1,con,1,m,Thu Apr 03 2025 15:09:57 GMT-0500 (Central Daylight Time),311695.40000000596,cobalt,900,I,m,m,None,561,346.0,215.0,90,1,1990.2000000029802,309705.200000003,7110,cobalt,NF,C,305445,305445,303803,304711,303804,305793,305230,305230,305793,60
55,test,1,inc,1,m,Thu Apr 03 2025 15:09:57 GMT-0500 (Central Daylight Time),313895.6000000015,raisin,1100,I,m,m,None,557,357.0,200.0,96,1,2191.7999999970198,311703.80000000447,7110,cobalt,NF,C,307627,307627,305802,306912,305802,307994,307427,307427,307994,61
56,test,1,inc,1,z,Thu Apr 03 2025 15:09:57 GMT-0500 (Central Daylight Time),315994.40000000596,silver,1000,I,z,z,None,560,360.0,200.0,31,1,2090.10000000149,313904.30000000447,7110,raisin,NF,C,309728,309728,308002,309011,308003,310092,309527,309527,310092,62
57,test,1,inc,1,m,Thu Apr 03 2025 15:09:57 GMT-0500 (Central Daylight Time),317894.5,banana,800,I,m,m,None,566,367.0,199.0,69,1,1894.7999999970198,315999.700000003,7110,bronze,NF,C,311625,311625,310098,310909,310098,311993,311426,311426,311993,63
58,test,1,inc,1,m,Thu Apr 03 2025 15:09:57 GMT-0500 (Central Daylight Time),319825.90000000596,cherry,900,I,m,m,None,493,294.0,199.0,70,1,1924.5,317901.40000000596,7110,bronze,NF,C,313625,313625,311999,312909,312000,313924,313426,313426,313924,64
59,test,1,con,1,z,Thu Apr 03 2025 15:09:57 GMT-0500 (Central Daylight Time),321909.90000000596,kiwi,1000,I,z,z,None,542,341.0,201.0,51,1,2080.0,319829.90000000596,7110,kiwi,NF,C,315658,315658,313928,314942,313928,316008,315457,315457,316008,65
60,test,1,con,1,z,Thu Apr 03 2025 15:09:57 GMT-0500 (Central Daylight Time),323958.700000003,pear,1100,I,z,z,None,403,190.0,213.0,44,1,2043.7999999970198,321914.90000000596,7110,pear,NF,C,317857,317857,316013,317124,316013,318057,317642,317643,318057,66
61,test,1,inc,1,m,Thu Apr 03 2025 15:09:57 GMT-0500 (Central Daylight Time),325941.40000000596,pear,900,I,m,m,None,548,349.0,199.0,102,1,1977.5,323963.90000000596,7110,gold,NF,C,319690,319690,318062,318974,318062,320039,319491,319491,320039,67
62,test,1,con,1,z,Thu Apr 03 2025 15:09:57 GMT-0500 (Central Daylight Time),328008.0,cherry,1000,I,z,z,None,521,322.0,199.0,11,1,2060.6999999955297,325947.30000000447,7110,cherry,NF,C,321773,321773,320045,321056,320046,322106,321573,321573,322106,68
63,test,1,con,1,m,Thu Apr 03 2025 15:09:57 GMT-0500 (Central Daylight Time),329973.5,zinc,1000,I,m,m,None,422,208.0,214.0,115,1,1959.7999999970198,328013.700000003,7110,zinc,NF,C,323855,323855,322112,323123,322112,324072,323641,323641,324072,69
64,test,1,inc,1,m,Thu Apr 03 2025 15:09:57 GMT-0500 (Central Daylight Time),332172.6000000015,kiwi,1000,I,m,m,None,657,458.0,199.0,119,1,2193.89999999851,329978.700000003,7110,zinc,NF,C,325805,325805,324077,325089,324077,326271,325605,325605,326271,70
65,test,1,inc,1,m,Thu Apr 03 2025 15:09:57 GMT-0500 (Central Daylight Time),334271.700000003,pear,900,I,m,m,None,669,470.0,199.0,126,1,2093.60000000149,332178.1000000015,7110,lead,NF,C,327889,327889,326276,327187,326277,328370,327689,327689,328370,71
66,test,1,inc,1,z,Thu Apr 03 2025 15:09:57 GMT-0500 (Central Daylight Time),336238.90000000596,zinc,1000,I,z,z,None,425,225.0,200.0,55,1,1962.5,334276.40000000596,7110,kiwi,NF,C,330102,330102,328374,329388,328375,330337,329902,329902,330337,72
67,test,1,inc,1,m,Thu Apr 03 2025 15:09:57 GMT-0500 (Central Daylight Time),338370.40000000596,plum,1100,I,m,m,None,485,285.0,200.0,128,1,2126.7000000029802,336243.700000003,7110,lead,NF,C,332169,332169,330342,331454,330342,332468,331969,331969,332468,73
68,test,1,inc,1,z,Thu Apr 03 2025 15:09:57 GMT-0500 (Central Daylight Time),340586.700000003,cobalt,1100,I,z,z,None,576,376.0,200.0,32,1,2210.7000000029802,338376.0,7110,raisin,NF,C,334303,334303,332474,333584,332474,334685,334102,334102,334685,74
69,test,1,inc,1,m,Thu Apr 03 2025 15:09:57 GMT-0500 (Central Daylight Time),342536.30000000447,lime,800,I,m,m,None,603,404.0,199.0,125,1,1945.7000000029802,340590.6000000015,7110,lead,NF,C,336219,336219,334689,335502,334689,336634,336019,336019,336634,75
70,test,1,inc,1,m,Thu Apr 03 2025 15:09:57 GMT-0500 (Central Daylight Time),344718.30000000447,plum,1100,I,m,m,None,545,344.0,201.0,120,1,2176.3000000044703,342542.0,7110,zinc,NF,C,338470,338470,336640,337751,336640,338816,338268,338268,338816,76
71,test,1,inc,1,z,Thu Apr 03 2025 15:09:57 GMT-0500 (Central Daylight Time),346651.6000000015,silver,1000,I,z,z,None,383,169.0,214.0,23,1,1930.3999999985099,344721.200000003,7110,orange,NF,C,340565,340565,338819,339837,338819,340750,340350,340350,340750,77
72,test,1,con,1,z,Thu Apr 03 2025 15:09:57 GMT-0500 (Central Daylight Time),348685.1000000015,lime,900,I,z,z,None,598,399.0,199.0,34,1,2028.5,346656.6000000015,7110,lime,NF,C,342384,342384,340755,341666,340755,342783,342184,342184,342783,78
73,test,1,con,1,m,Thu Apr 03 2025 15:09:57 GMT-0500 (Central Daylight Time),350766.5,gold,1000,I,m,m,None,532,332.0,200.0,99,1,2076.1999999955297,348690.30000000447,7110,gold,NF,C,344516,344516,342788,343799,342789,344865,344316,344316,344865,79
74,test,1,inc,1,m,Thu Apr 03 2025 15:09:57 GMT-0500 (Central Daylight Time),352950.5,plum,1100,I,m,m,None,551,352.0,199.0,104,1,2177.6999999955297,350772.80000000447,7110,gold,NF,C,346696,346696,344871,345982,344871,347049,346497,346497,347048,80
75,test,1,con,1,z,Thu Apr 03 2025 15:09:57 GMT-0500 (Central Daylight Time),354967.0,raisin,1000,I,z,z,None,466,266.0,200.0,27,1,2012.2999999970198,352954.700000003,7110,raisin,NF,C,348781,348781,347053,348064,347053,349065,348580,348580,349065,81
76,test,1,inc,1,z,Thu Apr 03 2025 15:09:57 GMT-0500 (Central Daylight Time),357150.30000000447,lead,1100,I,z,z,None,550,350.0,200.0,56,1,2177.89999999851,354972.40000000596,7110,kiwi,NF,C,350897,350898,349070,350179,349071,351248,350697,350697,351248,82
77,test,1,inc,1,m,Thu Apr 03 2025 15:09:57 GMT-0500 (Central Daylight Time),359363.5,raisin,1100,I,m,m,None,572,359.0,213.0,72,1,2207.89999999851,357155.6000000015,7110,bronze,NF,C,353096,353096,351254,352363,351254,353462,352882,352882,353462,83
78,test,1,inc,1,z,Thu Apr 03 2025 15:09:57 GMT-0500 (Central Daylight Time),361431.1000000015,silver,1000,I,z,z,None,532,333.0,199.0,7,1,2061.7999999970198,359369.30000000447,7110,banana,NF,C,355196,355196,353467,354480,353468,355529,354996,354996,355529,84
79,test,1,inc,1,z,Thu Apr 03 2025 15:09:57 GMT-0500 (Central Daylight Time),363513.40000000596,iron,900,I,z,z,None,638,437.0,201.0,62,1,2076.8000000044703,361436.6000000015,7110,plum,NF,C,357162,357162,355535,356445,355535,357611,356961,356961,357611,85
80,test,1,inc,1,z,Thu Apr 03 2025 15:09:57 GMT-0500 (Central Daylight Time),365595.0,lead,1100,I,z,z,None,434,217.0,217.0,48,1,2077.5,363517.5,7110,pear,NF,C,359462,359462,357616,358727,357616,359693,359245,359245,359693,86
81,test,1,con,1,z,Thu Apr 03 2025 15:09:57 GMT-0500 (Central Daylight Time),367561.30000000447,orange,900,I,z,z,None,528,327.0,201.0,18,1,1960.8000000044703,365600.5,7110,orange,NF,C,361328,361328,359699,360611,359699,361659,361127,361127,361659,87
82,test,1,inc,1,m,Thu Apr 03 2025 15:09:57 GMT-0500 (Central Daylight Time),369511.5,kiwi,1000,I,m,m,None,408,207.0,201.0,127,1,1946.8999999985099,367564.6000000015,7110,lead,NF,C,363392,363392,361663,362677,361663,363610,363191,363191,363610,88
83,test,1,inc,1,z,Thu Apr 03 2025 15:09:57 GMT-0500 (Central Daylight Time),371494.1000000015,silver,1000,I,z,z,None,464,249.0,215.0,15,1,1977.1999999955297,369516.90000000596,7110,cherry,NF,C,365343,365343,363615,364625,363615,365592,365127,365127,365592,89
84,test,1,con,1,z,Thu Apr 03 2025 15:09:57 GMT-0500 (Central Daylight Time),373526.90000000596,orange,800,I,z,z,None,697,482.0,215.0,17,1,2029.2000000029802,371497.700000003,7110,orange,NF,C,367142,367142,365596,366409,365596,367625,366926,366926,367625,90
85,test,1,inc,1,m,Thu Apr 03 2025 15:09:57 GMT-0500 (Central Daylight Time),375408.90000000596,banana,800,I,m,m,None,543,328.0,215.0,93,1,1875.5,373533.40000000596,7110,cobalt,NF,C,369175,369175,367631,368441,367632,369507,368959,368959,369507,91
86,test,1,con,1,z,Thu Apr 03 2025 15:09:57 GMT-0500 (Central Daylight Time),377325.0,raisin,900,I,z,z,None,475,276.0,199.0,26,1,1910.2999999970198,375414.700000003,7110,raisin,NF,C,371139,371139,369513,370425,369513,371423,370940,370940,371423,92
87,test,1,con,1,m,Thu Apr 03 2025 15:09:57 GMT-0500 (Central Daylight Time),379257.30000000447,bronze,900,I,m,m,None,492,279.0,213.0,66,1,1928.5,377328.80000000447,7110,bronze,NF,C,373072,373072,371427,372341,371427,373355,372858,372858,373355,93
88,test,1,con,1,m,Thu Apr 03 2025 15:09:57 GMT-0500 (Central Daylight Time),381123.6000000015,gold,800,I,m,m,None,525,310.0,215.0,97,1,1862.3999999985099,379261.200000003,7110,gold,NF,C,374905,374905,373359,374174,373360,375222,374690,374690,375222,94
88,test,1,con,0,z,Thu Apr 03 2025 15:09:57 GMT-0500 (Central Daylight Time),382955.80000000447,kiwi,900,I,m,m,None,379,166.0,213.0,50,1,1827.8000000044703,381128.0,7110,kiwi,NF,C,376871,376872,375226,376139,375226,377054,376658,376658,377054,95
89,test,1,con,1,m,Thu Apr 03 2025 15:09:57 GMT-0500 (Central Daylight Time),384773.6000000015,cobalt,800,I,m,m,None,484,281.0,203.0,89,1,1811.8999999985099,382961.700000003,7110,cobalt,NF,C,378590,378590,377060,377872,377060,378872,378387,378387,378872,96
90,test,1,inc,1,z,Thu Apr 03 2025 15:09:57 GMT-0500 (Central Daylight Time),386704.0,iron,900,I,z,z,None,494,277.0,217.0,38,1,1925.5999999940395,384778.40000000596,7110,lime,NF,C,380522,380522,378876,379788,378877,380802,380305,380305,380802,97
91,test,1,con,1,z,Thu Apr 03 2025 15:09:57 GMT-0500 (Central Daylight Time),388471.6000000015,lime,800,I,z,z,None,436,221.0,215.0,33,1,1762.6999999955297,386708.90000000596,7110,lime,NF,C,382338,382338,380807,381620,380807,382570,382122,382122,382570,98
92,test,1,con,1,z,Thu Apr 03 2025 15:09:57 GMT-0500 (Central Daylight Time),390554.6000000015,plum,1100,I,z,z,None,443,244.0,199.0,60,1,2078.60000000149,388476.0,7110,plum,NF,C,384403,384403,382574,383687,382574,384653,384203,384203,384653,99
93,test,1,inc,1,z,Thu Apr 03 2025 15:09:57 GMT-0500 (Central Daylight Time),392703.40000000596,cobalt,1100,I,z,z,None,504,305.0,199.0,24,1,2145.0,390558.40000000596,7110,orange,NF,C,386486,386486,384656,385767,384657,386801,386286,386286,386801,100
94,test,1,inc,1,m,Thu Apr 03 2025 15:09:57 GMT-0500 (Central Daylight Time),394552.40000000596,lime,800,I,m,m,None,503,304.0,199.0,109,1,1842.2000000029802,392710.200000003,7110,iron,NF,C,388335,388335,386808,387619,386809,388650,388136,388136,388650,101
95,test,1,con,1,m,Thu Apr 03 2025 15:09:57 GMT-0500 (Central Daylight Time),396485.5,copper,1000,I,m,m,None,390,190.0,200.0,75,1,1928.1999999955297,394557.30000000447,7110,copper,NF,C,390384,390385,388655,389667,388656,390584,390184,390184,390583,102
96,test,1,con,1,m,Thu Apr 03 2025 15:09:57 GMT-0500 (Central Daylight Time),398634.80000000447,lead,1100,I,m,m,None,509,310.0,199.0,124,1,2145.0,396489.80000000447,7110,lead,NF,C,392417,392417,390588,391701,390588,392733,392218,392218,392733,103
97,test,1,con,1,z,Thu Apr 03 2025 15:09:57 GMT-0500 (Central Daylight Time),400566.40000000596,lime,1100,I,z,z,None,288,89.0,199.0,36,1,1927.2000000029802,398639.200000003,7110,lime,NF,C,394566,394566,392737,393850,392738,394665,394367,394367,394664,104
98,test,1,inc,1,z,Thu Apr 03 2025 15:09:57 GMT-0500 (Central Daylight Time),402550.40000000596,zinc,1000,I,z,z,None,440,241.0,199.0,39,1,1979.6000000014901,400570.80000000447,7110,lime,NF,C,396398,396398,394669,395682,394669,396648,396199,396199,396648,105
99,test,1,inc,1,z,Thu Apr 03 2025 15:09:57 GMT-0500 (Central Daylight Time),404400.40000000596,gold,800,I,z,z,None,498,298.0,200.0,53,1,1846.0,402554.40000000596,7110,kiwi,NF,C,398183,398183,396652,397466,396653,398499,397982,397982,398498,106
100,test,1,con,1,z,Thu Apr 03 2025 15:09:57 GMT-0500 (Central Daylight Time),406399.0,pear,1000,I,z,z,None,451,251.0,200.0,43,1,1991.7999999970198,404407.200000003,7110,pear,NF,C,400232,400232,398505,399516,398506,400497,400031,400031,400497,107
101,test,1,inc,1,m,Thu Apr 03 2025 15:09:57 GMT-0500 (Central Daylight Time),408598.700000003,orange,1000,I,m,m,None,656,456.0,200.0,95,1,2194.10000000149,406404.6000000015,7110,cobalt,NF,C,402231,402231,400503,401515,400503,402697,402031,402031,402697,108
102,test,1,con,1,z,Thu Apr 03 2025 15:09:57 GMT-0500 (Central Daylight Time),410764.6000000015,orange,1100,I,z,z,None,524,307.0,217.0,20,1,2159.6999999955297,408604.90000000596,7110,orange,NF,C,404548,404548,402703,403815,402703,404863,404330,404330,404863,109
103,test,1,con,1,z,Thu Apr 03 2025 15:09:57 GMT-0500 (Central Daylight Time),412844.80000000447,orange,1000,I,z,z,None,530,330.0,200.0,19,1,2072.89999999851,410771.90000000596,7110,orange,NF,C,406596,406596,404870,405880,404870,406943,406396,406396,406943,110
104,test,1,inc,1,z,Thu Apr 03 2025 15:09:57 GMT-0500 (Central Daylight Time),415029.5,lead,1100,I,z,z,None,548,349.0,199.0,40,1,2181.89999999851,412847.6000000015,7110,lime,NF,C,408778,408778,406946,408062,406946,409128,408579,408579,409128,111
105,test,1,con,1,z,Thu Apr 03 2025 15:09:57 GMT-0500 (Central Daylight Time),417144.40000000596,lime,1000,I,z,z,None,569,370.0,199.0,35,1,2111.3000000044703,415033.1000000015,7110,lime,NF,C,410861,410861,409131,410144,409131,411243,410662,410662,411242,112
106,test,1,inc,1,z,Thu Apr 03 2025 15:09:57 GMT-0500 (Central Daylight Time),419062.80000000447,bronze,800,I,z,z,None,581,368.0,213.0,13,1,1912.0,417150.80000000447,7110,cherry,NF,C,412777,412777,411249,412062,411249,413161,412563,412563,413161,113
107,test,1,inc,1,z,Thu Apr 03 2025 15:09:57 GMT-0500 (Central Daylight Time),421096.1000000015,bronze,800,I,z,z,None,688,488.0,200.0,21,1,2029.7999999970198,419066.30000000447,7110,orange,NF,C,414695,414695,413164,413979,413165,415194,414494,414494,415194,114
108,test,1,con,1,m,Thu Apr 03 2025 15:09:57 GMT-0500 (Central Daylight Time),423010.0,lead,800,I,m,m,None,591,377.0,214.0,121,1,1908.0,421102.0,7110,lead,NF,C,416726,416726,415200,416010,415200,417108,416512,416512,417108,115
109,test,1,inc,1,z,Thu Apr 03 2025 15:09:57 GMT-0500 (Central Daylight Time),424810.90000000596,gold,800,I,z,z,None,460,260.0,200.0,45,1,1796.5,423014.40000000596,7110,pear,NF,C,418643,418643,417112,417926,417113,418909,418442,418442,418909,116
110,test,1,con,1,z,Thu Apr 03 2025 15:09:57 GMT-0500 (Central Daylight Time),426759.6000000015,plum,800,I,z,z,None,604,389.0,215.0,57,1,1943.0,424816.6000000015,7110,plum,NF,C,420458,420458,418915,419726,418915,420858,420243,420243,420858,117
111,test,1,inc,1,m,Thu Apr 03 2025 15:09:57 GMT-0500 (Central Daylight Time),428808.700000003,kiwi,1000,I,m,m,None,504,305.0,199.0,111,1,2044.2000000029802,426764.5,7110,iron,NF,C,422590,422590,420863,421875,420863,422907,422391,422391,422907,118
112,test,1,inc,1,z,Thu Apr 03 2025 15:09:57 GMT-0500 (Central Daylight Time),430592.30000000447,gold,800,I,z,z,None,449,250.0,199.0,61,1,1777.6000000014901,428814.700000003,7110,plum,NF,C,424439,424440,422913,423723,422913,424690,424240,424240,424690,119
113,test,1,inc,1,m,Thu Apr 03 2025 15:09:57 GMT-0500 (Central Daylight Time),432573.1000000015,orange,1000,I,m,m,None,447,247.0,200.0,79,1,1972.3999999985099,430600.700000003,7110,copper,NF,C,426424,426424,424699,425707,424699,426671,426223,426223,426671,120
114,test,1,con,1,m,Thu Apr 03 2025 15:09:57 GMT-0500 (Central Daylight Time),434689.90000000596,cobalt,1000,I,m,m,None,582,383.0,199.0,91,1,2112.4000000059605,432577.5,7110,cobalt,NF,C,428391,428391,426676,427690,426676,428788,428192,428192,428788,121
115,test,1,inc,1,z,Thu Apr 03 2025 15:09:57 GMT-0500 (Central Daylight Time),436423.80000000447,gold,800,I,z,z,None,388,189.0,199.0,37,1,1727.1000000014901,434696.700000003,7110,lime,NF,C,430322,430322,428795,429606,428795,430522,430122,430122,430522,122
116,test,1,inc,1,z,Thu Apr 03 2025 15:09:57 GMT-0500 (Central Daylight Time),438723.90000000596,cobalt,1100,I,z,z,None,652,451.0,201.0,16,1,2295.2000000029802,436428.700000003,7110,cherry,NF,C,432355,432355,430527,431638,430527,432822,432153,432153,432822,123
117,test,1,con,1,m,Thu Apr 03 2025 15:09:57 GMT-0500 (Central Daylight Time),440738.0,lead,1000,I,m,m,None,476,260.0,216.0,123,1,2011.2999999970198,438726.700000003,7110,lead,NF,C,434571,434571,432825,433838,432825,434836,434354,434354,434836,124
118,test,1,inc,1,z,Thu Apr 03 2025 15:09:57 GMT-0500 (Central Daylight Time),442587.5,copper,900,I,z,z,None,417,218.0,199.0,6,1,1843.2999999970198,440744.200000003,7110,banana,NF,C,436453,436453,434842,435752,434843,436686,436254,436254,436686,125
118,test,1,con,0,z,Thu Apr 03 2025 15:09:57 GMT-0500 (Central Daylight Time),444952.80000000447,cherry,1100,I,m,m,None,721,520.0,201.0,12,1,2360.8000000044703,442592.0,7110,cherry,NF,C,438519,438519,436690,437804,436690,439051,438318,438318,439051,126
119,test,1,con,1,m,Thu Apr 03 2025 15:09:57 GMT-0500 (Central Daylight Time),446818.700000003,bronze,800,I,m,m,None,524,325.0,199.0,65,1,1860.7999999970198,444957.90000000596,7110,bronze,NF,C,440586,440586,439056,439870,439056,440917,440387,440387,440917,127
120,test,1,inc,1,z,Thu Apr 03 2025 15:09:57 GMT-0500 (Central Daylight Time),448918.700000003,copper,900,I,z,z,None,665,463.0,202.0,30,1,2095.7999999970198,446822.90000000596,7110,raisin,NF,C,442553,442553,440921,441835,440921,443017,442351,442351,443017,128
