acc_sum,block,block_c,block_cond,con_img,correct,correct_response,datetime,endtime,face,jitter,line,project,response,response_time,row_sel,session_number,start_end,starttime,subject_id,task,task_vers,trial
1,prac,1,A,haborder.png,1,m,Fri Apr 18 2025 11:43:56 GMT-0500 (Central Daylight Time),56804.20000000298,CFD-WF-011-006-HC.jpg,1500,solid,O,m,685,11,1,2981.8999999910593,53822.30000001192,7126,ATS,B,1
2,prac,1,A,haborder.png,1,m,Fri Apr 18 2025 11:43:56 GMT-0500 (Central Daylight Time),59771.90000000596,CFD-BM-020-024-HC.jpg,1500,solid,O,m,681,3,1,5949.5999999940395,53822.30000001192,7126,ATS,B,2
3,prac,1,A,haborder.png,1,z,Fri Apr 18 2025 11:43:56 GMT-0500 (Central Daylight Time),62953.0,CFD-WM-009-009-A.jpg,1900,solid,O,z,488,8,1,9130.699999988079,53822.30000001192,7126,ATS,B,3
4,prac,1,A,haborder.png,1,z,Fri Apr 18 2025 11:43:56 GMT-0500 (Central Daylight Time),65884.30000001192,CFD-BM-037-041-A.jpg,1600,solid,O,z,546,2,1,12062.0,53822.30000001192,7126,ATS,B,4
5,prac,1,A,haborder.png,1,z,Fri Apr 18 2025 11:43:56 GMT-0500 (Central Daylight Time),68449.0,CFD-WF-013-015-A.jpg,1000,solid,O,z,771,12,1,14626.699999988079,53822.30000001192,7126,ATS,B,5
6,prac,1,A,haborder.png,1,m,Fri Apr 18 2025 11:43:56 GMT-0500 (Central Daylight Time),71150.70000000298,CFD-WM-011-006-HC.jpg,1400,solid,O,m,510,7,1,17328.39999999106,53822.30000001192,7126,ATS,B,6
7,prac,1,A,haborder.png,1,z,Fri Apr 18 2025 11:43:56 GMT-0500 (Central Daylight Time),73767.0,CFD-BF-050-012-A.jpg,1200,solid,O,z,618,6,1,19944.69999998808,53822.30000001192,7126,ATS,B,7
8,prac,1,A,haborder.png,1,z,Fri Apr 18 2025 11:43:56 GMT-0500 (Central Daylight Time),76867.30000001192,CFD-WF-026-008-A.jpg,1600,solid,O,z,700,10,1,23045.0,53822.30000001192,7126,ATS,B,8
9,prac,1,A,haborder.png,1,m,Fri Apr 18 2025 11:43:56 GMT-0500 (Central Daylight Time),80198.0,CFD-BM-015-017-HC.jpg,1700,solid,O,m,846,1,1,26375.69999998808,53822.30000001192,7126,ATS,B,9
10,prac,1,A,haborder.png,1,m,Fri Apr 18 2025 11:43:56 GMT-0500 (Central Daylight Time),83746.90000000596,CFD-BF-035-007-HC.jpg,2000,solid,O,m,749,5,1,29924.59999999404,53822.30000001192,7126,ATS,B,10
11,prac,1,A,haborder.png,1,z,Fri Apr 18 2025 11:43:56 GMT-0500 (Central Daylight Time),86145.90000000596,CFD-BF-051-043-A.jpg,1000,solid,O,z,598,4,1,32323.59999999404,53822.30000001192,7126,ATS,B,11
12,prac,1,A,haborder.png,1,m,Fri Apr 18 2025 11:43:56 GMT-0500 (Central Daylight Time),89259.70000000298,CFD-WM-012-007-HC.jpg,1700,solid,O,m,633,9,1,35437.39999999106,53822.30000001192,7126,ATS,B,12
1,prac,1,B,mfborder.png,1,z,Fri Apr 18 2025 11:43:56 GMT-0500 (Central Daylight Time),121217.40000000596,CFD-WF-026-008-A.jpg,1500,dash,O,z,893,11,1,3185.0,118032.40000000596,7126,ATS,B,1
2,prac,1,B,mfborder.png,1,m,Fri Apr 18 2025 11:43:56 GMT-0500 (Central Daylight Time),124416.60000000894,CFD-BM-020-024-HC.jpg,1700,dash,O,m,709,1,1,6384.20000000298,118032.40000000596,7126,ATS,B,2
3,prac,1,B,mfborder.png,1,z,Fri Apr 18 2025 11:43:56 GMT-0500 (Central Daylight Time),126649.5,CFD-WF-011-006-HC.jpg,1000,dash,O,z,449,12,1,8617.09999999404,118032.40000000596,7126,ATS,B,3
4,prac,1,B,mfborder.png,1,z,Fri Apr 18 2025 11:43:56 GMT-0500 (Central Daylight Time),129563.80000001192,CFD-BF-027-013-HC.jpg,1500,dash,O,z,628,3,1,11531.40000000596,118032.40000000596,7126,ATS,B,4
5,prac,1,B,mfborder.png,1,m,Fri Apr 18 2025 11:43:56 GMT-0500 (Central Daylight Time),132546.60000000894,CFD-WM-012-007-HC.jpg,1600,dash,O,m,597,10,1,14514.20000000298,118032.40000000596,7126,ATS,B,5
6,prac,1,B,mfborder.png,1,m,Fri Apr 18 2025 11:43:56 GMT-0500 (Central Daylight Time),136212.10000000894,CFD-BM-037-041-A.jpg,2000,dash,O,m,865,5,1,18179.70000000298,118032.40000000596,7126,ATS,B,6
7,prac,1,B,mfborder.png,1,z,Fri Apr 18 2025 11:43:56 GMT-0500 (Central Daylight Time),138896.0,CFD-BF-035-007-HC.jpg,1400,dash,O,z,494,7,1,20863.59999999404,118032.40000000596,7126,ATS,B,7
8,prac,1,B,mfborder.png,1,m,Fri Apr 18 2025 11:43:56 GMT-0500 (Central Daylight Time),141926.70000000298,CFD-WM-009-009-A.jpg,1700,dash,O,m,551,9,1,23894.29999999702,118032.40000000596,7126,ATS,B,8
9,prac,1,B,mfborder.png,1,z,Fri Apr 18 2025 11:43:56 GMT-0500 (Central Daylight Time),144378.0,CFD-BF-051-043-A.jpg,1000,dash,O,z,666,4,1,26345.59999999404,118032.40000000596,7126,ATS,B,9
9,prac,1,B,mfborder.png,0,m,Fri Apr 18 2025 11:43:56 GMT-0500 (Central Daylight Time),147326.70000000298,CFD-WM-037-060-A.jpg,1200,dash,O,z,977,6,1,29294.29999999702,118032.40000000596,7126,ATS,B,10
10,prac,1,B,mfborder.png,1,m,Fri Apr 18 2025 11:43:56 GMT-0500 (Central Daylight Time),150675.5,CFD-BM-041-048-A.jpg,1600,dash,O,m,955,2,1,32643.09999999404,118032.40000000596,7126,ATS,B,11
11,prac,1,B,mfborder.png,1,z,Fri Apr 18 2025 11:43:56 GMT-0500 (Central Daylight Time),154139.70000000298,CFD-WF-027-007-HC.jpg,1900,dash,O,z,766,8,1,36107.29999999702,118032.40000000596,7126,ATS,B,12
1,test,1,A,haborder.png,1,z,Fri Apr 18 2025 11:43:56 GMT-0500 (Central Daylight Time),178732.10000000894,CFD-BF-051-043-A.jpg,1000,solid,O,z,871,4,1,1897.6000000089407,176834.5,7126,ATS,B,1
2,test,1,A,haborder.png,1,z,Fri Apr 18 2025 11:43:56 GMT-0500 (Central Daylight Time),181280.60000000894,CFD-WM-009-009-A.jpg,1900,solid,O,z,617,8,1,4446.100000008941,176834.5,7126,ATS,B,2
3,test,1,A,haborder.png,1,z,Fri Apr 18 2025 11:43:56 GMT-0500 (Central Daylight Time),183764.20000000298,CFD-WM-009-009-A.jpg,1900,solid,O,z,557,8,1,6929.70000000298,176834.5,7126,ATS,B,3
4,test,1,A,haborder.png,1,m,Fri Apr 18 2025 11:43:56 GMT-0500 (Central Daylight Time),186128.90000000596,CFD-BM-015-017-HC.jpg,1700,solid,O,m,640,1,1,9294.40000000596,176834.5,7126,ATS,B,4
5,test,1,A,haborder.png,1,z,Fri Apr 18 2025 11:43:56 GMT-0500 (Central Daylight Time),187762.90000000596,CFD-BF-051-043-A.jpg,1000,solid,O,z,608,4,1,10928.40000000596,176834.5,7126,ATS,B,5
5,test,1,A,haborder.png,0,z,Fri Apr 18 2025 11:43:56 GMT-0500 (Central Daylight Time),189377.80000001192,CFD-WF-013-015-A.jpg,1000,solid,O,m,591,12,1,12543.300000011921,176834.5,7126,ATS,B,6
6,test,1,A,haborder.png,1,m,Fri Apr 18 2025 11:43:56 GMT-0500 (Central Daylight Time),191527.60000000894,CFD-WF-011-006-HC.jpg,1500,solid,O,m,616,11,1,14693.10000000894,176834.5,7126,ATS,B,7
7,test,1,A,haborder.png,1,z,Fri Apr 18 2025 11:43:56 GMT-0500 (Central Daylight Time),193777.80000001192,CFD-BM-037-041-A.jpg,1600,solid,O,z,624,2,1,16943.30000001192,176834.5,7126,ATS,B,8
8,test,1,A,haborder.png,1,z,Fri Apr 18 2025 11:43:56 GMT-0500 (Central Daylight Time),195942.70000000298,CFD-BM-037-041-A.jpg,1600,solid,O,z,535,2,1,19108.20000000298,176834.5,7126,ATS,B,9
9,test,1,A,haborder.png,1,z,Fri Apr 18 2025 11:43:56 GMT-0500 (Central Daylight Time),198325.90000000596,CFD-WF-026-008-A.jpg,1600,solid,O,z,750,10,1,21491.40000000596,176834.5,7126,ATS,B,10
10,test,1,A,haborder.png,1,m,Fri Apr 18 2025 11:43:56 GMT-0500 (Central Daylight Time),200575.40000000596,CFD-WM-012-007-HC.jpg,1700,solid,O,m,518,9,1,23740.90000000596,176834.5,7126,ATS,B,11
11,test,1,A,haborder.png,1,z,Fri Apr 18 2025 11:43:56 GMT-0500 (Central Daylight Time),202473.70000000298,CFD-BF-050-012-A.jpg,1200,solid,O,z,673,6,1,25639.20000000298,176834.5,7126,ATS,B,12
12,test,1,A,haborder.png,1,m,Fri Apr 18 2025 11:43:56 GMT-0500 (Central Daylight Time),205240.10000000894,CFD-BF-035-007-HC.jpg,2000,solid,O,m,734,5,1,28405.60000000894,176834.5,7126,ATS,B,13
13,test,1,A,haborder.png,1,z,Fri Apr 18 2025 11:43:56 GMT-0500 (Central Daylight Time),207639.70000000298,CFD-WF-013-015-A.jpg,1000,solid,O,z,1377,12,1,30805.20000000298,176834.5,7126,ATS,B,14
13,test,1,A,haborder.png,0,m,Fri Apr 18 2025 11:43:56 GMT-0500 (Central Daylight Time),210339.60000000894,CFD-BM-015-017-HC.jpg,1700,solid,O,z,966,1,1,33505.10000000894,176834.5,7126,ATS,B,15
14,test,1,A,haborder.png,1,z,Fri Apr 18 2025 11:43:56 GMT-0500 (Central Daylight Time),212687.10000000894,CFD-WF-026-008-A.jpg,1600,solid,O,z,710,10,1,35852.60000000894,176834.5,7126,ATS,B,16
15,test,1,A,haborder.png,1,z,Fri Apr 18 2025 11:43:56 GMT-0500 (Central Daylight Time),214620.90000000596,CFD-BF-050-012-A.jpg,1200,solid,O,z,705,6,1,37786.40000000596,176834.5,7126,ATS,B,17
16,test,1,A,haborder.png,1,m,Fri Apr 18 2025 11:43:56 GMT-0500 (Central Daylight Time),216736.10000000894,CFD-WF-011-006-HC.jpg,1500,solid,O,m,591,11,1,39901.60000000894,176834.5,7126,ATS,B,18
17,test,1,A,haborder.png,1,m,Fri Apr 18 2025 11:43:56 GMT-0500 (Central Daylight Time),218736.5,CFD-WM-011-006-HC.jpg,1400,solid,O,m,575,7,1,41902.0,176834.5,7126,ATS,B,19
17,test,1,A,haborder.png,0,m,Fri Apr 18 2025 11:43:56 GMT-0500 (Central Daylight Time),221368.5,CFD-BF-035-007-HC.jpg,2000,solid,O,z,600,5,1,44534.0,176834.5,7126,ATS,B,20
18,test,1,A,haborder.png,1,m,Fri Apr 18 2025 11:43:56 GMT-0500 (Central Daylight Time),223701.70000000298,CFD-WM-012-007-HC.jpg,1700,solid,O,m,616,9,1,46867.20000000298,176834.5,7126,ATS,B,21
19,test,1,A,haborder.png,1,m,Fri Apr 18 2025 11:43:56 GMT-0500 (Central Daylight Time),225617.30000001192,CFD-WM-011-006-HC.jpg,1400,solid,O,m,493,7,1,48782.80000001192,176834.5,7126,ATS,B,22
20,test,1,A,haborder.png,1,m,Fri Apr 18 2025 11:43:56 GMT-0500 (Central Daylight Time),227668.20000000298,CFD-BM-020-024-HC.jpg,1500,solid,O,m,526,3,1,50833.70000000298,176834.5,7126,ATS,B,23
21,test,1,A,haborder.png,1,m,Fri Apr 18 2025 11:43:56 GMT-0500 (Central Daylight Time),229699.70000000298,CFD-BM-020-024-HC.jpg,1500,solid,O,m,507,3,1,52865.20000000298,176834.5,7126,ATS,B,24
1,test,1,B,mfborder.png,1,m,Fri Apr 18 2025 11:43:56 GMT-0500 (Central Daylight Time),245694.5,CFD-WM-037-060-A.jpg,1200,dash,O,m,802,6,1,2034.3999999910593,243660.10000000894,7126,ATS,B,1
2,test,1,B,mfborder.png,1,z,Fri Apr 18 2025 11:43:56 GMT-0500 (Central Daylight Time),247809.60000000894,CFD-BF-027-013-HC.jpg,1500,dash,O,z,590,3,1,4149.5,243660.10000000894,7126,ATS,B,2
3,test,1,B,mfborder.png,1,z,Fri Apr 18 2025 11:43:56 GMT-0500 (Central Daylight Time),249893.20000000298,CFD-WF-026-008-A.jpg,1500,dash,O,z,565,11,1,6233.0999999940395,243660.10000000894,7126,ATS,B,3
4,test,1,B,mfborder.png,1,m,Fri Apr 18 2025 11:43:56 GMT-0500 (Central Daylight Time),251958.5,CFD-WM-037-060-A.jpg,1200,dash,O,m,844,6,1,8298.39999999106,243660.10000000894,7126,ATS,B,4
5,test,1,B,mfborder.png,1,z,Fri Apr 18 2025 11:43:56 GMT-0500 (Central Daylight Time),253943.10000000894,CFD-WF-011-006-HC.jpg,1000,dash,O,z,949,12,1,10283.0,243660.10000000894,7126,ATS,B,5
6,test,1,B,mfborder.png,1,m,Fri Apr 18 2025 11:43:56 GMT-0500 (Central Daylight Time),256391.20000000298,CFD-BM-020-024-HC.jpg,1700,dash,O,m,718,1,1,12731.09999999404,243660.10000000894,7126,ATS,B,6
6,test,1,B,mfborder.png,0,m,Fri Apr 18 2025 11:43:56 GMT-0500 (Central Daylight Time),259528.40000000596,CFD-BM-041-048-A.jpg,1600,dash,O,None,1514,2,1,15868.29999999702,243660.10000000894,7126,ATS,B,7
7,test,1,B,mfborder.png,1,z,Fri Apr 18 2025 11:43:56 GMT-0500 (Central Daylight Time),262071.60000000894,CFD-WF-027-007-HC.jpg,1900,dash,O,z,617,8,1,18411.5,243660.10000000894,7126,ATS,B,8
8,test,1,B,mfborder.png,1,m,Fri Apr 18 2025 11:43:56 GMT-0500 (Central Daylight Time),264371.60000000894,CFD-WM-009-009-A.jpg,1700,dash,O,m,581,9,1,20711.5,243660.10000000894,7126,ATS,B,9
9,test,1,B,mfborder.png,1,z,Fri Apr 18 2025 11:43:56 GMT-0500 (Central Daylight Time),267021.10000000894,CFD-WF-027-007-HC.jpg,1900,dash,O,z,731,8,1,23361.0,243660.10000000894,7126,ATS,B,10
10,test,1,B,mfborder.png,1,z,Fri Apr 18 2025 11:43:56 GMT-0500 (Central Daylight Time),269037.8000000119,CFD-BF-035-007-HC.jpg,1400,dash,O,z,601,7,1,25377.70000000298,243660.10000000894,7126,ATS,B,11
11,test,1,B,mfborder.png,1,z,Fri Apr 18 2025 11:43:56 GMT-0500 (Central Daylight Time),270970.8000000119,CFD-BF-035-007-HC.jpg,1400,dash,O,z,515,7,1,27310.70000000298,243660.10000000894,7126,ATS,B,12
12,test,1,B,mfborder.png,1,m,Fri Apr 18 2025 11:43:56 GMT-0500 (Central Daylight Time),273335.0,CFD-WM-009-009-A.jpg,1700,dash,O,m,644,9,1,29674.89999999106,243660.10000000894,7126,ATS,B,13
13,test,1,B,mfborder.png,1,m,Fri Apr 18 2025 11:43:56 GMT-0500 (Central Daylight Time),275801.3000000119,CFD-WM-012-007-HC.jpg,1600,dash,O,m,843,10,1,32141.20000000298,243660.10000000894,7126,ATS,B,14
13,test,1,B,mfborder.png,0,z,Fri Apr 18 2025 11:43:56 GMT-0500 (Central Daylight Time),278830.90000000596,CFD-BF-027-013-HC.jpg,1500,dash,O,None,1513,3,1,35170.79999999702,243660.10000000894,7126,ATS,B,15
14,test,1,B,mfborder.png,1,m,Fri Apr 18 2025 11:43:56 GMT-0500 (Central Daylight Time),281883.0,CFD-BM-020-024-HC.jpg,1700,dash,O,m,1333,1,1,38222.89999999106,243660.10000000894,7126,ATS,B,16
15,test,1,B,mfborder.png,1,z,Fri Apr 18 2025 11:43:56 GMT-0500 (Central Daylight Time),284015.90000000596,CFD-WF-026-008-A.jpg,1500,dash,O,z,602,11,1,40355.79999999702,243660.10000000894,7126,ATS,B,17
16,test,1,B,mfborder.png,1,z,Fri Apr 18 2025 11:43:56 GMT-0500 (Central Daylight Time),285649.10000000894,CFD-WF-011-006-HC.jpg,1000,dash,O,z,600,12,1,41989.0,243660.10000000894,7126,ATS,B,18
17,test,1,B,mfborder.png,1,m,Fri Apr 18 2025 11:43:56 GMT-0500 (Central Daylight Time),288264.10000000894,CFD-BM-037-041-A.jpg,2000,dash,O,m,593,5,1,44604.0,243660.10000000894,7126,ATS,B,19
18,test,1,B,mfborder.png,1,z,Fri Apr 18 2025 11:43:56 GMT-0500 (Central Daylight Time),289879.8000000119,CFD-BF-051-043-A.jpg,1000,dash,O,z,592,4,1,46219.70000000298,243660.10000000894,7126,ATS,B,20
19,test,1,B,mfborder.png,1,m,Fri Apr 18 2025 11:43:56 GMT-0500 (Central Daylight Time),292461.90000000596,CFD-BM-037-041-A.jpg,2000,dash,O,m,560,5,1,48801.79999999702,243660.10000000894,7126,ATS,B,21
20,test,1,B,mfborder.png,1,z,Fri Apr 18 2025 11:43:56 GMT-0500 (Central Daylight Time),294078.60000000894,CFD-BF-051-043-A.jpg,1000,dash,O,z,595,4,1,50418.5,243660.10000000894,7126,ATS,B,22
21,test,1,B,mfborder.png,1,m,Fri Apr 18 2025 11:43:56 GMT-0500 (Central Daylight Time),296178.60000000894,CFD-WM-012-007-HC.jpg,1600,dash,O,m,475,10,1,52518.5,243660.10000000894,7126,ATS,B,23
22,test,1,B,mfborder.png,1,m,Fri Apr 18 2025 11:43:56 GMT-0500 (Central Daylight Time),298429.5,CFD-BM-041-048-A.jpg,1600,dash,O,m,632,2,1,54769.39999999106,243660.10000000894,7126,ATS,B,24
1,2,1,C,mfborder.png,1,z,Fri Apr 18 2025 11:43:56 GMT-0500 (Central Daylight Time),336850.5,CFD-WF-013-015-A.jpg,1500,solid,O,z,1407,prac,1,3684.699999988079,333165.8000000119,7126,ATS,B,1
2,3,1,C,mfborder.png,1,z,Fri Apr 18 2025 11:43:56 GMT-0500 (Central Daylight Time),339515.60000000894,CFD-BF-035-007-HC.jpg,1000,dash,O,z,873,prac,1,6349.79999999702,333165.8000000119,7126,ATS,B,2
2,5,1,C,mfborder.png,0,m,Fri Apr 18 2025 11:43:56 GMT-0500 (Central Daylight Time),343012.90000000596,CFD-BM-037-041-A.jpg,1200,dash,O,None,1514,prac,1,9847.09999999404,333165.8000000119,7126,ATS,B,3
3,10,1,C,haborder.png,1,m,Fri Apr 18 2025 11:43:56 GMT-0500 (Central Daylight Time),346163.3000000119,CFD-BM-020-024-HC.jpg,1500,solid,O,m,866,prac,1,12997.5,333165.8000000119,7126,ATS,B,4
3,4,1,C,mfborder.png,0,m,Fri Apr 18 2025 11:43:56 GMT-0500 (Central Daylight Time),349679.10000000894,CFD-BM-015-017-HC.jpg,2000,solid,O,z,718,prac,1,16513.29999999702,333165.8000000119,7126,ATS,B,5
4,11,1,C,haborder.png,1,m,Fri Apr 18 2025 11:43:56 GMT-0500 (Central Daylight Time),352043.3000000119,CFD-WM-011-006-HC.jpg,1000,dash,O,m,570,prac,1,18877.5,333165.8000000119,7126,ATS,B,6
5,7,1,C,haborder.png,1,z,Fri Apr 18 2025 11:43:56 GMT-0500 (Central Daylight Time),355527.8000000119,CFD-BF-051-043-A.jpg,1900,dash,O,z,785,prac,1,22362.0,333165.8000000119,7126,ATS,B,7
5,6,1,C,mfborder.png,0,m,Fri Apr 18 2025 11:43:56 GMT-0500 (Central Daylight Time),359141.90000000596,CFD-WM-009-009-A.jpg,1700,solid,O,z,1143,prac,1,25976.09999999404,333165.8000000119,7126,ATS,B,8
6,12,1,C,haborder.png,1,m,Fri Apr 18 2025 11:43:56 GMT-0500 (Central Daylight Time),362225.700000003,CFD-WM-011-006-HC.jpg,1400,solid,O,m,891,prac,1,29059.89999999106,333165.8000000119,7126,ATS,B,9
7,8,1,C,haborder.png,1,z,Fri Apr 18 2025 11:43:56 GMT-0500 (Central Daylight Time),365839.10000000894,CFD-BF-050-012-A.jpg,1700,solid,O,z,1117,prac,1,32673.29999999702,333165.8000000119,7126,ATS,B,10
8,1,1,C,mfborder.png,1,z,Fri Apr 18 2025 11:43:56 GMT-0500 (Central Daylight Time),369539.200000003,CFD-WF-011-006-HC.jpg,1600,dash,O,z,1306,prac,1,36373.39999999106,333165.8000000119,7126,ATS,B,11
9,9,1,C,haborder.png,1,z,Fri Apr 18 2025 11:43:56 GMT-0500 (Central Daylight Time),373236.8000000119,CFD-WF-026-008-A.jpg,1600,dash,O,z,1311,prac,1,40071.0,333165.8000000119,7126,ATS,B,12
1,test,1,C,mfborder.png,1,z,Fri Apr 18 2025 11:43:56 GMT-0500 (Central Daylight Time),398712.60000000894,CFD-WF-026-008-A.jpg,1500,dash,O,z,1133,3,1,2665.7999999970198,396046.8000000119,7126,ATS,B,1
1,test,1,C,mfborder.png,0,m,Fri Apr 18 2025 11:43:56 GMT-0500 (Central Daylight Time),401445.60000000894,CFD-BM-020-024-HC.jpg,1200,dash,O,None,1509,6,1,5398.79999999702,396046.8000000119,7126,ATS,B,2
1,test,1,C,haborder.png,0,z,Fri Apr 18 2025 11:43:56 GMT-0500 (Central Daylight Time),404360.700000003,CFD-WM-009-009-A.jpg,1400,solid,O,m,1484,7,1,8313.89999999106,396046.8000000119,7126,ATS,B,3
2,test,1,C,mfborder.png,1,z,Fri Apr 18 2025 11:43:56 GMT-0500 (Central Daylight Time),407126.0,CFD-BF-027-013-HC.jpg,1700,dash,O,z,1049,1,1,11079.199999988079,396046.8000000119,7126,ATS,B,4
3,test,1,C,haborder.png,1,m,Fri Apr 18 2025 11:43:56 GMT-0500 (Central Daylight Time),409458.90000000596,CFD-WF-011-006-HC.jpg,1000,solid,O,m,1307,12,1,13412.09999999404,396046.8000000119,7126,ATS,B,5
4,test,1,C,haborder.png,1,z,Fri Apr 18 2025 11:43:56 GMT-0500 (Central Daylight Time),412558.10000000894,CFD-BM-037-041-A.jpg,1900,solid,O,z,1171,8,1,16511.29999999702,396046.8000000119,7126,ATS,B,6
5,test,1,C,mfborder.png,1,z,Fri Apr 18 2025 11:43:56 GMT-0500 (Central Daylight Time),415224.40000000596,CFD-BF-027-013-HC.jpg,1700,dash,O,z,934,1,1,19177.59999999404,396046.8000000119,7126,ATS,B,7
6,test,1,C,haborder.png,1,z,Fri Apr 18 2025 11:43:56 GMT-0500 (Central Daylight Time),418006.60000000894,CFD-BM-041-048-A.jpg,1700,solid,O,z,1047,9,1,21959.79999999702,396046.8000000119,7126,ATS,B,8
7,test,1,C,haborder.png,1,z,Fri Apr 18 2025 11:43:56 GMT-0500 (Central Daylight Time),420524.10000000894,CFD-BM-041-048-A.jpg,1700,solid,O,z,782,9,1,24477.29999999702,396046.8000000119,7126,ATS,B,9
8,test,1,C,haborder.png,1,m,Fri Apr 18 2025 11:43:56 GMT-0500 (Central Daylight Time),423173.60000000894,CFD-WF-027-007-HC.jpg,1500,solid,O,m,1121,11,1,27126.79999999702,396046.8000000119,7126,ATS,B,10
9,test,1,C,mfborder.png,1,z,Fri Apr 18 2025 11:43:56 GMT-0500 (Central Daylight Time),425787.60000000894,CFD-WF-026-008-A.jpg,1500,dash,O,z,1090,3,1,29740.79999999702,396046.8000000119,7126,ATS,B,11
10,test,1,C,mfborder.png,1,m,Fri Apr 18 2025 11:43:56 GMT-0500 (Central Daylight Time),428202.10000000894,CFD-WM-012-007-HC.jpg,1000,dash,O,m,1391,4,1,32155.29999999702,396046.8000000119,7126,ATS,B,12
11,test,1,C,haborder.png,1,z,Fri Apr 18 2025 11:43:56 GMT-0500 (Central Daylight Time),430851.3000000119,CFD-WM-009-009-A.jpg,1400,solid,O,z,1223,7,1,34804.5,396046.8000000119,7126,ATS,B,13
12,test,1,C,mfborder.png,1,z,Fri Apr 18 2025 11:43:56 GMT-0500 (Central Daylight Time),433718.3000000119,CFD-BF-051-043-A.jpg,1600,dash,O,z,1237,2,1,37671.5,396046.8000000119,7126,ATS,B,14
12,test,1,C,mfborder.png,0,m,Fri Apr 18 2025 11:43:56 GMT-0500 (Central Daylight Time),437249.8000000119,CFD-WM-037-060-A.jpg,2000,dash,O,None,1514,5,1,41203.0,396046.8000000119,7126,ATS,B,15
12,test,1,C,haborder.png,0,z,Fri Apr 18 2025 11:43:56 GMT-0500 (Central Daylight Time),440682.700000003,CFD-BM-037-041-A.jpg,1900,solid,O,None,1506,8,1,44635.89999999106,396046.8000000119,7126,ATS,B,16
13,test,1,C,haborder.png,1,m,Fri Apr 18 2025 11:43:56 GMT-0500 (Central Daylight Time),443231.700000003,CFD-BF-035-007-HC.jpg,1600,solid,O,m,918,10,1,47184.89999999106,396046.8000000119,7126,ATS,B,17
14,test,1,C,haborder.png,1,m,Fri Apr 18 2025 11:43:56 GMT-0500 (Central Daylight Time),445214.700000003,CFD-WF-011-006-HC.jpg,1000,solid,O,m,953,12,1,49167.89999999106,396046.8000000119,7126,ATS,B,18
15,test,1,C,haborder.png,1,m,Fri Apr 18 2025 11:43:56 GMT-0500 (Central Daylight Time),447813.3000000119,CFD-BF-035-007-HC.jpg,1600,solid,O,m,971,10,1,51766.5,396046.8000000119,7126,ATS,B,19
16,test,1,C,mfborder.png,1,m,Fri Apr 18 2025 11:43:56 GMT-0500 (Central Daylight Time),449636.700000003,CFD-WM-012-007-HC.jpg,1000,dash,O,m,788,4,1,53589.89999999106,396046.8000000119,7126,ATS,B,20
17,test,1,C,mfborder.png,1,m,Fri Apr 18 2025 11:43:56 GMT-0500 (Central Daylight Time),451728.40000000596,CFD-BM-020-024-HC.jpg,1200,dash,O,m,866,6,1,55681.59999999404,396046.8000000119,7126,ATS,B,21
17,test,1,C,mfborder.png,0,m,Fri Apr 18 2025 11:43:56 GMT-0500 (Central Daylight Time),454944.8000000119,CFD-WM-037-060-A.jpg,2000,dash,O,z,1185,5,1,58898.0,396046.8000000119,7126,ATS,B,22
18,test,1,C,haborder.png,1,m,Fri Apr 18 2025 11:43:56 GMT-0500 (Central Daylight Time),457277.700000003,CFD-WF-027-007-HC.jpg,1500,solid,O,m,816,11,1,61230.89999999106,396046.8000000119,7126,ATS,B,23
19,test,1,C,mfborder.png,1,z,Fri Apr 18 2025 11:43:56 GMT-0500 (Central Daylight Time),460143.700000003,CFD-BF-051-043-A.jpg,1600,dash,O,z,1236,2,1,64096.89999999106,396046.8000000119,7126,ATS,B,24
0,test,2,C,mfborder.png,0,m,Fri Apr 18 2025 11:43:56 GMT-0500 (Central Daylight Time),473756.60000000894,CFD-WM-009-009-A.jpg,1200,dash,O,None,1508,6,1,2734.1000000089407,471022.5,7126,ATS,B,1
1,test,2,C,haborder.png,1,m,Fri Apr 18 2025 11:43:56 GMT-0500 (Central Daylight Time),476054.200000003,CFD-WM-011-006-HC.jpg,1500,solid,O,m,770,11,1,5031.70000000298,471022.5,7126,ATS,B,2
2,test,2,C,mfborder.png,1,m,Fri Apr 18 2025 11:43:56 GMT-0500 (Central Daylight Time),478670.3000000119,CFD-WM-009-009-A.jpg,1200,dash,O,m,1388,6,1,7647.800000011921,471022.5,7126,ATS,B,3
3,test,2,C,haborder.png,1,m,Fri Apr 18 2025 11:43:56 GMT-0500 (Central Daylight Time),480519.5,CFD-WM-011-006-HC.jpg,1000,solid,O,m,818,12,1,9497.0,471022.5,7126,ATS,B,4
4,test,2,C,haborder.png,1,z,Fri Apr 18 2025 11:43:56 GMT-0500 (Central Daylight Time),483201.5,CFD-BF-051-043-A.jpg,1400,solid,O,z,1257,7,1,12179.0,471022.5,7126,ATS,B,5
5,test,2,C,haborder.png,1,z,Fri Apr 18 2025 11:43:56 GMT-0500 (Central Daylight Time),485534.90000000596,CFD-BF-051-043-A.jpg,1400,solid,O,z,901,7,1,14512.40000000596,471022.5,7126,ATS,B,6
6,test,2,C,mfborder.png,1,z,Fri Apr 18 2025 11:43:56 GMT-0500 (Central Daylight Time),488417.200000003,CFD-WF-011-006-HC.jpg,1700,dash,O,z,1158,1,1,17394.70000000298,471022.5,7126,ATS,B,7
7,test,2,C,haborder.png,1,m,Fri Apr 18 2025 11:43:56 GMT-0500 (Central Daylight Time),491215.700000003,CFD-WM-011-006-HC.jpg,1500,solid,O,m,1276,11,1,20193.20000000298,471022.5,7126,ATS,B,8
8,test,2,C,mfborder.png,1,z,Fri Apr 18 2025 11:43:56 GMT-0500 (Central Daylight Time),494181.3000000119,CFD-WF-011-006-HC.jpg,1700,dash,O,z,1237,1,1,23158.80000001192,471022.5,7126,ATS,B,9
9,test,2,C,haborder.png,1,z,Fri Apr 18 2025 11:43:56 GMT-0500 (Central Daylight Time),497014.40000000596,CFD-WF-026-008-A.jpg,1700,solid,O,z,1113,9,1,25991.90000000596,471022.5,7126,ATS,B,10
10,test,2,C,mfborder.png,1,m,Fri Apr 18 2025 11:43:56 GMT-0500 (Central Daylight Time),499363.60000000894,CFD-BM-015-017-HC.jpg,1000,dash,O,m,1322,4,1,28341.10000000894,471022.5,7126,ATS,B,11
11,test,2,C,mfborder.png,1,m,Fri Apr 18 2025 11:43:56 GMT-0500 (Central Daylight Time),501878.8000000119,CFD-BM-015-017-HC.jpg,1000,dash,O,m,1476,4,1,30856.30000001192,471022.5,7126,ATS,B,12
12,test,2,C,mfborder.png,1,z,Fri Apr 18 2025 11:43:56 GMT-0500 (Central Daylight Time),504844.200000003,CFD-WF-013-015-A.jpg,1600,dash,O,z,1338,2,1,33821.70000000298,471022.5,7126,ATS,B,13
13,test,2,C,haborder.png,1,m,Fri Apr 18 2025 11:43:56 GMT-0500 (Central Daylight Time),507345.10000000894,CFD-BM-020-024-HC.jpg,1600,solid,O,m,867,10,1,36322.60000000894,471022.5,7126,ATS,B,14
14,test,2,C,haborder.png,1,m,Fri Apr 18 2025 11:43:56 GMT-0500 (Central Daylight Time),509077.5,CFD-WM-011-006-HC.jpg,1000,solid,O,m,714,12,1,38055.0,471022.5,7126,ATS,B,15
15,test,2,C,haborder.png,1,z,Fri Apr 18 2025 11:43:56 GMT-0500 (Central Daylight Time),511975.10000000894,CFD-BF-050-012-A.jpg,1900,solid,O,z,976,8,1,40952.60000000894,471022.5,7126,ATS,B,16
16,test,2,C,haborder.png,1,z,Fri Apr 18 2025 11:43:56 GMT-0500 (Central Daylight Time),514459.40000000596,CFD-WF-026-008-A.jpg,1700,solid,O,z,757,9,1,43436.90000000596,471022.5,7126,ATS,B,17
17,test,2,C,mfborder.png,1,z,Fri Apr 18 2025 11:43:56 GMT-0500 (Central Daylight Time),517308.700000003,CFD-WF-013-015-A.jpg,1600,dash,O,z,1225,2,1,46286.20000000298,471022.5,7126,ATS,B,18
18,test,2,C,haborder.png,1,z,Fri Apr 18 2025 11:43:56 GMT-0500 (Central Daylight Time),520073.700000003,CFD-BF-050-012-A.jpg,1900,solid,O,z,843,8,1,49051.20000000298,471022.5,7126,ATS,B,19
18,test,2,C,mfborder.png,0,z,Fri Apr 18 2025 11:43:56 GMT-0500 (Central Daylight Time),522823.200000003,CFD-BF-035-007-HC.jpg,1500,dash,O,m,1228,3,1,51800.70000000298,471022.5,7126,ATS,B,20
19,test,2,C,mfborder.png,1,z,Fri Apr 18 2025 11:43:56 GMT-0500 (Central Daylight Time),525340.1000000089,CFD-BF-035-007-HC.jpg,1500,dash,O,z,999,3,1,54317.60000000894,471022.5,7126,ATS,B,21
20,test,2,C,haborder.png,1,m,Fri Apr 18 2025 11:43:56 GMT-0500 (Central Daylight Time),528220.6000000089,CFD-BM-020-024-HC.jpg,1600,solid,O,m,1254,10,1,57198.10000000894,471022.5,7126,ATS,B,22
20,test,2,C,mfborder.png,0,m,Fri Apr 18 2025 11:43:56 GMT-0500 (Central Daylight Time),531372.400000006,CFD-BM-037-041-A.jpg,2000,dash,O,z,1135,5,1,60349.90000000596,471022.5,7126,ATS,B,23
20,test,2,C,mfborder.png,0,m,Fri Apr 18 2025 11:43:56 GMT-0500 (Central Daylight Time),534903.3000000119,CFD-BM-037-041-A.jpg,2000,dash,O,None,1515,5,1,63880.80000001192,471022.5,7126,ATS,B,24
0,test,3,C,haborder.png,0,z,Fri Apr 18 2025 11:43:56 GMT-0500 (Central Daylight Time),546099.400000006,CFD-BM-041-048-A.jpg,1700,solid,O,m,1207,9,1,2933.2000000029802,543166.200000003,7126,ATS,B,1
1,test,3,C,haborder.png,1,m,Fri Apr 18 2025 11:43:56 GMT-0500 (Central Daylight Time),548698.6000000089,CFD-WF-027-007-HC.jpg,1500,solid,O,m,1074,11,1,5532.4000000059605,543166.200000003,7126,ATS,B,2
1,test,3,C,mfborder.png,0,m,Fri Apr 18 2025 11:43:56 GMT-0500 (Central Daylight Time),552231.200000003,CFD-WM-037-060-A.jpg,2000,dash,O,None,1516,5,1,9065.0,543166.200000003,7126,ATS,B,3
1,test,3,C,haborder.png,0,m,Fri Apr 18 2025 11:43:56 GMT-0500 (Central Daylight Time),555264.0,CFD-WF-027-007-HC.jpg,1500,solid,O,None,1517,11,1,12097.79999999702,543166.200000003,7126,ATS,B,4
2,test,3,C,haborder.png,1,m,Fri Apr 18 2025 11:43:56 GMT-0500 (Central Daylight Time),557661.700000003,CFD-BF-035-007-HC.jpg,1600,solid,O,m,782,10,1,14495.5,543166.200000003,7126,ATS,B,5
3,test,3,C,haborder.png,1,z,Fri Apr 18 2025 11:43:56 GMT-0500 (Central Daylight Time),560627.200000003,CFD-BM-037-041-A.jpg,1900,solid,O,z,1039,8,1,17461.0,543166.200000003,7126,ATS,B,6
3,test,3,C,mfborder.png,0,m,Fri Apr 18 2025 11:43:56 GMT-0500 (Central Daylight Time),563159.8000000119,CFD-WM-012-007-HC.jpg,1000,dash,O,None,1515,4,1,19993.60000000894,543166.200000003,7126,ATS,B,7
4,test,3,C,mfborder.png,1,m,Fri Apr 18 2025 11:43:56 GMT-0500 (Central Daylight Time),565393.1000000089,CFD-BM-020-024-HC.jpg,1200,dash,O,m,1000,6,1,22226.90000000596,543166.200000003,7126,ATS,B,8
5,test,3,C,mfborder.png,1,z,Fri Apr 18 2025 11:43:56 GMT-0500 (Central Daylight Time),567941.900000006,CFD-WF-026-008-A.jpg,1500,dash,O,z,1031,3,1,24775.70000000298,543166.200000003,7126,ATS,B,9
6,test,3,C,haborder.png,1,z,Fri Apr 18 2025 11:43:56 GMT-0500 (Central Daylight Time),571139.900000006,CFD-BM-041-048-A.jpg,1700,solid,O,z,1473,9,1,27973.70000000298,543166.200000003,7126,ATS,B,10
7,test,3,C,mfborder.png,1,m,Fri Apr 18 2025 11:43:56 GMT-0500 (Central Daylight Time),573324.5,CFD-BM-020-024-HC.jpg,1200,dash,O,m,960,6,1,30158.29999999702,543166.200000003,7126,ATS,B,11
8,test,3,C,mfborder.png,1,z,Fri Apr 18 2025 11:43:56 GMT-0500 (Central Daylight Time),576038.5,CFD-BF-051-043-A.jpg,1600,dash,O,z,1084,2,1,32872.29999999702,543166.200000003,7126,ATS,B,12
8,test,3,C,mfborder.png,0,z,Fri Apr 18 2025 11:43:56 GMT-0500 (Central Daylight Time),579172.6000000089,CFD-BF-051-043-A.jpg,1600,dash,O,None,1516,2,1,36006.40000000596,543166.200000003,7126,ATS,B,13
9,test,3,C,mfborder.png,1,m,Fri Apr 18 2025 11:43:56 GMT-0500 (Central Daylight Time),582254.0,CFD-WM-037-060-A.jpg,2000,dash,O,m,1056,5,1,39087.79999999702,543166.200000003,7126,ATS,B,14
10,test,3,C,mfborder.png,1,z,Fri Apr 18 2025 11:43:56 GMT-0500 (Central Daylight Time),584969.8000000119,CFD-BF-027-013-HC.jpg,1700,dash,O,z,982,1,1,41803.60000000894,543166.200000003,7126,ATS,B,15
11,test,3,C,mfborder.png,1,m,Fri Apr 18 2025 11:43:56 GMT-0500 (Central Daylight Time),586885.700000003,CFD-WM-012-007-HC.jpg,1000,dash,O,m,886,4,1,43719.5,543166.200000003,7126,ATS,B,16
12,test,3,C,haborder.png,1,m,Fri Apr 18 2025 11:43:56 GMT-0500 (Central Daylight Time),588851.400000006,CFD-WF-011-006-HC.jpg,1000,solid,O,m,940,12,1,45685.20000000298,543166.200000003,7126,ATS,B,17
13,test,3,C,haborder.png,1,z,Fri Apr 18 2025 11:43:56 GMT-0500 (Central Daylight Time),591267.900000006,CFD-WM-009-009-A.jpg,1400,solid,O,z,990,7,1,48101.70000000298,543166.200000003,7126,ATS,B,18
14,test,3,C,haborder.png,1,m,Fri Apr 18 2025 11:43:56 GMT-0500 (Central Daylight Time),593550.8000000119,CFD-WF-011-006-HC.jpg,1000,solid,O,m,1252,12,1,50384.60000000894,543166.200000003,7126,ATS,B,19
15,test,3,C,haborder.png,1,z,Fri Apr 18 2025 11:43:56 GMT-0500 (Central Daylight Time),596415.3000000119,CFD-BM-037-041-A.jpg,1900,solid,O,z,945,8,1,53249.10000000894,543166.200000003,7126,ATS,B,20
16,test,3,C,mfborder.png,1,z,Fri Apr 18 2025 11:43:56 GMT-0500 (Central Daylight Time),599264.8000000119,CFD-BF-027-013-HC.jpg,1700,dash,O,z,1124,1,1,56098.60000000894,543166.200000003,7126,ATS,B,21
16,test,3,C,haborder.png,0,m,Fri Apr 18 2025 11:43:56 GMT-0500 (Central Daylight Time),602396.900000006,CFD-BF-035-007-HC.jpg,1600,solid,O,None,1515,10,1,59230.70000000298,543166.200000003,7126,ATS,B,22
17,test,3,C,mfborder.png,1,z,Fri Apr 18 2025 11:43:56 GMT-0500 (Central Daylight Time),604879.1000000089,CFD-WF-026-008-A.jpg,1500,dash,O,z,958,3,1,61712.90000000596,543166.200000003,7126,ATS,B,23
18,test,3,C,haborder.png,1,z,Fri Apr 18 2025 11:43:56 GMT-0500 (Central Daylight Time),607296.3000000119,CFD-WM-009-009-A.jpg,1400,solid,O,z,986,7,1,64130.10000000894,543166.200000003,7126,ATS,B,24
1,test,4,C,haborder.png,1,z,Fri Apr 18 2025 11:43:56 GMT-0500 (Central Daylight Time),615227.1000000089,CFD-BF-050-012-A.jpg,1900,solid,O,z,1005,8,1,2932.2999999970198,612294.8000000119,7126,ATS,B,1
2,test,4,C,haborder.png,1,m,Fri Apr 18 2025 11:43:56 GMT-0500 (Central Daylight Time),617575.400000006,CFD-WM-011-006-HC.jpg,1000,solid,O,m,1311,12,1,5280.5999999940395,612294.8000000119,7126,ATS,B,2
3,test,4,C,haborder.png,1,m,Fri Apr 18 2025 11:43:56 GMT-0500 (Central Daylight Time),620074.0,CFD-BM-020-024-HC.jpg,1600,solid,O,m,873,10,1,7779.199999988079,612294.8000000119,7126,ATS,B,3
4,test,4,C,mfborder.png,1,z,Fri Apr 18 2025 11:43:56 GMT-0500 (Central Daylight Time),622492.200000003,CFD-WF-013-015-A.jpg,1600,dash,O,z,800,2,1,10197.39999999106,612294.8000000119,7126,ATS,B,4
5,test,4,C,mfborder.png,1,m,Fri Apr 18 2025 11:43:56 GMT-0500 (Central Daylight Time),624856.8000000119,CFD-WM-009-009-A.jpg,1200,dash,O,m,1133,6,1,12562.0,612294.8000000119,7126,ATS,B,5
6,test,4,C,haborder.png,1,z,Fri Apr 18 2025 11:43:56 GMT-0500 (Central Daylight Time),627406.5,CFD-WF-026-008-A.jpg,1700,solid,O,z,830,9,1,15111.699999988079,612294.8000000119,7126,ATS,B,6
6,test,4,C,mfborder.png,0,z,Fri Apr 18 2025 11:43:56 GMT-0500 (Central Daylight Time),629907.3000000119,CFD-WF-013-015-A.jpg,1600,dash,O,m,875,2,1,17612.5,612294.8000000119,7126,ATS,B,7
7,test,4,C,mfborder.png,1,m,Fri Apr 18 2025 11:43:56 GMT-0500 (Central Daylight Time),631838.0,CFD-BM-015-017-HC.jpg,1000,dash,O,m,886,4,1,19543.19999998808,612294.8000000119,7126,ATS,B,8
8,test,4,C,haborder.png,1,m,Fri Apr 18 2025 11:43:56 GMT-0500 (Central Daylight Time),634608.1000000089,CFD-WM-011-006-HC.jpg,1500,solid,O,m,1237,11,1,22313.29999999702,612294.8000000119,7126,ATS,B,9
9,test,4,C,haborder.png,1,z,Fri Apr 18 2025 11:43:56 GMT-0500 (Central Daylight Time),637851.700000003,CFD-BF-050-012-A.jpg,1900,solid,O,z,1315,8,1,25556.89999999106,612294.8000000119,7126,ATS,B,10
10,test,4,C,haborder.png,1,m,Fri Apr 18 2025 11:43:56 GMT-0500 (Central Daylight Time),640437.5,CFD-WM-011-006-HC.jpg,1500,solid,O,m,1056,11,1,28142.69999998808,612294.8000000119,7126,ATS,B,11
11,test,4,C,mfborder.png,1,z,Fri Apr 18 2025 11:43:56 GMT-0500 (Central Daylight Time),643000.900000006,CFD-BF-035-007-HC.jpg,1500,dash,O,z,1032,3,1,30706.09999999404,612294.8000000119,7126,ATS,B,12
11,test,4,C,mfborder.png,0,z,Fri Apr 18 2025 11:43:56 GMT-0500 (Central Daylight Time),646234.3000000119,CFD-WF-011-006-HC.jpg,1700,dash,O,None,1515,1,1,33939.5,612294.8000000119,7126,ATS,B,13
12,test,4,C,mfborder.png,1,z,Fri Apr 18 2025 11:43:56 GMT-0500 (Central Daylight Time),648781.8000000119,CFD-BF-035-007-HC.jpg,1500,dash,O,z,1018,3,1,36487.0,612294.8000000119,7126,ATS,B,14
13,test,4,C,mfborder.png,1,m,Fri Apr 18 2025 11:43:56 GMT-0500 (Central Daylight Time),651965.1000000089,CFD-BM-037-041-A.jpg,2000,dash,O,m,1149,5,1,39670.29999999702,612294.8000000119,7126,ATS,B,15
14,test,4,C,mfborder.png,1,m,Fri Apr 18 2025 11:43:56 GMT-0500 (Central Daylight Time),653814.0,CFD-BM-015-017-HC.jpg,1000,dash,O,m,820,4,1,41519.19999998808,612294.8000000119,7126,ATS,B,16
15,test,4,C,haborder.png,1,z,Fri Apr 18 2025 11:43:56 GMT-0500 (Central Daylight Time),656615.400000006,CFD-BF-051-043-A.jpg,1400,solid,O,z,1382,7,1,44320.59999999404,612294.8000000119,7126,ATS,B,17
16,test,4,C,haborder.png,1,m,Fri Apr 18 2025 11:43:56 GMT-0500 (Central Daylight Time),658929.900000006,CFD-BM-020-024-HC.jpg,1600,solid,O,m,684,10,1,46635.09999999404,612294.8000000119,7126,ATS,B,18
17,test,4,C,mfborder.png,1,m,Fri Apr 18 2025 11:43:56 GMT-0500 (Central Daylight Time),662062.900000006,CFD-BM-037-041-A.jpg,2000,dash,O,m,1104,5,1,49768.09999999404,612294.8000000119,7126,ATS,B,19
18,test,4,C,mfborder.png,1,m,Fri Apr 18 2025 11:43:56 GMT-0500 (Central Daylight Time),664181.0,CFD-WM-009-009-A.jpg,1200,dash,O,m,900,6,1,51886.19999998808,612294.8000000119,7126,ATS,B,20
19,test,4,C,haborder.png,1,z,Fri Apr 18 2025 11:43:56 GMT-0500 (Central Daylight Time),666544.900000006,CFD-BF-051-043-A.jpg,1400,solid,O,z,944,7,1,54250.09999999404,612294.8000000119,7126,ATS,B,21
19,test,4,C,mfborder.png,0,z,Fri Apr 18 2025 11:43:56 GMT-0500 (Central Daylight Time),669411.200000003,CFD-WF-011-006-HC.jpg,1700,dash,O,m,1141,1,1,57116.39999999106,612294.8000000119,7126,ATS,B,22
20,test,4,C,haborder.png,1,z,Fri Apr 18 2025 11:43:56 GMT-0500 (Central Daylight Time),671991.8000000119,CFD-WF-026-008-A.jpg,1700,solid,O,z,860,9,1,59697.0,612294.8000000119,7126,ATS,B,23
21,test,4,C,haborder.png,1,m,Fri Apr 18 2025 11:43:56 GMT-0500 (Central Daylight Time),674409.0,CFD-WM-011-006-HC.jpg,1000,solid,O,m,1394,12,1,62114.19999998808,612294.8000000119,7126,ATS,B,24
