acc_sum,block,block_c,condition,correct,correct_response,datetime,endtime,flanker,jitter,project,response,response_test_buffer_response,response_test_target_response,response_time,response_time_test_buffer_response,response_time_test_target_response,row_sel,session_number,start_end,starttime,subject_id,target,task,task_vers,time_test_buffer,time_test_buffer_response,time_test_constants,time_test_flanker,time_test_jitter,time_test_logger,time_test_target,time_test_target_response,time_test_variables,trial
0,prac,1,con,0,m,Fri Feb 28 2025 15:23:59 GMT-0600 (Central Standard Time),158258.00000000003,gold,800,I,None,,,1799,,,13,1,4860.900000000023,153397.1,7073,gold,NF,C,,,,,,,,,,1
0,prac,1,con,0,m,Fri Feb 28 2025 15:23:59 GMT-0600 (Central Standard Time),163122.80000000002,bronze,800,I,None,,,1799,,,9,1,4859.700000000012,158263.1,7073,bronze,NF,C,,,,,,,,,,2
0,prac,1,inc,0,m,Fri Feb 28 2025 15:23:59 GMT-0600 (Central Standard Time),168287.80000000002,raisin,1100,I,None,,,1799,,,12,1,5160.400000000023,163127.4,7073,cobalt,NF,C,,,,,,,,,,3
1,prac,1,con,1,m,Fri Feb 28 2025 15:23:59 GMT-0600 (Central Standard Time),171703.50000000003,zinc,1000,I,m,,,1116,,,15,1,3410.600000000035,168292.9,7073,zinc,NF,C,,,,,,,,,,4
2,prac,1,inc,1,z,Fri Feb 28 2025 15:23:59 GMT-0600 (Central Standard Time),175085.80000000002,copper,900,I,z,,,1167,,,2,1,3377.9000000000233,171707.9,7073,cherry,NF,C,,,,,,,,,,5
3,prac,1,con,1,z,Fri Feb 28 2025 15:23:59 GMT-0600 (Central Standard Time),178451.30000000002,kiwi,1000,I,z,,,1062,,,7,1,3361.100000000035,175090.19999999998,7073,kiwi,NF,C,,,,,,,,,,6
4,prac,1,inc,1,m,Fri Feb 28 2025 15:23:59 GMT-0600 (Central Standard Time),181750.30000000002,cherry,900,I,m,,,1090,,,10,1,3294.100000000035,178456.19999999998,7073,copper,NF,C,,,,,,,,,,7
5,prac,1,inc,1,m,Fri Feb 28 2025 15:23:59 GMT-0600 (Central Standard Time),185149.1,plum,1100,I,m,,,985,,,16,1,3393.5,181755.6,7073,lead,NF,C,,,,,,,,,,8
6,prac,1,inc,1,z,Fri Feb 28 2025 15:23:59 GMT-0600 (Central Standard Time),188281.80000000002,iron,900,I,z,,,922,,,6,1,3128.2000000000116,185153.6,7073,pear,NF,C,,,,,,,,,,9
7,prac,1,inc,1,m,Fri Feb 28 2025 15:23:59 GMT-0600 (Central Standard Time),191347.4,pear,900,I,m,,,854,,,14,1,3061.0,188286.4,7073,iron,NF,C,,,,,,,,,,10
8,prac,1,con,1,m,Fri Feb 28 2025 15:23:59 GMT-0600 (Central Standard Time),194496.4,silver,1000,I,m,,,839,,,11,1,3144.2000000000116,191352.19999999998,7073,silver,NF,C,,,,,,,,,,11
9,prac,1,inc,1,z,Fri Feb 28 2025 15:23:59 GMT-0600 (Central Standard Time),197945.00000000003,cobalt,1100,I,z,,,1047,,,4,1,3444.4000000000233,194500.6,7073,raisin,NF,C,,,,,,,,,,12
10,prac,1,inc,1,z,Fri Feb 28 2025 15:23:59 GMT-0600 (Central Standard Time),201427.69999999998,lead,1100,I,z,,,1078,,,8,1,3478.5999999999767,197949.1,7073,plum,NF,C,,,,,,,,,,13
11,prac,1,con,1,z,Fri Feb 28 2025 15:23:59 GMT-0600 (Central Standard Time),204726.4,orange,1000,I,z,,,992,,,3,1,3294.5999999999767,201431.80000000002,7073,orange,NF,C,,,,,,,,,,14
12,prac,1,con,1,z,Fri Feb 28 2025 15:23:59 GMT-0600 (Central Standard Time),207642.4,banana,800,I,z,,,813,,,1,1,2911.7000000000116,204730.69999999998,7073,banana,NF,C,,,,,,,,,,15
13,prac,1,con,1,z,Fri Feb 28 2025 15:23:59 GMT-0600 (Central Standard Time),210741.19999999998,lime,800,I,z,,,993,,,5,1,3094.7999999999884,207646.4,7073,lime,NF,C,,,,,,,,,,16
1,test,1,con,1,z,Fri Feb 28 2025 15:23:59 GMT-0600 (Central Standard Time),228002.4,pear,1000,I,z,z,None,1040,840.0,200.0,43,1,2579.0,225423.4,7073,pear,NF,C,220630,220630,218900,219914,218901,221480,220430,220430,221479,1
2,test,1,con,1,z,Fri Feb 28 2025 15:23:59 GMT-0600 (Central Standard Time),230268.4,banana,800,I,z,z,None,920,721.0,199.0,1,1,2261.2000000000116,228007.19999999998,7073,banana,NF,C,223013,223013,221484,222296,221485,223745,222813,222813,223745,2
3,test,1,inc,1,m,Fri Feb 28 2025 15:23:59 GMT-0600 (Central Standard Time),232717.6,lime,800,I,m,m,None,1102,903.0,199.0,109,1,2445.0,230272.6,7073,iron,NF,C,225279,225279,223750,224562,223750,226195,225079,225079,226195,3
4,test,1,inc,1,z,Fri Feb 28 2025 15:23:59 GMT-0600 (Central Standard Time),235033.50000000003,bronze,800,I,z,z,None,981,782.0,199.0,5,1,2311.9000000000233,232721.6,7073,banana,NF,C,227728,227728,226199,227011,226199,228511,227528,227528,228510,4
5,test,1,inc,1,m,Fri Feb 28 2025 15:23:59 GMT-0600 (Central Standard Time),237616.00000000003,kiwi,1000,I,m,m,None,1041,842.0,199.0,111,1,2578.100000000035,235037.9,7073,iron,NF,C,230244,230244,228515,229527,228515,231093,230044,230044,231093,5
6,test,1,con,1,z,Fri Feb 28 2025 15:23:59 GMT-0600 (Central Standard Time),240098.9,pear,900,I,z,z,None,1039,839.0,200.0,42,1,2478.899999999965,237620.00000000003,7073,pear,NF,C,232726,232726,231097,232010,231097,233576,232526,232526,233576,6
7,test,1,inc,1,z,Fri Feb 28 2025 15:23:59 GMT-0600 (Central Standard Time),242681.19999999998,lead,1100,I,z,z,None,948,749.0,199.0,64,1,2578.2999999999884,240102.9,7073,plum,NF,C,235409,235409,233580,234692,233581,236158,235209,235209,236158,7
8,test,1,inc,1,z,Fri Feb 28 2025 15:23:59 GMT-0600 (Central Standard Time),245080.30000000002,bronze,800,I,z,z,None,1058,859.0,199.0,13,1,2394.7999999999884,242685.50000000003,7073,cherry,NF,C,237691,237691,236163,236975,236163,238557,237492,237492,238557,8
9,test,1,con,1,m,Fri Feb 28 2025 15:23:59 GMT-0600 (Central Standard Time),247713.1,copper,1000,I,m,m,None,1091,892.0,199.0,75,1,2628.5999999999767,245084.50000000003,7073,copper,NF,C,240290,240290,238562,239574,238562,241190,240091,240091,241190,9
10,test,1,inc,1,z,Fri Feb 28 2025 15:23:59 GMT-0600 (Central Standard Time),250095.50000000003,silver,1000,I,z,z,None,835,635.0,200.0,15,1,2378.4000000000233,247717.1,7073,cherry,NF,C,242923,242923,241194,242207,241195,243573,242723,242723,243573,10
11,test,1,con,1,z,Fri Feb 28 2025 15:23:59 GMT-0600 (Central Standard Time),252577.9,kiwi,800,I,z,z,None,1148,948.0,200.0,49,1,2478.2999999999884,250099.6,7073,kiwi,NF,C,245106,245106,243577,244389,243577,246055,244906,244906,246055,11
12,test,1,con,1,z,Fri Feb 28 2025 15:23:59 GMT-0600 (Central Standard Time),255244.00000000003,plum,1000,I,z,z,None,1122,811.0,311.0,59,1,2661.8000000000466,252582.19999999998,7073,plum,NF,C,247899,247899,246059,247072,246059,248721,247588,247588,248721,12
13,test,1,inc,1,m,Fri Feb 28 2025 15:23:59 GMT-0600 (Central Standard Time),258026.4,plum,1100,I,m,m,None,1148,948.0,200.0,104,1,2778.2999999999884,255248.1,7073,gold,NF,C,250554,250554,248725,249838,248725,251503,250354,250354,251503,13
14,test,1,inc,1,z,Fri Feb 28 2025 15:23:59 GMT-0600 (Central Standard Time),260708.80000000002,cobalt,1100,I,z,z,None,1045,846.0,199.0,8,1,2678.5,258030.30000000002,7073,banana,NF,C,253336,253336,251507,252620,251508,254186,253137,253137,254186,14
15,test,1,inc,1,m,Fri Feb 28 2025 15:23:59 GMT-0600 (Central Standard Time),263474.69999999995,raisin,1100,I,m,m,None,1122,923.0,199.0,88,1,2762.0999999999476,260712.6,7073,silver,NF,C,256019,256019,254190,255303,254190,256952,255819,255819,256952,15
16,test,1,con,1,m,Fri Feb 28 2025 15:23:59 GMT-0600 (Central Standard Time),265757.4,zinc,800,I,m,m,None,945,745.0,200.0,113,1,2278.4000000000233,263479.0,7073,zinc,NF,C,258485,258485,256956,257768,256956,259234,258285,258285,259234,16
17,test,1,inc,1,m,Fri Feb 28 2025 15:23:59 GMT-0600 (Central Standard Time),268057.0,lime,800,I,m,m,None,950,750.0,200.0,101,1,2295.0999999999767,265761.9,7073,gold,NF,C,260768,260768,259239,260051,259239,261534,260567,260567,261534,17
18,test,1,con,1,z,Fri Feb 28 2025 15:23:59 GMT-0600 (Central Standard Time),270822.5,orange,1100,I,z,z,None,1118,919.0,199.0,20,1,2761.6999999999534,268060.80000000005,7073,orange,NF,C,263367,263367,261538,262650,261538,264300,263167,263167,264300,18
19,test,1,con,1,z,Fri Feb 28 2025 15:23:59 GMT-0600 (Central Standard Time),273354.9,orange,900,I,z,z,None,1097,897.0,200.0,18,1,2528.70000000007,270826.19999999995,7073,orange,NF,C,265933,265933,264303,265216,264304,266832,265732,265732,266832,19
20,test,1,inc,1,m,Fri Feb 28 2025 15:23:59 GMT-0600 (Central Standard Time),275920.69999999995,pear,900,I,m,m,None,1125,925.0,200.0,110,1,2561.5,273359.19999999995,7073,iron,NF,C,268465,268465,266836,267749,266837,269398,268265,268265,269398,20
21,test,1,con,1,z,Fri Feb 28 2025 15:23:59 GMT-0600 (Central Standard Time),278520.1,kiwi,1100,I,z,z,None,959,696.0,263.0,52,1,2593.6999999999534,275926.4,7073,kiwi,NF,C,271294,271294,269403,270515,269404,271997,271031,271031,271997,21
22,test,1,inc,1,z,Fri Feb 28 2025 15:23:59 GMT-0600 (Central Standard Time),281235.69999999995,iron,900,I,z,z,None,1272,1072.0,200.0,38,1,2710.6999999999534,278525.0,7073,lime,NF,C,273630,273630,272002,272914,272002,274713,273430,273430,274713,22
23,test,1,con,1,m,Fri Feb 28 2025 15:23:59 GMT-0600 (Central Standard Time),283868.1,cobalt,1000,I,m,m,None,1096,897.0,199.0,91,1,2628.5999999999767,281239.5,7073,cobalt,NF,C,276445,276445,274717,275729,274717,277345,276246,276246,277345,23
24,test,1,inc,1,m,Fri Feb 28 2025 15:23:59 GMT-0600 (Central Standard Time),286150.80000000005,lime,800,I,m,m,None,944,744.0,200.0,125,1,2278.4000000000233,283872.4,7073,lead,NF,C,278878,278878,277349,278162,277350,279628,278678,278678,279628,24
25,test,1,con,1,z,Fri Feb 28 2025 15:23:59 GMT-0600 (Central Standard Time),288567.0,cherry,800,I,z,z,None,1069,869.0,200.0,9,1,2412.0,286155.0,7073,cherry,NF,C,281161,281161,279632,280445,279633,282044,280961,280961,282044,25
26,test,1,con,1,m,Fri Feb 28 2025 15:23:59 GMT-0600 (Central Standard Time),290932.80000000005,lead,900,I,m,m,None,929,729.0,200.0,122,1,2362.0,288570.80000000005,7073,lead,NF,C,283677,283677,282048,282960,282048,284410,283477,283477,284410,26
27,test,1,con,1,z,Fri Feb 28 2025 15:23:59 GMT-0600 (Central Standard Time),293431.80000000005,orange,1000,I,z,z,None,959,759.0,200.0,19,1,2494.9000000000233,290936.9,7073,orange,NF,C,286143,286143,284414,285427,284414,286909,285943,285943,286909,27
28,test,1,inc,1,z,Fri Feb 28 2025 15:23:59 GMT-0600 (Central Standard Time),295831.19999999995,copper,900,I,z,z,None,960,760.0,200.0,22,1,2395.29999999993,293435.9,7073,orange,NF,C,288542,288542,286913,287826,286913,289308,288342,288342,289308,28
29,test,1,inc,1,m,Fri Feb 28 2025 15:23:59 GMT-0600 (Central Standard Time),298313.69999999995,cherry,900,I,m,m,None,1049,849.0,200.0,94,1,2478.79999999993,295834.9,7073,cobalt,NF,C,290941,290941,289312,290225,289312,291791,290741,290741,291791,29
30,test,1,inc,1,z,Fri Feb 28 2025 15:23:59 GMT-0600 (Central Standard Time),300829.69999999995,gold,800,I,z,z,None,1170,970.0,200.0,61,1,2512.1999999999534,298317.5,7073,plum,NF,C,293324,293324,291795,292607,291795,294307,293124,293124,294307,30
31,test,1,con,1,z,Fri Feb 28 2025 15:23:59 GMT-0600 (Central Standard Time),303145.30000000005,lime,800,I,z,z,None,982,782.0,200.0,33,1,2311.70000000007,300833.6,7073,lime,NF,C,295840,295840,294311,295123,294311,296622,295640,295640,296622,31
32,test,1,inc,1,z,Fri Feb 28 2025 15:23:59 GMT-0600 (Central Standard Time),305694.9,iron,900,I,z,z,None,1101,902.0,199.0,46,1,2546.0999999999767,303148.80000000005,7073,pear,NF,C,298256,298256,296626,297539,296626,299172,298056,298056,299172,32
33,test,1,con,1,z,Fri Feb 28 2025 15:23:59 GMT-0600 (Central Standard Time),308227.4,raisin,1000,I,z,z,None,997,797.0,200.0,27,1,2528.4000000000233,305699.0,7073,raisin,NF,C,300905,300905,299176,300190,299176,301704,300705,300705,301704,33
34,test,1,con,1,z,Fri Feb 28 2025 15:23:59 GMT-0600 (Central Standard Time),310576.69999999995,plum,800,I,z,z,None,999,800.0,199.0,57,1,2345.399999999907,308231.30000000005,7073,plum,NF,C,303238,303238,301708,302521,301709,304054,303038,303038,304054,34
35,test,1,inc,1,m,Fri Feb 28 2025 15:23:59 GMT-0600 (Central Standard Time),313092.6,banana,800,I,m,m,None,1179,979.0,200.0,93,1,2511.9000000000233,310580.69999999995,7073,cobalt,NF,C,305587,305587,304058,304870,304058,306570,305387,305387,306570,35
36,test,1,inc,1,z,Fri Feb 28 2025 15:23:59 GMT-0600 (Central Standard Time),315492.0,bronze,800,I,z,z,None,1054,855.0,199.0,29,1,2395.70000000007,313096.29999999993,7073,raisin,NF,C,308103,308103,306573,307386,306574,308969,307903,307903,308969,36
37,test,1,inc,1,z,Fri Feb 28 2025 15:23:59 GMT-0600 (Central Standard Time),318440.79999999993,lead,1100,I,z,z,None,1300,1100.0,200.0,40,1,2945.0,315495.79999999993,7073,lime,NF,C,310802,310802,308973,310085,308973,311918,310602,310602,311918,37
38,test,1,inc,1,z,Fri Feb 28 2025 15:23:59 GMT-0600 (Central Standard Time),320940.0,iron,900,I,z,z,None,1055,855.0,200.0,62,1,2495.4000000000233,318444.6,7073,plum,NF,C,313551,313551,311922,312835,311922,314417,313351,313351,314417,38
39,test,1,inc,1,z,Fri Feb 28 2025 15:23:59 GMT-0600 (Central Standard Time),323272.79999999993,gold,800,I,z,z,None,992,792.0,200.0,53,1,2329.0999999999767,320943.69999999995,7073,kiwi,NF,C,315950,315950,314421,315234,314421,316750,315750,315750,316750,39
40,test,1,con,1,z,Fri Feb 28 2025 15:23:59 GMT-0600 (Central Standard Time),325538.69999999995,pear,800,I,z,z,None,922,675.0,247.0,41,1,2262.0,323276.69999999995,7073,pear,NF,C,318331,318331,316754,317567,316754,319016,318083,318083,319016,40
41,test,1,inc,1,z,Fri Feb 28 2025 15:23:59 GMT-0600 (Central Standard Time),327937.69999999995,silver,1000,I,z,z,None,865,665.0,200.0,7,1,2395.1999999999534,325542.5,7073,banana,NF,C,320749,320749,319020,320032,319020,321415,320549,320549,321415,41
42,test,1,con,1,z,Fri Feb 28 2025 15:23:59 GMT-0600 (Central Standard Time),330303.79999999993,banana,900,I,z,z,None,918,718.0,200.0,2,1,2362.5999999999767,327941.19999999995,7073,banana,NF,C,323048,323048,321418,322332,321419,323781,322848,322848,323781,42
43,test,1,inc,1,m,Fri Feb 28 2025 15:23:59 GMT-0600 (Central Standard Time),332969.9,kiwi,1000,I,m,m,None,1124,924.0,200.0,103,1,2662.4000000000233,330307.5,7073,gold,NF,C,325514,325514,323785,324798,323785,326447,325314,325314,326447,43
44,test,1,inc,1,z,Fri Feb 28 2025 15:23:59 GMT-0600 (Central Standard Time),335585.5,zinc,1000,I,z,z,None,1073,874.0,199.0,39,1,2611.5,332974.0,7073,lime,NF,C,328180,328180,326451,327463,326451,329063,327980,327980,329063,44
45,test,1,con,1,m,Fri Feb 28 2025 15:23:59 GMT-0600 (Central Standard Time),338317.9,silver,1100,I,m,m,None,1094,894.0,200.0,84,1,2728.5,335589.4,7073,silver,NF,C,330896,330896,329066,330179,329067,331795,330696,330696,331795,45
46,test,1,inc,1,z,Fri Feb 28 2025 15:23:59 GMT-0600 (Central Standard Time),340933.6,cobalt,1100,I,z,z,None,978,778.0,200.0,16,1,2611.8000000000466,338321.79999999993,7073,cherry,NF,C,333628,333628,331799,332912,331799,334411,333428,333428,334411,46
47,test,1,inc,1,m,Fri Feb 28 2025 15:23:59 GMT-0600 (Central Standard Time),343599.5,raisin,1100,I,m,m,None,1018,818.0,200.0,96,1,2661.70000000007,340937.79999999993,7073,cobalt,NF,C,336244,336244,334415,335527,334415,337077,336044,336044,337076,47
48,test,1,con,1,z,Fri Feb 28 2025 15:23:59 GMT-0600 (Central Standard Time),346182.1,raisin,900,I,z,z,None,1142,928.0,214.0,26,1,2578.5999999999767,343603.5,7073,raisin,NF,C,338726,338726,337081,337993,337081,339659,338512,338512,339659,48
49,test,1,inc,1,z,Fri Feb 28 2025 15:23:59 GMT-0600 (Central Standard Time),348814.6,silver,1000,I,z,z,None,1094,894.0,200.0,23,1,2628.5999999999767,346186.0,7073,orange,NF,C,341392,341392,339663,340676,339663,342292,341192,341192,342292,49
50,test,1,inc,1,z,Fri Feb 28 2025 15:23:59 GMT-0600 (Central Standard Time),351380.5,lead,1100,I,z,z,None,928,729.0,199.0,48,1,2562.0,348818.5,7073,pear,NF,C,344125,344125,342296,343408,342296,344858,343925,343925,344858,50
51,test,1,con,1,m,Fri Feb 28 2025 15:23:59 GMT-0600 (Central Standard Time),354046.29999999993,cobalt,900,I,m,m,None,1218,1018.0,200.0,90,1,2662.0,351384.29999999993,7073,cobalt,NF,C,346492,346492,344861,345774,344862,347523,346291,346291,347523,51
52,test,1,con,1,z,Fri Feb 28 2025 15:23:59 GMT-0600 (Central Standard Time),356612.29999999993,pear,1100,I,z,z,None,929,730.0,199.0,44,1,2561.899999999907,354050.4,7073,pear,NF,C,349356,349356,347527,348640,347528,350089,349157,349157,350089,52
53,test,1,inc,1,m,Fri Feb 28 2025 15:23:59 GMT-0600 (Central Standard Time),359061.4,banana,800,I,m,m,None,1103,904.0,199.0,85,1,2445.5,356615.9,7073,silver,NF,C,351622,351622,350093,350906,350093,352539,351423,351423,352538,53
54,test,1,inc,1,m,Fri Feb 28 2025 15:23:59 GMT-0600 (Central Standard Time),361544.29999999993,cherry,900,I,m,m,None,1041,842.0,199.0,70,1,2479.0999999999767,359065.19999999995,7073,bronze,NF,C,354172,354172,352542,353455,352543,355021,353972,353972,355021,54
55,test,1,con,1,m,Fri Feb 28 2025 15:23:59 GMT-0600 (Central Standard Time),364126.6,lead,1000,I,m,m,None,1036,836.0,200.0,123,1,2578.4000000000233,361548.19999999995,7073,lead,NF,C,356754,356754,355025,356038,355026,357604,356554,356554,357604,55
56,test,1,inc,1,z,Fri Feb 28 2025 15:23:59 GMT-0600 (Central Standard Time),366675.79999999993,copper,900,I,z,z,None,1112,913.0,199.0,30,1,2545.29999999993,364130.5,7073,raisin,NF,C,359237,359237,357608,358520,357608,360153,359037,359037,360153,56
57,test,1,inc,1,z,Fri Feb 28 2025 15:23:59 GMT-0600 (Central Standard Time),369141.6,silver,1000,I,z,z,None,920,720.0,200.0,31,1,2462.3000000000466,366679.29999999993,7073,raisin,NF,C,361886,361886,360156,361169,360157,362619,361686,361686,362619,57
58,test,1,inc,1,z,Fri Feb 28 2025 15:23:59 GMT-0600 (Central Standard Time),371921.4,lead,1100,I,z,z,None,1001,802.0,199.0,56,1,2775.9000000000233,369145.5,7073,kiwi,NF,C,364452,364452,362622,363735,362623,365398,364252,364252,365398,58
59,test,1,inc,1,z,Fri Feb 28 2025 15:23:59 GMT-0600 (Central Standard Time),374439.9,zinc,1000,I,z,z,None,976,776.0,200.0,55,1,2514.3000000000466,371925.6,7073,kiwi,NF,C,367134,367134,365403,366418,365403,367917,366934,366934,367917,59
60,test,1,inc,1,m,Fri Feb 28 2025 15:23:59 GMT-0600 (Central Standard Time),376855.9,banana,800,I,m,m,None,1068,868.0,200.0,77,1,2412.0,374443.9,7073,copper,NF,C,369450,369450,367921,368734,367921,370333,369250,369250,370333,60
61,test,1,inc,1,z,Fri Feb 28 2025 15:23:59 GMT-0600 (Central Standard Time),379538.4,cobalt,1100,I,z,z,None,1040,840.0,200.0,24,1,2678.70000000007,376859.69999999995,7073,orange,NF,C,372166,372166,370337,371449,370337,373015,371966,371966,373015,61
62,test,1,inc,1,m,Fri Feb 28 2025 15:23:59 GMT-0600 (Central Standard Time),382087.6,plum,1100,I,m,m,None,908,709.0,199.0,112,1,2545.4000000000233,379542.19999999995,7073,iron,NF,C,374849,374849,373019,374132,373020,375565,374649,374649,375565,62
63,test,1,inc,1,m,Fri Feb 28 2025 15:23:59 GMT-0600 (Central Standard Time),384587.0,orange,1000,I,m,m,None,955,756.0,199.0,79,1,2495.3000000000466,382091.69999999995,7073,copper,NF,C,377298,377298,375569,376581,375569,378064,377098,377098,378064,63
64,test,1,con,1,m,Fri Feb 28 2025 15:23:59 GMT-0600 (Central Standard Time),386969.29999999993,gold,800,I,m,m,None,1049,849.0,200.0,97,1,2378.5999999999767,384590.69999999995,7073,gold,NF,C,379597,379597,378068,378880,378068,380446,379397,379397,380446,64
65,test,1,con,1,z,Fri Feb 28 2025 15:23:59 GMT-0600 (Central Standard Time),389335.29999999993,orange,800,I,z,z,None,1017,818.0,199.0,17,1,2362.1999999999534,386973.1,7073,orange,NF,C,381980,381980,380450,381263,380450,382812,381780,381780,382812,65
66,test,1,inc,1,z,Fri Feb 28 2025 15:23:59 GMT-0600 (Central Standard Time),391718.9,copper,900,I,z,z,None,936,737.0,199.0,14,1,2379.9000000000233,389339.0,7073,cherry,NF,C,384445,384445,382816,383729,382816,385196,384246,384246,385196,66
67,test,1,inc,1,z,Fri Feb 28 2025 15:23:59 GMT-0600 (Central Standard Time),394283.6,zinc,1000,I,z,z,None,1030,830.0,200.0,63,1,2560.5,391723.1,7073,plum,NF,C,386928,386928,385200,386212,385200,387761,386728,386728,387761,67
68,test,1,inc,1,m,Fri Feb 28 2025 15:23:59 GMT-0600 (Central Standard Time),397083.0,raisin,1100,I,m,m,None,1113,914.0,199.0,80,1,2795.70000000007,394287.29999999993,7073,copper,NF,C,389644,389644,387764,388942,387765,390560,389445,389445,390560,68
69,test,1,con,1,z,Fri Feb 28 2025 15:23:59 GMT-0600 (Central Standard Time),399615.4,plum,1100,I,z,z,None,893,693.0,200.0,60,1,2528.4000000000233,397087.0,7073,plum,NF,C,392393,392393,390564,391676,390564,393092,392193,392193,393092,69
70,test,1,con,1,m,Fri Feb 28 2025 15:23:59 GMT-0600 (Central Standard Time),402014.69999999995,bronze,1000,I,m,m,None,852,653.0,199.0,67,1,2395.4000000000233,399619.29999999993,7073,bronze,NF,C,394825,394825,393096,394109,393097,395492,394626,394626,395492,70
71,test,1,con,1,m,Fri Feb 28 2025 15:23:59 GMT-0600 (Central Standard Time),404113.69999999995,copper,800,I,m,m,None,764,565.0,199.0,73,1,2095.0999999999767,402018.6,7073,copper,NF,C,397025,397025,395496,396309,395496,397591,396825,396825,397591,71
72,test,1,con,1,z,Fri Feb 28 2025 15:23:59 GMT-0600 (Central Standard Time),406596.29999999993,cherry,900,I,z,z,None,1045,845.0,200.0,10,1,2478.899999999907,404117.4,7073,cherry,NF,C,399224,399224,397594,398508,397595,400073,399024,399024,400073,72
73,test,1,inc,1,m,Fri Feb 28 2025 15:23:59 GMT-0600 (Central Standard Time),409212.19999999995,orange,1000,I,m,m,None,1080,880.0,200.0,71,1,2612.0999999999767,406600.1,7073,bronze,NF,C,401806,401806,400077,401090,400077,402689,401606,401606,402689,73
74,test,1,con,1,z,Fri Feb 28 2025 15:23:59 GMT-0600 (Central Standard Time),411595.1,raisin,800,I,z,z,None,1046,847.0,199.0,25,1,2378.5999999999767,409216.5,7073,raisin,NF,C,404223,404223,402694,403506,402694,405072,404023,404023,405072,74
75,test,1,con,1,m,Fri Feb 28 2025 15:23:59 GMT-0600 (Central Standard Time),414110.69999999995,iron,1000,I,m,m,None,969,769.0,200.0,107,1,2511.6999999999534,411599.0,7073,iron,NF,C,406805,406805,405076,406089,405076,407588,406605,406605,407588,75
76,test,1,inc,1,m,Fri Feb 28 2025 15:23:59 GMT-0600 (Central Standard Time),416511.1,pear,900,I,m,m,None,953,753.0,200.0,126,1,2396.8000000000466,414114.29999999993,7073,lead,NF,C,409221,409221,407591,408505,407592,409988,409021,409021,409988,76
77,test,1,con,1,z,Fri Feb 28 2025 15:23:59 GMT-0600 (Central Standard Time),419194.6,lime,1000,I,z,z,None,1135,935.0,200.0,35,1,2679.5,416515.1,7073,lime,NF,C,411720,411720,409992,411004,409992,412672,411520,411520,412672,77
78,test,1,con,1,z,Fri Feb 28 2025 15:23:59 GMT-0600 (Central Standard Time),421492.0,kiwi,1000,I,z,z,None,762,563.0,199.0,51,1,2290.3000000000466,419201.69999999995,7073,kiwi,NF,C,414403,414403,412679,413686,412679,414969,414203,414203,414969,78
79,test,1,inc,1,m,Fri Feb 28 2025 15:23:59 GMT-0600 (Central Standard Time),424291.0,orange,1000,I,m,m,None,1264,1064.0,200.0,95,1,2794.9000000000233,421496.1,7073,cobalt,NF,C,416702,416702,414973,415986,414973,417768,416502,416502,417768,79
80,test,1,con,1,m,Fri Feb 28 2025 15:23:59 GMT-0600 (Central Standard Time),427306.69999999995,zinc,1100,I,m,m,None,1381,1181.0,200.0,116,1,3012.1999999999534,424294.5,7073,zinc,NF,C,419601,419601,417772,418885,417772,420784,419401,419401,420784,80
81,test,1,inc,1,m,Fri Feb 28 2025 15:23:59 GMT-0600 (Central Standard Time),429822.6,raisin,1100,I,m,m,None,869,669.0,200.0,72,1,2512.1999999999534,427310.4,7073,bronze,NF,C,422617,422617,420787,421900,420788,423300,422417,422417,423300,81
82,test,1,inc,1,z,Fri Feb 28 2025 15:23:59 GMT-0600 (Central Standard Time),432271.9,bronze,800,I,z,z,None,1109,909.0,200.0,21,1,2445.20000000007,429826.69999999995,7073,orange,NF,C,424833,424833,423304,424116,423304,425749,424633,424633,425749,82
83,test,1,inc,1,m,Fri Feb 28 2025 15:23:59 GMT-0600 (Central Standard Time),434654.6,cherry,900,I,m,m,None,944,744.0,200.0,86,1,2378.9000000000233,432275.69999999995,7073,silver,NF,C,427382,427382,425753,426666,425753,428132,427182,427182,428132,83
84,test,1,con,1,z,Fri Feb 28 2025 15:23:59 GMT-0600 (Central Standard Time),437137.1,kiwi,900,I,z,z,None,1041,842.0,199.0,50,1,2478.8000000000466,434658.29999999993,7073,kiwi,NF,C,429764,429764,428135,429048,428136,430614,429565,429565,430614,84
85,test,1,inc,1,z,Fri Feb 28 2025 15:23:59 GMT-0600 (Central Standard Time),439669.6,cobalt,1100,I,z,z,None,894,695.0,199.0,32,1,2528.4000000000233,437141.19999999995,7073,raisin,NF,C,432447,432447,430618,431731,430619,433147,432248,432248,433147,85
86,test,1,con,1,m,Fri Feb 28 2025 15:23:59 GMT-0600 (Central Standard Time),442135.4,lead,800,I,m,m,None,1125,926.0,199.0,121,1,2462.20000000007,439673.19999999995,7073,lead,NF,C,434680,434680,433150,433963,433151,435612,434480,434480,435612,86
87,test,1,inc,1,m,Fri Feb 28 2025 15:23:59 GMT-0600 (Central Standard Time),444451.6,lime,800,I,m,m,None,971,772.0,199.0,117,1,2312.4000000000233,442139.19999999995,7073,zinc,NF,C,437146,437146,435616,436429,435617,437929,436946,436946,437929,87
88,test,1,con,1,z,Fri Feb 28 2025 15:23:59 GMT-0600 (Central Standard Time),446850.79999999993,banana,1000,I,z,z,None,864,665.0,199.0,3,1,2395.1999999999534,444455.6,7073,banana,NF,C,439661,439661,437933,438945,437933,440328,439462,439462,440328,88
89,test,1,inc,1,z,Fri Feb 28 2025 15:23:59 GMT-0600 (Central Standard Time),449333.19999999995,iron,900,I,z,z,None,1036,836.0,200.0,54,1,2478.5,446854.69999999995,7073,kiwi,NF,C,441962,441962,440332,441244,440332,442810,441761,441761,442810,89
90,test,1,con,1,m,Fri Feb 28 2025 15:23:59 GMT-0600 (Central Standard Time),452065.5,bronze,1100,I,m,m,None,1099,899.0,200.0,68,1,2728.70000000007,449336.79999999993,7073,bronze,NF,C,444643,444643,442814,443927,442814,445543,444443,444443,445543,90
91,test,1,inc,1,m,Fri Feb 28 2025 15:23:59 GMT-0600 (Central Standard Time),454431.79999999993,pear,900,I,m,m,None,918,718.0,200.0,118,1,2362.899999999907,452068.9,7073,zinc,NF,C,447176,447176,445546,446459,445546,447909,446976,446976,447909,91
92,test,1,con,1,m,Fri Feb 28 2025 15:23:59 GMT-0600 (Central Standard Time),456814.0,silver,1000,I,m,m,None,843,644.0,199.0,83,1,2378.5999999999767,454435.4,7073,silver,NF,C,449642,449642,447912,448925,447913,450291,449442,449442,450291,92
93,test,1,con,1,m,Fri Feb 28 2025 15:23:59 GMT-0600 (Central Standard Time),459146.69999999995,iron,900,I,m,m,None,890,690.0,200.0,106,1,2328.6999999999534,456818.0,7073,iron,NF,C,451924,451924,450295,451208,450295,452624,451724,451724,452624,93
94,test,1,inc,1,z,Fri Feb 28 2025 15:23:59 GMT-0600 (Central Standard Time),461395.79999999993,gold,800,I,z,z,None,912,697.0,215.0,37,1,2245.0999999999767,459150.69999999995,7073,lime,NF,C,454173,454173,452628,453441,452628,454873,453958,453958,454873,94
95,test,1,con,1,m,Fri Feb 28 2025 15:23:59 GMT-0600 (Central Standard Time),463945.1,cobalt,1100,I,m,m,None,908,708.0,200.0,92,1,2545.4000000000233,461399.69999999995,7073,cobalt,NF,C,456706,456706,454877,455990,454877,457422,456506,456506,457422,95
96,test,1,con,1,m,Fri Feb 28 2025 15:23:59 GMT-0600 (Central Standard Time),466377.4,gold,1100,I,m,m,None,799,599.0,200.0,100,1,2428.20000000007,463949.19999999995,7073,gold,NF,C,459255,459255,457426,458539,457427,459854,459055,459055,459854,96
97,test,1,con,1,z,Fri Feb 28 2025 15:23:59 GMT-0600 (Central Standard Time),468993.6,cherry,1100,I,z,z,None,982,782.0,200.0,12,1,2612.5,466381.1,7073,cherry,NF,C,461688,461688,459858,460971,459858,462471,461488,461488,462471,97
98,test,1,con,1,m,Fri Feb 28 2025 15:23:59 GMT-0600 (Central Standard Time),471459.5,silver,800,I,m,m,None,1129,930.0,199.0,81,1,2462.3000000000466,468997.19999999995,7073,silver,NF,C,464004,464004,462474,463288,462475,464937,463804,463804,464937,98
99,test,1,con,1,m,Fri Feb 28 2025 15:23:59 GMT-0600 (Central Standard Time),473692.19999999995,cobalt,800,I,m,m,None,887,688.0,199.0,89,1,2228.79999999993,471463.4,7073,cobalt,NF,C,466470,466470,464940,465753,464941,467169,466270,466270,467169,99
100,test,1,inc,1,m,Fri Feb 28 2025 15:23:59 GMT-0600 (Central Standard Time),476059.19999999995,orange,1000,I,m,m,None,832,632.0,200.0,87,1,2363.29999999993,473695.9,7073,silver,NF,C,468902,468902,467173,468186,467173,469536,468702,468702,469536,100
101,test,1,inc,1,m,Fri Feb 28 2025 15:23:59 GMT-0600 (Central Standard Time),478257.29999999993,cherry,900,I,m,m,None,758,558.0,200.0,78,1,2194.399999999907,476062.9,7073,copper,NF,C,471168,471168,469540,470453,469540,471734,470968,470968,471734,101
102,test,1,inc,1,m,Fri Feb 28 2025 15:23:59 GMT-0600 (Central Standard Time),480640.1,plum,1100,I,m,m,None,733,534.0,199.0,128,1,2378.9000000000233,478261.19999999995,7073,lead,NF,C,473568,473568,471738,472851,471739,474117,473368,473368,474117,102
103,test,1,inc,1,m,Fri Feb 28 2025 15:23:59 GMT-0600 (Central Standard Time),482939.29999999993,kiwi,1000,I,m,m,None,756,556.0,200.0,127,1,2295.29999999993,480644.0,7073,lead,NF,C,475850,475850,474121,475134,474121,476416,475650,475650,476416,103
104,test,1,con,1,m,Fri Feb 28 2025 15:23:59 GMT-0600 (Central Standard Time),485171.79999999993,zinc,900,I,m,m,None,796,597.0,199.0,114,1,2228.899999999907,482942.9,7073,zinc,NF,C,478049,478049,476420,477333,476420,478649,477850,477850,478649,104
105,test,1,inc,1,m,Fri Feb 28 2025 15:23:59 GMT-0600 (Central Standard Time),487237.9,pear,900,I,m,m,None,620,420.0,200.0,102,1,2062.600000000093,485175.29999999993,7073,gold,NF,C,480282,480282,478652,479565,478653,480715,480082,480082,480715,105
106,test,1,con,1,m,Fri Feb 28 2025 15:23:59 GMT-0600 (Central Standard Time),489254.19999999995,iron,800,I,m,m,None,678,478.0,200.0,105,1,2012.5999999999767,487241.6,7073,iron,NF,C,482248,482248,480719,481532,480719,482731,482048,482048,482731,106
107,test,1,con,1,m,Fri Feb 28 2025 15:23:59 GMT-0600 (Central Standard Time),491553.19999999995,iron,1100,I,m,m,None,666,466.0,200.0,108,1,2295.1999999999534,489258.0,7073,iron,NF,C,484564,484564,482735,483848,482735,485030,484364,484364,485030,107
108,test,1,con,1,z,Fri Feb 28 2025 15:23:59 GMT-0600 (Central Standard Time),494152.5,banana,1100,I,z,z,None,959,759.0,200.0,4,1,2595.3000000000466,491557.19999999995,7073,banana,NF,C,486863,486863,485034,486147,485035,487630,486663,486663,487630,108
109,test,1,con,1,z,Fri Feb 28 2025 15:23:59 GMT-0600 (Central Standard Time),496552.0,lime,900,I,z,z,None,958,759.0,199.0,34,1,2395.5999999999767,494156.4,7073,lime,NF,C,489263,489263,487633,488546,487634,490029,489063,489063,490029,109
110,test,1,inc,1,m,Fri Feb 28 2025 15:23:59 GMT-0600 (Central Standard Time),499234.29999999993,plum,1100,I,m,m,None,1040,840.0,200.0,120,1,2678.399999999907,496555.9,7073,zinc,NF,C,491862,491862,490033,491145,490033,492711,491662,491662,492711,110
111,test,1,inc,1,m,Fri Feb 28 2025 15:23:59 GMT-0600 (Central Standard Time),501300.19999999995,banana,800,I,m,m,None,729,530.0,199.0,69,1,2062.0999999999767,499238.1,7073,bronze,NF,C,494244,494244,492715,493528,492716,494777,494045,494045,494777,111
112,test,1,inc,1,m,Fri Feb 28 2025 15:23:59 GMT-0600 (Central Standard Time),503499.5,kiwi,1000,I,m,m,None,662,463.0,199.0,119,1,2195.4000000000233,501304.1,7073,zinc,NF,C,496511,496511,494781,495794,494781,496977,496311,496311,496977,112
113,test,1,inc,1,z,Fri Feb 28 2025 15:23:59 GMT-0600 (Central Standard Time),505949.0,zinc,1000,I,z,z,None,904,704.0,200.0,47,1,2445.70000000007,503503.29999999993,7073,pear,NF,C,498710,498710,496980,497993,496981,499426,498510,498510,499426,113
114,test,1,con,1,m,Fri Feb 28 2025 15:23:59 GMT-0600 (Central Standard Time),508447.79999999993,gold,900,I,m,m,None,1050,851.0,199.0,98,1,2495.0,505952.79999999993,7073,gold,NF,C,501059,501059,499430,500342,499430,501925,500859,500859,501925,114
115,test,1,con,1,z,Fri Feb 28 2025 15:23:59 GMT-0600 (Central Standard Time),510747.19999999995,plum,900,I,z,z,None,864,664.0,200.0,58,1,2295.5,508451.69999999995,7073,plum,NF,C,503558,503558,501929,502842,501929,504224,503358,503358,504224,115
116,test,1,con,1,m,Fri Feb 28 2025 15:23:59 GMT-0600 (Central Standard Time),512930.9,copper,900,I,m,m,None,747,547.0,200.0,74,1,2180.20000000007,510750.69999999995,7073,copper,NF,C,505859,505859,504228,505141,504228,506408,505658,505658,506408,116
117,test,1,con,1,m,Fri Feb 28 2025 15:23:59 GMT-0600 (Central Standard Time),515412.6,silver,900,I,m,m,None,1037,838.0,199.0,82,1,2477.6999999999534,512934.9,7073,silver,NF,C,508040,508040,506412,507325,506412,508890,507841,507841,508890,117
118,test,1,con,1,z,Fri Feb 28 2025 15:23:59 GMT-0600 (Central Standard Time),517978.19999999995,cherry,1000,I,z,z,None,1022,823.0,199.0,11,1,2561.29999999993,515416.9,7073,cherry,NF,C,510623,510623,508894,509906,508894,511455,510423,510423,511455,118
119,test,1,con,1,z,Fri Feb 28 2025 15:23:59 GMT-0600 (Central Standard Time),520527.6,raisin,1100,I,z,z,None,902,702.0,200.0,28,1,2545.6999999999534,517981.9,7073,raisin,NF,C,513288,513288,511459,512572,511459,514005,513088,513088,514005,119
120,test,1,inc,1,z,Fri Feb 28 2025 15:23:59 GMT-0600 (Central Standard Time),522793.5,gold,800,I,z,z,None,924,724.0,200.0,45,1,2262.3000000000466,520531.19999999995,7073,pear,NF,C,515538,515538,514008,514821,514009,516271,515338,515338,516270,120
121,test,1,con,1,z,Fri Feb 28 2025 15:23:59 GMT-0600 (Central Standard Time),525225.9,lime,1100,I,z,z,None,790,591.0,199.0,36,1,2428.20000000007,522797.69999999995,7073,lime,NF,C,518103,518103,516275,517387,516275,518703,517904,517904,518703,121
122,test,1,con,1,m,Fri Feb 28 2025 15:23:59 GMT-0600 (Central Standard Time),527675.0,bronze,900,I,m,m,None,1014,814.0,200.0,66,1,2445.20000000007,525229.7999999999,7073,bronze,NF,C,520336,520336,518707,519620,518707,521152,520136,520136,521152,122
123,test,1,con,1,m,Fri Feb 28 2025 15:23:59 GMT-0600 (Central Standard Time),529857.7999999999,gold,1000,I,m,m,None,648,449.0,199.0,99,1,2178.899999999907,527678.9,7073,gold,NF,C,522885,522885,521156,522169,521156,523335,522686,522686,523335,123
124,test,1,con,1,m,Fri Feb 28 2025 15:23:59 GMT-0600 (Central Standard Time),532023.7999999999,zinc,1000,I,m,m,None,618,418.0,200.0,115,1,2162.5,529861.2999999999,7073,zinc,NF,C,525068,525068,523338,524353,523339,525501,524868,524868,525501,124
125,test,1,con,1,m,Fri Feb 28 2025 15:23:59 GMT-0600 (Central Standard Time),534106.4,lead,1100,I,m,m,None,448,248.0,200.0,124,1,2078.70000000007,532027.7,7073,lead,NF,C,527334,527334,525505,526618,525505,527583,527134,527134,527583,125
126,test,1,con,1,m,Fri Feb 28 2025 15:23:59 GMT-0600 (Central Standard Time),536007.1,bronze,800,I,m,m,None,560,361.0,199.0,65,1,1897.0,534110.1,7073,bronze,NF,C,529117,529117,527587,528401,527588,529484,528917,528917,529484,126
127,test,1,con,1,m,Fri Feb 28 2025 15:23:59 GMT-0600 (Central Standard Time),538055.2999999999,copper,1100,I,m,m,None,410,210.0,200.0,76,1,2044.5,536010.7999999999,7073,copper,NF,C,531316,531316,529488,530600,529488,531532,531116,531116,531532,127
128,test,1,inc,1,z,Fri Feb 28 2025 15:23:59 GMT-0600 (Central Standard Time),540387.9,copper,900,I,z,z,None,896,697.0,199.0,6,1,2328.8000000000466,538059.1,7073,banana,NF,C,533165,533165,531536,532449,531536,533865,532966,532966,533865,128
