acc_sum,block,block_c,change,condition,correct,correct_response,datetime,endtime,face,project,response,response_time,row_sel,session_number,start_end,starttime,subject_id,task,task_vers,trial
0,prac,1,,1-Back,,,Wed Apr 23 2025 08:46:06 GMT-0500 (Central Daylight Time),,005_o_f_d_a.png,O,space,5480,1,1,,,7132,VNB,B,0
1,prac,1,0.0,1-Back,1,m,Wed Apr 23 2025 08:46:06 GMT-0500 (Central Daylight Time),116693.80000001192,020_y_f_n_a.png,O,m,1323,2,1,2173.0,114520.80000001192,7132,VNB,B,1
2,prac,1,0.0,1-Back,1,m,Wed Apr 23 2025 08:46:06 GMT-0500 (Central Daylight Time),118511.5,007_m_m_h_a.png,O,m,906,3,1,1791.800000011921,116719.69999998808,7132,VNB,B,2
3,prac,1,0.0,1-Back,1,m,Wed Apr 23 2025 08:46:06 GMT-0500 (Central Daylight Time),120348.30000001192,016_y_m_d_a.png,O,m,935,4,1,1810.699999988079,118537.60000002384,7132,VNB,B,3
4,prac,1,0.0,1-Back,1,m,Wed Apr 23 2025 08:46:06 GMT-0500 (Central Daylight Time),121960.80000001192,005_o_f_n_a.png,O,m,717,5,1,1589.699999988079,120371.10000002384,7132,VNB,B,4
5,prac,1,1.0,1-Back,1,z,Wed Apr 23 2025 08:46:06 GMT-0500 (Central Daylight Time),123662.10000002384,016_y_m_n_a.png,O,z,813,6,1,1676.9000000357628,121985.19999998808,7132,VNB,B,5
6,prac,1,0.0,1-Back,1,m,Wed Apr 23 2025 08:46:06 GMT-0500 (Central Daylight Time),125411.19999998808,004_o_m_h_a.png,O,m,864,7,1,1725.0,123686.19999998808,7132,VNB,B,6
6,prac,1,0.0,1-Back,0,m,Wed Apr 23 2025 08:46:06 GMT-0500 (Central Daylight Time),127060.10000002384,011_m_f_d_a.png,O,z,747,8,1,1623.4000000357628,125436.69999998808,7132,VNB,B,7
7,prac,1,1.0,1-Back,1,z,Wed Apr 23 2025 08:46:06 GMT-0500 (Central Daylight Time),129126.60000002384,020_y_f_d_a.png,O,z,1172,9,1,2041.300000011921,127085.30000001192,7132,VNB,B,8
8,prac,1,0.0,1-Back,1,m,Wed Apr 23 2025 08:46:06 GMT-0500 (Central Daylight Time),130807.89999997616,007_m_m_n_a.png,O,m,776,10,1,1655.699999988079,129152.19999998808,7132,VNB,B,9
9,prac,1,0.0,1-Back,1,m,Wed Apr 23 2025 08:46:06 GMT-0500 (Central Daylight Time),132557.10000002384,005_o_f_h_a.png,O,m,850,11,1,1723.7000000476837,130833.39999997616,7132,VNB,B,10
10,prac,1,0.0,1-Back,1,m,Wed Apr 23 2025 08:46:06 GMT-0500 (Central Daylight Time),134058.69999998808,016_y_m_d_a.png,O,m,600,12,1,1476.5,132582.19999998808,7132,VNB,B,11
0,test,1,0.0,1-Back,,,Wed Apr 23 2025 08:46:06 GMT-0500 (Central Daylight Time),134058.69999998808,020_y_f_d_a.png,O,space,4289,1,1,1476.5,132582.19999998808,7132,VNB,B,0
1,test,1,0.0,1-Back,1,m,Wed Apr 23 2025 08:46:06 GMT-0500 (Central Daylight Time),148802.60000002384,011_m_f_n_a.png,O,m,1037,2,1,2063.5,146739.10000002384,7132,VNB,B,1
2,test,1,0.0,1-Back,1,m,Wed Apr 23 2025 08:46:06 GMT-0500 (Central Daylight Time),150535.10000002384,004_o_m_h_a.png,O,m,690,3,1,1708.5,148826.60000002384,7132,VNB,B,2
3,test,1,1.0,1-Back,1,z,Wed Apr 23 2025 08:46:06 GMT-0500 (Central Daylight Time),152018.69999998808,007_m_m_h_a.png,O,z,439,4,1,1460.5999999642372,150558.10000002384,7132,VNB,B,3
4,test,1,0.0,1-Back,1,m,Wed Apr 23 2025 08:46:06 GMT-0500 (Central Daylight Time),153716.10000002384,005_o_f_n_a.png,O,m,658,5,1,1673.7000000476837,152042.39999997616,7132,VNB,B,4
5,test,1,0.0,1-Back,1,m,Wed Apr 23 2025 08:46:06 GMT-0500 (Central Daylight Time),155833.80000001192,016_y_m_d_a.png,O,m,1082,6,1,2094.699999988079,153739.10000002384,7132,VNB,B,5
6,test,1,1.0,1-Back,1,z,Wed Apr 23 2025 08:46:06 GMT-0500 (Central Daylight Time),157584.39999997616,011_m_f_d_a.png,O,z,716,7,1,1727.8999999761581,155856.5,7132,VNB,B,6
7,test,1,0.0,1-Back,1,m,Wed Apr 23 2025 08:46:06 GMT-0500 (Central Daylight Time),159299.10000002384,020_y_f_h_a.png,O,m,664,8,1,1689.6000000238419,157609.5,7132,VNB,B,7
7,test,1,0.0,1-Back,0,m,Wed Apr 23 2025 08:46:06 GMT-0500 (Central Daylight Time),160982.60000002384,004_o_m_n_a.png,O,z,643,9,1,1660.9000000357628,159321.69999998808,7132,VNB,B,8
8,test,1,0.0,1-Back,1,m,Wed Apr 23 2025 08:46:06 GMT-0500 (Central Daylight Time),162780.19999998808,016_y_m_h_a.png,O,m,759,10,1,1772.300000011921,161007.89999997616,7132,VNB,B,9
9,test,1,0.0,1-Back,1,m,Wed Apr 23 2025 08:46:06 GMT-0500 (Central Daylight Time),164482.19999998808,004_o_m_d_a.png,O,m,657,11,1,1681.3999999761581,162800.80000001192,7132,VNB,B,10
10,test,1,1.0,1-Back,1,z,Wed Apr 23 2025 08:46:06 GMT-0500 (Central Daylight Time),166197.19999998808,005_o_f_d_a.png,O,z,668,12,1,1690.8999999761581,164506.30000001192,7132,VNB,B,11
11,test,1,0.0,1-Back,1,m,Wed Apr 23 2025 08:46:06 GMT-0500 (Central Daylight Time),167929.80000001192,007_m_m_n_a.png,O,m,696,13,1,1708.5,166221.30000001192,7132,VNB,B,12
11,test,1,1.0,1-Back,0,z,Wed Apr 23 2025 08:46:06 GMT-0500 (Central Daylight Time),169730.30000001192,020_y_f_n_a.png,O,m,766,14,1,1775.800000011921,167954.5,7132,VNB,B,13
12,test,1,0.0,1-Back,1,m,Wed Apr 23 2025 08:46:06 GMT-0500 (Central Daylight Time),172011.19999998808,011_m_f_h_a.png,O,m,1235,15,1,2258.699999988079,169752.5,7132,VNB,B,14
13,test,1,0.0,1-Back,1,m,Wed Apr 23 2025 08:46:06 GMT-0500 (Central Daylight Time),173878.80000001192,007_m_m_d_a.png,O,m,817,16,1,1844.0,172034.80000001192,7132,VNB,B,15
14,test,1,0.0,1-Back,1,m,Wed Apr 23 2025 08:46:06 GMT-0500 (Central Daylight Time),175560.69999998808,016_y_m_n_a.png,O,m,640,17,1,1659.300000011921,173901.39999997616,7132,VNB,B,16
15,test,1,0.0,1-Back,1,m,Wed Apr 23 2025 08:46:06 GMT-0500 (Central Daylight Time),177260.0,005_o_f_h_a.png,O,m,653,18,1,1674.8999999761581,175585.10000002384,7132,VNB,B,17
0,test,2,0.0,1-Back,,,Wed Apr 23 2025 08:46:06 GMT-0500 (Central Daylight Time),177260.0,016_y_m_n_a.png,O,space,1570,1,1,1674.8999999761581,175585.10000002384,7132,VNB,B,0
1,test,2,0.0,1-Back,1,m,Wed Apr 23 2025 08:46:06 GMT-0500 (Central Daylight Time),182625.60000002384,020_y_f_h_a.png,O,m,733,2,1,1744.300000011921,180881.30000001192,7132,VNB,B,1
2,test,2,1.0,1-Back,1,m,Wed Apr 23 2025 08:46:06 GMT-0500 (Central Daylight Time),184523.80000001192,004_o_m_n_a.png,O,m,853,3,1,1873.300000011921,182650.5,7132,VNB,B,2
3,test,2,0.0,1-Back,1,m,Wed Apr 23 2025 08:46:06 GMT-0500 (Central Daylight Time),186523.30000001192,011_m_f_d_a.png,O,m,953,4,1,1975.800000011921,184547.5,7132,VNB,B,3
4,test,2,0.0,1-Back,1,z,Wed Apr 23 2025 08:46:06 GMT-0500 (Central Daylight Time),188107.30000001192,007_m_m_d_a.png,O,z,538,5,1,1559.6000000238419,186547.69999998808,7132,VNB,B,4
5,test,2,0.0,1-Back,1,m,Wed Apr 23 2025 08:46:06 GMT-0500 (Central Daylight Time),189889.89999997616,016_y_m_h_a.png,O,m,740,6,1,1758.0,188131.89999997616,7132,VNB,B,5
5,test,2,1.0,1-Back,0,z,Wed Apr 23 2025 08:46:06 GMT-0500 (Central Daylight Time),191406.69999998808,005_o_f_h_a.png,O,m,468,7,1,1493.3999999761581,189913.30000001192,7132,VNB,B,6
6,test,2,0.0,1-Back,1,m,Wed Apr 23 2025 08:46:06 GMT-0500 (Central Daylight Time),193307.30000001192,011_m_f_n_a.png,O,m,866,8,1,1877.0,191430.30000001192,7132,VNB,B,7
7,test,2,0.0,1-Back,1,m,Wed Apr 23 2025 08:46:06 GMT-0500 (Central Daylight Time),195738.0,020_y_f_d_a.png,O,m,1389,9,1,2406.800000011921,193331.19999998808,7132,VNB,B,8
8,test,2,0.0,1-Back,1,m,Wed Apr 23 2025 08:46:06 GMT-0500 (Central Daylight Time),197704.19999998808,007_m_m_n_a.png,O,m,917,10,1,1942.8999999761581,195761.30000001192,7132,VNB,B,9
8,test,2,1.0,1-Back,0,m,Wed Apr 23 2025 08:46:06 GMT-0500 (Central Daylight Time),199587.19999998808,011_m_f_h_a.png,O,z,848,11,1,1859.5,197727.69999998808,7132,VNB,B,10
9,test,2,0.0,1-Back,1,z,Wed Apr 23 2025 08:46:06 GMT-0500 (Central Daylight Time),202085.0,004_o_m_h_a.png,O,z,1451,12,1,2473.399999976158,199611.60000002384,7132,VNB,B,11
10,test,2,0.0,1-Back,1,m,Wed Apr 23 2025 08:46:06 GMT-0500 (Central Daylight Time),203886.60000002384,016_y_m_d_a.png,O,m,750,13,1,1777.4000000357628,202109.19999998808,7132,VNB,B,12
11,test,2,0.0,1-Back,1,m,Wed Apr 23 2025 08:46:06 GMT-0500 (Central Daylight Time),205667.10000002384,005_o_f_n_a.png,O,m,735,14,1,1754.800000011921,203912.30000001192,7132,VNB,B,13
12,test,2,0.0,1-Back,1,z,Wed Apr 23 2025 08:46:06 GMT-0500 (Central Daylight Time),207601.60000002384,020_y_f_n_a.png,O,z,891,15,1,1910.9000000357628,205690.69999998808,7132,VNB,B,14
13,test,2,1.0,1-Back,1,m,Wed Apr 23 2025 08:46:06 GMT-0500 (Central Daylight Time),209481.5,007_m_m_h_a.png,O,m,847,16,1,1855.0,207626.5,7132,VNB,B,15
13,test,2,0.0,1-Back,0,m,Wed Apr 23 2025 08:46:06 GMT-0500 (Central Daylight Time),211234.19999998808,005_o_f_d_a.png,O,z,716,17,1,1732.699999988079,209501.5,7132,VNB,B,16
14,test,2,1.0,1-Back,1,z,Wed Apr 23 2025 08:46:06 GMT-0500 (Central Daylight Time),213017.10000002384,004_o_m_d_a.png,O,z,750,18,1,1761.2000000476837,211255.89999997616,7132,VNB,B,17
0,test,3,1.0,1-Back,,,Wed Apr 23 2025 08:46:06 GMT-0500 (Central Daylight Time),213017.10000002384,005_o_f_h_a.png,O,space,2390,1,1,1761.2000000476837,211255.89999997616,7132,VNB,B,0
1,test,3,0.0,1-Back,1,m,Wed Apr 23 2025 08:46:06 GMT-0500 (Central Daylight Time),219230.69999998808,011_m_f_d_a.png,O,m,659,2,1,1673.8999999761581,217556.80000001192,7132,VNB,B,1
2,test,3,1.0,1-Back,1,m,Wed Apr 23 2025 08:46:06 GMT-0500 (Central Daylight Time),221412.10000002384,007_m_m_n_a.png,O,m,1145,3,1,2155.100000023842,219257.0,7132,VNB,B,2
3,test,3,0.0,1-Back,1,z,Wed Apr 23 2025 08:46:06 GMT-0500 (Central Daylight Time),223412.89999997616,005_o_f_n_a.png,O,z,963,4,1,1976.8999999761581,221436.0,7132,VNB,B,3
4,test,3,1.0,1-Back,1,m,Wed Apr 23 2025 08:46:06 GMT-0500 (Central Daylight Time),225478.80000001192,004_o_m_d_a.png,O,m,1026,5,1,2042.0,223436.80000001192,7132,VNB,B,4
5,test,3,0.0,1-Back,1,m,Wed Apr 23 2025 08:46:06 GMT-0500 (Central Daylight Time),227262.0,020_y_f_h_a.png,O,m,744,6,1,1759.3999999761581,225502.60000002384,7132,VNB,B,5
6,test,3,0.0,1-Back,1,z,Wed Apr 23 2025 08:46:06 GMT-0500 (Central Daylight Time),228776.69999998808,016_y_m_h_a.png,O,z,465,7,1,1491.0,227285.69999998808,7132,VNB,B,6
7,test,3,0.0,1-Back,1,m,Wed Apr 23 2025 08:46:06 GMT-0500 (Central Daylight Time),230727.10000002384,011_m_f_n_a.png,O,m,908,8,1,1925.300000011921,228801.80000001192,7132,VNB,B,7
8,test,3,0.0,1-Back,1,m,Wed Apr 23 2025 08:46:06 GMT-0500 (Central Daylight Time),232610.5,020_y_f_d_a.png,O,m,847,9,1,1861.6000000238419,230748.89999997616,7132,VNB,B,8
9,test,3,1.0,1-Back,1,m,Wed Apr 23 2025 08:46:06 GMT-0500 (Central Daylight Time),234293.69999998808,004_o_m_n_a.png,O,m,637,10,1,1659.300000011921,232634.39999997616,7132,VNB,B,9
10,test,3,0.0,1-Back,1,m,Wed Apr 23 2025 08:46:06 GMT-0500 (Central Daylight Time),236091.30000001192,007_m_m_h_a.png,O,m,754,11,1,1772.6000000238419,234318.69999998808,7132,VNB,B,10
11,test,3,0.0,1-Back,1,z,Wed Apr 23 2025 08:46:06 GMT-0500 (Central Daylight Time),238026.69999998808,011_m_f_h_a.png,O,z,900,12,1,1910.5999999642372,236116.10000002384,7132,VNB,B,11
12,test,3,1.0,1-Back,1,m,Wed Apr 23 2025 08:46:06 GMT-0500 (Central Daylight Time),239774.80000001192,005_o_f_d_a.png,O,m,709,13,1,1726.199999988079,238048.60000002384,7132,VNB,B,12
13,test,3,0.0,1-Back,1,z,Wed Apr 23 2025 08:46:06 GMT-0500 (Central Daylight Time),242006.0,007_m_m_d_a.png,O,z,1183,14,1,2207.300000011921,239798.69999998808,7132,VNB,B,13
14,test,3,0.0,1-Back,1,m,Wed Apr 23 2025 08:46:06 GMT-0500 (Central Daylight Time),243673.69999998808,016_y_m_n_a.png,O,m,625,15,1,1643.5999999642372,242030.10000002384,7132,VNB,B,14
15,test,3,1.0,1-Back,1,m,Wed Apr 23 2025 08:46:06 GMT-0500 (Central Daylight Time),245374.69999998808,004_o_m_h_a.png,O,m,652,16,1,1676.8999999761581,243697.80000001192,7132,VNB,B,15
16,test,3,0.0,1-Back,1,m,Wed Apr 23 2025 08:46:06 GMT-0500 (Central Daylight Time),247107.19999998808,016_y_m_d_a.png,O,m,691,17,1,1708.5999999642372,245398.60000002384,7132,VNB,B,16
17,test,3,1.0,1-Back,1,m,Wed Apr 23 2025 08:46:06 GMT-0500 (Central Daylight Time),248753.80000001192,020_y_f_n_a.png,O,m,605,18,1,1620.800000011921,247133.0,7132,VNB,B,17
0,test,4,1.0,1-Back,,,Wed Apr 23 2025 08:46:06 GMT-0500 (Central Daylight Time),248753.80000001192,007_m_m_d_a.png,O,space,1261,1,1,1620.800000011921,247133.0,7132,VNB,B,0
1,test,4,0.0,1-Back,1,z,Wed Apr 23 2025 08:46:06 GMT-0500 (Central Daylight Time),253720.19999998808,004_o_m_d_a.png,O,z,633,2,1,1659.199999988079,252061.0,7132,VNB,B,1
2,test,4,0.0,1-Back,1,m,Wed Apr 23 2025 08:46:06 GMT-0500 (Central Daylight Time),255318.69999998808,016_y_m_h_a.png,O,m,550,3,1,1574.3999999761581,253744.30000001192,7132,VNB,B,2
3,test,4,0.0,1-Back,1,m,Wed Apr 23 2025 08:46:06 GMT-0500 (Central Daylight Time),257051.10000002384,011_m_f_n_a.png,O,m,696,4,1,1708.300000011921,255342.80000001192,7132,VNB,B,3
4,test,4,1.0,1-Back,1,m,Wed Apr 23 2025 08:46:06 GMT-0500 (Central Daylight Time),258651.39999997616,005_o_f_h_a.png,O,m,564,5,1,1576.699999988079,257074.69999998808,7132,VNB,B,4
5,test,4,0.0,1-Back,1,m,Wed Apr 23 2025 08:46:06 GMT-0500 (Central Daylight Time),260218.10000002384,007_m_m_n_a.png,O,m,533,6,1,1542.1000000238419,258676.0,7132,VNB,B,5
6,test,4,0.0,1-Back,1,m,Wed Apr 23 2025 08:46:06 GMT-0500 (Central Daylight Time),261883.60000002384,016_y_m_d_a.png,O,m,620,7,1,1641.4000000357628,260242.19999998808,7132,VNB,B,6
7,test,4,1.0,1-Back,1,z,Wed Apr 23 2025 08:46:06 GMT-0500 (Central Daylight Time),263482.39999997616,020_y_f_d_a.png,O,z,564,8,1,1575.0,261907.39999997616,7132,VNB,B,7
8,test,4,0.0,1-Back,1,m,Wed Apr 23 2025 08:46:06 GMT-0500 (Central Daylight Time),265234.3000000119,011_m_f_h_a.png,O,m,717,9,1,1727.5,263506.8000000119,7132,VNB,B,8
9,test,4,0.0,1-Back,1,z,Wed Apr 23 2025 08:46:06 GMT-0500 (Central Daylight Time),267083.6999999881,004_o_m_h_a.png,O,z,817,10,1,1828.0,265255.6999999881,7132,VNB,B,9
10,test,4,1.0,1-Back,1,m,Wed Apr 23 2025 08:46:06 GMT-0500 (Central Daylight Time),268714.10000002384,005_o_f_n_a.png,O,m,587,11,1,1606.0,267108.10000002384,7132,VNB,B,10
11,test,4,0.0,1-Back,1,m,Wed Apr 23 2025 08:46:06 GMT-0500 (Central Daylight Time),271031.60000002384,011_m_f_d_a.png,O,m,1274,12,1,2297.100000023842,268734.5,7132,VNB,B,11
12,test,4,0.0,1-Back,1,m,Wed Apr 23 2025 08:46:06 GMT-0500 (Central Daylight Time),273246.6999999881,020_y_f_n_a.png,O,m,1167,13,1,2191.5,271055.1999999881,7132,VNB,B,12
13,test,4,0.0,1-Back,1,m,Wed Apr 23 2025 08:46:06 GMT-0500 (Central Daylight Time),275462.8000000119,005_o_f_d_a.png,O,m,1167,14,1,2191.100000023842,273271.6999999881,7132,VNB,B,13
14,test,4,0.0,1-Back,1,m,Wed Apr 23 2025 08:46:06 GMT-0500 (Central Daylight Time),277061.39999997616,020_y_f_h_a.png,O,m,560,15,1,1575.8999999761581,275485.5,7132,VNB,B,14
15,test,4,1.0,1-Back,1,z,Wed Apr 23 2025 08:46:06 GMT-0500 (Central Daylight Time),278511.1999999881,007_m_m_h_a.png,O,z,408,16,1,1425.199999988079,277086.0,7132,VNB,B,15
16,test,4,0.0,1-Back,1,m,Wed Apr 23 2025 08:46:06 GMT-0500 (Central Daylight Time),280310.60000002384,004_o_m_n_a.png,O,m,758,17,1,1774.0,278536.60000002384,7132,VNB,B,16
17,test,4,1.0,1-Back,1,z,Wed Apr 23 2025 08:46:06 GMT-0500 (Central Daylight Time),282361.8000000119,016_y_m_n_a.png,O,z,1006,18,1,2026.9000000357628,280334.89999997616,7132,VNB,B,17
0,test,5,1.0,1-Back,,,Wed Apr 23 2025 08:46:06 GMT-0500 (Central Daylight Time),282361.8000000119,004_o_m_n_a.png,O,space,1388,1,1,2026.9000000357628,280334.89999997616,7132,VNB,B,0
1,test,5,1.0,1-Back,1,m,Wed Apr 23 2025 08:46:06 GMT-0500 (Central Daylight Time),287427.0,005_o_f_h_a.png,O,m,633,2,1,1643.8999999761581,285783.10000002384,7132,VNB,B,1
2,test,5,0.0,1-Back,1,m,Wed Apr 23 2025 08:46:06 GMT-0500 (Central Daylight Time),289059.5,016_y_m_d_a.png,O,m,600,3,1,1608.3999999761581,287451.10000002384,7132,VNB,B,2
3,test,5,0.0,1-Back,1,z,Wed Apr 23 2025 08:46:06 GMT-0500 (Central Daylight Time),290589.8000000119,004_o_m_d_a.png,O,z,492,4,1,1507.800000011921,289082.0,7132,VNB,B,3
4,test,5,0.0,1-Back,1,m,Wed Apr 23 2025 08:46:06 GMT-0500 (Central Daylight Time),292173.89999997616,011_m_f_h_a.png,O,m,535,5,1,1559.2999999523163,290614.60000002384,7132,VNB,B,4
5,test,5,0.0,1-Back,1,m,Wed Apr 23 2025 08:46:06 GMT-0500 (Central Daylight Time),293772.10000002384,020_y_f_n_a.png,O,m,560,6,1,1574.2000000476837,292197.89999997616,7132,VNB,B,5
6,test,5,1.0,1-Back,1,z,Wed Apr 23 2025 08:46:06 GMT-0500 (Central Daylight Time),295423.1999999881,005_o_f_n_a.png,O,z,600,7,1,1627.0,293796.1999999881,7132,VNB,B,6
7,test,5,0.0,1-Back,1,m,Wed Apr 23 2025 08:46:06 GMT-0500 (Central Daylight Time),297089.3000000119,011_m_f_d_a.png,O,m,622,8,1,1642.300000011921,295447.0,7132,VNB,B,7
8,test,5,0.0,1-Back,1,m,Wed Apr 23 2025 08:46:06 GMT-0500 (Central Daylight Time),298956.39999997616,016_y_m_h_a.png,O,m,833,9,1,1842.7999999523163,297113.60000002384,7132,VNB,B,8
9,test,5,0.0,1-Back,1,m,Wed Apr 23 2025 08:46:06 GMT-0500 (Central Daylight Time),300570.1999999881,020_y_f_d_a.png,O,m,571,10,1,1590.3999999761581,298979.8000000119,7132,VNB,B,9
10,test,5,0.0,1-Back,1,m,Wed Apr 23 2025 08:46:06 GMT-0500 (Central Daylight Time),302187.39999997616,007_m_m_n_a.png,O,m,579,11,1,1593.2999999523163,300594.10000002384,7132,VNB,B,10
11,test,5,1.0,1-Back,1,z,Wed Apr 23 2025 08:46:06 GMT-0500 (Central Daylight Time),303820.60000002384,011_m_f_n_a.png,O,z,587,12,1,1606.800000011921,302213.8000000119,7132,VNB,B,11
12,test,5,0.0,1-Back,1,m,Wed Apr 23 2025 08:46:06 GMT-0500 (Central Daylight Time),305336.39999997616,004_o_m_h_a.png,O,m,475,13,1,1490.2999999523163,303846.10000002384,7132,VNB,B,12
13,test,5,0.0,1-Back,1,z,Wed Apr 23 2025 08:46:06 GMT-0500 (Central Daylight Time),306986.39999997616,007_m_m_h_a.png,O,z,606,14,1,1627.2999999523163,305359.10000002384,7132,VNB,B,13
14,test,5,1.0,1-Back,1,m,Wed Apr 23 2025 08:46:06 GMT-0500 (Central Daylight Time),308601.60000002384,005_o_f_d_a.png,O,m,573,15,1,1592.4000000357628,307009.1999999881,7132,VNB,B,14
15,test,5,0.0,1-Back,1,m,Wed Apr 23 2025 08:46:06 GMT-0500 (Central Daylight Time),310185.0,016_y_m_n_a.png,O,m,541,16,1,1559.1000000238419,308625.89999997616,7132,VNB,B,15
16,test,5,0.0,1-Back,1,m,Wed Apr 23 2025 08:46:06 GMT-0500 (Central Daylight Time),311835.10000002384,020_y_f_h_a.png,O,m,616,17,1,1626.4000000357628,310208.6999999881,7132,VNB,B,16
17,test,5,0.0,1-Back,1,m,Wed Apr 23 2025 08:46:06 GMT-0500 (Central Daylight Time),313585.1999999881,007_m_m_d_a.png,O,m,716,18,1,1725.699999988079,311859.5,7132,VNB,B,17
0,prac,1,0.0,2-Back,,,Wed Apr 23 2025 08:46:06 GMT-0500 (Central Daylight Time),313585.1999999881,011_m_f_n_a.png,O,space,3498,1,1,1725.699999988079,311859.5,7132,VNB,B,0
0,prac,1,0.0,2-Back,,,Wed Apr 23 2025 08:46:06 GMT-0500 (Central Daylight Time),313585.1999999881,005_o_f_h_a.png,O,space,3498,2,1,1725.699999988079,311859.5,7132,VNB,B,0
1,prac,1,0.0,2-Back,1,m,Wed Apr 23 2025 08:46:06 GMT-0500 (Central Daylight Time),405738.60000002384,004_o_m_d_a.png,O,m,1112,3,1,1973.800000011921,403764.8000000119,7132,VNB,B,1
1,prac,1,1.0,2-Back,0,z,Wed Apr 23 2025 08:46:06 GMT-0500 (Central Daylight Time),408487.1999999881,007_m_m_h_a.png,O,m,1842,4,1,2723.800000011921,405763.39999997616,7132,VNB,B,2
2,prac,1,0.0,2-Back,1,m,Wed Apr 23 2025 08:46:06 GMT-0500 (Central Daylight Time),410304.0,020_y_f_n_a.png,O,m,940,5,1,1791.6000000238419,408512.39999997616,7132,VNB,B,3
3,prac,1,1.0,2-Back,1,z,Wed Apr 23 2025 08:46:06 GMT-0500 (Central Daylight Time),412684.6999999881,004_o_m_h_a.png,O,z,1494,6,1,2357.199999988079,410327.5,7132,VNB,B,4
4,prac,1,1.0,2-Back,1,z,Wed Apr 23 2025 08:46:06 GMT-0500 (Central Daylight Time),414951.8000000119,016_y_m_n_a.png,O,z,1362,7,1,2242.0,412709.8000000119,7132,VNB,B,5
5,prac,1,0.0,2-Back,1,m,Wed Apr 23 2025 08:46:06 GMT-0500 (Central Daylight Time),416784.39999997616,011_m_f_d_a.png,O,m,943,8,1,1809.0999999642372,414975.3000000119,7132,VNB,B,6
6,prac,1,0.0,2-Back,1,m,Wed Apr 23 2025 08:46:06 GMT-0500 (Central Daylight Time),418517.6999999881,005_o_f_d_a.png,O,m,823,9,1,1709.0999999642372,416808.60000002384,7132,VNB,B,7
7,prac,1,0.0,2-Back,1,m,Wed Apr 23 2025 08:46:06 GMT-0500 (Central Daylight Time),420334.0,007_m_m_h_a.png,O,m,1017,10,1,1791.1000000238419,418542.89999997616,7132,VNB,B,8
8,prac,1,1.0,2-Back,1,z,Wed Apr 23 2025 08:46:06 GMT-0500 (Central Daylight Time),423016.5,020_y_f_d_a.png,O,z,1803,11,1,2655.899999976158,420360.60000002384,7132,VNB,B,9
9,prac,1,0.0,2-Back,1,m,Wed Apr 23 2025 08:46:06 GMT-0500 (Central Daylight Time),424767.1999999881,004_o_m_n_a.png,O,m,878,12,1,1724.8999999761581,423042.3000000119,7132,VNB,B,10
0,test,1,0.0,2-Back,,,Wed Apr 23 2025 08:46:06 GMT-0500 (Central Daylight Time),424767.1999999881,016_y_m_h_a.png,O,space,5108,1,1,1724.8999999761581,423042.3000000119,7132,VNB,B,0
0,test,1,0.0,2-Back,,,Wed Apr 23 2025 08:46:06 GMT-0500 (Central Daylight Time),424767.1999999881,005_o_f_n_a.png,O,space,5108,2,1,1724.8999999761581,423042.3000000119,7132,VNB,B,0
1,test,1,0.0,2-Back,1,z,Wed Apr 23 2025 08:46:06 GMT-0500 (Central Daylight Time),442977.6999999881,004_o_m_h_a.png,O,z,574,3,1,1592.0,441385.6999999881,7132,VNB,B,1
2,test,1,0.0,2-Back,1,m,Wed Apr 23 2025 08:46:06 GMT-0500 (Central Daylight Time),444974.6999999881,011_m_f_d_a.png,O,m,958,4,1,1973.0999999642372,443001.60000002384,7132,VNB,B,2
3,test,1,1.0,2-Back,1,m,Wed Apr 23 2025 08:46:06 GMT-0500 (Central Daylight Time),447055.60000002384,016_y_m_n_a.png,O,m,1038,5,1,2058.2000000476837,444997.39999997616,7132,VNB,B,3
4,test,1,0.0,2-Back,1,z,Wed Apr 23 2025 08:46:06 GMT-0500 (Central Daylight Time),448858.1999999881,020_y_f_d_a.png,O,z,767,6,1,1781.3999999761581,447076.8000000119,7132,VNB,B,4
5,test,1,0.0,2-Back,1,m,Wed Apr 23 2025 08:46:06 GMT-0500 (Central Daylight Time),450790.5,007_m_m_h_a.png,O,m,893,7,1,1906.199999988079,448884.3000000119,7132,VNB,B,5
6,test,1,1.0,2-Back,1,m,Wed Apr 23 2025 08:46:06 GMT-0500 (Central Daylight Time),452656.1999999881,020_y_f_n_a.png,O,m,824,8,1,1841.5,450814.6999999881,7132,VNB,B,6
7,test,1,0.0,2-Back,1,z,Wed Apr 23 2025 08:46:06 GMT-0500 (Central Daylight Time),454807.8000000119,005_o_f_h_a.png,O,z,1108,9,1,2127.199999988079,452680.60000002384,7132,VNB,B,7
8,test,1,0.0,2-Back,1,m,Wed Apr 23 2025 08:46:06 GMT-0500 (Central Daylight Time),456855.89999997616,004_o_m_d_a.png,O,m,1016,10,1,2023.699999988079,454832.1999999881,7132,VNB,B,8
9,test,1,1.0,2-Back,1,m,Wed Apr 23 2025 08:46:06 GMT-0500 (Central Daylight Time),459453.89999997616,007_m_m_d_a.png,O,m,1560,11,1,2573.7999999523163,456880.10000002384,7132,VNB,B,9
10,test,1,0.0,2-Back,1,m,Wed Apr 23 2025 08:46:06 GMT-0500 (Central Daylight Time),461420.1999999881,011_m_f_n_a.png,O,m,920,12,1,1940.5999999642372,459479.60000002384,7132,VNB,B,10
11,test,1,0.0,2-Back,1,m,Wed Apr 23 2025 08:46:06 GMT-0500 (Central Daylight Time),463319.60000002384,020_y_f_h_a.png,O,m,850,13,1,1874.800000011921,461444.8000000119,7132,VNB,B,11
12,test,1,0.0,2-Back,1,z,Wed Apr 23 2025 08:46:06 GMT-0500 (Central Daylight Time),464835.1999999881,007_m_m_n_a.png,O,z,470,14,1,1491.0999999642372,463344.10000002384,7132,VNB,B,12
13,test,1,0.0,2-Back,1,m,Wed Apr 23 2025 08:46:06 GMT-0500 (Central Daylight Time),466733.60000002384,016_y_m_d_a.png,O,m,850,15,1,1873.5,464860.10000002384,7132,VNB,B,13
14,test,1,1.0,2-Back,1,m,Wed Apr 23 2025 08:46:06 GMT-0500 (Central Daylight Time),468734.89999997616,011_m_f_h_a.png,O,m,952,16,1,1977.699999988079,466757.1999999881,7132,VNB,B,14
15,test,1,0.0,2-Back,1,z,Wed Apr 23 2025 08:46:06 GMT-0500 (Central Daylight Time),471017.6999999881,005_o_f_d_a.png,O,z,1248,17,1,2258.300000011921,468759.39999997616,7132,VNB,B,15
16,test,1,0.0,2-Back,1,m,Wed Apr 23 2025 08:46:06 GMT-0500 (Central Daylight Time),472866.39999997616,004_o_m_n_a.png,O,m,806,18,1,1829.699999988079,471036.6999999881,7132,VNB,B,16
0,test,2,0.0,2-Back,,,Wed Apr 23 2025 08:46:06 GMT-0500 (Central Daylight Time),472866.39999997616,007_m_m_h_a.png,O,space,1508,1,1,1829.699999988079,471036.6999999881,7132,VNB,B,0
0,test,2,0.0,2-Back,,,Wed Apr 23 2025 08:46:06 GMT-0500 (Central Daylight Time),472866.39999997616,020_y_f_n_a.png,O,space,1508,2,1,1829.699999988079,471036.6999999881,7132,VNB,B,0
1,test,2,1.0,2-Back,1,z,Wed Apr 23 2025 08:46:06 GMT-0500 (Central Daylight Time),481297.5,005_o_f_h_a.png,O,z,640,3,1,1659.699999988079,479637.8000000119,7132,VNB,B,1
2,test,2,0.0,2-Back,1,m,Wed Apr 23 2025 08:46:06 GMT-0500 (Central Daylight Time),483113.60000002384,004_o_m_d_a.png,O,m,771,4,1,1791.6000000238419,481322.0,7132,VNB,B,2
3,test,2,0.0,2-Back,1,m,Wed Apr 23 2025 08:46:06 GMT-0500 (Central Daylight Time),485212.10000002384,011_m_f_d_a.png,O,m,1053,5,1,2073.300000011921,483138.8000000119,7132,VNB,B,3
4,test,2,0.0,2-Back,1,m,Wed Apr 23 2025 08:46:06 GMT-0500 (Central Daylight Time),486995.89999997616,016_y_m_h_a.png,O,m,732,6,1,1759.5,485236.39999997616,7132,VNB,B,4
5,test,2,0.0,2-Back,1,m,Wed Apr 23 2025 08:46:06 GMT-0500 (Central Daylight Time),488845.39999997616,005_o_f_n_a.png,O,m,810,7,1,1826.2999999523163,487019.10000002384,7132,VNB,B,5
6,test,2,1.0,2-Back,1,z,Wed Apr 23 2025 08:46:06 GMT-0500 (Central Daylight Time),490344.89999997616,004_o_m_h_a.png,O,z,456,8,1,1474.5,488870.39999997616,7132,VNB,B,6
6,test,2,0.0,2-Back,0,m,Wed Apr 23 2025 08:46:06 GMT-0500 (Central Daylight Time),492510.60000002384,020_y_f_d_a.png,O,z,1118,9,1,2142.600000023842,490368.0,7132,VNB,B,7
7,test,2,0.0,2-Back,1,m,Wed Apr 23 2025 08:46:06 GMT-0500 (Central Daylight Time),494560.6999999881,016_y_m_d_a.png,O,m,1007,10,1,2028.0999999642372,492532.60000002384,7132,VNB,B,8
8,test,2,0.0,2-Back,1,m,Wed Apr 23 2025 08:46:06 GMT-0500 (Central Daylight Time),496475.6999999881,007_m_m_n_a.png,O,m,871,11,1,1888.699999988079,494587.0,7132,VNB,B,9
9,test,2,0.0,2-Back,1,m,Wed Apr 23 2025 08:46:06 GMT-0500 (Central Daylight Time),498192.39999997616,011_m_f_h_a.png,O,m,682,12,1,1691.699999988079,496500.6999999881,7132,VNB,B,10
10,test,2,1.0,2-Back,1,z,Wed Apr 23 2025 08:46:06 GMT-0500 (Central Daylight Time),499790.10000002384,004_o_m_n_a.png,O,z,552,13,1,1574.0,498216.10000002384,7132,VNB,B,11
11,test,2,0.0,2-Back,1,m,Wed Apr 23 2025 08:46:06 GMT-0500 (Central Daylight Time),501792.3000000119,005_o_f_d_a.png,O,m,965,14,1,1976.5,499815.8000000119,7132,VNB,B,12
12,test,2,0.0,2-Back,1,m,Wed Apr 23 2025 08:46:06 GMT-0500 (Central Daylight Time),503958.3000000119,020_y_f_h_a.png,O,m,1134,15,1,2141.900000035763,501816.39999997616,7132,VNB,B,13
13,test,2,0.0,2-Back,1,z,Wed Apr 23 2025 08:46:06 GMT-0500 (Central Daylight Time),506276.3000000119,007_m_m_d_a.png,O,z,1280,16,1,2295.800000011921,503980.5,7132,VNB,B,14
14,test,2,0.0,2-Back,1,m,Wed Apr 23 2025 08:46:06 GMT-0500 (Central Daylight Time),508121.89999997616,016_y_m_n_a.png,O,m,805,17,1,1823.2999999523163,506298.60000002384,7132,VNB,B,15
15,test,2,1.0,2-Back,1,m,Wed Apr 23 2025 08:46:06 GMT-0500 (Central Daylight Time),510186.5,011_m_f_n_a.png,O,m,1028,18,1,2040.5,508146.0,7132,VNB,B,16
0,test,3,1.0,2-Back,,,Wed Apr 23 2025 08:46:06 GMT-0500 (Central Daylight Time),510186.5,004_o_m_n_a.png,O,space,2692,1,1,2040.5,508146.0,7132,VNB,B,0
0,test,3,1.0,2-Back,,,Wed Apr 23 2025 08:46:06 GMT-0500 (Central Daylight Time),510186.5,005_o_f_d_a.png,O,space,2692,2,1,2040.5,508146.0,7132,VNB,B,0
1,test,3,0.0,2-Back,1,m,Wed Apr 23 2025 08:46:06 GMT-0500 (Central Daylight Time),519602.10000002384,020_y_f_h_a.png,O,m,650,3,1,1676.0,517926.10000002384,7132,VNB,B,1
2,test,3,0.0,2-Back,1,z,Wed Apr 23 2025 08:46:06 GMT-0500 (Central Daylight Time),521351.89999997616,011_m_f_d_a.png,O,z,700,4,1,1727.8999999761581,519624.0,7132,VNB,B,2
3,test,3,1.0,2-Back,1,m,Wed Apr 23 2025 08:46:06 GMT-0500 (Central Daylight Time),523149.5,016_y_m_n_a.png,O,m,751,5,1,1772.300000011921,521377.1999999881,7132,VNB,B,3
4,test,3,0.0,2-Back,1,m,Wed Apr 23 2025 08:46:06 GMT-0500 (Central Daylight Time),525099.5,004_o_m_h_a.png,O,m,902,6,1,1926.5,523173.0,7132,VNB,B,4
5,test,3,0.0,2-Back,1,z,Wed Apr 23 2025 08:46:06 GMT-0500 (Central Daylight Time),526615.6000000238,020_y_f_n_a.png,O,z,477,7,1,1491.2000000476837,525124.3999999762,7132,VNB,B,5
6,test,3,1.0,2-Back,1,m,Wed Apr 23 2025 08:46:06 GMT-0500 (Central Daylight Time),528314.5,007_m_m_d_a.png,O,m,654,8,1,1674.1000000238419,526640.3999999762,7132,VNB,B,6
7,test,3,0.0,2-Back,1,m,Wed Apr 23 2025 08:46:06 GMT-0500 (Central Daylight Time),530130.6999999881,016_y_m_d_a.png,O,m,781,9,1,1793.3999999761581,528337.3000000119,7132,VNB,B,7
8,test,3,0.0,2-Back,1,m,Wed Apr 23 2025 08:46:06 GMT-0500 (Central Daylight Time),532063.8999999762,005_o_f_h_a.png,O,m,890,10,1,1912.0999999642372,530151.8000000119,7132,VNB,B,8
9,test,3,1.0,2-Back,1,m,Wed Apr 23 2025 08:46:06 GMT-0500 (Central Daylight Time),533947.5,011_m_f_n_a.png,O,m,848,11,1,1861.5,532086.0,7132,VNB,B,9
10,test,3,1.0,2-Back,1,z,Wed Apr 23 2025 08:46:06 GMT-0500 (Central Daylight Time),535596.3999999762,007_m_m_h_a.png,O,z,602,12,1,1625.2999999523163,533971.1000000238,7132,VNB,B,10
10,test,3,0.0,2-Back,0,m,Wed Apr 23 2025 08:46:06 GMT-0500 (Central Daylight Time),538079.1999999881,020_y_f_d_a.png,O,z,1434,13,1,2460.399999976158,535618.8000000119,7132,VNB,B,11
11,test,3,0.0,2-Back,1,m,Wed Apr 23 2025 08:46:06 GMT-0500 (Central Daylight Time),540045.6000000238,005_o_f_n_a.png,O,m,919,14,1,1942.4000000357628,538103.1999999881,7132,VNB,B,12
12,test,3,0.0,2-Back,1,z,Wed Apr 23 2025 08:46:06 GMT-0500 (Central Daylight Time),541928.5,004_o_m_d_a.png,O,z,834,15,1,1858.199999988079,540070.3000000119,7132,VNB,B,13
13,test,3,1.0,2-Back,1,m,Wed Apr 23 2025 08:46:06 GMT-0500 (Central Daylight Time),543744.5,011_m_f_h_a.png,O,m,774,16,1,1791.199999988079,541953.3000000119,7132,VNB,B,14
14,test,3,0.0,2-Back,1,m,Wed Apr 23 2025 08:46:06 GMT-0500 (Central Daylight Time),545493.1999999881,007_m_m_n_a.png,O,m,702,17,1,1725.0999999642372,543768.1000000238,7132,VNB,B,15
15,test,3,0.0,2-Back,1,z,Wed Apr 23 2025 08:46:06 GMT-0500 (Central Daylight Time),547092.6000000238,016_y_m_h_a.png,O,z,552,18,1,1575.9000000357628,545516.6999999881,7132,VNB,B,16
0,test,4,0.0,2-Back,,,Wed Apr 23 2025 08:46:06 GMT-0500 (Central Daylight Time),547092.6000000238,011_m_f_n_a.png,O,space,1396,1,1,1575.9000000357628,545516.6999999881,7132,VNB,B,0
0,test,4,0.0,2-Back,,,Wed Apr 23 2025 08:46:06 GMT-0500 (Central Daylight Time),547092.6000000238,004_o_m_n_a.png,O,space,1396,2,1,1575.9000000357628,545516.6999999881,7132,VNB,B,0
1,test,4,1.0,2-Back,1,m,Wed Apr 23 2025 08:46:06 GMT-0500 (Central Daylight Time),555589.3999999762,016_y_m_h_a.png,O,m,853,3,1,1874.0,553715.3999999762,7132,VNB,B,1
2,test,4,1.0,2-Back,1,m,Wed Apr 23 2025 08:46:06 GMT-0500 (Central Daylight Time),557290.1999999881,005_o_f_d_a.png,O,m,665,4,1,1679.300000011921,555610.8999999762,7132,VNB,B,2
3,test,4,0.0,2-Back,1,z,Wed Apr 23 2025 08:46:06 GMT-0500 (Central Daylight Time),558821.8000000119,004_o_m_h_a.png,O,z,493,5,1,1508.5,557313.3000000119,7132,VNB,B,3
4,test,4,0.0,2-Back,1,m,Wed Apr 23 2025 08:46:06 GMT-0500 (Central Daylight Time),560738.1999999881,007_m_m_n_a.png,O,m,870,6,1,1891.5,558846.6999999881,7132,VNB,B,4
5,test,4,0.0,2-Back,1,m,Wed Apr 23 2025 08:46:06 GMT-0500 (Central Daylight Time),562554.8000000119,011_m_f_d_a.png,O,m,772,7,1,1793.699999988079,560761.1000000238,7132,VNB,B,5
6,test,4,0.0,2-Back,1,z,Wed Apr 23 2025 08:46:06 GMT-0500 (Central Daylight Time),564237.6000000238,020_y_f_n_a.png,O,z,645,8,1,1657.7000000476837,562579.8999999762,7132,VNB,B,6
7,test,4,1.0,2-Back,1,m,Wed Apr 23 2025 08:46:06 GMT-0500 (Central Daylight Time),566004.1999999881,005_o_f_h_a.png,O,m,732,9,1,1742.5999999642372,564261.6000000238,7132,VNB,B,7
8,test,4,0.0,2-Back,1,m,Wed Apr 23 2025 08:46:06 GMT-0500 (Central Daylight Time),568202.1000000238,007_m_m_h_a.png,O,m,1165,10,1,2172.400000035763,566029.6999999881,7132,VNB,B,8
9,test,4,0.0,2-Back,1,m,Wed Apr 23 2025 08:46:06 GMT-0500 (Central Daylight Time),570883.6999999881,020_y_f_d_a.png,O,m,1635,11,1,2657.399999976158,568226.3000000119,7132,VNB,B,9
10,test,4,0.0,2-Back,1,m,Wed Apr 23 2025 08:46:06 GMT-0500 (Central Daylight Time),573034.8999999762,016_y_m_n_a.png,O,m,1114,12,1,2127.599999964237,570907.3000000119,7132,VNB,B,10
11,test,4,0.0,2-Back,1,z,Wed Apr 23 2025 08:46:06 GMT-0500 (Central Daylight Time),574684.6999999881,004_o_m_d_a.png,O,z,603,13,1,1625.5999999642372,573059.1000000238,7132,VNB,B,11
12,test,4,1.0,2-Back,1,m,Wed Apr 23 2025 08:46:06 GMT-0500 (Central Daylight Time),576368.1000000238,011_m_f_h_a.png,O,m,642,14,1,1659.2000000476837,574708.8999999762,7132,VNB,B,12
13,test,4,1.0,2-Back,1,m,Wed Apr 23 2025 08:46:06 GMT-0500 (Central Daylight Time),578667.0,020_y_f_h_a.png,O,m,1265,15,1,2274.100000023842,576392.8999999762,7132,VNB,B,13
14,test,4,0.0,2-Back,1,m,Wed Apr 23 2025 08:46:06 GMT-0500 (Central Daylight Time),580448.3000000119,005_o_f_n_a.png,O,m,748,16,1,1756.6000000238419,578691.6999999881,7132,VNB,B,14
15,test,4,0.0,2-Back,1,m,Wed Apr 23 2025 08:46:06 GMT-0500 (Central Daylight Time),582465.3999999762,016_y_m_d_a.png,O,m,981,17,1,1994.699999988079,580470.6999999881,7132,VNB,B,15
16,test,4,1.0,2-Back,1,m,Wed Apr 23 2025 08:46:06 GMT-0500 (Central Daylight Time),584232.6000000238,007_m_m_d_a.png,O,m,732,18,1,1743.2000000476837,582489.3999999762,7132,VNB,B,16
0,test,5,1.0,2-Back,,,Wed Apr 23 2025 08:46:06 GMT-0500 (Central Daylight Time),584232.6000000238,020_y_f_d_a.png,O,space,967,1,1,1743.2000000476837,582489.3999999762,7132,VNB,B,0
0,test,5,1.0,2-Back,,,Wed Apr 23 2025 08:46:06 GMT-0500 (Central Daylight Time),584232.6000000238,005_o_f_h_a.png,O,space,967,2,1,1743.2000000476837,582489.3999999762,7132,VNB,B,0
1,test,5,1.0,2-Back,1,z,Wed Apr 23 2025 08:46:06 GMT-0500 (Central Daylight Time),592145.8000000119,004_o_m_d_a.png,O,z,665,3,1,1675.300000011921,590470.5,7132,VNB,B,1
2,test,5,1.0,2-Back,1,m,Wed Apr 23 2025 08:46:06 GMT-0500 (Central Daylight Time),593911.6999999881,011_m_f_n_a.png,O,m,718,4,1,1741.199999988079,592170.5,7132,VNB,B,2
3,test,5,0.0,2-Back,1,m,Wed Apr 23 2025 08:46:06 GMT-0500 (Central Daylight Time),595643.8999999762,007_m_m_h_a.png,O,m,687,5,1,1708.699999988079,593935.1999999881,7132,VNB,B,3
4,test,5,0.0,2-Back,1,z,Wed Apr 23 2025 08:46:06 GMT-0500 (Central Daylight Time),597162.1999999881,020_y_f_n_a.png,O,z,483,6,1,1496.0999999642372,595666.1000000238,7132,VNB,B,4
5,test,5,0.0,2-Back,1,m,Wed Apr 23 2025 08:46:06 GMT-0500 (Central Daylight Time),599076.6999999881,005_o_f_d_a.png,O,m,869,7,1,1889.5,597187.1999999881,7132,VNB,B,5
6,test,5,0.0,2-Back,1,m,Wed Apr 23 2025 08:46:06 GMT-0500 (Central Daylight Time),601175.6999999881,004_o_m_h_a.png,O,m,1057,8,1,2074.699999988079,599101.0,7132,VNB,B,6
6,test,5,1.0,2-Back,0,z,Wed Apr 23 2025 08:46:06 GMT-0500 (Central Daylight Time),603143.0,011_m_f_d_a.png,O,m,919,9,1,1944.3999999761581,601198.6000000238,7132,VNB,B,7
7,test,5,0.0,2-Back,1,m,Wed Apr 23 2025 08:46:06 GMT-0500 (Central Daylight Time),604909.1000000238,016_y_m_n_a.png,O,m,721,10,1,1742.6000000238419,603166.5,7132,VNB,B,8
8,test,5,0.0,2-Back,1,m,Wed Apr 23 2025 08:46:06 GMT-0500 (Central Daylight Time),607175.6999999881,007_m_m_n_a.png,O,m,1227,11,1,2241.699999988079,604934.0,7132,VNB,B,9
9,test,5,0.0,2-Back,1,m,Wed Apr 23 2025 08:46:06 GMT-0500 (Central Daylight Time),609088.3000000119,020_y_f_h_a.png,O,m,880,12,1,1888.4000000357628,607199.8999999762,7132,VNB,B,10
10,test,5,0.0,2-Back,1,m,Wed Apr 23 2025 08:46:06 GMT-0500 (Central Daylight Time),610839.6000000238,016_y_m_d_a.png,O,m,701,13,1,1731.2000000476837,609108.3999999762,7132,VNB,B,11
11,test,5,1.0,2-Back,1,z,Wed Apr 23 2025 08:46:06 GMT-0500 (Central Daylight Time),612491.1999999881,011_m_f_h_a.png,O,z,618,14,1,1626.300000011921,610864.8999999762,7132,VNB,B,12
12,test,5,0.0,2-Back,1,m,Wed Apr 23 2025 08:46:06 GMT-0500 (Central Daylight Time),615206.0,004_o_m_n_a.png,O,m,1670,15,1,2691.899999976158,612514.1000000238,7132,VNB,B,13
13,test,5,0.0,2-Back,1,m,Wed Apr 23 2025 08:46:06 GMT-0500 (Central Daylight Time),617287.1000000238,007_m_m_d_a.png,O,m,1044,16,1,2056.600000023842,615230.5,7132,VNB,B,14
14,test,5,0.0,2-Back,1,z,Wed Apr 23 2025 08:46:06 GMT-0500 (Central Daylight Time),619419.5,005_o_f_n_a.png,O,z,1094,17,1,2108.0,617311.5,7132,VNB,B,15
15,test,5,1.0,2-Back,1,m,Wed Apr 23 2025 08:46:06 GMT-0500 (Central Daylight Time),621268.1000000238,016_y_m_h_a.png,O,m,810,18,1,1824.1000000238419,619444.0,7132,VNB,B,16
