acc_sum,block,block_c,change,condition,correct,correct_response,datetime,endtime,face,project,response,response_time,row_sel,session_number,start_end,starttime,subject_id,task,task_vers,trial
0,prac,1,,1-Back,,,Thu Apr 17 2025 10:23:09 GMT-0500 (Central Daylight Time),,050_m_f_n_a.png,O,space,5502,1,1,,,7128,NNB,A,0
1,prac,1,0.0,1-Back,1,m,Thu Apr 17 2025 10:23:09 GMT-0500 (Central Daylight Time),92998.59999999404,063_y_f_n_a.png,O,m,649,2,1,1457.7999999970198,91540.79999999702,7128,NNB,A,1
2,prac,1,1.0,1-Back,1,z,Thu Apr 17 2025 10:23:09 GMT-0500 (Central Daylight Time),94664.89999999851,063_y_f_n_a.png,O,z,889,3,1,1659.0,93005.89999999851,7128,NNB,A,2
3,prac,1,0.0,1-Back,1,m,Thu Apr 17 2025 10:23:09 GMT-0500 (Central Daylight Time),96431.0,053_o_m_n_a.png,O,m,958,4,1,1758.8000000044703,94672.19999999553,7128,NNB,A,3
4,prac,1,0.0,1-Back,1,m,Thu Apr 17 2025 10:23:09 GMT-0500 (Central Daylight Time),98013.69999999553,058_m_m_n_a.png,O,m,767,5,1,1575.7999999970198,96437.89999999851,7128,NNB,A,4
5,prac,1,1.0,1-Back,1,z,Thu Apr 17 2025 10:23:09 GMT-0500 (Central Daylight Time),99596.59999999404,058_m_m_n_a.png,O,z,802,6,1,1575.3999999985099,98021.19999999553,7128,NNB,A,5
6,prac,1,0.0,1-Back,1,m,Thu Apr 17 2025 10:23:09 GMT-0500 (Central Daylight Time),101346.0,047_o_f_n_a.png,O,m,964,7,1,1742.8000000044703,99603.19999999553,7128,NNB,A,6
7,prac,1,0.0,1-Back,1,m,Thu Apr 17 2025 10:23:09 GMT-0500 (Central Daylight Time),103095.5,045_m_m_n_a.png,O,m,966,8,1,1742.2000000029802,101353.29999999702,7128,NNB,A,7
8,prac,1,0.0,1-Back,1,m,Thu Apr 17 2025 10:23:09 GMT-0500 (Central Daylight Time),105161.39999999851,050_m_f_n_a.png,O,m,1281,9,1,2058.60000000149,103102.79999999702,7128,NNB,A,8
9,prac,1,1.0,1-Back,1,z,Thu Apr 17 2025 10:23:09 GMT-0500 (Central Daylight Time),106627.69999999553,050_m_f_n_a.png,O,z,680,10,1,1459.6999999955297,105168.0,7128,NNB,A,9
10,prac,1,0.0,1-Back,1,m,Thu Apr 17 2025 10:23:09 GMT-0500 (Central Daylight Time),108110.59999999404,053_o_m_n_a.png,O,m,693,11,1,1475.5999999940395,106635.0,7128,NNB,A,10
11,prac,1,0.0,1-Back,1,m,Thu Apr 17 2025 10:23:09 GMT-0500 (Central Daylight Time),110093.19999999553,010_y_f_n_a.png,O,m,1140,12,1,1975.1000000014901,108118.09999999404,7128,NNB,A,11
0,test,1,0.0,1-Back,,,Thu Apr 17 2025 10:23:09 GMT-0500 (Central Daylight Time),110093.19999999553,063_y_f_n_a.png,O,space,7534,1,1,1975.1000000014901,108118.09999999404,7128,NNB,A,0
1,test,1,0.0,1-Back,1,m,Thu Apr 17 2025 10:23:09 GMT-0500 (Central Daylight Time),127604.59999999404,043_m_f_n_a.png,O,m,578,2,1,1593.0999999940395,126011.5,7128,NNB,A,1
2,test,1,0.0,1-Back,1,m,Thu Apr 17 2025 10:23:09 GMT-0500 (Central Daylight Time),129520.39999999851,010_y_f_n_a.png,O,m,891,3,1,1910.0,127610.39999999851,7128,NNB,A,2
3,test,1,1.0,1-Back,1,z,Thu Apr 17 2025 10:23:09 GMT-0500 (Central Daylight Time),131153.29999999702,010_y_f_n_a.png,O,z,607,4,1,1626.7999999970198,129526.5,7128,NNB,A,3
4,test,1,0.0,1-Back,1,m,Thu Apr 17 2025 10:23:09 GMT-0500 (Central Daylight Time),132852.69999999553,043_m_f_n_a.png,O,m,670,5,1,1693.2999999970198,131159.3999999985,7128,NNB,A,4
5,test,1,0.0,1-Back,1,m,Thu Apr 17 2025 10:23:09 GMT-0500 (Central Daylight Time),134635.5,053_o_m_n_a.png,O,m,754,6,1,1776.6000000014901,132858.8999999985,7128,NNB,A,5
6,test,1,1.0,1-Back,1,z,Thu Apr 17 2025 10:23:09 GMT-0500 (Central Daylight Time),136434.8999999985,053_o_m_n_a.png,O,z,772,7,1,1794.0,134640.8999999985,7128,NNB,A,6
7,test,1,0.0,1-Back,1,m,Thu Apr 17 2025 10:23:09 GMT-0500 (Central Daylight Time),138184.29999999702,058_m_m_n_a.png,O,m,724,8,1,1743.5,136440.79999999702,7128,NNB,A,7
8,test,1,0.0,1-Back,1,m,Thu Apr 17 2025 10:23:09 GMT-0500 (Central Daylight Time),139850.29999999702,047_o_f_n_a.png,O,m,639,9,1,1660.3999999985099,138189.8999999985,7128,NNB,A,8
9,test,1,0.0,1-Back,1,m,Thu Apr 17 2025 10:23:09 GMT-0500 (Central Daylight Time),141799.79999999702,058_m_m_n_a.png,O,m,917,10,1,1943.2000000029802,139856.59999999404,7128,NNB,A,9
10,test,1,0.0,1-Back,1,m,Thu Apr 17 2025 10:23:09 GMT-0500 (Central Daylight Time),143549.29999999702,041_y_m_n_a.png,O,m,719,11,1,1743.7000000029802,141805.59999999404,7128,NNB,A,10
11,test,1,1.0,1-Back,1,z,Thu Apr 17 2025 10:23:09 GMT-0500 (Central Daylight Time),145448.69999999553,041_y_m_n_a.png,O,z,882,12,1,1893.7999999970198,143554.8999999985,7128,NNB,A,11
12,test,1,0.0,1-Back,1,m,Thu Apr 17 2025 10:23:09 GMT-0500 (Central Daylight Time),147214.79999999702,044_o_f_n_a.png,O,m,734,13,1,1760.6000000014901,145454.19999999553,7128,NNB,A,12
13,test,1,1.0,1-Back,1,z,Thu Apr 17 2025 10:23:09 GMT-0500 (Central Daylight Time),149164.29999999702,044_o_f_n_a.png,O,z,928,14,1,1944.2000000029802,147220.09999999404,7128,NNB,A,13
14,test,1,0.0,1-Back,1,m,Thu Apr 17 2025 10:23:09 GMT-0500 (Central Daylight Time),150930.5,008_y_m_n_a.png,O,m,747,15,1,1759.9000000059605,149170.59999999404,7128,NNB,A,14
15,test,1,0.0,1-Back,1,m,Thu Apr 17 2025 10:23:09 GMT-0500 (Central Daylight Time),152846.3999999985,050_m_f_n_a.png,O,m,885,16,1,1910.2000000029802,150936.19999999553,7128,NNB,A,15
16,test,1,0.0,1-Back,1,m,Thu Apr 17 2025 10:23:09 GMT-0500 (Central Daylight Time),154462.59999999404,046_o_m_n_a.png,O,m,585,17,1,1610.2999999970198,152852.29999999702,7128,NNB,A,16
17,test,1,0.0,1-Back,1,m,Thu Apr 17 2025 10:23:09 GMT-0500 (Central Daylight Time),156345.19999999553,050_m_f_n_a.png,O,m,856,18,1,1876.0,154469.19999999553,7128,NNB,A,17
0,test,2,0.0,1-Back,,,Thu Apr 17 2025 10:23:09 GMT-0500 (Central Daylight Time),156345.19999999553,058_m_m_n_a.png,O,space,2318,1,1,1876.0,154469.19999999553,7128,NNB,A,0
1,test,2,0.0,1-Back,1,m,Thu Apr 17 2025 10:23:09 GMT-0500 (Central Daylight Time),162526.8999999985,043_m_f_n_a.png,O,m,809,2,1,1826.8000000044703,160700.09999999404,7128,NNB,A,1
1,test,2,1.0,1-Back,0,z,Thu Apr 17 2025 10:23:09 GMT-0500 (Central Daylight Time),165559.19999999553,043_m_f_n_a.png,O,None,2015,3,1,3026.6999999955297,162532.5,7128,NNB,A,2
1,test,2,0.0,1-Back,0,m,Thu Apr 17 2025 10:23:09 GMT-0500 (Central Daylight Time),168591.59999999404,058_m_m_n_a.png,O,None,2016,4,1,3026.0999999940395,165565.5,7128,NNB,A,3
2,test,2,0.0,1-Back,1,m,Thu Apr 17 2025 10:23:09 GMT-0500 (Central Daylight Time),170624.09999999404,041_y_m_n_a.png,O,m,1008,5,1,2025.7999999970198,168598.29999999702,7128,NNB,A,4
3,test,2,0.0,1-Back,1,m,Thu Apr 17 2025 10:23:09 GMT-0500 (Central Daylight Time),172606.8999999985,063_y_f_n_a.png,O,m,959,6,1,1977.0,170629.8999999985,7128,NNB,A,5
4,test,2,1.0,1-Back,1,z,Thu Apr 17 2025 10:23:09 GMT-0500 (Central Daylight Time),174456.5,063_y_f_n_a.png,O,z,823,7,1,1843.9000000059605,172612.59999999404,7128,NNB,A,6
5,test,2,0.0,1-Back,1,m,Thu Apr 17 2025 10:23:09 GMT-0500 (Central Daylight Time),176039.19999999553,041_y_m_n_a.png,O,m,551,8,1,1577.0,174462.19999999553,7128,NNB,A,7
6,test,2,0.0,1-Back,1,m,Thu Apr 17 2025 10:23:09 GMT-0500 (Central Daylight Time),177988.59999999404,044_o_f_n_a.png,O,m,928,9,1,1943.5999999940395,176045.0,7128,NNB,A,8
7,test,2,0.0,1-Back,1,m,Thu Apr 17 2025 10:23:09 GMT-0500 (Central Daylight Time),179688.0,045_m_m_n_a.png,O,m,667,10,1,1693.5,177994.5,7128,NNB,A,9
8,test,2,1.0,1-Back,1,z,Thu Apr 17 2025 10:23:09 GMT-0500 (Central Daylight Time),181604.0,045_m_m_n_a.png,O,z,887,11,1,1909.9000000059605,179694.09999999404,7128,NNB,A,10
9,test,2,0.0,1-Back,1,m,Thu Apr 17 2025 10:23:09 GMT-0500 (Central Daylight Time),183320.29999999702,044_o_f_n_a.png,O,m,691,12,1,1710.2999999970198,181610.0,7128,NNB,A,11
10,test,2,0.0,1-Back,1,m,Thu Apr 17 2025 10:23:09 GMT-0500 (Central Daylight Time),185103.0,047_o_f_n_a.png,O,m,759,13,1,1775.1000000014901,183327.8999999985,7128,NNB,A,12
11,test,2,0.0,1-Back,1,m,Thu Apr 17 2025 10:23:09 GMT-0500 (Central Daylight Time),186819.09999999404,053_o_m_n_a.png,O,m,696,14,1,1710.3999999985099,185108.69999999553,7128,NNB,A,13
12,test,2,0.0,1-Back,1,m,Thu Apr 17 2025 10:23:09 GMT-0500 (Central Daylight Time),188518.59999999404,046_o_m_n_a.png,O,m,668,15,1,1693.2999999970198,186825.29999999702,7128,NNB,A,14
13,test,2,1.0,1-Back,1,z,Thu Apr 17 2025 10:23:09 GMT-0500 (Central Daylight Time),190351.5,046_o_m_n_a.png,O,z,801,16,1,1827.2000000029802,188524.29999999702,7128,NNB,A,15
14,test,2,0.0,1-Back,1,m,Thu Apr 17 2025 10:23:09 GMT-0500 (Central Daylight Time),192417.3999999985,008_y_m_n_a.png,O,m,1040,17,1,2060.2000000029802,190357.19999999553,7128,NNB,A,16
14,test,2,1.0,1-Back,0,z,Thu Apr 17 2025 10:23:09 GMT-0500 (Central Daylight Time),194316.79999999702,008_y_m_n_a.png,O,m,870,18,1,1893.2999999970198,192423.5,7128,NNB,A,17
0,test,3,1.0,1-Back,,,Thu Apr 17 2025 10:23:09 GMT-0500 (Central Daylight Time),194316.79999999702,010_y_f_n_a.png,O,space,2727,1,1,1893.2999999970198,192423.5,7128,NNB,A,0
1,test,3,0.0,1-Back,1,m,Thu Apr 17 2025 10:23:09 GMT-0500 (Central Daylight Time),200914.69999999553,046_o_m_n_a.png,O,m,755,2,1,1775.7999999970198,199138.8999999985,7128,NNB,A,1
1,test,3,1.0,1-Back,0,z,Thu Apr 17 2025 10:23:09 GMT-0500 (Central Daylight Time),202730.8999999985,046_o_m_n_a.png,O,m,787,3,1,1810.5,200920.3999999985,7128,NNB,A,2
1,test,3,0.0,1-Back,0,m,Thu Apr 17 2025 10:23:09 GMT-0500 (Central Daylight Time),204530.29999999702,050_m_f_n_a.png,O,z,780,4,1,1792.8999999985099,202737.3999999985,7128,NNB,A,3
1,test,3,1.0,1-Back,0,z,Thu Apr 17 2025 10:23:09 GMT-0500 (Central Daylight Time),207562.69999999553,050_m_f_n_a.png,O,None,2016,5,1,3026.1999999955297,204536.5,7128,NNB,A,4
2,test,3,0.0,1-Back,1,m,Thu Apr 17 2025 10:23:09 GMT-0500 (Central Daylight Time),209328.69999999553,044_o_f_n_a.png,O,m,748,6,1,1760.1000000014901,207568.59999999404,7128,NNB,A,5
3,test,3,0.0,1-Back,1,m,Thu Apr 17 2025 10:23:09 GMT-0500 (Central Daylight Time),212011.19999999553,041_y_m_n_a.png,O,m,1662,7,1,2676.39999999851,209334.79999999702,7128,NNB,A,6
4,test,3,0.0,1-Back,1,m,Thu Apr 17 2025 10:23:09 GMT-0500 (Central Daylight Time),213644.0,044_o_f_n_a.png,O,m,604,8,1,1626.5,212017.5,7128,NNB,A,7
5,test,3,0.0,1-Back,1,m,Thu Apr 17 2025 10:23:09 GMT-0500 (Central Daylight Time),215326.8999999985,008_y_m_n_a.png,O,m,651,9,1,1676.8000000044703,213650.09999999404,7128,NNB,A,8
6,test,3,1.0,1-Back,1,z,Thu Apr 17 2025 10:23:09 GMT-0500 (Central Daylight Time),217226.19999999553,008_y_m_n_a.png,O,z,880,10,1,1893.6000000014901,215332.59999999404,7128,NNB,A,9
7,test,3,0.0,1-Back,1,m,Thu Apr 17 2025 10:23:09 GMT-0500 (Central Daylight Time),218909.19999999553,043_m_f_n_a.png,O,m,653,11,1,1676.6000000014901,217232.59999999404,7128,NNB,A,10
8,test,3,0.0,1-Back,1,m,Thu Apr 17 2025 10:23:09 GMT-0500 (Central Daylight Time),220660.59999999404,063_y_f_n_a.png,O,m,730,12,1,1745.0999999940395,218915.5,7128,NNB,A,11
9,test,3,1.0,1-Back,1,z,Thu Apr 17 2025 10:23:09 GMT-0500 (Central Daylight Time),222291.3999999985,063_y_f_n_a.png,O,z,613,13,1,1624.3000000044703,220667.09999999404,7128,NNB,A,12
10,test,3,0.0,1-Back,1,m,Thu Apr 17 2025 10:23:09 GMT-0500 (Central Daylight Time),223990.79999999702,043_m_f_n_a.png,O,m,668,14,1,1693.3999999985099,222297.3999999985,7128,NNB,A,13
11,test,3,0.0,1-Back,1,m,Thu Apr 17 2025 10:23:09 GMT-0500 (Central Daylight Time),226006.79999999702,058_m_m_n_a.png,O,m,992,15,1,2010.2000000029802,223996.59999999404,7128,NNB,A,14
12,test,3,1.0,1-Back,1,z,Thu Apr 17 2025 10:23:09 GMT-0500 (Central Daylight Time),227822.8999999985,058_m_m_n_a.png,O,z,792,16,1,1810.7000000029802,226012.19999999553,7128,NNB,A,15
13,test,3,0.0,1-Back,1,m,Thu Apr 17 2025 10:23:09 GMT-0500 (Central Daylight Time),229672.29999999702,047_o_f_n_a.png,O,m,816,17,1,1843.2000000029802,227829.09999999404,7128,NNB,A,16
13,test,3,1.0,1-Back,0,z,Thu Apr 17 2025 10:23:09 GMT-0500 (Central Daylight Time),231471.8999999985,047_o_f_n_a.png,O,m,775,18,1,1793.3999999985099,229678.5,7128,NNB,A,17
0,test,4,1.0,1-Back,,,Thu Apr 17 2025 10:23:09 GMT-0500 (Central Daylight Time),231471.8999999985,050_m_f_n_a.png,O,space,3263,1,1,1793.3999999985099,229678.5,7128,NNB,A,0
1,test,4,0.0,1-Back,1,m,Thu Apr 17 2025 10:23:09 GMT-0500 (Central Daylight Time),239052.8999999985,046_o_m_n_a.png,O,m,1270,2,1,2292.89999999851,236760.0,7128,NNB,A,1
2,test,4,0.0,1-Back,1,m,Thu Apr 17 2025 10:23:09 GMT-0500 (Central Daylight Time),240852.29999999702,050_m_f_n_a.png,O,m,778,3,1,1793.2000000029802,239059.09999999404,7128,NNB,A,2
3,test,4,0.0,1-Back,1,m,Thu Apr 17 2025 10:23:09 GMT-0500 (Central Daylight Time),242501.59999999404,044_o_f_n_a.png,O,m,627,4,1,1643.6999999955297,240857.8999999985,7128,NNB,A,3
4,test,4,1.0,1-Back,1,z,Thu Apr 17 2025 10:23:09 GMT-0500 (Central Daylight Time),244160.79999999702,044_o_f_n_a.png,O,z,643,5,1,1652.8999999985099,242507.8999999985,7128,NNB,A,4
5,test,4,0.0,1-Back,1,m,Thu Apr 17 2025 10:23:09 GMT-0500 (Central Daylight Time),245850.79999999702,063_y_f_n_a.png,O,m,662,6,1,1682.7999999970198,244168.0,7128,NNB,A,5
6,test,4,0.0,1-Back,1,m,Thu Apr 17 2025 10:23:09 GMT-0500 (Central Daylight Time),247466.69999999553,041_y_m_n_a.png,O,m,589,7,1,1610.1000000014901,245856.59999999404,7128,NNB,A,6
7,test,4,1.0,1-Back,1,z,Thu Apr 17 2025 10:23:09 GMT-0500 (Central Daylight Time),249132.8999999985,041_y_m_n_a.png,O,z,645,8,1,1660.3000000044703,247472.59999999404,7128,NNB,A,7
8,test,4,0.0,1-Back,1,m,Thu Apr 17 2025 10:23:09 GMT-0500 (Central Daylight Time),250666.0,063_y_f_n_a.png,O,m,506,9,1,1526.9000000059605,249139.09999999404,7128,NNB,A,8
9,test,4,0.0,1-Back,1,m,Thu Apr 17 2025 10:23:09 GMT-0500 (Central Daylight Time),252248.5,045_m_m_n_a.png,O,m,557,10,1,1576.2000000029802,250672.29999999702,7128,NNB,A,9
10,test,4,1.0,1-Back,1,z,Thu Apr 17 2025 10:23:09 GMT-0500 (Central Daylight Time),253748.09999999404,045_m_m_n_a.png,O,z,479,11,1,1493.8999999985099,252254.19999999553,7128,NNB,A,10
11,test,4,0.0,1-Back,1,m,Thu Apr 17 2025 10:23:09 GMT-0500 (Central Daylight Time),255214.3999999985,047_o_f_n_a.png,O,m,443,12,1,1459.6000000014901,253754.79999999702,7128,NNB,A,11
12,test,4,0.0,1-Back,1,m,Thu Apr 17 2025 10:23:09 GMT-0500 (Central Daylight Time),256813.79999999702,053_o_m_n_a.png,O,m,577,13,1,1593.1000000014901,255220.69999999553,7128,NNB,A,12
13,test,4,0.0,1-Back,1,m,Thu Apr 17 2025 10:23:09 GMT-0500 (Central Daylight Time),258496.59999999404,047_o_f_n_a.png,O,m,657,14,1,1677.0,256819.59999999404,7128,NNB,A,13
14,test,4,0.0,1-Back,1,m,Thu Apr 17 2025 10:23:09 GMT-0500 (Central Daylight Time),260313.8999999985,010_y_f_n_a.png,O,m,798,15,1,1810.7000000029802,258503.19999999553,7128,NNB,A,14
15,test,4,1.0,1-Back,1,z,Thu Apr 17 2025 10:23:09 GMT-0500 (Central Daylight Time),261779.0,010_y_f_n_a.png,O,z,447,16,1,1459.0,260320.0,7128,NNB,A,15
16,test,4,0.0,1-Back,1,m,Thu Apr 17 2025 10:23:09 GMT-0500 (Central Daylight Time),263312.3999999985,043_m_f_n_a.png,O,m,508,17,1,1527.7000000029802,261784.69999999553,7128,NNB,A,16
17,test,4,1.0,1-Back,1,z,Thu Apr 17 2025 10:23:09 GMT-0500 (Central Daylight Time),265227.799999997,043_m_f_n_a.png,O,z,896,18,1,1908.7000000029802,263319.09999999404,7128,NNB,A,17
0,test,5,1.0,1-Back,,,Thu Apr 17 2025 10:23:09 GMT-0500 (Central Daylight Time),265227.799999997,053_o_m_n_a.png,O,space,4259,1,1,1908.7000000029802,263319.09999999404,7128,NNB,A,0
1,test,5,1.0,1-Back,1,z,Thu Apr 17 2025 10:23:09 GMT-0500 (Central Daylight Time),273292.19999999553,053_o_m_n_a.png,O,z,754,2,1,1776.6999999955297,271515.5,7128,NNB,A,1
2,test,5,0.0,1-Back,1,m,Thu Apr 17 2025 10:23:09 GMT-0500 (Central Daylight Time),275208.5,063_y_f_n_a.png,O,m,899,3,1,1909.6000000014901,273298.8999999985,7128,NNB,A,2
3,test,5,0.0,1-Back,1,m,Thu Apr 17 2025 10:23:09 GMT-0500 (Central Daylight Time),276974.299999997,041_y_m_n_a.png,O,m,735,4,1,1759.5,275214.799999997,7128,NNB,A,3
4,test,5,0.0,1-Back,1,m,Thu Apr 17 2025 10:23:09 GMT-0500 (Central Daylight Time),278640.299999997,063_y_f_n_a.png,O,m,641,5,1,1659.8999999985099,276980.3999999985,7128,NNB,A,4
5,test,5,0.0,1-Back,1,m,Thu Apr 17 2025 10:23:09 GMT-0500 (Central Daylight Time),280256.69999999553,058_m_m_n_a.png,O,m,592,6,1,1610.6000000014901,278646.09999999404,7128,NNB,A,5
6,test,5,1.0,1-Back,1,z,Thu Apr 17 2025 10:23:09 GMT-0500 (Central Daylight Time),281756.09999999404,058_m_m_n_a.png,O,z,470,7,1,1493.2999999970198,280262.799999997,7128,NNB,A,6
7,test,5,0.0,1-Back,1,m,Thu Apr 17 2025 10:23:09 GMT-0500 (Central Daylight Time),283305.59999999404,010_y_f_n_a.png,O,m,523,8,1,1543.1999999955297,281762.3999999985,7128,NNB,A,7
8,test,5,0.0,1-Back,1,m,Thu Apr 17 2025 10:23:09 GMT-0500 (Central Daylight Time),284888.69999999553,008_y_m_n_a.png,O,m,566,9,1,1576.7999999970198,283311.8999999985,7128,NNB,A,8
8,test,5,0.0,1-Back,0,m,Thu Apr 17 2025 10:23:09 GMT-0500 (Central Daylight Time),286554.59999999404,010_y_f_n_a.png,O,z,639,10,1,1659.8999999985099,284894.69999999553,7128,NNB,A,9
9,test,5,0.0,1-Back,1,m,Thu Apr 17 2025 10:23:09 GMT-0500 (Central Daylight Time),288304.09999999404,047_o_f_n_a.png,O,m,725,11,1,1743.5999999940395,286560.5,7128,NNB,A,10
10,test,5,1.0,1-Back,1,z,Thu Apr 17 2025 10:23:09 GMT-0500 (Central Daylight Time),290136.59999999404,047_o_f_n_a.png,O,z,815,12,1,1826.2999999970198,288310.299999997,7128,NNB,A,11
11,test,5,0.0,1-Back,1,m,Thu Apr 17 2025 10:23:09 GMT-0500 (Central Daylight Time),291886.09999999404,046_o_m_n_a.png,O,m,635,13,1,1743.5999999940395,290142.5,7128,NNB,A,12
12,test,5,0.0,1-Back,1,m,Thu Apr 17 2025 10:23:09 GMT-0500 (Central Daylight Time),293469.09999999404,050_m_f_n_a.png,O,m,553,14,1,1577.0999999940395,291892.0,7128,NNB,A,13
13,test,5,1.0,1-Back,1,z,Thu Apr 17 2025 10:23:09 GMT-0500 (Central Daylight Time),295018.59999999404,050_m_f_n_a.png,O,z,522,15,1,1543.8999999985099,293474.69999999553,7128,NNB,A,14
14,test,5,0.0,1-Back,1,m,Thu Apr 17 2025 10:23:09 GMT-0500 (Central Daylight Time),296568.19999999553,046_o_m_n_a.png,O,m,517,16,1,1543.3999999985099,295024.799999997,7128,NNB,A,15
15,test,5,0.0,1-Back,1,m,Thu Apr 17 2025 10:23:09 GMT-0500 (Central Daylight Time),298151.09999999404,043_m_f_n_a.png,O,m,551,17,1,1576.6999999955297,296574.3999999985,7128,NNB,A,16
16,test,5,0.0,1-Back,1,m,Thu Apr 17 2025 10:23:09 GMT-0500 (Central Daylight Time),299667.0,045_m_m_n_a.png,O,m,497,18,1,1509.4000000059605,298157.59999999404,7128,NNB,A,17
0,prac,1,0.0,2-Back,,,Thu Apr 17 2025 10:23:09 GMT-0500 (Central Daylight Time),299667.0,008_y_m_n_a.png,O,space,5781,1,1,1509.4000000059605,298157.59999999404,7128,NNB,A,0
0,prac,1,0.0,2-Back,,,Thu Apr 17 2025 10:23:09 GMT-0500 (Central Daylight Time),299667.0,043_m_f_n_a.png,O,space,5781,2,1,1509.4000000059605,298157.59999999404,7128,NNB,A,0
1,prac,1,1.0,2-Back,1,m,Thu Apr 17 2025 10:23:09 GMT-0500 (Central Daylight Time),411982.0,046_o_m_n_a.png,O,m,911,3,1,1708.5,410273.5,7128,NNB,A,1
2,prac,1,0.0,2-Back,1,m,Thu Apr 17 2025 10:23:09 GMT-0500 (Central Daylight Time),414098.0,047_o_f_n_a.png,O,m,1272,4,1,2108.7000000029802,411989.299999997,7128,NNB,A,2
3,prac,1,0.0,2-Back,1,z,Thu Apr 17 2025 10:23:09 GMT-0500 (Central Daylight Time),416813.8999999985,046_o_m_n_a.png,O,z,1927,5,1,2708.89999999851,414105.0,7128,NNB,A,3
3,prac,1,1.0,2-Back,0,z,Thu Apr 17 2025 10:23:09 GMT-0500 (Central Daylight Time),419596.09999999404,047_o_f_n_a.png,O,None,2007,6,1,2773.5,416822.59999999404,7128,NNB,A,4
3,prac,1,0.0,2-Back,0,m,Thu Apr 17 2025 10:23:09 GMT-0500 (Central Daylight Time),421762.09999999404,045_m_m_n_a.png,O,z,1356,7,1,2158.39999999851,419603.69999999553,7128,NNB,A,5
3,prac,1,0.0,2-Back,0,m,Thu Apr 17 2025 10:23:09 GMT-0500 (Central Daylight Time),423663.799999997,053_o_m_n_a.png,O,z,1085,8,1,1894.1000000014901,421769.69999999553,7128,NNB,A,6
3,prac,1,0.0,2-Back,0,m,Thu Apr 17 2025 10:23:09 GMT-0500 (Central Daylight Time),425227.799999997,010_y_f_n_a.png,O,z,784,9,1,1556.2999999970198,423671.5,7128,NNB,A,7
4,prac,1,1.0,2-Back,1,z,Thu Apr 17 2025 10:23:09 GMT-0500 (Central Daylight Time),426893.8999999985,053_o_m_n_a.png,O,z,884,10,1,1658.8000000044703,425235.09999999404,7128,NNB,A,8
5,prac,1,0.0,2-Back,1,m,Thu Apr 17 2025 10:23:09 GMT-0500 (Central Daylight Time),428727.09999999404,063_y_f_n_a.png,O,m,1015,11,1,1825.7999999970198,426901.299999997,7128,NNB,A,9
6,prac,1,0.0,2-Back,1,m,Thu Apr 17 2025 10:23:09 GMT-0500 (Central Daylight Time),431109.19999999553,045_m_m_n_a.png,O,m,1593,12,1,2374.89999999851,428734.299999997,7128,NNB,A,10
0,prac,2,0.0,2-Back,,,Thu Apr 17 2025 10:23:09 GMT-0500 (Central Daylight Time),431109.19999999553,008_y_m_n_a.png,O,a,8439,1,1,2374.89999999851,428734.299999997,7128,NNB,A,0
0,prac,2,0.0,2-Back,,,Thu Apr 17 2025 10:23:09 GMT-0500 (Central Daylight Time),431109.19999999553,043_m_f_n_a.png,O,a,8439,2,1,2374.89999999851,428734.299999997,7128,NNB,A,0
1,prac,2,1.0,2-Back,1,m,Thu Apr 17 2025 10:23:09 GMT-0500 (Central Daylight Time),446104.59999999404,046_o_m_n_a.png,O,m,722,3,1,1491.3999999985099,444613.19999999553,7128,NNB,A,1
2,prac,2,0.0,2-Back,1,m,Thu Apr 17 2025 10:23:09 GMT-0500 (Central Daylight Time),448020.5,047_o_f_n_a.png,O,m,1136,4,1,1909.0,446111.5,7128,NNB,A,2
2,prac,2,0.0,2-Back,0,z,Thu Apr 17 2025 10:23:09 GMT-0500 (Central Daylight Time),450803.19999999553,046_o_m_n_a.png,O,None,2009,5,1,2775.5,448027.69999999553,7128,NNB,A,3
2,prac,2,1.0,2-Back,0,z,Thu Apr 17 2025 10:23:09 GMT-0500 (Central Daylight Time),452386.0,047_o_f_n_a.png,O,m,805,6,1,1575.0,450811.0,7128,NNB,A,4
2,prac,2,0.0,2-Back,0,m,Thu Apr 17 2025 10:23:09 GMT-0500 (Central Daylight Time),454102.19999999553,045_m_m_n_a.png,O,z,926,7,1,1708.2999999970198,452393.8999999985,7128,NNB,A,5
2,prac,2,0.0,2-Back,0,m,Thu Apr 17 2025 10:23:09 GMT-0500 (Central Daylight Time),456884.59999999404,053_o_m_n_a.png,O,None,2008,8,1,2774.89999999851,454109.69999999553,7128,NNB,A,6
3,prac,2,0.0,2-Back,1,m,Thu Apr 17 2025 10:23:09 GMT-0500 (Central Daylight Time),458900.59999999404,010_y_f_n_a.png,O,m,1176,9,1,2008.1999999955297,456892.3999999985,7128,NNB,A,7
4,prac,2,1.0,2-Back,1,z,Thu Apr 17 2025 10:23:09 GMT-0500 (Central Daylight Time),461383.0,053_o_m_n_a.png,O,z,1692,10,1,2474.7000000029802,458908.299999997,7128,NNB,A,8
5,prac,2,0.0,2-Back,1,m,Thu Apr 17 2025 10:23:09 GMT-0500 (Central Daylight Time),463165.59999999404,063_y_f_n_a.png,O,m,1002,11,1,1775.6999999955297,461389.8999999985,7128,NNB,A,9
5,prac,2,0.0,2-Back,0,m,Thu Apr 17 2025 10:23:09 GMT-0500 (Central Daylight Time),465181.799999997,045_m_m_n_a.png,O,z,1234,12,1,2008.6000000014901,463173.19999999553,7128,NNB,A,10
0,test,1,0.0,2-Back,,,Thu Apr 17 2025 10:23:09 GMT-0500 (Central Daylight Time),465181.799999997,041_y_m_n_a.png,O,space,8036,1,1,2008.6000000014901,463173.19999999553,7128,NNB,A,0
0,test,1,0.0,2-Back,,,Thu Apr 17 2025 10:23:09 GMT-0500 (Central Daylight Time),465181.799999997,041_y_m_n_a.png,O,space,8036,2,1,2008.6000000014901,463173.19999999553,7128,NNB,A,0
1,test,1,0.0,2-Back,1,m,Thu Apr 17 2025 10:23:09 GMT-0500 (Central Daylight Time),485741.8999999985,047_o_f_n_a.png,O,m,627,3,1,1642.6000000014901,484099.299999997,7128,NNB,A,1
2,test,1,0.0,2-Back,1,m,Thu Apr 17 2025 10:23:09 GMT-0500 (Central Daylight Time),487708.299999997,058_m_m_n_a.png,O,m,937,4,1,1959.5,485748.799999997,7128,NNB,A,2
2,test,1,1.0,2-Back,0,z,Thu Apr 17 2025 10:23:09 GMT-0500 (Central Daylight Time),490240.799999997,047_o_f_n_a.png,O,m,1515,5,1,2525.7999999970198,487715.0,7128,NNB,A,3
3,test,1,0.0,2-Back,1,m,Thu Apr 17 2025 10:23:09 GMT-0500 (Central Daylight Time),492040.09999999404,063_y_f_n_a.png,O,m,767,6,1,1792.5999999940395,490247.5,7128,NNB,A,4
3,test,1,0.0,2-Back,0,m,Thu Apr 17 2025 10:23:09 GMT-0500 (Central Daylight Time),494122.799999997,058_m_m_n_a.png,O,z,1055,7,1,2075.7999999970198,492047.0,7128,NNB,A,5
4,test,1,1.0,2-Back,1,z,Thu Apr 17 2025 10:23:09 GMT-0500 (Central Daylight Time),496872.0,063_y_f_n_a.png,O,z,1716,8,1,2742.5,494129.5,7128,NNB,A,6
5,test,1,0.0,2-Back,1,m,Thu Apr 17 2025 10:23:09 GMT-0500 (Central Daylight Time),499104.5,008_y_m_n_a.png,O,m,1199,9,1,2225.7000000029802,496878.799999997,7128,NNB,A,7
6,test,1,0.0,2-Back,1,m,Thu Apr 17 2025 10:23:09 GMT-0500 (Central Daylight Time),501020.59999999404,044_o_f_n_a.png,O,m,887,10,1,1909.2999999970198,499111.299999997,7128,NNB,A,8
7,test,1,1.0,2-Back,1,z,Thu Apr 17 2025 10:23:09 GMT-0500 (Central Daylight Time),503419.799999997,008_y_m_n_a.png,O,z,1370,11,1,2393.2999999970198,501026.5,7128,NNB,A,9
8,test,1,0.0,2-Back,1,m,Thu Apr 17 2025 10:23:09 GMT-0500 (Central Daylight Time),505802.299999997,043_m_f_n_a.png,O,m,1363,12,1,2376.39999999851,503425.8999999985,7128,NNB,A,10
8,test,1,0.0,2-Back,0,m,Thu Apr 17 2025 10:23:09 GMT-0500 (Central Daylight Time),508835.0,043_m_f_n_a.png,O,None,2016,13,1,3026.60000000149,505808.3999999985,7128,NNB,A,11
9,test,1,0.0,2-Back,1,m,Thu Apr 17 2025 10:23:09 GMT-0500 (Central Daylight Time),511750.59999999404,046_o_m_n_a.png,O,m,1893,14,1,2909.5,508841.09999999404,7128,NNB,A,12
9,test,1,0.0,2-Back,0,m,Thu Apr 17 2025 10:23:09 GMT-0500 (Central Daylight Time),514782.799999997,044_o_f_n_a.png,O,None,2015,15,1,3026.10000000149,511756.69999999553,7128,NNB,A,13
9,test,1,1.0,2-Back,0,z,Thu Apr 17 2025 10:23:09 GMT-0500 (Central Daylight Time),516965.5,046_o_m_n_a.png,O,m,1160,16,1,2176.2000000029802,514789.299999997,7128,NNB,A,14
10,test,1,0.0,2-Back,1,m,Thu Apr 17 2025 10:23:09 GMT-0500 (Central Daylight Time),518881.59999999404,050_m_f_n_a.png,O,m,897,17,1,1909.6999999955297,516971.8999999985,7128,NNB,A,15
11,test,1,0.0,2-Back,1,m,Thu Apr 17 2025 10:23:09 GMT-0500 (Central Daylight Time),521247.69999999553,045_m_m_n_a.png,O,m,1333,18,1,2359.7999999970198,518887.8999999985,7128,NNB,A,16
0,test,2,0.0,2-Back,,,Thu Apr 17 2025 10:23:09 GMT-0500 (Central Daylight Time),521247.69999999553,045_m_m_n_a.png,O,space,2400,1,1,2359.7999999970198,518887.8999999985,7128,NNB,A,0
0,test,2,0.0,2-Back,,,Thu Apr 17 2025 10:23:09 GMT-0500 (Central Daylight Time),521247.69999999553,010_y_f_n_a.png,O,space,2400,2,1,2359.7999999970198,518887.8999999985,7128,NNB,A,0
1,test,2,1.0,2-Back,1,z,Thu Apr 17 2025 10:23:09 GMT-0500 (Central Daylight Time),530444.799999997,045_m_m_n_a.png,O,z,628,3,1,1643.7000000029802,528801.099999994,7128,NNB,A,1
2,test,2,0.0,2-Back,1,m,Thu Apr 17 2025 10:23:09 GMT-0500 (Central Daylight Time),532227.5,050_m_f_n_a.png,O,m,755,4,1,1776.8000000044703,530450.6999999955,7128,NNB,A,2
2,test,2,0.0,2-Back,0,m,Thu Apr 17 2025 10:23:09 GMT-0500 (Central Daylight Time),535259.799999997,010_y_f_n_a.png,O,None,2016,5,1,3025.7000000029802,532234.099999994,7128,NNB,A,3
3,test,2,0.0,2-Back,1,m,Thu Apr 17 2025 10:23:09 GMT-0500 (Central Daylight Time),537026.0,046_o_m_n_a.png,O,m,747,6,1,1760.0,535266.0,7128,NNB,A,4
4,test,2,0.0,2-Back,1,m,Thu Apr 17 2025 10:23:09 GMT-0500 (Central Daylight Time),539425.299999997,063_y_f_n_a.png,O,m,1373,7,1,2392.89999999851,537032.3999999985,7128,NNB,A,5
5,test,2,1.0,2-Back,1,z,Thu Apr 17 2025 10:23:09 GMT-0500 (Central Daylight Time),541591.299999997,046_o_m_n_a.png,O,z,1134,8,1,2159.89999999851,539431.3999999985,7128,NNB,A,6
6,test,2,0.0,2-Back,1,m,Thu Apr 17 2025 10:23:09 GMT-0500 (Central Daylight Time),543757.099999994,008_y_m_n_a.png,O,m,1144,9,1,2159.6999999955297,541597.3999999985,7128,NNB,A,7
7,test,2,0.0,2-Back,1,m,Thu Apr 17 2025 10:23:09 GMT-0500 (Central Daylight Time),545706.599999994,008_y_m_n_a.png,O,m,931,10,1,1943.2999999970198,543763.299999997,7128,NNB,A,8
7,test,2,0.0,2-Back,0,m,Thu Apr 17 2025 10:23:09 GMT-0500 (Central Daylight Time),547805.8999999985,043_m_f_n_a.png,O,z,1068,11,1,2093.10000000149,545712.799999997,7128,NNB,A,9
7,test,2,0.0,2-Back,0,m,Thu Apr 17 2025 10:23:09 GMT-0500 (Central Daylight Time),550288.599999994,010_y_f_n_a.png,O,z,1465,12,1,2476.1999999955297,547812.3999999985,7128,NNB,A,10
8,test,2,1.0,2-Back,1,z,Thu Apr 17 2025 10:23:09 GMT-0500 (Central Daylight Time),552304.5,043_m_f_n_a.png,O,z,984,13,1,2009.9000000059605,550294.599999994,7128,NNB,A,11
9,test,2,0.0,2-Back,1,m,Thu Apr 17 2025 10:23:09 GMT-0500 (Central Daylight Time),554287.099999994,053_o_m_n_a.png,O,m,951,14,1,1976.5999999940395,552310.5,7128,NNB,A,12
10,test,2,0.0,2-Back,1,m,Thu Apr 17 2025 10:23:09 GMT-0500 (Central Daylight Time),556186.599999994,053_o_m_n_a.png,O,m,880,15,1,1892.6999999955297,554293.8999999985,7128,NNB,A,13
11,test,2,0.0,2-Back,1,m,Thu Apr 17 2025 10:23:09 GMT-0500 (Central Daylight Time),558702.3999999985,044_o_f_n_a.png,O,m,1484,16,1,2509.5,556192.8999999985,7128,NNB,A,14
12,test,2,0.0,2-Back,1,m,Thu Apr 17 2025 10:23:09 GMT-0500 (Central Daylight Time),560818.3999999985,058_m_m_n_a.png,O,m,1097,17,1,2109.39999999851,558709.0,7128,NNB,A,15
13,test,2,1.0,2-Back,1,z,Thu Apr 17 2025 10:23:09 GMT-0500 (Central Daylight Time),562717.799999997,044_o_f_n_a.png,O,z,877,18,1,1893.0,560824.799999997,7128,NNB,A,16
0,test,3,1.0,2-Back,,,Thu Apr 17 2025 10:23:09 GMT-0500 (Central Daylight Time),562717.799999997,041_y_m_n_a.png,O,space,2826,1,1,1893.0,560824.799999997,7128,NNB,A,0
0,test,3,1.0,2-Back,,,Thu Apr 17 2025 10:23:09 GMT-0500 (Central Daylight Time),562717.799999997,041_y_m_n_a.png,O,space,2826,2,1,1893.0,560824.799999997,7128,NNB,A,0
1,test,3,0.0,2-Back,1,m,Thu Apr 17 2025 10:23:09 GMT-0500 (Central Daylight Time),572948.0,044_o_f_n_a.png,O,m,1295,3,1,2309.0,570639.0,7128,NNB,A,1
2,test,3,0.0,2-Back,1,m,Thu Apr 17 2025 10:23:09 GMT-0500 (Central Daylight Time),575297.1999999955,045_m_m_n_a.png,O,m,1323,4,1,2343.2999999970198,572953.8999999985,7128,NNB,A,2
3,test,3,1.0,2-Back,1,z,Thu Apr 17 2025 10:23:09 GMT-0500 (Central Daylight Time),577446.599999994,044_o_f_n_a.png,O,z,1126,5,1,2143.0999999940395,575303.5,7128,NNB,A,3
4,test,3,0.0,2-Back,1,m,Thu Apr 17 2025 10:23:09 GMT-0500 (Central Daylight Time),579429.5,008_y_m_n_a.png,O,m,961,6,1,1976.4000000059605,577453.099999994,7128,NNB,A,4
5,test,3,0.0,2-Back,1,m,Thu Apr 17 2025 10:23:09 GMT-0500 (Central Daylight Time),581628.599999994,045_m_m_n_a.png,O,m,1178,7,1,2192.5,579436.099999994,7128,NNB,A,5
6,test,3,1.0,2-Back,1,z,Thu Apr 17 2025 10:23:09 GMT-0500 (Central Daylight Time),583478.0,008_y_m_n_a.png,O,z,820,8,1,1842.6000000014901,581635.3999999985,7128,NNB,A,6
7,test,3,0.0,2-Back,1,m,Thu Apr 17 2025 10:23:09 GMT-0500 (Central Daylight Time),585460.799999997,010_y_f_n_a.png,O,m,961,9,1,1976.7999999970198,583484.0,7128,NNB,A,7
8,test,3,0.0,2-Back,1,m,Thu Apr 17 2025 10:23:09 GMT-0500 (Central Daylight Time),587743.1999999955,058_m_m_n_a.png,O,m,1251,10,1,2276.5,585466.6999999955,7128,NNB,A,8
9,test,3,1.0,2-Back,1,z,Thu Apr 17 2025 10:23:09 GMT-0500 (Central Daylight Time),589476.099999994,010_y_f_n_a.png,O,z,704,11,1,1726.6999999955297,587749.3999999985,7128,NNB,A,9
10,test,3,1.0,2-Back,1,z,Thu Apr 17 2025 10:23:09 GMT-0500 (Central Daylight Time),591492.299999997,058_m_m_n_a.png,O,z,987,12,1,2009.8999999985099,589482.3999999985,7128,NNB,A,10
11,test,3,0.0,2-Back,1,m,Thu Apr 17 2025 10:23:09 GMT-0500 (Central Daylight Time),593608.5,044_o_f_n_a.png,O,m,1083,13,1,2109.3000000044703,591499.1999999955,7128,NNB,A,11
12,test,3,0.0,2-Back,1,m,Thu Apr 17 2025 10:23:09 GMT-0500 (Central Daylight Time),595590.8999999985,050_m_f_n_a.png,O,m,951,14,1,1975.8999999985099,593615.0,7128,NNB,A,12
13,test,3,0.0,2-Back,1,m,Thu Apr 17 2025 10:23:09 GMT-0500 (Central Daylight Time),597840.3999999985,046_o_m_n_a.png,O,m,1225,15,1,2243.0,595597.3999999985,7128,NNB,A,13
14,test,3,1.0,2-Back,1,z,Thu Apr 17 2025 10:23:09 GMT-0500 (Central Daylight Time),599406.3999999985,050_m_f_n_a.png,O,z,534,16,1,1559.3999999985099,597847.0,7128,NNB,A,14
15,test,3,0.0,2-Back,1,m,Thu Apr 17 2025 10:23:09 GMT-0500 (Central Daylight Time),601605.6999999955,047_o_f_n_a.png,O,m,1169,17,1,2192.60000000149,599413.099999994,7128,NNB,A,15
16,test,3,0.0,2-Back,1,m,Thu Apr 17 2025 10:23:09 GMT-0500 (Central Daylight Time),604321.599999994,047_o_f_n_a.png,O,m,1699,18,1,2709.5,601612.099999994,7128,NNB,A,16
0,test,4,0.0,2-Back,,,Thu Apr 17 2025 10:23:09 GMT-0500 (Central Daylight Time),604321.599999994,053_o_m_n_a.png,O,space,2999,1,1,2709.5,601612.099999994,7128,NNB,A,0
0,test,4,0.0,2-Back,,,Thu Apr 17 2025 10:23:09 GMT-0500 (Central Daylight Time),604321.599999994,063_y_f_n_a.png,O,space,2999,2,1,2709.5,601612.099999994,7128,NNB,A,0
1,test,4,1.0,2-Back,1,z,Thu Apr 17 2025 10:23:09 GMT-0500 (Central Daylight Time),614568.3999999985,053_o_m_n_a.png,O,z,1124,3,1,2143.2000000029802,612425.1999999955,7128,NNB,A,1
1,test,4,1.0,2-Back,0,z,Thu Apr 17 2025 10:23:09 GMT-0500 (Central Daylight Time),616101.1999999955,063_y_f_n_a.png,O,m,511,4,1,1526.2999999970198,614574.8999999985,7128,NNB,A,2
2,test,4,0.0,2-Back,1,m,Thu Apr 17 2025 10:23:09 GMT-0500 (Central Daylight Time),617917.299999997,044_o_f_n_a.png,O,m,794,5,1,1809.6000000014901,616107.6999999955,7128,NNB,A,3
3,test,4,0.0,2-Back,1,m,Thu Apr 17 2025 10:23:09 GMT-0500 (Central Daylight Time),620416.3999999985,044_o_f_n_a.png,O,m,1467,6,1,2492.60000000149,617923.799999997,7128,NNB,A,4
4,test,4,0.0,2-Back,1,m,Thu Apr 17 2025 10:23:09 GMT-0500 (Central Daylight Time),622249.099999994,043_m_f_n_a.png,O,m,807,7,1,1826.6999999955297,620422.3999999985,7128,NNB,A,5
5,test,4,0.0,2-Back,1,m,Thu Apr 17 2025 10:23:09 GMT-0500 (Central Daylight Time),624365.099999994,008_y_m_n_a.png,O,m,1086,8,1,2109.2999999970198,622255.799999997,7128,NNB,A,6
6,test,4,1.0,2-Back,1,z,Thu Apr 17 2025 10:23:09 GMT-0500 (Central Daylight Time),626031.299999997,043_m_f_n_a.png,O,z,642,9,1,1660.1000000014901,624371.1999999955,7128,NNB,A,7
7,test,4,0.0,2-Back,1,m,Thu Apr 17 2025 10:23:09 GMT-0500 (Central Daylight Time),628080.6999999955,058_m_m_n_a.png,O,m,1024,10,1,2043.1999999955297,626037.5,7128,NNB,A,8
7,test,4,0.0,2-Back,0,m,Thu Apr 17 2025 10:23:09 GMT-0500 (Central Daylight Time),629963.599999994,008_y_m_n_a.png,O,z,855,11,1,1876.5,628087.099999994,7128,NNB,A,9
8,test,4,0.0,2-Back,1,m,Thu Apr 17 2025 10:23:09 GMT-0500 (Central Daylight Time),632445.8999999985,047_o_f_n_a.png,O,m,1452,12,1,2476.0,629969.8999999985,7128,NNB,A,10
9,test,4,0.0,2-Back,1,m,Thu Apr 17 2025 10:23:09 GMT-0500 (Central Daylight Time),634512.099999994,041_y_m_n_a.png,O,m,1041,13,1,2059.7999999970198,632452.299999997,7128,NNB,A,11
10,test,4,1.0,2-Back,1,z,Thu Apr 17 2025 10:23:09 GMT-0500 (Central Daylight Time),636744.799999997,047_o_f_n_a.png,O,z,1208,14,1,2225.60000000149,634519.1999999955,7128,NNB,A,12
11,test,4,1.0,2-Back,1,z,Thu Apr 17 2025 10:23:09 GMT-0500 (Central Daylight Time),638810.6999999955,041_y_m_n_a.png,O,z,1040,15,1,2059.60000000149,636751.099999994,7128,NNB,A,13
12,test,4,0.0,2-Back,1,m,Thu Apr 17 2025 10:23:09 GMT-0500 (Central Daylight Time),640776.799999997,045_m_m_n_a.png,O,m,949,16,1,1959.7000000029802,638817.099999994,7128,NNB,A,14
13,test,4,0.0,2-Back,1,m,Thu Apr 17 2025 10:23:09 GMT-0500 (Central Daylight Time),642642.8999999985,050_m_f_n_a.png,O,m,847,17,1,1859.7000000029802,640783.1999999955,7128,NNB,A,15
13,test,4,1.0,2-Back,0,z,Thu Apr 17 2025 10:23:09 GMT-0500 (Central Daylight Time),644925.6999999955,045_m_m_n_a.png,O,m,1253,18,1,2276.2999999970198,642649.3999999985,7128,NNB,A,16
0,test,5,1.0,2-Back,,,Thu Apr 17 2025 10:23:09 GMT-0500 (Central Daylight Time),644925.6999999955,041_y_m_n_a.png,O,space,3666,1,1,2276.2999999970198,642649.3999999985,7128,NNB,A,0
0,test,5,1.0,2-Back,,,Thu Apr 17 2025 10:23:09 GMT-0500 (Central Daylight Time),644925.6999999955,050_m_f_n_a.png,O,space,3666,2,1,2276.2999999970198,642649.3999999985,7128,NNB,A,0
1,test,5,1.0,2-Back,1,z,Thu Apr 17 2025 10:23:09 GMT-0500 (Central Daylight Time),655222.1999999955,041_y_m_n_a.png,O,z,535,3,1,1559.2999999970198,653662.8999999985,7128,NNB,A,1
2,test,5,1.0,2-Back,1,z,Thu Apr 17 2025 10:23:09 GMT-0500 (Central Daylight Time),657071.6999999955,050_m_f_n_a.png,O,z,825,4,1,1842.7999999970198,655228.8999999985,7128,NNB,A,2
3,test,5,0.0,2-Back,1,m,Thu Apr 17 2025 10:23:09 GMT-0500 (Central Daylight Time),658837.799999997,047_o_f_n_a.png,O,m,745,5,1,1758.7000000029802,657079.099999994,7128,NNB,A,3
3,test,5,0.0,2-Back,0,m,Thu Apr 17 2025 10:23:09 GMT-0500 (Central Daylight Time),661187.099999994,041_y_m_n_a.png,O,z,1322,6,1,2343.1999999955297,658843.8999999985,7128,NNB,A,4
4,test,5,0.0,2-Back,1,m,Thu Apr 17 2025 10:23:09 GMT-0500 (Central Daylight Time),663253.1999999955,010_y_f_n_a.png,O,m,1036,7,1,2059.39999999851,661193.799999997,7128,NNB,A,5
4,test,5,0.0,2-Back,0,m,Thu Apr 17 2025 10:23:09 GMT-0500 (Central Daylight Time),664952.6999999955,047_o_f_n_a.png,O,z,682,8,1,1693.0,663259.6999999955,7128,NNB,A,6
5,test,5,1.0,2-Back,1,z,Thu Apr 17 2025 10:23:09 GMT-0500 (Central Daylight Time),667151.8999999985,010_y_f_n_a.png,O,z,1175,9,1,2191.8000000044703,664960.099999994,7128,NNB,A,7
6,test,5,0.0,2-Back,1,m,Thu Apr 17 2025 10:23:09 GMT-0500 (Central Daylight Time),668868.1999999955,046_o_m_n_a.png,O,m,688,10,1,1709.7999999970198,667158.3999999985,7128,NNB,A,8
7,test,5,0.0,2-Back,1,m,Thu Apr 17 2025 10:23:09 GMT-0500 (Central Daylight Time),671033.799999997,043_m_f_n_a.png,O,m,1146,11,1,2158.60000000149,668875.1999999955,7128,NNB,A,9
8,test,5,0.0,2-Back,1,m,Thu Apr 17 2025 10:23:09 GMT-0500 (Central Daylight Time),673266.5,058_m_m_n_a.png,O,m,1205,12,1,2226.10000000149,671040.3999999985,7128,NNB,A,10
8,test,5,0.0,2-Back,0,m,Thu Apr 17 2025 10:23:09 GMT-0500 (Central Daylight Time),675682.5,046_o_m_n_a.png,O,z,1398,13,1,2409.3000000044703,673273.1999999955,7128,NNB,A,11
9,test,5,1.0,2-Back,1,z,Thu Apr 17 2025 10:23:09 GMT-0500 (Central Daylight Time),677582.099999994,058_m_m_n_a.png,O,z,877,14,1,1893.1999999955297,675688.8999999985,7128,NNB,A,12
10,test,5,0.0,2-Back,1,m,Thu Apr 17 2025 10:23:09 GMT-0500 (Central Daylight Time),679764.3999999985,063_y_f_n_a.png,O,m,1161,15,1,2176.0,677588.3999999985,7128,NNB,A,13
11,test,5,0.0,2-Back,1,m,Thu Apr 17 2025 10:23:09 GMT-0500 (Central Daylight Time),681913.799999997,053_o_m_n_a.png,O,m,1132,16,1,2142.7000000029802,679771.099999994,7128,NNB,A,14
12,test,5,0.0,2-Back,1,m,Thu Apr 17 2025 10:23:09 GMT-0500 (Central Daylight Time),684479.6999999955,043_m_f_n_a.png,O,m,1541,17,1,2559.39999999851,681920.299999997,7128,NNB,A,15
13,test,5,1.0,2-Back,1,z,Thu Apr 17 2025 10:23:09 GMT-0500 (Central Daylight Time),686512.6999999955,053_o_m_n_a.png,O,z,1015,18,1,2026.0,684486.6999999955,7128,NNB,A,16
