acc_sum,block_c,block_dur,condition,correct,correct_response,countdown,datetime,endtime,project,response,response_time,response_time_test1_response,response_time_test2_response,row_sel,same,session_number,start_end,starttime,stim1,stim2,subject_id,task,task_vers,time_test1,time_test2,trial
1,1,0.0,prac,1,m,30000.0,Fri Feb 28 2025 19:09:53 GMT-0600 (Central Standard Time),42961.0,O,m,3149,,,4,no,1,4676.899999976158,38284.10000002384,practrial4.png,practrial4b.png,7064,PC,A,,,1
2,1,0.0,prac,1,m,30000.0,Fri Feb 28 2025 19:09:53 GMT-0600 (Central Standard Time),48559.30000001192,O,m,4066,,,6,no,1,5592.599999964237,42966.700000047684,practrial6.png,practrial6b.png,7064,PC,A,,,2
3,1,0.0,prac,1,z,30000.0,Fri Feb 28 2025 19:09:53 GMT-0600 (Central Standard Time),51375.200000047684,O,z,1284,,,1,yes,1,2810.5,48564.700000047684,practrial1.png,practrial1.png,7064,PC,A,,,3
4,1,0.0,prac,1,m,30000.0,Fri Feb 28 2025 19:09:53 GMT-0600 (Central Standard Time),54139.5,O,m,1228,,,2,no,1,2758.5,51381.0,practrial2.png,practrial2b.png,7064,PC,A,,,4
5,1,0.0,prac,1,z,30000.0,Fri Feb 28 2025 19:09:53 GMT-0600 (Central Standard Time),56824.0,O,z,1176,,,3,yes,1,2677.699999988079,54146.30000001192,practrial3.png,practrial3.png,7064,PC,A,,,5
6,1,0.0,prac,1,z,30000.0,Fri Feb 28 2025 19:09:53 GMT-0600 (Central Standard Time),59689.40000003576,O,z,1346,,,5,yes,1,2862.699999988079,56826.700000047684,practrial5.png,practrial5.png,7064,PC,A,,,6
1,1,1.8660001754760742,test,1,z,28133.999824523926,Fri Feb 28 2025 19:09:53 GMT-0600 (Central Standard Time),71051.20000004768,O,z,1853,1853,,1,yes,1,1864.2000000476837,69187.0,test1trial1.png,test1trial1.png,7064,PC,A,66881,,1
2,1,2.933000087738037,test,1,m,27066.999912261963,Fri Feb 28 2025 19:09:53 GMT-0600 (Central Standard Time),72117.70000004768,O,m,1062,1062,,2,no,1,1063.1000000238419,71054.60000002384,test1trial2.png,test1trial2b.png,7064,PC,A,68748,,2
3,1,4.14900016784668,test,1,z,25850.99983215332,Fri Feb 28 2025 19:09:53 GMT-0600 (Central Standard Time),73334.60000002384,O,z,1209,1209,,3,yes,1,1213.300000011921,72121.30000001192,test1trial3.png,test1trial3.png,7064,PC,A,69815,,3
4,1,5.315000057220459,test,1,m,24684.99994277954,Fri Feb 28 2025 19:09:53 GMT-0600 (Central Standard Time),74500.5,O,m,1153,1153,,4,no,1,1163.2999999523163,73337.20000004768,test1trial4.png,test1trial4b.png,7064,PC,A,71031,,4
5,1,6.482000112533569,test,1,z,23517.99988746643,Fri Feb 28 2025 19:09:53 GMT-0600 (Central Standard Time),75666.60000002384,O,z,1153,1153,,5,yes,1,1162.5,74504.10000002384,test1trial5.png,test1trial5.png,7064,PC,A,72198,,5
6,1,7.632000207901001,test,1,m,22367.999792099,Fri Feb 28 2025 19:09:53 GMT-0600 (Central Standard Time),76817.0,O,m,1130,1130,,6,no,1,1146.3999999761581,75670.60000002384,test1trial6.png,test1trial6b.png,7064,PC,A,73365,,6
7,1,8.53000020980835,test,1,z,21469.99979019165,Fri Feb 28 2025 19:09:53 GMT-0600 (Central Standard Time),77715.40000003576,O,z,884,884,,7,yes,1,894.5,76820.90000003576,test1trial7.png,test1trial7.png,7064,PC,A,74515,,7
8,1,9.748000144958496,test,1,m,20251.999855041504,Fri Feb 28 2025 19:09:53 GMT-0600 (Central Standard Time),78932.70000004768,O,m,1201,1201,,8,no,1,1213.1000000238419,77719.60000002384,test1trial8.png,test1trial8b.png,7064,PC,A,75414,,8
9,1,10.680999994277954,test,1,z,19319.000005722046,Fri Feb 28 2025 19:09:53 GMT-0600 (Central Standard Time),79866.30000001192,O,z,913,913,,9,yes,1,930.3999999761581,78935.90000003576,test1trial9.png,test1trial9.png,7064,PC,A,76630,,9
10,1,11.713000059127808,test,1,m,18286.999940872192,Fri Feb 28 2025 19:09:53 GMT-0600 (Central Standard Time),80898.10000002384,O,m,1026,1026,,10,no,1,1027.300000011921,79870.80000001192,test1trial10.png,test1trial10b.png,7064,PC,A,77565,,10
11,1,12.53000020980835,test,1,z,17469.99979019165,Fri Feb 28 2025 19:09:53 GMT-0600 (Central Standard Time),81715.20000004768,O,z,803,803,,11,yes,1,813.4000000357628,80901.80000001192,test1trial11.png,test1trial11.png,7064,PC,A,78596,,11
11,1,13.59600019454956,test,0,m,16403.99980545044,Fri Feb 28 2025 19:09:53 GMT-0600 (Central Standard Time),82781.30000001192,O,z,1051,1051,,12,no,1,1063.0,81718.30000001192,test1trial12.png,test1trial12b.png,7064,PC,A,79412,,12
12,1,14.680000066757202,test,1,m,15319.999933242798,Fri Feb 28 2025 19:09:53 GMT-0600 (Central Standard Time),83864.90000003576,O,m,1064,1064,,13,no,1,1079.4000000357628,82785.5,test1trial13.png,test1trial13b.png,7064,PC,A,80479,,13
13,1,16.16100001335144,test,1,m,13838.99998664856,Fri Feb 28 2025 19:09:53 GMT-0600 (Central Standard Time),85346.5,O,m,1476,1476,,14,no,1,1477.8999999761581,83868.60000002384,test1trial14.png,test1trial14b.png,7064,PC,A,81563,,14
14,1,17.278000116348267,test,1,z,12721.999883651733,Fri Feb 28 2025 19:09:53 GMT-0600 (Central Standard Time),86462.80000001192,O,z,1107,1107,,15,yes,1,1112.300000011921,85350.5,test1trial15.png,test1trial15.png,7064,PC,A,83044,,15
15,1,18.378000020980835,test,1,m,11621.999979019165,Fri Feb 28 2025 19:09:53 GMT-0600 (Central Standard Time),87563.40000003576,O,m,1088,1088,,16,no,1,1098.0,86465.40000003576,test1trial16.png,test1trial16b.png,7064,PC,A,84159,,16
16,1,19.74400019645691,test,1,z,10255.99980354309,Fri Feb 28 2025 19:09:53 GMT-0600 (Central Standard Time),88928.70000004768,O,z,1354,1354,,17,yes,1,1361.4000000357628,87567.30000001192,test1trial17.png,test1trial17.png,7064,PC,A,85261,,17
17,1,20.9280002117157,test,1,m,9071.999788284302,Fri Feb 28 2025 19:09:53 GMT-0600 (Central Standard Time),90112.80000001192,O,m,1165,1165,,18,no,1,1181.3999999761581,88931.40000003576,test1trial18.png,test1trial18b.png,7064,PC,A,86625,,18
17,1,21.89400005340576,test,0,m,8105.999946594238,Fri Feb 28 2025 19:09:53 GMT-0600 (Central Standard Time),91078.70000004768,O,z,957,957,,19,no,1,961.9000000357628,90116.80000001192,test1trial19.png,test1trial19b.png,7064,PC,A,87811,,19
18,1,22.89300012588501,test,1,z,7106.99987411499,Fri Feb 28 2025 19:09:53 GMT-0600 (Central Standard Time),92078.10000002384,O,z,982,982,,20,yes,1,996.1999999880791,91081.90000003576,test1trial20.png,test1trial20.png,7064,PC,A,88776,,20
19,1,23.859000205993652,test,1,z,6140.999794006348,Fri Feb 28 2025 19:09:53 GMT-0600 (Central Standard Time),93044.5,O,z,951,951,,21,yes,1,962.5,92082.0,test1trial21.png,test1trial21.png,7064,PC,A,89776,,21
20,1,24.777000188827515,test,1,z,5222.999811172485,Fri Feb 28 2025 19:09:53 GMT-0600 (Central Standard Time),93961.90000003576,O,z,903,903,,22,yes,1,912.5,93049.40000003576,test1trial22.png,test1trial22.png,7064,PC,A,90744,,22
21,1,25.776000022888184,test,1,z,4223.999977111816,Fri Feb 28 2025 19:09:53 GMT-0600 (Central Standard Time),94961.60000002384,O,z,994,994,,23,yes,1,996.1000000238419,93965.5,test1trial23.png,test1trial23.png,7064,PC,A,91660,,23
22,1,26.675000190734863,test,1,z,3324.9998092651367,Fri Feb 28 2025 19:09:53 GMT-0600 (Central Standard Time),95860.20000004768,O,z,885,885,,24,yes,1,895.7000000476837,94964.5,test1trial24.png,test1trial24.png,7064,PC,A,92658,,24
23,1,28.074000120162964,test,1,m,1925.9998798370361,Fri Feb 28 2025 19:09:53 GMT-0600 (Central Standard Time),97259.40000003576,O,m,1379,1379,,25,no,1,1396.4000000357628,95863.0,test1trial25.png,test1trial25b.png,7064,PC,A,93557,,25
24,1,29.326000213623047,test,1,m,673.9997863769531,Fri Feb 28 2025 19:09:53 GMT-0600 (Central Standard Time),98510.80000001192,O,m,1228,1228,,26,no,1,1246.800000011921,97264.0,test1trial26.png,test1trial26b.png,7064,PC,A,94958,,26
24,1,30.007000207901,test,0,m,-7.000207901000977,Fri Feb 28 2025 19:09:53 GMT-0600 (Central Standard Time),99192.20000004768,O,None,676,676,,27,no,1,677.3000000119209,98514.90000003576,practrial6.png,practrial6b.png,7064,PC,A,96209,,27
1,2,1.5869998931884766,test,1,m,28413.000106811523,Fri Feb 28 2025 19:09:53 GMT-0600 (Central Standard Time),105243.80000001192,O,m,1564,,1564.0,1,no,1,6728.899999976158,98514.90000003576,test2trial1.png,test2trial1b.png,7064,PC,A,,101355.0,1
2,2,2.563999891281128,test,1,m,27436.000108718872,Fri Feb 28 2025 19:09:53 GMT-0600 (Central Standard Time),106221.5,O,m,968,,968.0,2,no,1,7706.599999964237,98514.90000003576,test2trial2.png,test2trial2b.png,7064,PC,A,,102942.0,2
3,2,3.7649998664855957,test,1,z,26235.000133514404,Fri Feb 28 2025 19:09:53 GMT-0600 (Central Standard Time),107422.70000004768,O,z,1185,,1185.0,3,yes,1,8907.800000011921,98514.90000003576,test2trial3.png,test2trial3.png,7064,PC,A,,103918.0,3
4,2,4.933000087738037,test,1,z,25066.999912261963,Fri Feb 28 2025 19:09:53 GMT-0600 (Central Standard Time),108589.70000004768,O,z,1156,,1156.0,4,yes,1,10074.800000011921,98514.90000003576,test2trial4.png,test2trial4.png,7064,PC,A,,105124.0,4
5,2,6.0329999923706055,test,1,z,23967.000007629395,Fri Feb 28 2025 19:09:53 GMT-0600 (Central Standard Time),109690.30000001192,O,z,1081,,1081.0,5,yes,1,11175.399999976158,98514.90000003576,test2trial5.png,test2trial5.png,7064,PC,A,,106286.0,5
6,2,7.514999866485596,test,1,z,22485.000133514404,Fri Feb 28 2025 19:09:53 GMT-0600 (Central Standard Time),111171.70000004768,O,z,1476,,1476.0,6,yes,1,12656.800000011921,98514.90000003576,test2trial6.png,test2trial6.png,7064,PC,A,,107388.0,6
7,2,9.032000064849854,test,1,m,20967.999935150146,Fri Feb 28 2025 19:09:53 GMT-0600 (Central Standard Time),112689.30000001192,O,m,1495,,1495.0,7,no,1,14174.399999976158,98514.90000003576,test2trial7.png,test2trial7b.png,7064,PC,A,,108871.0,7
8,2,10.180000066757202,test,1,m,19819.999933242798,Fri Feb 28 2025 19:09:53 GMT-0600 (Central Standard Time),113837.10000002384,O,m,1133,,1133.0,8,no,1,15322.199999988079,98514.90000003576,test2trial8.png,test2trial8b.png,7064,PC,A,,110386.0,8
9,2,11.412999868392944,test,1,z,18587.000131607056,Fri Feb 28 2025 19:09:53 GMT-0600 (Central Standard Time),115070.10000002384,O,z,1224,,1224.0,9,yes,1,16555.19999998808,98514.90000003576,test2trial9.png,test2trial9.png,7064,PC,A,,111535.0,9
10,2,12.480000019073486,test,1,z,17519.999980926514,Fri Feb 28 2025 19:09:53 GMT-0600 (Central Standard Time),116136.70000004768,O,z,1056,,1056.0,10,yes,1,17621.80000001192,98514.90000003576,test2trial10.png,test2trial10.png,7064,PC,A,,112767.0,10
11,2,13.812000036239624,test,1,m,16187.999963760376,Fri Feb 28 2025 19:09:53 GMT-0600 (Central Standard Time),117469.10000002384,O,m,1325,,1325.0,11,no,1,18954.19999998808,98514.90000003576,test2trial11.png,test2trial11b.png,7064,PC,A,,113833.0,11
11,2,14.9760000705719,test,0,m,15023.9999294281,Fri Feb 28 2025 19:09:53 GMT-0600 (Central Standard Time),118634.10000002384,O,z,1146,,1146.0,12,no,1,20119.19999998808,98514.90000003576,test2trial12.png,test2trial12b.png,7064,PC,A,,115165.0,12
11,2,17.259999990463257,test,0,z,12740.000009536743,Fri Feb 28 2025 19:09:53 GMT-0600 (Central Standard Time),120918.40000003576,O,m,2271,,2271.0,13,yes,1,22403.5,98514.90000003576,test2trial13.png,test2trial13.png,7064,PC,A,,116336.0,13
12,2,19.375999927520752,test,1,m,10624.000072479248,Fri Feb 28 2025 19:09:53 GMT-0600 (Central Standard Time),123034.30000001192,O,m,2102,,2102.0,14,no,1,24519.399999976158,98514.90000003576,test2trial14.png,test2trial14b.png,7064,PC,A,,118616.0,14
13,2,20.977999925613403,test,1,m,9022.000074386597,Fri Feb 28 2025 19:09:53 GMT-0600 (Central Standard Time),124636.40000003576,O,m,1599,,1599.0,15,no,1,26121.5,98514.90000003576,test2trial15.png,test2trial15b.png,7064,PC,A,,120730.0,15
14,2,22.810999870300293,test,1,m,7189.000129699707,Fri Feb 28 2025 19:09:53 GMT-0600 (Central Standard Time),126469.40000003576,O,m,1828,,1828.0,16,no,1,27954.5,98514.90000003576,test2trial16.png,test2trial16b.png,7064,PC,A,,122333.0,16
15,2,23.776000022888184,test,1,z,6223.999977111816,Fri Feb 28 2025 19:09:53 GMT-0600 (Central Standard Time),127434.40000003576,O,z,961,,961.0,17,yes,1,28919.5,98514.90000003576,test2trial17.png,test2trial17.png,7064,PC,A,,124166.0,17
16,2,24.757999897003174,test,1,z,5242.000102996826,Fri Feb 28 2025 19:09:53 GMT-0600 (Central Standard Time),128416.10000002384,O,z,973,,973.0,18,yes,1,29901.19999998808,98514.90000003576,test2trial18.png,test2trial18.png,7064,PC,A,,125131.0,18
17,2,25.70799994468689,test,1,z,4292.00005531311,Fri Feb 28 2025 19:09:53 GMT-0600 (Central Standard Time),129365.80000001192,O,z,942,,942.0,19,yes,1,30850.899999976158,98514.90000003576,test2trial19.png,test2trial19.png,7064,PC,A,,126113.0,19
18,2,26.85699987411499,test,1,z,3143.0001258850098,Fri Feb 28 2025 19:09:53 GMT-0600 (Central Standard Time),130515.30000001192,O,z,1145,,1145.0,20,yes,1,32000.399999976158,98514.90000003576,test2trial20.png,test2trial20.png,7064,PC,A,,127063.0,20
19,2,28.973000049591064,test,1,z,1026.9999504089355,Fri Feb 28 2025 19:09:53 GMT-0600 (Central Standard Time),132631.40000003576,O,z,2105,,2105.0,21,yes,1,34116.5,98514.90000003576,test2trial21.png,test2trial21.png,7064,PC,A,,128214.0,21
19,2,30.007999897003174,test,0,m,-7.999897003173828,Fri Feb 28 2025 19:09:53 GMT-0600 (Central Standard Time),133666.10000002384,O,None,1031,,1031.0,22,no,1,35151.19999998808,98514.90000003576,test2trial22.png,test2trial22b.png,7064,PC,A,,130328.0,22
