acc_sum,block,block_c,change,condition,correct,correct_response,datetime,endtime,face,project,response,response_time,row_sel,session_number,start_end,starttime,subject_id,task,task_vers,trial
0,prac,1,,1-Back,,,Tue Mar 11 2025 13:20:42 GMT-0500 (Central Daylight Time),,097_m_f_n_a.png,O,space,4536,1,1,,,7093,NNB,B,0
1,prac,1,0.0,1-Back,1,m,Tue Mar 11 2025 13:20:42 GMT-0500 (Central Daylight Time),128557.5,152_y_f_n_a.png,O,m,698,2,1,1557.1000000014901,127000.39999999851,7093,NNB,B,1
2,prac,1,1.0,1-Back,1,z,Tue Mar 11 2025 13:20:42 GMT-0500 (Central Daylight Time),130006.79999999702,152_y_f_n_a.png,O,z,663,3,1,1443.1000000014901,128563.69999999553,7093,NNB,B,2
3,prac,1,0.0,1-Back,1,m,Tue Mar 11 2025 13:20:42 GMT-0500 (Central Daylight Time),131489.79999999702,176_o_m_n_a.png,O,m,604,4,1,1475.7000000029802,130014.09999999404,7093,NNB,B,3
4,prac,1,0.0,1-Back,1,m,Tue Mar 11 2025 13:20:42 GMT-0500 (Central Daylight Time),133289.19999999553,126_m_m_n_a.png,O,m,920,5,1,1793.2999999970198,131495.8999999985,7093,NNB,B,4
5,prac,1,1.0,1-Back,1,z,Tue Mar 11 2025 13:20:42 GMT-0500 (Central Daylight Time),134622.0,126_m_m_n_a.png,O,z,556,6,1,1327.2000000029802,133294.79999999702,7093,NNB,B,5
6,prac,1,0.0,1-Back,1,m,Tue Mar 11 2025 13:20:42 GMT-0500 (Central Daylight Time),136467.29999999702,086_o_f_n_a.png,O,m,1069,7,1,1838.0,134629.29999999702,7093,NNB,B,6
7,prac,1,0.0,1-Back,1,m,Tue Mar 11 2025 13:20:42 GMT-0500 (Central Daylight Time),137954.0,178_m_m_n_a.png,O,m,612,8,1,1479.7000000029802,136474.29999999702,7093,NNB,B,7
8,prac,1,0.0,1-Back,1,m,Tue Mar 11 2025 13:20:42 GMT-0500 (Central Daylight Time),139420.29999999702,097_m_f_n_a.png,O,m,577,9,1,1458.2999999970198,137962.0,7093,NNB,B,8
9,prac,1,1.0,1-Back,1,z,Tue Mar 11 2025 13:20:42 GMT-0500 (Central Daylight Time),140703.5,097_m_f_n_a.png,O,z,493,10,1,1275.3000000044703,139428.19999999553,7093,NNB,B,9
10,prac,1,0.0,1-Back,1,m,Tue Mar 11 2025 13:20:42 GMT-0500 (Central Daylight Time),142536.59999999404,176_o_m_n_a.png,O,m,1045,11,1,1826.8999999985099,140709.69999999553,7093,NNB,B,10
10,prac,1,0.0,1-Back,0,m,Tue Mar 11 2025 13:20:42 GMT-0500 (Central Daylight Time),143935.69999999553,173_y_f_n_a.png,O,z,532,12,1,1393.0,142542.69999999553,7093,NNB,B,11
0,test,1,0.0,1-Back,,,Tue Mar 11 2025 13:20:42 GMT-0500 (Central Daylight Time),143935.69999999553,152_y_f_n_a.png,O,space,7071,1,1,1393.0,142542.69999999553,7093,NNB,B,0
1,test,1,0.0,1-Back,1,m,Tue Mar 11 2025 13:20:42 GMT-0500 (Central Daylight Time),160880.29999999702,029_m_f_n_a.png,O,m,601,2,1,1626.8999999985099,159253.3999999985,7093,NNB,B,1
2,test,1,0.0,1-Back,1,m,Tue Mar 11 2025 13:20:42 GMT-0500 (Central Daylight Time),162446.69999999553,173_y_f_n_a.png,O,m,537,3,1,1562.1000000014901,160884.59999999404,7093,NNB,B,2
3,test,1,1.0,1-Back,1,z,Tue Mar 11 2025 13:20:42 GMT-0500 (Central Daylight Time),163879.5,173_y_f_n_a.png,O,z,411,4,1,1427.8000000044703,162451.69999999553,7093,NNB,B,3
4,test,1,0.0,1-Back,1,m,Tue Mar 11 2025 13:20:42 GMT-0500 (Central Daylight Time),165579.0,029_m_f_n_a.png,O,m,667,5,1,1694.6000000014901,163884.3999999985,7093,NNB,B,4
5,test,1,0.0,1-Back,1,m,Tue Mar 11 2025 13:20:42 GMT-0500 (Central Daylight Time),167212.79999999702,176_o_m_n_a.png,O,m,615,6,1,1629.1000000014901,165583.69999999553,7093,NNB,B,5
6,test,1,1.0,1-Back,1,z,Tue Mar 11 2025 13:20:42 GMT-0500 (Central Daylight Time),168661.19999999553,176_o_m_n_a.png,O,z,422,7,1,1444.1000000014901,167217.09999999404,7093,NNB,B,6
7,test,1,0.0,1-Back,1,m,Tue Mar 11 2025 13:20:42 GMT-0500 (Central Daylight Time),170294.29999999702,126_m_m_n_a.png,O,m,613,8,1,1628.3999999985099,168665.8999999985,7093,NNB,B,7
7,test,1,0.0,1-Back,0,m,Tue Mar 11 2025 13:20:42 GMT-0500 (Central Daylight Time),171960.29999999702,086_o_f_n_a.png,O,z,636,9,1,1661.2000000029802,170299.09999999404,7093,NNB,B,8
8,test,1,0.0,1-Back,1,m,Tue Mar 11 2025 13:20:42 GMT-0500 (Central Daylight Time),174143.0,126_m_m_n_a.png,O,m,1154,10,1,2178.0,171965.0,7093,NNB,B,9
9,test,1,0.0,1-Back,1,m,Tue Mar 11 2025 13:20:42 GMT-0500 (Central Daylight Time),175942.5,153_y_m_n_a.png,O,m,779,11,1,1795.2000000029802,174147.29999999702,7093,NNB,B,10
10,test,1,1.0,1-Back,1,z,Tue Mar 11 2025 13:20:42 GMT-0500 (Central Daylight Time),177592.0,153_y_m_n_a.png,O,z,620,12,1,1645.0,175947.0,7093,NNB,B,11
11,test,1,0.0,1-Back,1,m,Tue Mar 11 2025 13:20:42 GMT-0500 (Central Daylight Time),179474.69999999553,110_o_f_n_a.png,O,m,858,13,1,1878.6000000014901,177596.09999999404,7093,NNB,B,12
12,test,1,1.0,1-Back,1,z,Tue Mar 11 2025 13:20:42 GMT-0500 (Central Daylight Time),181857.09999999404,110_o_f_n_a.png,O,z,1360,14,1,2377.7999999970198,179479.29999999702,7093,NNB,B,13
13,test,1,0.0,1-Back,1,m,Tue Mar 11 2025 13:20:42 GMT-0500 (Central Daylight Time),183568.0,013_y_m_n_a.png,O,m,694,15,1,1706.8000000044703,181861.19999999553,7093,NNB,B,14
14,test,1,0.0,1-Back,1,m,Tue Mar 11 2025 13:20:42 GMT-0500 (Central Daylight Time),185472.59999999404,097_m_f_n_a.png,O,m,869,16,1,1900.5,183572.09999999404,7093,NNB,B,15
15,test,1,0.0,1-Back,1,m,Tue Mar 11 2025 13:20:42 GMT-0500 (Central Daylight Time),187205.5,065_o_m_n_a.png,O,m,713,17,1,1728.2000000029802,185477.29999999702,7093,NNB,B,16
16,test,1,0.0,1-Back,1,m,Tue Mar 11 2025 13:20:42 GMT-0500 (Central Daylight Time),188955.0,097_m_f_n_a.png,O,m,724,18,1,1745.0,187210.0,7093,NNB,B,17
0,test,2,0.0,1-Back,,,Tue Mar 11 2025 13:20:42 GMT-0500 (Central Daylight Time),188955.0,126_m_m_n_a.png,O,space,5767,1,1,1745.0,187210.0,7093,NNB,B,0
1,test,2,0.0,1-Back,1,m,Tue Mar 11 2025 13:20:42 GMT-0500 (Central Daylight Time),198468.69999999553,029_m_f_n_a.png,O,m,698,2,1,1711.1000000014901,196757.59999999404,7093,NNB,B,1
2,test,2,1.0,1-Back,1,z,Tue Mar 11 2025 13:20:42 GMT-0500 (Central Daylight Time),200217.8999999985,029_m_f_n_a.png,O,z,726,3,1,1744.8999999985099,198473.0,7093,NNB,B,2
3,test,2,0.0,1-Back,1,m,Tue Mar 11 2025 13:20:42 GMT-0500 (Central Daylight Time),201950.8999999985,126_m_m_n_a.png,O,m,704,4,1,1728.8999999985099,200222.0,7093,NNB,B,3
4,test,2,0.0,1-Back,1,m,Tue Mar 11 2025 13:20:42 GMT-0500 (Central Daylight Time),203900.19999999553,153_y_m_n_a.png,O,m,922,5,1,1945.1999999955297,201955.0,7093,NNB,B,4
5,test,2,0.0,1-Back,1,m,Tue Mar 11 2025 13:20:42 GMT-0500 (Central Daylight Time),205633.0,152_y_f_n_a.png,O,m,710,6,1,1728.8000000044703,203904.19999999553,7093,NNB,B,5
6,test,2,1.0,1-Back,1,z,Tue Mar 11 2025 13:20:42 GMT-0500 (Central Daylight Time),207282.29999999702,152_y_f_n_a.png,O,z,617,7,1,1645.2999999970198,205637.0,7093,NNB,B,6
7,test,2,0.0,1-Back,1,m,Tue Mar 11 2025 13:20:42 GMT-0500 (Central Daylight Time),208948.69999999553,153_y_m_n_a.png,O,m,639,8,1,1661.6000000014901,207287.09999999404,7093,NNB,B,7
8,test,2,0.0,1-Back,1,m,Tue Mar 11 2025 13:20:42 GMT-0500 (Central Daylight Time),210814.79999999702,110_o_f_n_a.png,O,m,837,9,1,1861.8999999985099,208952.8999999985,7093,NNB,B,8
9,test,2,0.0,1-Back,1,m,Tue Mar 11 2025 13:20:42 GMT-0500 (Central Daylight Time),212614.19999999553,178_m_m_n_a.png,O,m,779,10,1,1794.7999999970198,210819.3999999985,7093,NNB,B,9
10,test,2,1.0,1-Back,1,z,Tue Mar 11 2025 13:20:42 GMT-0500 (Central Daylight Time),214363.79999999702,178_m_m_n_a.png,O,z,724,11,1,1745.1000000014901,212618.69999999553,7093,NNB,B,10
11,test,2,0.0,1-Back,1,m,Tue Mar 11 2025 13:20:42 GMT-0500 (Central Daylight Time),216113.0,110_o_f_n_a.png,O,m,719,12,1,1744.9000000059605,214368.09999999404,7093,NNB,B,11
12,test,2,0.0,1-Back,1,m,Tue Mar 11 2025 13:20:42 GMT-0500 (Central Daylight Time),217812.5,086_o_f_n_a.png,O,m,673,13,1,1695.4000000059605,216117.09999999404,7093,NNB,B,12
13,test,2,0.0,1-Back,1,m,Tue Mar 11 2025 13:20:42 GMT-0500 (Central Daylight Time),219478.79999999702,176_o_m_n_a.png,O,m,637,14,1,1661.3999999985099,217817.3999999985,7093,NNB,B,13
14,test,2,0.0,1-Back,1,m,Tue Mar 11 2025 13:20:42 GMT-0500 (Central Daylight Time),221228.3999999985,065_o_m_n_a.png,O,m,723,15,1,1746.3999999985099,219482.0,7093,NNB,B,14
15,test,2,1.0,1-Back,1,z,Tue Mar 11 2025 13:20:42 GMT-0500 (Central Daylight Time),222944.29999999702,065_o_m_n_a.png,O,z,694,16,1,1711.5,221232.79999999702,7093,NNB,B,15
16,test,2,0.0,1-Back,1,m,Tue Mar 11 2025 13:20:42 GMT-0500 (Central Daylight Time),224610.59999999404,013_y_m_n_a.png,O,m,634,17,1,1662.0,222948.59999999404,7093,NNB,B,16
17,test,2,1.0,1-Back,1,z,Tue Mar 11 2025 13:20:42 GMT-0500 (Central Daylight Time),226260.09999999404,013_y_m_n_a.png,O,z,624,18,1,1644.8999999985099,224615.19999999553,7093,NNB,B,17
0,test,3,1.0,1-Back,,,Tue Mar 11 2025 13:20:42 GMT-0500 (Central Daylight Time),226260.09999999404,173_y_f_n_a.png,O,space,1630,1,1,1644.8999999985099,224615.19999999553,7093,NNB,B,0
1,test,3,0.0,1-Back,1,m,Tue Mar 11 2025 13:20:42 GMT-0500 (Central Daylight Time),231574.8999999985,065_o_m_n_a.png,O,m,554,1,1,1578.8000000044703,229996.09999999404,7093,NNB,B,1
2,test,3,1.0,1-Back,1,z,Tue Mar 11 2025 13:20:42 GMT-0500 (Central Daylight Time),233157.79999999702,065_o_m_n_a.png,O,z,563,1,1,1578.3999999985099,231579.3999999985,7093,NNB,B,2
3,test,3,0.0,1-Back,1,m,Tue Mar 11 2025 13:20:42 GMT-0500 (Central Daylight Time),234773.8999999985,097_m_f_n_a.png,O,m,589,1,1,1612.5,233161.3999999985,7093,NNB,B,3
4,test,3,1.0,1-Back,1,z,Tue Mar 11 2025 13:20:42 GMT-0500 (Central Daylight Time),236256.8999999985,097_m_f_n_a.png,O,z,452,1,1,1478.7000000029802,234778.19999999553,7093,NNB,B,4
5,test,3,0.0,1-Back,1,m,Tue Mar 11 2025 13:20:42 GMT-0500 (Central Daylight Time),238073.0,110_o_f_n_a.png,O,m,786,1,1,1811.7000000029802,236261.29999999702,7093,NNB,B,5
6,test,3,0.0,1-Back,1,m,Tue Mar 11 2025 13:20:42 GMT-0500 (Central Daylight Time),239622.3999999985,153_y_m_n_a.png,O,m,530,1,1,1545.1000000014901,238077.29999999702,7093,NNB,B,6
7,test,3,0.0,1-Back,1,m,Tue Mar 11 2025 13:20:42 GMT-0500 (Central Daylight Time),241321.79999999702,110_o_f_n_a.png,O,m,676,1,1,1695.0,239626.79999999702,7093,NNB,B,7
8,test,3,0.0,1-Back,1,m,Tue Mar 11 2025 13:20:42 GMT-0500 (Central Daylight Time),242921.29999999702,013_y_m_n_a.png,O,m,576,1,1,1595.2999999970198,241326.0,7093,NNB,B,8
9,test,3,1.0,1-Back,1,z,Tue Mar 11 2025 13:20:42 GMT-0500 (Central Daylight Time),244737.59999999404,013_y_m_n_a.png,O,z,793,1,1,1812.0,242925.59999999404,7093,NNB,B,9
10,test,3,0.0,1-Back,1,m,Tue Mar 11 2025 13:20:42 GMT-0500 (Central Daylight Time),246320.5,029_m_f_n_a.png,O,m,553,1,1,1579.0,244741.5,7093,NNB,B,10
11,test,3,0.0,1-Back,1,m,Tue Mar 11 2025 13:20:42 GMT-0500 (Central Daylight Time),247986.59999999404,152_y_f_n_a.png,O,m,642,1,1,1661.8999999985099,246324.69999999553,7093,NNB,B,11
12,test,3,1.0,1-Back,1,z,Tue Mar 11 2025 13:20:42 GMT-0500 (Central Daylight Time),249536.0,152_y_f_n_a.png,O,z,527,1,1,1544.8000000044703,247991.19999999553,7093,NNB,B,12
13,test,3,0.0,1-Back,1,m,Tue Mar 11 2025 13:20:42 GMT-0500 (Central Daylight Time),251185.5,029_m_f_n_a.png,O,m,626,1,1,1645.0,249540.5,7093,NNB,B,13
14,test,3,0.0,1-Back,1,m,Tue Mar 11 2025 13:20:42 GMT-0500 (Central Daylight Time),252934.8999999985,126_m_m_n_a.png,O,m,729,1,1,1745.6000000014901,251189.29999999702,7093,NNB,B,14
15,test,3,1.0,1-Back,1,z,Tue Mar 11 2025 13:20:42 GMT-0500 (Central Daylight Time),254634.5,126_m_m_n_a.png,O,z,667,1,1,1695.0,252939.5,7093,NNB,B,15
16,test,3,0.0,1-Back,1,m,Tue Mar 11 2025 13:20:42 GMT-0500 (Central Daylight Time),256283.8999999985,086_o_f_n_a.png,O,m,632,1,1,1645.5,254638.3999999985,7093,NNB,B,16
17,test,3,1.0,1-Back,1,z,Tue Mar 11 2025 13:20:42 GMT-0500 (Central Daylight Time),257816.79999999702,086_o_f_n_a.png,O,z,502,1,1,1528.3999999985099,256288.3999999985,7093,NNB,B,17
0,test,4,1.0,1-Back,,,Tue Mar 11 2025 13:20:42 GMT-0500 (Central Daylight Time),257816.79999999702,097_m_f_n_a.png,O,space,2137,1,1,1528.3999999985099,256288.3999999985,7093,NNB,B,0
1,test,4,0.0,1-Back,1,m,Tue Mar 11 2025 13:20:42 GMT-0500 (Central Daylight Time),263981.59999999404,065_o_m_n_a.png,O,m,897,2,1,1912.0999999940395,262069.5,7093,NNB,B,1
2,test,4,0.0,1-Back,1,m,Tue Mar 11 2025 13:20:42 GMT-0500 (Central Daylight Time),265664.19999999553,097_m_f_n_a.png,O,m,653,3,1,1678.6000000014901,263985.59999999404,7093,NNB,B,2
3,test,4,0.0,1-Back,1,m,Tue Mar 11 2025 13:20:42 GMT-0500 (Central Daylight Time),267330.5,110_o_f_n_a.png,O,m,642,4,1,1662.2000000029802,265668.299999997,7093,NNB,B,3
4,test,4,1.0,1-Back,1,z,Tue Mar 11 2025 13:20:42 GMT-0500 (Central Daylight Time),268963.19999999553,110_o_f_n_a.png,O,z,608,5,1,1628.5,267334.69999999553,7093,NNB,B,4
5,test,4,0.0,1-Back,1,m,Tue Mar 11 2025 13:20:42 GMT-0500 (Central Daylight Time),270646.19999999553,152_y_f_n_a.png,O,m,663,6,1,1679.1000000014901,268967.09999999404,7093,NNB,B,5
6,test,4,0.0,1-Back,1,m,Tue Mar 11 2025 13:20:42 GMT-0500 (Central Daylight Time),272245.59999999404,153_y_m_n_a.png,O,m,572,7,1,1594.5999999940395,270651.0,7093,NNB,B,6
7,test,4,1.0,1-Back,1,z,Tue Mar 11 2025 13:20:42 GMT-0500 (Central Daylight Time),273744.8999999985,153_y_m_n_a.png,O,z,477,8,1,1494.8000000044703,272250.09999999404,7093,NNB,B,7
8,test,4,0.0,1-Back,1,m,Tue Mar 11 2025 13:20:42 GMT-0500 (Central Daylight Time),275310.8999999985,152_y_f_n_a.png,O,m,536,9,1,1561.8000000044703,273749.09999999404,7093,NNB,B,8
9,test,4,0.0,1-Back,1,m,Tue Mar 11 2025 13:20:42 GMT-0500 (Central Daylight Time),276944.0,178_m_m_n_a.png,O,m,603,10,1,1629.0,275315.0,7093,NNB,B,9
10,test,4,1.0,1-Back,1,z,Tue Mar 11 2025 13:20:42 GMT-0500 (Central Daylight Time),278493.69999999553,178_m_m_n_a.png,O,z,527,11,1,1545.5,276948.19999999553,7093,NNB,B,10
11,test,4,0.0,1-Back,1,m,Tue Mar 11 2025 13:20:42 GMT-0500 (Central Daylight Time),280209.8999999985,086_o_f_n_a.png,O,m,685,12,1,1711.8999999985099,278498.0,7093,NNB,B,11
12,test,4,0.0,1-Back,1,m,Tue Mar 11 2025 13:20:42 GMT-0500 (Central Daylight Time),281809.0,176_o_m_n_a.png,O,m,569,13,1,1594.8000000044703,280214.19999999553,7093,NNB,B,12
13,test,4,0.0,1-Back,1,m,Tue Mar 11 2025 13:20:42 GMT-0500 (Central Daylight Time),283475.19999999553,086_o_f_n_a.png,O,m,641,14,1,1661.2999999970198,281813.8999999985,7093,NNB,B,13
14,test,4,0.0,1-Back,1,m,Tue Mar 11 2025 13:20:42 GMT-0500 (Central Daylight Time),285141.5,173_y_f_n_a.png,O,m,639,15,1,1662.2000000029802,283479.299999997,7093,NNB,B,14
15,test,4,1.0,1-Back,1,z,Tue Mar 11 2025 13:20:42 GMT-0500 (Central Daylight Time),286940.8999999985,173_y_f_n_a.png,O,z,773,16,1,1795.6000000014901,285145.299999997,7093,NNB,B,15
16,test,4,0.0,1-Back,1,m,Tue Mar 11 2025 13:20:42 GMT-0500 (Central Daylight Time),288590.19999999553,029_m_f_n_a.png,O,m,630,17,1,1645.2999999970198,286944.8999999985,7093,NNB,B,16
17,test,4,1.0,1-Back,1,z,Tue Mar 11 2025 13:20:42 GMT-0500 (Central Daylight Time),290290.19999999553,029_m_f_n_a.png,O,z,676,18,1,1695.6000000014901,288594.59999999404,7093,NNB,B,17
0,test,5,1.0,1-Back,,,Tue Mar 11 2025 13:20:42 GMT-0500 (Central Daylight Time),290290.19999999553,176_o_m_n_a.png,O,space,1608,1,1,1695.6000000014901,288594.59999999404,7093,NNB,B,0
1,test,5,1.0,1-Back,1,z,Tue Mar 11 2025 13:20:42 GMT-0500 (Central Daylight Time),295855.09999999404,176_o_m_n_a.png,O,z,903,2,1,1928.5999999940395,293926.5,7093,NNB,B,1
2,test,5,0.0,1-Back,1,m,Tue Mar 11 2025 13:20:42 GMT-0500 (Central Daylight Time),297504.299999997,152_y_f_n_a.png,O,m,619,3,1,1645.2000000029802,295859.09999999404,7093,NNB,B,2
3,test,5,0.0,1-Back,1,m,Tue Mar 11 2025 13:20:42 GMT-0500 (Central Daylight Time),299120.5,153_y_m_n_a.png,O,m,594,4,1,1612.4000000059605,297508.09999999404,7093,NNB,B,3
4,test,5,0.0,1-Back,1,m,Tue Mar 11 2025 13:20:42 GMT-0500 (Central Daylight Time),300836.59999999404,152_y_f_n_a.png,O,m,698,5,1,1711.8999999985099,299124.69999999553,7093,NNB,B,4
5,test,5,0.0,1-Back,1,m,Tue Mar 11 2025 13:20:42 GMT-0500 (Central Daylight Time),302570.5,126_m_m_n_a.png,O,m,701,6,1,1729.8000000044703,300840.69999999553,7093,NNB,B,5
6,test,5,1.0,1-Back,1,z,Tue Mar 11 2025 13:20:42 GMT-0500 (Central Daylight Time),304169.0,126_m_m_n_a.png,O,z,577,7,1,1594.1000000014901,302574.8999999985,7093,NNB,B,6
7,test,5,0.0,1-Back,1,m,Tue Mar 11 2025 13:20:42 GMT-0500 (Central Daylight Time),305885.0,173_y_f_n_a.png,O,m,689,8,1,1711.7000000029802,304173.299999997,7093,NNB,B,7
8,test,5,0.0,1-Back,1,m,Tue Mar 11 2025 13:20:42 GMT-0500 (Central Daylight Time),307584.3999999985,013_y_m_n_a.png,O,m,669,9,1,1695.2000000029802,305889.19999999553,7093,NNB,B,8
9,test,5,0.0,1-Back,1,m,Tue Mar 11 2025 13:20:42 GMT-0500 (Central Daylight Time),309567.09999999404,173_y_f_n_a.png,O,m,962,10,1,1979.1999999955297,307587.8999999985,7093,NNB,B,9
10,test,5,0.0,1-Back,1,m,Tue Mar 11 2025 13:20:42 GMT-0500 (Central Daylight Time),311316.59999999404,086_o_f_n_a.png,O,m,731,11,1,1745.5999999940395,309571.0,7093,NNB,B,10
11,test,5,1.0,1-Back,1,z,Tue Mar 11 2025 13:20:42 GMT-0500 (Central Daylight Time),312866.3999999985,086_o_f_n_a.png,O,z,525,12,1,1545.3999999985099,311321.0,7093,NNB,B,11
12,test,5,0.0,1-Back,1,m,Tue Mar 11 2025 13:20:42 GMT-0500 (Central Daylight Time),314432.299999997,065_o_m_n_a.png,O,m,544,13,1,1562.2000000029802,312870.09999999404,7093,NNB,B,12
13,test,5,0.0,1-Back,1,m,Tue Mar 11 2025 13:20:42 GMT-0500 (Central Daylight Time),315998.5,097_m_f_n_a.png,O,m,546,14,1,1562.3000000044703,314436.19999999553,7093,NNB,B,13
14,test,5,1.0,1-Back,1,z,Tue Mar 11 2025 13:20:42 GMT-0500 (Central Daylight Time),317564.69999999553,097_m_f_n_a.png,O,z,540,15,1,1562.1999999955297,316002.5,7093,NNB,B,14
15,test,5,0.0,1-Back,1,m,Tue Mar 11 2025 13:20:42 GMT-0500 (Central Daylight Time),319315.299999997,065_o_m_n_a.png,O,m,725,16,1,1746.5,317568.799999997,7093,NNB,B,15
16,test,5,0.0,1-Back,1,m,Tue Mar 11 2025 13:20:42 GMT-0500 (Central Daylight Time),320847.0,029_m_f_n_a.png,O,m,512,17,1,1527.4000000059605,319319.59999999404,7093,NNB,B,16
17,test,5,0.0,1-Back,1,m,Tue Mar 11 2025 13:20:42 GMT-0500 (Central Daylight Time),322463.19999999553,178_m_m_n_a.png,O,m,595,18,1,1613.1999999955297,320850.0,7093,NNB,B,17
0,prac,1,0.0,2-Back,,,Tue Mar 11 2025 13:20:42 GMT-0500 (Central Daylight Time),322463.19999999553,013_y_m_n_a.png,O,space,15002,1,1,1613.1999999955297,320850.0,7093,NNB,B,0
0,prac,1,0.0,2-Back,,,Tue Mar 11 2025 13:20:42 GMT-0500 (Central Daylight Time),322463.19999999553,029_m_f_n_a.png,O,space,15002,2,1,1613.1999999955297,320850.0,7093,NNB,B,0
1,prac,1,1.0,2-Back,1,m,Tue Mar 11 2025 13:20:42 GMT-0500 (Central Daylight Time),488878.09999999404,065_o_m_n_a.png,O,m,651,3,1,1526.0999999940395,487352.0,7093,NNB,B,1
2,prac,1,0.0,2-Back,1,m,Tue Mar 11 2025 13:20:42 GMT-0500 (Central Daylight Time),490843.799999997,086_o_f_n_a.png,O,m,1071,4,1,1959.8999999985099,488883.8999999985,7093,NNB,B,2
3,prac,1,0.0,2-Back,1,z,Tue Mar 11 2025 13:20:42 GMT-0500 (Central Daylight Time),492543.5,065_o_m_n_a.png,O,z,911,5,1,1692.2000000029802,490851.299999997,7093,NNB,B,3
4,prac,1,1.0,2-Back,1,z,Tue Mar 11 2025 13:20:42 GMT-0500 (Central Daylight Time),494409.3999999985,086_o_f_n_a.png,O,z,1084,6,1,1858.6000000014901,492550.799999997,7093,NNB,B,4
5,prac,1,0.0,2-Back,1,m,Tue Mar 11 2025 13:20:42 GMT-0500 (Central Daylight Time),496075.5,178_m_m_n_a.png,O,m,791,7,1,1659.7000000029802,494415.799999997,7093,NNB,B,5
6,prac,1,0.0,2-Back,1,m,Tue Mar 11 2025 13:20:42 GMT-0500 (Central Daylight Time),497591.69999999553,176_o_m_n_a.png,O,m,640,8,1,1510.5,496081.19999999553,7093,NNB,B,6
6,prac,1,0.0,2-Back,0,m,Tue Mar 11 2025 13:20:42 GMT-0500 (Central Daylight Time),499108.0,173_y_f_n_a.png,O,z,652,9,1,1510.8000000044703,497597.19999999553,7093,NNB,B,7
7,prac,1,1.0,2-Back,1,z,Tue Mar 11 2025 13:20:42 GMT-0500 (Central Daylight Time),500758.59999999404,176_o_m_n_a.png,O,z,863,10,1,1643.7999999970198,499114.799999997,7093,NNB,B,8
8,prac,1,0.0,2-Back,1,m,Tue Mar 11 2025 13:20:42 GMT-0500 (Central Daylight Time),502507.0,152_y_f_n_a.png,O,m,877,11,1,1742.8000000044703,500764.19999999553,7093,NNB,B,9
9,prac,1,0.0,2-Back,1,m,Tue Mar 11 2025 13:20:42 GMT-0500 (Central Daylight Time),504422.8999999985,178_m_m_n_a.png,O,m,1137,12,1,1909.3000000044703,502513.59999999404,7093,NNB,B,10
0,test,1,0.0,2-Back,,,Tue Mar 11 2025 13:20:42 GMT-0500 (Central Daylight Time),504422.8999999985,153_y_m_n_a.png,O,space,11388,1,1,1909.3000000044703,502513.59999999404,7093,NNB,B,0
0,test,1,0.0,2-Back,,,Tue Mar 11 2025 13:20:42 GMT-0500 (Central Daylight Time),504422.8999999985,153_y_m_n_a.png,O,space,11388,2,1,1909.3000000044703,502513.59999999404,7093,NNB,B,0
1,test,1,0.0,2-Back,1,m,Tue Mar 11 2025 13:20:42 GMT-0500 (Central Daylight Time),535146.3999999985,086_o_f_n_a.png,O,m,651,3,1,1678.6000000014901,533467.799999997,7093,NNB,B,1
2,test,1,0.0,2-Back,1,m,Tue Mar 11 2025 13:20:42 GMT-0500 (Central Daylight Time),537129.1999999955,126_m_m_n_a.png,O,m,960,4,1,1978.8999999985099,535150.299999997,7093,NNB,B,2
3,test,1,1.0,2-Back,1,z,Tue Mar 11 2025 13:20:42 GMT-0500 (Central Daylight Time),538978.599999994,086_o_f_n_a.png,O,z,825,5,1,1845.3999999985099,537133.1999999955,7093,NNB,B,3
4,test,1,0.0,2-Back,1,m,Tue Mar 11 2025 13:20:42 GMT-0500 (Central Daylight Time),541061.299999997,152_y_f_n_a.png,O,m,1063,6,1,2078.7999999970198,538982.5,7093,NNB,B,4
4,test,1,0.0,2-Back,0,m,Tue Mar 11 2025 13:20:42 GMT-0500 (Central Daylight Time),542994.099999994,126_m_m_n_a.png,O,z,909,7,1,1928.8999999985099,541065.1999999955,7093,NNB,B,5
4,test,1,1.0,2-Back,0,z,Tue Mar 11 2025 13:20:42 GMT-0500 (Central Daylight Time),545576.599999994,152_y_f_n_a.png,O,m,1552,8,1,2578.39999999851,542998.1999999955,7093,NNB,B,6
5,test,1,0.0,2-Back,1,m,Tue Mar 11 2025 13:20:42 GMT-0500 (Central Daylight Time),548542.3999999985,013_y_m_n_a.png,O,m,1938,9,1,2961.8000000044703,545580.599999994,7093,NNB,B,7
5,test,1,0.0,2-Back,0,m,Tue Mar 11 2025 13:20:42 GMT-0500 (Central Daylight Time),551574.8999999985,110_o_f_n_a.png,O,None,2016,10,1,3028.5,548546.3999999985,7093,NNB,B,8
5,test,1,1.0,2-Back,0,z,Tue Mar 11 2025 13:20:42 GMT-0500 (Central Daylight Time),553523.799999997,013_y_m_n_a.png,O,m,931,11,1,1944.8999999985099,551578.8999999985,7093,NNB,B,9
6,test,1,0.0,2-Back,1,m,Tue Mar 11 2025 13:20:42 GMT-0500 (Central Daylight Time),555473.5,029_m_f_n_a.png,O,m,918,12,1,1945.8000000044703,553527.6999999955,7093,NNB,B,10
7,test,1,0.0,2-Back,1,m,Tue Mar 11 2025 13:20:42 GMT-0500 (Central Daylight Time),557472.799999997,029_m_f_n_a.png,O,m,977,13,1,1995.0,555477.799999997,7093,NNB,B,11
8,test,1,0.0,2-Back,1,m,Tue Mar 11 2025 13:20:42 GMT-0500 (Central Daylight Time),559389.0,065_o_m_n_a.png,O,m,898,14,1,1912.0,557477.0,7093,NNB,B,12
8,test,1,0.0,2-Back,0,m,Tue Mar 11 2025 13:20:42 GMT-0500 (Central Daylight Time),561054.8999999985,110_o_f_n_a.png,O,z,644,15,1,1662.1000000014901,559392.799999997,7093,NNB,B,13
9,test,1,1.0,2-Back,1,z,Tue Mar 11 2025 13:20:42 GMT-0500 (Central Daylight Time),563404.099999994,065_o_m_n_a.png,O,z,1331,16,1,2344.7999999970198,561059.299999997,7093,NNB,B,14
10,test,1,0.0,2-Back,1,m,Tue Mar 11 2025 13:20:42 GMT-0500 (Central Daylight Time),565220.3999999985,097_m_f_n_a.png,O,m,798,17,1,1812.7000000029802,563407.6999999955,7093,NNB,B,15
10,test,1,0.0,2-Back,0,m,Tue Mar 11 2025 13:20:42 GMT-0500 (Central Daylight Time),567386.1999999955,178_m_m_n_a.png,O,z,1140,18,1,2162.0,565224.1999999955,7093,NNB,B,16
0,test,2,0.0,2-Back,,,Tue Mar 11 2025 13:20:42 GMT-0500 (Central Daylight Time),567386.1999999955,178_m_m_n_a.png,O,space,18696,1,1,2162.0,565224.1999999955,7093,NNB,B,0
0,test,2,0.0,2-Back,,,Tue Mar 11 2025 13:20:42 GMT-0500 (Central Daylight Time),567386.1999999955,173_y_f_n_a.png,O,space,18696,2,1,2162.0,565224.1999999955,7093,NNB,B,0
0,test,2,1.0,2-Back,0,z,Tue Mar 11 2025 13:20:42 GMT-0500 (Central Daylight Time),594261.299999997,178_m_m_n_a.png,O,None,2015,3,1,3028.2999999970198,591233.0,7093,NNB,B,1
1,test,2,0.0,2-Back,1,m,Tue Mar 11 2025 13:20:42 GMT-0500 (Central Daylight Time),596710.599999994,097_m_f_n_a.png,O,m,1421,4,1,2445.5,594265.099999994,7093,NNB,B,2
1,test,2,0.0,2-Back,0,m,Tue Mar 11 2025 13:20:42 GMT-0500 (Central Daylight Time),599743.0,173_y_f_n_a.png,O,None,2015,5,1,3028.4000000059605,596714.599999994,7093,NNB,B,3
2,test,2,0.0,2-Back,1,m,Tue Mar 11 2025 13:20:42 GMT-0500 (Central Daylight Time),601875.799999997,065_o_m_n_a.png,O,m,1107,6,1,2128.89999999851,599746.8999999985,7093,NNB,B,4
3,test,2,0.0,2-Back,1,m,Tue Mar 11 2025 13:20:42 GMT-0500 (Central Daylight Time),603791.799999997,152_y_f_n_a.png,O,m,885,7,1,1911.8999999985099,601879.8999999985,7093,NNB,B,5
4,test,2,1.0,2-Back,1,z,Tue Mar 11 2025 13:20:42 GMT-0500 (Central Daylight Time),605557.8999999985,065_o_m_n_a.png,O,z,739,8,1,1762.8000000044703,603795.099999994,7093,NNB,B,6
5,test,2,0.0,2-Back,1,m,Tue Mar 11 2025 13:20:42 GMT-0500 (Central Daylight Time),607506.8999999985,013_y_m_n_a.png,O,m,916,9,1,1945.1000000014901,605561.799999997,7093,NNB,B,7
6,test,2,0.0,2-Back,1,m,Tue Mar 11 2025 13:20:42 GMT-0500 (Central Daylight Time),609373.1999999955,013_y_m_n_a.png,O,m,839,10,1,1862.7999999970198,607510.3999999985,7093,NNB,B,8
7,test,2,0.0,2-Back,1,m,Tue Mar 11 2025 13:20:42 GMT-0500 (Central Daylight Time),611307.0,029_m_f_n_a.png,O,m,901,11,1,1930.0,609377.0,7093,NNB,B,9
7,test,2,0.0,2-Back,0,m,Tue Mar 11 2025 13:20:42 GMT-0500 (Central Daylight Time),613472.099999994,173_y_f_n_a.png,O,z,1144,12,1,2161.0999999940395,611311.0,7093,NNB,B,10
8,test,2,1.0,2-Back,1,z,Tue Mar 11 2025 13:20:42 GMT-0500 (Central Daylight Time),615754.799999997,029_m_f_n_a.png,O,z,1250,13,1,2278.89999999851,613475.8999999985,7093,NNB,B,11
9,test,2,0.0,2-Back,1,m,Tue Mar 11 2025 13:20:42 GMT-0500 (Central Daylight Time),617620.6999999955,176_o_m_n_a.png,O,m,848,14,1,1862.1999999955297,615758.5,7093,NNB,B,12
10,test,2,0.0,2-Back,1,m,Tue Mar 11 2025 13:20:42 GMT-0500 (Central Daylight Time),619253.5,176_o_m_n_a.png,O,m,605,15,1,1629.8000000044703,617623.6999999955,7093,NNB,B,13
11,test,2,0.0,2-Back,1,m,Tue Mar 11 2025 13:20:42 GMT-0500 (Central Daylight Time),621669.5,110_o_f_n_a.png,O,m,1388,16,1,2412.10000000149,619257.3999999985,7093,NNB,B,14
12,test,2,0.0,2-Back,1,m,Tue Mar 11 2025 13:20:42 GMT-0500 (Central Daylight Time),623518.8999999985,126_m_m_n_a.png,O,m,821,17,1,1845.1000000014901,621673.799999997,7093,NNB,B,15
13,test,2,1.0,2-Back,1,z,Tue Mar 11 2025 13:20:42 GMT-0500 (Central Daylight Time),625168.299999997,110_o_f_n_a.png,O,z,627,18,1,1645.3999999985099,623522.8999999985,7093,NNB,B,16
0,test,3,1.0,2-Back,,,Tue Mar 11 2025 13:20:42 GMT-0500 (Central Daylight Time),625168.299999997,153_y_m_n_a.png,O,space,3538,1,1,1645.3999999985099,623522.8999999985,7093,NNB,B,0
0,test,3,1.0,2-Back,,,Tue Mar 11 2025 13:20:42 GMT-0500 (Central Daylight Time),625168.299999997,153_y_m_n_a.png,O,space,3538,2,1,1645.3999999985099,623522.8999999985,7093,NNB,B,0
1,test,3,0.0,2-Back,1,m,Tue Mar 11 2025 13:20:42 GMT-0500 (Central Daylight Time),635648.3999999985,110_o_f_n_a.png,O,m,719,3,1,1746.3000000044703,633902.099999994,7093,NNB,B,1
2,test,3,0.0,2-Back,1,m,Tue Mar 11 2025 13:20:42 GMT-0500 (Central Daylight Time),637464.3999999985,178_m_m_n_a.png,O,m,786,4,1,1812.3000000044703,635652.099999994,7093,NNB,B,2
3,test,3,1.0,2-Back,1,z,Tue Mar 11 2025 13:20:42 GMT-0500 (Central Daylight Time),639080.6999999955,110_o_f_n_a.png,O,z,594,5,1,1612.3999999985099,637468.299999997,7093,NNB,B,3
4,test,3,0.0,2-Back,1,m,Tue Mar 11 2025 13:20:42 GMT-0500 (Central Daylight Time),640930.1999999955,013_y_m_n_a.png,O,m,825,6,1,1845.6000000014901,639084.599999994,7093,NNB,B,4
4,test,3,0.0,2-Back,0,m,Tue Mar 11 2025 13:20:42 GMT-0500 (Central Daylight Time),642646.299999997,178_m_m_n_a.png,O,z,687,7,1,1711.6000000014901,640934.6999999955,7093,NNB,B,5
5,test,3,1.0,2-Back,1,z,Tue Mar 11 2025 13:20:42 GMT-0500 (Central Daylight Time),644462.1999999955,013_y_m_n_a.png,O,z,788,8,1,1811.8999999985099,642650.299999997,7093,NNB,B,6
6,test,3,0.0,2-Back,1,m,Tue Mar 11 2025 13:20:42 GMT-0500 (Central Daylight Time),646811.5,173_y_f_n_a.png,O,m,1324,9,1,2344.8000000044703,644466.6999999955,7093,NNB,B,7
7,test,3,0.0,2-Back,1,m,Tue Mar 11 2025 13:20:42 GMT-0500 (Central Daylight Time),648694.5,126_m_m_n_a.png,O,m,855,10,1,1879.1000000014901,646815.3999999985,7093,NNB,B,8
8,test,3,1.0,2-Back,1,z,Tue Mar 11 2025 13:20:42 GMT-0500 (Central Daylight Time),650327.099999994,173_y_f_n_a.png,O,z,604,11,1,1628.5,648698.599999994,7093,NNB,B,9
9,test,3,1.0,2-Back,1,z,Tue Mar 11 2025 13:20:42 GMT-0500 (Central Daylight Time),652309.8999999985,126_m_m_n_a.png,O,z,955,12,1,1978.8000000044703,650331.099999994,7093,NNB,B,10
10,test,3,0.0,2-Back,1,m,Tue Mar 11 2025 13:20:42 GMT-0500 (Central Daylight Time),654256.799999997,110_o_f_n_a.png,O,m,929,13,1,1943.0,652313.799999997,7093,NNB,B,11
11,test,3,0.0,2-Back,1,m,Tue Mar 11 2025 13:20:42 GMT-0500 (Central Daylight Time),656242.099999994,097_m_f_n_a.png,O,m,951,14,1,1981.6999999955297,654260.3999999985,7093,NNB,B,12
12,test,3,0.0,2-Back,1,m,Tue Mar 11 2025 13:20:42 GMT-0500 (Central Daylight Time),658107.8999999985,065_o_m_n_a.png,O,m,848,15,1,1862.7000000029802,656245.1999999955,7093,NNB,B,13
13,test,3,1.0,2-Back,1,z,Tue Mar 11 2025 13:20:42 GMT-0500 (Central Daylight Time),659707.5,097_m_f_n_a.png,O,z,582,16,1,1596.0,658111.5,7093,NNB,B,14
14,test,3,0.0,2-Back,1,m,Tue Mar 11 2025 13:20:42 GMT-0500 (Central Daylight Time),661523.299999997,086_o_f_n_a.png,O,m,791,17,1,1811.8999999985099,659711.3999999985,7093,NNB,B,15
15,test,3,0.0,2-Back,1,m,Tue Mar 11 2025 13:20:42 GMT-0500 (Central Daylight Time),663389.6999999955,086_o_f_n_a.png,O,m,839,18,1,1862.1999999955297,661527.5,7093,NNB,B,16
0,test,4,0.0,2-Back,,,Tue Mar 11 2025 13:20:42 GMT-0500 (Central Daylight Time),663389.6999999955,176_o_m_n_a.png,O,space,2501,1,1,1862.1999999955297,661527.5,7093,NNB,B,0
0,test,4,0.0,2-Back,,,Tue Mar 11 2025 13:20:42 GMT-0500 (Central Daylight Time),663389.6999999955,152_y_f_n_a.png,O,space,2501,2,1,1862.1999999955297,661527.5,7093,NNB,B,0
1,test,4,1.0,2-Back,1,z,Tue Mar 11 2025 13:20:42 GMT-0500 (Central Daylight Time),672720.0,176_o_m_n_a.png,O,z,553,3,1,1578.5,671141.5,7093,NNB,B,1
1,test,4,1.0,2-Back,0,z,Tue Mar 11 2025 13:20:42 GMT-0500 (Central Daylight Time),674336.5,152_y_f_n_a.png,O,m,586,4,1,1612.2000000029802,672724.299999997,7093,NNB,B,2
1,test,4,0.0,2-Back,0,m,Tue Mar 11 2025 13:20:42 GMT-0500 (Central Daylight Time),677368.8999999985,110_o_f_n_a.png,O,None,2016,5,1,3028.5,674340.3999999985,7093,NNB,B,3
2,test,4,0.0,2-Back,1,m,Tue Mar 11 2025 13:20:42 GMT-0500 (Central Daylight Time),678985.0,110_o_f_n_a.png,O,m,586,6,1,1611.8000000044703,677373.1999999955,7093,NNB,B,4
3,test,4,0.0,2-Back,1,m,Tue Mar 11 2025 13:20:42 GMT-0500 (Central Daylight Time),680784.1999999955,029_m_f_n_a.png,O,m,777,7,1,1796.1999999955297,678988.0,7093,NNB,B,5
4,test,4,0.0,2-Back,1,m,Tue Mar 11 2025 13:20:42 GMT-0500 (Central Daylight Time),682417.0,013_y_m_n_a.png,O,m,610,8,1,1629.2000000029802,680787.799999997,7093,NNB,B,6
5,test,4,1.0,2-Back,1,z,Tue Mar 11 2025 13:20:42 GMT-0500 (Central Daylight Time),683983.099999994,029_m_f_n_a.png,O,z,537,9,1,1562.7999999970198,682420.299999997,7093,NNB,B,7
6,test,4,0.0,2-Back,1,m,Tue Mar 11 2025 13:20:42 GMT-0500 (Central Daylight Time),685699.299999997,126_m_m_n_a.png,O,m,683,10,1,1712.2000000029802,683987.099999994,7093,NNB,B,8
7,test,4,0.0,2-Back,1,m,Tue Mar 11 2025 13:20:42 GMT-0500 (Central Daylight Time),687398.8999999985,013_y_m_n_a.png,O,m,671,11,1,1696.3999999985099,685702.5,7093,NNB,B,9
8,test,4,0.0,2-Back,1,m,Tue Mar 11 2025 13:20:42 GMT-0500 (Central Daylight Time),689081.6999999955,086_o_f_n_a.png,O,m,660,12,1,1678.7999999970198,687402.8999999985,7093,NNB,B,10
9,test,4,0.0,2-Back,1,m,Tue Mar 11 2025 13:20:42 GMT-0500 (Central Daylight Time),690980.8999999985,153_y_m_n_a.png,O,m,873,13,1,1895.2000000029802,689085.6999999955,7093,NNB,B,11
10,test,4,1.0,2-Back,1,z,Tue Mar 11 2025 13:20:42 GMT-0500 (Central Daylight Time),692630.599999994,086_o_f_n_a.png,O,z,629,14,1,1645.5999999940395,690985.0,7093,NNB,B,12
11,test,4,1.0,2-Back,1,z,Tue Mar 11 2025 13:20:42 GMT-0500 (Central Daylight Time),694446.599999994,153_y_m_n_a.png,O,z,796,15,1,1811.5,692635.099999994,7093,NNB,B,13
12,test,4,0.0,2-Back,1,m,Tue Mar 11 2025 13:20:42 GMT-0500 (Central Daylight Time),696146.099999994,178_m_m_n_a.png,O,m,668,16,1,1695.5999999940395,694450.5,7093,NNB,B,14
13,test,4,0.0,2-Back,1,m,Tue Mar 11 2025 13:20:42 GMT-0500 (Central Daylight Time),697929.1999999955,097_m_f_n_a.png,O,m,752,17,1,1779.3999999985099,696149.799999997,7093,NNB,B,15
14,test,4,1.0,2-Back,1,z,Tue Mar 11 2025 13:20:42 GMT-0500 (Central Daylight Time),699545.0,178_m_m_n_a.png,O,z,593,18,1,1611.8000000044703,697933.1999999955,7093,NNB,B,16
0,test,5,1.0,2-Back,,,Tue Mar 11 2025 13:20:42 GMT-0500 (Central Daylight Time),699545.0,153_y_m_n_a.png,O,space,2401,1,1,1611.8000000044703,697933.1999999955,7093,NNB,B,0
0,test,5,1.0,2-Back,,,Tue Mar 11 2025 13:20:42 GMT-0500 (Central Daylight Time),699545.0,097_m_f_n_a.png,O,space,2401,2,1,1611.8000000044703,697933.1999999955,7093,NNB,B,0
1,test,5,1.0,2-Back,1,z,Tue Mar 11 2025 13:20:42 GMT-0500 (Central Daylight Time),708625.5,153_y_m_n_a.png,O,z,593,3,1,1612.0,707013.5,7093,NNB,B,1
2,test,5,1.0,2-Back,1,z,Tue Mar 11 2025 13:20:42 GMT-0500 (Central Daylight Time),710291.6999999955,097_m_f_n_a.png,O,z,641,4,1,1662.6000000014901,708629.099999994,7093,NNB,B,2
3,test,5,0.0,2-Back,1,m,Tue Mar 11 2025 13:20:42 GMT-0500 (Central Daylight Time),711974.3999999985,086_o_f_n_a.png,O,m,662,5,1,1678.8999999985099,710295.5,7093,NNB,B,3
3,test,5,0.0,2-Back,0,m,Tue Mar 11 2025 13:20:42 GMT-0500 (Central Daylight Time),713957.0,153_y_m_n_a.png,O,z,964,6,1,1978.6000000014901,711978.3999999985,7093,NNB,B,4
4,test,5,0.0,2-Back,1,m,Tue Mar 11 2025 13:20:42 GMT-0500 (Central Daylight Time),715941.0,173_y_f_n_a.png,O,m,965,7,1,1980.4000000059605,713960.599999994,7093,NNB,B,5
5,test,5,0.0,2-Back,1,m,Tue Mar 11 2025 13:20:42 GMT-0500 (Central Daylight Time),717872.6999999955,086_o_f_n_a.png,O,m,910,8,1,1927.3999999985099,715945.299999997,7093,NNB,B,6
5,test,5,1.0,2-Back,0,z,Tue Mar 11 2025 13:20:42 GMT-0500 (Central Daylight Time),719705.1999999955,173_y_f_n_a.png,O,m,809,9,1,1828.6000000014901,717876.599999994,7093,NNB,B,7
6,test,5,0.0,2-Back,1,m,Tue Mar 11 2025 13:20:42 GMT-0500 (Central Daylight Time),721554.799999997,065_o_m_n_a.png,O,m,825,10,1,1845.7000000029802,719709.099999994,7093,NNB,B,8
7,test,5,0.0,2-Back,1,m,Tue Mar 11 2025 13:20:42 GMT-0500 (Central Daylight Time),723337.5,029_m_f_n_a.png,O,m,752,11,1,1778.5,721559.0,7093,NNB,B,9
8,test,5,0.0,2-Back,1,m,Tue Mar 11 2025 13:20:42 GMT-0500 (Central Daylight Time),725136.8999999985,126_m_m_n_a.png,O,m,776,12,1,1795.5,723341.3999999985,7093,NNB,B,10
9,test,5,0.0,2-Back,1,m,Tue Mar 11 2025 13:20:42 GMT-0500 (Central Daylight Time),727086.3999999985,065_o_m_n_a.png,O,m,921,13,1,1945.6000000014901,725140.799999997,7093,NNB,B,11
10,test,5,1.0,2-Back,1,z,Tue Mar 11 2025 13:20:42 GMT-0500 (Central Daylight Time),728702.599999994,126_m_m_n_a.png,O,z,596,14,1,1611.6999999955297,727090.8999999985,7093,NNB,B,12
11,test,5,0.0,2-Back,1,m,Tue Mar 11 2025 13:20:42 GMT-0500 (Central Daylight Time),730451.6999999955,152_y_f_n_a.png,O,m,731,15,1,1744.7999999970198,728706.8999999985,7093,NNB,B,13
12,test,5,0.0,2-Back,1,m,Tue Mar 11 2025 13:20:42 GMT-0500 (Central Daylight Time),732468.0,176_o_m_n_a.png,O,m,990,16,1,2012.4000000059605,730455.599999994,7093,NNB,B,14
13,test,5,0.0,2-Back,1,m,Tue Mar 11 2025 13:20:42 GMT-0500 (Central Daylight Time),734134.299999997,029_m_f_n_a.png,O,m,638,17,1,1662.6000000014901,732471.6999999955,7093,NNB,B,15
14,test,5,1.0,2-Back,1,z,Tue Mar 11 2025 13:20:42 GMT-0500 (Central Daylight Time),735650.1999999955,176_o_m_n_a.png,O,z,492,18,1,1512.1999999955297,734138.0,7093,NNB,B,16
