acc_sum,block_c,block_dur,condition,correct,correct_response,countdown,datetime,endtime,project,response,response_time,response_time_test1_response,response_time_test2_response,row_sel,same,session_number,start_end,starttime,stim1,stim2,subject_id,task,task_vers,time_test1,time_test2,trial
1,1,0.0,prac,1,z,30000.0,Wed Mar 19 2025 14:29:13 GMT-0500 (Central Daylight Time),43403.30000000447,O,z,1582,,,4,yes,1,3111.7000000029802,40291.60000000149,RSM,RSM,7045,LC,C,,,1
2,1,0.0,prac,1,m,30000.0,Wed Mar 19 2025 14:29:13 GMT-0500 (Central Daylight Time),47302.10000000149,O,m,2376,,,1,no,1,3893.39999999851,43408.70000000298,RNV,FNV,7045,LC,C,,,2
3,1,0.0,prac,1,z,30000.0,Wed Mar 19 2025 14:29:13 GMT-0500 (Central Daylight Time),51384.10000000149,O,z,2559,,,2,yes,1,4077.7999999970198,47306.30000000447,NBGFSM,NBGFSM,7045,LC,C,,,3
4,1,0.0,prac,1,m,30000.0,Wed Mar 19 2025 14:29:13 GMT-0500 (Central Daylight Time),55882.89999999851,O,m,2973,,,5,no,1,4494.19999999553,51388.70000000298,LNDPRSKQB,LNDPRSJQB,7045,LC,C,,,4
5,1,0.0,prac,1,m,30000.0,Wed Mar 19 2025 14:29:13 GMT-0500 (Central Daylight Time),59915.0,O,m,2506,,,3,no,1,4027.60000000149,55887.39999999851,QHZXPC,QHZWPC,7045,LC,C,,,5
6,1,0.0,prac,1,z,30000.0,Wed Mar 19 2025 14:29:13 GMT-0500 (Central Daylight Time),65179.80000000447,O,z,3738,,,6,yes,1,5260.70000000298,59919.10000000149,CSDBFPHXZ,CSDBFPHXZ,7045,LC,C,,,6
1,1,1.4820001125335693,test,1,m,28517.99988746643,Wed Mar 19 2025 14:29:13 GMT-0500 (Central Daylight Time),82274.60000000149,O,m,1471,1471,,1,no,1,1480.0,80794.60000000149,HCF,RCF,7045,LC,C,74632,,1
2,1,3.6649999618530273,test,1,m,26335.000038146973,Wed Mar 19 2025 14:29:13 GMT-0500 (Central Daylight Time),84457.30000000447,O,m,2171,2171,,2,no,1,2179.3000000044703,82278.0,QTPRJX,QTPNJX,7045,LC,C,76116,,2
3,1,6.531000137329102,test,1,m,23468.9998626709,Wed Mar 19 2025 14:29:13 GMT-0500 (Central Daylight Time),87323.0,O,m,2862,2862,,3,no,1,2862.5,84460.5,MZDYGVGKQ,MZDYGLBKQ,7045,LC,C,78298,,3
4,1,8.847000122070312,test,1,m,21152.999877929688,Wed Mar 19 2025 14:29:13 GMT-0500 (Central Daylight Time),89639.0,O,m,2299,2299,,4,no,1,2312.60000000149,87326.39999999851,FQTNMK,JQTNMK,7045,LC,C,81164,,4
5,1,10.696000099182129,test,1,z,19303.99990081787,Wed Mar 19 2025 14:29:13 GMT-0500 (Central Daylight Time),91488.20000000298,O,z,1839,1839,,5,yes,1,1845.6000000014901,89642.60000000149,CLJ,CLJ,7045,LC,C,83480,,5
6,1,12.795000076293945,test,1,m,17204.999923706055,Wed Mar 19 2025 14:29:13 GMT-0500 (Central Daylight Time),93587.70000000298,O,m,2094,2094,,6,no,1,2096.10000000149,91491.60000000149,JGDMNSVPW,JGZMNSVPW,7045,LC,C,85329,,6
7,1,16.794000148773193,test,1,z,13205.999851226807,Wed Mar 19 2025 14:29:13 GMT-0500 (Central Daylight Time),97586.60000000149,O,z,3987,3987,,7,yes,1,3995.60000000149,93591.0,FPTVHKCBJ,FPTVHKCBJ,7045,LC,C,87428,,7
8,1,18.49400019645691,test,1,m,11505.99980354309,Wed Mar 19 2025 14:29:13 GMT-0500 (Central Daylight Time),99285.89999999851,O,m,1684,1684,,8,no,1,1696.2999999970198,97589.60000000149,XRPZBS,ZRPBDH,7045,LC,C,91427,,8
9,1,20.4760000705719,test,1,m,9523.9999294281,Wed Mar 19 2025 14:29:13 GMT-0500 (Central Daylight Time),101268.5,O,m,1968,1968,,9,no,1,1979.5,99289.0,ZSQ,ZSP,7045,LC,C,93127,,9
10,1,23.375,test,1,z,6625.0,Wed Mar 19 2025 14:29:13 GMT-0500 (Central Daylight Time),104167.70000000298,O,z,2881,2881,,10,yes,1,2895.7000000029802,101272.0,MPZRXL,MPZRXL,7045,LC,C,95110,,10
11,1,25.175000190734863,test,1,m,4824.999809265137,Wed Mar 19 2025 14:29:13 GMT-0500 (Central Daylight Time),105966.89999999851,O,m,1790,1790,,11,no,1,1795.6999999955297,104171.20000000298,KJH,KRH,7045,LC,C,98009,,11
12,1,29.44099998474121,test,1,z,559.0000152587891,Wed Mar 19 2025 14:29:13 GMT-0500 (Central Daylight Time),110233.80000000447,O,z,4255,4255,,12,yes,1,4263.10000000149,105970.70000000298,SMNHVTFCB,SMNHVTFCB,7045,LC,C,99808,,12
12,1,30.006999969482422,test,0,z,-6.999969482421875,Wed Mar 19 2025 14:29:13 GMT-0500 (Central Daylight Time),110799.0,O,None,561,561,,13,yes,1,561.7999999970198,110237.20000000298,KJWTQF,KJWTQF,7045,LC,C,104075,,13
1,2,5.21399998664856,test,1,z,24786.00001335144,Wed Mar 19 2025 14:29:13 GMT-0500 (Central Daylight Time),118063.30000000447,O,z,5198,,5198.0,1,yes,1,7826.10000000149,110237.20000000298,PRDBZTYFN,PRDBZTYFN,7045,LC,C,,106688.0,1
2,2,7.380000114440918,test,1,m,22619.999885559082,Wed Mar 19 2025 14:29:13 GMT-0500 (Central Daylight Time),120229.20000000298,O,m,2150,,2150.0,2,no,1,9992.0,110237.20000000298,NCWJDZ,NCMJDZ,7045,LC,C,,111905.0,2
3,2,9.380000114440918,test,1,m,20619.999885559082,Wed Mar 19 2025 14:29:13 GMT-0500 (Central Daylight Time),122228.80000000447,O,m,1993,,1993.0,3,no,1,11991.60000000149,110237.20000000298,KHW,KBW,7045,LC,C,,114070.0,3
4,2,12.163000106811523,test,1,m,17836.999893188477,Wed Mar 19 2025 14:29:13 GMT-0500 (Central Daylight Time),125012.30000000447,O,m,2777,,2777.0,4,no,1,14775.10000000149,110237.20000000298,ZRBGMF,ZRBCMF,7045,LC,C,,116070.0,4
5,2,13.82800006866455,test,1,m,16171.99993133545,Wed Mar 19 2025 14:29:13 GMT-0500 (Central Daylight Time),126677.30000000447,O,m,1649,,1649.0,5,no,1,16440.10000000149,110237.20000000298,BTH,BYH,7045,LC,C,,118854.0,5
6,2,18.259999990463257,test,1,z,11740.000009536743,Wed Mar 19 2025 14:29:13 GMT-0500 (Central Daylight Time),131109.30000000447,O,z,4425,,4425.0,6,yes,1,20872.10000000149,110237.20000000298,XWKQRYCNZ,XWKQRYCNZ,7045,LC,C,,120518.0,6
7,2,21.30900001525879,test,1,z,8690.999984741211,Wed Mar 19 2025 14:29:13 GMT-0500 (Central Daylight Time),134158.30000000447,O,z,3033,,3033.0,7,yes,1,23921.10000000149,110237.20000000298,HNPDLK,HNPDLK,7045,LC,C,,124950.0,7
8,2,25.44099998474121,test,1,m,4559.000015258789,Wed Mar 19 2025 14:29:13 GMT-0500 (Central Daylight Time),138290.20000000298,O,m,4120,,4120.0,8,no,1,28053.0,110237.20000000298,WMQTRSGLZ,WMQTRZGLZ,7045,LC,C,,127999.0,8
9,2,26.69099998474121,test,1,z,3309.000015258789,Wed Mar 19 2025 14:29:13 GMT-0500 (Central Daylight Time),139540.1000000015,O,z,1236,,1236.0,9,yes,1,29302.89999999851,110237.20000000298,JPN,JPN,7045,LC,C,,132131.0,9
9,2,29.707000017166138,test,0,m,292.9999828338623,Wed Mar 19 2025 14:29:13 GMT-0500 (Central Daylight Time),142555.70000000298,O,z,3002,,3002.0,10,no,1,32318.5,110237.20000000298,QLXSVT,QLNSVT,7045,LC,C,,133381.0,10
9,2,30.006999969482422,test,0,z,-6.999969482421875,Wed Mar 19 2025 14:29:13 GMT-0500 (Central Daylight Time),142855.80000000447,O,None,296,,296.0,11,yes,1,32618.60000000149,110237.20000000298,YXHKZVFPB,YXHKZVFPD,7045,LC,C,,136396.0,11
