Q,Q1,Q2,Q3,Q4,acc_sum,block,block_c,correct,correct_response,datetime,endtime,project,response,response_time,row_sel,session_number,squiggle1,squiggle1x,squiggle1y,squiggle2,squiggle2x,squiggle2y,squiggle3,squiggle3x,squiggle3y,squiggle4,squiggle4x,squiggle4y,start_end,starttime,subject_id,target_congruent,task,task_vers,testsquiggle,testsquigglex,testsquiggley,time_practice_delay,time_practice_fixation,time_practice_stimuli,time_practice_study,time_test_delay,time_test_fixation,time_test_stimuli,time_test_study,trial
1,1,0,0,0,1,prac,1,1,z,Tue Jan 21 2025 19:29:15 GMT-0600 (Central Standard Time),197959.70000004768,I,z,1607,1,1,16.bmp,-120,-120,17.bmp,120,-120,18.bmp,-120,120,19.bmp,120,120,10427.0,187532.70000004768,8018,yes,SM,B,16.bmp,-120,-120,176230,170202,178248,172216,,,,,1
3,0,0,1,0,1,prac,1,0,m,Tue Jan 21 2025 19:29:15 GMT-0600 (Central Standard Time),208789.70000004768,I,None,2014,2,1,20.bmp,-120,-120,21.bmp,120,-120,22.bmp,-120,120,23.bmp,120,120,10825.800000011921,197963.90000003576,8018,no,SM,B,23.bmp,-120,120,186660,180633,188678,182646,,,,,2
4,0,0,0,1,2,prac,1,1,m,Tue Jan 21 2025 19:29:15 GMT-0600 (Central Standard Time),219086.5,I,m,1476,3,1,24.bmp,-120,-120,25.bmp,120,-120,26.bmp,-120,120,27.bmp,120,120,10292.799999952316,208793.70000004768,8018,no,SM,B,24.bmp,120,120,197490,191463,199507,193476,,,,,3
2,0,1,0,0,2,prac,1,0,z,Tue Jan 21 2025 19:29:15 GMT-0600 (Central Standard Time),229849.70000004768,I,m,1936,4,1,28.bmp,-120,-120,29.bmp,120,-120,30.bmp,-120,120,31.bmp,120,120,10759.800000011921,219089.90000003576,8018,yes,SM,B,29.bmp,120,-120,207787,201759,209805,203773,,,,,4
3,0,0,1,0,2,prac,1,0,z,Tue Jan 21 2025 19:29:15 GMT-0600 (Central Standard Time),240679.60000002384,I,None,2014,5,1,32.bmp,-120,-120,33.bmp,120,-120,34.bmp,-120,120,35.bmp,120,120,10826.399999976158,229853.20000004768,8018,yes,SM,B,34.bmp,-120,120,218550,212522,220568,214536,,,,,5
1,1,0,0,0,3,prac,1,1,m,Tue Jan 21 2025 19:29:15 GMT-0600 (Central Standard Time),251193.20000004768,I,m,1689,6,1,36.bmp,-120,-120,37.bmp,120,-120,38.bmp,-120,120,39.bmp,120,120,10510.600000023842,240682.60000002384,8018,no,SM,B,39.bmp,-120,-120,229380,223352,231398,225366,,,,,6
2,0,1,0,0,4,prac,1,1,m,Tue Jan 21 2025 19:29:15 GMT-0600 (Central Standard Time),261389.60000002384,I,m,1376,7,1,40.bmp,-120,-120,41.bmp,120,-120,42.bmp,-120,120,43.bmp,120,120,10192.5,251197.10000002384,8018,no,SM,B,40.bmp,120,-120,239894,233866,241911,235880,,,,,7
4,0,0,0,1,4,prac,1,0,z,Tue Jan 21 2025 19:29:15 GMT-0600 (Central Standard Time),272220.90000003576,I,None,2014,8,1,44.bmp,-120,-120,45.bmp,120,-120,46.bmp,-120,120,47.bmp,120,120,10827.5,261393.40000003576,8018,yes,SM,B,47.bmp,120,120,250090,244063,252108,246076,,,,,8
1,1,0,0,0,1,prac,2,1,z,Tue Jan 21 2025 19:29:15 GMT-0600 (Central Standard Time),301011.0,I,z,1262,1,1,16.bmp,-120,-120,17.bmp,120,-120,18.bmp,-120,120,19.bmp,120,120,10077.799999952316,290933.2000000477,8018,yes,SM,B,16.bmp,-120,-120,279631,273602,281649,275617,,,,,1
3,0,0,1,0,2,prac,2,1,m,Tue Jan 21 2025 19:29:15 GMT-0600 (Central Standard Time),311657.60000002384,I,m,1822,2,1,20.bmp,-120,-120,21.bmp,120,-120,22.bmp,-120,120,23.bmp,120,120,10643.199999988079,301014.40000003576,8018,no,SM,B,23.bmp,-120,120,289711,283684,291729,285697,,,,,2
4,0,0,0,1,3,prac,2,1,m,Tue Jan 21 2025 19:29:15 GMT-0600 (Central Standard Time),321921.10000002384,I,m,1439,3,1,24.bmp,-120,-120,25.bmp,120,-120,26.bmp,-120,120,27.bmp,120,120,10259.699999988079,311661.40000003576,8018,no,SM,B,24.bmp,120,120,300358,294331,302376,296344,,,,,3
2,0,1,0,0,4,prac,2,1,z,Tue Jan 21 2025 19:29:15 GMT-0600 (Central Standard Time),332317.90000003576,I,z,1568,4,1,28.bmp,-120,-120,29.bmp,120,-120,30.bmp,-120,120,31.bmp,120,120,10392.900000035763,321925.0,8018,yes,SM,B,29.bmp,120,-120,310621,304594,312639,306607,,,,,4
3,0,0,1,0,5,prac,2,1,z,Tue Jan 21 2025 19:29:15 GMT-0600 (Central Standard Time),342897.8000000119,I,z,1763,5,1,32.bmp,-120,-120,33.bmp,120,-120,34.bmp,-120,120,35.bmp,120,120,10576.5,332321.3000000119,8018,yes,SM,B,34.bmp,-120,120,321018,314991,323036,317004,,,,,5
1,1,0,0,0,6,prac,2,1,m,Tue Jan 21 2025 19:29:15 GMT-0600 (Central Standard Time),353061.10000002384,I,m,1342,6,1,36.bmp,-120,-120,37.bmp,120,-120,38.bmp,-120,120,39.bmp,120,120,10159.899999976158,342901.2000000477,8018,no,SM,B,39.bmp,-120,-120,331598,325570,333616,327584,,,,,6
2,0,1,0,0,7,prac,2,1,m,Tue Jan 21 2025 19:29:15 GMT-0600 (Central Standard Time),363158.10000002384,I,m,1268,7,1,40.bmp,-120,-120,41.bmp,120,-120,42.bmp,-120,120,43.bmp,120,120,10093.300000011921,353064.8000000119,8018,no,SM,B,40.bmp,120,-120,341762,335734,343779,337748,,,,,7
4,0,0,0,1,8,prac,2,1,z,Tue Jan 21 2025 19:29:15 GMT-0600 (Central Standard Time),373754.8000000119,I,z,1779,8,1,44.bmp,-120,-120,45.bmp,120,-120,46.bmp,-120,120,47.bmp,120,120,10593.099999964237,363161.7000000477,8018,yes,SM,B,47.bmp,120,120,351859,345831,353876,347844,,,,,8
4,0,0,0,1,1,test,1,1,m,Tue Jan 21 2025 19:29:15 GMT-0600 (Central Standard Time),405911.2000000477,I,m,1475,1,1,48.bmp,-120,-120,49.bmp,120,-120,50.bmp,-120,120,43.bmp,120,120,9527.400000035763,396383.8000000119,8018,yes,SM,B,50.bmp,120,120,351859,345831,353876,347844,385082.0,379053.0,387100.0,381067.0,1
2,0,1,0,0,2,test,1,1,m,Tue Jan 21 2025 19:29:15 GMT-0600 (Central Standard Time),415308.2000000477,I,m,1336,2,1,1.bmp,-120,-120,2.bmp,120,-120,3.bmp,-120,120,4.bmp,120,120,9393.5,405914.7000000477,8018,yes,SM,B,3.bmp,120,-120,351859,345831,353876,347844,394612.0,388584.0,396631.0,390598.0,2
1,1,0,0,0,3,test,1,1,z,Tue Jan 21 2025 19:29:15 GMT-0600 (Central Standard Time),425038.5,I,z,1652,3,1,5.bmp,-120,-120,6.bmp,120,-120,7.bmp,-120,120,8.bmp,120,120,9727.099999964237,415311.40000003576,8018,yes,SM,B,5.bmp,-120,-120,351859,345831,353876,347844,404026.0,397981.0,406043.0,400009.0,3
3,0,0,1,0,3,test,1,0,m,Tue Jan 21 2025 19:29:15 GMT-0600 (Central Standard Time),434485.5,I,z,1394,4,1,9.bmp,-120,-120,10.bmp,120,-120,11.bmp,-120,120,12.bmp,120,120,9443.299999952316,425042.2000000477,8018,yes,SM,B,9.bmp,-120,120,351859,345831,353876,347844,413739.0,407711.0,415757.0,409725.0,4
2,0,1,0,0,4,test,1,1,z,Tue Jan 21 2025 19:29:15 GMT-0600 (Central Standard Time),444282.60000002384,I,z,1739,5,1,13.bmp,-120,-120,14.bmp,120,-120,15.bmp,-120,120,16.bmp,120,120,9793.800000011921,434488.8000000119,8018,yes,SM,B,14.bmp,120,-120,351859,345831,353876,347844,423186.0,417158.0,425204.0,419172.0,5
3,0,0,1,0,4,test,1,0,z,Tue Jan 21 2025 19:29:15 GMT-0600 (Central Standard Time),454346.0,I,None,2014,6,1,17.bmp,-120,-120,18.bmp,120,-120,19.bmp,-120,120,20.bmp,120,120,10060.199999988079,444285.8000000119,8018,yes,SM,B,19.bmp,-120,120,351859,345831,353876,347844,432983.0,426955.0,435001.0,428969.0,6
4,0,0,0,1,4,test,1,0,z,Tue Jan 21 2025 19:29:15 GMT-0600 (Central Standard Time),463643.0,I,m,1247,7,1,21.bmp,-120,-120,22.bmp,120,-120,23.bmp,-120,120,24.bmp,120,120,9293.399999976158,454349.60000002384,8018,yes,SM,B,24.bmp,120,120,351859,345831,353876,347844,443046.0,437019.0,445064.0,439032.0,7
2,0,1,0,0,5,test,1,1,m,Tue Jan 21 2025 19:29:15 GMT-0600 (Central Standard Time),473606.7000000477,I,m,1902,8,1,25.bmp,-120,-120,26.bmp,120,-120,27.bmp,-120,120,28.bmp,120,120,9960.600000023842,463646.10000002384,8018,yes,SM,B,25.bmp,120,-120,351859,345831,353876,347844,452344.0,446315.0,454361.0,448330.0,8
3,0,0,1,0,6,test,1,1,m,Tue Jan 21 2025 19:29:15 GMT-0600 (Central Standard Time),483220.10000002384,I,m,1562,9,1,29.bmp,-120,-120,30.bmp,120,-120,31.bmp,-120,120,32.bmp,120,120,9609.399999976158,473610.7000000477,8018,yes,SM,B,30.bmp,-120,120,351859,345831,353876,347844,462307.0,456280.0,464325.0,458293.0,9
4,0,0,0,1,6,test,1,0,z,Tue Jan 21 2025 19:29:15 GMT-0600 (Central Standard Time),493284.10000002384,I,None,2015,10,1,37.bmp,-120,-120,38.bmp,120,-120,39.bmp,-120,120,40.bmp,120,120,10060.899999976158,483223.2000000477,8018,yes,SM,B,40.bmp,120,120,351859,345831,353876,347844,471921.0,465892.0,473938.0,467907.0,10
3,0,0,1,0,7,test,1,1,z,Tue Jan 21 2025 19:29:15 GMT-0600 (Central Standard Time),502864.0,I,z,1517,11,1,33.bmp,-120,-120,34.bmp,120,-120,35.bmp,-120,120,36.bmp,120,120,9576.799999952316,493287.2000000477,8018,yes,SM,B,35.bmp,-120,120,351859,345831,353876,347844,481985.0,475956.0,484002.0,477972.0,11
2,0,1,0,0,8,test,1,1,m,Tue Jan 21 2025 19:29:15 GMT-0600 (Central Standard Time),512511.10000002384,I,m,1592,12,1,41.bmp,-120,-120,42.bmp,120,-120,43.bmp,-120,120,44.bmp,120,120,9643.899999976158,502867.2000000477,8018,yes,SM,B,41.bmp,120,-120,351859,345831,353876,347844,491565.0,485537.0,493583.0,487551.0,12
3,0,0,1,0,9,test,1,1,m,Tue Jan 21 2025 19:29:15 GMT-0600 (Central Standard Time),521741.7000000477,I,m,1170,13,1,45.bmp,-120,-120,46.bmp,120,-120,47.bmp,-120,120,48.bmp,120,120,9227.400000035763,512514.3000000119,8018,yes,SM,B,46.bmp,-120,120,351859,345831,353876,347844,501212.0,495183.0,503229.0,497198.0,13
1,1,0,0,0,9,test,1,0,z,Tue Jan 21 2025 19:29:15 GMT-0600 (Central Standard Time),531805.4000000358,I,None,2014,14,1,49.bmp,-120,-120,50.bmp,120,-120,4.bmp,-120,120,1.bmp,120,120,10060.900000035763,521744.5,8018,yes,SM,B,49.bmp,-120,-120,351859,345831,353876,347844,510442.0,504414.0,512460.0,506428.0,14
4,0,0,0,1,10,test,1,1,m,Tue Jan 21 2025 19:29:15 GMT-0600 (Central Standard Time),541019.0,I,m,1155,15,1,10.bmp,-120,-120,11.bmp,120,-120,12.bmp,-120,120,13.bmp,120,120,9210.599999964237,531808.4000000358,8018,yes,SM,B,11.bmp,120,120,351859,345831,353876,347844,520506.0,514478.0,522524.0,516492.0,15
1,1,0,0,0,11,test,1,1,m,Tue Jan 21 2025 19:29:15 GMT-0600 (Central Standard Time),550432.6000000238,I,m,1350,16,1,2.bmp,-120,-120,3.bmp,120,-120,4.bmp,-120,120,5.bmp,120,120,9410.600000023842,541022.0,8018,yes,SM,B,5.bmp,-120,-120,351859,345831,353876,347844,529720.0,523691.0,531737.0,525706.0,16
3,0,0,1,0,11,test,1,0,m,Tue Jan 21 2025 19:29:15 GMT-0600 (Central Standard Time),560096.2000000477,I,z,1608,17,1,22.bmp,-120,-120,23.bmp,120,-120,24.bmp,-120,120,25.bmp,120,120,9659.600000023842,550436.6000000238,8018,yes,SM,B,22.bmp,-120,120,351859,345831,353876,347844,539133.0,533106.0,541151.0,535119.0,17
1,1,0,0,0,12,test,1,1,z,Tue Jan 21 2025 19:29:15 GMT-0600 (Central Standard Time),569260.2000000477,I,z,1104,18,1,6.bmp,-120,-120,7.bmp,120,-120,8.bmp,-120,120,9.bmp,120,120,9160.800000011921,560099.4000000358,8018,yes,SM,B,6.bmp,-120,-120,351859,345831,353876,347844,548797.0,542769.0,550815.0,544782.0,18
2,0,1,0,0,13,test,1,1,z,Tue Jan 21 2025 19:29:15 GMT-0600 (Central Standard Time),578790.3000000119,I,z,1477,19,1,26.bmp,-120,-120,27.bmp,120,-120,28.bmp,-120,120,29.bmp,120,120,9526.399999976158,569263.9000000358,8018,yes,SM,B,27.bmp,120,-120,351859,345831,353876,347844,557961.0,551933.0,559978.0,553947.0,19
3,0,0,1,0,14,test,1,1,z,Tue Jan 21 2025 19:29:15 GMT-0600 (Central Standard Time),588620.8000000119,I,z,1778,20,1,30.bmp,-120,-120,31.bmp,120,-120,32.bmp,-120,120,33.bmp,120,120,9827.199999988079,578793.6000000238,8018,yes,SM,B,32.bmp,-120,120,351859,345831,353876,347844,567491.0,561463.0,569509.0,563477.0,20
1,1,0,0,0,14,test,1,0,m,Tue Jan 21 2025 19:29:15 GMT-0600 (Central Standard Time),598684.4000000358,I,None,2014,21,1,14.bmp,-120,-120,15.bmp,120,-120,16.bmp,-120,120,17.bmp,120,120,10060.0,588624.4000000358,8018,yes,SM,B,16.bmp,-120,-120,351859,345831,353876,347844,577321.0,571294.0,579339.0,573307.0,21
4,0,0,0,1,15,test,1,1,z,Tue Jan 21 2025 19:29:15 GMT-0600 (Central Standard Time),608197.9000000358,I,z,1453,22,1,18.bmp,-120,-120,19.bmp,120,-120,20.bmp,-120,120,21.bmp,120,120,9510.699999988079,598687.2000000477,8018,yes,SM,B,21.bmp,120,120,351859,345831,353876,347844,587385.0,581356.0,589402.0,583371.0,22
1,1,0,0,0,16,test,1,1,m,Tue Jan 21 2025 19:29:15 GMT-0600 (Central Standard Time),617895.0,I,m,1643,23,1,34.bmp,-120,-120,35.bmp,120,-120,36.bmp,-120,120,37.bmp,120,120,9694.099999964237,608200.9000000358,8018,yes,SM,B,37.bmp,-120,-120,351859,345831,353876,347844,596898.0,590870.0,598916.0,592884.0,23
2,0,1,0,0,17,test,1,1,z,Tue Jan 21 2025 19:29:15 GMT-0600 (Central Standard Time),627691.6000000238,I,z,1746,24,1,42.bmp,-120,-120,43.bmp,120,-120,44.bmp,-120,120,45.bmp,120,120,9793.300000011921,617898.3000000119,8018,yes,SM,B,43.bmp,120,-120,351859,345831,353876,347844,606596.0,600568.0,608613.0,602581.0,24
4,0,0,0,1,18,test,1,1,m,Tue Jan 21 2025 19:29:15 GMT-0600 (Central Standard Time),637238.9000000358,I,m,1493,25,1,46.bmp,-120,-120,47.bmp,120,-120,48.bmp,-120,120,49.bmp,120,120,9543.800000011921,627695.1000000238,8018,yes,SM,B,48.bmp,120,120,351859,345831,353876,347844,616392.0,610364.0,618410.0,612378.0,25
1,1,0,0,0,19,test,1,1,z,Tue Jan 21 2025 19:29:15 GMT-0600 (Central Standard Time),646485.9000000358,I,z,1186,26,1,38.bmp,-120,-120,39.bmp,120,-120,40.bmp,-120,120,41.bmp,120,120,9243.5,637242.4000000358,8018,yes,SM,B,38.bmp,-120,-120,351859,345831,353876,347844,625939.0,619912.0,627957.0,621925.0,26
4,0,0,0,1,19,test,1,0,z,Tue Jan 21 2025 19:29:15 GMT-0600 (Central Standard Time),656549.6000000238,I,None,2015,27,1,50.bmp,-120,-120,11.bmp,120,-120,1.bmp,-120,120,2.bmp,120,120,10060.399999976158,646489.2000000477,8018,yes,SM,B,2.bmp,120,120,351859,345831,353876,347844,635187.0,629158.0,637204.0,631172.0,27
3,0,0,1,0,19,test,1,0,m,Tue Jan 21 2025 19:29:15 GMT-0600 (Central Standard Time),665929.9000000358,I,z,1323,28,1,3.bmp,-120,-120,4.bmp,120,-120,5.bmp,-120,120,6.bmp,120,120,9376.800000011921,656553.1000000238,8018,yes,SM,B,3.bmp,-120,120,351859,345831,353876,347844,645250.0,639222.0,647268.0,641236.0,28
2,0,1,0,0,20,test,1,1,z,Tue Jan 21 2025 19:29:15 GMT-0600 (Central Standard Time),675326.9000000358,I,z,1335,29,1,7.bmp,-120,-120,8.bmp,120,-120,9.bmp,-120,120,10.bmp,120,120,9393.900000035763,665933.0,8018,yes,SM,B,8.bmp,120,-120,351859,345831,353876,347844,654631.0,648602.0,656648.0,650616.0,29
3,0,0,1,0,21,test,1,1,z,Tue Jan 21 2025 19:29:15 GMT-0600 (Central Standard Time),684690.7000000477,I,z,1314,30,1,11.bmp,-120,-120,12.bmp,120,-120,13.bmp,-120,120,14.bmp,120,120,9359.700000047684,675331.0,8018,yes,SM,B,13.bmp,-120,120,351859,345831,353876,347844,664028.0,658000.0,666045.0,660015.0,30
1,1,0,0,0,22,test,1,1,z,Tue Jan 21 2025 19:29:15 GMT-0600 (Central Standard Time),694221.0,I,z,1478,31,1,15.bmp,-120,-120,16.bmp,120,-120,17.bmp,-120,120,18.bmp,120,120,9527.099999964237,684693.9000000358,8018,yes,SM,B,15.bmp,-120,-120,351859,345831,353876,347844,673391.0,667363.0,675409.0,669377.0,31
2,0,1,0,0,22,test,1,0,m,Tue Jan 21 2025 19:29:15 GMT-0600 (Central Standard Time),704284.7000000477,I,None,2015,32,1,19.bmp,-120,-120,20.bmp,120,-120,21.bmp,-120,120,22.bmp,120,120,10060.600000023842,694224.1000000238,8018,yes,SM,B,19.bmp,120,-120,351859,345831,353876,347844,682926.0,676893.0,684939.0,678908.0,32
4,0,0,0,1,23,test,1,1,z,Tue Jan 21 2025 19:29:15 GMT-0600 (Central Standard Time),713515.3000000119,I,z,1172,33,1,31.bmp,-120,-120,32.bmp,120,-120,33.bmp,-120,120,34.bmp,120,120,9227.699999988079,704287.6000000238,8018,yes,SM,B,34.bmp,120,120,351859,345831,353876,347844,692985.0,686957.0,695003.0,688971.0,33
2,0,1,0,0,24,test,1,1,z,Tue Jan 21 2025 19:29:15 GMT-0600 (Central Standard Time),722395.5,I,z,830,34,1,23.bmp,-120,-120,24.bmp,120,-120,25.bmp,-120,120,26.bmp,120,120,8877.399999976158,713518.1000000238,8018,yes,SM,B,24.bmp,120,-120,351859,345831,353876,347844,702216.0,696187.0,704233.0,698202.0,34
4,0,0,0,1,25,test,1,1,m,Tue Jan 21 2025 19:29:15 GMT-0600 (Central Standard Time),732259.0,I,m,1805,35,1,27.bmp,-120,-120,28.bmp,120,-120,29.bmp,-120,120,30.bmp,120,120,9860.599999964237,722398.4000000358,8018,yes,SM,B,29.bmp,120,120,351859,345831,353876,347844,711096.0,705068.0,713114.0,707082.0,35
3,0,0,1,0,26,test,1,1,m,Tue Jan 21 2025 19:29:15 GMT-0600 (Central Standard Time),742039.3000000119,I,m,1727,36,1,35.bmp,-120,-120,36.bmp,120,-120,37.bmp,-120,120,38.bmp,120,120,9776.599999964237,732262.7000000477,8018,yes,SM,B,35.bmp,-120,120,351859,345831,353876,347844,720960.0,714932.0,722977.0,716946.0,36
1,1,0,0,0,27,test,1,1,m,Tue Jan 21 2025 19:29:15 GMT-0600 (Central Standard Time),751669.7000000477,I,m,1569,37,1,39.bmp,-120,-120,40.bmp,120,-120,41.bmp,-120,120,42.bmp,120,120,9627.300000011921,742042.4000000358,8018,yes,SM,B,40.bmp,-120,-120,351859,345831,353876,347844,730740.0,724712.0,732758.0,726726.0,37
2,0,1,0,0,27,test,1,0,m,Tue Jan 21 2025 19:29:15 GMT-0600 (Central Standard Time),761733.3000000119,I,None,2014,38,1,43.bmp,-120,-120,44.bmp,120,-120,45.bmp,-120,120,46.bmp,120,120,10060.5,751672.8000000119,8018,yes,SM,B,45.bmp,120,-120,351859,345831,353876,347844,740371.0,734342.0,742388.0,736356.0,38
4,0,0,0,1,28,test,1,1,z,Tue Jan 21 2025 19:29:15 GMT-0600 (Central Standard Time),771230.2000000477,I,z,1444,39,1,47.bmp,-120,-120,48.bmp,120,-120,49.bmp,-120,120,50.bmp,120,120,9493.300000011921,761736.9000000358,8018,yes,SM,B,50.bmp,120,120,351859,345831,353876,347844,750434.0,744406.0,752451.0,746420.0,39
3,0,0,1,0,29,test,1,1,m,Tue Jan 21 2025 19:29:15 GMT-0600 (Central Standard Time),780660.7000000477,I,m,1380,40,1,4.bmp,-120,-120,5.bmp,120,-120,6.bmp,-120,120,7.bmp,120,120,9427.300000011921,771233.4000000358,8018,yes,SM,B,5.bmp,-120,120,351859,345831,353876,347844,759931.0,753903.0,761948.0,755917.0,40
1,1,0,0,0,30,test,1,1,z,Tue Jan 21 2025 19:29:15 GMT-0600 (Central Standard Time),790424.4000000358,I,z,1700,41,1,8.bmp,-120,-120,9.bmp,120,-120,10.bmp,-120,120,11.bmp,120,120,9760.900000035763,780663.5,8018,yes,SM,B,8.bmp,-120,-120,351859,345831,353876,347844,769361.0,763333.0,771379.0,765347.0,41
4,0,0,0,1,31,test,1,1,z,Tue Jan 21 2025 19:29:15 GMT-0600 (Central Standard Time),800471.0,I,z,1985,42,1,12.bmp,-120,-120,13.bmp,120,-120,14.bmp,-120,120,15.bmp,120,120,10043.0,790428.0,8018,yes,SM,B,15.bmp,120,120,351859,345831,353876,347844,779125.0,773097.0,781142.0,775111.0,42
1,1,0,0,0,31,test,1,0,z,Tue Jan 21 2025 19:29:15 GMT-0600 (Central Standard Time),810334.6000000238,I,m,1810,43,1,16.bmp,-120,-120,17.bmp,120,-120,18.bmp,-120,120,19.bmp,120,120,9860.5,800474.1000000238,8018,yes,SM,B,16.bmp,-120,-120,351859,345831,353876,347844,789172.0,783143.0,791189.0,785158.0,43
4,0,0,0,1,32,test,1,1,m,Tue Jan 21 2025 19:29:15 GMT-0600 (Central Standard Time),819731.6000000238,I,m,1338,44,1,4.bmp,-120,-120,1.bmp,120,-120,2.bmp,-120,120,3.bmp,120,120,9393.800000011921,810337.8000000119,8018,yes,SM,B,4.bmp,120,120,351859,345831,353876,347844,799035.0,793007.0,801053.0,795021.0,44
1,1,0,0,0,33,test,1,1,m,Tue Jan 21 2025 19:29:15 GMT-0600 (Central Standard Time),829445.3000000119,I,m,1661,45,1,28.bmp,-120,-120,29.bmp,120,-120,30.bmp,-120,120,31.bmp,120,120,9710.5,819734.8000000119,8018,yes,SM,B,31.bmp,-120,-120,351859,345831,353876,347844,808432.0,802404.0,810450.0,804418.0,45
1,1,0,0,0,34,test,1,1,m,Tue Jan 21 2025 19:29:15 GMT-0600 (Central Standard Time),838792.3000000119,I,m,1283,46,1,20.bmp,-120,-120,21.bmp,120,-120,22.bmp,-120,120,23.bmp,120,120,9343.800000011921,829448.5,8018,yes,SM,B,21.bmp,-120,-120,351859,345831,353876,347844,818146.0,812118.0,820164.0,814132.0,46
3,0,0,1,0,34,test,1,0,z,Tue Jan 21 2025 19:29:15 GMT-0600 (Central Standard Time),848856.1000000238,I,None,2014,47,1,24.bmp,-120,-120,25.bmp,120,-120,26.bmp,-120,120,27.bmp,120,120,10060.800000011921,838795.3000000119,8018,yes,SM,B,26.bmp,-120,120,351859,345831,353876,347844,827493.0,821465.0,829511.0,823479.0,47
3,0,0,1,0,35,test,1,1,z,Tue Jan 21 2025 19:29:15 GMT-0600 (Central Standard Time),858319.8000000119,I,z,1402,48,1,40.bmp,-120,-120,41.bmp,120,-120,42.bmp,-120,120,43.bmp,120,120,9460.699999988079,848859.1000000238,8018,yes,SM,B,42.bmp,-120,120,351859,345831,353876,347844,837557.0,831528.0,839574.0,833543.0,48
2,0,1,0,0,35,test,1,0,z,Tue Jan 21 2025 19:29:15 GMT-0600 (Central Standard Time),868383.1000000238,I,None,2014,49,1,36.bmp,-120,-120,37.bmp,120,-120,38.bmp,-120,120,39.bmp,120,120,10060.100000023842,858323.0,8018,yes,SM,B,37.bmp,120,-120,351859,345831,353876,347844,847020.0,840992.0,849038.0,843006.0,49
3,0,0,1,0,35,test,1,0,m,Tue Jan 21 2025 19:29:15 GMT-0600 (Central Standard Time),878413.4000000358,I,z,1970,50,1,32.bmp,-120,-120,33.bmp,120,-120,34.bmp,-120,120,35.bmp,120,120,10027.0,868386.4000000358,8018,yes,SM,B,32.bmp,-120,120,351859,345831,353876,347844,857084.0,851056.0,859101.0,853069.0,50
2,0,1,0,0,35,test,1,0,z,Tue Jan 21 2025 19:29:15 GMT-0600 (Central Standard Time),888555.0,I,None,2092,51,1,44.bmp,-120,-120,45.bmp,120,-120,46.bmp,-120,120,47.bmp,120,120,10138.199999988079,878416.8000000119,8018,yes,SM,B,45.bmp,120,-120,351859,345831,353876,347844,867114.0,861086.0,869131.0,863100.0,51
4,0,0,0,1,36,test,1,1,m,Tue Jan 21 2025 19:29:15 GMT-0600 (Central Standard Time),897925.0,I,m,1329,52,1,48.bmp,-120,-120,49.bmp,120,-120,50.bmp,-120,120,31.bmp,120,120,9365.899999976158,888559.1000000238,8018,yes,SM,B,48.bmp,120,120,351859,345831,353876,347844,877244.0,871228.0,879262.0,873230.0,52
3,0,0,1,0,37,test,1,1,z,Tue Jan 21 2025 19:29:15 GMT-0600 (Central Standard Time),907604.2000000477,I,z,1629,53,1,1.bmp,-120,-120,2.bmp,120,-120,3.bmp,-120,120,4.bmp,120,120,9676.200000047684,897928.0,8018,yes,SM,B,3.bmp,-120,120,351859,345831,353876,347844,886625.0,880597.0,888642.0,882611.0,53
1,1,0,0,0,37,test,1,0,m,Tue Jan 21 2025 19:29:15 GMT-0600 (Central Standard Time),917667.8000000119,I,None,2015,54,1,5.bmp,-120,-120,6.bmp,120,-120,7.bmp,-120,120,8.bmp,120,120,10060.699999988079,907607.1000000238,8018,yes,SM,B,7.bmp,-120,-120,351859,345831,353876,347844,896305.0,890276.0,898322.0,892291.0,54
4,0,0,0,1,38,test,1,1,z,Tue Jan 21 2025 19:29:15 GMT-0600 (Central Standard Time),927348.3000000119,I,z,1621,55,1,9.bmp,-120,-120,10.bmp,120,-120,11.bmp,-120,120,12.bmp,120,120,9677.399999976158,917670.9000000358,8018,yes,SM,B,12.bmp,120,120,351859,345831,353876,347844,906368.0,900340.0,908386.0,902354.0,55
2,0,1,0,0,39,test,1,1,m,Tue Jan 21 2025 19:29:15 GMT-0600 (Central Standard Time),936911.7000000477,I,m,1372,56,1,13.bmp,-120,-120,14.bmp,120,-120,15.bmp,-120,120,16.bmp,120,120,9560.400000035763,927351.3000000119,8018,yes,SM,B,13.bmp,120,-120,351859,345831,353876,347844,916048.0,910020.0,918195.0,912035.0,56
4,0,0,0,1,39,test,1,0,m,Tue Jan 21 2025 19:29:15 GMT-0600 (Central Standard Time),946458.7000000477,I,z,1497,57,1,17.bmp,-120,-120,18.bmp,120,-120,19.bmp,-120,120,20.bmp,120,120,9543.700000047684,936915.0,8018,yes,SM,B,18.bmp,120,120,351859,345831,353876,347844,925612.0,919584.0,927629.0,921598.0,57
3,0,0,1,0,40,test,1,1,z,Tue Jan 21 2025 19:29:15 GMT-0600 (Central Standard Time),956388.9000000358,I,z,1879,58,1,21.bmp,-120,-120,22.bmp,120,-120,23.bmp,-120,120,24.bmp,120,120,9927.300000011921,946461.6000000238,8018,yes,SM,B,23.bmp,-120,120,351859,345831,353876,347844,935159.0,929131.0,937177.0,931145.0,58
2,0,1,0,0,40,test,1,0,m,Tue Jan 21 2025 19:29:15 GMT-0600 (Central Standard Time),966452.5,I,None,2014,59,1,25.bmp,-120,-120,26.bmp,120,-120,27.bmp,-120,120,28.bmp,120,120,10059.399999976158,956393.1000000238,8018,yes,SM,B,28.bmp,120,-120,351859,345831,353876,347844,945090.0,939062.0,947107.0,941075.0,59
1,1,0,0,0,41,test,1,1,z,Tue Jan 21 2025 19:29:15 GMT-0600 (Central Standard Time),975632.9000000358,I,z,1116,60,1,29.bmp,-120,-120,30.bmp,120,-120,31.bmp,-120,120,32.bmp,120,120,9177.400000035763,966455.5,8018,yes,SM,B,29.bmp,-120,-120,351859,345831,353876,347844,955153.0,949125.0,957171.0,951139.0,60
2,0,1,0,0,42,test,1,1,z,Tue Jan 21 2025 19:29:15 GMT-0600 (Central Standard Time),985396.6000000238,I,z,1705,61,1,33.bmp,-120,-120,34.bmp,120,-120,35.bmp,-120,120,36.bmp,120,120,9760.800000011921,975635.8000000119,8018,yes,SM,B,34.bmp,120,-120,351859,345831,353876,347844,964334.0,958305.0,966351.0,960319.0,61
4,0,0,0,1,42,test,1,0,z,Tue Jan 21 2025 19:29:15 GMT-0600 (Central Standard Time),995460.2000000477,I,None,2014,62,1,41.bmp,-120,-120,42.bmp,120,-120,43.bmp,-120,120,44.bmp,120,120,10060.700000047684,985399.5,8018,yes,SM,B,44.bmp,120,120,351859,345831,353876,347844,974097.0,968069.0,976115.0,970083.0,62
1,1,0,0,0,42,test,1,0,m,Tue Jan 21 2025 19:29:15 GMT-0600 (Central Standard Time),1005240.4000000358,I,z,1725,63,1,45.bmp,-120,-120,46.bmp,120,-120,47.bmp,-120,120,48.bmp,120,120,9777.0,995463.4000000358,8018,yes,SM,B,45.bmp,-120,120,351859,345831,353876,347844,984161.0,978133.0,986178.0,980146.0,63
2,0,1,0,0,43,test,1,1,z,Tue Jan 21 2025 19:29:15 GMT-0600 (Central Standard Time),1014837.4000000358,I,z,1536,64,1,49.bmp,-120,-120,50.bmp,120,-120,12.bmp,-120,120,1.bmp,120,120,9594.0,1005243.4000000358,8018,yes,SM,B,50.bmp,120,-120,351859,345831,353876,347844,993941.0,987913.0,995959.0,989927.0,64
4,0,0,0,1,44,test,1,1,m,Tue Jan 21 2025 19:29:15 GMT-0600 (Central Standard Time),1024467.5,I,m,1579,65,1,2.bmp,-120,-120,3.bmp,120,-120,4.bmp,-120,120,5.bmp,120,120,9626.699999988079,1014840.8000000119,8018,yes,SM,B,4.bmp,120,120,351859,345831,353876,347844,1003538.0,997510.0,1005556.0,999524.0,65
3,0,0,1,0,45,test,1,1,m,Tue Jan 21 2025 19:29:15 GMT-0600 (Central Standard Time),1033881.3000000119,I,m,1349,66,1,6.bmp,-120,-120,7.bmp,120,-120,8.bmp,-120,120,9.bmp,120,120,9410.300000011921,1024471.0,8018,yes,SM,B,9.bmp,-120,120,351859,345831,353876,347844,1013168.0,1007140.0,1015186.0,1009154.0,66
2,0,1,0,0,46,test,1,1,m,Tue Jan 21 2025 19:29:15 GMT-0600 (Central Standard Time),1043328.6000000238,I,m,1383,67,1,37.bmp,-120,-120,38.bmp,120,-120,39.bmp,-120,120,40.bmp,120,120,9443.800000011921,1033884.8000000119,8018,yes,SM,B,39.bmp,120,-120,351859,345831,353876,347844,1022582.0,1016554.0,1024600.0,1018568.0,67
3,0,0,1,0,47,test,1,1,z,Tue Jan 21 2025 19:29:15 GMT-0600 (Central Standard Time),1052808.800000012,I,z,1415,68,1,10.bmp,-120,-120,11.bmp,120,-120,12.bmp,-120,120,13.bmp,120,120,9477.0,1043331.8000000119,8018,yes,SM,B,12.bmp,-120,120,351859,345831,353876,347844,1032029.0,1026001.0,1034048.0,1028015.0,68
1,1,0,0,0,48,test,1,1,m,Tue Jan 21 2025 19:29:15 GMT-0600 (Central Standard Time),1062590.5,I,m,1728,69,1,14.bmp,-120,-120,15.bmp,120,-120,16.bmp,-120,120,17.bmp,120,120,9778.899999976158,1052811.6000000238,8018,yes,SM,B,15.bmp,-120,-120,351859,345831,353876,347844,1041510.0,1035481.0,1043527.0,1037496.0,69
2,0,1,0,0,49,test,1,1,m,Tue Jan 21 2025 19:29:15 GMT-0600 (Central Standard Time),1071752.9000000358,I,m,1100,70,1,18.bmp,-120,-120,19.bmp,120,-120,20.bmp,-120,120,21.bmp,120,120,9159.199999988079,1062593.7000000477,8018,yes,SM,B,20.bmp,120,-120,351859,345831,353876,347844,1051290.0,1045263.0,1053307.0,1047275.0,70
4,0,0,0,1,49,test,1,0,z,Tue Jan 21 2025 19:29:15 GMT-0600 (Central Standard Time),1081816.6000000238,I,None,2015,71,1,22.bmp,-120,-120,23.bmp,120,-120,24.bmp,-120,120,25.bmp,120,120,10060.899999976158,1071755.7000000477,8018,yes,SM,B,25.bmp,120,120,351859,345831,353876,347844,1060454.0,1054425.0,1062471.0,1056439.0,71
1,1,0,0,0,50,test,1,1,z,Tue Jan 21 2025 19:29:15 GMT-0600 (Central Standard Time),1091080.300000012,I,z,1201,72,1,26.bmp,-120,-120,27.bmp,120,-120,28.bmp,-120,120,29.bmp,120,120,9260.099999964237,1081820.2000000477,8018,yes,SM,B,26.bmp,-120,-120,351859,345831,353876,347844,1070517.0,1064489.0,1072535.0,1066503.0,72
2,0,1,0,0,50,test,1,0,z,Tue Jan 21 2025 19:29:15 GMT-0600 (Central Standard Time),1101027.2000000477,I,m,1889,73,1,30.bmp,-120,-120,31.bmp,120,-120,32.bmp,-120,120,33.bmp,120,120,9943.900000035763,1091083.300000012,8018,yes,SM,B,31.bmp,120,-120,351859,345831,353876,347844,1079781.0,1073753.0,1081798.0,1075766.0,73
4,0,0,0,1,51,test,1,1,m,Tue Jan 21 2025 19:29:15 GMT-0600 (Central Standard Time),1111073.9000000358,I,m,1982,74,1,34.bmp,-120,-120,35.bmp,120,-120,36.bmp,-120,120,37.bmp,120,120,10043.300000011921,1101030.6000000238,8018,yes,SM,B,36.bmp,120,120,351859,345831,353876,347844,1089728.0,1083700.0,1091745.0,1085714.0,74
2,0,1,0,0,51,test,1,0,m,Tue Jan 21 2025 19:29:15 GMT-0600 (Central Standard Time),1121137.300000012,I,None,2014,75,1,38.bmp,-120,-120,39.bmp,120,-120,40.bmp,-120,120,41.bmp,120,120,10060.0,1111077.300000012,8018,yes,SM,B,41.bmp,120,-120,351859,345831,353876,347844,1099775.0,1093747.0,1101792.0,1095760.0,75
1,1,0,0,0,52,test,1,1,z,Tue Jan 21 2025 19:29:15 GMT-0600 (Central Standard Time),1130167.9000000358,I,z,967,76,1,42.bmp,-120,-120,43.bmp,120,-120,44.bmp,-120,120,45.bmp,120,120,9027.600000023842,1121140.300000012,8018,yes,SM,B,42.bmp,-120,-120,351859,345831,353876,347844,1109838.0,1103809.0,1111856.0,1105824.0,76
3,0,0,1,0,53,test,1,1,z,Tue Jan 21 2025 19:29:15 GMT-0600 (Central Standard Time),1139731.7000000477,I,z,1505,77,1,50.bmp,-120,-120,11.bmp,120,-120,1.bmp,-120,120,2.bmp,120,120,9561.0,1130170.7000000477,8018,yes,SM,B,1.bmp,-120,120,351859,345831,353876,347844,1118869.0,1112840.0,1120886.0,1114854.0,77
1,1,0,0,0,54,test,1,1,m,Tue Jan 21 2025 19:29:15 GMT-0600 (Central Standard Time),1149679.6000000238,I,m,1894,78,1,46.bmp,-120,-120,47.bmp,120,-120,48.bmp,-120,120,49.bmp,120,120,9945.0,1139734.6000000238,8018,yes,SM,B,47.bmp,-120,-120,351859,345831,353876,347844,1128432.0,1122404.0,1130449.0,1124418.0,78
4,0,0,0,1,55,test,1,1,m,Tue Jan 21 2025 19:29:15 GMT-0600 (Central Standard Time),1158942.300000012,I,m,1210,79,1,7.bmp,-120,-120,8.bmp,120,-120,9.bmp,-120,120,10.bmp,120,120,9259.399999976158,1149682.9000000358,8018,yes,SM,B,7.bmp,120,120,351859,345831,353876,347844,1138379.0,1132352.0,1140397.0,1134365.0,79
3,0,0,1,0,56,test,1,1,m,Tue Jan 21 2025 19:29:15 GMT-0600 (Central Standard Time),1168322.7000000477,I,m,1330,80,1,3.bmp,-120,-120,4.bmp,120,-120,5.bmp,-120,120,6.bmp,120,120,9377.200000047684,1158945.5,8018,yes,SM,B,6.bmp,-120,120,351859,345831,353876,347844,1147643.0,1141615.0,1149660.0,1143629.0,80
