acc_sum,block_c,block_dur,condition,correct,correct_response,countdown,datetime,endtime,project,response,response_time,response_time_test1_response,response_time_test2_response,row_sel,same,session_number,start_end,starttime,stim1,stim2,subject_id,task,task_vers,time_test1,time_test2,trial
1,1,0.0,prac,1,m,30000.0,Tue Nov 12 2024 15:51:34 GMT-0500 (Eastern Standard Time),36506.90000009537,I,m,1639,,,3,no,1,3173.5999999046326,33333.300000190735,QHZXPC,QHZWPC,9003,LC,A,,,1
2,1,0.0,prac,1,m,30000.0,Tue Nov 12 2024 15:51:34 GMT-0500 (Eastern Standard Time),39307.40000009537,I,m,1271,,,1,no,1,2789.4000000953674,36518.0,RNV,FNV,9003,LC,A,,,2
2,1,0.0,prac,0,z,30000.0,Tue Nov 12 2024 15:51:34 GMT-0500 (Eastern Standard Time),43323.800000190735,I,m,2489,,,6,yes,1,4007.0999999046326,39316.7000002861,CSDBFPHXZ,CSDBFPHXZ,9003,LC,A,,,3
3,1,0.0,prac,1,z,30000.0,Tue Nov 12 2024 15:51:34 GMT-0500 (Eastern Standard Time),46057.10000038147,I,z,1192,,,4,yes,1,2723.800000190735,43333.300000190735,RSM,RSM,9003,LC,A,,,4
4,1,0.0,prac,1,m,30000.0,Tue Nov 12 2024 15:51:34 GMT-0500 (Eastern Standard Time),49390.5,I,m,1801,,,5,no,1,3323.3999996185303,46067.10000038147,LNDPRSKQB,LNDPRSJQB,9003,LC,A,,,5
4,1,0.0,prac,0,z,30000.0,Tue Nov 12 2024 15:51:34 GMT-0500 (Eastern Standard Time),52573.60000038147,I,m,1645,,,2,yes,1,3167.800000190735,49405.800000190735,NBGFSM,NBGFSM,9003,LC,A,,,6
1,1,1.0329999923706055,test,1,m,28967.000007629395,Tue Nov 12 2024 15:51:34 GMT-0500 (Eastern Standard Time),63873.7000002861,I,m,1025,1025,,1,no,1,1029.8000001907349,62843.90000009537,HCF,RCF,9003,LC,A,60493,,1
2,1,2.933000087738037,test,1,m,27066.999912261963,Tue Nov 12 2024 15:51:34 GMT-0500 (Eastern Standard Time),65773.80000019073,I,m,1878,1878,,2,no,1,1895.5999999046326,63878.2000002861,QTPRJX,QTPNJX,9003,LC,A,61528,,2
3,1,5.334000110626221,test,1,m,24665.99988937378,Tue Nov 12 2024 15:51:34 GMT-0500 (Eastern Standard Time),68174.0,I,m,2377,2377,,3,no,1,2393.8999996185303,65780.10000038147,MZDYGVGKQ,MZDYGLBKQ,9003,LC,A,63430,,3
4,1,6.450000047683716,test,1,m,23549.999952316284,Tue Nov 12 2024 15:51:34 GMT-0500 (Eastern Standard Time),69290.7000002861,I,m,1091,1091,,4,no,1,1105.2000002861023,68185.5,FQTNMK,JQTNMK,9003,LC,A,65836,,4
5,1,7.683000087738037,test,1,z,22316.999912261963,Tue Nov 12 2024 15:51:34 GMT-0500 (Eastern Standard Time),70523.90000009537,I,z,1211,1211,,5,yes,1,1225.6999998092651,69298.2000002861,CLJ,CLJ,9003,LC,A,66948,,5
5,1,10.384000062942505,test,0,m,19615.999937057495,Tue Nov 12 2024 15:51:34 GMT-0500 (Eastern Standard Time),73224.10000038147,I,z,2682,2682,,6,no,1,2693.0,70531.10000038147,JGDMNSVPW,JGZMNSVPW,9003,LC,A,68181,,6
6,1,12.717000007629395,test,1,z,17282.999992370605,Tue Nov 12 2024 15:51:34 GMT-0500 (Eastern Standard Time),75557.30000019073,I,z,2318,2318,,7,yes,1,2325.5,73231.80000019073,FPTVHKCBJ,FPTVHKCBJ,9003,LC,A,70881,,7
7,1,13.700000047683716,test,1,m,16299.999952316284,Tue Nov 12 2024 15:51:34 GMT-0500 (Eastern Standard Time),76540.5,I,m,960,960,,8,no,1,975.0,75565.5,XRPZBS,ZRPBDH,9003,LC,A,73215,,8
8,1,15.483000040054321,test,1,m,14516.999959945679,Tue Nov 12 2024 15:51:34 GMT-0500 (Eastern Standard Time),78323.60000038147,I,m,1769,1769,,9,no,1,1775.8000001907349,76547.80000019073,ZSQ,ZSP,9003,LC,A,74197,,9
9,1,17.382999897003174,test,1,z,12617.000102996826,Tue Nov 12 2024 15:51:34 GMT-0500 (Eastern Standard Time),80223.7000002861,I,z,1892,1892,,10,yes,1,1894.4000000953674,78329.30000019073,MPZRXL,MPZRXL,9003,LC,A,75979,,10
10,1,18.549999952316284,test,1,m,11450.000047683716,Tue Nov 12 2024 15:51:34 GMT-0500 (Eastern Standard Time),81390.10000038147,I,m,1153,1153,,11,no,1,1155.2000002861023,80234.90000009537,KJH,KRH,9003,LC,A,77885,,11
11,1,20.867000102996826,test,1,z,9132.999897003174,Tue Nov 12 2024 15:51:34 GMT-0500 (Eastern Standard Time),83707.30000019073,I,z,2299,2299,,12,yes,1,2313.199999809265,81394.10000038147,SMNHVTFCB,SMNHVTFCB,9003,LC,A,79044,,12
12,1,22.84999990463257,test,1,z,7150.000095367432,Tue Nov 12 2024 15:51:34 GMT-0500 (Eastern Standard Time),85690.60000038147,I,z,1962,1962,,13,yes,1,1975.3000001907349,83715.30000019073,KJWTQF,KJWTQF,9003,LC,A,81365,,13
13,1,25.34999990463257,test,1,z,4650.000095367432,Tue Nov 12 2024 15:51:34 GMT-0500 (Eastern Standard Time),88190.5,I,z,2471,2471,,14,yes,1,2488.8999996185303,85701.60000038147,CHDKQGLMB,CHDKQGLMB,9003,LC,A,83352,,14
14,1,27.16700005531311,test,1,z,2832.9999446868896,Tue Nov 12 2024 15:51:34 GMT-0500 (Eastern Standard Time),90007.30000019073,I,z,1796,1796,,15,yes,1,1806.0999999046326,88201.2000002861,GHQ,GHQ,9003,LC,A,85851,,15
15,1,29.299999952316284,test,1,z,700.0000476837158,Tue Nov 12 2024 15:51:34 GMT-0500 (Eastern Standard Time),92140.60000038147,I,z,2111,2111,,16,yes,1,2125.9000000953674,90014.7000002861,GFVMRH,GFVMRH,9003,LC,A,87664,,16
15,1,30.01699995994568,test,0,z,-16.99995994567871,Tue Nov 12 2024 15:51:34 GMT-0500 (Eastern Standard Time),92857.30000019073,I,None,708,708,,17,yes,1,708.9000000953674,92148.40000009537,RSM,RSM,9003,LC,A,89798,,17
1,2,1.815999984741211,test,1,z,28184.00001525879,Tue Nov 12 2024 15:51:34 GMT-0500 (Eastern Standard Time),101390.7000002861,I,z,1802,,1802.0,1,yes,1,9242.300000190735,92148.40000009537,PRDBZTYFN,PRDBZTYFN,9003,LC,A,,97237.0,1
2,2,3.883000135421753,test,1,m,26116.999864578247,Tue Nov 12 2024 15:51:34 GMT-0500 (Eastern Standard Time),103457.2000002861,I,m,2057,,2057.0,2,no,1,11308.800000190735,92148.40000009537,NCWJDZ,NCMJDZ,9003,LC,A,,99046.0,2
3,2,4.983000040054321,test,1,m,25016.99995994568,Tue Nov 12 2024 15:51:34 GMT-0500 (Eastern Standard Time),104557.2000002861,I,m,1076,,1076.0,3,no,1,12408.800000190735,92148.40000009537,KHW,KBW,9003,LC,A,,101114.0,3
3,2,6.348999977111816,test,0,m,23651.000022888184,Tue Nov 12 2024 15:51:34 GMT-0500 (Eastern Standard Time),105923.80000019073,I,z,1353,,1353.0,4,no,1,13775.400000095367,92148.40000009537,ZRBGMF,ZRBCMF,9003,LC,A,,102214.0,4
4,2,7.449000120162964,test,1,m,22550.999879837036,Tue Nov 12 2024 15:51:34 GMT-0500 (Eastern Standard Time),107023.90000009537,I,m,1090,,1090.0,5,no,1,14875.5,92148.40000009537,BTH,BYH,9003,LC,A,,103581.0,5
5,2,9.315999984741211,test,1,z,20684.00001525879,Tue Nov 12 2024 15:51:34 GMT-0500 (Eastern Standard Time),108890.60000038147,I,z,1846,,1846.0,6,yes,1,16742.200000286102,92148.40000009537,XWKQRYCNZ,XWKQRYCNZ,9003,LC,A,,104681.0,6
6,2,11.199000120162964,test,1,z,18800.999879837036,Tue Nov 12 2024 15:51:34 GMT-0500 (Eastern Standard Time),110773.90000009537,I,z,1866,,1866.0,7,yes,1,18625.5,92148.40000009537,HNPDLK,HNPDLK,9003,LC,A,,106549.0,7
6,2,13.133000135421753,test,0,m,16866.999864578247,Tue Nov 12 2024 15:51:34 GMT-0500 (Eastern Standard Time),112707.30000019073,I,z,1917,,1917.0,8,no,1,20558.900000095367,92148.40000009537,WMQTRSGLZ,WMQTRZGLZ,9003,LC,A,,108434.0,8
7,2,14.33299994468689,test,1,z,15667.00005531311,Tue Nov 12 2024 15:51:34 GMT-0500 (Eastern Standard Time),113907.40000009537,I,z,1185,,1185.0,9,yes,1,21759.0,92148.40000009537,JPN,JPN,9003,LC,A,,110366.0,9
8,2,15.565999984741211,test,1,m,14434.000015258789,Tue Nov 12 2024 15:51:34 GMT-0500 (Eastern Standard Time),115140.60000038147,I,m,1219,,1219.0,10,no,1,22992.200000286102,92148.40000009537,QLXSVT,QLNSVT,9003,LC,A,,111564.0,10
9,2,17.1489999294281,test,1,z,12851.0000705719,Tue Nov 12 2024 15:51:34 GMT-0500 (Eastern Standard Time),116723.80000019073,I,z,1570,,1570.0,11,yes,1,24575.400000095367,92148.40000009537,YXHKZVFPB,YXHKZVFPD,9003,LC,A,,112797.0,11
10,2,18.383000135421753,test,1,z,11616.999864578247,Tue Nov 12 2024 15:51:34 GMT-0500 (Eastern Standard Time),117957.5,I,z,1219,,1219.0,12,yes,1,25809.099999904633,92148.40000009537,RJZ,RJZ,9003,LC,A,,114380.0,12
11,2,19.782999992370605,test,1,z,10217.000007629395,Tue Nov 12 2024 15:51:34 GMT-0500 (Eastern Standard Time),119357.2000002861,I,z,1377,,1377.0,13,yes,1,27208.800000190735,92148.40000009537,CLNPZD,CLNPZD,9003,LC,A,,115614.0,13
12,2,22.299999952316284,test,1,m,7700.000047683716,Tue Nov 12 2024 15:51:34 GMT-0500 (Eastern Standard Time),121874.0,I,m,2505,,2505.0,14,no,1,29725.599999904633,92148.40000009537,DCBPFHXYJ,DCBPFHLYJ,9003,LC,A,,117014.0,14
13,2,23.199000120162964,test,1,m,6800.999879837036,Tue Nov 12 2024 15:51:34 GMT-0500 (Eastern Standard Time),122773.60000038147,I,m,879,,879.0,15,no,1,30625.200000286102,92148.40000009537,MWR,ZWR,9003,LC,A,,119535.0,15
14,2,24.683000087738037,test,1,z,5316.999912261963,Tue Nov 12 2024 15:51:34 GMT-0500 (Eastern Standard Time),124257.0,I,z,1473,,1473.0,16,yes,1,32108.599999904633,92148.40000009537,LPKXZW,LPKXZW,9003,LC,A,,120430.0,16
15,2,25.66600012779236,test,1,m,4333.999872207642,Tue Nov 12 2024 15:51:34 GMT-0500 (Eastern Standard Time),125240.60000038147,I,m,961,,961.0,17,no,1,33092.2000002861,92148.40000009537,TZL,TZQ,9003,LC,A,,121918.0,17
16,2,27.65000009536743,test,1,z,2349.9999046325684,Tue Nov 12 2024 15:51:34 GMT-0500 (Eastern Standard Time),127223.90000009537,I,z,1967,,1967.0,18,yes,1,35075.5,92148.40000009537,CSDBFPHXZ,CSDBFPHXZ,9003,LC,A,,122896.0,18
17,2,29.25,test,1,m,750.0,Tue Nov 12 2024 15:51:34 GMT-0500 (Eastern Standard Time),128824.0,I,m,1581,,1581.0,19,no,1,36675.59999990463,92148.40000009537,QHZXPC,QHZWPC,9003,LC,A,,124882.0,19
17,2,30.016000032424927,test,0,z,-16.000032424926758,Tue Nov 12 2024 15:51:34 GMT-0500 (Eastern Standard Time),129590.60000038147,I,None,758,,758.0,20,yes,1,37442.2000002861,92148.40000009537,GZN,GZN,9003,LC,A,,126481.0,20
