acc_sum,block,block_c,condition,correct,correct_response,datetime,endtime,flanker,jitter,project,response,response_test_buffer_response,response_test_target_response,response_time,response_time_test_buffer_response,response_time_test_target_response,row_sel,session_number,start_end,starttime,subject_id,target,task,task_vers,time_test_buffer,time_test_buffer_response,time_test_constants,time_test_flanker,time_test_jitter,time_test_logger,time_test_target,time_test_target_response,time_test_variables,trial
0,prac,1,inc,0,m,Fri Feb 28 2025 16:00:06 GMT-0600 (Central Standard Time),130145.6000000001,brutal,1100,O,None,,,1799,,,8,1,5160.799999999814,124984.80000000028,7073,window,AF,A,,,,,,,,,,1
1,prac,1,con,1,z,Fri Feb 28 2025 16:00:06 GMT-0600 (Central Standard Time),133178.30000000028,brutal,800,O,z,,,930,,,13,1,3027.7000000001863,130150.6000000001,7073,brutal,AF,A,,,,,,,,,,2
2,prac,1,con,1,z,Fri Feb 28 2025 16:00:06 GMT-0600 (Central Standard Time),136127.30000000028,rage,1000,O,z,,,543,,,15,1,2944.4000000003725,133182.8999999999,7073,rage,AF,A,,,,,,,,,,3
3,prac,1,inc,1,z,Fri Feb 28 2025 16:00:06 GMT-0600 (Central Standard Time),139242.7000000002,film,900,O,z,,,914,,,14,1,3110.899999999907,136131.80000000028,7073,hate,AF,A,,,,,,,,,,4
4,prac,1,con,1,m,Fri Feb 28 2025 16:00:06 GMT-0600 (Central Standard Time),142275.5,jacket,800,O,m,,,930,,,5,1,3028.0,139247.5,7073,jacket,AF,A,,,,,,,,,,5
5,prac,1,con,1,z,Fri Feb 28 2025 16:00:06 GMT-0600 (Central Standard Time),145107.7000000002,elated,800,O,z,,,721,,,9,1,2827.899999999907,142279.80000000028,7073,elated,AF,A,,,,,,,,,,6
6,prac,1,con,1,z,Fri Feb 28 2025 16:00:06 GMT-0600 (Central Standard Time),147907.0,love,1000,O,z,,,496,,,11,1,2794.6999999997206,145112.30000000028,7073,love,AF,A,,,,,,,,,,7
7,prac,1,con,1,m,Fri Feb 28 2025 16:00:06 GMT-0600 (Central Standard Time),150756.0,step,800,O,m,,,738,,,1,1,2844.399999999907,147911.6000000001,7073,step,AF,A,,,,,,,,,,8
8,prac,1,inc,1,m,Fri Feb 28 2025 16:00:06 GMT-0600 (Central Standard Time),153621.80000000028,elated,900,O,m,,,660,,,6,1,2861.600000000093,150760.2000000002,7073,napkin,AF,A,,,,,,,,,,9
9,prac,1,inc,1,z,Fri Feb 28 2025 16:00:06 GMT-0600 (Central Standard Time),156437.80000000028,rock,900,O,z,,,610,,,10,1,2811.4000000003725,153626.3999999999,7073,kind,AF,A,,,,,,,,,,10
10,prac,1,con,1,m,Fri Feb 28 2025 16:00:06 GMT-0600 (Central Standard Time),159469.80000000028,bell,1000,O,m,,,721,,,3,1,3027.100000000093,156442.7000000002,7073,bell,AF,A,,,,,,,,,,11
11,prac,1,inc,1,z,Fri Feb 28 2025 16:00:06 GMT-0600 (Central Standard Time),162519.1000000001,window,1100,O,z,,,635,,,16,1,3045.100000000093,159474.0,7073,temper,AF,A,,,,,,,,,,12
12,prac,1,inc,1,z,Fri Feb 28 2025 16:00:06 GMT-0600 (Central Standard Time),165501.6000000001,napkin,1100,O,z,,,578,,,12,1,2978.399999999907,162523.2000000002,7073,friend,AF,A,,,,,,,,,,13
13,prac,1,inc,1,m,Fri Feb 28 2025 16:00:06 GMT-0600 (Central Standard Time),168217.1000000001,kind,900,O,m,,,507,,,2,1,2711.5,165505.6000000001,7073,rock,AF,A,,,,,,,,,,14
14,prac,1,con,1,m,Fri Feb 28 2025 16:00:06 GMT-0600 (Central Standard Time),171317.30000000028,remote,1000,O,m,,,796,,,7,1,3095.7000000001863,168221.6000000001,7073,remote,AF,A,,,,,,,,,,15
15,prac,1,inc,1,m,Fri Feb 28 2025 16:00:06 GMT-0600 (Central Standard Time),174448.8999999999,hate,1100,O,m,,,717,,,4,1,3127.399999999907,171321.5,7073,film,AF,A,,,,,,,,,,16
1,test,1,inc,1,z,Fri Feb 28 2025 16:00:06 GMT-0600 (Central Standard Time),189677.1000000001,napkin,900,O,z,z,None,1121,922.0,199.0,6,1,2562.5,187114.6000000001,7073,elated,AF,A,182324,182324,180695,181608,180695,183257,182125,182125,183257,1
2,test,1,inc,1,z,Fri Feb 28 2025 16:00:06 GMT-0600 (Central Standard Time),191793.30000000028,film,1100,O,z,z,None,476,276.0,200.0,24,1,2110.100000000093,189683.2000000002,7073,love,AF,A,185090,185090,183263,184374,183264,185373,184890,184890,185373,2
3,test,1,con,1,z,Fri Feb 28 2025 16:00:06 GMT-0600 (Central Standard Time),193825.7000000002,temper,1000,O,z,z,None,492,292.0,200.0,59,1,2028.3000000002794,191797.3999999999,7073,temper,AF,A,187106,187106,185377,186391,185378,187406,186906,186906,187406,3
3,test,1,inc,0,m,Fri Feb 28 2025 16:00:06 GMT-0600 (Central Standard Time),195876.1000000001,hate,1100,O,z,z,None,414,215.0,199.0,88,1,2046.0,193830.1000000001,7073,bell,AF,A,189239,189239,187410,188522,187410,189456,189039,189039,189456,4
4,test,1,inc,1,m,Fri Feb 28 2025 16:00:06 GMT-0600 (Central Standard Time),197874.3999999999,kind,900,O,m,m,None,566,366.0,200.0,78,1,1993.5999999996275,195880.80000000028,7073,rock,AF,A,191088,191088,189461,190372,189461,191454,190888,190888,191454,5
5,test,1,inc,1,m,Fri Feb 28 2025 16:00:06 GMT-0600 (Central Standard Time),199940.2000000002,brutal,900,O,m,m,None,622,423.0,199.0,118,1,2062.100000000093,197878.1000000001,7073,remote,AF,A,193088,193088,191458,192371,191458,193520,192888,192888,193520,6
5,test,1,con,0,m,Fri Feb 28 2025 16:00:06 GMT-0600 (Central Standard Time),201823.0,bell,900,O,z,z,None,444,245.0,199.0,82,1,1878.6000000000931,199944.3999999999,7073,bell,AF,A,195153,195153,193524,194437,193525,195403,194954,194954,195403,7
6,test,1,inc,1,m,Fri Feb 28 2025 16:00:06 GMT-0600 (Central Standard Time),203889.1000000001,love,1000,O,m,m,None,517,318.0,199.0,79,1,2062.100000000093,201827.0,7073,rock,AF,A,197136,197136,195407,196420,195407,197469,196937,196937,197469,8
7,test,1,con,1,m,Fri Feb 28 2025 16:00:06 GMT-0600 (Central Standard Time),206038.3999999999,rock,900,O,m,m,None,711,512.0,199.0,74,1,2145.1999999997206,203893.2000000002,7073,rock,AF,A,199102,199102,197473,198386,197474,199619,198903,198903,199618,9
8,test,1,con,1,z,Fri Feb 28 2025 16:00:06 GMT-0600 (Central Standard Time),208521.2000000002,friend,800,O,z,z,None,1141,942.0,199.0,25,1,2478.5,206042.7000000002,7073,friend,AF,A,201152,201152,199623,200435,199623,202101,200952,200952,202101,10
9,test,1,con,1,m,Fri Feb 28 2025 16:00:06 GMT-0600 (Central Standard Time),210887.0,window,1000,O,m,m,None,819,619.0,200.0,123,1,2361.399999999907,208525.6000000001,7073,window,AF,A,203835,203835,202106,203118,202106,204467,203634,203634,204467,11
10,test,1,con,1,m,Fri Feb 28 2025 16:00:06 GMT-0600 (Central Standard Time),213069.7000000002,napkin,1000,O,m,m,None,646,446.0,200.0,107,1,2178.100000000093,210891.6000000001,7073,napkin,AF,A,206200,206200,204472,205485,204472,206650,206000,206000,206650,12
11,test,1,inc,1,m,Fri Feb 28 2025 16:00:06 GMT-0600 (Central Standard Time),215535.5,friend,1100,O,m,m,None,826,627.0,199.0,112,1,2461.7999999998137,213073.7000000002,7073,napkin,AF,A,208483,208483,206654,207767,206654,209116,208283,208283,209116,13
12,test,1,inc,1,m,Fri Feb 28 2025 16:00:06 GMT-0600 (Central Standard Time),217468.5,brutal,900,O,m,m,None,496,297.0,199.0,102,1,1928.8999999999069,215539.6000000001,7073,jacket,AF,A,210749,210749,209120,210032,209120,211049,210549,210549,211048,14
13,test,1,con,1,m,Fri Feb 28 2025 16:00:06 GMT-0600 (Central Standard Time),219617.80000000028,jacket,1100,O,m,m,None,500,300.0,200.0,100,1,2145.100000000093,217472.7000000002,7073,jacket,AF,A,212882,212882,211053,212165,211053,213198,212681,212681,213198,15
14,test,1,inc,1,z,Fri Feb 28 2025 16:00:06 GMT-0600 (Central Standard Time),222217.1000000001,film,1100,O,z,z,None,950,751.0,199.0,16,1,2595.5,219621.6000000001,7073,kind,AF,A,215031,215031,213202,214314,213202,215797,214831,214831,215797,16
15,test,1,inc,1,z,Fri Feb 28 2025 16:00:06 GMT-0600 (Central Standard Time),224382.80000000028,step,800,O,z,z,None,819,620.0,199.0,13,1,2161.600000000093,222221.2000000002,7073,kind,AF,A,217330,217330,215801,216614,215802,217963,217130,217130,217963,17
16,test,1,inc,1,m,Fri Feb 28 2025 16:00:06 GMT-0600 (Central Standard Time),226665.5,kind,900,O,m,m,None,841,642.0,199.0,86,1,2278.6999999997206,224386.80000000028,7073,bell,AF,A,219596,219596,217967,218880,217967,220246,219396,219396,220246,18
17,test,1,inc,1,z,Fri Feb 28 2025 16:00:06 GMT-0600 (Central Standard Time),229231.2000000002,remote,1000,O,z,z,None,1027,697.0,330.0,63,1,2561.8000000002794,226669.3999999999,7073,temper,AF,A,222109,222109,220249,221262,220250,222811,221779,221779,222811,19
18,test,1,con,1,z,Fri Feb 28 2025 16:00:06 GMT-0600 (Central Standard Time),231663.80000000028,friend,1000,O,z,z,None,885,686.0,199.0,27,1,2428.7000000001863,229235.1000000001,7073,friend,AF,A,224544,224544,222815,223828,222815,225244,224345,224345,225244,20
19,test,1,inc,1,m,Fri Feb 28 2025 16:00:06 GMT-0600 (Central Standard Time),234179.80000000028,friend,1100,O,m,m,None,881,681.0,200.0,120,1,2511.600000000093,231668.2000000002,7073,remote,AF,A,227077,227077,225248,226361,225249,227760,226877,226877,227760,21
20,test,1,con,1,m,Fri Feb 28 2025 16:00:06 GMT-0600 (Central Standard Time),236262.5,window,800,O,m,m,None,745,545.0,200.0,121,1,2077.1999999997206,234185.30000000028,7073,window,AF,A,229293,229293,227765,228576,227766,229843,229093,229093,229842,22
21,test,1,con,1,m,Fri Feb 28 2025 16:00:06 GMT-0600 (Central Standard Time),238611.7000000002,remote,800,O,m,m,None,1013,814.0,199.0,113,1,2345.399999999907,236266.30000000028,7073,remote,AF,A,231376,231376,229846,230659,229847,232192,231176,231176,232192,23
22,test,1,inc,1,z,Fri Feb 28 2025 16:00:06 GMT-0600 (Central Standard Time),240994.3999999999,step,800,O,z,z,None,1040,841.0,199.0,45,1,2378.5999999996275,238615.80000000028,7073,hate,AF,A,233725,233725,232196,233008,232196,234575,233525,233525,234574,24
23,test,1,inc,1,z,Fri Feb 28 2025 16:00:06 GMT-0600 (Central Standard Time),243228.1000000001,jacket,800,O,z,z,None,899,699.0,200.0,61,1,2229.399999999907,240998.7000000002,7073,temper,AF,A,236107,236107,234579,235391,234579,236808,235907,235907,236808,25
24,test,1,inc,1,z,Fri Feb 28 2025 16:00:06 GMT-0600 (Central Standard Time),245442.7000000002,jacket,800,O,z,z,None,881,682.0,199.0,5,1,2210.5,243232.2000000002,7073,elated,AF,A,238340,238340,236812,237624,236813,239023,238141,238141,239023,26
25,test,1,con,1,m,Fri Feb 28 2025 16:00:06 GMT-0600 (Central Standard Time),247592.2000000002,rock,800,O,m,m,None,802,602.0,200.0,73,1,2145.600000000093,245446.6000000001,7073,rock,AF,A,240556,240556,239027,239840,239027,241172,240356,240356,241172,27
26,test,1,con,1,z,Fri Feb 28 2025 16:00:06 GMT-0600 (Central Standard Time),249841.6000000001,temper,800,O,z,z,None,907,708.0,199.0,57,1,2245.2999999998137,247596.30000000028,7073,temper,AF,A,242706,242706,241176,241989,241177,243422,242506,242506,243422,28
27,test,1,con,1,m,Fri Feb 28 2025 16:00:06 GMT-0600 (Central Standard Time),252274.1000000001,bell,1000,O,m,m,None,898,699.0,199.0,83,1,2428.600000000093,249845.5,7073,bell,AF,A,245155,245155,243426,244438,243426,245854,244955,244955,245854,29
28,test,1,inc,1,m,Fri Feb 28 2025 16:00:06 GMT-0600 (Central Standard Time),254656.7000000002,love,1000,O,m,m,None,842,643.0,199.0,87,1,2378.600000000093,252278.1000000001,7073,bell,AF,A,247587,247587,245858,246871,245858,248237,247388,247388,248237,30
29,test,1,inc,1,m,Fri Feb 28 2025 16:00:06 GMT-0600 (Central Standard Time),257022.5,kind,900,O,m,m,None,928,728.0,200.0,70,1,2362.100000000093,254660.3999999999,7073,step,AF,A,249870,249870,248240,249153,248241,250603,249670,249670,250603,31
30,test,1,inc,1,m,Fri Feb 28 2025 16:00:06 GMT-0600 (Central Standard Time),259188.3999999999,brutal,900,O,m,m,None,729,530.0,199.0,126,1,2161.6999999997206,257026.7000000002,7073,window,AF,A,252236,252236,250607,251519,250607,252768,252036,252036,252768,32
31,test,1,inc,1,z,Fri Feb 28 2025 16:00:06 GMT-0600 (Central Standard Time),261621.1000000001,rock,900,O,z,z,None,996,796.0,200.0,54,1,2428.7000000001863,259192.3999999999,7073,rage,AF,A,254402,254402,252772,253685,252773,255201,254202,254202,255201,33
32,test,1,con,1,m,Fri Feb 28 2025 16:00:06 GMT-0600 (Central Standard Time),264087.0,window,1100,O,m,m,None,827,628.0,199.0,124,1,2462.1999999997206,261624.80000000028,7073,window,AF,A,257034,257034,255205,256318,255205,257667,256835,256835,257667,34
33,test,1,con,1,z,Fri Feb 28 2025 16:00:06 GMT-0600 (Central Standard Time),266419.5,hate,900,O,z,z,None,897,698.0,199.0,42,1,2328.7999999998137,264090.7000000002,7073,hate,AF,A,259300,259300,257671,258584,257671,260000,259101,259101,259999,35
34,test,1,con,1,z,Fri Feb 28 2025 16:00:06 GMT-0600 (Central Standard Time),268719.3000000003,brutal,800,O,z,z,None,953,753.0,200.0,33,1,2296.0,266423.3000000003,7073,brutal,AF,A,261533,261533,260003,260816,260004,262299,261333,261333,262299,36
35,test,1,con,1,z,Fri Feb 28 2025 16:00:06 GMT-0600 (Central Standard Time),271001.8000000003,elated,900,O,z,z,None,834,634.0,200.0,2,1,2278.8000000002794,268723.0,7073,elated,AF,A,263932,263932,262303,263216,262303,264582,263732,263732,264582,37
36,test,1,inc,1,m,Fri Feb 28 2025 16:00:06 GMT-0600 (Central Standard Time),273534.1000000001,friend,1100,O,m,m,None,886,687.0,199.0,128,1,2528.5,271005.6000000001,7073,window,AF,A,266415,266415,264586,265698,264586,267114,266215,266215,267114,38
37,test,1,con,1,z,Fri Feb 28 2025 16:00:06 GMT-0600 (Central Standard Time),275950.0,hate,1000,O,z,z,None,878,679.0,199.0,43,1,2411.899999999907,273538.1000000001,7073,hate,AF,A,268847,268847,267118,268131,267118,269530,268648,268648,269530,39
38,test,1,con,1,m,Fri Feb 28 2025 16:00:06 GMT-0600 (Central Standard Time),278149.3000000003,step,800,O,m,m,None,862,663.0,199.0,65,1,2195.2000000001863,275954.1000000001,7073,step,AF,A,271063,271063,269534,270347,269534,271729,270864,270864,271729,40
39,test,1,inc,1,z,Fri Feb 28 2025 16:00:06 GMT-0600 (Central Standard Time),280682.1000000001,window,1100,O,z,z,None,891,691.0,200.0,64,1,2527.399999999907,278154.7000000002,7073,temper,AF,A,273563,273563,271735,272846,271735,274262,273362,273362,274262,41
40,test,1,con,1,m,Fri Feb 28 2025 16:00:06 GMT-0600 (Central Standard Time),283047.8999999999,step,1000,O,m,m,None,819,619.0,200.0,67,1,2361.899999999907,280686.0,7073,step,AF,A,275995,275995,274266,275279,274266,276628,275795,275795,276628,42
41,test,1,con,1,m,Fri Feb 28 2025 16:00:06 GMT-0600 (Central Standard Time),285463.7000000002,napkin,1100,O,m,m,None,777,577.0,200.0,108,1,2412.100000000093,283051.6000000001,7073,napkin,AF,A,278461,278461,276632,277745,276632,279044,278261,278261,279044,43
42,test,1,inc,1,m,Fri Feb 28 2025 16:00:06 GMT-0600 (Central Standard Time),287663.1000000001,elated,800,O,m,m,None,860,661.0,199.0,125,1,2195.399999999907,285467.7000000002,7073,window,AF,A,280577,280577,279048,279861,279048,281243,280377,280377,281243,44
43,test,1,inc,1,z,Fri Feb 28 2025 16:00:06 GMT-0600 (Central Standard Time),290129.0,bell,1000,O,z,z,None,917,718.0,199.0,23,1,2462.100000000093,287666.8999999999,7073,love,AF,A,282976,282976,281247,282260,281247,283709,282777,282777,283709,45
44,test,1,inc,1,m,Fri Feb 28 2025 16:00:06 GMT-0600 (Central Standard Time),292295.0,rage,800,O,m,m,None,828,628.0,200.0,77,1,2162.399999999907,290132.6000000001,7073,rock,AF,A,285242,285242,283713,284526,283713,285875,285042,285042,285875,46
45,test,1,con,1,z,Fri Feb 28 2025 16:00:06 GMT-0600 (Central Standard Time),294594.3000000003,brutal,900,O,z,z,None,858,658.0,200.0,34,1,2295.2000000001863,292299.1000000001,7073,brutal,AF,A,287508,287508,285879,286791,285880,288174,287308,287308,288174,47
46,test,1,con,1,m,Fri Feb 28 2025 16:00:06 GMT-0600 (Central Standard Time),296810.3999999999,film,800,O,m,m,None,866,667.0,199.0,89,1,2212.399999999907,294598.0,7073,film,AF,A,289707,289707,288178,288991,288178,290390,289508,289508,290390,48
47,test,1,inc,1,m,Fri Feb 28 2025 16:00:06 GMT-0600 (Central Standard Time),299122.6000000001,temper,1000,O,m,m,None,779,579.0,200.0,127,1,2308.399999999907,296814.2000000002,7073,window,AF,A,292123,292123,290394,291407,290395,292703,291923,291923,292703,49
48,test,1,inc,1,z,Fri Feb 28 2025 16:00:06 GMT-0600 (Central Standard Time),301658.3999999999,window,1100,O,z,z,None,899,699.0,200.0,32,1,2531.6999999997206,299126.7000000002,7073,friend,AF,A,294539,294539,292707,293822,292707,295239,294339,294339,295238,50
49,test,1,con,1,z,Fri Feb 28 2025 16:00:06 GMT-0600 (Central Standard Time),304091.3999999999,rage,1100,O,z,z,None,789,590.0,199.0,52,1,2429.1999999997206,301662.2000000002,7073,rage,AF,A,297072,297072,295242,296355,295243,297672,296872,296872,297671,51
50,test,1,con,1,m,Fri Feb 28 2025 16:00:06 GMT-0600 (Central Standard Time),306373.8000000003,jacket,800,O,m,m,None,936,737.0,199.0,97,1,2278.5,304095.3000000003,7073,jacket,AF,A,299204,299205,297675,298488,297676,299954,299005,299005,299954,52
51,test,1,con,1,m,Fri Feb 28 2025 16:00:06 GMT-0600 (Central Standard Time),308873.1000000001,remote,1000,O,m,m,None,951,751.0,200.0,115,1,2495.7000000001863,306377.3999999999,7073,remote,AF,A,301687,301687,299957,300970,299958,302453,301487,301487,302453,53
52,test,1,inc,1,m,Fri Feb 28 2025 16:00:06 GMT-0600 (Central Standard Time),311205.5,friend,1100,O,m,m,None,695,496.0,199.0,104,1,2328.1999999997206,308877.3000000003,7073,jacket,AF,A,304286,304286,302457,303570,302458,304786,304087,304087,304786,54
53,test,1,inc,1,m,Fri Feb 28 2025 16:00:06 GMT-0600 (Central Standard Time),313355.0,temper,1000,O,m,m,None,606,407.0,199.0,119,1,2145.399999999907,311209.6000000001,7073,remote,AF,A,306519,306519,304790,305802,304790,306935,306319,306319,306935,55
54,test,1,inc,1,z,Fri Feb 28 2025 16:00:06 GMT-0600 (Central Standard Time),315870.8000000003,film,1100,O,z,z,None,878,678.0,200.0,48,1,2512.2000000001863,313358.6000000001,7073,hate,AF,A,308768,308768,306939,308052,306939,309451,308568,308568,309451,56
55,test,1,inc,1,z,Fri Feb 28 2025 16:00:06 GMT-0600 (Central Standard Time),318370.0,bell,1000,O,z,z,None,958,758.0,200.0,15,1,2495.1999999997206,315874.8000000003,7073,kind,AF,A,311184,311184,309455,310468,309455,311950,310984,310984,311950,57
56,test,1,inc,1,m,Fri Feb 28 2025 16:00:06 GMT-0600 (Central Standard Time),320686.0,elated,800,O,m,m,None,978,778.0,200.0,117,1,2312.100000000093,318373.8999999999,7073,remote,AF,A,313484,313484,311954,312767,311954,314266,313283,313283,314266,58
57,test,1,con,1,m,Fri Feb 28 2025 16:00:06 GMT-0600 (Central Standard Time),323118.8000000003,remote,1100,O,m,m,None,786,455.0,331.0,116,1,2428.7000000001863,320690.1000000001,7073,remote,AF,A,316230,316231,314270,315383,314270,316699,315899,315899,316699,59
58,test,1,inc,1,m,Fri Feb 28 2025 16:00:06 GMT-0600 (Central Standard Time),325334.6000000001,brutal,900,O,m,m,None,770,570.0,200.0,110,1,2212.2000000001863,323122.3999999999,7073,napkin,AF,A,318332,318332,316702,317615,316703,318915,318132,318132,318915,60
59,test,1,inc,1,z,Fri Feb 28 2025 16:00:06 GMT-0600 (Central Standard Time),327600.5,step,800,O,z,z,None,918,718.0,200.0,53,1,2262.0,325338.5,7073,rage,AF,A,320448,320448,318919,319731,318919,321181,320248,320248,321180,61
60,test,1,inc,1,z,Fri Feb 28 2025 16:00:06 GMT-0600 (Central Standard Time),329983.2000000002,napkin,900,O,z,z,None,943,744.0,199.0,30,1,2378.2000000001863,327605.0,7073,friend,AF,A,322814,322814,321185,322097,321185,323563,322614,322614,323563,62
61,test,1,inc,1,z,Fri Feb 28 2025 16:00:06 GMT-0600 (Central Standard Time),332465.7000000002,remote,1000,O,z,z,None,940,725.0,215.0,31,1,2478.600000000093,329987.1000000001,7073,friend,AF,A,325313,325313,323567,324581,323567,326046,325098,325098,326046,63
62,test,1,con,1,m,Fri Feb 28 2025 16:00:06 GMT-0600 (Central Standard Time),334881.7000000002,jacket,900,O,m,m,None,975,774.0,201.0,98,1,2412.3000000002794,332469.3999999999,7073,jacket,AF,A,327680,327680,326049,326963,326050,328462,327479,327479,328462,64
63,test,1,inc,1,z,Fri Feb 28 2025 16:00:06 GMT-0600 (Central Standard Time),337397.3000000003,remote,1000,O,z,z,None,970,771.0,199.0,39,1,2511.9000000003725,334885.3999999999,7073,brutal,AF,A,330195,330195,328465,329478,328466,330977,329995,329995,330977,65
64,test,1,con,1,z,Fri Feb 28 2025 16:00:06 GMT-0600 (Central Standard Time),339747.8000000003,temper,900,O,z,z,None,914,715.0,199.0,58,1,2346.600000000093,337401.2000000002,7073,temper,AF,A,332611,332611,330981,331895,330982,333328,332411,332411,333328,66
65,test,1,inc,1,m,Fri Feb 28 2025 16:00:06 GMT-0600 (Central Standard Time),342029.3000000003,elated,800,O,m,m,None,945,746.0,199.0,109,1,2277.4000000003725,339751.8999999999,7073,napkin,AF,A,334860,334860,333332,334144,333332,335609,334660,334660,335609,67
66,test,1,inc,1,z,Fri Feb 28 2025 16:00:06 GMT-0600 (Central Standard Time),344645.2000000002,window,1100,O,z,z,None,978,762.0,216.0,40,1,2611.899999999907,342033.3000000003,7073,brutal,AF,A,337460,337460,335613,336726,335614,338225,337244,337244,338225,68
67,test,1,inc,1,z,Fri Feb 28 2025 16:00:06 GMT-0600 (Central Standard Time),346861.1000000001,step,800,O,z,z,None,872,643.0,229.0,21,1,2212.0,344649.1000000001,7073,love,AF,A,339787,339787,338229,339042,338229,340441,339558,339558,340441,69
68,test,1,con,1,m,Fri Feb 28 2025 16:00:06 GMT-0600 (Central Standard Time),349526.8999999999,bell,1100,O,m,m,None,1028,828.0,200.0,84,1,2662.0999999996275,346864.8000000003,7073,bell,AF,A,342274,342274,340445,341558,340445,343107,342074,342074,343107,70
69,test,1,inc,1,m,Fri Feb 28 2025 16:00:06 GMT-0600 (Central Standard Time),351859.6000000001,hate,1100,O,m,m,None,698,498.0,200.0,80,1,2328.7999999998137,349530.8000000003,7073,rock,AF,A,344940,344940,343111,344224,343111,345440,344740,344740,345440,71
70,test,1,con,1,m,Fri Feb 28 2025 16:00:06 GMT-0600 (Central Standard Time),354075.6000000001,step,1100,O,m,m,None,580,381.0,199.0,68,1,2212.2000000001863,351863.3999999999,7073,step,AF,A,347273,347273,345443,346556,345444,347656,347073,347073,347656,72
71,test,1,inc,1,z,Fri Feb 28 2025 16:00:06 GMT-0600 (Central Standard Time),356542.6000000001,napkin,900,O,z,z,None,1020,821.0,199.0,38,1,2463.100000000093,354079.5,7073,brutal,AF,A,349289,349289,347660,348572,347660,350123,349089,349089,350123,73
72,test,1,con,1,z,Fri Feb 28 2025 16:00:06 GMT-0600 (Central Standard Time),358741.0,love,800,O,z,z,None,854,655.0,199.0,17,1,2194.2999999998137,356546.7000000002,7073,love,AF,A,351655,351655,350127,350938,350127,352321,351455,351455,352321,74
73,test,1,inc,1,z,Fri Feb 28 2025 16:00:06 GMT-0600 (Central Standard Time),361056.7000000002,rock,900,O,z,z,None,868,668.0,200.0,46,1,2312.100000000093,358744.6000000001,7073,hate,AF,A,353954,353954,352325,353237,352325,354637,353754,353754,354637,75
74,test,1,con,1,z,Fri Feb 28 2025 16:00:06 GMT-0600 (Central Standard Time),363306.3000000003,kind,900,O,z,z,None,832,633.0,199.0,10,1,2245.9000000003725,361060.3999999999,7073,kind,AF,A,356253,356253,354640,355553,354641,356886,356054,356054,356886,76
75,test,1,inc,1,m,Fri Feb 28 2025 16:00:06 GMT-0600 (Central Standard Time),365855.3000000003,temper,1000,O,m,m,None,1003,803.0,200.0,111,1,2545.2000000001863,363310.1000000001,7073,napkin,AF,A,358619,358619,356890,357903,356890,359435,358419,358419,359435,77
76,test,1,con,1,z,Fri Feb 28 2025 16:00:06 GMT-0600 (Central Standard Time),368038.0,hate,800,O,z,z,None,837,638.0,199.0,41,1,2178.600000000093,365859.3999999999,7073,hate,AF,A,360968,360968,359439,360252,359440,361618,360769,360769,361618,78
77,test,1,inc,1,z,Fri Feb 28 2025 16:00:06 GMT-0600 (Central Standard Time),370537.3000000003,bell,1000,O,z,z,None,951,625.0,326.0,47,1,2495.7000000001863,368041.6000000001,7073,hate,AF,A,363477,363477,361622,362635,361622,364117,363151,363151,364117,79
78,test,1,con,1,z,Fri Feb 28 2025 16:00:06 GMT-0600 (Central Standard Time),372853.3000000003,kind,800,O,z,z,None,972,772.0,200.0,9,1,2312.3000000002794,370541.0,7073,kind,AF,A,365650,365650,364121,364934,364121,366433,365450,365450,366433,80
79,test,1,con,1,z,Fri Feb 28 2025 16:00:06 GMT-0600 (Central Standard Time),375185.7000000002,rage,1000,O,z,z,None,791,592.0,199.0,51,1,2328.600000000093,372857.1000000001,7073,rage,AF,A,368166,368166,366437,367450,366438,368766,367967,367967,368766,81
80,test,1,con,1,z,Fri Feb 28 2025 16:00:06 GMT-0600 (Central Standard Time),377601.5,elated,1000,O,z,z,None,866,667.0,199.0,3,1,2412.100000000093,375189.3999999999,7073,elated,AF,A,370499,370499,368769,369783,368770,371182,370299,370299,371182,82
81,test,1,con,1,z,Fri Feb 28 2025 16:00:06 GMT-0600 (Central Standard Time),380267.3999999999,temper,1100,O,z,z,None,1023,824.0,199.0,60,1,2662.0999999996275,377605.3000000003,7073,temper,AF,A,373015,373015,371185,372298,371186,373847,372815,372815,373847,83
82,test,1,inc,1,z,Fri Feb 28 2025 16:00:06 GMT-0600 (Central Standard Time),382633.3000000003,bell,1000,O,z,z,None,824,625.0,199.0,55,1,2361.9000000003725,380271.3999999999,7073,rage,AF,A,375581,375581,373851,374864,373852,376213,375381,375381,376213,84
83,test,1,con,1,z,Fri Feb 28 2025 16:00:06 GMT-0600 (Central Standard Time),384915.8999999999,kind,1000,O,z,z,None,746,547.0,199.0,11,1,2278.6999999997206,382637.2000000002,7073,kind,AF,A,377947,377947,376217,377230,376217,378496,377747,377747,378496,85
84,test,1,con,1,z,Fri Feb 28 2025 16:00:06 GMT-0600 (Central Standard Time),387032.1000000001,rage,800,O,z,z,None,777,577.0,200.0,49,1,2112.399999999907,384919.7000000002,7073,rage,AF,A,380029,380029,378500,379313,378500,380612,379829,379829,380612,86
85,test,1,inc,1,m,Fri Feb 28 2025 16:00:06 GMT-0600 (Central Standard Time),389547.8000000003,love,1000,O,m,m,None,973,773.0,200.0,71,1,2511.8000000002794,387036.0,7073,step,AF,A,382345,382345,380616,381629,380616,383128,382145,382145,383128,87
86,test,1,con,1,z,Fri Feb 28 2025 16:00:06 GMT-0600 (Central Standard Time),392080.3000000003,brutal,1100,O,z,z,None,885,685.0,200.0,36,1,2528.8000000002794,389551.5,7073,brutal,AF,A,384961,384961,383132,384245,383132,385660,384761,384761,385660,88
87,test,1,inc,1,m,Fri Feb 28 2025 16:00:06 GMT-0600 (Central Standard Time),394479.7000000002,kind,900,O,m,m,None,952,752.0,200.0,94,1,2395.7000000001863,392084.0,7073,film,AF,A,387294,387294,385664,386577,385664,388060,387093,387093,388060,89
88,test,1,con,1,m,Fri Feb 28 2025 16:00:06 GMT-0600 (Central Standard Time),396729.0,bell,800,O,m,m,None,908,709.0,199.0,81,1,2245.5,394483.5,7073,bell,AF,A,389593,389593,388064,388877,388064,390309,389393,389393,390309,90
89,test,1,con,1,z,Fri Feb 28 2025 16:00:06 GMT-0600 (Central Standard Time),399095.0,rage,900,O,z,z,None,920,720.0,200.0,50,1,2362.2999999998137,396732.7000000002,7073,rage,AF,A,391942,391942,390313,391226,390313,392675,391742,391742,392675,91
90,test,1,inc,1,m,Fri Feb 28 2025 16:00:06 GMT-0600 (Central Standard Time),401377.3999999999,rage,800,O,m,m,None,942,742.0,200.0,93,1,2278.399999999907,399099.0,7073,film,AF,A,394208,394208,392679,393492,392679,394957,394008,394008,394957,92
91,test,1,inc,1,z,Fri Feb 28 2025 16:00:06 GMT-0600 (Central Standard Time),403776.6000000001,rock,900,O,z,z,None,958,759.0,199.0,22,1,2395.5,401381.1000000001,7073,love,AF,A,396591,396591,394961,395874,394961,397357,396391,396391,397357,93
92,test,1,con,1,z,Fri Feb 28 2025 16:00:06 GMT-0600 (Central Standard Time),406326.0,elated,1100,O,z,z,None,911,712.0,199.0,4,1,2545.6999999997206,403780.3000000003,7073,elated,AF,A,399190,399190,397360,398475,397361,399906,398990,398990,399906,94
93,test,1,con,1,m,Fri Feb 28 2025 16:00:06 GMT-0600 (Central Standard Time),408691.8000000003,film,900,O,m,m,None,923,723.0,200.0,90,1,2361.9000000003725,406329.8999999999,7073,film,AF,A,401539,401539,399910,400823,399910,402272,401339,401339,402272,95
94,test,1,con,1,m,Fri Feb 28 2025 16:00:06 GMT-0600 (Central Standard Time),411257.8999999999,rock,1000,O,m,m,None,1017,817.0,200.0,75,1,2562.0999999996275,408695.8000000003,7073,rock,AF,A,404005,404005,402276,403288,402276,404838,403805,403805,404838,96
95,test,1,con,1,z,Fri Feb 28 2025 16:00:06 GMT-0600 (Central Standard Time),414040.1000000001,friend,1100,O,z,z,None,1143,943.0,200.0,28,1,2778.2999999998137,411261.8000000003,7073,friend,AF,A,406671,406671,404842,405954,404842,407620,406471,406471,407620,97
96,test,1,con,1,m,Fri Feb 28 2025 16:00:06 GMT-0600 (Central Standard Time),416472.6000000001,jacket,1000,O,m,m,None,893,693.0,200.0,99,1,2428.899999999907,414043.7000000002,7073,jacket,AF,A,409353,409353,407624,408637,407624,410053,409153,409153,410053,98
97,test,1,con,1,m,Fri Feb 28 2025 16:00:06 GMT-0600 (Central Standard Time),418571.8000000003,remote,900,O,m,m,None,656,456.0,200.0,114,1,2095.600000000093,416476.2000000002,7073,remote,AF,A,411686,411686,410056,410970,410057,412152,411486,411486,412152,99
98,test,1,con,1,z,Fri Feb 28 2025 16:00:06 GMT-0600 (Central Standard Time),421122.3000000003,kind,1100,O,z,z,None,917,717.0,200.0,12,1,2546.8000000002794,418575.5,7073,kind,AF,A,413985,413985,412156,413269,412156,414702,413785,413785,414702,100
99,test,1,con,1,m,Fri Feb 28 2025 16:00:06 GMT-0600 (Central Standard Time),423571.7000000002,step,900,O,m,m,None,1007,808.0,199.0,66,1,2445.8000000002794,421125.8999999999,7073,step,AF,A,416334,416334,414706,415618,414706,417152,416134,416135,417152,101
100,test,1,con,1,z,Fri Feb 28 2025 16:00:06 GMT-0600 (Central Standard Time),425769.8000000003,elated,800,O,z,z,None,857,658.0,199.0,1,1,2194.100000000093,423575.7000000002,7073,elated,AF,A,418684,418684,417156,417968,417156,419350,418485,418485,419350,102
101,test,1,inc,1,z,Fri Feb 28 2025 16:00:06 GMT-0600 (Central Standard Time),428019.1000000001,rock,900,O,z,z,None,806,607.0,199.0,14,1,2245.2999999998137,425773.8000000003,7073,kind,AF,A,420983,420983,419354,420267,419354,421599,420784,420784,421599,103
102,test,1,con,1,m,Fri Feb 28 2025 16:00:06 GMT-0600 (Central Standard Time),430551.6000000001,rock,1100,O,m,m,None,886,686.0,200.0,76,1,2528.899999999907,428022.7000000002,7073,rock,AF,A,423432,423432,421603,422716,421603,424132,423232,423232,424132,104
103,test,1,inc,1,m,Fri Feb 28 2025 16:00:06 GMT-0600 (Central Standard Time),432950.8000000003,hate,1100,O,m,m,None,753,553.0,200.0,72,1,2395.4000000003725,430555.3999999999,7073,step,AF,A,425965,425965,424135,425248,424136,426531,425765,425765,426531,105
104,test,1,inc,1,z,Fri Feb 28 2025 16:00:06 GMT-0600 (Central Standard Time),435200.3000000003,jacket,800,O,z,z,None,910,710.0,200.0,37,1,2245.7000000001863,432954.6000000001,7073,brutal,AF,A,428064,428064,426535,427348,426535,428781,427864,427864,428780,106
105,test,1,con,1,m,Fri Feb 28 2025 16:00:06 GMT-0600 (Central Standard Time),437599.1000000001,film,1000,O,m,m,None,853,653.0,200.0,91,1,2395.0,435204.1000000001,7073,film,AF,A,430513,430513,428784,429797,428785,431179,430313,430313,431179,107
106,test,1,con,1,m,Fri Feb 28 2025 16:00:06 GMT-0600 (Central Standard Time),439848.8000000003,window,900,O,m,m,None,809,610.0,199.0,122,1,2245.7000000001863,437603.1000000001,7073,window,AF,A,432812,432812,431183,432096,431183,433429,432613,432613,433429,108
107,test,1,inc,1,m,Fri Feb 28 2025 16:00:06 GMT-0600 (Central Standard Time),442098.3000000003,rage,800,O,m,m,None,900,700.0,200.0,69,1,2245.5,439852.8000000003,7073,step,AF,A,434962,434962,433433,434245,433433,435678,434762,434762,435678,109
108,test,1,inc,1,m,Fri Feb 28 2025 16:00:06 GMT-0600 (Central Standard Time),444147.5,rage,800,O,m,m,None,707,507.0,200.0,85,1,2045.2999999998137,442102.2000000002,7073,bell,AF,A,437211,437211,435682,436496,435683,437728,437011,437011,437728,110
109,test,1,inc,1,z,Fri Feb 28 2025 16:00:06 GMT-0600 (Central Standard Time),446680.1000000001,film,1100,O,z,z,None,884,685.0,199.0,56,1,2528.5,444151.6000000001,7073,rage,AF,A,439561,439561,437732,438844,437732,440260,439361,439361,440260,111
110,test,1,con,1,z,Fri Feb 28 2025 16:00:06 GMT-0600 (Central Standard Time),449095.8999999999,brutal,1000,O,z,z,None,869,669.0,200.0,35,1,2412.1999999997206,446683.7000000002,7073,brutal,AF,A,441993,441993,440264,441276,440264,442676,441793,441793,442676,112
111,test,1,con,1,z,Fri Feb 28 2025 16:00:06 GMT-0600 (Central Standard Time),451261.8999999999,love,900,O,z,z,None,729,529.0,200.0,18,1,2162.1999999997206,449099.7000000002,7073,love,AF,A,444309,444309,442680,443593,442680,444842,444109,444109,444842,113
112,test,1,inc,1,z,Fri Feb 28 2025 16:00:06 GMT-0600 (Central Standard Time),453461.2000000002,napkin,900,O,z,z,None,755,555.0,200.0,62,1,2195.5,451265.7000000002,7073,temper,AF,A,446475,446475,444846,445759,444846,447041,446275,446275,447041,114
113,test,1,con,1,z,Fri Feb 28 2025 16:00:06 GMT-0600 (Central Standard Time),455777.1000000001,hate,1100,O,z,z,None,676,476.0,200.0,44,1,2312.0,453465.1000000001,7073,hate,AF,A,448874,448874,447045,448158,447045,449357,448674,448674,449357,115
114,test,1,con,1,m,Fri Feb 28 2025 16:00:06 GMT-0600 (Central Standard Time),458192.8000000003,napkin,900,O,m,m,None,968,768.0,200.0,106,1,2411.100000000093,455781.7000000002,7073,napkin,AF,A,450990,450990,449362,450273,449362,451773,450790,450790,451773,116
115,test,1,inc,1,m,Fri Feb 28 2025 16:00:06 GMT-0600 (Central Standard Time),460442.3999999999,hate,1100,O,m,m,None,600,400.0,200.0,96,1,2245.6999999997206,458196.7000000002,7073,film,AF,A,453606,453606,451777,452890,451777,454023,453406,453406,454022,117
116,test,1,inc,1,m,Fri Feb 28 2025 16:00:06 GMT-0600 (Central Standard Time),462675.0,temper,1000,O,m,m,None,690,491.0,199.0,103,1,2229.0,460446.0,7073,jacket,AF,A,455755,455755,454026,455039,454026,456255,455556,455556,456255,118
117,test,1,con,1,z,Fri Feb 28 2025 16:00:06 GMT-0600 (Central Standard Time),465107.3000000003,love,1100,O,z,z,None,798,598.0,200.0,20,1,2428.7000000001863,462678.6000000001,7073,love,AF,A,458088,458088,456259,457372,456259,458687,457888,457888,458687,119
118,test,1,inc,1,m,Fri Feb 28 2025 16:00:06 GMT-0600 (Central Standard Time),467290.2000000002,love,1000,O,m,m,None,641,442.0,199.0,95,1,2179.3000000002794,465110.8999999999,7073,film,AF,A,460420,460420,458691,459704,458691,460870,460221,460221,460870,120
119,test,1,con,1,m,Fri Feb 28 2025 16:00:06 GMT-0600 (Central Standard Time),469456.3000000003,film,1100,O,m,m,None,527,327.0,200.0,92,1,2162.100000000093,467294.2000000002,7073,film,AF,A,462703,462703,460874,461987,460874,463036,462503,462503,463036,121
120,test,1,con,1,m,Fri Feb 28 2025 16:00:06 GMT-0600 (Central Standard Time),471372.3999999999,napkin,800,O,m,m,None,572,373.0,199.0,105,1,1912.3999999999069,469460.0,7073,napkin,AF,A,464569,464569,463040,463853,463040,464952,464370,464370,464952,122
121,test,1,con,1,z,Fri Feb 28 2025 16:00:06 GMT-0600 (Central Standard Time),473471.6000000001,love,1000,O,z,z,None,552,353.0,199.0,19,1,2095.600000000093,471376.0,7073,love,AF,A,466685,466685,464956,465969,464956,467052,466486,466486,467052,123
121,test,1,inc,0,z,Fri Feb 28 2025 16:00:06 GMT-0600 (Central Standard Time),475487.5,remote,1000,O,m,m,None,468,269.0,199.0,7,1,2012.1999999997206,473475.3000000003,7073,elated,AF,A,468784,468785,467055,468068,467056,469068,468585,468585,469068,124
122,test,1,inc,1,m,Fri Feb 28 2025 16:00:06 GMT-0600 (Central Standard Time),477353.6000000001,elated,800,O,m,m,None,524,325.0,199.0,101,1,1862.2999999998137,475491.3000000003,7073,jacket,AF,A,470601,470601,469071,469884,469072,470934,470401,470401,470934,125
123,test,1,inc,1,z,Fri Feb 28 2025 16:00:06 GMT-0600 (Central Standard Time),479669.5,window,1100,O,z,z,None,670,471.0,199.0,8,1,2312.399999999907,477357.1000000001,7073,elated,AF,A,472767,472767,470937,472050,470937,473250,472567,472567,473250,126
124,test,1,inc,1,z,Fri Feb 28 2025 16:00:06 GMT-0600 (Central Standard Time),481852.1000000001,jacket,800,O,z,z,None,846,647.0,199.0,29,1,2178.899999999907,479673.2000000002,7073,friend,AF,A,474783,474783,473253,474066,473254,475432,474583,474583,475432,127
125,test,1,con,1,z,Fri Feb 28 2025 16:00:06 GMT-0600 (Central Standard Time),483818.3000000003,friend,900,O,z,z,None,531,331.0,200.0,26,1,1961.9000000003725,481856.3999999999,7073,friend,AF,A,477067,477067,475436,476349,475437,477398,476866,476866,477398,128
