acc_sum,block,block_c,condition,correct,correct_response,datetime,endtime,flanker,jitter,project,response,response_test_buffer_response,response_test_target_response,response_time,response_time_test_buffer_response,response_time_test_target_response,row_sel,session_number,start_end,starttime,subject_id,target,task,task_vers,time_test_buffer,time_test_buffer_response,time_test_constants,time_test_flanker,time_test_jitter,time_test_logger,time_test_target,time_test_target_response,time_test_variables,trial
1,prac,1,con,1,m,Mon Feb 24 2025 15:15:46 GMT-0600 (Central Standard Time),161488.79999998212,bell,1000,O,m,,,899,,,3,1,3190.0,158298.79999998212,7060,bell,AF,C,,,,,,,,,,1
2,prac,1,inc,1,z,Mon Feb 24 2025 15:15:46 GMT-0600 (Central Standard Time),164469.09999999404,window,1100,O,z,,,575,,,16,1,2972.300000011921,161496.79999998212,7060,temper,AF,C,,,,,,,,,,2
3,prac,1,inc,1,m,Mon Feb 24 2025 15:15:46 GMT-0600 (Central Standard Time),167254.79999998212,kind,900,O,m,,,576,,,2,1,2782.2999999821186,164472.5,7060,rock,AF,C,,,,,,,,,,3
4,prac,1,con,1,m,Mon Feb 24 2025 15:15:46 GMT-0600 (Central Standard Time),170237.59999999404,jacket,800,O,m,,,880,,,5,1,2976.300000011921,167261.29999998212,7060,jacket,AF,C,,,,,,,,,,4
5,prac,1,con,1,z,Mon Feb 24 2025 15:15:46 GMT-0600 (Central Standard Time),172836.89999997616,brutal,800,O,z,,,498,,,13,1,2592.0999999940395,170244.79999998212,7060,brutal,AF,C,,,,,,,,,,5
6,prac,1,con,1,z,Mon Feb 24 2025 15:15:46 GMT-0600 (Central Standard Time),175567.0,rage,1000,O,z,,,415,,,15,1,2723.100000023842,172843.89999997616,7060,rage,AF,C,,,,,,,,,,6
7,prac,1,con,1,z,Mon Feb 24 2025 15:15:46 GMT-0600 (Central Standard Time),178134.39999997616,elated,800,O,z,,,459,,,9,1,2561.0999999940395,175573.29999998212,7060,elated,AF,C,,,,,,,,,,7
8,prac,1,inc,1,z,Mon Feb 24 2025 15:15:46 GMT-0600 (Central Standard Time),181034.79999998212,film,900,O,z,,,690,,,14,1,2893.5,178141.29999998212,7060,hate,AF,C,,,,,,,,,,8
9,prac,1,inc,1,m,Mon Feb 24 2025 15:15:46 GMT-0600 (Central Standard Time),184248.29999998212,hate,1100,O,m,,,806,,,4,1,3208.0999999940395,181040.19999998808,7060,film,AF,C,,,,,,,,,,9
10,prac,1,con,1,m,Mon Feb 24 2025 15:15:46 GMT-0600 (Central Standard Time),187130.79999998212,step,800,O,m,,,781,,,1,1,2876.5,184254.29999998212,7060,step,AF,C,,,,,,,,,,10
11,prac,1,inc,1,z,Mon Feb 24 2025 15:15:46 GMT-0600 (Central Standard Time),190031.29999998212,rock,900,O,z,,,686,,,10,1,2894.0,187137.29999998212,7060,kind,AF,C,,,,,,,,,,11
12,prac,1,inc,1,m,Mon Feb 24 2025 15:15:46 GMT-0600 (Central Standard Time),192881.29999998212,elated,900,O,m,,,634,,,6,1,2843.0,190038.29999998212,7060,napkin,AF,C,,,,,,,,,,12
12,prac,1,inc,0,z,Mon Feb 24 2025 15:15:46 GMT-0600 (Central Standard Time),196129.0,napkin,1100,O,m,,,847,,,12,1,3242.9000000059605,192886.09999999404,7060,friend,AF,C,,,,,,,,,,13
12,prac,1,con,0,m,Mon Feb 24 2025 15:15:46 GMT-0600 (Central Standard Time),201191.89999997616,remote,1000,O,None,,,1799,,,7,1,5056.799999982119,196135.09999999404,7060,remote,AF,C,,,,,,,,,,14
12,prac,1,con,0,z,Mon Feb 24 2025 15:15:46 GMT-0600 (Central Standard Time),206275.5,love,1000,O,None,,,1814,,,11,1,5075.600000023842,201199.89999997616,7060,love,AF,C,,,,,,,,,,15
12,prac,1,inc,0,m,Mon Feb 24 2025 15:15:46 GMT-0600 (Central Standard Time),211439.79999998212,brutal,1100,O,None,,,1800,,,8,1,5158.5999999940395,206281.19999998808,7060,window,AF,C,,,,,,,,,,16
1,test,1,inc,1,z,Mon Feb 24 2025 15:15:46 GMT-0600 (Central Standard Time),233851.0,window,1100,O,z,z,None,658,441.0,217.0,8,1,2295.4000000059605,231555.59999999404,7060,elated,AF,C,216942,216942,215096,216207,215096,217391,216724,216724,217391,1
2,test,1,con,1,z,Mon Feb 24 2025 15:15:46 GMT-0600 (Central Standard Time),235832.69999998808,kind,800,O,z,z,None,633,419.0,214.0,9,1,1976.699999988079,233856.0,7060,kind,AF,C,218940,218940,217396,218207,217396,219373,218725,218725,219373,2
3,test,1,inc,1,m,Mon Feb 24 2025 15:15:46 GMT-0600 (Central Standard Time),238397.5,elated,800,O,m,m,None,1221,1021.0,200.0,117,1,2559.800000011921,235837.69999998808,7060,remote,AF,C,220905,220906,219378,220189,219378,221938,220705,220705,221938,3
4,test,1,con,1,m,Mon Feb 24 2025 15:15:46 GMT-0600 (Central Standard Time),241163.09999999404,jacket,1100,O,m,m,None,1121,905.0,216.0,100,1,2761.0,238402.09999999404,7060,jacket,AF,C,223789,223789,221942,223056,221942,224703,223572,223572,224703,4
5,test,1,con,1,z,Mon Feb 24 2025 15:15:46 GMT-0600 (Central Standard Time),243213.0,rage,800,O,z,z,None,714,514.0,200.0,49,1,2044.0,241169.0,7060,rage,AF,C,226238,226238,224709,225522,224709,226753,226037,226037,226753,5
6,test,1,inc,1,z,Mon Feb 24 2025 15:15:46 GMT-0600 (Central Standard Time),245530.09999999404,window,1100,O,z,z,None,667,468.0,199.0,64,1,2308.0999999940395,243222.0,7060,temper,AF,C,228587,228587,226762,227871,226763,229070,228387,228387,229070,6
7,test,1,inc,1,z,Mon Feb 24 2025 15:15:46 GMT-0600 (Central Standard Time),247646.0,remote,1000,O,z,z,None,570,355.0,215.0,63,1,2109.600000023842,245536.39999997616,7060,temper,AF,C,230820,230820,229076,230086,229077,231186,230604,230604,231186,7
8,test,1,inc,1,m,Mon Feb 24 2025 15:15:46 GMT-0600 (Central Standard Time),249843.79999998212,love,1000,O,m,m,None,664,464.0,200.0,95,1,2192.2999999821186,247651.5,7060,film,AF,C,232919,232919,231192,232201,231192,233384,232719,232719,233384,8
9,test,1,inc,1,m,Mon Feb 24 2025 15:15:46 GMT-0600 (Central Standard Time),252044.19999998808,kind,900,O,m,m,None,755,540.0,215.0,78,1,2194.5999999940395,249849.59999999404,7060,rock,AF,C,235035,235035,233390,234303,233390,235584,234819,234819,235584,9
10,test,1,inc,1,m,Mon Feb 24 2025 15:15:46 GMT-0600 (Central Standard Time),254192.59999999404,brutal,900,O,m,m,None,699,485.0,214.0,126,1,2145.0,252047.59999999404,7060,window,AF,C,237233,237233,235588,236502,235588,237733,237018,237018,237733,10
11,test,1,con,1,m,Mon Feb 24 2025 15:15:46 GMT-0600 (Central Standard Time),256592.29999998212,napkin,1000,O,m,m,None,851,652.0,199.0,107,1,2394.7999999821186,254197.5,7060,napkin,AF,C,239467,239467,237738,238750,237738,240132,239267,239267,240132,11
12,test,1,con,1,z,Mon Feb 24 2025 15:15:46 GMT-0600 (Central Standard Time),258575.69999998808,brutal,900,O,z,z,None,560,361.0,199.0,34,1,1977.300000011921,256598.39999997616,7060,brutal,AF,C,241749,241750,240138,241049,240139,242116,241550,241550,242116,12
13,test,1,con,1,z,Mon Feb 24 2025 15:15:46 GMT-0600 (Central Standard Time),261790.69999998808,brutal,800,O,z,z,None,1866,1651.0,215.0,33,1,3208.300000011921,258582.39999997616,7060,brutal,AF,C,243664,243664,242122,242933,242123,245331,243449,243449,245331,13
14,test,1,inc,1,z,Mon Feb 24 2025 15:15:46 GMT-0600 (Central Standard Time),263940.7999999821,rock,900,O,z,z,None,716,515.0,201.0,14,1,2143.5999999940395,261797.19999998808,7060,kind,AF,C,246965,246965,245337,246247,245338,247481,246764,246764,247481,14
15,test,1,inc,1,z,Mon Feb 24 2025 15:15:46 GMT-0600 (Central Standard Time),266173.1999999881,film,1100,O,z,z,None,599,399.0,200.0,48,1,2226.800000011921,263946.39999997616,7060,hate,AF,C,249314,249314,247486,248599,247487,249713,249113,249113,249713,15
16,test,1,inc,1,z,Mon Feb 24 2025 15:15:46 GMT-0600 (Central Standard Time),268706.89999997616,film,1100,O,z,z,None,884,684.0,200.0,24,1,2528.399999976158,266178.5,7060,love,AF,C,251547,251547,249719,250830,249719,252247,251346,251346,252247,16
17,test,1,con,1,z,Mon Feb 24 2025 15:15:46 GMT-0600 (Central Standard Time),271187.6999999881,friend,1100,O,z,z,None,855,640.0,215.0,28,1,2473.800000011921,268713.89999997616,7060,friend,AF,C,254079,254079,252254,253361,252255,254728,253863,253863,254728,17
18,test,1,con,1,m,Mon Feb 24 2025 15:15:46 GMT-0600 (Central Standard Time),273372.39999997616,bell,1000,O,m,m,None,651,449.0,202.0,83,1,2178.5999999940395,271193.7999999821,7060,bell,AF,C,256463,256463,254734,255746,254734,256912,256261,256261,256912,18
19,test,1,inc,1,m,Mon Feb 24 2025 15:15:46 GMT-0600 (Central Standard Time),276036.0,temper,1000,O,m,m,None,1121,904.0,217.0,127,1,2657.0,273379.0,7060,window,AF,C,258662,258662,256919,257927,256919,259576,258445,258445,259576,19
20,test,1,inc,1,m,Mon Feb 24 2025 15:15:46 GMT-0600 (Central Standard Time),278934.89999997616,temper,1000,O,m,m,None,1351,1136.0,215.0,111,1,2894.7999999821186,276040.09999999404,7060,napkin,AF,C,261326,261326,259580,260595,259580,262475,261111,261111,262475,20
21,test,1,con,1,z,Mon Feb 24 2025 15:15:46 GMT-0600 (Central Standard Time),281901.39999997616,elated,800,O,z,z,None,1616,1415.0,201.0,1,1,2961.0,278940.39999997616,7060,elated,AF,C,264010,264010,262480,263292,262481,265442,263808,263808,265441,21
22,test,1,inc,1,m,Mon Feb 24 2025 15:15:46 GMT-0600 (Central Standard Time),284349.2999999821,hate,1100,O,m,m,None,811,612.0,199.0,88,1,2440.0,281909.2999999821,7060,bell,AF,C,267274,267275,265449,266559,265450,267889,267075,267075,267889,22
23,test,1,con,1,m,Mon Feb 24 2025 15:15:46 GMT-0600 (Central Standard Time),286633.1999999881,window,1100,O,m,m,None,643,444.0,199.0,124,1,2276.9000000059605,284356.2999999821,7060,window,AF,C,269723,269723,267896,269009,267897,270173,269524,269524,270173,23
24,test,1,inc,1,m,Mon Feb 24 2025 15:15:46 GMT-0600 (Central Standard Time),288633.59999999404,rage,800,O,m,m,None,660,459.0,201.0,85,1,1993.5999999940395,286640.0,7060,bell,AF,C,271707,271707,270180,270992,270180,272174,271505,271505,272174,24
25,test,1,inc,1,m,Mon Feb 24 2025 15:15:46 GMT-0600 (Central Standard Time),290532.0,kind,900,O,m,m,None,457,258.0,199.0,86,1,1895.4000000059605,288636.59999999404,7060,bell,AF,C,273805,273805,272177,273091,272177,274072,273606,273606,274072,25
26,test,1,con,1,m,Mon Feb 24 2025 15:15:46 GMT-0600 (Central Standard Time),292965.5,step,1100,O,m,m,None,789,590.0,199.0,68,1,2428.5,290537.0,7060,step,AF,C,275904,275905,274077,275190,274077,276506,275705,275705,276505,26
27,test,1,con,1,m,Mon Feb 24 2025 15:15:46 GMT-0600 (Central Standard Time),294930.5,step,1000,O,m,m,None,425,226.0,199.0,67,1,1960.300000011921,292970.1999999881,7060,step,AF,C,278237,278237,276510,277521,276511,278471,278038,278038,278470,27
28,test,1,con,1,z,Mon Feb 24 2025 15:15:46 GMT-0600 (Central Standard Time),297130.1999999881,love,1000,O,z,z,None,674,475.0,199.0,19,1,2195.5,294934.6999999881,7060,love,AF,C,280187,280187,278475,279487,278475,280670,279988,279988,280670,28
29,test,1,con,1,z,Mon Feb 24 2025 15:15:46 GMT-0600 (Central Standard Time),299961.89999997616,hate,1000,O,z,z,None,1293,1093.0,200.0,43,1,2828.5,297133.39999997616,7060,hate,AF,C,282403,282403,280673,281685,280674,283502,282202,282202,283502,29
30,test,1,inc,1,m,Mon Feb 24 2025 15:15:46 GMT-0600 (Central Standard Time),302061.39999997616,love,1000,O,m,m,None,554,338.0,216.0,79,1,2094.2999999821186,299967.09999999404,7060,rock,AF,C,285253,285253,283507,284518,283507,285601,285037,285037,285601,30
31,test,1,con,1,m,Mon Feb 24 2025 15:15:46 GMT-0600 (Central Standard Time),304444.39999997616,rock,1000,O,m,m,None,848,648.0,200.0,75,1,2377.899999976158,302066.5,7060,rock,AF,C,287336,287336,285607,286619,285607,287984,287135,287135,287984,31
32,test,1,inc,1,z,Mon Feb 24 2025 15:15:46 GMT-0600 (Central Standard Time),306960.1999999881,remote,1000,O,z,z,None,992,793.0,199.0,31,1,2511.0999999940395,304449.09999999404,7060,friend,AF,C,289702,289702,287989,289000,287989,290500,289502,289502,290500,32
33,test,1,inc,1,m,Mon Feb 24 2025 15:15:46 GMT-0600 (Central Standard Time),309242.1999999881,kind,900,O,m,m,None,833,634.0,199.0,94,1,2277.199999988079,306965.0,7060,film,AF,C,292133,292133,290505,291416,290505,292782,291933,291933,292782,33
33,test,1,con,0,m,Mon Feb 24 2025 15:15:46 GMT-0600 (Central Standard Time),311824.7999999821,rock,1100,O,z,z,None,941,726.0,215.0,76,1,2577.0999999940395,309247.6999999881,7060,rock,AF,C,294633,294633,292788,293899,292788,295365,294417,294417,295365,34
34,test,1,inc,1,m,Mon Feb 24 2025 15:15:46 GMT-0600 (Central Standard Time),314457.6999999881,hate,1100,O,m,m,None,983,783.0,200.0,80,1,2627.5,311830.1999999881,7060,rock,AF,C,297199,297199,295370,296482,295371,297998,296999,296999,297998,35
35,test,1,con,1,m,Mon Feb 24 2025 15:15:46 GMT-0600 (Central Standard Time),316855.7999999821,bell,800,O,m,m,None,1050,835.0,215.0,81,1,2392.4000000059605,314463.39999997616,7060,bell,AF,C,299548,299548,298003,298816,298004,300396,299332,299332,300396,36
36,test,1,con,1,z,Mon Feb 24 2025 15:15:46 GMT-0600 (Central Standard Time),318972.59999999404,hate,900,O,z,z,None,671,472.0,199.0,42,1,2110.5,316862.09999999404,7060,hate,AF,C,302031,302031,300402,301314,300403,302513,301831,301831,302513,37
36,test,1,inc,0,z,Mon Feb 24 2025 15:15:46 GMT-0600 (Central Standard Time),321221.59999999404,bell,1000,O,m,m,None,713,513.0,200.0,23,1,2244.0,318977.59999999404,7060,love,AF,C,304246,304246,302518,303529,302518,304762,304046,304046,304762,38
36,test,1,inc,0,z,Mon Feb 24 2025 15:15:46 GMT-0600 (Central Standard Time),324570.09999999404,step,800,O,None,None,None,1814,1814.0,200.0,53,1,3341.5,321228.59999999404,7060,rage,AF,C,306296,306296,304769,305580,304769,308110,306095,306095,308110,39
37,test,1,con,1,z,Mon Feb 24 2025 15:15:46 GMT-0600 (Central Standard Time),326969.0,kind,1100,O,z,z,None,750,551.0,199.0,12,1,2395.800000011921,324573.1999999881,7060,kind,AF,C,309944,309944,308113,309229,308114,310509,309744,309745,310509,40
38,test,1,con,1,z,Mon Feb 24 2025 15:15:46 GMT-0600 (Central Standard Time),329420.09999999404,temper,1100,O,z,z,None,799,585.0,214.0,60,1,2444.0,326976.09999999404,7060,temper,AF,C,312359,312359,310516,311627,310517,312960,312145,312145,312960,41
39,test,1,con,1,m,Mon Feb 24 2025 15:15:46 GMT-0600 (Central Standard Time),331619.59999999404,film,800,O,m,m,None,866,666.0,200.0,89,1,2194.9000000059605,329424.6999999881,7060,film,AF,C,314493,314493,312965,313777,312965,315160,314293,314293,315160,42
39,test,1,inc,0,m,Mon Feb 24 2025 15:15:46 GMT-0600 (Central Standard Time),334100.5,brutal,900,O,z,z,None,1037,838.0,199.0,118,1,2475.600000023842,331624.89999997616,7060,remote,AF,C,316793,316793,315165,316076,315165,317641,316593,316593,317641,43
40,test,1,inc,1,m,Mon Feb 24 2025 15:15:46 GMT-0600 (Central Standard Time),336399.7999999821,love,1000,O,m,m,None,755,552.0,203.0,87,1,2294.5999999940395,334105.1999999881,7060,bell,AF,C,319375,319375,317645,318658,317646,319940,319172,319172,319940,44
41,test,1,con,1,m,Mon Feb 24 2025 15:15:46 GMT-0600 (Central Standard Time),338598.09999999404,bell,900,O,m,m,None,751,551.0,200.0,82,1,2193.2000000178814,336404.89999997616,7060,bell,AF,C,321575,321575,319945,320859,319945,322138,321374,321374,322138,45
42,test,1,inc,1,z,Mon Feb 24 2025 15:15:46 GMT-0600 (Central Standard Time),340733.2999999821,bell,1000,O,z,z,None,598,383.0,215.0,55,1,2130.199999988079,338603.09999999404,7060,rage,AF,C,323890,323890,322143,323155,322144,324273,323675,323675,324273,46
43,test,1,inc,1,m,Mon Feb 24 2025 15:15:46 GMT-0600 (Central Standard Time),342898.59999999404,elated,800,O,m,m,None,816,616.0,200.0,109,1,2160.0999999940395,340738.5,7060,napkin,AF,C,325806,325806,324279,325089,324279,326439,325606,325606,326439,47
44,test,1,con,1,z,Mon Feb 24 2025 15:15:46 GMT-0600 (Central Standard Time),345280.39999997616,love,900,O,z,z,None,945,745.0,200.0,18,1,2376.7999999821186,342903.59999999404,7060,love,AF,C,328071,328071,326444,327355,326444,328821,327871,327871,328820,48
45,test,1,con,1,m,Mon Feb 24 2025 15:15:46 GMT-0600 (Central Standard Time),347447.0,napkin,800,O,m,m,None,828,628.0,200.0,105,1,2162.0,345285.0,7060,napkin,AF,C,330355,330355,328825,329639,328826,330987,330155,330155,330987,49
46,test,1,con,1,m,Mon Feb 24 2025 15:15:46 GMT-0600 (Central Standard Time),349713.39999997616,step,900,O,m,m,None,817,617.0,200.0,66,1,2262.5,347450.89999997616,7060,step,AF,C,332621,332621,330991,331903,330991,333253,332420,332420,333253,50
47,test,1,con,1,m,Mon Feb 24 2025 15:15:46 GMT-0600 (Central Standard Time),351644.89999997616,step,800,O,m,m,None,589,389.0,200.0,65,1,1927.199999988079,349717.6999999881,7060,step,AF,C,334786,334786,333258,334070,333258,335185,334586,334586,335185,51
48,test,1,inc,1,m,Mon Feb 24 2025 15:15:46 GMT-0600 (Central Standard Time),353795.5,friend,1100,O,m,m,None,508,309.0,199.0,120,1,2146.5,351649.0,7060,remote,AF,C,337018,337018,335189,336303,335189,337336,336819,336819,337335,52
49,test,1,inc,1,m,Mon Feb 24 2025 15:15:46 GMT-0600 (Central Standard Time),355993.89999997616,brutal,900,O,m,m,None,748,549.0,199.0,110,1,2193.0999999940395,353800.7999999821,7060,napkin,AF,C,338969,338969,337341,338252,337341,339534,338769,338769,339534,53
50,test,1,inc,1,z,Mon Feb 24 2025 15:15:46 GMT-0600 (Central Standard Time),358077.7999999821,napkin,900,O,z,z,None,666,467.0,199.0,6,1,2079.5999999940395,355998.1999999881,7060,elated,AF,C,341151,341151,339538,340451,339539,341618,340952,340952,341618,54
51,test,1,con,1,z,Mon Feb 24 2025 15:15:46 GMT-0600 (Central Standard Time),360409.0,brutal,1000,O,z,z,None,808,609.0,199.0,35,1,2325.800000011921,358083.1999999881,7060,brutal,AF,C,343334,343334,341623,342632,341624,343949,343133,343134,343949,55
52,test,1,con,1,z,Mon Feb 24 2025 15:15:46 GMT-0600 (Central Standard Time),362444.1999999881,temper,900,O,z,z,None,609,410.0,199.0,58,1,2030.800000011921,360413.39999997616,7060,temper,AF,C,345566,345566,343953,344866,343954,345984,345367,345367,345984,56
53,test,1,inc,1,z,Mon Feb 24 2025 15:15:46 GMT-0600 (Central Standard Time),364659.1999999881,film,1100,O,z,z,None,582,366.0,216.0,56,1,2209.5,362449.6999999881,7060,rage,AF,C,347833,347833,345990,347101,345990,348199,347616,347616,348199,57
54,test,1,inc,1,m,Mon Feb 24 2025 15:15:46 GMT-0600 (Central Standard Time),366841.5,love,1000,O,m,m,None,644,428.0,216.0,71,1,2176.9000000059605,364664.59999999404,7060,step,AF,C,349948,349948,348205,349216,348205,350382,349732,349732,350382,58
55,test,1,inc,1,z,Mon Feb 24 2025 15:15:46 GMT-0600 (Central Standard Time),369272.39999997616,bell,1000,O,z,z,None,892,693.0,199.0,47,1,2425.199999988079,366847.1999999881,7060,hate,AF,C,352113,352114,350387,351398,350387,352813,351914,351914,352812,59
56,test,1,inc,1,m,Mon Feb 24 2025 15:15:46 GMT-0600 (Central Standard Time),371656.2999999821,friend,1100,O,m,m,None,734,520.0,214.0,112,1,2379.699999988079,369276.59999999404,7060,napkin,AF,C,354663,354663,352817,353930,352817,355196,354449,354449,355196,60
57,test,1,inc,1,z,Mon Feb 24 2025 15:15:46 GMT-0600 (Central Standard Time),373871.89999997616,jacket,800,O,z,z,None,869,669.0,200.0,5,1,2211.0999999940395,371660.7999999821,7060,elated,AF,C,356730,356730,355201,356013,355201,357412,356530,356530,357412,61
58,test,1,con,1,m,Mon Feb 24 2025 15:15:46 GMT-0600 (Central Standard Time),376153.6999999881,jacket,1000,O,m,m,None,732,519.0,213.0,99,1,2276.699999988079,373877.0,7060,jacket,AF,C,359160,359160,357417,358428,357417,359694,358947,358947,359694,62
59,test,1,con,1,m,Mon Feb 24 2025 15:15:46 GMT-0600 (Central Standard Time),378404.7999999821,film,1000,O,m,m,None,712,498.0,214.0,91,1,2244.5,376160.2999999821,7060,film,AF,C,361445,361445,359700,360712,359701,361945,361230,361230,361945,63
60,test,1,con,1,m,Mon Feb 24 2025 15:15:46 GMT-0600 (Central Standard Time),380819.1999999881,napkin,1100,O,m,m,None,774,559.0,215.0,108,1,2409.699999988079,378409.5,7060,napkin,AF,C,363793,363793,361950,363061,361950,364359,363578,363578,364359,64
61,test,1,inc,1,m,Mon Feb 24 2025 15:15:46 GMT-0600 (Central Standard Time),383219.39999997616,hate,1100,O,m,m,None,780,565.0,215.0,96,1,2395.7999999821186,380823.59999999404,7060,film,AF,C,366194,366194,364364,365477,364364,366760,365979,365979,366759,65
62,test,1,con,1,m,Mon Feb 24 2025 15:15:46 GMT-0600 (Central Standard Time),385700.7999999821,jacket,900,O,m,m,None,1048,847.0,201.0,98,1,2475.7999999821186,383225.0,7060,jacket,AF,C,368393,368393,366765,367676,366765,369241,368192,368192,369241,66
63,test,1,inc,1,m,Mon Feb 24 2025 15:15:46 GMT-0600 (Central Standard Time),388032.6999999881,friend,1100,O,m,m,None,683,484.0,199.0,128,1,2326.699999988079,385706.0,7060,window,AF,C,371074,371074,369246,370358,369247,371573,370875,370875,371573,67
63,test,1,con,0,z,Mon Feb 24 2025 15:15:46 GMT-0600 (Central Standard Time),390267.39999997616,friend,800,O,m,m,None,890,690.0,200.0,25,1,2228.399999976158,388039.0,7060,friend,AF,C,373109,373109,371579,372393,371580,373807,372908,372908,373807,68
64,test,1,inc,1,z,Mon Feb 24 2025 15:15:46 GMT-0600 (Central Standard Time),393049.2999999821,napkin,900,O,z,z,None,1332,1118.0,214.0,30,1,2777.5999999940395,390271.6999999881,7060,friend,AF,C,375456,375456,373812,374724,373812,376589,375241,375241,376589,69
65,test,1,inc,1,z,Mon Feb 24 2025 15:15:46 GMT-0600 (Central Standard Time),395232.39999997616,jacket,800,O,z,z,None,843,644.0,199.0,61,1,2176.0999999940395,393056.2999999821,7060,temper,AF,C,378123,378123,376596,377407,376597,378772,377923,377923,378772,70
66,test,1,inc,1,z,Mon Feb 24 2025 15:15:46 GMT-0600 (Central Standard Time),397465.59999999404,remote,1000,O,z,z,None,695,496.0,199.0,39,1,2225.7000000178814,395239.89999997616,7060,brutal,AF,C,380504,380504,378780,379790,378780,381006,380305,380305,381006,71
67,test,1,con,1,m,Mon Feb 24 2025 15:15:46 GMT-0600 (Central Standard Time),399379.89999997616,window,900,O,m,m,None,474,274.0,200.0,122,1,1906.8999999761581,397473.0,7060,window,AF,C,382637,382637,381013,381921,381014,382920,382437,382437,382920,72
68,test,1,con,1,m,Mon Feb 24 2025 15:15:46 GMT-0600 (Central Standard Time),401530.0,napkin,900,O,m,m,None,724,509.0,215.0,106,1,2142.4000000059605,399387.59999999404,7060,napkin,AF,C,384554,384554,382928,383838,382928,385070,384339,384339,385070,73
69,test,1,con,1,m,Mon Feb 24 2025 15:15:46 GMT-0600 (Central Standard Time),403812.2999999821,bell,1100,O,m,m,None,639,425.0,214.0,84,1,2276.0999999940395,401536.1999999881,7060,bell,AF,C,386919,386919,385076,386188,385077,387352,386705,386705,387352,74
70,test,1,con,1,z,Mon Feb 24 2025 15:15:46 GMT-0600 (Central Standard Time),405629.89999997616,love,800,O,z,z,None,472,272.0,200.0,17,1,1808.8999999761581,403821.0,7060,love,AF,C,388888,388888,387361,388170,387362,389170,388687,388687,389170,75
71,test,1,con,1,z,Mon Feb 24 2025 15:15:46 GMT-0600 (Central Standard Time),408461.7999999821,love,1100,O,z,z,None,1189,990.0,199.0,20,1,2826.7999999821186,405635.0,7060,love,AF,C,391002,391002,389175,390287,389175,392002,390802,390802,392002,76
71,test,1,inc,0,m,Mon Feb 24 2025 15:15:46 GMT-0600 (Central Standard Time),411143.5,temper,1000,O,z,z,None,1137,938.0,199.0,119,1,2671.7000000178814,408471.7999999821,7060,remote,AF,C,393733,393733,392012,393018,392012,394684,393534,393534,394683,77
71,test,1,con,0,m,Mon Feb 24 2025 15:15:46 GMT-0600 (Central Standard Time),413426.39999997616,remote,1100,O,z,z,None,633,432.0,201.0,116,1,2277.5999999940395,411148.7999999821,7060,remote,AF,C,396519,396519,394689,395801,394689,396966,396317,396317,396966,78
72,test,1,con,1,z,Mon Feb 24 2025 15:15:46 GMT-0600 (Central Standard Time),415442.39999997616,hate,800,O,z,z,None,669,468.0,201.0,41,1,2007.5,413434.89999997616,7060,hate,AF,C,398500,398500,396975,397783,396975,398982,398299,398299,398982,79
73,test,1,con,1,z,Mon Feb 24 2025 15:15:46 GMT-0600 (Central Standard Time),417791.6999999881,kind,1000,O,z,z,None,812,611.0,201.0,11,1,2341.699999988079,415450.0,7060,kind,AF,C,400716,400716,398990,400000,398990,401332,400515,400515,401332,80
74,test,1,inc,1,z,Mon Feb 24 2025 15:15:46 GMT-0600 (Central Standard Time),420023.59999999404,bell,1000,O,z,z,None,686,471.0,215.0,15,1,2226.5,417797.09999999404,7060,kind,AF,C,403080,403080,401337,402348,401338,403564,402865,402865,403564,81
75,test,1,inc,1,m,Mon Feb 24 2025 15:15:46 GMT-0600 (Central Standard Time),422056.39999997616,elated,800,O,m,m,None,684,468.0,216.0,125,1,2027.7999999821186,420028.59999999404,7060,window,AF,C,405115,405115,403569,404383,403569,405596,404898,404898,405596,82
76,test,1,con,1,m,Mon Feb 24 2025 15:15:46 GMT-0600 (Central Standard Time),424373.0,rock,900,O,m,m,None,873,674.0,199.0,74,1,2311.7000000178814,422061.2999999821,7060,rock,AF,C,407230,407230,405601,406513,405602,407913,407031,407031,407913,83
77,test,1,con,1,m,Mon Feb 24 2025 15:15:46 GMT-0600 (Central Standard Time),426304.09999999404,jacket,800,O,m,m,None,582,368.0,214.0,97,1,1925.9000000059605,424378.1999999881,7060,jacket,AF,C,409463,409463,407918,408730,407918,409844,409248,409248,409844,84
78,test,1,con,1,m,Mon Feb 24 2025 15:15:46 GMT-0600 (Central Standard Time),428190.1999999881,film,900,O,m,m,None,440,241.0,199.0,90,1,1880.5,426309.6999999881,7060,film,AF,C,411478,411478,409850,410762,409850,411730,411279,411279,411730,85
79,test,1,inc,1,z,Mon Feb 24 2025 15:15:46 GMT-0600 (Central Standard Time),430170.7999999821,step,800,O,z,z,None,643,442.0,201.0,21,1,1975.0,428195.7999999821,7060,love,AF,C,413261,413261,411736,412545,411736,413711,413059,413059,413711,86
80,test,1,inc,1,m,Mon Feb 24 2025 15:15:46 GMT-0600 (Central Standard Time),432786.2999999821,kind,900,O,m,m,None,1175,975.0,200.0,70,1,2610.5999999940395,430175.6999999881,7060,step,AF,C,415345,415345,413716,414628,413716,416326,415145,415145,416326,87
81,test,1,inc,1,z,Mon Feb 24 2025 15:15:46 GMT-0600 (Central Standard Time),434951.6999999881,rock,900,O,z,z,None,741,526.0,215.0,46,1,2161.5,432790.1999999881,7060,hate,AF,C,417961,417961,416330,417243,416331,418492,417745,417745,418492,88
82,test,1,con,1,z,Mon Feb 24 2025 15:15:46 GMT-0600 (Central Standard Time),437602.2999999821,temper,800,O,z,z,None,1299,1085.0,214.0,57,1,2647.0,434955.2999999821,7060,temper,AF,C,420042,420042,418495,419310,418496,421142,419827,419827,421142,89
83,test,1,con,1,z,Mon Feb 24 2025 15:15:46 GMT-0600 (Central Standard Time),439637.59999999404,temper,1000,O,z,z,None,500,301.0,199.0,59,1,2029.5999999940395,437608.0,7060,temper,AF,C,422876,422876,421148,422161,421148,423178,422676,422676,423178,90
84,test,1,con,1,z,Mon Feb 24 2025 15:15:46 GMT-0600 (Central Standard Time),441668.09999999404,rage,1000,O,z,z,None,499,283.0,216.0,51,1,2025.5,439642.59999999404,7060,rage,AF,C,424925,424925,423183,424192,423183,425208,424707,424708,425208,91
85,test,1,inc,1,m,Mon Feb 24 2025 15:15:46 GMT-0600 (Central Standard Time),444199.7999999821,hate,1100,O,m,m,None,885,686.0,199.0,72,1,2526.5,441673.2999999821,7060,step,AF,C,427041,427041,425213,426325,425214,427740,426841,426841,427740,92
86,test,1,inc,1,z,Mon Feb 24 2025 15:15:46 GMT-0600 (Central Standard Time),446232.0,jacket,800,O,z,z,None,694,494.0,200.0,29,1,2027.6000000238419,444204.39999997616,7060,friend,AF,C,429273,429273,427744,428557,427745,429772,429073,429073,429772,93
87,test,1,inc,1,m,Mon Feb 24 2025 15:15:46 GMT-0600 (Central Standard Time),448565.0,rage,800,O,m,m,None,999,800.0,199.0,77,1,2328.100000023842,446236.89999997616,7060,rock,AF,C,431305,431305,429777,430590,429777,432105,431105,431105,432105,94
88,test,1,con,1,z,Mon Feb 24 2025 15:15:46 GMT-0600 (Central Standard Time),450630.89999997616,elated,900,O,z,z,None,628,429.0,199.0,2,1,2061.699999988079,448569.1999999881,7060,elated,AF,C,433739,433739,432109,433022,432110,434171,433538,433539,434171,95
89,test,1,con,1,m,Mon Feb 24 2025 15:15:46 GMT-0600 (Central Standard Time),452731.89999997616,film,1100,O,m,m,None,450,250.0,200.0,92,1,2096.0999999940395,450635.7999999821,7060,film,AF,C,436004,436004,434176,435288,434176,436272,435804,435804,436272,96
90,test,1,con,1,z,Mon Feb 24 2025 15:15:46 GMT-0600 (Central Standard Time),454912.09999999404,rage,1100,O,z,z,None,543,344.0,199.0,52,1,2175.800000011921,452736.2999999821,7060,rage,AF,C,438103,438103,436276,437387,436276,438452,437903,437903,438452,97
91,test,1,inc,1,m,Mon Feb 24 2025 15:15:46 GMT-0600 (Central Standard Time),457311.89999997616,friend,1100,O,m,m,None,751,552.0,199.0,104,1,2395.0,454916.89999997616,7060,jacket,AF,C,440287,440287,438457,439569,438457,440852,440087,440087,440852,98
92,test,1,inc,1,m,Mon Feb 24 2025 15:15:46 GMT-0600 (Central Standard Time),459494.0,elated,800,O,m,m,None,847,632.0,215.0,101,1,2177.600000023842,457316.39999997616,7060,jacket,AF,C,442402,442402,440856,441668,440857,443034,442187,442187,443034,99
93,test,1,inc,1,m,Mon Feb 24 2025 15:15:46 GMT-0600 (Central Standard Time),461759.5,temper,1000,O,m,m,None,725,526.0,199.0,103,1,2261.5,459498.0,7060,jacket,AF,C,444769,444769,443038,444051,443038,445300,444569,444569,445299,100
94,test,1,con,1,m,Mon Feb 24 2025 15:15:46 GMT-0600 (Central Standard Time),463593.39999997616,remote,800,O,m,m,None,485,286.0,199.0,113,1,1829.0,461764.39999997616,7060,remote,AF,C,446833,446833,445304,446118,445305,447133,446634,446634,447133,101
95,test,1,con,1,z,Mon Feb 24 2025 15:15:46 GMT-0600 (Central Standard Time),466191.7999999821,brutal,1100,O,z,z,None,960,745.0,215.0,36,1,2593.0,463598.7999999821,7060,brutal,AF,C,448983,448983,447139,448250,447139,449732,448768,448768,449732,102
96,test,1,inc,1,m,Mon Feb 24 2025 15:15:46 GMT-0600 (Central Standard Time),469141.59999999404,rage,800,O,m,m,None,1605,1406.0,199.0,93,1,2946.0999999940395,466195.5,7060,film,AF,C,451266,451266,449736,450550,449736,452682,451066,451066,452682,103
97,test,1,inc,1,z,Mon Feb 24 2025 15:15:46 GMT-0600 (Central Standard Time),471408.2999999821,remote,1000,O,z,z,None,729,529.0,200.0,7,1,2261.199999988079,469147.09999999404,7060,elated,AF,C,454415,454415,452687,453699,452687,454948,454215,454215,454948,104
98,test,1,con,1,z,Mon Feb 24 2025 15:15:46 GMT-0600 (Central Standard Time),474939.59999999404,friend,1000,O,z,z,None,1989,1773.0,216.0,27,1,3527.0999999940395,471412.5,7060,friend,AF,C,456698,456698,454953,455964,454953,458480,456482,456482,458480,105
99,test,1,con,1,z,Mon Feb 24 2025 15:15:46 GMT-0600 (Central Standard Time),477038.0,hate,1100,O,z,z,None,451,237.0,214.0,44,1,2093.4000000059605,474944.59999999404,7060,hate,AF,C,460330,460330,458485,459597,458485,460578,460114,460115,460578,106
100,test,1,con,1,z,Mon Feb 24 2025 15:15:46 GMT-0600 (Central Standard Time),479053.7999999821,elated,1100,O,z,z,None,378,179.0,199.0,4,1,2009.9000000059605,477043.89999997616,7060,elated,AF,C,462411,462411,460584,461697,460584,462594,462212,462212,462594,107
101,test,1,inc,1,z,Mon Feb 24 2025 15:15:46 GMT-0600 (Central Standard Time),481254.5,step,800,O,z,z,None,852,638.0,214.0,45,1,2198.0,479056.5,7060,hate,AF,C,464145,464145,462597,463411,462597,464795,463931,463931,464795,108
102,test,1,inc,1,z,Mon Feb 24 2025 15:15:46 GMT-0600 (Central Standard Time),483203.59999999404,rock,900,O,z,z,None,507,307.0,200.0,22,1,1944.0999999940395,481259.5,7060,love,AF,C,466428,466428,464800,465713,464800,466744,466228,466228,466744,109
103,test,1,inc,1,m,Mon Feb 24 2025 15:15:46 GMT-0600 (Central Standard Time),485420.89999997616,brutal,900,O,m,m,None,783,583.0,200.0,102,1,2212.699999988079,483208.1999999881,7060,jacket,AF,C,468378,468378,466748,467661,466749,468961,468177,468177,468961,110
104,test,1,inc,1,z,Mon Feb 24 2025 15:15:46 GMT-0600 (Central Standard Time),487518.1999999881,napkin,900,O,z,z,None,661,445.0,216.0,38,1,2092.9000000059605,485425.2999999821,7060,brutal,AF,C,470610,470610,468965,469877,468966,471058,470394,470394,471058,111
105,test,1,inc,1,z,Mon Feb 24 2025 15:15:46 GMT-0600 (Central Standard Time),489833.1999999881,film,1100,O,z,z,None,676,474.0,202.0,16,1,2308.5999999940395,487524.59999999404,7060,kind,AF,C,472892,472892,471065,472177,471065,473373,472690,472690,473373,112
106,test,1,inc,1,z,Mon Feb 24 2025 15:15:46 GMT-0600 (Central Standard Time),492216.5,step,800,O,z,z,None,1043,842.0,201.0,13,1,2380.7000000178814,489835.7999999821,7060,kind,AF,C,474909,474909,473376,474193,473376,475757,474708,474708,475757,113
107,test,1,inc,1,z,Mon Feb 24 2025 15:15:46 GMT-0600 (Central Standard Time),494616.59999999404,window,1100,O,z,z,None,762,561.0,201.0,40,1,2395.300000011921,492221.2999999821,7060,brutal,AF,C,477591,477591,475761,476875,475762,478157,477390,477390,478157,114
108,test,1,con,1,m,Mon Feb 24 2025 15:15:46 GMT-0600 (Central Standard Time),497848.89999997616,window,1000,O,m,m,None,1694,1493.0,201.0,123,1,3229.199999988079,494619.6999999881,7060,window,AF,C,479889,479889,478160,479174,478160,481389,479688,479688,481389,115
109,test,1,inc,1,m,Mon Feb 24 2025 15:15:46 GMT-0600 (Central Standard Time),500497.1999999881,rage,800,O,m,m,None,1309,1109.0,200.0,69,1,2643.699999988079,497853.5,7060,step,AF,C,482921,482921,481394,482206,481394,484037,482720,482721,484037,116
110,test,1,con,1,z,Mon Feb 24 2025 15:15:46 GMT-0600 (Central Standard Time),502531.2999999821,elated,1000,O,z,z,None,482,281.0,201.0,3,1,2028.2999999821186,500503.0,7060,elated,AF,C,485773,485773,484043,485056,484043,486071,485571,485571,486071,117
111,test,1,con,1,m,Mon Feb 24 2025 15:15:46 GMT-0600 (Central Standard Time),504513.59999999404,window,800,O,m,m,None,642,441.0,201.0,121,1,1977.800000011921,502535.7999999821,7060,window,AF,C,487605,487606,486076,486887,486076,488054,487404,487404,488054,118
112,test,1,con,1,m,Mon Feb 24 2025 15:15:46 GMT-0600 (Central Standard Time),506596.5,rock,800,O,m,m,None,741,542.0,199.0,73,1,2077.9000000059605,504518.59999999404,7060,rock,AF,C,489586,489586,488059,488871,488059,490137,489387,489387,490137,119
112,test,1,con,0,m,Mon Feb 24 2025 15:15:46 GMT-0600 (Central Standard Time),508595.09999999404,remote,900,O,z,z,None,564,365.0,199.0,114,1,1994.0,506601.09999999404,7060,remote,AF,C,491769,491770,490141,491054,490141,492135,491570,491570,492135,120
112,test,1,con,0,m,Mon Feb 24 2025 15:15:46 GMT-0600 (Central Standard Time),510661.5,remote,1000,O,z,z,None,532,331.0,201.0,115,1,2060.4000000059605,508601.09999999404,7060,remote,AF,C,493870,493870,492141,493154,492141,494202,493669,493669,494202,121
113,test,1,inc,1,z,Mon Feb 24 2025 15:15:46 GMT-0600 (Central Standard Time),512778.0,jacket,800,O,z,z,None,781,566.0,215.0,37,1,2109.100000023842,510668.89999997616,7060,brutal,AF,C,495737,495737,494209,495019,494209,496318,495521,495521,496318,122
114,test,1,con,1,z,Mon Feb 24 2025 15:15:46 GMT-0600 (Central Standard Time),514677.0,rage,900,O,z,z,None,455,255.0,200.0,50,1,1893.2000000178814,512783.7999999821,7060,rage,AF,C,497952,497952,496324,497234,496324,498217,497752,497752,498217,123
115,test,1,inc,1,z,Mon Feb 24 2025 15:15:46 GMT-0600 (Central Standard Time),516708.5,rock,900,O,z,z,None,597,397.0,200.0,54,1,2024.6000000238419,514683.89999997616,7060,rage,AF,C,499851,499851,498224,499135,498224,500249,499650,499650,500249,124
116,test,1,con,1,z,Mon Feb 24 2025 15:15:46 GMT-0600 (Central Standard Time),519245.0,kind,900,O,z,z,None,1102,902.0,200.0,10,1,2531.600000023842,516713.39999997616,7060,kind,AF,C,501883,501883,500253,501166,500254,502785,501682,501682,502785,125
117,test,1,con,1,z,Mon Feb 24 2025 15:15:46 GMT-0600 (Central Standard Time),522691.2999999821,friend,900,O,z,z,None,2005,1790.0,215.0,26,1,3440.5,519250.7999999821,7060,friend,AF,C,504433,504433,502791,503700,502791,506231,504218,504218,506231,126
118,test,1,inc,1,z,Mon Feb 24 2025 15:15:46 GMT-0600 (Central Standard Time),524990.7999999821,napkin,900,O,z,z,None,852,653.0,199.0,62,1,2295.5,522695.2999999821,7060,temper,AF,C,507866,507866,506235,507148,506236,508531,507666,507666,508531,127
119,test,1,inc,1,z,Mon Feb 24 2025 15:15:46 GMT-0600 (Central Standard Time),527273.7999999821,window,1100,O,z,z,None,635,434.0,201.0,32,1,2278.4000000059605,524995.3999999762,7060,friend,AF,C,510365,510365,508535,509648,508536,510814,510163,510163,510814,128
