block_c,block_dur,condition,countdown,datetime,endtime,list,multichar_response,project,response,response_time,session_number,start_end,starttime,subject_id,task,task_vers,trial
,,,,Mon Jan 27 2025 14:04:08 GMT-0600 (Central Standard Time),,,,O,space,1020,1,,,7043,WL,C,
prac,,0,,Mon Jan 27 2025 14:04:08 GMT-0600 (Central Standard Time),,NA,b,O,b,1954,1,,,7043,WL,C,1.0
prac,,0,,Mon Jan 27 2025 14:04:08 GMT-0600 (Central Standard Time),,NA,bo,O,o,535,1,,,7043,WL,C,1.0
prac,,0,,Mon Jan 27 2025 14:04:08 GMT-0600 (Central Standard Time),,NA,boo,O,o,145,1,,,7043,WL,C,1.0
prac,,0,,Mon Jan 27 2025 14:04:08 GMT-0600 (Central Standard Time),,NA,boos,O,s,51,1,,,7043,WL,C,1.0
prac,,0,,Mon Jan 27 2025 14:04:08 GMT-0600 (Central Standard Time),,NA,boost,O,t,249,1,,,7043,WL,C,1.0
prac,,0,,Mon Jan 27 2025 14:04:08 GMT-0600 (Central Standard Time),,NA,boostenter,O,enter,1573,1,,,7043,WL,C,1.0
1,1.181999921798706,learn,58818.000078201294,Mon Jan 27 2025 14:04:08 GMT-0600 (Central Standard Time),146478.19999999925,A,t,O,t,1162,1,1182.3999999994412,145295.7999999998,7043,WL,C,1.0
1,1.4839999675750732,learn,58516.00003242493,Mon Jan 27 2025 14:04:08 GMT-0600 (Central Standard Time),146779.7999999998,A,to,O,o,283,1,1484.0,145295.7999999998,7043,WL,C,1.0
1,1.6659998893737793,learn,58334.00011062622,Mon Jan 27 2025 14:04:08 GMT-0600 (Central Standard Time),146961.2999999998,A,tow,O,w,166,1,1665.5,145295.7999999998,7043,WL,C,1.0
1,1.8829998970031738,learn,58117.000102996826,Mon Jan 27 2025 14:04:08 GMT-0600 (Central Standard Time),147179.0,A,towe,O,e,200,1,1883.2000000001863,145295.7999999998,7043,WL,C,1.0
1,2.0820000171661377,learn,57917.99998283386,Mon Jan 27 2025 14:04:08 GMT-0600 (Central Standard Time),147378.0,A,tower,O,r,183,1,2082.2000000001863,145295.7999999998,7043,WL,C,1.0
1,2.6989998817443848,learn,57301.000118255615,Mon Jan 27 2025 14:04:08 GMT-0600 (Central Standard Time),147994.39999999944,A,towerenter,O,enter,608,1,2698.5999999996275,145295.7999999998,7043,WL,C,1.0
1,3.297999858856201,learn,56702.0001411438,Mon Jan 27 2025 14:04:08 GMT-0600 (Central Standard Time),148594.09999999963,A,w,O,w,583,1,599.2999999998137,147994.7999999998,7043,WL,C,2.0
1,3.5149998664855957,learn,56485.000133514404,Mon Jan 27 2025 14:04:08 GMT-0600 (Central Standard Time),148810.7999999998,A,wh,O,h,200,1,816.0,147994.7999999998,7043,WL,C,2.0
1,3.6649999618530273,learn,56335.00003814697,Mon Jan 27 2025 14:04:08 GMT-0600 (Central Standard Time),148960.59999999963,A,wha,O,a,135,1,965.7999999998137,147994.7999999998,7043,WL,C,2.0
1,3.797999858856201,learn,56202.0001411438,Mon Jan 27 2025 14:04:08 GMT-0600 (Central Standard Time),149093.89999999944,A,what,O,t,114,1,1099.0999999996275,147994.7999999998,7043,WL,C,2.0
1,4.2809998989105225,learn,55719.00010108948,Mon Jan 27 2025 14:04:08 GMT-0600 (Central Standard Time),149577.19999999925,A,wha,O,backspace,467,1,1582.3999999994412,147994.7999999998,7043,WL,C,2.0
1,4.431999921798706,learn,55568.000078201294,Mon Jan 27 2025 14:04:08 GMT-0600 (Central Standard Time),149727.2999999998,A,wh,O,backspace,136,1,1732.5,147994.7999999998,7043,WL,C,2.0
1,4.5320000648498535,learn,55467.99993515015,Mon Jan 27 2025 14:04:08 GMT-0600 (Central Standard Time),149827.39999999944,A,whe,O,e,83,1,1832.5999999996275,147994.7999999998,7043,WL,C,2.0
1,4.664999961853027,learn,55335.00003814697,Mon Jan 27 2025 14:04:08 GMT-0600 (Central Standard Time),149960.39999999944,A,whea,O,a,111,1,1965.5999999996275,147994.7999999998,7043,WL,C,2.0
1,4.73199987411499,learn,55268.00012588501,Mon Jan 27 2025 14:04:08 GMT-0600 (Central Standard Time),150027.2999999998,A,whear,O,r,50,1,2032.5,147994.7999999998,7043,WL,C,2.0
1,5.115000009536743,learn,54884.99999046326,Mon Jan 27 2025 14:04:08 GMT-0600 (Central Standard Time),150410.39999999944,A,whearenter,O,enter,367,1,2415.5999999996275,147994.7999999998,7043,WL,C,2.0
1,9.61299991607666,learn,50387.00008392334,Mon Jan 27 2025 14:04:08 GMT-0600 (Central Standard Time),154908.89999999944,A,c,O,c,4479,1,4498.0,150410.89999999944,7043,WL,C,3.0
1,9.69700002670288,learn,50302.99997329712,Mon Jan 27 2025 14:04:08 GMT-0600 (Central Standard Time),154992.39999999944,A,co,O,o,69,1,4581.5,150410.89999999944,7043,WL,C,3.0
1,9.845999956130981,learn,50154.00004386902,Mon Jan 27 2025 14:04:08 GMT-0600 (Central Standard Time),155142.09999999963,A,cor,O,r,129,1,4731.200000000186,150410.89999999944,7043,WL,C,3.0
1,9.96399998664856,learn,50036.00001335144,Mon Jan 27 2025 14:04:08 GMT-0600 (Central Standard Time),155259.69999999925,A,corn,O,n,108,1,4848.799999999814,150410.89999999944,7043,WL,C,3.0
1,10.36299991607666,learn,49637.00008392334,Mon Jan 27 2025 14:04:08 GMT-0600 (Central Standard Time),155658.39999999944,A,cornenter,O,enter,390,1,5247.5,150410.89999999944,7043,WL,C,3.0
1,11.145999908447266,learn,48854.000091552734,Mon Jan 27 2025 14:04:08 GMT-0600 (Central Standard Time),156441.89999999944,A,d,O,d,768,1,783.2000000001863,155658.69999999925,7043,WL,C,4.0
1,11.36299991607666,learn,48637.00008392334,Mon Jan 27 2025 14:04:08 GMT-0600 (Central Standard Time),156658.39999999944,A,do,O,o,192,1,999.7000000001863,155658.69999999925,7043,WL,C,4.0
1,11.562999963760376,learn,48437.000036239624,Mon Jan 27 2025 14:04:08 GMT-0600 (Central Standard Time),156858.5,A,doc,O,c,191,1,1199.800000000745,155658.69999999925,7043,WL,C,4.0
1,11.845999956130981,learn,48154.00004386902,Mon Jan 27 2025 14:04:08 GMT-0600 (Central Standard Time),157141.59999999963,A,doct,O,t,271,1,1482.9000000003725,155658.69999999925,7043,WL,C,4.0
1,11.980000019073486,learn,48019.999980926514,Mon Jan 27 2025 14:04:08 GMT-0600 (Central Standard Time),157275.39999999944,A,docto,O,o,116,1,1616.7000000001863,155658.69999999925,7043,WL,C,4.0
1,12.078999996185303,learn,47921.0000038147,Mon Jan 27 2025 14:04:08 GMT-0600 (Central Standard Time),157374.89999999944,A,doctor,O,r,79,1,1716.2000000001863,155658.69999999925,7043,WL,C,4.0
1,12.428999900817871,learn,47571.00009918213,Mon Jan 27 2025 14:04:08 GMT-0600 (Central Standard Time),157724.7999999998,A,doctorenter,O,enter,331,1,2066.100000000559,155658.69999999925,7043,WL,C,4.0
1,13.178999900817871,learn,46821.00009918213,Mon Jan 27 2025 14:04:08 GMT-0600 (Central Standard Time),158474.2999999998,A,b,O,b,734,1,749.1000000005588,157725.19999999925,7043,WL,C,5.0
1,13.394999980926514,learn,46605.000019073486,Mon Jan 27 2025 14:04:08 GMT-0600 (Central Standard Time),158690.7999999998,A,bo,O,o,208,1,965.6000000005588,157725.19999999925,7043,WL,C,5.0
1,13.578999996185303,learn,46421.0000038147,Mon Jan 27 2025 14:04:08 GMT-0600 (Central Standard Time),158874.2999999998,A,boy,O,y,176,1,1149.1000000005588,157725.19999999925,7043,WL,C,5.0
1,13.977999925613403,learn,46022.0000743866,Mon Jan 27 2025 14:04:08 GMT-0600 (Central Standard Time),159274.0,A,boyenter,O,enter,392,1,1548.800000000745,157725.19999999925,7043,WL,C,5.0
1,14.76199984550476,learn,45238.00015449524,Mon Jan 27 2025 14:04:08 GMT-0600 (Central Standard Time),160057.2999999998,A,h,O,h,768,1,782.9000000003725,159274.39999999944,7043,WL,C,6.0
1,14.92799997329712,learn,45072.00002670288,Mon Jan 27 2025 14:04:08 GMT-0600 (Central Standard Time),160223.89999999944,A,ho,O,o,145,1,949.5,159274.39999999944,7043,WL,C,6.0
1,15.07800006866455,learn,44921.99993133545,Mon Jan 27 2025 14:04:08 GMT-0600 (Central Standard Time),160374.0,A,hom,O,m,137,1,1099.6000000005588,159274.39999999944,7043,WL,C,6.0
1,15.228999853134155,learn,44771.000146865845,Mon Jan 27 2025 14:04:08 GMT-0600 (Central Standard Time),160524.7999999998,A,home,O,e,132,1,1250.4000000003725,159274.39999999944,7043,WL,C,6.0
1,15.711999893188477,learn,44288.00010681152,Mon Jan 27 2025 14:04:08 GMT-0600 (Central Standard Time),161008.0,A,homeenter,O,enter,469,1,1733.6000000005588,159274.39999999944,7043,WL,C,6.0
1,16.494999885559082,learn,43505.00011444092,Mon Jan 27 2025 14:04:08 GMT-0600 (Central Standard Time),161790.2999999998,A,q,O,q,770,1,781.9000000003725,161008.39999999944,7043,WL,C,7.0
1,16.67799997329712,learn,43322.00002670288,Mon Jan 27 2025 14:04:08 GMT-0600 (Central Standard Time),161973.2999999998,A,qu,O,u,164,1,964.9000000003725,161008.39999999944,7043,WL,C,7.0
1,16.8439998626709,learn,43156.0001373291,Mon Jan 27 2025 14:04:08 GMT-0600 (Central Standard Time),162140.0,A,que,O,e,149,1,1131.6000000005588,161008.39999999944,7043,WL,C,7.0
1,17.043999910354614,learn,42956.000089645386,Mon Jan 27 2025 14:04:08 GMT-0600 (Central Standard Time),162340.09999999963,A,quee,O,e,183,1,1331.7000000001863,161008.39999999944,7043,WL,C,7.0
1,17.793999910354614,learn,42206.000089645386,Mon Jan 27 2025 14:04:08 GMT-0600 (Central Standard Time),163089.59999999963,A,queen,O,n,734,1,2081.2000000001863,161008.39999999944,7043,WL,C,7.0
1,18.65999984741211,learn,41340.00015258789,Mon Jan 27 2025 14:04:08 GMT-0600 (Central Standard Time),163955.89999999944,A,queenenter,O,enter,848,1,2947.5,161008.39999999944,7043,WL,C,7.0
1,21.425999879837036,learn,38574.000120162964,Mon Jan 27 2025 14:04:08 GMT-0600 (Central Standard Time),166722.09999999963,A,f,O,f,2750,1,2765.7999999998137,163956.2999999998,7043,WL,C,8.0
1,21.625999927520752,learn,38374.00007247925,Mon Jan 27 2025 14:04:08 GMT-0600 (Central Standard Time),166921.89999999944,A,fl,O,l,176,1,2965.5999999996275,163956.2999999998,7043,WL,C,8.0
1,21.70899987220764,learn,38291.00012779236,Mon Jan 27 2025 14:04:08 GMT-0600 (Central Standard Time),167005.09999999963,A,fla,O,a,72,1,3048.7999999998137,163956.2999999998,7043,WL,C,8.0
1,22.14299988746643,learn,37857.00011253357,Mon Jan 27 2025 14:04:08 GMT-0600 (Central Standard Time),167438.5,A,flag,O,g,422,1,3482.2000000001863,163956.2999999998,7043,WL,C,8.0
1,22.509000062942505,learn,37490.999937057495,Mon Jan 27 2025 14:04:08 GMT-0600 (Central Standard Time),167805.0,A,flagenter,O,enter,356,1,3848.7000000001863,163956.2999999998,7043,WL,C,8.0
1,37.28699994087219,learn,22713.000059127808,Mon Jan 27 2025 14:04:08 GMT-0600 (Central Standard Time),182583.5,A,c,O,c,14757,1,14778.100000000559,167805.39999999944,7043,WL,C,9.0
1,37.437000036239624,learn,22562.999963760376,Mon Jan 27 2025 14:04:08 GMT-0600 (Central Standard Time),182733.39999999944,A,ca,O,a,129,1,14928.0,167805.39999999944,7043,WL,C,9.0
1,37.73399996757507,learn,22266.000032424927,Mon Jan 27 2025 14:04:08 GMT-0600 (Central Standard Time),183030.39999999944,A,cam,O,m,289,1,15225.0,167805.39999999944,7043,WL,C,9.0
1,39.019999980926514,learn,20980.000019073486,Mon Jan 27 2025 14:04:08 GMT-0600 (Central Standard Time),184316.2999999998,A,camp,O,p,1267,1,16510.900000000373,167805.39999999944,7043,WL,C,9.0
1,39.6029999256134,learn,20397.000074386597,Mon Jan 27 2025 14:04:08 GMT-0600 (Central Standard Time),184899.59999999963,A,campenter,O,enter,574,1,17094.200000000186,167805.39999999944,7043,WL,C,9.0
1,60.013999938964844,learn,-13.99993896484375,Mon Jan 27 2025 14:04:08 GMT-0600 (Central Standard Time),205310.0,A,None,O,None,20403,1,20410.0,184900.0,7043,WL,C,10.0
2,1.1500000953674316,learn,58849.99990463257,Mon Jan 27 2025 14:04:08 GMT-0600 (Central Standard Time),274454.89999999944,A,c,O,c,1138,1,1149.5999999996275,273305.2999999998,7043,WL,C,1.0
2,1.2669999599456787,learn,58733.00004005432,Mon Jan 27 2025 14:04:08 GMT-0600 (Central Standard Time),274571.69999999925,A,ca,O,a,107,1,1266.3999999994412,273305.2999999998,7043,WL,C,1.0
2,1.5160000324249268,learn,58483.99996757507,Mon Jan 27 2025 14:04:08 GMT-0600 (Central Standard Time),274821.2999999998,A,cat,O,t,239,1,1516.0,273305.2999999998,7043,WL,C,1.0
2,1.633000135421753,learn,58366.99986457825,Mon Jan 27 2025 14:04:08 GMT-0600 (Central Standard Time),274938.39999999944,A,catt,O,t,109,1,1633.0999999996275,273305.2999999998,7043,WL,C,1.0
2,1.8500001430511475,learn,58149.99985694885,Mon Jan 27 2025 14:04:08 GMT-0600 (Central Standard Time),275154.69999999925,A,cattl,O,l,200,1,1849.3999999994412,273305.2999999998,7043,WL,C,1.0
2,2.0329999923706055,learn,57967.000007629395,Mon Jan 27 2025 14:04:08 GMT-0600 (Central Standard Time),275338.0999999996,A,cattle,O,e,160,1,2032.7999999998137,273305.2999999998,7043,WL,C,1.0
2,2.5829999446868896,learn,57417.00005531311,Mon Jan 27 2025 14:04:08 GMT-0600 (Central Standard Time),275887.69999999925,A,cattleenter,O,enter,536,1,2582.399999999441,273305.2999999998,7043,WL,C,1.0
2,3.249000072479248,learn,56750.99992752075,Mon Jan 27 2025 14:04:08 GMT-0600 (Central Standard Time),276554.2999999998,A,s,O,s,642,1,666.2000000001863,275888.0999999996,7043,WL,C,2.0
2,3.3329999446868896,learn,56667.00005531311,Mon Jan 27 2025 14:04:08 GMT-0600 (Central Standard Time),276637.5999999996,A,sh,O,h,72,1,749.5,275888.0999999996,7043,WL,C,2.0
2,3.4660000801086426,learn,56533.99991989136,Mon Jan 27 2025 14:04:08 GMT-0600 (Central Standard Time),276770.5999999996,A,sho,O,o,125,1,882.5,275888.0999999996,7043,WL,C,2.0
2,3.565999984741211,learn,56434.00001525879,Mon Jan 27 2025 14:04:08 GMT-0600 (Central Standard Time),276870.7999999998,A,shor,O,r,80,1,982.7000000001863,275888.0999999996,7043,WL,C,2.0
2,3.6660001277923584,learn,56333.99987220764,Mon Jan 27 2025 14:04:08 GMT-0600 (Central Standard Time),276970.7999999998,A,shore,O,e,83,1,1082.7000000001863,275888.0999999996,7043,WL,C,2.0
2,4.084000110626221,learn,55915.99988937378,Mon Jan 27 2025 14:04:08 GMT-0600 (Central Standard Time),277389.2999999998,A,shoreenter,O,enter,400,1,1501.2000000001863,275888.0999999996,7043,WL,C,2.0
2,4.598999977111816,learn,55401.00002288818,Mon Jan 27 2025 14:04:08 GMT-0600 (Central Standard Time),277903.69999999925,A,b,O,b,494,1,514.1999999992549,277389.5,7043,WL,C,3.0
2,4.815000057220459,learn,55184.99994277954,Mon Jan 27 2025 14:04:08 GMT-0600 (Central Standard Time),278120.2999999998,A,bo,O,o,194,1,730.7999999998137,277389.5,7043,WL,C,3.0
2,5.166000127792358,learn,54833.99987220764,Mon Jan 27 2025 14:04:08 GMT-0600 (Central Standard Time),278470.5,A,bod,O,d,330,1,1081.0,277389.5,7043,WL,C,3.0
2,6.215000152587891,learn,53784.99984741211,Mon Jan 27 2025 14:04:08 GMT-0600 (Central Standard Time),279520.0999999996,A,body,O,y,1036,1,2130.5999999996275,277389.5,7043,WL,C,3.0
2,6.648000001907349,learn,53351.99999809265,Mon Jan 27 2025 14:04:08 GMT-0600 (Central Standard Time),279953.2999999998,A,bodyenter,O,enter,410,1,2563.7999999998137,277389.5,7043,WL,C,3.0
2,7.414000034332275,learn,52585.999965667725,Mon Jan 27 2025 14:04:08 GMT-0600 (Central Standard Time),280719.5,A,n,O,n,745,1,765.8000000007451,279953.69999999925,7043,WL,C,4.0
2,7.531000137329102,learn,52468.9998626709,Mon Jan 27 2025 14:04:08 GMT-0600 (Central Standard Time),280836.39999999944,A,na,O,a,99,1,882.7000000001863,279953.69999999925,7043,WL,C,4.0
2,7.615000009536743,learn,52384.99999046326,Mon Jan 27 2025 14:04:08 GMT-0600 (Central Standard Time),280919.5,A,nau,O,u,70,1,965.8000000007451,279953.69999999925,7043,WL,C,4.0
2,7.79800009727478,learn,52201.99990272522,Mon Jan 27 2025 14:04:08 GMT-0600 (Central Standard Time),281102.69999999925,A,nauk,O,k,163,1,1149.0,279953.69999999925,7043,WL,C,4.0
2,8.331000089645386,learn,51668.999910354614,Mon Jan 27 2025 14:04:08 GMT-0600 (Central Standard Time),281636.0,A,nau,O,backspace,523,1,1682.300000000745,279953.69999999925,7043,WL,C,4.0
2,8.513999938964844,learn,51486.000061035156,Mon Jan 27 2025 14:04:08 GMT-0600 (Central Standard Time),281819.19999999925,A,na,O,backspace,167,1,1865.5,279953.69999999925,7043,WL,C,4.0
2,9.314000129699707,learn,50685.99987030029,Mon Jan 27 2025 14:04:08 GMT-0600 (Central Standard Time),282618.89999999944,A,nai,O,i,791,1,2665.2000000001863,279953.69999999925,7043,WL,C,4.0
2,9.54800009727478,learn,50451.99990272522,Mon Jan 27 2025 14:04:08 GMT-0600 (Central Standard Time),282853.2999999998,A,nail,O,l,215,1,2899.600000000559,279953.69999999925,7043,WL,C,4.0
2,10.031000137329102,learn,49968.9998626709,Mon Jan 27 2025 14:04:08 GMT-0600 (Central Standard Time),283335.69999999925,A,nailenter,O,enter,461,1,3382.0,279953.69999999925,7043,WL,C,4.0
2,10.38100004196167,learn,49618.99995803833,Mon Jan 27 2025 14:04:08 GMT-0600 (Central Standard Time),283685.5999999996,A,l,O,l,339,1,349.5,283336.0999999996,7043,WL,C,5.0
2,10.581000089645386,learn,49418.999910354614,Mon Jan 27 2025 14:04:08 GMT-0600 (Central Standard Time),283886.0,A,le,O,e,189,1,549.9000000003725,283336.0999999996,7043,WL,C,5.0
2,10.980000019073486,learn,49019.999980926514,Mon Jan 27 2025 14:04:08 GMT-0600 (Central Standard Time),284285.19999999925,A,let,O,t,389,1,949.0999999996275,283336.0999999996,7043,WL,C,5.0
2,11.19700002670288,learn,48802.99997329712,Mon Jan 27 2025 14:04:08 GMT-0600 (Central Standard Time),284501.7999999998,A,lete,O,e,198,1,1165.7000000001863,283336.0999999996,7043,WL,C,5.0
2,11.297000169754028,learn,48702.99983024597,Mon Jan 27 2025 14:04:08 GMT-0600 (Central Standard Time),284601.69999999925,A,leter,O,r,77,1,1265.5999999996275,283336.0999999996,7043,WL,C,5.0
2,11.980000019073486,learn,48019.999980926514,Mon Jan 27 2025 14:04:08 GMT-0600 (Central Standard Time),285284.89999999944,A,lete,O,backspace,672,1,1948.7999999998137,283336.0999999996,7043,WL,C,5.0
2,12.11300015449524,learn,47886.99984550476,Mon Jan 27 2025 14:04:08 GMT-0600 (Central Standard Time),285418.19999999925,A,let,O,backspace,126,1,2082.0999999996275,283336.0999999996,7043,WL,C,5.0
2,12.263999938964844,learn,47736.000061035156,Mon Jan 27 2025 14:04:08 GMT-0600 (Central Standard Time),285569.0999999996,A,lett,O,t,136,1,2233.0,283336.0999999996,7043,WL,C,5.0
2,12.413000106811523,learn,47586.99989318848,Mon Jan 27 2025 14:04:08 GMT-0600 (Central Standard Time),285718.0,A,lette,O,e,137,1,2381.9000000003725,283336.0999999996,7043,WL,C,5.0
2,12.513000011444092,learn,47486.99998855591,Mon Jan 27 2025 14:04:08 GMT-0600 (Central Standard Time),285818.0999999996,A,letter,O,r,76,1,2482.0,283336.0999999996,7043,WL,C,5.0
2,12.746000051498413,learn,47253.99994850159,Mon Jan 27 2025 14:04:08 GMT-0600 (Central Standard Time),286051.0,A,letterenter,O,enter,224,1,2714.9000000003725,283336.0999999996,7043,WL,C,5.0
2,13.628999948501587,learn,46371.00005149841,Mon Jan 27 2025 14:04:08 GMT-0600 (Central Standard Time),286934.39999999944,A,b,O,b,864,1,883.2000000001863,286051.19999999925,7043,WL,C,6.0
2,13.92900013923645,learn,46070.99986076355,Mon Jan 27 2025 14:04:08 GMT-0600 (Central Standard Time),287234.0999999996,A,bo,O,o,292,1,1182.9000000003725,286051.19999999925,7043,WL,C,6.0
2,15.062000036239624,learn,44937.999963760376,Mon Jan 27 2025 14:04:08 GMT-0600 (Central Standard Time),288367.2999999998,A,boy,O,y,1113,1,2316.100000000559,286051.19999999925,7043,WL,C,6.0
2,15.361999988555908,learn,44638.00001144409,Mon Jan 27 2025 14:04:08 GMT-0600 (Central Standard Time),288667.0999999996,A,boyenter,O,enter,283,1,2615.9000000003725,286051.19999999925,7043,WL,C,6.0
2,15.911999940872192,learn,44088.00005912781,Mon Jan 27 2025 14:04:08 GMT-0600 (Central Standard Time),289217.0999999996,A,d,O,d,535,1,549.7000000001863,288667.39999999944,7043,WL,C,7.0
2,16.161999940872192,learn,43838.00005912781,Mon Jan 27 2025 14:04:08 GMT-0600 (Central Standard Time),289466.5999999996,A,do,O,o,233,1,799.2000000001863,288667.39999999944,7043,WL,C,7.0
2,16.378999948501587,learn,43621.00005149841,Mon Jan 27 2025 14:04:08 GMT-0600 (Central Standard Time),289683.5,A,doc,O,c,200,1,1016.1000000005588,288667.39999999944,7043,WL,C,7.0
2,16.710999965667725,learn,43289.000034332275,Mon Jan 27 2025 14:04:08 GMT-0600 (Central Standard Time),290016.7999999998,A,doct,O,t,319,1,1349.4000000003725,288667.39999999944,7043,WL,C,7.0
2,16.894999980926514,learn,43105.000019073486,Mon Jan 27 2025 14:04:08 GMT-0600 (Central Standard Time),290199.89999999944,A,docto,O,o,170,1,1532.5,288667.39999999944,7043,WL,C,7.0
2,16.945000171661377,learn,43054.99982833862,Mon Jan 27 2025 14:04:08 GMT-0600 (Central Standard Time),290250.0,A,doctor,O,r,26,1,1582.6000000005588,288667.39999999944,7043,WL,C,7.0
2,17.39400005340576,learn,42605.99994659424,Mon Jan 27 2025 14:04:08 GMT-0600 (Central Standard Time),290699.89999999944,A,doctorenter,O,enter,432,1,2032.5,288667.39999999944,7043,WL,C,7.0
2,18.811000108718872,learn,41188.99989128113,Mon Jan 27 2025 14:04:08 GMT-0600 (Central Standard Time),292116.0999999996,A,h,O,h,1407,1,1415.7999999998137,290700.2999999998,7043,WL,C,8.0
2,18.944000005722046,learn,41055.999994277954,Mon Jan 27 2025 14:04:08 GMT-0600 (Central Standard Time),292249.2999999998,A,ho,O,o,110,1,1549.0,290700.2999999998,7043,WL,C,8.0
2,19.094000101089478,learn,40905.99989891052,Mon Jan 27 2025 14:04:08 GMT-0600 (Central Standard Time),292399.0,A,hom,O,m,137,1,1698.7000000001863,290700.2999999998,7043,WL,C,8.0
2,19.24399995803833,learn,40756.00004196167,Mon Jan 27 2025 14:04:08 GMT-0600 (Central Standard Time),292549.2999999998,A,home,O,e,140,1,1849.0,290700.2999999998,7043,WL,C,8.0
2,19.42799997329712,learn,40572.00002670288,Mon Jan 27 2025 14:04:08 GMT-0600 (Central Standard Time),292733.39999999944,A,homeenter,O,enter,174,1,2033.0999999996275,290700.2999999998,7043,WL,C,8.0
2,20.860000133514404,learn,39139.999866485596,Mon Jan 27 2025 14:04:08 GMT-0600 (Central Standard Time),294165.39999999944,A,c,O,c,1421,1,1431.7000000001863,292733.69999999925,7043,WL,C,9.0
2,20.960000038146973,learn,39039.99996185303,Mon Jan 27 2025 14:04:08 GMT-0600 (Central Standard Time),294265.69999999925,A,co,O,o,77,1,1532.0,292733.69999999925,7043,WL,C,9.0
2,21.110000133514404,learn,38889.999866485596,Mon Jan 27 2025 14:04:08 GMT-0600 (Central Standard Time),294415.19999999925,A,cor,O,r,129,1,1681.5,292733.69999999925,7043,WL,C,9.0
2,21.259999990463257,learn,38740.00000953674,Mon Jan 27 2025 14:04:08 GMT-0600 (Central Standard Time),294565.39999999944,A,corn,O,n,139,1,1831.7000000001863,292733.69999999925,7043,WL,C,9.0
2,21.693000078201294,learn,38306.999921798706,Mon Jan 27 2025 14:04:08 GMT-0600 (Central Standard Time),294998.2999999998,A,cornenter,O,enter,413,1,2264.600000000559,292733.69999999925,7043,WL,C,9.0
2,22.042999982833862,learn,37957.00001716614,Mon Jan 27 2025 14:04:08 GMT-0600 (Central Standard Time),295348.5,A,w,O,w,341,1,349.70000000018626,294998.7999999998,7043,WL,C,10.0
2,22.2260000705719,learn,37773.9999294281,Mon Jan 27 2025 14:04:08 GMT-0600 (Central Standard Time),295531.5999999996,A,wh,O,h,174,1,532.7999999998137,294998.7999999998,7043,WL,C,10.0
2,22.526999950408936,learn,37473.000049591064,Mon Jan 27 2025 14:04:08 GMT-0600 (Central Standard Time),295832.7999999998,A,whe,O,e,286,1,834.0,294998.7999999998,7043,WL,C,10.0
2,22.66000008583069,learn,37339.99991416931,Mon Jan 27 2025 14:04:08 GMT-0600 (Central Standard Time),295965.19999999925,A,whea,O,a,122,1,966.3999999994412,294998.7999999998,7043,WL,C,10.0
2,22.759000062942505,learn,37240.999937057495,Mon Jan 27 2025 14:04:08 GMT-0600 (Central Standard Time),296064.89999999944,A,whear,O,r,77,1,1066.0999999996275,294998.7999999998,7043,WL,C,10.0
2,23.193000078201294,learn,36806.999921798706,Mon Jan 27 2025 14:04:08 GMT-0600 (Central Standard Time),296498.0,A,whearenter,O,enter,409,1,1499.2000000001863,294998.7999999998,7043,WL,C,10.0
2,28.091000080108643,learn,31908.999919891357,Mon Jan 27 2025 14:04:08 GMT-0600 (Central Standard Time),301396.39999999944,A,q,O,q,4881,1,4898.0999999996275,296498.2999999998,7043,WL,C,11.0
2,28.324000120162964,learn,31675.999879837036,Mon Jan 27 2025 14:04:08 GMT-0600 (Central Standard Time),301629.5999999996,A,qu,O,u,214,1,5131.299999999814,296498.2999999998,7043,WL,C,11.0
2,28.475000143051147,learn,31524.999856948853,Mon Jan 27 2025 14:04:08 GMT-0600 (Central Standard Time),301780.69999999925,A,que,O,e,132,1,5282.399999999441,296498.2999999998,7043,WL,C,11.0
2,28.973999977111816,learn,31026.000022888184,Mon Jan 27 2025 14:04:08 GMT-0600 (Central Standard Time),302279.5,A,quee,O,e,477,1,5781.200000000186,296498.2999999998,7043,WL,C,11.0
2,29.506999969482422,learn,30493.000030517578,Mon Jan 27 2025 14:04:08 GMT-0600 (Central Standard Time),302812.69999999925,A,queen,O,n,523,1,6314.399999999441,296498.2999999998,7043,WL,C,11.0
2,29.907000064849854,learn,30092.999935150146,Mon Jan 27 2025 14:04:08 GMT-0600 (Central Standard Time),303212.5999999996,A,queenenter,O,enter,382,1,6714.299999999814,296498.2999999998,7043,WL,C,11.0
2,40.4210000038147,learn,19578.999996185303,Mon Jan 27 2025 14:04:08 GMT-0600 (Central Standard Time),313726.0999999996,A,h,O,h,10502,1,10513.200000000186,303212.89999999944,7043,WL,C,12.0
2,40.53699994087219,learn,19463.000059127808,Mon Jan 27 2025 14:04:08 GMT-0600 (Central Standard Time),313842.5,A,ho,O,o,108,1,10629.600000000559,303212.89999999944,7043,WL,C,12.0
2,40.687000036239624,learn,19312.999963760376,Mon Jan 27 2025 14:04:08 GMT-0600 (Central Standard Time),313992.5999999996,A,hom,O,m,136,1,10779.700000000186,303212.89999999944,7043,WL,C,12.0
2,40.82000017166138,learn,19179.999828338623,Mon Jan 27 2025 14:04:08 GMT-0600 (Central Standard Time),314125.7999999998,A,home,O,e,122,1,10912.900000000373,303212.89999999944,7043,WL,C,12.0
2,41.019999980926514,learn,18980.000019073486,Mon Jan 27 2025 14:04:08 GMT-0600 (Central Standard Time),314325.69999999925,A,homeenter,O,enter,181,1,11112.799999999814,303212.89999999944,7043,WL,C,12.0
2,47.58500003814697,learn,12414.999961853027,Mon Jan 27 2025 14:04:08 GMT-0600 (Central Standard Time),320890.39999999944,A,s,O,s,6549,1,6564.200000000186,314326.19999999925,7043,WL,C,13.0
2,47.718000173568726,learn,12281.999826431274,Mon Jan 27 2025 14:04:08 GMT-0600 (Central Standard Time),321023.5999999996,A,sh,O,h,112,1,6697.4000000003725,314326.19999999925,7043,WL,C,13.0
2,47.85199999809265,learn,12148.000001907349,Mon Jan 27 2025 14:04:08 GMT-0600 (Central Standard Time),321157.0,A,sho,O,o,114,1,6830.800000000745,314326.19999999925,7043,WL,C,13.0
2,48.00100016593933,learn,11998.999834060669,Mon Jan 27 2025 14:04:08 GMT-0600 (Central Standard Time),321306.5999999996,A,shor,O,r,141,1,6980.4000000003725,314326.19999999925,7043,WL,C,13.0
2,48.11800003051758,learn,11881.999969482422,Mon Jan 27 2025 14:04:08 GMT-0600 (Central Standard Time),321423.5,A,shore,O,e,96,1,7097.300000000745,314326.19999999925,7043,WL,C,13.0
2,48.568000078201294,learn,11431.999921798706,Mon Jan 27 2025 14:04:08 GMT-0600 (Central Standard Time),321873.39999999944,A,shoreenter,O,enter,427,1,7547.200000000186,314326.19999999925,7043,WL,C,13.0
2,60.013999938964844,learn,-13.99993896484375,Mon Jan 27 2025 14:04:08 GMT-0600 (Central Standard Time),333319.89999999944,A,None,O,None,11439,1,11446.200000000186,321873.69999999925,7043,WL,C,14.0
3,0.6349999904632568,learn,59365.00000953674,Mon Jan 27 2025 14:04:08 GMT-0600 (Central Standard Time),409630.5,A,t,O,t,615,1,634.2000000001863,408996.2999999998,7043,WL,C,1.0
3,0.8340001106262207,learn,59165.99988937378,Mon Jan 27 2025 14:04:08 GMT-0600 (Central Standard Time),409829.2999999998,A,to,O,o,180,1,833.0,408996.2999999998,7043,WL,C,1.0
3,0.9670000076293945,learn,59032.999992370605,Mon Jan 27 2025 14:04:08 GMT-0600 (Central Standard Time),409962.5,A,tow,O,w,125,1,966.2000000001863,408996.2999999998,7043,WL,C,1.0
3,1.25,learn,58750.0,Mon Jan 27 2025 14:04:08 GMT-0600 (Central Standard Time),410245.7999999998,A,towe,O,e,264,1,1249.5,408996.2999999998,7043,WL,C,1.0
3,1.4500000476837158,learn,58549.999952316284,Mon Jan 27 2025 14:04:08 GMT-0600 (Central Standard Time),410445.69999999925,A,tower,O,r,180,1,1449.3999999994412,408996.2999999998,7043,WL,C,1.0
3,1.8499999046325684,learn,58150.00009536743,Mon Jan 27 2025 14:04:08 GMT-0600 (Central Standard Time),410845.5999999996,A,towerenter,O,enter,380,1,1849.2999999998137,408996.2999999998,7043,WL,C,1.0
3,2.3989999294281006,learn,57601.0000705719,Mon Jan 27 2025 14:04:08 GMT-0600 (Central Standard Time),411395.39999999944,A,q,O,q,533,1,549.3999999994412,410846.0,7043,WL,C,2.0
3,2.615999937057495,learn,57384.000062942505,Mon Jan 27 2025 14:04:08 GMT-0600 (Central Standard Time),411612.0,A,qu,O,u,207,1,766.0,410846.0,7043,WL,C,2.0
3,2.7990000247955322,learn,57200.99997520447,Mon Jan 27 2025 14:04:08 GMT-0600 (Central Standard Time),411795.0,A,que,O,e,174,1,949.0,410846.0,7043,WL,C,2.0
3,2.9660000801086426,learn,57033.99991989136,Mon Jan 27 2025 14:04:08 GMT-0600 (Central Standard Time),411962.0,A,quee,O,e,152,1,1116.0,410846.0,7043,WL,C,2.0
3,3.115999937057495,learn,56884.000062942505,Mon Jan 27 2025 14:04:08 GMT-0600 (Central Standard Time),412111.7999999998,A,queen,O,n,128,1,1265.7999999998137,410846.0,7043,WL,C,2.0
3,3.565999984741211,learn,56434.00001525879,Mon Jan 27 2025 14:04:08 GMT-0600 (Central Standard Time),412561.7999999998,A,queenenter,O,enter,426,1,1715.7999999998137,410846.0,7043,WL,C,2.0
3,4.181999921798706,learn,55818.000078201294,Mon Jan 27 2025 14:04:08 GMT-0600 (Central Standard Time),413178.39999999944,A,w,O,w,593,1,616.2999999998137,412562.0999999996,7043,WL,C,3.0
3,4.398999929428101,learn,55601.0000705719,Mon Jan 27 2025 14:04:08 GMT-0600 (Central Standard Time),413394.5999999996,A,wh,O,h,200,1,832.5,412562.0999999996,7043,WL,C,3.0
3,4.515000104904175,learn,55484.999895095825,Mon Jan 27 2025 14:04:08 GMT-0600 (Central Standard Time),413511.2999999998,A,wha,O,a,96,1,949.2000000001863,412562.0999999996,7043,WL,C,3.0
3,4.681999921798706,learn,55318.000078201294,Mon Jan 27 2025 14:04:08 GMT-0600 (Central Standard Time),413678.0999999996,A,what,O,t,147,1,1116.0,412562.0999999996,7043,WL,C,3.0
3,5.431999921798706,learn,54568.000078201294,Mon Jan 27 2025 14:04:08 GMT-0600 (Central Standard Time),414427.89999999944,A,wha,O,backspace,732,1,1865.7999999998137,412562.0999999996,7043,WL,C,3.0
3,6.015000104904175,learn,53984.999895095825,Mon Jan 27 2025 14:04:08 GMT-0600 (Central Standard Time),415011.0,A,wh,O,backspace,567,1,2448.9000000003725,412562.0999999996,7043,WL,C,3.0
3,6.164999961853027,learn,53835.00003814697,Mon Jan 27 2025 14:04:08 GMT-0600 (Central Standard Time),415161.0,A,whe,O,e,136,1,2598.9000000003725,412562.0999999996,7043,WL,C,3.0
3,6.3480000495910645,learn,53651.999950408936,Mon Jan 27 2025 14:04:08 GMT-0600 (Central Standard Time),415344.19999999925,A,whea,O,a,162,1,2782.0999999996275,412562.0999999996,7043,WL,C,3.0
3,6.414999961853027,learn,53585.00003814697,Mon Jan 27 2025 14:04:08 GMT-0600 (Central Standard Time),415410.7999999998,A,whear,O,r,50,1,2848.7000000001863,412562.0999999996,7043,WL,C,3.0
3,7.0320000648498535,learn,52967.99993515015,Mon Jan 27 2025 14:04:08 GMT-0600 (Central Standard Time),416028.19999999925,A,whea,O,backspace,608,1,3466.0999999996275,412562.0999999996,7043,WL,C,3.0
3,7.230999946594238,learn,52769.00005340576,Mon Jan 27 2025 14:04:08 GMT-0600 (Central Standard Time),416227.2999999998,A,whe,O,backspace,183,1,3665.2000000001863,412562.0999999996,7043,WL,C,3.0
3,7.898000001907349,learn,52101.99999809265,Mon Jan 27 2025 14:04:08 GMT-0600 (Central Standard Time),416893.7999999998,A,whea,O,a,647,1,4331.700000000186,412562.0999999996,7043,WL,C,3.0
3,8.114000082015991,learn,51885.99991798401,Mon Jan 27 2025 14:04:08 GMT-0600 (Central Standard Time),417110.2999999998,A,wheat,O,t,205,1,4548.200000000186,412562.0999999996,7043,WL,C,3.0
3,8.46399998664856,learn,51536.00001335144,Mon Jan 27 2025 14:04:08 GMT-0600 (Central Standard Time),417460.0999999996,A,wheatenter,O,enter,332,1,4898.0,412562.0999999996,7043,WL,C,3.0
3,8.71399998664856,learn,51286.00001335144,Mon Jan 27 2025 14:04:08 GMT-0600 (Central Standard Time),417710.0999999996,A,s,O,s,230,1,249.5,417460.5999999996,7043,WL,C,4.0
3,8.96399998664856,learn,51036.00001335144,Mon Jan 27 2025 14:04:08 GMT-0600 (Central Standard Time),417959.7999999998,A,su,O,u,229,1,499.20000000018626,417460.5999999996,7043,WL,C,4.0
3,9.13100004196167,learn,50868.99995803833,Mon Jan 27 2025 14:04:08 GMT-0600 (Central Standard Time),418126.5999999996,A,sur,O,r,154,1,666.0,417460.5999999996,7043,WL,C,4.0
3,10.04699993133545,learn,49953.00006866455,Mon Jan 27 2025 14:04:08 GMT-0600 (Central Standard Time),419043.0999999996,A,su,O,backspace,899,1,1582.5,417460.5999999996,7043,WL,C,4.0
3,10.19700002670288,learn,49802.99997329712,Mon Jan 27 2025 14:04:08 GMT-0600 (Central Standard Time),419193.0999999996,A,sug,O,g,127,1,1732.5,417460.5999999996,7043,WL,C,4.0
3,10.346999883651733,learn,49653.00011634827,Mon Jan 27 2025 14:04:08 GMT-0600 (Central Standard Time),419343.0999999996,A,suga,O,a,129,1,1882.5,417460.5999999996,7043,WL,C,4.0
3,10.430000066757202,learn,49569.9999332428,Mon Jan 27 2025 14:04:08 GMT-0600 (Central Standard Time),419426.39999999944,A,sugar,O,r,59,1,1965.7999999998137,417460.5999999996,7043,WL,C,4.0
3,11.263999938964844,learn,48736.000061035156,Mon Jan 27 2025 14:04:08 GMT-0600 (Central Standard Time),420260.2999999998,A,sugarenter,O,enter,824,1,2799.7000000001863,417460.5999999996,7043,WL,C,4.0
3,11.680000066757202,learn,48319.9999332428,Mon Jan 27 2025 14:04:08 GMT-0600 (Central Standard Time),420675.89999999944,A,h,O,h,399,1,415.20000000018626,420260.69999999925,7043,WL,C,5.0
3,11.812999963760376,learn,48187.000036239624,Mon Jan 27 2025 14:04:08 GMT-0600 (Central Standard Time),420809.0,A,ho,O,o,119,1,548.3000000007451,420260.69999999925,7043,WL,C,5.0
3,12.013000011444092,learn,47986.99998855591,Mon Jan 27 2025 14:04:08 GMT-0600 (Central Standard Time),421009.0,A,hom,O,m,177,1,748.3000000007451,420260.69999999925,7043,WL,C,5.0
3,12.213000059127808,learn,47786.99994087219,Mon Jan 27 2025 14:04:08 GMT-0600 (Central Standard Time),421208.7999999998,A,home,O,e,186,1,948.1000000005588,420260.69999999925,7043,WL,C,5.0
3,12.446000099182129,learn,47553.99990081787,Mon Jan 27 2025 14:04:08 GMT-0600 (Central Standard Time),421442.19999999925,A,homeenter,O,enter,226,1,1181.5,420260.69999999925,7043,WL,C,5.0
3,13.078999996185303,learn,46921.0000038147,Mon Jan 27 2025 14:04:08 GMT-0600 (Central Standard Time),422075.0999999996,A,q,O,q,625,1,632.7000000001863,421442.39999999944,7043,WL,C,6.0
3,13.213000059127808,learn,46786.99994087219,Mon Jan 27 2025 14:04:08 GMT-0600 (Central Standard Time),422208.69999999925,A,qu,O,u,120,1,766.2999999998137,421442.39999999944,7043,WL,C,6.0
3,13.529000043869019,learn,46470.99995613098,Mon Jan 27 2025 14:04:08 GMT-0600 (Central Standard Time),422525.39999999944,A,que,O,e,297,1,1083.0,421442.39999999944,7043,WL,C,6.0
3,13.661999940872192,learn,46338.00005912781,Mon Jan 27 2025 14:04:08 GMT-0600 (Central Standard Time),422658.39999999944,A,quee,O,e,117,1,1216.0,421442.39999999944,7043,WL,C,6.0
3,13.779000043869019,learn,46220.99995613098,Mon Jan 27 2025 14:04:08 GMT-0600 (Central Standard Time),422775.19999999925,A,queen,O,n,104,1,1332.7999999998137,421442.39999999944,7043,WL,C,6.0
3,14.211999893188477,learn,45788.00010681152,Mon Jan 27 2025 14:04:08 GMT-0600 (Central Standard Time),423208.39999999944,A,queenenter,O,enter,419,1,1766.0,421442.39999999944,7043,WL,C,6.0
3,14.928999900817871,learn,45071.00009918213,Mon Jan 27 2025 14:04:08 GMT-0600 (Central Standard Time),423924.69999999925,A,c,O,c,698,1,716.0,423208.69999999925,7043,WL,C,7.0
3,15.045000076293945,learn,44954.999923706055,Mon Jan 27 2025 14:04:08 GMT-0600 (Central Standard Time),424041.2999999998,A,co,O,o,93,1,832.6000000005588,423208.69999999925,7043,WL,C,7.0
3,15.161999940872192,learn,44838.00005912781,Mon Jan 27 2025 14:04:08 GMT-0600 (Central Standard Time),424158.0999999996,A,cor,O,r,105,1,949.4000000003725,423208.69999999925,7043,WL,C,7.0
3,15.361999988555908,learn,44638.00001144409,Mon Jan 27 2025 14:04:08 GMT-0600 (Central Standard Time),424358.0999999996,A,corn,O,n,180,1,1149.4000000003725,423208.69999999925,7043,WL,C,7.0
3,16.361999988555908,learn,43638.00001144409,Mon Jan 27 2025 14:04:08 GMT-0600 (Central Standard Time),425357.5999999996,A,cornenter,O,enter,989,1,2148.9000000003725,423208.69999999925,7043,WL,C,7.0
3,17.01099991798401,learn,42989.00008201599,Mon Jan 27 2025 14:04:08 GMT-0600 (Central Standard Time),426007.5,A,d,O,d,637,1,649.5,425358.0,7043,WL,C,8.0
3,17.210999965667725,learn,42789.000034332275,Mon Jan 27 2025 14:04:08 GMT-0600 (Central Standard Time),426207.39999999944,A,do,O,o,187,1,849.3999999994412,425358.0,7043,WL,C,8.0
3,17.378000020980835,learn,42621.999979019165,Mon Jan 27 2025 14:04:08 GMT-0600 (Central Standard Time),426374.2999999998,A,doc,O,c,156,1,1016.2999999998137,425358.0,7043,WL,C,8.0
3,17.644999980926514,learn,42355.000019073486,Mon Jan 27 2025 14:04:08 GMT-0600 (Central Standard Time),426640.5999999996,A,doct,O,t,253,1,1282.5999999996275,425358.0,7043,WL,C,8.0
3,17.795000076293945,learn,42204.999923706055,Mon Jan 27 2025 14:04:08 GMT-0600 (Central Standard Time),426790.5999999996,A,docto,O,o,138,1,1432.5999999996275,425358.0,7043,WL,C,8.0
3,17.811000108718872,learn,42188.99989128113,Mon Jan 27 2025 14:04:08 GMT-0600 (Central Standard Time),426807.19999999925,A,doctor,O,r,1,1,1449.199999999255,425358.0,7043,WL,C,8.0
3,18.210999965667725,learn,41789.000034332275,Mon Jan 27 2025 14:04:08 GMT-0600 (Central Standard Time),427207.19999999925,A,doctorenter,O,enter,389,1,1849.199999999255,425358.0,7043,WL,C,8.0
3,18.82800006866455,learn,41171.99993133545,Mon Jan 27 2025 14:04:08 GMT-0600 (Central Standard Time),427823.7999999998,A,b,O,b,595,1,616.2999999998137,427207.5,7043,WL,C,9.0
3,19.061000108718872,learn,40938.99989128113,Mon Jan 27 2025 14:04:08 GMT-0600 (Central Standard Time),428056.69999999925,A,bo,O,o,218,1,849.1999999992549,427207.5,7043,WL,C,9.0
3,20.009999990463257,learn,39990.00000953674,Mon Jan 27 2025 14:04:08 GMT-0600 (Central Standard Time),429006.5,A,boy,O,y,930,1,1799.0,427207.5,7043,WL,C,9.0
3,20.460999965667725,learn,39539.000034332275,Mon Jan 27 2025 14:04:08 GMT-0600 (Central Standard Time),429456.69999999925,A,boyenter,O,enter,428,1,2249.199999999255,427207.5,7043,WL,C,9.0
3,20.927000045776367,learn,39072.99995422363,Mon Jan 27 2025 14:04:08 GMT-0600 (Central Standard Time),429922.7999999998,A,f,O,f,458,1,465.79999999981374,429457.0,7043,WL,C,10.0
3,21.14299988746643,learn,38857.00011253357,Mon Jan 27 2025 14:04:08 GMT-0600 (Central Standard Time),430139.39999999944,A,fl,O,l,208,1,682.3999999994412,429457.0,7043,WL,C,10.0
3,21.276999950408936,learn,38723.000049591064,Mon Jan 27 2025 14:04:08 GMT-0600 (Central Standard Time),430272.89999999944,A,fla,O,a,120,1,815.8999999994412,429457.0,7043,WL,C,10.0
3,21.592999935150146,learn,38407.00006484985,Mon Jan 27 2025 14:04:08 GMT-0600 (Central Standard Time),430589.5,A,flag,O,g,306,1,1132.5,429457.0,7043,WL,C,10.0
3,22.009999990463257,learn,37990.00000953674,Mon Jan 27 2025 14:04:08 GMT-0600 (Central Standard Time),431005.89999999944,A,flagenter,O,enter,405,1,1548.8999999994412,429457.0,7043,WL,C,10.0
3,22.493000030517578,learn,37506.99996948242,Mon Jan 27 2025 14:04:08 GMT-0600 (Central Standard Time),431489.0999999996,A,c,O,c,469,1,482.79999999981374,431006.2999999998,7043,WL,C,11.0
3,22.675999879837036,learn,37324.000120162964,Mon Jan 27 2025 14:04:08 GMT-0600 (Central Standard Time),431672.39999999944,A,ca,O,a,161,1,666.0999999996275,431006.2999999998,7043,WL,C,11.0
3,22.960000038146973,learn,37039.99996185303,Mon Jan 27 2025 14:04:08 GMT-0600 (Central Standard Time),431955.7999999998,A,cam,O,m,275,1,949.5,431006.2999999998,7043,WL,C,11.0
3,23.14400005340576,learn,36855.99994659424,Mon Jan 27 2025 14:04:08 GMT-0600 (Central Standard Time),432140.0,A,camp,O,p,174,1,1133.7000000001863,431006.2999999998,7043,WL,C,11.0
3,23.675999879837036,learn,36324.000120162964,Mon Jan 27 2025 14:04:08 GMT-0600 (Central Standard Time),432672.19999999925,A,campenter,O,enter,518,1,1665.8999999994412,431006.2999999998,7043,WL,C,11.0
3,24.292999982833862,learn,35707.00001716614,Mon Jan 27 2025 14:04:08 GMT-0600 (Central Standard Time),433288.5999999996,A,l,O,l,594,1,616.0999999996275,432672.5,7043,WL,C,12.0
3,24.358999967575073,learn,35641.00003242493,Mon Jan 27 2025 14:04:08 GMT-0600 (Central Standard Time),433355.2999999998,A,le,O,e,50,1,682.7999999998137,432672.5,7043,WL,C,12.0
3,24.592000007629395,learn,35407.999992370605,Mon Jan 27 2025 14:04:08 GMT-0600 (Central Standard Time),433588.2999999998,A,let,O,t,223,1,915.7999999998137,432672.5,7043,WL,C,12.0
3,24.742000102996826,learn,35257.999897003174,Mon Jan 27 2025 14:04:08 GMT-0600 (Central Standard Time),433738.39999999944,A,lett,O,t,142,1,1065.8999999994412,432672.5,7043,WL,C,12.0
3,24.925999879837036,learn,35074.000120162964,Mon Jan 27 2025 14:04:08 GMT-0600 (Central Standard Time),433921.7999999998,A,lette,O,e,167,1,1249.2999999998137,432672.5,7043,WL,C,12.0
3,25.05900001525879,learn,34940.99998474121,Mon Jan 27 2025 14:04:08 GMT-0600 (Central Standard Time),434054.89999999944,A,letter,O,r,113,1,1382.3999999994412,432672.5,7043,WL,C,12.0
3,25.39299988746643,learn,34607.00011253357,Mon Jan 27 2025 14:04:08 GMT-0600 (Central Standard Time),434389.0999999996,A,letterenter,O,enter,324,1,1716.5999999996275,432672.5,7043,WL,C,12.0
3,25.941999912261963,learn,34058.00008773804,Mon Jan 27 2025 14:04:08 GMT-0600 (Central Standard Time),434938.2999999998,A,s,O,s,542,1,548.9000000003725,434389.39999999944,7043,WL,C,13.0
3,26.108999967575073,learn,33891.00003242493,Mon Jan 27 2025 14:04:08 GMT-0600 (Central Standard Time),435104.5999999996,A,sh,O,h,144,1,715.2000000001863,434389.39999999944,7043,WL,C,13.0
3,26.22499990463257,learn,33775.00009536743,Mon Jan 27 2025 14:04:08 GMT-0600 (Central Standard Time),435221.39999999944,A,sho,O,o,106,1,832.0,434389.39999999944,7043,WL,C,13.0
3,26.342000007629395,learn,33657.999992370605,Mon Jan 27 2025 14:04:08 GMT-0600 (Central Standard Time),435338.0,A,shor,O,r,93,1,948.6000000005588,434389.39999999944,7043,WL,C,13.0
3,26.424999952316284,learn,33575.000047683716,Mon Jan 27 2025 14:04:08 GMT-0600 (Central Standard Time),435421.19999999925,A,shore,O,e,65,1,1031.7999999998137,434389.39999999944,7043,WL,C,13.0
3,26.658999919891357,learn,33341.00008010864,Mon Jan 27 2025 14:04:08 GMT-0600 (Central Standard Time),435654.5999999996,A,shorel,O,l,214,1,1265.2000000001863,434389.39999999944,7043,WL,C,13.0
3,27.325000047683716,learn,32674.999952316284,Mon Jan 27 2025 14:04:08 GMT-0600 (Central Standard Time),436321.0999999996,A,shorelenter,O,enter,651,1,1931.7000000001863,434389.39999999944,7043,WL,C,13.0
3,29.007999897003174,learn,30992.000102996826,Mon Jan 27 2025 14:04:08 GMT-0600 (Central Standard Time),438003.69999999925,A,n,O,n,1665,1,1682.2999999998137,436321.39999999944,7043,WL,C,14.0
3,29.125,learn,30875.0,Mon Jan 27 2025 14:04:08 GMT-0600 (Central Standard Time),438120.69999999925,A,na,O,a,102,1,1799.2999999998137,436321.39999999944,7043,WL,C,14.0
3,29.20799994468689,learn,30792.00005531311,Mon Jan 27 2025 14:04:08 GMT-0600 (Central Standard Time),438203.7999999998,A,nau,O,u,74,1,1882.4000000003725,436321.39999999944,7043,WL,C,14.0
3,29.375,learn,30625.0,Mon Jan 27 2025 14:04:08 GMT-0600 (Central Standard Time),438370.5,A,naul,O,l,143,1,2049.100000000559,436321.39999999944,7043,WL,C,14.0
3,29.891000032424927,learn,30108.999967575073,Mon Jan 27 2025 14:04:08 GMT-0600 (Central Standard Time),438886.7999999998,A,nau,O,backspace,496,1,2565.4000000003725,436321.39999999944,7043,WL,C,14.0
3,30.056999921798706,learn,29943.000078201294,Mon Jan 27 2025 14:04:08 GMT-0600 (Central Standard Time),439053.39999999944,A,na,O,backspace,156,1,2732.0,436321.39999999944,7043,WL,C,14.0
3,30.391000032424927,learn,29608.999967575073,Mon Jan 27 2025 14:04:08 GMT-0600 (Central Standard Time),439386.7999999998,A,nai,O,i,309,1,3065.4000000003725,436321.39999999944,7043,WL,C,14.0
3,31.457000017166138,learn,28542.999982833862,Mon Jan 27 2025 14:04:08 GMT-0600 (Central Standard Time),440453.0,A,nail,O,l,1047,1,4131.600000000559,436321.39999999944,7043,WL,C,14.0
3,32.03999996185303,learn,27960.000038146973,Mon Jan 27 2025 14:04:08 GMT-0600 (Central Standard Time),441036.0999999996,A,nailenter,O,enter,574,1,4714.700000000186,436321.39999999944,7043,WL,C,14.0
3,39.50399994850159,learn,20496.000051498413,Mon Jan 27 2025 14:04:08 GMT-0600 (Central Standard Time),448500.39999999944,A,enter,O,enter,7447,1,7463.899999999441,441036.5,7043,WL,C,15.0
4,1.1329998970031738,learn,58867.000102996826,Mon Jan 27 2025 14:04:08 GMT-0600 (Central Standard Time),517562.2999999998,A,n,O,n,1110,1,1132.7000000001863,516429.5999999996,7043,WL,C,1.0
4,1.2829999923706055,learn,58717.000007629395,Mon Jan 27 2025 14:04:08 GMT-0600 (Central Standard Time),517712.2999999998,A,na,O,a,128,1,1282.7000000001863,516429.5999999996,7043,WL,C,1.0
4,2.132999897003174,learn,57867.000102996826,Mon Jan 27 2025 14:04:08 GMT-0600 (Central Standard Time),518562.19999999925,A,nai,O,i,826,1,2132.5999999996275,516429.5999999996,7043,WL,C,1.0
4,2.3329999446868896,learn,57667.00005531311,Mon Jan 27 2025 14:04:08 GMT-0600 (Central Standard Time),518762.0,A,nail,O,l,176,1,2332.4000000003725,516429.5999999996,7043,WL,C,1.0
4,3.131999969482422,learn,56868.00003051758,Mon Jan 27 2025 14:04:08 GMT-0600 (Central Standard Time),519561.5999999996,A,nailenter,O,enter,776,1,3132.0,516429.5999999996,7043,WL,C,1.0
4,3.5829999446868896,learn,56417.00005531311,Mon Jan 27 2025 14:04:08 GMT-0600 (Central Standard Time),520012.5999999996,A,c,O,c,441,1,450.70000000018626,519561.89999999944,7043,WL,C,2.0
4,3.7319998741149902,learn,56268.00012588501,Mon Jan 27 2025 14:04:08 GMT-0600 (Central Standard Time),520161.39999999944,A,ca,O,a,134,1,599.5,519561.89999999944,7043,WL,C,2.0
4,3.9649999141693115,learn,56035.00008583069,Mon Jan 27 2025 14:04:08 GMT-0600 (Central Standard Time),520394.5999999996,A,cat,O,t,225,1,832.7000000001863,519561.89999999944,7043,WL,C,2.0
4,4.098999977111816,learn,55901.00002288818,Mon Jan 27 2025 14:04:08 GMT-0600 (Central Standard Time),520528.0,A,catt,O,t,112,1,966.1000000005588,519561.89999999944,7043,WL,C,2.0
4,4.281999826431274,learn,55718.000173568726,Mon Jan 27 2025 14:04:08 GMT-0600 (Central Standard Time),520711.2999999998,A,cattl,O,l,163,1,1149.4000000003725,519561.89999999944,7043,WL,C,2.0
4,4.431999921798706,learn,55568.000078201294,Mon Jan 27 2025 14:04:08 GMT-0600 (Central Standard Time),520861.2999999998,A,cattle,O,e,131,1,1299.4000000003725,519561.89999999944,7043,WL,C,2.0
4,4.631999969482422,learn,55368.00003051758,Mon Jan 27 2025 14:04:08 GMT-0600 (Central Standard Time),521061.19999999925,A,cattleenter,O,enter,189,1,1499.2999999998137,519561.89999999944,7043,WL,C,2.0
4,5.2149999141693115,learn,54785.00008583069,Mon Jan 27 2025 14:04:08 GMT-0600 (Central Standard Time),521644.2999999998,A,b,O,b,573,1,582.7999999998137,521061.5,7043,WL,C,3.0
4,5.514999866485596,learn,54485.000133514404,Mon Jan 27 2025 14:04:08 GMT-0600 (Central Standard Time),521944.2999999998,A,bo,O,o,286,1,882.7999999998137,521061.5,7043,WL,C,3.0
4,5.764999866485596,learn,54235.000133514404,Mon Jan 27 2025 14:04:08 GMT-0600 (Central Standard Time),522194.0999999996,A,bod,O,d,234,1,1132.5999999996275,521061.5,7043,WL,C,3.0
4,5.898000001907349,learn,54101.99999809265,Mon Jan 27 2025 14:04:08 GMT-0600 (Central Standard Time),522327.39999999944,A,body,O,y,120,1,1265.8999999994412,521061.5,7043,WL,C,3.0
4,6.313999891281128,learn,53686.00010871887,Mon Jan 27 2025 14:04:08 GMT-0600 (Central Standard Time),522743.7999999998,A,bodyenter,O,enter,395,1,1682.2999999998137,521061.5,7043,WL,C,3.0
4,6.630999803543091,learn,53369.00019645691,Mon Jan 27 2025 14:04:08 GMT-0600 (Central Standard Time),523060.5,A,s,O,s,299,1,316.40000000037253,522744.0999999996,7043,WL,C,4.0
4,6.898000001907349,learn,53101.99999809265,Mon Jan 27 2025 14:04:08 GMT-0600 (Central Standard Time),523327.0,A,sh,O,h,246,1,582.9000000003725,522744.0999999996,7043,WL,C,4.0
4,7.0309998989105225,learn,52969.00010108948,Mon Jan 27 2025 14:04:08 GMT-0600 (Central Standard Time),523460.19999999925,A,sho,O,o,124,1,716.0999999996275,522744.0999999996,7043,WL,C,4.0
4,7.180999994277954,learn,52819.000005722046,Mon Jan 27 2025 14:04:08 GMT-0600 (Central Standard Time),523610.5999999996,A,shor,O,r,142,1,866.5,522744.0999999996,7043,WL,C,4.0
4,7.2809998989105225,learn,52719.00010108948,Mon Jan 27 2025 14:04:08 GMT-0600 (Central Standard Time),523710.0999999996,A,shore,O,e,89,1,966.0,522744.0999999996,7043,WL,C,4.0
4,7.563999891281128,learn,52436.00010871887,Mon Jan 27 2025 14:04:08 GMT-0600 (Central Standard Time),523993.69999999925,A,shoreenter,O,enter,261,1,1249.5999999996275,522744.0999999996,7043,WL,C,4.0
4,8.563999891281128,learn,51436.00010871887,Mon Jan 27 2025 14:04:08 GMT-0600 (Central Standard Time),524993.0999999996,A,w,O,w,977,1,999.0,523994.0999999996,7043,WL,C,5.0
4,8.863999843597412,learn,51136.00015640259,Mon Jan 27 2025 14:04:08 GMT-0600 (Central Standard Time),525293.1999999993,A,wh,O,h,281,1,1299.0999999996275,523994.0999999996,7043,WL,C,5.0
4,9.563999891281128,learn,50436.00010871887,Mon Jan 27 2025 14:04:08 GMT-0600 (Central Standard Time),525992.8999999994,A,whe,O,e,686,1,1998.7999999998137,523994.0999999996,7043,WL,C,5.0
4,9.730000019073486,learn,50269.999980926514,Mon Jan 27 2025 14:04:08 GMT-0600 (Central Standard Time),526159.5,A,whea,O,a,146,1,2165.4000000003725,523994.0999999996,7043,WL,C,5.0
4,9.79699993133545,learn,50203.00006866455,Mon Jan 27 2025 14:04:08 GMT-0600 (Central Standard Time),526226.3999999994,A,whear,O,r,59,1,2232.2999999998137,523994.0999999996,7043,WL,C,5.0
4,10.129999876022339,learn,49870.00012397766,Mon Jan 27 2025 14:04:08 GMT-0600 (Central Standard Time),526559.5,A,whearenter,O,enter,312,1,2565.4000000003725,523994.0999999996,7043,WL,C,5.0
4,11.079999923706055,learn,48920.000076293945,Mon Jan 27 2025 14:04:08 GMT-0600 (Central Standard Time),527509.2999999998,A,c,O,c,931,1,949.5,526559.7999999998,7043,WL,C,6.0
4,11.345999956130981,learn,48654.00004386902,Mon Jan 27 2025 14:04:08 GMT-0600 (Central Standard Time),527775.5999999996,A,co,O,o,253,1,1215.7999999998137,526559.7999999998,7043,WL,C,6.0
4,11.480000019073486,learn,48519.999980926514,Mon Jan 27 2025 14:04:08 GMT-0600 (Central Standard Time),527909.0,A,cor,O,r,115,1,1349.2000000001863,526559.7999999998,7043,WL,C,6.0
4,11.645999908447266,learn,48354.000091552734,Mon Jan 27 2025 14:04:08 GMT-0600 (Central Standard Time),528075.6999999993,A,corn,O,n,150,1,1515.8999999994412,526559.7999999998,7043,WL,C,6.0
4,12.013000011444092,learn,47986.99998855591,Mon Jan 27 2025 14:04:08 GMT-0600 (Central Standard Time),528442.0999999996,A,cornenter,O,enter,351,1,1882.2999999998137,526559.7999999998,7043,WL,C,6.0
4,15.161999940872192,learn,44838.00005912781,Mon Jan 27 2025 14:04:08 GMT-0600 (Central Standard Time),531591.2999999998,A,t,O,t,3129,1,3148.9000000003725,528442.3999999994,7043,WL,C,7.0
4,15.294999837875366,learn,44705.000162124634,Mon Jan 27 2025 14:04:08 GMT-0600 (Central Standard Time),531724.3999999994,A,to,O,o,124,1,3282.0,528442.3999999994,7043,WL,C,7.0
4,15.444999933242798,learn,44555.0000667572,Mon Jan 27 2025 14:04:08 GMT-0600 (Central Standard Time),531874.2999999998,A,tow,O,w,134,1,3431.9000000003725,528442.3999999994,7043,WL,C,7.0
4,15.777999877929688,learn,44222.00012207031,Mon Jan 27 2025 14:04:08 GMT-0600 (Central Standard Time),532207.5999999996,A,towe,O,e,312,1,3765.2000000001863,528442.3999999994,7043,WL,C,7.0
4,15.911999940872192,learn,44088.00005912781,Mon Jan 27 2025 14:04:08 GMT-0600 (Central Standard Time),532341.1999999993,A,tower,O,r,115,1,3898.7999999998137,528442.3999999994,7043,WL,C,7.0
4,16.227999925613403,learn,43772.0000743866,Mon Jan 27 2025 14:04:08 GMT-0600 (Central Standard Time),532657.6999999993,A,towerenter,O,enter,301,1,4215.299999999814,528442.3999999994,7043,WL,C,7.0
4,16.82799983024597,learn,43172.00016975403,Mon Jan 27 2025 14:04:08 GMT-0600 (Central Standard Time),533257.1999999993,A,q,O,q,585,1,599.0999999996275,532658.0999999996,7043,WL,C,8.0
4,16.99399995803833,learn,43006.00004196167,Mon Jan 27 2025 14:04:08 GMT-0600 (Central Standard Time),533424.0,A,qu,O,u,153,1,765.9000000003725,532658.0999999996,7043,WL,C,8.0
4,17.16100001335144,learn,42838.99998664856,Mon Jan 27 2025 14:04:08 GMT-0600 (Central Standard Time),533590.5,A,que,O,e,155,1,932.4000000003725,532658.0999999996,7043,WL,C,8.0
4,17.310999870300293,learn,42689.00012969971,Mon Jan 27 2025 14:04:08 GMT-0600 (Central Standard Time),533740.3999999994,A,quee,O,e,141,1,1082.2999999998137,532658.0999999996,7043,WL,C,8.0
4,17.527999877929688,learn,42472.00012207031,Mon Jan 27 2025 14:04:08 GMT-0600 (Central Standard Time),533957.0999999996,A,queen,O,n,199,1,1299.0,532658.0999999996,7043,WL,C,8.0
4,17.944000005722046,learn,42055.999994277954,Mon Jan 27 2025 14:04:08 GMT-0600 (Central Standard Time),534373.7999999998,A,queenenter,O,enter,406,1,1715.7000000001863,532658.0999999996,7043,WL,C,8.0
4,20.092999935150146,learn,39907.00006484985,Mon Jan 27 2025 14:04:08 GMT-0600 (Central Standard Time),536522.6999999993,A,h,O,h,2141,1,2148.5999999996275,534374.0999999996,7043,WL,C,9.0
4,20.242999792099,learn,39757.000207901,Mon Jan 27 2025 14:04:08 GMT-0600 (Central Standard Time),536672.7999999998,A,ho,O,o,128,1,2298.7000000001863,534374.0999999996,7043,WL,C,9.0
4,20.376999855041504,learn,39623.000144958496,Mon Jan 27 2025 14:04:08 GMT-0600 (Central Standard Time),536806.0999999996,A,hom,O,m,122,1,2432.0,534374.0999999996,7043,WL,C,9.0
4,20.509999990463257,learn,39490.00000953674,Mon Jan 27 2025 14:04:08 GMT-0600 (Central Standard Time),536939.5,A,home,O,e,125,1,2565.4000000003725,534374.0999999996,7043,WL,C,9.0
4,20.742999792099,learn,39257.000207901,Mon Jan 27 2025 14:04:08 GMT-0600 (Central Standard Time),537172.6999999993,A,homeenter,O,enter,215,1,2798.5999999996275,534374.0999999996,7043,WL,C,9.0
4,21.15999984741211,learn,38840.00015258789,Mon Jan 27 2025 14:04:08 GMT-0600 (Central Standard Time),537589.0999999996,A,d,O,d,406,1,415.90000000037253,537173.1999999993,7043,WL,C,10.0
4,21.425999879837036,learn,38574.000120162964,Mon Jan 27 2025 14:04:08 GMT-0600 (Central Standard Time),537855.6999999993,A,do,O,o,245,1,682.5,537173.1999999993,7043,WL,C,10.0
4,21.626999855041504,learn,38373.000144958496,Mon Jan 27 2025 14:04:08 GMT-0600 (Central Standard Time),538057.0,A,doc,O,c,187,1,883.8000000007451,537173.1999999993,7043,WL,C,10.0
4,22.125999927520752,learn,37874.00007247925,Mon Jan 27 2025 14:04:08 GMT-0600 (Central Standard Time),538555.5,A,doct,O,t,490,1,1382.300000000745,537173.1999999993,7043,WL,C,10.0
4,22.30900001525879,learn,37690.99998474121,Mon Jan 27 2025 14:04:08 GMT-0600 (Central Standard Time),538738.7999999998,A,docto,O,o,175,1,1565.6000000005588,537173.1999999993,7043,WL,C,10.0
4,22.442999839782715,learn,37557.000160217285,Mon Jan 27 2025 14:04:08 GMT-0600 (Central Standard Time),538872.2999999998,A,doctor,O,r,120,1,1699.1000000005588,537173.1999999993,7043,WL,C,10.0
4,22.758999824523926,learn,37241.000175476074,Mon Jan 27 2025 14:04:08 GMT-0600 (Central Standard Time),539188.8999999994,A,doctorenter,O,enter,306,1,2015.7000000001863,537173.1999999993,7043,WL,C,10.0
4,23.325999975204468,learn,36674.00002479553,Mon Jan 27 2025 14:04:08 GMT-0600 (Central Standard Time),539755.3999999994,A,b,O,b,550,1,566.2000000001863,539189.1999999993,7043,WL,C,11.0
4,23.54199981689453,learn,36458.00018310547,Mon Jan 27 2025 14:04:08 GMT-0600 (Central Standard Time),539971.8999999994,A,bo,O,o,199,1,782.7000000001863,539189.1999999993,7043,WL,C,11.0
4,23.774999856948853,learn,36225.00014305115,Mon Jan 27 2025 14:04:08 GMT-0600 (Central Standard Time),540204.8999999994,A,boy,O,y,223,1,1015.7000000001863,539189.1999999993,7043,WL,C,11.0
4,24.14199995994568,learn,35858.00004005432,Mon Jan 27 2025 14:04:08 GMT-0600 (Central Standard Time),540571.5999999996,A,boyenter,O,enter,358,1,1382.4000000003725,539189.1999999993,7043,WL,C,11.0
4,24.79199981689453,learn,35208.00018310547,Mon Jan 27 2025 14:04:08 GMT-0600 (Central Standard Time),541221.3999999994,A,g,O,g,639,1,649.5999999996275,540571.7999999998,7043,WL,C,12.0
4,25.074999809265137,learn,34925.00019073486,Mon Jan 27 2025 14:04:08 GMT-0600 (Central Standard Time),541504.7999999998,A,gl,O,l,269,1,933.0,540571.7999999998,7043,WL,C,12.0
4,25.47499990463257,learn,34525.00009536743,Mon Jan 27 2025 14:04:08 GMT-0600 (Central Standard Time),541904.5999999996,A,gla,O,a,378,1,1332.7999999998137,540571.7999999998,7043,WL,C,12.0
4,25.924999952316284,learn,34075.000047683716,Mon Jan 27 2025 14:04:08 GMT-0600 (Central Standard Time),542354.5,A,glaf,O,f,442,1,1782.7000000001863,540571.7999999998,7043,WL,C,12.0
4,26.29099988937378,learn,33709.00011062622,Mon Jan 27 2025 14:04:08 GMT-0600 (Central Standard Time),542721.0,A,gla,O,backspace,353,1,2149.2000000001863,540571.7999999998,7043,WL,C,12.0
4,26.47599983215332,learn,33524.00016784668,Mon Jan 27 2025 14:04:08 GMT-0600 (Central Standard Time),542905.2999999998,A,gl,O,backspace,162,1,2333.5,540571.7999999998,7043,WL,C,12.0
4,26.640999794006348,learn,33359.00020599365,Mon Jan 27 2025 14:04:08 GMT-0600 (Central Standard Time),543070.7999999998,A,g,O,backspace,153,1,2499.0,540571.7999999998,7043,WL,C,12.0
4,26.825999975204468,learn,33174.00002479553,Mon Jan 27 2025 14:04:08 GMT-0600 (Central Standard Time),543255.0999999996,A,,O,backspace,164,1,2683.2999999998137,540571.7999999998,7043,WL,C,12.0
4,27.45799994468689,learn,32542.00005531311,Mon Jan 27 2025 14:04:08 GMT-0600 (Central Standard Time),543887.0999999996,A,f,O,f,612,1,3315.2999999998137,540571.7999999998,7043,WL,C,12.0
4,27.674000024795532,learn,32325.999975204468,Mon Jan 27 2025 14:04:08 GMT-0600 (Central Standard Time),544103.8999999994,A,fl,O,l,195,1,3532.0999999996275,540571.7999999998,7043,WL,C,12.0
4,27.79099988937378,learn,32209.00011062622,Mon Jan 27 2025 14:04:08 GMT-0600 (Central Standard Time),544220.5,A,fla,O,a,106,1,3648.7000000001863,540571.7999999998,7043,WL,C,12.0
4,28.140999794006348,learn,31859.000205993652,Mon Jan 27 2025 14:04:08 GMT-0600 (Central Standard Time),544570.3999999994,A,flag,O,g,335,1,3998.5999999996275,540571.7999999998,7043,WL,C,12.0
4,28.357999801635742,learn,31642.000198364258,Mon Jan 27 2025 14:04:08 GMT-0600 (Central Standard Time),544787.1999999993,A,flagenter,O,enter,193,1,4215.399999999441,540571.7999999998,7043,WL,C,12.0
4,28.924000024795532,learn,31075.999975204468,Mon Jan 27 2025 14:04:08 GMT-0600 (Central Standard Time),545353.7999999998,A,c,O,c,551,1,566.4000000003725,544787.3999999994,7043,WL,C,13.0
4,29.04099988937378,learn,30959.00011062622,Mon Jan 27 2025 14:04:08 GMT-0600 (Central Standard Time),545470.0999999996,A,ca,O,a,97,1,682.7000000001863,544787.3999999994,7043,WL,C,13.0
4,29.35699987411499,learn,30643.00012588501,Mon Jan 27 2025 14:04:08 GMT-0600 (Central Standard Time),545786.5999999996,A,cam,O,m,300,1,999.2000000001863,544787.3999999994,7043,WL,C,13.0
4,29.924000024795532,learn,30075.999975204468,Mon Jan 27 2025 14:04:08 GMT-0600 (Central Standard Time),546353.6999999993,A,camp,O,p,552,1,1566.2999999998137,544787.3999999994,7043,WL,C,13.0
4,30.33999991416931,learn,29660.00008583069,Mon Jan 27 2025 14:04:08 GMT-0600 (Central Standard Time),546769.7999999998,A,campenter,O,enter,393,1,1982.4000000003725,544787.3999999994,7043,WL,C,13.0
4,39.88699984550476,learn,20113.00015449524,Mon Jan 27 2025 14:04:08 GMT-0600 (Central Standard Time),556316.7999999998,A,l,O,l,9537,1,9546.600000000559,546770.1999999993,7043,WL,C,14.0
4,40.103999853134155,learn,19896.000146865845,Mon Jan 27 2025 14:04:08 GMT-0600 (Central Standard Time),556533.2999999998,A,le,O,e,206,1,9763.100000000559,546770.1999999993,7043,WL,C,14.0
4,40.38699984550476,learn,19613.00015449524,Mon Jan 27 2025 14:04:08 GMT-0600 (Central Standard Time),556816.7999999998,A,let,O,t,262,1,10046.600000000559,546770.1999999993,7043,WL,C,14.0
4,40.519999980926514,learn,19480.000019073486,Mon Jan 27 2025 14:04:08 GMT-0600 (Central Standard Time),556949.8999999994,A,lett,O,t,122,1,10179.700000000186,546770.1999999993,7043,WL,C,14.0
4,40.72000002861023,learn,19279.99997138977,Mon Jan 27 2025 14:04:08 GMT-0600 (Central Standard Time),557149.6999999993,A,lette,O,e,181,1,10379.5,546770.1999999993,7043,WL,C,14.0
4,40.80299997329712,learn,19197.00002670288,Mon Jan 27 2025 14:04:08 GMT-0600 (Central Standard Time),557233.0999999996,A,letter,O,r,69,1,10462.900000000373,546770.1999999993,7043,WL,C,14.0
4,41.02199983596802,learn,18978.000164031982,Mon Jan 27 2025 14:04:08 GMT-0600 (Central Standard Time),557451.5999999996,A,letterenter,O,enter,201,1,10681.400000000373,546770.1999999993,7043,WL,C,14.0
4,43.19799995422363,learn,16802.000045776367,Mon Jan 27 2025 14:04:08 GMT-0600 (Central Standard Time),559628.0999999996,A,enter,O,enter,2022,1,2176.2999999998137,557451.7999999998,7043,WL,C,15.0
5,1.2149999141693115,learn,60000.0,Mon Jan 27 2025 14:04:08 GMT-0600 (Central Standard Time),627778.0999999996,A,c,O,c,1193,1,1215.2999999998137,626562.7999999998,7043,WL,C,1.0
5,1.3650000095367432,learn,60000.0,Mon Jan 27 2025 14:04:08 GMT-0600 (Central Standard Time),627928.0,A,ca,O,a,129,1,1365.2000000001863,626562.7999999998,7043,WL,C,1.0
5,1.5980000495910645,learn,60000.0,Mon Jan 27 2025 14:04:08 GMT-0600 (Central Standard Time),628161.0,A,cat,O,t,211,1,1598.2000000001863,626562.7999999998,7043,WL,C,1.0
5,1.7309999465942383,learn,60000.0,Mon Jan 27 2025 14:04:08 GMT-0600 (Central Standard Time),628294.1999999993,A,catt,O,t,113,1,1731.3999999994412,626562.7999999998,7043,WL,C,1.0
5,1.8320000171661377,learn,60000.0,Mon Jan 27 2025 14:04:08 GMT-0600 (Central Standard Time),628394.5,A,cattl,O,l,92,1,1831.7000000001863,626562.7999999998,7043,WL,C,1.0
5,1.9830000400543213,learn,60000.0,Mon Jan 27 2025 14:04:08 GMT-0600 (Central Standard Time),628545.3999999994,A,cattle,O,e,136,1,1982.5999999996275,626562.7999999998,7043,WL,C,1.0
5,2.365000009536743,learn,60000.0,Mon Jan 27 2025 14:04:08 GMT-0600 (Central Standard Time),628927.2999999998,A,cattleenter,O,enter,360,1,2364.5,626562.7999999998,7043,WL,C,1.0
5,2.8480000495910645,learn,60000.0,Mon Jan 27 2025 14:04:08 GMT-0600 (Central Standard Time),629410.5,A,s,O,s,467,1,482.90000000037253,628927.5999999996,7043,WL,C,2.0
5,3.0810000896453857,learn,60000.0,Mon Jan 27 2025 14:04:08 GMT-0600 (Central Standard Time),629643.7999999998,A,sh,O,h,224,1,716.2000000001863,628927.5999999996,7043,WL,C,2.0
5,3.2309999465942383,learn,60000.0,Mon Jan 27 2025 14:04:08 GMT-0600 (Central Standard Time),629793.6999999993,A,sho,O,o,135,1,866.0999999996275,628927.5999999996,7043,WL,C,2.0
5,3.38100004196167,learn,60000.0,Mon Jan 27 2025 14:04:08 GMT-0600 (Central Standard Time),629943.8999999994,A,shor,O,r,137,1,1016.2999999998137,628927.5999999996,7043,WL,C,2.0
5,3.700000047683716,learn,60000.0,Mon Jan 27 2025 14:04:08 GMT-0600 (Central Standard Time),630262.3999999994,A,shore,O,e,164,1,1334.7999999998137,628927.5999999996,7043,WL,C,2.0
5,4.730000019073486,learn,60000.0,Mon Jan 27 2025 14:04:08 GMT-0600 (Central Standard Time),631293.2999999998,A,shoreenter,O,enter,1017,1,2365.7000000001863,628927.5999999996,7043,WL,C,2.0
5,5.447000026702881,learn,60000.0,Mon Jan 27 2025 14:04:08 GMT-0600 (Central Standard Time),632009.8999999994,A,b,O,b,694,1,716.2000000001863,631293.6999999993,7043,WL,C,3.0
5,5.8470001220703125,learn,60000.0,Mon Jan 27 2025 14:04:08 GMT-0600 (Central Standard Time),632409.6999999993,A,bo,O,o,377,1,1116.0,631293.6999999993,7043,WL,C,3.0
5,6.147000074386597,learn,60000.0,Mon Jan 27 2025 14:04:08 GMT-0600 (Central Standard Time),632709.5,A,bod,O,d,289,1,1415.800000000745,631293.6999999993,7043,WL,C,3.0
5,6.397000074386597,learn,60000.0,Mon Jan 27 2025 14:04:08 GMT-0600 (Central Standard Time),632959.3999999994,A,body,O,y,229,1,1665.7000000001863,631293.6999999993,7043,WL,C,3.0
5,6.829999923706055,learn,60000.0,Mon Jan 27 2025 14:04:08 GMT-0600 (Central Standard Time),633392.6999999993,A,bodyenter,O,enter,412,1,2099.0,631293.6999999993,7043,WL,C,3.0
5,8.428999900817871,learn,60000.0,Mon Jan 27 2025 14:04:08 GMT-0600 (Central Standard Time),634992.0,A,n,O,n,1586,1,1598.9000000003725,633393.0999999996,7043,WL,C,4.0
5,8.546000003814697,learn,60000.0,Mon Jan 27 2025 14:04:08 GMT-0600 (Central Standard Time),635108.7999999998,A,na,O,a,107,1,1715.7000000001863,633393.0999999996,7043,WL,C,4.0
5,8.779000043869019,learn,60000.0,Mon Jan 27 2025 14:04:08 GMT-0600 (Central Standard Time),635342.0999999996,A,nal,O,l,214,1,1949.0,633393.0999999996,7043,WL,C,4.0
5,9.645999908447266,learn,60000.0,Mon Jan 27 2025 14:04:08 GMT-0600 (Central Standard Time),636208.2999999998,A,na,O,backspace,853,1,2815.2000000001863,633393.0999999996,7043,WL,C,4.0
5,10.046000003814697,learn,60000.0,Mon Jan 27 2025 14:04:08 GMT-0600 (Central Standard Time),636608.3999999994,A,nai,O,i,378,1,3215.2999999998137,633393.0999999996,7043,WL,C,4.0
5,10.212000131607056,learn,60000.0,Mon Jan 27 2025 14:04:08 GMT-0600 (Central Standard Time),636775.0999999996,A,nail,O,l,154,1,3382.0,633393.0999999996,7043,WL,C,4.0
5,10.661999940872192,learn,60000.0,Mon Jan 27 2025 14:04:08 GMT-0600 (Central Standard Time),637224.7999999998,A,nailenter,O,enter,436,1,3831.7000000001863,633393.0999999996,7043,WL,C,4.0
5,11.01200008392334,learn,60000.0,Mon Jan 27 2025 14:04:08 GMT-0600 (Central Standard Time),637574.5999999996,A,l,O,l,330,1,349.40000000037253,637225.1999999993,7043,WL,C,5.0
5,11.178999900817871,learn,60000.0,Mon Jan 27 2025 14:04:08 GMT-0600 (Central Standard Time),637741.3999999994,A,le,O,e,156,1,516.2000000001863,637225.1999999993,7043,WL,C,5.0
5,11.462000131607056,learn,60000.0,Mon Jan 27 2025 14:04:08 GMT-0600 (Central Standard Time),638024.5999999996,A,let,O,t,269,1,799.4000000003725,637225.1999999993,7043,WL,C,5.0
5,11.57800006866455,learn,60000.0,Mon Jan 27 2025 14:04:08 GMT-0600 (Central Standard Time),638141.0,A,lett,O,t,107,1,915.8000000007451,637225.1999999993,7043,WL,C,5.0
5,11.778000116348267,learn,60000.0,Mon Jan 27 2025 14:04:08 GMT-0600 (Central Standard Time),638341.0999999996,A,lette,O,e,190,1,1115.9000000003725,637225.1999999993,7043,WL,C,5.0
5,11.861999988555908,learn,60000.0,Mon Jan 27 2025 14:04:08 GMT-0600 (Central Standard Time),638424.5,A,letter,O,r,69,1,1199.300000000745,637225.1999999993,7043,WL,C,5.0
5,12.245000123977661,learn,60000.0,Mon Jan 27 2025 14:04:08 GMT-0600 (Central Standard Time),638807.6999999993,A,letterenter,O,enter,371,1,1582.5,637225.1999999993,7043,WL,C,5.0
5,12.861000061035156,learn,60000.0,Mon Jan 27 2025 14:04:08 GMT-0600 (Central Standard Time),639424.0999999996,A,b,O,b,603,1,616.0,638808.0999999996,7043,WL,C,6.0
5,13.32800006866455,learn,60000.0,Mon Jan 27 2025 14:04:08 GMT-0600 (Central Standard Time),639890.5,A,bo,O,o,458,1,1082.4000000003725,638808.0999999996,7043,WL,C,6.0
5,13.57800006866455,learn,60000.0,Mon Jan 27 2025 14:04:08 GMT-0600 (Central Standard Time),640140.5,A,boy,O,y,233,1,1332.4000000003725,638808.0999999996,7043,WL,C,6.0
5,13.977999925613403,learn,60000.0,Mon Jan 27 2025 14:04:08 GMT-0600 (Central Standard Time),640540.5999999996,A,boyenter,O,enter,390,1,1732.5,638808.0999999996,7043,WL,C,6.0
5,14.496000051498413,learn,60000.0,Mon Jan 27 2025 14:04:08 GMT-0600 (Central Standard Time),641058.3999999994,A,d,O,d,510,1,517.5,640540.8999999994,7043,WL,C,7.0
5,14.793999910354614,learn,60000.0,Mon Jan 27 2025 14:04:08 GMT-0600 (Central Standard Time),641356.8999999994,A,do,O,o,281,1,816.0,640540.8999999994,7043,WL,C,7.0
5,15.043999910354614,learn,60000.0,Mon Jan 27 2025 14:04:08 GMT-0600 (Central Standard Time),641606.7999999998,A,doc,O,c,230,1,1065.9000000003725,640540.8999999994,7043,WL,C,7.0
5,15.344000101089478,learn,60000.0,Mon Jan 27 2025 14:04:08 GMT-0600 (Central Standard Time),641906.6999999993,A,doct,O,t,277,1,1365.7999999998137,640540.8999999994,7043,WL,C,7.0
5,15.543999910354614,learn,60000.0,Mon Jan 27 2025 14:04:08 GMT-0600 (Central Standard Time),642106.5999999996,A,docto,O,o,192,1,1565.7000000001863,640540.8999999994,7043,WL,C,7.0
5,15.710999965667725,learn,60000.0,Mon Jan 27 2025 14:04:08 GMT-0600 (Central Standard Time),642273.7999999998,A,doctor,O,r,152,1,1732.9000000003725,640540.8999999994,7043,WL,C,7.0
5,16.276999950408936,learn,60000.0,Mon Jan 27 2025 14:04:08 GMT-0600 (Central Standard Time),642839.6999999993,A,doctorenter,O,enter,553,1,2298.7999999998137,640540.8999999994,7043,WL,C,7.0
5,16.759999990463257,learn,60000.0,Mon Jan 27 2025 14:04:08 GMT-0600 (Central Standard Time),643323.0,A,c,O,c,475,1,483.0,642840.0,7043,WL,C,8.0
5,16.877000093460083,learn,60000.0,Mon Jan 27 2025 14:04:08 GMT-0600 (Central Standard Time),643439.3999999994,A,ca,O,a,96,1,599.3999999994412,642840.0,7043,WL,C,8.0
5,17.243000030517578,learn,60000.0,Mon Jan 27 2025 14:04:08 GMT-0600 (Central Standard Time),643806.1999999993,A,cam,O,m,356,1,966.1999999992549,642840.0,7043,WL,C,8.0
5,17.443000078201294,learn,60000.0,Mon Jan 27 2025 14:04:08 GMT-0600 (Central Standard Time),644006.0,A,camp,O,p,188,1,1166.0,642840.0,7043,WL,C,8.0
5,17.993000030517578,learn,60000.0,Mon Jan 27 2025 14:04:08 GMT-0600 (Central Standard Time),644555.7999999998,A,campenter,O,enter,532,1,1715.7999999998137,642840.0,7043,WL,C,8.0
5,21.39199995994568,learn,60000.0,Mon Jan 27 2025 14:04:08 GMT-0600 (Central Standard Time),647954.5999999996,A,t,O,t,3382,1,3398.2000000001863,644556.3999999994,7043,WL,C,9.0
5,21.575000047683716,learn,60000.0,Mon Jan 27 2025 14:04:08 GMT-0600 (Central Standard Time),648138.0999999996,A,to,O,o,167,1,3581.7000000001863,644556.3999999994,7043,WL,C,9.0
5,22.092000007629395,learn,60000.0,Mon Jan 27 2025 14:04:08 GMT-0600 (Central Standard Time),648654.5,A,tow,O,w,504,1,4098.100000000559,644556.3999999994,7043,WL,C,9.0
5,22.259000062942505,learn,60000.0,Mon Jan 27 2025 14:04:08 GMT-0600 (Central Standard Time),648821.2999999998,A,towe,O,e,156,1,4264.9000000003725,644556.3999999994,7043,WL,C,9.0
5,22.45799994468689,learn,60000.0,Mon Jan 27 2025 14:04:08 GMT-0600 (Central Standard Time),649021.0999999996,A,tower,O,r,189,1,4464.700000000186,644556.3999999994,7043,WL,C,9.0
5,22.941999912261963,learn,60000.0,Mon Jan 27 2025 14:04:08 GMT-0600 (Central Standard Time),649504.3999999994,A,towerenter,O,enter,470,1,4948.0,644556.3999999994,7043,WL,C,9.0
5,23.641000032424927,learn,60000.0,Mon Jan 27 2025 14:04:08 GMT-0600 (Central Standard Time),650204.1999999993,A,w,O,w,683,1,699.5999999996275,649504.5999999996,7043,WL,C,10.0
5,23.85800004005432,learn,60000.0,Mon Jan 27 2025 14:04:08 GMT-0600 (Central Standard Time),650420.5999999996,A,wh,O,h,198,1,916.0,649504.5999999996,7043,WL,C,10.0
5,24.35800004005432,learn,60000.0,Mon Jan 27 2025 14:04:08 GMT-0600 (Central Standard Time),650920.5999999996,A,whe,O,e,478,1,1416.0,649504.5999999996,7043,WL,C,10.0
5,24.574000120162964,learn,60000.0,Mon Jan 27 2025 14:04:08 GMT-0600 (Central Standard Time),651137.1999999993,A,whea,O,a,202,1,1632.5999999996275,649504.5999999996,7043,WL,C,10.0
5,24.808000087738037,learn,60000.0,Mon Jan 27 2025 14:04:08 GMT-0600 (Central Standard Time),651370.5999999996,A,whear,O,r,210,1,1866.0,649504.5999999996,7043,WL,C,10.0
5,25.207000017166138,learn,60000.0,Mon Jan 27 2025 14:04:08 GMT-0600 (Central Standard Time),651770.2999999998,A,whearenter,O,enter,376,1,2265.7000000001863,649504.5999999996,7043,WL,C,10.0
5,26.506999969482422,learn,60000.0,Mon Jan 27 2025 14:04:08 GMT-0600 (Central Standard Time),653069.8999999994,A,q,O,q,1280,1,1299.2000000001863,651770.6999999993,7043,WL,C,11.0
5,26.657000064849854,learn,60000.0,Mon Jan 27 2025 14:04:08 GMT-0600 (Central Standard Time),653219.7999999998,A,qu,O,u,133,1,1449.1000000005588,651770.6999999993,7043,WL,C,11.0
5,26.825000047683716,learn,60000.0,Mon Jan 27 2025 14:04:08 GMT-0600 (Central Standard Time),653387.5,A,que,O,e,151,1,1616.800000000745,651770.6999999993,7043,WL,C,11.0
5,27.121000051498413,learn,60000.0,Mon Jan 27 2025 14:04:08 GMT-0600 (Central Standard Time),653684.2999999998,A,quee,O,e,143,1,1913.6000000005588,651770.6999999993,7043,WL,C,11.0
5,27.288000106811523,learn,60000.0,Mon Jan 27 2025 14:04:08 GMT-0600 (Central Standard Time),653850.5,A,queen,O,n,140,1,2079.800000000745,651770.6999999993,7043,WL,C,11.0
5,27.805999994277954,learn,60000.0,Mon Jan 27 2025 14:04:08 GMT-0600 (Central Standard Time),654369.3999999994,A,queenenter,O,enter,496,1,2598.7000000001863,651770.6999999993,7043,WL,C,11.0
5,32.0220000743866,learn,60000.0,Mon Jan 27 2025 14:04:08 GMT-0600 (Central Standard Time),658584.5999999996,A,s,O,s,4202,1,4214.9000000003725,654369.6999999993,7043,WL,C,12.0
5,32.13800001144409,learn,60000.0,Mon Jan 27 2025 14:04:08 GMT-0600 (Central Standard Time),658701.2999999998,A,sh,O,h,97,1,4331.600000000559,654369.6999999993,7043,WL,C,12.0
5,32.28800010681152,learn,60000.0,Mon Jan 27 2025 14:04:08 GMT-0600 (Central Standard Time),658851.5,A,sho,O,o,131,1,4481.800000000745,654369.6999999993,7043,WL,C,12.0
5,32.388999938964844,learn,60000.0,Mon Jan 27 2025 14:04:08 GMT-0600 (Central Standard Time),658951.5,A,shor,O,r,79,1,4581.800000000745,654369.6999999993,7043,WL,C,12.0
5,32.48799991607666,learn,60000.0,Mon Jan 27 2025 14:04:08 GMT-0600 (Central Standard Time),659051.0999999996,A,shore,O,e,91,1,4681.4000000003725,654369.6999999993,7043,WL,C,12.0
5,32.67199993133545,learn,60000.0,Mon Jan 27 2025 14:04:08 GMT-0600 (Central Standard Time),659234.5999999996,A,shoreenter,O,enter,176,1,4864.9000000003725,654369.6999999993,7043,WL,C,12.0
5,33.520999908447266,learn,60000.0,Mon Jan 27 2025 14:04:08 GMT-0600 (Central Standard Time),660084.1999999993,A,h,O,h,832,1,849.2999999998137,659234.8999999994,7043,WL,C,13.0
5,33.67199993133545,learn,60000.0,Mon Jan 27 2025 14:04:08 GMT-0600 (Central Standard Time),660234.5,A,ho,O,o,126,1,999.6000000005588,659234.8999999994,7043,WL,C,13.0
5,33.82100009918213,learn,60000.0,Mon Jan 27 2025 14:04:08 GMT-0600 (Central Standard Time),660384.2999999998,A,hom,O,m,136,1,1149.4000000003725,659234.8999999994,7043,WL,C,13.0
5,34.00500011444092,learn,60000.0,Mon Jan 27 2025 14:04:08 GMT-0600 (Central Standard Time),660567.5,A,home,O,e,170,1,1332.6000000005588,659234.8999999994,7043,WL,C,13.0
5,34.23799991607666,learn,60000.0,Mon Jan 27 2025 14:04:08 GMT-0600 (Central Standard Time),660800.6999999993,A,homeenter,O,enter,212,1,1565.7999999998137,659234.8999999994,7043,WL,C,13.0
5,45.23399996757507,learn,60000.0,Mon Jan 27 2025 14:04:08 GMT-0600 (Central Standard Time),671797.2999999998,A,f,O,f,10978,1,10996.200000000186,660801.0999999996,7043,WL,C,14.0
5,45.48399996757507,learn,60000.0,Mon Jan 27 2025 14:04:08 GMT-0600 (Central Standard Time),672047.1999999993,A,fl,O,l,229,1,11246.099999999627,660801.0999999996,7043,WL,C,14.0
5,45.66700005531311,learn,60000.0,Mon Jan 27 2025 14:04:08 GMT-0600 (Central Standard Time),672230.5,A,fla,O,a,171,1,11429.400000000373,660801.0999999996,7043,WL,C,14.0
5,46.48399996757507,learn,60000.0,Mon Jan 27 2025 14:04:08 GMT-0600 (Central Standard Time),673046.7999999998,A,flag,O,g,804,1,12245.700000000186,660801.0999999996,7043,WL,C,14.0
5,47.03399991989136,learn,60000.0,Mon Jan 27 2025 14:04:08 GMT-0600 (Central Standard Time),673596.6999999993,A,flagenter,O,enter,540,1,12795.599999999627,660801.0999999996,7043,WL,C,14.0
5,50.0,learn,60000.0,Mon Jan 27 2025 14:04:08 GMT-0600 (Central Standard Time),676562.6999999993,A,enter,O,enter,2942,1,2965.5999999996275,673597.0999999996,7043,WL,C,15.0
6,0.6439998149871826,distr,59356.00018501282,Mon Jan 27 2025 14:04:08 GMT-0600 (Central Standard Time),747850.8999999994,B,f,O,f,637,1,643.8999999994412,747207.0,7043,WL,C,1.0
6,0.8849999904632568,distr,59115.00000953674,Mon Jan 27 2025 14:04:08 GMT-0600 (Central Standard Time),748091.7999999998,B,fo,O,o,215,1,884.7999999998137,747207.0,7043,WL,C,1.0
6,1.066999912261963,distr,58933.00008773804,Mon Jan 27 2025 14:04:08 GMT-0600 (Central Standard Time),748273.3999999994,B,for,O,r,159,1,1066.3999999994412,747207.0,7043,WL,C,1.0
6,1.1499998569488525,distr,58850.00014305115,Mon Jan 27 2025 14:04:08 GMT-0600 (Central Standard Time),748356.6999999993,B,fore,O,e,65,1,1149.699999999255,747207.0,7043,WL,C,1.0
6,1.3499999046325684,distr,58650.00009536743,Mon Jan 27 2025 14:04:08 GMT-0600 (Central Standard Time),748556.5,B,foren,O,n,182,1,1349.5,747207.0,7043,WL,C,1.0
6,1.4829998016357422,distr,58517.00019836426,Mon Jan 27 2025 14:04:08 GMT-0600 (Central Standard Time),748690.0,B,forent,O,t,119,1,1483.0,747207.0,7043,WL,C,1.0
6,2.232999801635742,distr,57767.00019836426,Mon Jan 27 2025 14:04:08 GMT-0600 (Central Standard Time),749439.6999999993,B,foren,O,backspace,729,1,2232.699999999255,747207.0,7043,WL,C,1.0
6,2.4159998893737793,distr,57584.00011062622,Mon Jan 27 2025 14:04:08 GMT-0600 (Central Standard Time),749623.0999999996,B,fore,O,backspace,171,1,2416.0999999996275,747207.0,7043,WL,C,1.0
6,2.482999801635742,distr,57517.00019836426,Mon Jan 27 2025 14:04:08 GMT-0600 (Central Standard Time),749689.5999999996,B,fores,O,s,52,1,2482.5999999996275,747207.0,7043,WL,C,1.0
6,2.5999999046325684,distr,57400.00009536743,Mon Jan 27 2025 14:04:08 GMT-0600 (Central Standard Time),749806.5,B,forest,O,t,105,1,2599.5,747207.0,7043,WL,C,1.0
6,3.6659998893737793,distr,56334.00011062622,Mon Jan 27 2025 14:04:08 GMT-0600 (Central Standard Time),750872.5,B,forestenter,O,enter,1044,1,3665.5,747207.0,7043,WL,C,1.0
6,3.9819998741149902,distr,56018.00012588501,Mon Jan 27 2025 14:04:08 GMT-0600 (Central Standard Time),751189.1999999993,B,t,O,t,298,1,316.29999999981374,750872.8999999994,7043,WL,C,2.0
6,4.315999984741211,distr,55684.00001525879,Mon Jan 27 2025 14:04:08 GMT-0600 (Central Standard Time),751522.5999999996,B,to,O,o,326,1,649.7000000001863,750872.8999999994,7043,WL,C,2.0
6,4.498999834060669,distr,55501.00016593933,Mon Jan 27 2025 14:04:08 GMT-0600 (Central Standard Time),751705.7999999998,B,too,O,o,160,1,832.9000000003725,750872.8999999994,7043,WL,C,2.0
6,4.798999786376953,distr,55201.00021362305,Mon Jan 27 2025 14:04:08 GMT-0600 (Central Standard Time),752005.5,B,tool,O,l,281,1,1132.6000000005588,750872.8999999994,7043,WL,C,2.0
6,5.148999929428101,distr,54851.0000705719,Mon Jan 27 2025 14:04:08 GMT-0600 (Central Standard Time),752355.5999999996,B,toolenter,O,enter,333,1,1482.7000000001863,750872.8999999994,7043,WL,C,2.0
6,6.164999961853027,distr,53835.00003814697,Mon Jan 27 2025 14:04:08 GMT-0600 (Central Standard Time),753371.7999999998,B,p,O,p,1008,1,1015.7999999998137,752356.0,7043,WL,C,3.0
6,6.331999778747559,distr,53668.00022125244,Mon Jan 27 2025 14:04:08 GMT-0600 (Central Standard Time),753538.3999999994,B,pl,O,l,151,1,1182.3999999994412,752356.0,7043,WL,C,3.0
6,6.414999961853027,distr,53585.00003814697,Mon Jan 27 2025 14:04:08 GMT-0600 (Central Standard Time),753621.7999999998,B,pla,O,a,65,1,1265.7999999998137,752356.0,7043,WL,C,3.0
6,6.547999858856201,distr,53452.0001411438,Mon Jan 27 2025 14:04:08 GMT-0600 (Central Standard Time),753754.7999999998,B,plan,O,n,125,1,1398.7999999998137,752356.0,7043,WL,C,3.0
6,6.730999946594238,distr,53269.00005340576,Mon Jan 27 2025 14:04:08 GMT-0600 (Central Standard Time),753938.0999999996,B,plant,O,t,168,1,1582.0999999996275,752356.0,7043,WL,C,3.0
6,7.2149999141693115,distr,52785.00008583069,Mon Jan 27 2025 14:04:08 GMT-0600 (Central Standard Time),754421.2999999998,B,plantenter,O,enter,472,1,2065.2999999998137,752356.0,7043,WL,C,3.0
6,7.930999994277954,distr,52069.000005722046,Mon Jan 27 2025 14:04:08 GMT-0600 (Central Standard Time),755138.0,B,m,O,m,694,1,716.4000000003725,754421.5999999996,7043,WL,C,4.0
6,8.06499981880188,distr,51935.00018119812,Mon Jan 27 2025 14:04:08 GMT-0600 (Central Standard Time),755271.2999999998,B,mo,O,o,112,1,849.7000000001863,754421.5999999996,7043,WL,C,4.0
6,8.280999898910522,distr,51719.00010108948,Mon Jan 27 2025 14:04:08 GMT-0600 (Central Standard Time),755487.7999999998,B,mot,O,t,203,1,1066.2000000001863,754421.5999999996,7043,WL,C,4.0
6,8.363999843597412,distr,51636.00015640259,Mon Jan 27 2025 14:04:08 GMT-0600 (Central Standard Time),755571.1999999993,B,moth,O,h,60,1,1149.5999999996275,754421.5999999996,7043,WL,C,4.0
6,8.547999858856201,distr,51452.0001411438,Mon Jan 27 2025 14:04:08 GMT-0600 (Central Standard Time),755754.3999999994,B,mothe,O,e,167,1,1332.7999999998137,754421.5999999996,7043,WL,C,4.0
6,8.580999851226807,distr,51419.00014877319,Mon Jan 27 2025 14:04:08 GMT-0600 (Central Standard Time),755787.6999999993,B,mother,O,r,24,1,1366.0999999996275,754421.5999999996,7043,WL,C,4.0
6,8.847999811172485,distr,51152.000188827515,Mon Jan 27 2025 14:04:08 GMT-0600 (Central Standard Time),756054.3999999994,B,motherenter,O,enter,248,1,1632.7999999998137,754421.5999999996,7043,WL,C,4.0
6,9.347999811172485,distr,50652.000188827515,Mon Jan 27 2025 14:04:08 GMT-0600 (Central Standard Time),756554.3999999994,B,c,O,c,493,1,499.59999999962747,756054.7999999998,7043,WL,C,5.0
6,9.46399998664856,distr,50536.00001335144,Mon Jan 27 2025 14:04:08 GMT-0600 (Central Standard Time),756670.5999999996,B,ch,O,h,105,1,615.7999999998137,756054.7999999998,7043,WL,C,5.0
6,9.596999883651733,distr,50403.00011634827,Mon Jan 27 2025 14:04:08 GMT-0600 (Central Standard Time),756804.0999999996,B,chr,O,r,116,1,749.2999999998137,756054.7999999998,7043,WL,C,5.0
6,9.73199987411499,distr,50268.00012588501,Mon Jan 27 2025 14:04:08 GMT-0600 (Central Standard Time),756938.3999999994,B,chri,O,i,127,1,883.5999999996275,756054.7999999998,7043,WL,C,5.0
6,9.81499981880188,distr,50185.00018119812,Mon Jan 27 2025 14:04:08 GMT-0600 (Central Standard Time),757021.7999999998,B,chris,O,s,72,1,967.0,756054.7999999998,7043,WL,C,5.0
6,9.946999788284302,distr,50053.0002117157,Mon Jan 27 2025 14:04:08 GMT-0600 (Central Standard Time),757154.2999999998,B,christ,O,t,109,1,1099.5,756054.7999999998,7043,WL,C,5.0
6,10.246999979019165,distr,49753.000020980835,Mon Jan 27 2025 14:04:08 GMT-0600 (Central Standard Time),757453.8999999994,B,christm,O,m,281,1,1399.0999999996275,756054.7999999998,7043,WL,C,5.0
6,10.446999788284302,distr,49553.0002117157,Mon Jan 27 2025 14:04:08 GMT-0600 (Central Standard Time),757653.6999999993,B,christmn,O,n,181,1,1598.8999999994412,756054.7999999998,7043,WL,C,5.0
6,11.030999898910522,distr,48969.00010108948,Mon Jan 27 2025 14:04:08 GMT-0600 (Central Standard Time),758238.0,B,christm,O,backspace,573,1,2183.2000000001863,756054.7999999998,7043,WL,C,5.0
6,11.179999828338623,distr,48820.00017166138,Mon Jan 27 2025 14:04:08 GMT-0600 (Central Standard Time),758386.7999999998,B,christma,O,a,132,1,2332.0,756054.7999999998,7043,WL,C,5.0
6,11.262999773025513,distr,48737.00022697449,Mon Jan 27 2025 14:04:08 GMT-0600 (Central Standard Time),758470.1999999993,B,christmas,O,s,72,1,2415.399999999441,756054.7999999998,7043,WL,C,5.0
6,11.679999828338623,distr,48320.00017166138,Mon Jan 27 2025 14:04:08 GMT-0600 (Central Standard Time),758886.6999999993,B,christmasenter,O,enter,405,1,2831.899999999441,756054.7999999998,7043,WL,C,5.0
6,13.495999813079834,distr,46504.000186920166,Mon Jan 27 2025 14:04:08 GMT-0600 (Central Standard Time),760702.7999999998,B,t,O,t,1796,1,1815.9000000003725,758886.8999999994,7043,WL,C,6.0
6,13.645999908447266,distr,46354.000091552734,Mon Jan 27 2025 14:04:08 GMT-0600 (Central Standard Time),760852.7999999998,B,to,O,o,140,1,1965.9000000003725,758886.8999999994,7043,WL,C,6.0
6,13.812999963760376,distr,46187.000036239624,Mon Jan 27 2025 14:04:08 GMT-0600 (Central Standard Time),761019.3999999994,B,too,O,o,150,1,2132.5,758886.8999999994,7043,WL,C,6.0
6,13.995999813079834,distr,46004.000186920166,Mon Jan 27 2025 14:04:08 GMT-0600 (Central Standard Time),761202.7999999998,B,tool,O,l,160,1,2315.9000000003725,758886.8999999994,7043,WL,C,6.0
6,14.345999956130981,distr,45654.00004386902,Mon Jan 27 2025 14:04:08 GMT-0600 (Central Standard Time),761552.5,B,toolenter,O,enter,336,1,2665.600000000559,758886.8999999994,7043,WL,C,6.0
6,20.51099991798401,distr,39489.00008201599,Mon Jan 27 2025 14:04:08 GMT-0600 (Central Standard Time),767717.3999999994,B,s,O,s,6154,1,6164.5999999996275,761552.7999999998,7043,WL,C,7.0
6,20.759999990463257,distr,39240.00000953674,Mon Jan 27 2025 14:04:08 GMT-0600 (Central Standard Time),767967.0,B,sk,O,k,229,1,6414.200000000186,761552.7999999998,7043,WL,C,7.0
6,20.99399995803833,distr,39006.00004196167,Mon Jan 27 2025 14:04:08 GMT-0600 (Central Standard Time),768200.3999999994,B,sky,O,y,212,1,6647.5999999996275,761552.7999999998,7043,WL,C,7.0
6,21.30999994277954,distr,38690.00005722046,Mon Jan 27 2025 14:04:08 GMT-0600 (Central Standard Time),768517.1999999993,B,skyenter,O,enter,307,1,6964.399999999441,761552.7999999998,7043,WL,C,7.0
6,27.989999771118164,distr,32010.000228881836,Mon Jan 27 2025 14:04:08 GMT-0600 (Central Standard Time),775198.2999999998,B,f,O,f,6670,1,6680.799999999814,768517.5,7043,WL,C,8.0
6,28.1729998588562,distr,31827.0001411438,Mon Jan 27 2025 14:04:08 GMT-0600 (Central Standard Time),775381.7999999998,B,fo,O,o,172,1,6864.299999999814,768517.5,7043,WL,C,8.0
6,28.306999921798706,distr,31693.000078201294,Mon Jan 27 2025 14:04:08 GMT-0600 (Central Standard Time),775514.8999999994,B,for,O,r,125,1,6997.399999999441,768517.5,7043,WL,C,8.0
6,28.423999786376953,distr,31576.000213623047,Mon Jan 27 2025 14:04:08 GMT-0600 (Central Standard Time),775632.5999999996,B,fore,O,e,104,1,7115.0999999996275,768517.5,7043,WL,C,8.0
6,28.639999866485596,distr,31360.000133514404,Mon Jan 27 2025 14:04:08 GMT-0600 (Central Standard Time),775848.0,B,fores,O,s,194,1,7330.5,768517.5,7043,WL,C,8.0
6,28.75599980354309,distr,31244.00019645691,Mon Jan 27 2025 14:04:08 GMT-0600 (Central Standard Time),775964.5999999996,B,forest,O,t,99,1,7447.0999999996275,768517.5,7043,WL,C,8.0
6,28.955999851226807,distr,31044.000148773193,Mon Jan 27 2025 14:04:08 GMT-0600 (Central Standard Time),776164.6999999993,B,forestenter,O,enter,190,1,7647.199999999255,768517.5,7043,WL,C,8.0
6,60.01299977302551,distr,-12.999773025512695,Mon Jan 27 2025 14:04:08 GMT-0600 (Central Standard Time),807221.6999999993,B,None,O,None,31050,1,31056.699999999255,776165.0,7043,WL,C,9.0
7,1.4830000400543213,immed,58516.99995994568,Mon Jan 27 2025 14:04:08 GMT-0600 (Central Standard Time),817551.6999999993,A,d,O,d,1463,1,1482.7999999998137,816068.8999999994,7043,WL,C,1.0
7,1.7000000476837158,immed,58299.999952316284,Mon Jan 27 2025 14:04:08 GMT-0600 (Central Standard Time),817768.5,A,do,O,o,203,1,1699.6000000005588,816068.8999999994,7043,WL,C,1.0
7,2.0329999923706055,immed,57967.000007629395,Mon Jan 27 2025 14:04:08 GMT-0600 (Central Standard Time),818101.5,A,doc,O,c,314,1,2032.6000000005588,816068.8999999994,7043,WL,C,1.0
7,2.38100004196167,immed,57618.99995803833,Mon Jan 27 2025 14:04:08 GMT-0600 (Central Standard Time),818449.0,A,doct,O,t,341,1,2380.100000000559,816068.8999999994,7043,WL,C,1.0
7,2.5279998779296875,immed,57472.00012207031,Mon Jan 27 2025 14:04:08 GMT-0600 (Central Standard Time),818596.2999999998,A,docto,O,o,139,1,2527.4000000003725,816068.8999999994,7043,WL,C,1.0
7,2.632999897003174,immed,57367.000102996826,Mon Jan 27 2025 14:04:08 GMT-0600 (Central Standard Time),818701.0999999996,A,doctor,O,r,94,1,2632.2000000001863,816068.8999999994,7043,WL,C,1.0
7,3.1659998893737793,immed,56834.00011062622,Mon Jan 27 2025 14:04:08 GMT-0600 (Central Standard Time),819234.5,A,doctorenter,O,enter,526,1,3165.600000000559,816068.8999999994,7043,WL,C,1.0
7,3.882999897003174,immed,56117.000102996826,Mon Jan 27 2025 14:04:08 GMT-0600 (Central Standard Time),819951.0,A,b,O,b,704,1,716.2000000001863,819234.7999999998,7043,WL,C,2.0
7,4.115999937057495,immed,55884.000062942505,Mon Jan 27 2025 14:04:08 GMT-0600 (Central Standard Time),820184.2999999998,A,bo,O,o,220,1,949.5,819234.7999999998,7043,WL,C,2.0
7,4.381999969482422,immed,55618.00003051758,Mon Jan 27 2025 14:04:08 GMT-0600 (Central Standard Time),820450.6999999993,A,boy,O,y,258,1,1215.8999999994412,819234.7999999998,7043,WL,C,2.0
7,4.799000024795532,immed,55200.99997520447,Mon Jan 27 2025 14:04:08 GMT-0600 (Central Standard Time),820867.3999999994,A,boyenter,O,enter,400,1,1632.5999999996275,819234.7999999998,7043,WL,C,2.0
7,5.631999969482422,immed,54368.00003051758,Mon Jan 27 2025 14:04:08 GMT-0600 (Central Standard Time),821700.3999999994,A,q,O,q,815,1,832.7000000001863,820867.6999999993,7043,WL,C,3.0
7,5.765000104904175,immed,54234.999895095825,Mon Jan 27 2025 14:04:08 GMT-0600 (Central Standard Time),821833.6999999993,A,qu,O,u,118,1,966.0,820867.6999999993,7043,WL,C,3.0
7,5.914999961853027,immed,54085.00003814697,Mon Jan 27 2025 14:04:08 GMT-0600 (Central Standard Time),821983.6999999993,A,que,O,e,137,1,1116.0,820867.6999999993,7043,WL,C,3.0
7,6.065000057220459,immed,53934.99994277954,Mon Jan 27 2025 14:04:08 GMT-0600 (Central Standard Time),822133.6999999993,A,quee,O,e,132,1,1266.0,820867.6999999993,7043,WL,C,3.0
7,6.23199987411499,immed,53768.00012588501,Mon Jan 27 2025 14:04:08 GMT-0600 (Central Standard Time),822300.3999999994,A,queen,O,n,149,1,1432.7000000001863,820867.6999999993,7043,WL,C,3.0
7,6.598999977111816,immed,53401.00002288818,Mon Jan 27 2025 14:04:08 GMT-0600 (Central Standard Time),822666.8999999994,A,queenenter,O,enter,343,1,1799.2000000001863,820867.6999999993,7043,WL,C,3.0
7,9.430999994277954,immed,50569.000005722046,Mon Jan 27 2025 14:04:08 GMT-0600 (Central Standard Time),825499.2999999998,A,w,O,w,2815,1,2832.0,822667.2999999998,7043,WL,C,4.0
7,9.614000082015991,immed,50385.99991798401,Mon Jan 27 2025 14:04:08 GMT-0600 (Central Standard Time),825682.6999999993,A,wh,O,h,175,1,3015.399999999441,822667.2999999998,7043,WL,C,4.0
7,9.780999898910522,immed,50219.00010108948,Mon Jan 27 2025 14:04:08 GMT-0600 (Central Standard Time),825849.2999999998,A,whe,O,e,144,1,3182.0,822667.2999999998,7043,WL,C,4.0
7,10.063999891281128,immed,49936.00010871887,Mon Jan 27 2025 14:04:08 GMT-0600 (Central Standard Time),826132.0999999996,A,whea,O,a,273,1,3464.7999999998137,822667.2999999998,7043,WL,C,4.0
7,10.263999938964844,immed,49736.000061035156,Mon Jan 27 2025 14:04:08 GMT-0600 (Central Standard Time),826332.3999999994,A,wheat,O,t,183,1,3665.0999999996275,822667.2999999998,7043,WL,C,4.0
7,10.664000034332275,immed,49335.999965667725,Mon Jan 27 2025 14:04:08 GMT-0600 (Central Standard Time),826732.3999999994,A,wheatenter,O,enter,382,1,4065.0999999996275,822667.2999999998,7043,WL,C,4.0
7,11.096999883651733,immed,48903.00011634827,Mon Jan 27 2025 14:04:08 GMT-0600 (Central Standard Time),827165.5,A,c,O,c,415,1,432.80000000074506,826732.6999999993,7043,WL,C,5.0
7,11.364000082015991,immed,48635.99991798401,Mon Jan 27 2025 14:04:08 GMT-0600 (Central Standard Time),827432.0,A,co,O,o,253,1,699.3000000007451,826732.6999999993,7043,WL,C,5.0
7,11.463000059127808,immed,48536.99994087219,Mon Jan 27 2025 14:04:08 GMT-0600 (Central Standard Time),827531.6999999993,A,cor,O,r,91,1,799.0,826732.6999999993,7043,WL,C,5.0
7,11.629999876022339,immed,48370.00012397766,Mon Jan 27 2025 14:04:08 GMT-0600 (Central Standard Time),827698.6999999993,A,corn,O,n,159,1,966.0,826732.6999999993,7043,WL,C,5.0
7,11.996999979019165,immed,48003.000020980835,Mon Jan 27 2025 14:04:08 GMT-0600 (Central Standard Time),828065.3999999994,A,cornenter,O,enter,344,1,1332.7000000001863,826732.6999999993,7043,WL,C,5.0
7,13.796000003814697,immed,46203.9999961853,Mon Jan 27 2025 14:04:08 GMT-0600 (Central Standard Time),829864.3999999994,A,t,O,t,1778,1,1798.7000000001863,828065.6999999993,7043,WL,C,6.0
7,13.913000106811523,immed,46086.99989318848,Mon Jan 27 2025 14:04:08 GMT-0600 (Central Standard Time),829981.1999999993,A,to,O,o,98,1,1915.5,828065.6999999993,7043,WL,C,6.0
7,14.061000108718872,immed,45938.99989128113,Mon Jan 27 2025 14:04:08 GMT-0600 (Central Standard Time),830131.3999999994,A,tow,O,w,134,1,2065.7000000001863,828065.6999999993,7043,WL,C,6.0
7,14.194999933242798,immed,45805.0000667572,Mon Jan 27 2025 14:04:08 GMT-0600 (Central Standard Time),830264.3999999994,A,towe,O,e,120,1,2198.7000000001863,828065.6999999993,7043,WL,C,6.0
7,14.378000020980835,immed,45621.999979019165,Mon Jan 27 2025 14:04:08 GMT-0600 (Central Standard Time),830447.5999999996,A,tower,O,r,170,1,2381.9000000003725,828065.6999999993,7043,WL,C,6.0
7,14.694999933242798,immed,45305.0000667572,Mon Jan 27 2025 14:04:08 GMT-0600 (Central Standard Time),830764.2999999998,A,towerenter,O,enter,298,1,2698.600000000559,828065.6999999993,7043,WL,C,6.0
7,15.194000005722046,immed,44805.999994277954,Mon Jan 27 2025 14:04:08 GMT-0600 (Central Standard Time),831264.1999999993,A,l,O,l,487,1,499.5,830764.6999999993,7043,WL,C,7.0
7,15.32800006866455,immed,44671.99993133545,Mon Jan 27 2025 14:04:08 GMT-0600 (Central Standard Time),831397.5,A,le,O,e,114,1,632.8000000007451,830764.6999999993,7043,WL,C,7.0
7,15.527999877929688,immed,44472.00012207031,Mon Jan 27 2025 14:04:08 GMT-0600 (Central Standard Time),831597.5999999996,A,let,O,t,181,1,832.9000000003725,830764.6999999993,7043,WL,C,7.0
7,15.66100001335144,immed,44338.99998664856,Mon Jan 27 2025 14:04:08 GMT-0600 (Central Standard Time),831730.5999999996,A,lett,O,t,126,1,965.9000000003725,830764.6999999993,7043,WL,C,7.0
7,15.82800006866455,immed,44171.99993133545,Mon Jan 27 2025 14:04:08 GMT-0600 (Central Standard Time),831897.3999999994,A,lette,O,e,145,1,1132.7000000001863,830764.6999999993,7043,WL,C,7.0
7,15.927000045776367,immed,44072.99995422363,Mon Jan 27 2025 14:04:08 GMT-0600 (Central Standard Time),831997.1999999993,A,letter,O,r,89,1,1232.5,830764.6999999993,7043,WL,C,7.0
7,16.127000093460083,immed,43872.99990653992,Mon Jan 27 2025 14:04:08 GMT-0600 (Central Standard Time),832197.2999999998,A,letterenter,O,enter,189,1,1432.6000000005588,830764.6999999993,7043,WL,C,7.0
7,16.694000005722046,immed,43305.999994277954,Mon Jan 27 2025 14:04:08 GMT-0600 (Central Standard Time),832763.5999999996,A,n,O,n,557,1,565.9000000003725,832197.6999999993,7043,WL,C,8.0
7,17.07699990272522,immed,42923.00009727478,Mon Jan 27 2025 14:04:08 GMT-0600 (Central Standard Time),833147.0,A,na,O,a,360,1,949.3000000007451,832197.6999999993,7043,WL,C,8.0
7,17.259999990463257,immed,42740.00000953674,Mon Jan 27 2025 14:04:08 GMT-0600 (Central Standard Time),833330.0999999996,A,nai,O,i,160,1,1132.4000000003725,832197.6999999993,7043,WL,C,8.0
7,17.427000045776367,immed,42572.99995422363,Mon Jan 27 2025 14:04:08 GMT-0600 (Central Standard Time),833496.6999999993,A,nail,O,l,153,1,1299.0,832197.6999999993,7043,WL,C,8.0
7,17.80999994277954,immed,42190.00005722046,Mon Jan 27 2025 14:04:08 GMT-0600 (Central Standard Time),833880.0,A,nailenter,O,enter,370,1,1682.300000000745,832197.6999999993,7043,WL,C,8.0
7,18.32699990272522,immed,41673.00009727478,Mon Jan 27 2025 14:04:08 GMT-0600 (Central Standard Time),834396.3999999994,A,c,O,c,507,1,516.0999999996275,833880.2999999998,7043,WL,C,9.0
7,18.41100001335144,immed,41588.99998664856,Mon Jan 27 2025 14:04:08 GMT-0600 (Central Standard Time),834481.0,A,ca,O,a,62,1,600.7000000001863,833880.2999999998,7043,WL,C,9.0
7,18.693000078201294,immed,41306.999921798706,Mon Jan 27 2025 14:04:08 GMT-0600 (Central Standard Time),834763.0,A,cam,O,m,274,1,882.7000000001863,833880.2999999998,7043,WL,C,9.0
7,18.859999895095825,immed,41140.000104904175,Mon Jan 27 2025 14:04:08 GMT-0600 (Central Standard Time),834929.5,A,camp,O,p,152,1,1049.2000000001863,833880.2999999998,7043,WL,C,9.0
7,19.325999975204468,immed,40674.00002479553,Mon Jan 27 2025 14:04:08 GMT-0600 (Central Standard Time),835396.2999999998,A,campenter,O,enter,449,1,1516.0,833880.2999999998,7043,WL,C,9.0
7,19.908999919891357,immed,40091.00008010864,Mon Jan 27 2025 14:04:08 GMT-0600 (Central Standard Time),835979.2999999998,A,f,O,f,567,1,582.7000000001863,835396.5999999996,7043,WL,C,10.0
7,20.111000061035156,immed,39888.999938964844,Mon Jan 27 2025 14:04:08 GMT-0600 (Central Standard Time),836180.3999999994,A,fl,O,l,183,1,783.7999999998137,835396.5999999996,7043,WL,C,10.0
7,20.2260000705719,immed,39773.9999294281,Mon Jan 27 2025 14:04:08 GMT-0600 (Central Standard Time),836295.6999999993,A,fla,O,a,94,1,899.0999999996275,835396.5999999996,7043,WL,C,10.0
7,20.45900011062622,immed,39540.99988937378,Mon Jan 27 2025 14:04:08 GMT-0600 (Central Standard Time),836529.1999999993,A,flag,O,g,219,1,1132.5999999996275,835396.5999999996,7043,WL,C,10.0
7,21.243000030517578,immed,38756.99996948242,Mon Jan 27 2025 14:04:08 GMT-0600 (Central Standard Time),837312.3999999994,A,flagenter,O,enter,762,1,1915.7999999998137,835396.5999999996,7043,WL,C,10.0
7,60.013999938964844,immed,-13.99993896484375,Mon Jan 27 2025 14:04:08 GMT-0600 (Central Standard Time),876083.3999999994,A,None,O,None,38763,1,38770.700000000186,837312.6999999993,7043,WL,C,11.0
