block_c,block_dur,condition,countdown,datetime,endtime,list,multichar_response,project,response,response_time,session_number,start_end,starttime,subject_id,task,task_vers,trial
,,,,Thu Jan 09 2025 13:49:29 GMT-0600 (Central Standard Time),,,,I,space,549,2,,,8008,WL,C,
prac,,0,,Thu Jan 09 2025 13:49:29 GMT-0600 (Central Standard Time),,NA,b,I,b,5395,2,,,8008,WL,C,1.0
prac,,0,,Thu Jan 09 2025 13:49:29 GMT-0600 (Central Standard Time),,NA,bo,I,o,605,2,,,8008,WL,C,1.0
prac,,0,,Thu Jan 09 2025 13:49:29 GMT-0600 (Central Standard Time),,NA,boo,I,o,135,2,,,8008,WL,C,1.0
prac,,0,,Thu Jan 09 2025 13:49:29 GMT-0600 (Central Standard Time),,NA,boos,I,s,265,2,,,8008,WL,C,1.0
prac,,0,,Thu Jan 09 2025 13:49:29 GMT-0600 (Central Standard Time),,NA,boost,I,t,222,2,,,8008,WL,C,1.0
prac,,0,,Thu Jan 09 2025 13:49:29 GMT-0600 (Central Standard Time),,NA,boostenter,I,enter,7013,2,,,8008,WL,C,1.0
1,1.931999921798706,learn,58068.000078201294,Thu Jan 09 2025 13:49:29 GMT-0600 (Central Standard Time),126697.10000000149,A,t,I,t,1917,2,1932.4000000059605,124764.69999999553,8008,WL,C,1.0
1,2.9149999618530273,learn,57085.00003814697,Thu Jan 09 2025 13:49:29 GMT-0600 (Central Standard Time),127680.10000000149,A,to,I,o,960,2,2915.4000000059605,124764.69999999553,8008,WL,C,1.0
1,3.2149999141693115,learn,56785.00008583069,Thu Jan 09 2025 13:49:29 GMT-0600 (Central Standard Time),127980.0,A,tow,I,w,280,2,3215.3000000044703,124764.69999999553,8008,WL,C,1.0
1,3.515000104904175,learn,56484.999895095825,Thu Jan 09 2025 13:49:29 GMT-0600 (Central Standard Time),128279.79999999702,A,towe,I,e,286,2,3515.10000000149,124764.69999999553,8008,WL,C,1.0
1,3.7980000972747803,learn,56201.99990272522,Thu Jan 09 2025 13:49:29 GMT-0600 (Central Standard Time),128562.79999999702,A,tower,I,r,274,2,3798.10000000149,124764.69999999553,8008,WL,C,1.0
1,4.582000017166138,learn,55417.99998283386,Thu Jan 09 2025 13:49:29 GMT-0600 (Central Standard Time),129346.29999999702,A,towerenter,I,enter,767,2,4581.60000000149,124764.69999999553,8008,WL,C,1.0
1,5.787999868392944,learn,54212.000131607056,Thu Jan 09 2025 13:49:29 GMT-0600 (Central Standard Time),130552.60000000149,A,w,I,w,1198,2,1205.8000000044703,129346.79999999702,8008,WL,C,2.0
1,5.930999994277954,learn,54069.000005722046,Thu Jan 09 2025 13:49:29 GMT-0600 (Central Standard Time),130695.29999999702,A,wh,I,h,118,2,1348.5,129346.79999999702,8008,WL,C,2.0
1,6.114000082015991,learn,53885.99991798401,Thu Jan 09 2025 13:49:29 GMT-0600 (Central Standard Time),130879.10000000149,A,whe,I,e,171,2,1532.3000000044703,129346.79999999702,8008,WL,C,2.0
1,7.2809998989105225,learn,52719.00010108948,Thu Jan 09 2025 13:49:29 GMT-0600 (Central Standard Time),132045.29999999702,A,whea,I,a,1155,2,2698.5,129346.79999999702,8008,WL,C,2.0
1,7.5299999713897705,learn,52470.00002861023,Thu Jan 09 2025 13:49:29 GMT-0600 (Central Standard Time),132295.19999999553,A,wheat,I,t,228,2,2948.39999999851,129346.79999999702,8008,WL,C,2.0
1,8.063999891281128,learn,51936.00010871887,Thu Jan 09 2025 13:49:29 GMT-0600 (Central Standard Time),132828.5,A,wheatenter,I,enter,523,2,3481.7000000029802,129346.79999999702,8008,WL,C,2.0
1,8.730000019073486,learn,51269.999980926514,Thu Jan 09 2025 13:49:29 GMT-0600 (Central Standard Time),133494.69999999553,A,c,I,c,646,2,665.6999999955297,132829.0,8008,WL,C,3.0
1,8.996999979019165,learn,51003.000020980835,Thu Jan 09 2025 13:49:29 GMT-0600 (Central Standard Time),133761.5,A,co,I,o,252,2,932.5,132829.0,8008,WL,C,3.0
1,9.496000051498413,learn,50503.99994850159,Thu Jan 09 2025 13:49:29 GMT-0600 (Central Standard Time),134261.19999999553,A,cor,I,r,481,2,1432.1999999955297,132829.0,8008,WL,C,3.0
1,9.77999997138977,learn,50220.00002861023,Thu Jan 09 2025 13:49:29 GMT-0600 (Central Standard Time),134544.6000000015,A,corn,I,n,269,2,1715.6000000014901,132829.0,8008,WL,C,3.0
1,10.54699993133545,learn,49453.00006866455,Thu Jan 09 2025 13:49:29 GMT-0600 (Central Standard Time),135312.1000000015,A,cornenter,I,enter,746,2,2483.10000000149,132829.0,8008,WL,C,3.0
1,11.196000099182129,learn,48803.99990081787,Thu Jan 09 2025 13:49:29 GMT-0600 (Central Standard Time),135960.79999999702,A,s,I,s,627,2,648.1999999955297,135312.6000000015,8008,WL,C,4.0
1,11.428999900817871,learn,48571.00009918213,Thu Jan 09 2025 13:49:29 GMT-0600 (Central Standard Time),136194.1000000015,A,sh,I,h,210,2,881.5,135312.6000000015,8008,WL,C,4.0
1,12.411999940872192,learn,47588.00005912781,Thu Jan 09 2025 13:49:29 GMT-0600 (Central Standard Time),137177.1000000015,A,sho,I,o,959,2,1864.5,135312.6000000015,8008,WL,C,4.0
1,12.878999948501587,learn,47121.00005149841,Thu Jan 09 2025 13:49:29 GMT-0600 (Central Standard Time),137643.69999999553,A,shor,I,r,457,2,2331.0999999940395,135312.6000000015,8008,WL,C,4.0
1,13.062000036239624,learn,46937.999963760376,Thu Jan 09 2025 13:49:29 GMT-0600 (Central Standard Time),137826.6000000015,A,shore,I,e,167,2,2514.0,135312.6000000015,8008,WL,C,4.0
1,13.428999900817871,learn,46571.00009918213,Thu Jan 09 2025 13:49:29 GMT-0600 (Central Standard Time),138193.5,A,shoreenter,I,enter,342,2,2880.89999999851,135312.6000000015,8008,WL,C,4.0
1,14.211999893188477,learn,45788.00010681152,Thu Jan 09 2025 13:49:29 GMT-0600 (Central Standard Time),138976.5,A,b,I,b,761,2,782.6000000014901,138193.8999999985,8008,WL,C,5.0
1,14.545000076293945,learn,45454.999923706055,Thu Jan 09 2025 13:49:29 GMT-0600 (Central Standard Time),139309.69999999553,A,bo,I,o,322,2,1115.7999999970198,138193.8999999985,8008,WL,C,5.0
1,14.91100001335144,learn,45088.99998664856,Thu Jan 09 2025 13:49:29 GMT-0600 (Central Standard Time),139676.19999999553,A,boy,I,y,357,2,1482.2999999970198,138193.8999999985,8008,WL,C,5.0
1,15.74399995803833,learn,44256.00004196167,Thu Jan 09 2025 13:49:29 GMT-0600 (Central Standard Time),140509.1000000015,A,boyenter,I,enter,821,2,2315.2000000029802,138193.8999999985,8008,WL,C,5.0
1,18.543999910354614,learn,41456.000089645386,Thu Jan 09 2025 13:49:29 GMT-0600 (Central Standard Time),143308.29999999702,A,n,I,n,2790,2,2798.7999999970198,140509.5,8008,WL,C,6.0
1,18.91100001335144,learn,41088.99998664856,Thu Jan 09 2025 13:49:29 GMT-0600 (Central Standard Time),143676.1000000015,A,na,I,a,350,2,3166.60000000149,140509.5,8008,WL,C,6.0
1,19.259999990463257,learn,40740.00000953674,Thu Jan 09 2025 13:49:29 GMT-0600 (Central Standard Time),144024.8999999985,A,nai,I,i,334,2,3515.39999999851,140509.5,8008,WL,C,6.0
1,19.759999990463257,learn,40240.00000953674,Thu Jan 09 2025 13:49:29 GMT-0600 (Central Standard Time),144524.8999999985,A,nail,I,l,490,2,4015.39999999851,140509.5,8008,WL,C,6.0
1,20.693000078201294,learn,39306.999921798706,Thu Jan 09 2025 13:49:29 GMT-0600 (Central Standard Time),145458.1000000015,A,nailenter,I,enter,910,2,4948.60000000149,140509.5,8008,WL,C,6.0
1,31.73900008201599,learn,28260.99991798401,Thu Jan 09 2025 13:49:29 GMT-0600 (Central Standard Time),156504.29999999702,A,enter,I,enter,11024,2,11045.79999999702,145458.5,8008,WL,C,7.0
1,32.83899998664856,learn,27161.00001335144,Thu Jan 09 2025 13:49:29 GMT-0600 (Central Standard Time),157604.29999999702,A,enter,I,enter,1089,2,1099.6000000014901,156504.69999999553,8008,WL,C,8.0
1,38.7039999961853,learn,21296.000003814697,Thu Jan 09 2025 13:49:29 GMT-0600 (Central Standard Time),163469.0,A,enter,I,enter,5846,2,5864.30000000447,157604.69999999553,8008,WL,C,9.0
1,40.8529999256134,learn,19147.000074386597,Thu Jan 09 2025 13:49:29 GMT-0600 (Central Standard Time),165618.19999999553,A,enter,I,enter,2125,2,2148.7999999970198,163469.3999999985,8008,WL,C,10.0
1,41.170000076293945,learn,18829.999923706055,Thu Jan 09 2025 13:49:29 GMT-0600 (Central Standard Time),165934.69999999553,A,enter,I,enter,296,2,316.0,165618.69999999553,8008,WL,C,11.0
1,41.519999980926514,learn,18480.000019073486,Thu Jan 09 2025 13:49:29 GMT-0600 (Central Standard Time),166284.69999999553,A,enter,I,enter,341,2,349.59999999403954,165935.1000000015,8008,WL,C,12.0
1,41.90299987792969,learn,18097.000122070312,Thu Jan 09 2025 13:49:29 GMT-0600 (Central Standard Time),166667.79999999702,A,enter,I,enter,366,2,382.69999999552965,166285.1000000015,8008,WL,C,13.0
1,42.335999965667725,learn,17664.000034332275,Thu Jan 09 2025 13:49:29 GMT-0600 (Central Standard Time),167101.0,A,enter,I,enter,415,2,432.80000000447035,166668.19999999553,8008,WL,C,14.0
1,42.986000061035156,learn,17013.999938964844,Thu Jan 09 2025 13:49:29 GMT-0600 (Central Standard Time),167750.8999999985,A,enter,I,enter,638,2,649.5,167101.3999999985,8008,WL,C,15.0
2,1.7330000400543213,learn,58266.99995994568,Thu Jan 09 2025 13:49:29 GMT-0600 (Central Standard Time),237379.19999999553,A,h,I,h,1717,2,1732.7999999970198,235646.3999999985,8008,WL,C,1.0
2,1.932999849319458,learn,58067.00015068054,Thu Jan 09 2025 13:49:29 GMT-0600 (Central Standard Time),237578.69999999553,A,ho,I,o,191,2,1932.2999999970198,235646.3999999985,8008,WL,C,1.0
2,2.1989998817443848,learn,57801.000118255615,Thu Jan 09 2025 13:49:29 GMT-0600 (Central Standard Time),237845.6000000015,A,hom,I,m,249,2,2199.2000000029802,235646.3999999985,8008,WL,C,1.0
2,3.1649999618530273,learn,56835.00003814697,Thu Jan 09 2025 13:49:29 GMT-0600 (Central Standard Time),238811.79999999702,A,home,I,e,950,2,3165.39999999851,235646.3999999985,8008,WL,C,1.0
2,3.5319998264312744,learn,56468.000173568726,Thu Jan 09 2025 13:49:29 GMT-0600 (Central Standard Time),239178.3999999985,A,homeenter,I,enter,344,2,3532.0,235646.3999999985,8008,WL,C,1.0
2,4.3999998569488525,learn,55600.00014305115,Thu Jan 09 2025 13:49:29 GMT-0600 (Central Standard Time),240046.1000000015,A,f,I,f,857,2,867.3000000044703,239178.79999999702,8008,WL,C,2.0
2,4.648999929428101,learn,55351.0000705719,Thu Jan 09 2025 13:49:29 GMT-0600 (Central Standard Time),240294.79999999702,A,fl,I,l,237,2,1116.0,239178.79999999702,8008,WL,C,2.0
2,5.3480000495910645,learn,54651.999950408936,Thu Jan 09 2025 13:49:29 GMT-0600 (Central Standard Time),240994.3999999985,A,fla,I,a,692,2,1815.6000000014901,239178.79999999702,8008,WL,C,2.0
2,5.797999858856201,learn,54202.0001411438,Thu Jan 09 2025 13:49:29 GMT-0600 (Central Standard Time),241444.3999999985,A,flag,I,g,440,2,2265.60000000149,239178.79999999702,8008,WL,C,2.0
2,6.13100004196167,learn,53868.99995803833,Thu Jan 09 2025 13:49:29 GMT-0600 (Central Standard Time),241777.5,A,flagenter,I,enter,311,2,2598.7000000029802,239178.79999999702,8008,WL,C,2.0
2,6.7809998989105225,learn,53219.00010108948,Thu Jan 09 2025 13:49:29 GMT-0600 (Central Standard Time),242427.3999999985,A,y,I,y,642,2,649.7000000029802,241777.69999999553,8008,WL,C,3.0
2,7.047999858856201,learn,52952.0001411438,Thu Jan 09 2025 13:49:29 GMT-0600 (Central Standard Time),242694.19999999553,A,yo,I,o,247,2,916.5,241777.69999999553,8008,WL,C,3.0
2,7.497999906539917,learn,52502.00009346008,Thu Jan 09 2025 13:49:29 GMT-0600 (Central Standard Time),243143.8999999985,A,yow,I,w,429,2,1366.2000000029802,241777.69999999553,8008,WL,C,3.0
2,7.830999851226807,learn,52169.00014877319,Thu Jan 09 2025 13:49:29 GMT-0600 (Central Standard Time),243477.1000000015,A,yowe,I,e,323,2,1699.4000000059605,241777.69999999553,8008,WL,C,3.0
2,8.13100004196167,learn,51868.99995803833,Thu Jan 09 2025 13:49:29 GMT-0600 (Central Standard Time),243777.19999999553,A,yower,I,r,278,2,1999.5,241777.69999999553,8008,WL,C,3.0
2,8.480999946594238,learn,51519.00005340576,Thu Jan 09 2025 13:49:29 GMT-0600 (Central Standard Time),244126.8999999985,A,yowerenter,I,enter,330,2,2349.2000000029802,241777.69999999553,8008,WL,C,3.0
2,9.04699993133545,learn,50953.00006866455,Thu Jan 09 2025 13:49:29 GMT-0600 (Central Standard Time),244693.5,A,q,I,q,548,2,566.2000000029802,244127.29999999702,8008,WL,C,4.0
2,9.414000034332275,learn,50585.999965667725,Thu Jan 09 2025 13:49:29 GMT-0600 (Central Standard Time),245059.79999999702,A,qu,I,u,357,2,932.5,244127.29999999702,8008,WL,C,4.0
2,9.829999923706055,learn,50170.000076293945,Thu Jan 09 2025 13:49:29 GMT-0600 (Central Standard Time),245476.5,A,que,I,e,399,2,1349.2000000029802,244127.29999999702,8008,WL,C,4.0
2,10.013000011444092,learn,49986.99998855591,Thu Jan 09 2025 13:49:29 GMT-0600 (Central Standard Time),245659.69999999553,A,quee,I,e,174,2,1532.3999999985099,244127.29999999702,8008,WL,C,4.0
2,10.179999828338623,learn,49820.00017166138,Thu Jan 09 2025 13:49:29 GMT-0600 (Central Standard Time),245826.29999999702,A,queen,I,n,159,2,1699.0,244127.29999999702,8008,WL,C,4.0
2,10.697999954223633,learn,49302.00004577637,Thu Jan 09 2025 13:49:29 GMT-0600 (Central Standard Time),246344.29999999702,A,queenenter,I,enter,505,2,2217.0,244127.29999999702,8008,WL,C,4.0
2,11.27999997138977,learn,48720.00002861023,Thu Jan 09 2025 13:49:29 GMT-0600 (Central Standard Time),246926.19999999553,A,d,I,d,571,2,581.5999999940395,246344.6000000015,8008,WL,C,5.0
2,11.546000003814697,learn,48453.9999961853,Thu Jan 09 2025 13:49:29 GMT-0600 (Central Standard Time),247192.5,A,do,I,o,253,2,847.8999999985099,246344.6000000015,8008,WL,C,5.0
2,11.77999997138977,learn,48220.00002861023,Thu Jan 09 2025 13:49:29 GMT-0600 (Central Standard Time),247425.8999999985,A,doc,I,c,219,2,1081.2999999970198,246344.6000000015,8008,WL,C,5.0
2,12.19599986076355,learn,47804.00013923645,Thu Jan 09 2025 13:49:29 GMT-0600 (Central Standard Time),247842.69999999553,A,doct,I,t,402,2,1498.0999999940395,246344.6000000015,8008,WL,C,5.0
2,12.829999923706055,learn,47170.000076293945,Thu Jan 09 2025 13:49:29 GMT-0600 (Central Standard Time),248475.79999999702,A,docto,I,o,617,2,2131.1999999955297,246344.6000000015,8008,WL,C,5.0
2,13.062999963760376,learn,46937.000036239624,Thu Jan 09 2025 13:49:29 GMT-0600 (Central Standard Time),248708.79999999702,A,doctor,I,r,223,2,2364.1999999955297,246344.6000000015,8008,WL,C,5.0
2,13.546000003814697,learn,46453.9999961853,Thu Jan 09 2025 13:49:29 GMT-0600 (Central Standard Time),249192.1000000015,A,doctorenter,I,enter,471,2,2847.5,246344.6000000015,8008,WL,C,5.0
2,14.078999996185303,learn,45921.0000038147,Thu Jan 09 2025 13:49:29 GMT-0600 (Central Standard Time),249725.1000000015,A,w,I,w,515,2,532.7000000029802,249192.3999999985,8008,WL,C,6.0
2,14.428999900817871,learn,45571.00009918213,Thu Jan 09 2025 13:49:29 GMT-0600 (Central Standard Time),250075.1000000015,A,wh,I,h,334,2,882.7000000029802,249192.3999999985,8008,WL,C,6.0
2,14.644999980926514,learn,45355.000019073486,Thu Jan 09 2025 13:49:29 GMT-0600 (Central Standard Time),250291.6000000015,A,whe,I,e,208,2,1099.2000000029802,249192.3999999985,8008,WL,C,6.0
2,15.394999980926514,learn,44605.000019073486,Thu Jan 09 2025 13:49:29 GMT-0600 (Central Standard Time),251041.3999999985,A,whea,I,a,735,2,1849.0,249192.3999999985,8008,WL,C,6.0
2,15.744999885559082,learn,44255.00011444092,Thu Jan 09 2025 13:49:29 GMT-0600 (Central Standard Time),251391.29999999702,A,wheat,I,t,330,2,2198.89999999851,249192.3999999985,8008,WL,C,6.0
2,16.32799983024597,learn,43672.00016975403,Thu Jan 09 2025 13:49:29 GMT-0600 (Central Standard Time),251974.29999999702,A,wheatenter,I,enter,572,2,2781.89999999851,249192.3999999985,8008,WL,C,6.0
2,17.227999925613403,learn,42772.0000743866,Thu Jan 09 2025 13:49:29 GMT-0600 (Central Standard Time),252874.19999999553,A,b,I,b,877,2,899.5,251974.69999999553,8008,WL,C,7.0
2,17.67799997329712,learn,42322.00002670288,Thu Jan 09 2025 13:49:29 GMT-0600 (Central Standard Time),253324.0,A,bo,I,o,441,2,1349.3000000044703,251974.69999999553,8008,WL,C,7.0
2,18.14400005340576,learn,41855.99994659424,Thu Jan 09 2025 13:49:29 GMT-0600 (Central Standard Time),253790.6000000015,A,boy,I,y,447,2,1815.9000000059605,251974.69999999553,8008,WL,C,7.0
2,20.16100001335144,learn,39838.99998664856,Thu Jan 09 2025 13:49:29 GMT-0600 (Central Standard Time),255806.79999999702,A,boyenter,I,enter,1997,2,3832.10000000149,251974.69999999553,8008,WL,C,7.0
2,27.641000032424927,learn,32358.999967575073,Thu Jan 09 2025 13:49:29 GMT-0600 (Central Standard Time),263287.5,A,s,I,s,7460,2,7480.5,255807.0,8008,WL,C,8.0
2,28.007999897003174,learn,31992.000102996826,Thu Jan 09 2025 13:49:29 GMT-0600 (Central Standard Time),263654.0,A,sh,I,h,347,2,7847.0,255807.0,8008,WL,C,8.0
2,28.70799994468689,learn,31292.00005531311,Thu Jan 09 2025 13:49:29 GMT-0600 (Central Standard Time),264354.0,A,sho,I,o,677,2,8547.0,255807.0,8008,WL,C,8.0
2,29.141000032424927,learn,30858.999967575073,Thu Jan 09 2025 13:49:29 GMT-0600 (Central Standard Time),264786.799999997,A,shor,I,r,425,2,8979.79999999702,255807.0,8008,WL,C,8.0
2,29.340999841690063,learn,30659.000158309937,Thu Jan 09 2025 13:49:29 GMT-0600 (Central Standard Time),264986.799999997,A,shore,I,e,193,2,9179.79999999702,255807.0,8008,WL,C,8.0
2,29.990999937057495,learn,30009.000062942505,Thu Jan 09 2025 13:49:29 GMT-0600 (Central Standard Time),265637.0,A,shoreenter,I,enter,640,2,9830.0,255807.0,8008,WL,C,8.0
2,30.889999866485596,learn,29110.000133514404,Thu Jan 09 2025 13:49:29 GMT-0600 (Central Standard Time),266536.5,A,n,I,n,886,2,899.1000000014901,265637.3999999985,8008,WL,C,9.0
2,31.27300000190735,learn,28726.99999809265,Thu Jan 09 2025 13:49:29 GMT-0600 (Central Standard Time),266919.6000000015,A,na,I,a,370,2,1282.2000000029802,265637.3999999985,8008,WL,C,9.0
2,31.539999961853027,learn,28460.000038146973,Thu Jan 09 2025 13:49:29 GMT-0600 (Central Standard Time),267186.3999999985,A,nai,I,i,244,2,1549.0,265637.3999999985,8008,WL,C,9.0
2,31.94000005722046,learn,28059.99994277954,Thu Jan 09 2025 13:49:29 GMT-0600 (Central Standard Time),267586.1000000015,A,nail,I,l,377,2,1948.7000000029802,265637.3999999985,8008,WL,C,9.0
2,32.805999994277954,learn,27194.000005722046,Thu Jan 09 2025 13:49:29 GMT-0600 (Central Standard Time),268452.69999999553,A,nailenter,I,enter,857,2,2815.2999999970198,265637.3999999985,8008,WL,C,9.0
2,36.287999868392944,learn,23712.000131607056,Thu Jan 09 2025 13:49:29 GMT-0600 (Central Standard Time),271934.5,A,b,I,b,3470,2,3481.5,268453.0,8008,WL,C,10.0
2,36.90499997138977,learn,23095.00002861023,Thu Jan 09 2025 13:49:29 GMT-0600 (Central Standard Time),272551.299999997,A,bo,I,o,596,2,4098.29999999702,268453.0,8008,WL,C,10.0
2,37.437999963760376,learn,22562.000036239624,Thu Jan 09 2025 13:49:29 GMT-0600 (Central Standard Time),273084.6000000015,A,bod,I,d,524,2,4631.60000000149,268453.0,8008,WL,C,10.0
2,37.73799991607666,learn,22262.00008392334,Thu Jan 09 2025 13:49:29 GMT-0600 (Central Standard Time),273384.6000000015,A,body,I,y,278,2,4931.60000000149,268453.0,8008,WL,C,10.0
2,38.270999908447266,learn,21729.000091552734,Thu Jan 09 2025 13:49:29 GMT-0600 (Central Standard Time),273917.6000000015,A,bodyenter,I,enter,514,2,5464.60000000149,268453.0,8008,WL,C,10.0
2,38.83800005912781,learn,21161.999940872192,Thu Jan 09 2025 13:49:29 GMT-0600 (Central Standard Time),274484.1000000015,A,s,I,s,558,2,566.2000000029802,273917.8999999985,8008,WL,C,11.0
2,39.105000019073486,learn,20894.999980926514,Thu Jan 09 2025 13:49:29 GMT-0600 (Central Standard Time),274750.799999997,A,su,I,u,247,2,832.8999999985099,273917.8999999985,8008,WL,C,11.0
2,39.437999963760376,learn,20562.000036239624,Thu Jan 09 2025 13:49:29 GMT-0600 (Central Standard Time),275083.8999999985,A,sug,I,g,316,2,1166.0,273917.8999999985,8008,WL,C,11.0
2,39.9210000038147,learn,20078.999996185303,Thu Jan 09 2025 13:49:29 GMT-0600 (Central Standard Time),275567.19999999553,A,suga,I,a,463,2,1649.2999999970198,273917.8999999985,8008,WL,C,11.0
2,40.22099995613098,learn,19779.00004386902,Thu Jan 09 2025 13:49:29 GMT-0600 (Central Standard Time),275866.8999999985,A,sugar,I,r,284,2,1949.0,273917.8999999985,8008,WL,C,11.0
2,41.30399990081787,learn,18696.00009918213,Thu Jan 09 2025 13:49:29 GMT-0600 (Central Standard Time),276950.1000000015,A,sugarenter,I,enter,1072,2,3032.2000000029802,273917.8999999985,8008,WL,C,11.0
2,50.58399987220764,learn,9416.000127792358,Thu Jan 09 2025 13:49:29 GMT-0600 (Central Standard Time),286230.5,A,f,I,f,9261,2,9280.0,276950.5,8008,WL,C,12.0
2,50.75099992752075,learn,9249.000072479248,Thu Jan 09 2025 13:49:29 GMT-0600 (Central Standard Time),286397.1000000015,A,fl,I,l,148,2,9446.60000000149,276950.5,8008,WL,C,12.0
2,51.28399991989136,learn,8716.000080108643,Thu Jan 09 2025 13:49:29 GMT-0600 (Central Standard Time),286930.19999999553,A,fla,I,a,526,2,9979.69999999553,276950.5,8008,WL,C,12.0
2,51.799999952316284,learn,8200.000047683716,Thu Jan 09 2025 13:49:29 GMT-0600 (Central Standard Time),287446.69999999553,A,flag,I,g,497,2,10496.19999999553,276950.5,8008,WL,C,12.0
2,52.18299984931946,learn,7817.000150680542,Thu Jan 09 2025 13:49:29 GMT-0600 (Central Standard Time),287830.0,A,flagenter,I,enter,372,2,10879.5,276950.5,8008,WL,C,12.0
2,60.013999938964844,learn,-13.99993896484375,Thu Jan 09 2025 13:49:29 GMT-0600 (Central Standard Time),295660.799999997,A,None,I,None,7824,2,7830.5,287830.299999997,8008,WL,C,13.0
3,1.4839999675750732,learn,58516.00003242493,Thu Jan 09 2025 13:49:29 GMT-0600 (Central Standard Time),364340.299999997,A,c,I,c,1475,2,1483.7999999970198,362856.5,8008,WL,C,1.0
3,1.748999834060669,learn,58251.00016593933,Thu Jan 09 2025 13:49:29 GMT-0600 (Central Standard Time),364605.8999999985,A,ca,I,a,247,2,1749.3999999985099,362856.5,8008,WL,C,1.0
3,2.3989999294281006,learn,57601.0000705719,Thu Jan 09 2025 13:49:29 GMT-0600 (Central Standard Time),365255.6000000015,A,cat,I,t,629,2,2399.10000000149,362856.5,8008,WL,C,1.0
3,2.615000009536743,learn,57384.99999046326,Thu Jan 09 2025 13:49:29 GMT-0600 (Central Standard Time),365472.19999999553,A,catt,I,t,195,2,2615.6999999955297,362856.5,8008,WL,C,1.0
3,2.9619998931884766,learn,57038.00010681152,Thu Jan 09 2025 13:49:29 GMT-0600 (Central Standard Time),365818.799999997,A,cattl,I,l,338,2,2962.2999999970198,362856.5,8008,WL,C,1.0
3,3.2319998741149902,learn,56768.00012588501,Thu Jan 09 2025 13:49:29 GMT-0600 (Central Standard Time),366088.3999999985,A,cattle,I,e,250,2,3231.89999999851,362856.5,8008,WL,C,1.0
3,4.56499981880188,learn,55435.00018119812,Thu Jan 09 2025 13:49:29 GMT-0600 (Central Standard Time),367421.799999997,A,cattleenter,I,enter,1315,2,4565.29999999702,362856.5,8008,WL,C,1.0
3,5.880999803543091,learn,54119.00019645691,Thu Jan 09 2025 13:49:29 GMT-0600 (Central Standard Time),368738.0,A,f,I,f,1301,2,1316.0,367422.0,8008,WL,C,2.0
3,6.180999994277954,learn,53819.000005722046,Thu Jan 09 2025 13:49:29 GMT-0600 (Central Standard Time),369037.799999997,A,fl,I,l,281,2,1615.7999999970198,367422.0,8008,WL,C,2.0
3,6.71399998664856,learn,53286.00001335144,Thu Jan 09 2025 13:49:29 GMT-0600 (Central Standard Time),369570.6000000015,A,fla,I,a,525,2,2148.60000000149,367422.0,8008,WL,C,2.0
3,7.21399998664856,learn,52786.00001335144,Thu Jan 09 2025 13:49:29 GMT-0600 (Central Standard Time),370071.0,A,flag,I,g,489,2,2649.0,367422.0,8008,WL,C,2.0
3,7.596999883651733,learn,52403.00011634827,Thu Jan 09 2025 13:49:29 GMT-0600 (Central Standard Time),370454.19999999553,A,flagenter,I,enter,372,2,3032.1999999955297,367422.0,8008,WL,C,2.0
3,8.079999923706055,learn,51920.000076293945,Thu Jan 09 2025 13:49:29 GMT-0600 (Central Standard Time),370937.19999999553,A,l,I,l,469,2,482.69999999552965,370454.5,8008,WL,C,3.0
3,8.413999795913696,learn,51586.000204086304,Thu Jan 09 2025 13:49:29 GMT-0600 (Central Standard Time),371270.3999999985,A,le,I,e,321,2,815.8999999985099,370454.5,8008,WL,C,3.0
3,8.696999788284302,learn,51303.0002117157,Thu Jan 09 2025 13:49:29 GMT-0600 (Central Standard Time),371553.799999997,A,let,I,t,268,2,1099.2999999970198,370454.5,8008,WL,C,3.0
3,8.863999843597412,learn,51136.00015640259,Thu Jan 09 2025 13:49:29 GMT-0600 (Central Standard Time),371720.299999997,A,lett,I,t,154,2,1265.7999999970198,370454.5,8008,WL,C,3.0
3,9.113999843597412,learn,50886.00015640259,Thu Jan 09 2025 13:49:29 GMT-0600 (Central Standard Time),371970.5,A,lette,I,e,226,2,1516.0,370454.5,8008,WL,C,3.0
3,9.230000019073486,learn,50769.999980926514,Thu Jan 09 2025 13:49:29 GMT-0600 (Central Standard Time),372086.8999999985,A,letter,I,r,105,2,1632.3999999985099,370454.5,8008,WL,C,3.0
3,9.46399998664856,learn,50536.00001335144,Thu Jan 09 2025 13:49:29 GMT-0600 (Central Standard Time),372320.19999999553,A,letterenter,I,enter,220,2,1865.6999999955297,370454.5,8008,WL,C,3.0
3,9.846999883651733,learn,50153.00011634827,Thu Jan 09 2025 13:49:29 GMT-0600 (Central Standard Time),372703.5,A,t,I,t,370,2,382.8999999985099,372320.6000000015,8008,WL,C,4.0
3,10.179999828338623,learn,49820.00017166138,Thu Jan 09 2025 13:49:29 GMT-0600 (Central Standard Time),373036.3999999985,A,to,I,o,324,2,715.7999999970198,372320.6000000015,8008,WL,C,4.0
3,10.629999876022339,learn,49370.00012397766,Thu Jan 09 2025 13:49:29 GMT-0600 (Central Standard Time),373486.3999999985,A,tow,I,w,431,2,1165.7999999970198,372320.6000000015,8008,WL,C,4.0
3,10.796000003814697,learn,49203.9999961853,Thu Jan 09 2025 13:49:29 GMT-0600 (Central Standard Time),373652.799999997,A,towe,I,e,157,2,1332.1999999955297,372320.6000000015,8008,WL,C,4.0
3,11.11299991607666,learn,48887.00008392334,Thu Jan 09 2025 13:49:29 GMT-0600 (Central Standard Time),373969.799999997,A,tower,I,r,294,2,1649.1999999955297,372320.6000000015,8008,WL,C,4.0
3,11.44599986076355,learn,48554.00013923645,Thu Jan 09 2025 13:49:29 GMT-0600 (Central Standard Time),374302.69999999553,A,towerenter,I,enter,321,2,1982.0999999940395,372320.6000000015,8008,WL,C,4.0
3,11.878999948501587,learn,48121.00005149841,Thu Jan 09 2025 13:49:29 GMT-0600 (Central Standard Time),374736.19999999553,A,b,I,b,421,2,433.19999999552965,374303.0,8008,WL,C,5.0
3,12.178999900817871,learn,47821.00009918213,Thu Jan 09 2025 13:49:29 GMT-0600 (Central Standard Time),375036.0,A,bo,I,o,283,2,733.0,374303.0,8008,WL,C,5.0
3,12.562999963760376,learn,47437.000036239624,Thu Jan 09 2025 13:49:29 GMT-0600 (Central Standard Time),375420.19999999553,A,bod,I,d,375,2,1117.1999999955297,374303.0,8008,WL,C,5.0
3,12.796000003814697,learn,47203.9999961853,Thu Jan 09 2025 13:49:29 GMT-0600 (Central Standard Time),375652.3999999985,A,body,I,y,215,2,1349.3999999985099,374303.0,8008,WL,C,5.0
3,13.194999933242798,learn,46805.0000667572,Thu Jan 09 2025 13:49:29 GMT-0600 (Central Standard Time),376052.19999999553,A,bodyenter,I,enter,382,2,1749.1999999955297,374303.0,8008,WL,C,5.0
3,13.711999893188477,learn,46288.00010681152,Thu Jan 09 2025 13:49:29 GMT-0600 (Central Standard Time),376568.799999997,A,s,I,s,503,2,516.2999999970198,376052.5,8008,WL,C,6.0
3,14.01199984550476,learn,45988.00015449524,Thu Jan 09 2025 13:49:29 GMT-0600 (Central Standard Time),376868.69999999553,A,sh,I,h,290,2,816.1999999955297,376052.5,8008,WL,C,6.0
3,14.378000020980835,learn,45621.999979019165,Thu Jan 09 2025 13:49:29 GMT-0600 (Central Standard Time),377234.8999999985,A,sho,I,o,358,2,1182.3999999985099,376052.5,8008,WL,C,6.0
3,14.727999925613403,learn,45272.0000743866,Thu Jan 09 2025 13:49:29 GMT-0600 (Central Standard Time),377585.19999999553,A,shor,I,r,335,2,1532.6999999955297,376052.5,8008,WL,C,6.0
3,14.911999940872192,learn,45088.00005912781,Thu Jan 09 2025 13:49:29 GMT-0600 (Central Standard Time),377768.3999999985,A,shore,I,e,162,2,1715.8999999985099,376052.5,8008,WL,C,6.0
3,15.179999828338623,learn,44820.00017166138,Thu Jan 09 2025 13:49:29 GMT-0600 (Central Standard Time),378036.299999997,A,shoreenter,I,enter,251,2,1983.7999999970198,376052.5,8008,WL,C,6.0
3,15.810999870300293,learn,44189.00012969971,Thu Jan 09 2025 13:49:29 GMT-0600 (Central Standard Time),378668.0,A,h,I,h,615,2,631.3999999985099,378036.6000000015,8008,WL,C,7.0
3,16.027999877929688,learn,43972.00012207031,Thu Jan 09 2025 13:49:29 GMT-0600 (Central Standard Time),378884.799999997,A,ho,I,o,199,2,848.1999999955297,378036.6000000015,8008,WL,C,7.0
3,16.210999965667725,learn,43789.000034332275,Thu Jan 09 2025 13:49:29 GMT-0600 (Central Standard Time),379067.799999997,A,hom,I,m,167,2,1031.1999999955297,378036.6000000015,8008,WL,C,7.0
3,16.628000020980835,learn,43371.999979019165,Thu Jan 09 2025 13:49:29 GMT-0600 (Central Standard Time),379484.5,A,home,I,e,399,2,1447.8999999985099,378036.6000000015,8008,WL,C,7.0
3,16.97699999809265,learn,43023.00000190735,Thu Jan 09 2025 13:49:29 GMT-0600 (Central Standard Time),379834.1000000015,A,homeenter,I,enter,343,2,1797.5,378036.6000000015,8008,WL,C,7.0
3,17.543999910354614,learn,42456.000089645386,Thu Jan 09 2025 13:49:29 GMT-0600 (Central Standard Time),380400.8999999985,A,c,I,c,546,2,566.3999999985099,379834.5,8008,WL,C,8.0
3,17.8439998626709,learn,42156.0001373291,Thu Jan 09 2025 13:49:29 GMT-0600 (Central Standard Time),380700.799999997,A,co,I,o,290,2,866.2999999970198,379834.5,8008,WL,C,8.0
3,18.22699999809265,learn,41773.00000190735,Thu Jan 09 2025 13:49:29 GMT-0600 (Central Standard Time),381083.8999999985,A,cor,I,r,366,2,1249.3999999985099,379834.5,8008,WL,C,8.0
3,18.426999807357788,learn,41573.00019264221,Thu Jan 09 2025 13:49:29 GMT-0600 (Central Standard Time),381283.8999999985,A,corn,I,n,183,2,1449.3999999985099,379834.5,8008,WL,C,8.0
3,18.80999994277954,learn,41190.00005722046,Thu Jan 09 2025 13:49:29 GMT-0600 (Central Standard Time),381667.19999999553,A,cornenter,I,enter,367,2,1832.6999999955297,379834.5,8008,WL,C,8.0
3,19.24399995803833,learn,40756.00004196167,Thu Jan 09 2025 13:49:29 GMT-0600 (Central Standard Time),382100.299999997,A,w,I,w,416,2,432.79999999701977,381667.5,8008,WL,C,9.0
3,19.74399995803833,learn,40256.00004196167,Thu Jan 09 2025 13:49:29 GMT-0600 (Central Standard Time),382600.299999997,A,wh,I,h,478,2,932.7999999970198,381667.5,8008,WL,C,9.0
3,19.992999792099,learn,40007.000207901,Thu Jan 09 2025 13:49:29 GMT-0600 (Central Standard Time),382850.1000000015,A,whe,I,e,235,2,1182.6000000014901,381667.5,8008,WL,C,9.0
3,20.64299988746643,learn,39357.00011253357,Thu Jan 09 2025 13:49:29 GMT-0600 (Central Standard Time),383500.1000000015,A,whea,I,a,633,2,1832.6000000014901,381667.5,8008,WL,C,9.0
3,21.026000022888184,learn,38973.99997711182,Thu Jan 09 2025 13:49:29 GMT-0600 (Central Standard Time),383882.8999999985,A,wheat,I,t,375,2,2215.39999999851,381667.5,8008,WL,C,9.0
3,21.325999975204468,learn,38674.00002479553,Thu Jan 09 2025 13:49:29 GMT-0600 (Central Standard Time),384183.1000000015,A,wheatenter,I,enter,281,2,2515.60000000149,381667.5,8008,WL,C,9.0
3,21.97599983215332,learn,38024.00016784668,Thu Jan 09 2025 13:49:29 GMT-0600 (Central Standard Time),384832.8999999985,A,q,I,q,628,2,649.3999999985099,384183.5,8008,WL,C,10.0
3,22.20899987220764,learn,37791.00012779236,Thu Jan 09 2025 13:49:29 GMT-0600 (Central Standard Time),385066.1000000015,A,qu,I,u,226,2,882.6000000014901,384183.5,8008,WL,C,10.0
3,22.508999824523926,learn,37491.000175476074,Thu Jan 09 2025 13:49:29 GMT-0600 (Central Standard Time),385366.0,A,que,I,e,290,2,1182.5,384183.5,8008,WL,C,10.0
3,22.675999879837036,learn,37324.000120162964,Thu Jan 09 2025 13:49:29 GMT-0600 (Central Standard Time),385532.5,A,quee,I,e,157,2,1349.0,384183.5,8008,WL,C,10.0
3,22.925999879837036,learn,37074.000120162964,Thu Jan 09 2025 13:49:29 GMT-0600 (Central Standard Time),385782.6000000015,A,queen,I,n,231,2,1599.1000000014901,384183.5,8008,WL,C,10.0
3,24.524999856948853,learn,35475.00014305115,Thu Jan 09 2025 13:49:29 GMT-0600 (Central Standard Time),387382.19999999553,A,queenenter,I,enter,1588,2,3198.6999999955297,384183.5,8008,WL,C,10.0
3,26.04199981689453,learn,33958.00018310547,Thu Jan 09 2025 13:49:29 GMT-0600 (Central Standard Time),388898.19999999553,A,f,I,f,1509,2,1515.5999999940395,387382.6000000015,8008,WL,C,11.0
3,26.274999856948853,learn,33725.00014305115,Thu Jan 09 2025 13:49:29 GMT-0600 (Central Standard Time),389131.5,A,fl,I,l,225,2,1748.8999999985099,387382.6000000015,8008,WL,C,11.0
3,26.742999792099,learn,33257.000207901,Thu Jan 09 2025 13:49:29 GMT-0600 (Central Standard Time),389600.0,A,fla,I,a,455,2,2217.39999999851,387382.6000000015,8008,WL,C,11.0
3,27.29099988937378,learn,32709.00011062622,Thu Jan 09 2025 13:49:29 GMT-0600 (Central Standard Time),390148.1000000015,A,flag,I,g,531,2,2765.5,387382.6000000015,8008,WL,C,11.0
3,27.657999992370605,learn,32342.000007629395,Thu Jan 09 2025 13:49:29 GMT-0600 (Central Standard Time),390514.5,A,flagenter,I,enter,343,2,3131.89999999851,387382.6000000015,8008,WL,C,11.0
3,30.87399983406067,learn,29126.00016593933,Thu Jan 09 2025 13:49:29 GMT-0600 (Central Standard Time),393730.19999999553,A,s,I,s,3192,2,3215.39999999851,390514.799999997,8008,WL,C,12.0
3,31.08999991416931,learn,28910.00008583069,Thu Jan 09 2025 13:49:29 GMT-0600 (Central Standard Time),393946.799999997,A,sh,I,h,193,2,3432.0,390514.799999997,8008,WL,C,12.0
3,31.472999811172485,learn,28527.000188827515,Thu Jan 09 2025 13:49:29 GMT-0600 (Central Standard Time),394330.1000000015,A,sho,I,o,360,2,3815.3000000044703,390514.799999997,8008,WL,C,12.0
3,31.905999898910522,learn,28094.000101089478,Thu Jan 09 2025 13:49:29 GMT-0600 (Central Standard Time),394763.0,A,shor,I,r,417,2,4248.20000000298,390514.799999997,8008,WL,C,12.0
3,32.055999994277954,learn,27944.000005722046,Thu Jan 09 2025 13:49:29 GMT-0600 (Central Standard Time),394912.799999997,A,shore,I,e,136,2,4398.0,390514.799999997,8008,WL,C,12.0
3,32.4229998588562,learn,27577.0001411438,Thu Jan 09 2025 13:49:29 GMT-0600 (Central Standard Time),395279.69999999553,A,shoreenter,I,enter,354,2,4764.89999999851,390514.799999997,8008,WL,C,12.0
3,33.621999979019165,learn,26378.000020980835,Thu Jan 09 2025 13:49:29 GMT-0600 (Central Standard Time),396479.19999999553,A,c,I,c,1188,2,1199.0999999940395,395280.1000000015,8008,WL,C,13.0
3,34.288999795913696,learn,25711.000204086304,Thu Jan 09 2025 13:49:29 GMT-0600 (Central Standard Time),397145.5,A,ca,I,a,652,2,1865.3999999985099,395280.1000000015,8008,WL,C,13.0
3,34.77199983596802,learn,25228.000164031982,Thu Jan 09 2025 13:49:29 GMT-0600 (Central Standard Time),397628.799999997,A,cam,I,m,466,2,2348.6999999955297,395280.1000000015,8008,WL,C,13.0
3,35.22199988365173,learn,24778.000116348267,Thu Jan 09 2025 13:49:29 GMT-0600 (Central Standard Time),398078.5,A,camp,I,p,430,2,2798.39999999851,395280.1000000015,8008,WL,C,13.0
3,36.48799991607666,learn,23512.00008392334,Thu Jan 09 2025 13:49:29 GMT-0600 (Central Standard Time),399344.8999999985,A,campenter,I,enter,1245,2,4064.7999999970198,395280.1000000015,8008,WL,C,13.0
3,40.669999837875366,learn,19330.000162124634,Thu Jan 09 2025 13:49:29 GMT-0600 (Central Standard Time),403526.8999999985,A,t,I,t,4162,2,4181.70000000298,399345.19999999553,8008,WL,C,14.0
3,40.88699984550476,learn,19113.00015449524,Thu Jan 09 2025 13:49:29 GMT-0600 (Central Standard Time),403743.69999999553,A,to,I,o,204,2,4398.5,399345.19999999553,8008,WL,C,14.0
3,41.269999980926514,learn,18730.000019073486,Thu Jan 09 2025 13:49:29 GMT-0600 (Central Standard Time),404126.799999997,A,tow,I,w,371,2,4781.60000000149,399345.19999999553,8008,WL,C,14.0
3,41.53699994087219,learn,18463.000059127808,Thu Jan 09 2025 13:49:29 GMT-0600 (Central Standard Time),404393.5,A,towe,I,e,253,2,5048.30000000447,399345.19999999553,8008,WL,C,14.0
3,41.8199999332428,learn,18180.000066757202,Thu Jan 09 2025 13:49:29 GMT-0600 (Central Standard Time),404676.69999999553,A,tower,I,r,265,2,5331.5,399345.19999999553,8008,WL,C,14.0
3,42.168999910354614,learn,17831.000089645386,Thu Jan 09 2025 13:49:29 GMT-0600 (Central Standard Time),405026.3999999985,A,towerenter,I,enter,342,2,5681.20000000298,399345.19999999553,8008,WL,C,14.0
3,47.117999792099,learn,12882.000207901001,Thu Jan 09 2025 13:49:29 GMT-0600 (Central Standard Time),409975.0,A,enter,I,enter,4937,2,4948.39999999851,405026.6000000015,8008,WL,C,15.0
4,1.315999984741211,learn,58684.00001525879,Thu Jan 09 2025 13:49:29 GMT-0600 (Central Standard Time),478286.8999999985,A,c,I,c,1297,2,1315.7000000029802,476971.19999999553,8008,WL,C,1.0
4,1.7990000247955322,learn,58200.99997520447,Thu Jan 09 2025 13:49:29 GMT-0600 (Central Standard Time),478770.19999999553,A,co,I,o,475,2,1799.0,476971.19999999553,8008,WL,C,1.0
4,2.1490001678466797,learn,57850.99983215332,Thu Jan 09 2025 13:49:29 GMT-0600 (Central Standard Time),479120.1000000015,A,cor,I,r,337,2,2148.9000000059605,476971.19999999553,8008,WL,C,1.0
4,2.7320001125335693,learn,57267.99988746643,Thu Jan 09 2025 13:49:29 GMT-0600 (Central Standard Time),479703.1000000015,A,corn,I,n,570,2,2731.9000000059605,476971.19999999553,8008,WL,C,1.0
4,3.2150001525878906,learn,56784.99984741211,Thu Jan 09 2025 13:49:29 GMT-0600 (Central Standard Time),480186.5,A,cornenter,I,enter,468,2,3215.3000000044703,476971.19999999553,8008,WL,C,1.0
4,3.9650001525878906,learn,56034.99984741211,Thu Jan 09 2025 13:49:29 GMT-0600 (Central Standard Time),480936.1000000015,A,c,I,c,736,2,749.3000000044703,480186.799999997,8008,WL,C,2.0
4,4.265000104904175,learn,55734.999895095825,Thu Jan 09 2025 13:49:29 GMT-0600 (Central Standard Time),481236.0,A,ca,I,a,283,2,1049.2000000029802,480186.799999997,8008,WL,C,2.0
4,4.898000001907349,learn,55101.99999809265,Thu Jan 09 2025 13:49:29 GMT-0600 (Central Standard Time),481869.299999997,A,cat,I,t,623,2,1682.5,480186.799999997,8008,WL,C,2.0
4,5.115000009536743,learn,54884.99999046326,Thu Jan 09 2025 13:49:29 GMT-0600 (Central Standard Time),482085.6000000015,A,catt,I,t,198,2,1898.8000000044703,480186.799999997,8008,WL,C,2.0
4,5.331000089645386,learn,54668.999910354614,Thu Jan 09 2025 13:49:29 GMT-0600 (Central Standard Time),482302.3999999985,A,cattl,I,l,206,2,2115.60000000149,480186.799999997,8008,WL,C,2.0
4,5.664999961853027,learn,54335.00003814697,Thu Jan 09 2025 13:49:29 GMT-0600 (Central Standard Time),482635.6000000015,A,cattle,I,e,317,2,2448.8000000044703,480186.799999997,8008,WL,C,2.0
4,6.180999994277954,learn,53819.000005722046,Thu Jan 09 2025 13:49:29 GMT-0600 (Central Standard Time),483152.0,A,cattleenter,I,enter,495,2,2965.2000000029802,480186.799999997,8008,WL,C,2.0
4,6.674999952316284,learn,53325.000047683716,Thu Jan 09 2025 13:49:29 GMT-0600 (Central Standard Time),483646.3999999985,A,b,I,b,487,2,494.1000000014901,483152.299999997,8008,WL,C,3.0
4,6.998000144958496,learn,53001.999855041504,Thu Jan 09 2025 13:49:29 GMT-0600 (Central Standard Time),483969.299999997,A,bo,I,o,306,2,817.0,483152.299999997,8008,WL,C,3.0
4,7.465000152587891,learn,52534.99984741211,Thu Jan 09 2025 13:49:29 GMT-0600 (Central Standard Time),484436.1000000015,A,bod,I,d,458,2,1283.8000000044703,483152.299999997,8008,WL,C,3.0
4,7.746999979019165,learn,52253.000020980835,Thu Jan 09 2025 13:49:29 GMT-0600 (Central Standard Time),484718.299999997,A,body,I,y,264,2,1566.0,483152.299999997,8008,WL,C,3.0
4,8.246999979019165,learn,51753.000020980835,Thu Jan 09 2025 13:49:29 GMT-0600 (Central Standard Time),485218.1000000015,A,bodyenter,I,enter,477,2,2065.8000000044703,483152.299999997,8008,WL,C,3.0
4,8.94700002670288,learn,51052.99997329712,Thu Jan 09 2025 13:49:29 GMT-0600 (Central Standard Time),485918.0,A,s,I,s,689,2,699.6000000014901,485218.3999999985,8008,WL,C,4.0
4,9.164000034332275,learn,50835.999965667725,Thu Jan 09 2025 13:49:29 GMT-0600 (Central Standard Time),486134.6000000015,A,sh,I,h,197,2,916.2000000029802,485218.3999999985,8008,WL,C,4.0
4,9.496999979019165,learn,50503.000020980835,Thu Jan 09 2025 13:49:29 GMT-0600 (Central Standard Time),486467.69999999553,A,sho,I,o,317,2,1249.2999999970198,485218.3999999985,8008,WL,C,4.0
4,9.830000162124634,learn,50169.999837875366,Thu Jan 09 2025 13:49:29 GMT-0600 (Central Standard Time),486800.8999999985,A,shor,I,r,311,2,1582.5,485218.3999999985,8008,WL,C,4.0
4,10.013000011444092,learn,49986.99998855591,Thu Jan 09 2025 13:49:29 GMT-0600 (Central Standard Time),486984.299999997,A,shore,I,e,162,2,1765.8999999985099,485218.3999999985,8008,WL,C,4.0
4,10.296000003814697,learn,49703.9999961853,Thu Jan 09 2025 13:49:29 GMT-0600 (Central Standard Time),487267.5,A,shoreenter,I,enter,267,2,2049.10000000149,485218.3999999985,8008,WL,C,4.0
4,10.980000019073486,learn,49019.999980926514,Thu Jan 09 2025 13:49:29 GMT-0600 (Central Standard Time),487950.6000000015,A,h,I,h,672,2,682.7000000029802,487267.8999999985,8008,WL,C,5.0
4,11.230000019073486,learn,48769.999980926514,Thu Jan 09 2025 13:49:29 GMT-0600 (Central Standard Time),488200.5,A,ho,I,o,228,2,932.6000000014901,487267.8999999985,8008,WL,C,5.0
4,11.396000146865845,learn,48603.999853134155,Thu Jan 09 2025 13:49:29 GMT-0600 (Central Standard Time),488367.19999999553,A,hom,I,m,154,2,1099.2999999970198,487267.8999999985,8008,WL,C,5.0
4,11.796000003814697,learn,48203.9999961853,Thu Jan 09 2025 13:49:29 GMT-0600 (Central Standard Time),488767.19999999553,A,home,I,e,380,2,1499.2999999970198,487267.8999999985,8008,WL,C,5.0
4,12.229000091552734,learn,47770.999908447266,Thu Jan 09 2025 13:49:29 GMT-0600 (Central Standard Time),489200.299999997,A,homeenter,I,enter,420,2,1932.3999999985099,487267.8999999985,8008,WL,C,5.0
4,12.828999996185303,learn,47171.0000038147,Thu Jan 09 2025 13:49:29 GMT-0600 (Central Standard Time),489800.19999999553,A,b,I,b,587,2,599.5999999940395,489200.6000000015,8008,WL,C,6.0
4,13.128999948501587,learn,46871.00005149841,Thu Jan 09 2025 13:49:29 GMT-0600 (Central Standard Time),490100.19999999553,A,bo,I,o,283,2,899.5999999940395,489200.6000000015,8008,WL,C,6.0
4,13.51200008392334,learn,46487.99991607666,Thu Jan 09 2025 13:49:29 GMT-0600 (Central Standard Time),490483.0,A,boy,I,y,375,2,1282.3999999985099,489200.6000000015,8008,WL,C,6.0
4,13.894999980926514,learn,46105.000019073486,Thu Jan 09 2025 13:49:29 GMT-0600 (Central Standard Time),490866.19999999553,A,boyenter,I,enter,369,2,1665.5999999940395,489200.6000000015,8008,WL,C,6.0
4,14.82800006866455,learn,45171.99993133545,Thu Jan 09 2025 13:49:29 GMT-0600 (Central Standard Time),491799.3999999985,A,q,I,q,913,2,932.7999999970198,490866.6000000015,8008,WL,C,7.0
4,15.062000036239624,learn,44937.999963760376,Thu Jan 09 2025 13:49:29 GMT-0600 (Central Standard Time),492032.6000000015,A,qu,I,u,212,2,1166.0,490866.6000000015,8008,WL,C,7.0
4,15.378000020980835,learn,44621.999979019165,Thu Jan 09 2025 13:49:29 GMT-0600 (Central Standard Time),492349.299999997,A,que,I,e,298,2,1482.6999999955297,490866.6000000015,8008,WL,C,7.0
4,15.545000076293945,learn,44454.999923706055,Thu Jan 09 2025 13:49:29 GMT-0600 (Central Standard Time),492515.8999999985,A,quee,I,e,150,2,1649.2999999970198,490866.6000000015,8008,WL,C,7.0
4,15.745000123977661,learn,44254.99987602234,Thu Jan 09 2025 13:49:29 GMT-0600 (Central Standard Time),492715.799999997,A,queen,I,n,191,2,1849.1999999955297,490866.6000000015,8008,WL,C,7.0
4,16.294000148773193,learn,43705.99985122681,Thu Jan 09 2025 13:49:29 GMT-0600 (Central Standard Time),493265.5,A,queenenter,I,enter,527,2,2398.89999999851,490866.6000000015,8008,WL,C,7.0
4,19.594000101089478,learn,40405.99989891052,Thu Jan 09 2025 13:49:29 GMT-0600 (Central Standard Time),496564.6000000015,A,n,I,n,3289,2,3298.8000000044703,493265.799999997,8008,WL,C,8.0
4,20.0770001411438,learn,39922.9998588562,Thu Jan 09 2025 13:49:29 GMT-0600 (Central Standard Time),497048.0,A,na,I,a,471,2,3782.2000000029802,493265.799999997,8008,WL,C,8.0
4,20.3270001411438,learn,39672.9998588562,Thu Jan 09 2025 13:49:29 GMT-0600 (Central Standard Time),497297.799999997,A,nai,I,i,235,2,4032.0,493265.799999997,8008,WL,C,8.0
4,20.7260000705719,learn,39273.9999294281,Thu Jan 09 2025 13:49:29 GMT-0600 (Central Standard Time),497697.3999999985,A,nail,I,l,386,2,4431.60000000149,493265.799999997,8008,WL,C,8.0
4,21.526000022888184,learn,38473.99997711182,Thu Jan 09 2025 13:49:29 GMT-0600 (Central Standard Time),498497.19999999553,A,nailenter,I,enter,785,2,5231.39999999851,493265.799999997,8008,WL,C,8.0
4,22.12600016593933,learn,37873.99983406067,Thu Jan 09 2025 13:49:29 GMT-0600 (Central Standard Time),499097.3999999985,A,c,I,c,586,2,599.8999999985099,498497.5,8008,WL,C,9.0
4,22.80900001525879,learn,37190.99998474121,Thu Jan 09 2025 13:49:29 GMT-0600 (Central Standard Time),499780.0,A,ca,I,a,666,2,1282.5,498497.5,8008,WL,C,9.0
4,23.14300012588501,learn,36856.99987411499,Thu Jan 09 2025 13:49:29 GMT-0600 (Central Standard Time),500113.6000000015,A,cam,I,m,310,2,1616.1000000014901,498497.5,8008,WL,C,9.0
4,23.45900011062622,learn,36540.99988937378,Thu Jan 09 2025 13:49:29 GMT-0600 (Central Standard Time),500430.1000000015,A,camp,I,p,305,2,1932.6000000014901,498497.5,8008,WL,C,9.0
4,24.02500009536743,learn,35974.99990463257,Thu Jan 09 2025 13:49:29 GMT-0600 (Central Standard Time),500996.3999999985,A,campenter,I,enter,557,2,2498.89999999851,498497.5,8008,WL,C,9.0
4,24.742000102996826,learn,35257.999897003174,Thu Jan 09 2025 13:49:29 GMT-0600 (Central Standard Time),501712.8999999985,A,d,I,d,695,2,716.1000000014901,500996.799999997,8008,WL,C,10.0
4,25.058000087738037,learn,34941.99991226196,Thu Jan 09 2025 13:49:29 GMT-0600 (Central Standard Time),502029.3999999985,A,do,I,o,306,2,1032.6000000014901,500996.799999997,8008,WL,C,10.0
4,25.424999952316284,learn,34575.000047683716,Thu Jan 09 2025 13:49:29 GMT-0600 (Central Standard Time),502396.0,A,doc,I,c,358,2,1399.2000000029802,500996.799999997,8008,WL,C,10.0
4,25.95799994468689,learn,34042.00005531311,Thu Jan 09 2025 13:49:29 GMT-0600 (Central Standard Time),502929.5,A,doct,I,t,519,2,1932.7000000029802,500996.799999997,8008,WL,C,10.0
4,26.29100012779236,learn,33708.99987220764,Thu Jan 09 2025 13:49:29 GMT-0600 (Central Standard Time),503262.3999999985,A,docto,I,o,322,2,2265.60000000149,500996.799999997,8008,WL,C,10.0
4,26.558000087738037,learn,33441.99991226196,Thu Jan 09 2025 13:49:29 GMT-0600 (Central Standard Time),503529.0,A,doctor,I,r,252,2,2532.2000000029802,500996.799999997,8008,WL,C,10.0
4,27.308000087738037,learn,32691.999912261963,Thu Jan 09 2025 13:49:29 GMT-0600 (Central Standard Time),504278.799999997,A,doctorenter,I,enter,738,2,3282.0,500996.799999997,8008,WL,C,10.0
4,30.457000017166138,learn,29542.999982833862,Thu Jan 09 2025 13:49:29 GMT-0600 (Central Standard Time),507428.0,A,l,I,l,3133,2,3149.0,504279.0,8008,WL,C,11.0
4,30.707000017166138,learn,29292.999982833862,Thu Jan 09 2025 13:49:29 GMT-0600 (Central Standard Time),507677.799999997,A,le,I,e,230,2,3398.7999999970198,504279.0,8008,WL,C,11.0
4,31.058000087738037,learn,28941.999912261963,Thu Jan 09 2025 13:49:29 GMT-0600 (Central Standard Time),508028.799999997,A,let,I,t,341,2,3749.7999999970198,504279.0,8008,WL,C,11.0
4,31.223000049591064,learn,28776.999950408936,Thu Jan 09 2025 13:49:29 GMT-0600 (Central Standard Time),508194.299999997,A,lett,I,t,158,2,3915.2999999970198,504279.0,8008,WL,C,11.0
4,31.75600004196167,learn,28243.99995803833,Thu Jan 09 2025 13:49:29 GMT-0600 (Central Standard Time),508727.3999999985,A,lette,I,e,512,2,4448.39999999851,504279.0,8008,WL,C,11.0
4,31.890000104904175,learn,28109.999895095825,Thu Jan 09 2025 13:49:29 GMT-0600 (Central Standard Time),508861.19999999553,A,letter,I,r,115,2,4582.19999999553,504279.0,8008,WL,C,11.0
4,32.223000049591064,learn,27776.999950408936,Thu Jan 09 2025 13:49:29 GMT-0600 (Central Standard Time),509193.8999999985,A,letterenter,I,enter,318,2,4914.89999999851,504279.0,8008,WL,C,11.0
4,33.13900017738342,learn,26860.999822616577,Thu Jan 09 2025 13:49:29 GMT-0600 (Central Standard Time),510110.299999997,A,f,I,f,905,2,916.1000000014901,509194.19999999553,8008,WL,C,12.0
4,33.4060001373291,learn,26593.9998626709,Thu Jan 09 2025 13:49:29 GMT-0600 (Central Standard Time),510377.0,A,fl,I,l,253,2,1182.8000000044703,509194.19999999553,8008,WL,C,12.0
4,34.43900012969971,learn,25560.999870300293,Thu Jan 09 2025 13:49:29 GMT-0600 (Central Standard Time),511410.0,A,fla,I,a,1018,2,2215.8000000044703,509194.19999999553,8008,WL,C,12.0
4,34.97200012207031,learn,25027.999877929688,Thu Jan 09 2025 13:49:29 GMT-0600 (Central Standard Time),511943.19999999553,A,flag,I,g,513,2,2749.0,509194.19999999553,8008,WL,C,12.0
4,36.17200016975403,learn,23827.99983024597,Thu Jan 09 2025 13:49:29 GMT-0600 (Central Standard Time),513142.8999999985,A,flagenter,I,enter,1188,2,3948.7000000029802,509194.19999999553,8008,WL,C,12.0
4,37.50500011444092,learn,22494.999885559082,Thu Jan 09 2025 13:49:29 GMT-0600 (Central Standard Time),514475.6000000015,A,q,I,q,1317,2,1332.4000000059605,513143.19999999553,8008,WL,C,13.0
4,37.78800010681152,learn,22211.999893188477,Thu Jan 09 2025 13:49:29 GMT-0600 (Central Standard Time),514758.8999999985,A,qu,I,u,264,2,1615.7000000029802,513143.19999999553,8008,WL,C,13.0
4,38.03800010681152,learn,21961.999893188477,Thu Jan 09 2025 13:49:29 GMT-0600 (Central Standard Time),515009.0,A,que,I,e,236,2,1865.8000000044703,513143.19999999553,8008,WL,C,13.0
4,38.2039999961853,learn,21796.000003814697,Thu Jan 09 2025 13:49:29 GMT-0600 (Central Standard Time),515175.299999997,A,quee,I,e,147,2,2032.1000000014901,513143.19999999553,8008,WL,C,13.0
4,38.38800001144409,learn,21611.99998855591,Thu Jan 09 2025 13:49:29 GMT-0600 (Central Standard Time),515358.69999999553,A,queen,I,n,164,2,2215.5,513143.19999999553,8008,WL,C,13.0
4,39.021000146865845,learn,20978.999853134155,Thu Jan 09 2025 13:49:29 GMT-0600 (Central Standard Time),515991.8999999985,A,queenenter,I,enter,613,2,2848.7000000029802,513143.19999999553,8008,WL,C,13.0
4,42.736000061035156,learn,17263.999938964844,Thu Jan 09 2025 13:49:29 GMT-0600 (Central Standard Time),519707.1000000015,A,s,I,s,3707,2,3714.9000000059605,515992.19999999553,8008,WL,C,14.0
4,42.91900014877319,learn,17080.999851226807,Thu Jan 09 2025 13:49:29 GMT-0600 (Central Standard Time),519890.5,A,su,I,u,176,2,3898.3000000044703,515992.19999999553,8008,WL,C,14.0
4,43.26900005340576,learn,16730.99994659424,Thu Jan 09 2025 13:49:29 GMT-0600 (Central Standard Time),520240.5,A,sug,I,g,337,2,4248.30000000447,515992.19999999553,8008,WL,C,14.0
4,43.753000020980835,learn,16246.999979019165,Thu Jan 09 2025 13:49:29 GMT-0600 (Central Standard Time),520723.69999999553,A,suga,I,a,475,2,4731.5,515992.19999999553,8008,WL,C,14.0
4,44.003000020980835,learn,15996.999979019165,Thu Jan 09 2025 13:49:29 GMT-0600 (Central Standard Time),520973.69999999553,A,sugar,I,r,232,2,4981.5,515992.19999999553,8008,WL,C,14.0
4,44.63600015640259,learn,15363.999843597412,Thu Jan 09 2025 13:49:29 GMT-0600 (Central Standard Time),521606.799999997,A,sugarenter,I,enter,621,2,5614.60000000149,515992.19999999553,8008,WL,C,14.0
4,46.43400001525879,learn,13565.999984741211,Thu Jan 09 2025 13:49:29 GMT-0600 (Central Standard Time),523406.19999999553,A,enter,I,enter,1788,2,1799.0999999940395,521607.1000000015,8008,WL,C,15.0
5,3.7660000324249268,learn,60000.0,Thu Jan 09 2025 13:49:29 GMT-0600 (Central Standard Time),594084.1999999955,A,t,I,t,3757,2,3765.5999999940395,590318.6000000015,8008,WL,C,1.0
5,4.181999921798706,learn,60000.0,Thu Jan 09 2025 13:49:29 GMT-0600 (Central Standard Time),594500.3999999985,A,to,I,o,406,2,4181.79999999702,590318.6000000015,8008,WL,C,1.0
5,4.482000112533569,learn,60000.0,Thu Jan 09 2025 13:49:29 GMT-0600 (Central Standard Time),594800.299999997,A,tow,I,w,286,2,4481.69999999553,590318.6000000015,8008,WL,C,1.0
5,4.799999952316284,learn,60000.0,Thu Jan 09 2025 13:49:29 GMT-0600 (Central Standard Time),595118.1999999955,A,towe,I,e,298,2,4799.5999999940395,590318.6000000015,8008,WL,C,1.0
5,5.131999969482422,learn,60000.0,Thu Jan 09 2025 13:49:29 GMT-0600 (Central Standard Time),595450.1000000015,A,tower,I,r,309,2,5131.5,590318.6000000015,8008,WL,C,1.0
5,5.398999929428101,learn,60000.0,Thu Jan 09 2025 13:49:29 GMT-0600 (Central Standard Time),595716.8999999985,A,towerenter,I,enter,257,2,5398.29999999702,590318.6000000015,8008,WL,C,1.0
5,5.947999954223633,learn,60000.0,Thu Jan 09 2025 13:49:29 GMT-0600 (Central Standard Time),596266.799999997,A,h,I,h,534,2,549.5,595717.299999997,8008,WL,C,2.0
5,6.248000144958496,learn,60000.0,Thu Jan 09 2025 13:49:29 GMT-0600 (Central Standard Time),596566.6999999955,A,ho,I,o,280,2,849.3999999985099,595717.299999997,8008,WL,C,2.0
5,6.447999954223633,learn,60000.0,Thu Jan 09 2025 13:49:29 GMT-0600 (Central Standard Time),596766.5,A,hom,I,m,189,2,1049.2000000029802,595717.299999997,8008,WL,C,2.0
5,6.748000144958496,learn,60000.0,Thu Jan 09 2025 13:49:29 GMT-0600 (Central Standard Time),597066.299999997,A,home,I,e,278,2,1349.0,595717.299999997,8008,WL,C,2.0
5,7.031000137329102,learn,60000.0,Thu Jan 09 2025 13:49:29 GMT-0600 (Central Standard Time),597349.6999999955,A,homeenter,I,enter,273,2,1632.3999999985099,595717.299999997,8008,WL,C,2.0
5,7.763999938964844,learn,60000.0,Thu Jan 09 2025 13:49:29 GMT-0600 (Central Standard Time),598082.6000000015,A,c,I,c,726,2,732.5,597350.1000000015,8008,WL,C,3.0
5,7.998000144958496,learn,60000.0,Thu Jan 09 2025 13:49:29 GMT-0600 (Central Standard Time),598315.799999997,A,ca,I,a,224,2,965.6999999955297,597350.1000000015,8008,WL,C,3.0
5,8.38100004196167,learn,60000.0,Thu Jan 09 2025 13:49:29 GMT-0600 (Central Standard Time),598699.1999999955,A,cat,I,t,367,2,1349.0999999940395,597350.1000000015,8008,WL,C,3.0
5,8.564000129699707,learn,60000.0,Thu Jan 09 2025 13:49:29 GMT-0600 (Central Standard Time),598882.6000000015,A,catt,I,t,168,2,1532.5,597350.1000000015,8008,WL,C,3.0
5,8.748000144958496,learn,60000.0,Thu Jan 09 2025 13:49:29 GMT-0600 (Central Standard Time),599065.8999999985,A,cattl,I,l,160,2,1715.7999999970198,597350.1000000015,8008,WL,C,3.0
5,9.013999938964844,learn,60000.0,Thu Jan 09 2025 13:49:29 GMT-0600 (Central Standard Time),599332.299999997,A,cattle,I,e,257,2,1982.1999999955297,597350.1000000015,8008,WL,C,3.0
5,9.647000074386597,learn,60000.0,Thu Jan 09 2025 13:49:29 GMT-0600 (Central Standard Time),599965.6999999955,A,cattleenter,I,enter,623,2,2615.5999999940395,597350.1000000015,8008,WL,C,3.0
5,10.364000082015991,learn,60000.0,Thu Jan 09 2025 13:49:29 GMT-0600 (Central Standard Time),600682.0,A,b,I,b,701,2,715.8999999985099,599966.1000000015,8008,WL,C,4.0
5,10.664000034332275,learn,60000.0,Thu Jan 09 2025 13:49:29 GMT-0600 (Central Standard Time),600981.8999999985,A,bo,I,o,281,2,1015.7999999970198,599966.1000000015,8008,WL,C,4.0
5,11.131999969482422,learn,60000.0,Thu Jan 09 2025 13:49:29 GMT-0600 (Central Standard Time),601450.6999999955,A,bod,I,d,453,2,1484.5999999940395,599966.1000000015,8008,WL,C,4.0
5,11.329999923706055,learn,60000.0,Thu Jan 09 2025 13:49:29 GMT-0600 (Central Standard Time),601648.299999997,A,body,I,y,176,2,1682.1999999955297,599966.1000000015,8008,WL,C,4.0
5,11.796000003814697,learn,60000.0,Thu Jan 09 2025 13:49:29 GMT-0600 (Central Standard Time),602114.6999999955,A,bodyenter,I,enter,459,2,2148.5999999940395,599966.1000000015,8008,WL,C,4.0
5,12.312999963760376,learn,60000.0,Thu Jan 09 2025 13:49:29 GMT-0600 (Central Standard Time),602631.299999997,A,s,I,s,497,2,516.3999999985099,602114.8999999985,8008,WL,C,5.0
5,12.546000003814697,learn,60000.0,Thu Jan 09 2025 13:49:29 GMT-0600 (Central Standard Time),602864.6999999955,A,su,I,u,212,2,749.7999999970198,602114.8999999985,8008,WL,C,5.0
5,12.86299991607666,learn,60000.0,Thu Jan 09 2025 13:49:29 GMT-0600 (Central Standard Time),603181.1000000015,A,sug,I,g,306,2,1066.2000000029802,602114.8999999985,8008,WL,C,5.0
5,13.163000106811523,learn,60000.0,Thu Jan 09 2025 13:49:29 GMT-0600 (Central Standard Time),603481.1999999955,A,suga,I,a,279,2,1366.2999999970198,602114.8999999985,8008,WL,C,5.0
5,13.546000003814697,learn,60000.0,Thu Jan 09 2025 13:49:29 GMT-0600 (Central Standard Time),603864.299999997,A,sugar,I,r,363,2,1749.3999999985099,602114.8999999985,8008,WL,C,5.0
5,13.828999996185303,learn,60000.0,Thu Jan 09 2025 13:49:29 GMT-0600 (Central Standard Time),604147.6000000015,A,sugarenter,I,enter,267,2,2032.7000000029802,602114.8999999985,8008,WL,C,5.0
5,14.411999940872192,learn,60000.0,Thu Jan 09 2025 13:49:29 GMT-0600 (Central Standard Time),604730.5,A,f,I,f,568,2,582.6000000014901,604147.8999999985,8008,WL,C,6.0
5,14.746000051498413,learn,60000.0,Thu Jan 09 2025 13:49:29 GMT-0600 (Central Standard Time),605064.0,A,fl,I,l,312,2,916.1000000014901,604147.8999999985,8008,WL,C,6.0
5,15.11299991607666,learn,60000.0,Thu Jan 09 2025 13:49:29 GMT-0600 (Central Standard Time),605430.799999997,A,fla,I,a,346,2,1282.8999999985099,604147.8999999985,8008,WL,C,6.0
5,15.644999980926514,learn,60000.0,Thu Jan 09 2025 13:49:29 GMT-0600 (Central Standard Time),605963.6999999955,A,flag,I,g,516,2,1815.7999999970198,604147.8999999985,8008,WL,C,6.0
5,15.979000091552734,learn,60000.0,Thu Jan 09 2025 13:49:29 GMT-0600 (Central Standard Time),606296.8999999985,A,flagenter,I,enter,311,2,2149.0,604147.8999999985,8008,WL,C,6.0
5,17.82800006866455,learn,60000.0,Thu Jan 09 2025 13:49:29 GMT-0600 (Central Standard Time),608146.3999999985,A,d,I,d,1835,2,1849.2999999970198,606297.1000000015,8008,WL,C,7.0
5,18.16100001335144,learn,60000.0,Thu Jan 09 2025 13:49:29 GMT-0600 (Central Standard Time),608479.3999999985,A,do,I,o,312,2,2182.2999999970198,606297.1000000015,8008,WL,C,7.0
5,18.528000116348267,learn,60000.0,Thu Jan 09 2025 13:49:29 GMT-0600 (Central Standard Time),608846.299999997,A,doc,I,c,356,2,2549.1999999955297,606297.1000000015,8008,WL,C,7.0
5,18.99399995803833,learn,60000.0,Thu Jan 09 2025 13:49:29 GMT-0600 (Central Standard Time),609312.6000000015,A,doct,I,t,452,2,3015.5,606297.1000000015,8008,WL,C,7.0
5,19.294000148773193,learn,60000.0,Thu Jan 09 2025 13:49:29 GMT-0600 (Central Standard Time),609612.5,A,docto,I,o,290,2,3315.39999999851,606297.1000000015,8008,WL,C,7.0
5,19.561000108718872,learn,60000.0,Thu Jan 09 2025 13:49:29 GMT-0600 (Central Standard Time),609879.299999997,A,doctor,I,r,255,2,3582.1999999955297,606297.1000000015,8008,WL,C,7.0
5,20.044000148773193,learn,60000.0,Thu Jan 09 2025 13:49:29 GMT-0600 (Central Standard Time),610362.1000000015,A,doctorenter,I,enter,476,2,4065.0,606297.1000000015,8008,WL,C,7.0
5,20.74399995803833,learn,60000.0,Thu Jan 09 2025 13:49:29 GMT-0600 (Central Standard Time),611062.1000000015,A,n,I,n,690,2,699.7000000029802,610362.3999999985,8008,WL,C,8.0
5,21.05999994277954,learn,60000.0,Thu Jan 09 2025 13:49:29 GMT-0600 (Central Standard Time),611378.6000000015,A,na,I,a,309,2,1016.2000000029802,610362.3999999985,8008,WL,C,8.0
5,21.30999994277954,learn,60000.0,Thu Jan 09 2025 13:49:29 GMT-0600 (Central Standard Time),611628.6000000015,A,nai,I,i,232,2,1266.2000000029802,610362.3999999985,8008,WL,C,8.0
5,21.72699999809265,learn,60000.0,Thu Jan 09 2025 13:49:29 GMT-0600 (Central Standard Time),612045.1000000015,A,nail,I,l,407,2,1682.7000000029802,610362.3999999985,8008,WL,C,8.0
5,22.16000008583069,learn,60000.0,Thu Jan 09 2025 13:49:29 GMT-0600 (Central Standard Time),612478.5,A,nailenter,I,enter,413,2,2116.10000000149,610362.3999999985,8008,WL,C,8.0
5,22.710000038146973,learn,60000.0,Thu Jan 09 2025 13:49:29 GMT-0600 (Central Standard Time),613028.1000000015,A,w,I,w,533,2,549.3000000044703,612478.799999997,8008,WL,C,9.0
5,22.927000045776367,learn,60000.0,Thu Jan 09 2025 13:49:29 GMT-0600 (Central Standard Time),613244.799999997,A,wh,I,h,207,2,766.0,612478.799999997,8008,WL,C,9.0
5,23.193000078201294,learn,60000.0,Thu Jan 09 2025 13:49:29 GMT-0600 (Central Standard Time),613511.1000000015,A,whe,I,e,246,2,1032.3000000044703,612478.799999997,8008,WL,C,9.0
5,23.710000038146973,learn,60000.0,Thu Jan 09 2025 13:49:29 GMT-0600 (Central Standard Time),614027.8999999985,A,whea,I,a,500,2,1549.1000000014901,612478.799999997,8008,WL,C,9.0
5,23.943000078201294,learn,60000.0,Thu Jan 09 2025 13:49:29 GMT-0600 (Central Standard Time),614261.3999999985,A,wheat,I,t,215,2,1782.6000000014901,612478.799999997,8008,WL,C,9.0
5,24.55900001525879,learn,60000.0,Thu Jan 09 2025 13:49:29 GMT-0600 (Central Standard Time),614877.3999999985,A,wheatenter,I,enter,597,2,2398.60000000149,612478.799999997,8008,WL,C,9.0
5,25.158999919891357,learn,60000.0,Thu Jan 09 2025 13:49:29 GMT-0600 (Central Standard Time),615477.1999999955,A,c,I,c,582,2,599.5,614877.6999999955,8008,WL,C,10.0
5,25.408999919891357,learn,60000.0,Thu Jan 09 2025 13:49:29 GMT-0600 (Central Standard Time),615727.5,A,co,I,o,230,2,849.8000000044703,614877.6999999955,8008,WL,C,10.0
5,25.825999975204468,learn,60000.0,Thu Jan 09 2025 13:49:29 GMT-0600 (Central Standard Time),616144.1000000015,A,cor,I,r,395,2,1266.4000000059605,614877.6999999955,8008,WL,C,10.0
5,26.05900001525879,learn,60000.0,Thu Jan 09 2025 13:49:29 GMT-0600 (Central Standard Time),616377.1000000015,A,corn,I,n,219,2,1499.4000000059605,614877.6999999955,8008,WL,C,10.0
5,26.658999919891357,learn,60000.0,Thu Jan 09 2025 13:49:29 GMT-0600 (Central Standard Time),616976.8999999985,A,cornenter,I,enter,578,2,2099.2000000029802,614877.6999999955,8008,WL,C,10.0
5,31.740000009536743,learn,60000.0,Thu Jan 09 2025 13:49:29 GMT-0600 (Central Standard Time),622058.3999999985,A,q,I,q,5074,2,5081.10000000149,616977.299999997,8008,WL,C,11.0
5,32.12400007247925,learn,60000.0,Thu Jan 09 2025 13:49:29 GMT-0600 (Central Standard Time),622441.799999997,A,qu,I,u,368,2,5464.5,616977.299999997,8008,WL,C,11.0
5,32.49000000953674,learn,60000.0,Thu Jan 09 2025 13:49:29 GMT-0600 (Central Standard Time),622808.299999997,A,que,I,e,353,2,5831.0,616977.299999997,8008,WL,C,11.0
5,32.67300009727478,learn,60000.0,Thu Jan 09 2025 13:49:29 GMT-0600 (Central Standard Time),622991.5,A,quee,I,e,163,2,6014.20000000298,616977.299999997,8008,WL,C,11.0
5,32.90700006484985,learn,60000.0,Thu Jan 09 2025 13:49:29 GMT-0600 (Central Standard Time),623225.0,A,queen,I,n,212,2,6247.70000000298,616977.299999997,8008,WL,C,11.0
5,33.4060001373291,learn,60000.0,Thu Jan 09 2025 13:49:29 GMT-0600 (Central Standard Time),623724.6999999955,A,queenenter,I,enter,490,2,6747.39999999851,616977.299999997,8008,WL,C,11.0
5,34.68900012969971,learn,60000.0,Thu Jan 09 2025 13:49:29 GMT-0600 (Central Standard Time),625007.6000000015,A,h,I,h,1271,2,1282.6000000014901,623725.0,8008,WL,C,12.0
5,35.02300000190735,learn,60000.0,Thu Jan 09 2025 13:49:29 GMT-0600 (Central Standard Time),625341.1000000015,A,ho,I,o,323,2,1616.1000000014901,623725.0,8008,WL,C,12.0
5,35.27300000190735,learn,60000.0,Thu Jan 09 2025 13:49:29 GMT-0600 (Central Standard Time),625591.0,A,hom,I,m,238,2,1866.0,623725.0,8008,WL,C,12.0
5,35.623000144958496,learn,60000.0,Thu Jan 09 2025 13:49:29 GMT-0600 (Central Standard Time),625940.8999999985,A,home,I,e,340,2,2215.89999999851,623725.0,8008,WL,C,12.0
5,36.00600004196167,learn,60000.0,Thu Jan 09 2025 13:49:29 GMT-0600 (Central Standard Time),626323.8999999985,A,homeenter,I,enter,366,2,2598.89999999851,623725.0,8008,WL,C,12.0
5,37.42199993133545,learn,60000.0,Thu Jan 09 2025 13:49:29 GMT-0600 (Central Standard Time),627740.1999999955,A,b,I,b,1400,2,1415.8999999985099,626324.299999997,8008,WL,C,13.0
5,38.0220000743866,learn,60000.0,Thu Jan 09 2025 13:49:29 GMT-0600 (Central Standard Time),628340.0,A,bo,I,o,583,2,2015.7000000029802,626324.299999997,8008,WL,C,13.0
5,38.5550000667572,learn,60000.0,Thu Jan 09 2025 13:49:29 GMT-0600 (Central Standard Time),628873.1999999955,A,boy,I,y,511,2,2548.89999999851,626324.299999997,8008,WL,C,13.0
5,39.15499997138977,learn,60000.0,Thu Jan 09 2025 13:49:29 GMT-0600 (Central Standard Time),629473.1000000015,A,boyenter,I,enter,586,2,3148.8000000044703,626324.299999997,8008,WL,C,13.0
5,48.236000061035156,learn,60000.0,Thu Jan 09 2025 13:49:29 GMT-0600 (Central Standard Time),638554.6999999955,A,s,I,s,9066,2,9081.19999999553,629473.5,8008,WL,C,14.0
5,48.4520001411438,learn,60000.0,Thu Jan 09 2025 13:49:29 GMT-0600 (Central Standard Time),638769.8999999985,A,sh,I,h,192,2,9296.39999999851,629473.5,8008,WL,C,14.0
5,48.86800003051758,learn,60000.0,Thu Jan 09 2025 13:49:29 GMT-0600 (Central Standard Time),639186.6999999955,A,sho,I,o,393,2,9713.19999999553,629473.5,8008,WL,C,14.0
5,49.151999950408936,learn,60000.0,Thu Jan 09 2025 13:49:29 GMT-0600 (Central Standard Time),639470.0,A,shor,I,r,273,2,9996.5,629473.5,8008,WL,C,14.0
5,49.35199999809265,learn,60000.0,Thu Jan 09 2025 13:49:29 GMT-0600 (Central Standard Time),639669.799999997,A,shore,I,e,181,2,10196.29999999702,629473.5,8008,WL,C,14.0
5,49.66799998283386,learn,60000.0,Thu Jan 09 2025 13:49:29 GMT-0600 (Central Standard Time),639986.299999997,A,shoreenter,I,enter,301,2,10512.79999999702,629473.5,8008,WL,C,14.0
5,51.1010000705719,learn,60000.0,Thu Jan 09 2025 13:49:29 GMT-0600 (Central Standard Time),641419.1999999955,A,b,I,b,1416,2,1432.5,639986.6999999955,8008,WL,C,15.0
5,52.06700015068054,learn,60000.0,Thu Jan 09 2025 13:49:29 GMT-0600 (Central Standard Time),642385.6000000015,A,bo,I,o,951,2,2398.9000000059605,639986.6999999955,8008,WL,C,15.0
5,52.48399996757507,learn,60000.0,Thu Jan 09 2025 13:49:29 GMT-0600 (Central Standard Time),642802.1999999955,A,bod,I,d,402,2,2815.5,639986.6999999955,8008,WL,C,15.0
5,52.68400001525879,learn,60000.0,Thu Jan 09 2025 13:49:29 GMT-0600 (Central Standard Time),643001.8999999985,A,body,I,y,185,2,3015.2000000029802,639986.6999999955,8008,WL,C,15.0
5,53.13300013542175,learn,60000.0,Thu Jan 09 2025 13:49:29 GMT-0600 (Central Standard Time),643452.0,A,bodyenter,I,enter,434,2,3465.3000000044703,639986.6999999955,8008,WL,C,15.0
6,2.2660000324249268,distr,57733.99996757507,Thu Jan 09 2025 13:49:29 GMT-0600 (Central Standard Time),712647.1000000015,B,h,I,h,2255,2,2265.8000000044703,710381.299999997,8008,WL,C,1.0
6,2.75,distr,57250.0,Thu Jan 09 2025 13:49:29 GMT-0600 (Central Standard Time),713130.299999997,B,ho,I,o,467,2,2749.0,710381.299999997,8008,WL,C,1.0
6,3.2829999923706055,distr,56717.000007629395,Thu Jan 09 2025 13:49:29 GMT-0600 (Central Standard Time),713663.299999997,B,hot,I,t,521,2,3282.0,710381.299999997,8008,WL,C,1.0
6,3.683000087738037,distr,56316.99991226196,Thu Jan 09 2025 13:49:29 GMT-0600 (Central Standard Time),714063.1999999955,B,hote,I,e,388,2,3681.89999999851,710381.299999997,8008,WL,C,1.0
6,4.182000160217285,distr,55817.999839782715,Thu Jan 09 2025 13:49:29 GMT-0600 (Central Standard Time),714562.799999997,B,hotel,I,l,492,2,4181.5,710381.299999997,8008,WL,C,1.0
6,4.882000207901001,distr,55117.999792099,Thu Jan 09 2025 13:49:29 GMT-0600 (Central Standard Time),715262.6999999955,B,hotelenter,I,enter,687,2,4881.39999999851,710381.299999997,8008,WL,C,1.0
6,5.5320000648498535,distr,54467.99993515015,Thu Jan 09 2025 13:49:29 GMT-0600 (Central Standard Time),715912.799999997,B,m,I,m,636,2,649.6999999955297,715263.1000000015,8008,WL,C,2.0
6,6.065000057220459,distr,53934.99994277954,Thu Jan 09 2025 13:49:29 GMT-0600 (Central Standard Time),716445.6999999955,B,mo,I,o,514,2,1182.5999999940395,715263.1000000015,8008,WL,C,2.0
6,6.498000144958496,distr,53501.999855041504,Thu Jan 09 2025 13:49:29 GMT-0600 (Central Standard Time),716879.0,B,mot,I,t,422,2,1615.8999999985099,715263.1000000015,8008,WL,C,2.0
6,6.765000104904175,distr,53234.999895095825,Thu Jan 09 2025 13:49:29 GMT-0600 (Central Standard Time),717145.5,B,moth,I,h,252,2,1882.3999999985099,715263.1000000015,8008,WL,C,2.0
6,7.0980000495910645,distr,52901.999950408936,Thu Jan 09 2025 13:49:29 GMT-0600 (Central Standard Time),717478.6000000015,B,mothe,I,e,314,2,2215.5,715263.1000000015,8008,WL,C,2.0
6,7.281000137329102,distr,52718.9998626709,Thu Jan 09 2025 13:49:29 GMT-0600 (Central Standard Time),717662.0,B,mother,I,r,172,2,2398.89999999851,715263.1000000015,8008,WL,C,2.0
6,7.664000034332275,distr,52335.999965667725,Thu Jan 09 2025 13:49:29 GMT-0600 (Central Standard Time),718045.1999999955,B,motherenter,I,enter,373,2,2782.0999999940395,715263.1000000015,8008,WL,C,2.0
6,8.198000192642212,distr,51801.99980735779,Thu Jan 09 2025 13:49:29 GMT-0600 (Central Standard Time),718578.799999997,B,c,I,c,510,2,533.1999999955297,718045.6000000015,8008,WL,C,3.0
6,8.705000162124634,distr,51294.999837875366,Thu Jan 09 2025 13:49:29 GMT-0600 (Central Standard Time),719085.8999999985,B,ch,I,h,353,2,1040.2999999970198,718045.6000000015,8008,WL,C,3.0
6,8.765000104904175,distr,51234.999895095825,Thu Jan 09 2025 13:49:29 GMT-0600 (Central Standard Time),719146.1000000015,B,chr,I,r,53,2,1100.5,718045.6000000015,8008,WL,C,3.0
6,8.998000144958496,distr,51001.999855041504,Thu Jan 09 2025 13:49:29 GMT-0600 (Central Standard Time),719378.1999999955,B,chri,I,i,215,2,1332.5999999940395,718045.6000000015,8008,WL,C,3.0
6,9.364000082015991,distr,50635.99991798401,Thu Jan 09 2025 13:49:29 GMT-0600 (Central Standard Time),719744.8999999985,B,chris,I,s,353,2,1699.2999999970198,718045.6000000015,8008,WL,C,3.0
6,9.71399998664856,distr,50286.00001335144,Thu Jan 09 2025 13:49:29 GMT-0600 (Central Standard Time),720094.5,B,christ,I,t,338,2,2048.89999999851,718045.6000000015,8008,WL,C,3.0
6,10.03000020980835,distr,49969.99979019165,Thu Jan 09 2025 13:49:29 GMT-0600 (Central Standard Time),720411.0,B,christm,I,m,308,2,2365.39999999851,718045.6000000015,8008,WL,C,3.0
6,10.480000019073486,distr,49519.999980926514,Thu Jan 09 2025 13:49:29 GMT-0600 (Central Standard Time),720861.0,B,christma,I,a,432,2,2815.39999999851,718045.6000000015,8008,WL,C,3.0
6,10.680000066757202,distr,49319.9999332428,Thu Jan 09 2025 13:49:29 GMT-0600 (Central Standard Time),721060.799999997,B,christmas,I,s,190,2,3015.1999999955297,718045.6000000015,8008,WL,C,3.0
6,10.996999979019165,distr,49003.000020980835,Thu Jan 09 2025 13:49:29 GMT-0600 (Central Standard Time),721377.5,B,christmasenter,I,enter,295,2,3331.89999999851,718045.6000000015,8008,WL,C,3.0
6,11.496999979019165,distr,48503.000020980835,Thu Jan 09 2025 13:49:29 GMT-0600 (Central Standard Time),721877.1999999955,B,w,I,w,490,2,499.5,721377.6999999955,8008,WL,C,4.0
6,11.781000137329102,distr,48218.9998626709,Thu Jan 09 2025 13:49:29 GMT-0600 (Central Standard Time),722162.0,B,wi,I,i,262,2,784.3000000044703,721377.6999999955,8008,WL,C,4.0
6,12.013000011444092,distr,47986.99998855591,Thu Jan 09 2025 13:49:29 GMT-0600 (Central Standard Time),722393.8999999985,B,win,I,n,209,2,1016.2000000029802,721377.6999999955,8008,WL,C,4.0
6,12.330000162124634,distr,47669.999837875366,Thu Jan 09 2025 13:49:29 GMT-0600 (Central Standard Time),722710.6999999955,B,wint,I,t,297,2,1333.0,721377.6999999955,8008,WL,C,4.0
6,12.614000082015991,distr,47385.99991798401,Thu Jan 09 2025 13:49:29 GMT-0600 (Central Standard Time),722994.8999999985,B,winte,I,e,268,2,1617.2000000029802,721377.6999999955,8008,WL,C,4.0
6,12.763000011444092,distr,47236.99998855591,Thu Jan 09 2025 13:49:29 GMT-0600 (Central Standard Time),723143.5,B,winter,I,r,128,2,1765.8000000044703,721377.6999999955,8008,WL,C,4.0
6,13.09600019454956,distr,46903.99980545044,Thu Jan 09 2025 13:49:29 GMT-0600 (Central Standard Time),723477.0,B,winterenter,I,enter,316,2,2099.3000000044703,721377.6999999955,8008,WL,C,4.0
6,13.696000099182129,distr,46303.99990081787,Thu Jan 09 2025 13:49:29 GMT-0600 (Central Standard Time),724076.6999999955,B,m,I,m,590,2,599.2999999970198,723477.3999999985,8008,WL,C,5.0
6,13.979000091552734,distr,46020.999908447266,Thu Jan 09 2025 13:49:29 GMT-0600 (Central Standard Time),724360.1000000015,B,me,I,e,263,2,882.7000000029802,723477.3999999985,8008,WL,C,5.0
6,14.663000106811523,distr,45336.99989318848,Thu Jan 09 2025 13:49:29 GMT-0600 (Central Standard Time),725044.1000000015,B,mea,I,a,675,2,1566.7000000029802,723477.3999999985,8008,WL,C,5.0
6,14.946000099182129,distr,45053.99990081787,Thu Jan 09 2025 13:49:29 GMT-0600 (Central Standard Time),725326.299999997,B,meat,I,t,263,2,1848.8999999985099,723477.3999999985,8008,WL,C,5.0
6,15.82800006866455,distr,44171.99993133545,Thu Jan 09 2025 13:49:29 GMT-0600 (Central Standard Time),726209.1000000015,B,meatenter,I,enter,860,2,2731.7000000029802,723477.3999999985,8008,WL,C,5.0
6,30.091000080108643,distr,29908.999919891357,Thu Jan 09 2025 13:49:29 GMT-0600 (Central Standard Time),740471.299999997,B,b,I,b,14241,2,14261.79999999702,726209.5,8008,WL,C,6.0
6,30.324000120162964,distr,29675.999879837036,Thu Jan 09 2025 13:49:29 GMT-0600 (Central Standard Time),740704.8999999985,B,bu,I,u,218,2,14495.39999999851,726209.5,8008,WL,C,6.0
6,30.60700011253357,distr,29392.99988746643,Thu Jan 09 2025 13:49:29 GMT-0600 (Central Standard Time),740987.6999999955,B,but,I,t,274,2,14778.19999999553,726209.5,8008,WL,C,6.0
6,30.790000200271606,distr,29209.999799728394,Thu Jan 09 2025 13:49:29 GMT-0600 (Central Standard Time),741171.0,B,butt,I,t,168,2,14961.5,726209.5,8008,WL,C,6.0
6,31.174000024795532,distr,28825.999975204468,Thu Jan 09 2025 13:49:29 GMT-0600 (Central Standard Time),741554.1999999955,B,butte,I,e,360,2,15344.69999999553,726209.5,8008,WL,C,6.0
6,31.77400016784668,distr,28225.99983215332,Thu Jan 09 2025 13:49:29 GMT-0600 (Central Standard Time),742154.1999999955,B,butter,I,r,576,2,15944.69999999553,726209.5,8008,WL,C,6.0
6,34.00600004196167,distr,25993.99995803833,Thu Jan 09 2025 13:49:29 GMT-0600 (Central Standard Time),744387.1000000015,B,butterenter,I,enter,2217,2,18177.60000000149,726209.5,8008,WL,C,6.0
6,37.121999979019165,distr,22878.000020980835,Thu Jan 09 2025 13:49:29 GMT-0600 (Central Standard Time),747502.6999999955,B,h,I,h,3104,2,3115.1999999955297,744387.5,8008,WL,C,7.0
6,37.58899998664856,distr,22411.00001335144,Thu Jan 09 2025 13:49:29 GMT-0600 (Central Standard Time),747969.299999997,B,ha,I,a,452,2,3581.7999999970198,744387.5,8008,WL,C,7.0
6,38.15500020980835,distr,21844.99979019165,Thu Jan 09 2025 13:49:29 GMT-0600 (Central Standard Time),748535.6000000015,B,hal,I,l,554,2,4148.10000000149,744387.5,8008,WL,C,7.0
6,38.38900017738342,distr,21610.999822616577,Thu Jan 09 2025 13:49:29 GMT-0600 (Central Standard Time),748769.1999999955,B,hall,I,l,212,2,4381.69999999553,744387.5,8008,WL,C,7.0
6,39.6710000038147,distr,20328.999996185303,Thu Jan 09 2025 13:49:29 GMT-0600 (Central Standard Time),750051.8999999985,B,hallenter,I,enter,1266,2,5664.39999999851,744387.5,8008,WL,C,7.0
6,47.10199999809265,distr,12898.000001907349,Thu Jan 09 2025 13:49:29 GMT-0600 (Central Standard Time),757483.0,B,enter,I,enter,7415,2,7430.70000000298,750052.299999997,8008,WL,C,8.0
6,47.51900005340576,distr,12480.999946594238,Thu Jan 09 2025 13:49:29 GMT-0600 (Central Standard Time),757899.299999997,B,enter,I,enter,400,2,416.0,757483.299999997,8008,WL,C,9.0
6,47.80200004577637,distr,12197.999954223633,Thu Jan 09 2025 13:49:29 GMT-0600 (Central Standard Time),758182.6000000015,B,enter,I,enter,272,2,282.90000000596046,757899.6999999955,8008,WL,C,10.0
6,48.01900005340576,distr,11980.999946594238,Thu Jan 09 2025 13:49:29 GMT-0600 (Central Standard Time),758399.299999997,B,enter,I,enter,197,2,216.39999999850988,758182.8999999985,8008,WL,C,11.0
6,48.16799998283386,distr,11832.000017166138,Thu Jan 09 2025 13:49:29 GMT-0600 (Central Standard Time),758549.1000000015,B,enter,I,enter,141,2,149.40000000596046,758399.6999999955,8008,WL,C,12.0
6,48.568000078201294,distr,11431.999921798706,Thu Jan 09 2025 13:49:29 GMT-0600 (Central Standard Time),758949.1000000015,B,enter,I,enter,390,2,399.6000000014901,758549.5,8008,WL,C,13.0
6,48.9520001411438,distr,11047.999858856201,Thu Jan 09 2025 13:49:29 GMT-0600 (Central Standard Time),759332.299999997,B,enter,I,enter,374,2,382.8999999985099,758949.3999999985,8008,WL,C,14.0
6,49.38499999046326,distr,10615.000009536743,Thu Jan 09 2025 13:49:29 GMT-0600 (Central Standard Time),759765.5,B,enter,I,enter,415,2,432.80000000447035,759332.6999999955,8008,WL,C,15.0
7,1.9490001201629639,immed,58050.999879837036,Thu Jan 09 2025 13:49:29 GMT-0600 (Central Standard Time),776893.299999997,A,c,I,c,1932,2,1948.8999999985099,774944.3999999985,8008,WL,C,1.0
7,2.2660000324249268,immed,57733.99996757507,Thu Jan 09 2025 13:49:29 GMT-0600 (Central Standard Time),777210.1000000015,A,co,I,o,293,2,2265.7000000029802,774944.3999999985,8008,WL,C,1.0
7,2.633000135421753,immed,57366.99986457825,Thu Jan 09 2025 13:49:29 GMT-0600 (Central Standard Time),777576.6999999955,A,cor,I,r,353,2,2632.2999999970198,774944.3999999985,8008,WL,C,1.0
7,2.865999937057495,immed,57134.000062942505,Thu Jan 09 2025 13:49:29 GMT-0600 (Central Standard Time),777810.0,A,corn,I,n,211,2,2865.60000000149,774944.3999999985,8008,WL,C,1.0
7,3.381999969482422,immed,56618.00003051758,Thu Jan 09 2025 13:49:29 GMT-0600 (Central Standard Time),778326.299999997,A,cornenter,I,enter,505,2,3381.89999999851,774944.3999999985,8008,WL,C,1.0
7,3.998000144958496,immed,56001.999855041504,Thu Jan 09 2025 13:49:29 GMT-0600 (Central Standard Time),778942.3999999985,A,h,I,h,605,2,615.7999999970198,778326.6000000015,8008,WL,C,2.0
7,4.432000160217285,immed,55567.999839782715,Thu Jan 09 2025 13:49:29 GMT-0600 (Central Standard Time),779376.1000000015,A,ho,I,o,422,2,1049.5,778326.6000000015,8008,WL,C,2.0
7,4.7820000648498535,immed,55217.99993515015,Thu Jan 09 2025 13:49:29 GMT-0600 (Central Standard Time),779726.0,A,hom,I,m,332,2,1399.3999999985099,778326.6000000015,8008,WL,C,2.0
7,5.164999961853027,immed,54835.00003814697,Thu Jan 09 2025 13:49:29 GMT-0600 (Central Standard Time),780109.1999999955,A,home,I,e,365,2,1782.5999999940395,778326.6000000015,8008,WL,C,2.0
7,5.498000144958496,immed,54501.999855041504,Thu Jan 09 2025 13:49:29 GMT-0600 (Central Standard Time),780442.299999997,A,homeenter,I,enter,326,2,2115.6999999955297,778326.6000000015,8008,WL,C,2.0
7,6.115000009536743,immed,53884.99999046326,Thu Jan 09 2025 13:49:29 GMT-0600 (Central Standard Time),781058.6000000015,A,s,I,s,609,2,616.0,780442.6000000015,8008,WL,C,3.0
7,6.3480000495910645,immed,53651.999950408936,Thu Jan 09 2025 13:49:29 GMT-0600 (Central Standard Time),781292.0,A,sh,I,h,225,2,849.3999999985099,780442.6000000015,8008,WL,C,3.0
7,6.715000152587891,immed,53284.99984741211,Thu Jan 09 2025 13:49:29 GMT-0600 (Central Standard Time),781658.6000000015,A,sho,I,o,351,2,1216.0,780442.6000000015,8008,WL,C,3.0
7,7.04800009727478,immed,52951.99990272522,Thu Jan 09 2025 13:49:29 GMT-0600 (Central Standard Time),781992.0,A,shor,I,r,313,2,1549.3999999985099,780442.6000000015,8008,WL,C,3.0
7,7.215000152587891,immed,52784.99984741211,Thu Jan 09 2025 13:49:29 GMT-0600 (Central Standard Time),782158.5,A,shore,I,e,156,2,1715.8999999985099,780442.6000000015,8008,WL,C,3.0
7,7.447999954223633,immed,52552.00004577637,Thu Jan 09 2025 13:49:29 GMT-0600 (Central Standard Time),782391.8999999985,A,shoreenter,I,enter,221,2,1949.2999999970198,780442.6000000015,8008,WL,C,3.0
7,7.980999946594238,immed,52019.00005340576,Thu Jan 09 2025 13:49:29 GMT-0600 (Central Standard Time),782925.0,A,l,I,l,516,2,532.8000000044703,782392.1999999955,8008,WL,C,4.0
7,8.29800009727478,immed,51701.99990272522,Thu Jan 09 2025 13:49:29 GMT-0600 (Central Standard Time),783241.5,A,le,I,e,294,2,849.3000000044703,782392.1999999955,8008,WL,C,4.0
7,8.564000129699707,immed,51435.99987030029,Thu Jan 09 2025 13:49:29 GMT-0600 (Central Standard Time),783508.1999999955,A,let,I,t,258,2,1116.0,782392.1999999955,8008,WL,C,4.0
7,8.730999946594238,immed,51269.00005340576,Thu Jan 09 2025 13:49:29 GMT-0600 (Central Standard Time),783674.6999999955,A,lett,I,t,152,2,1282.5,782392.1999999955,8008,WL,C,4.0
7,8.980999946594238,immed,51019.00005340576,Thu Jan 09 2025 13:49:29 GMT-0600 (Central Standard Time),783924.5,A,lette,I,e,240,2,1532.3000000044703,782392.1999999955,8008,WL,C,4.0
7,9.13100004196167,immed,50868.99995803833,Thu Jan 09 2025 13:49:29 GMT-0600 (Central Standard Time),784074.5,A,letter,I,r,134,2,1682.3000000044703,782392.1999999955,8008,WL,C,4.0
7,9.430000066757202,immed,50569.9999332428,Thu Jan 09 2025 13:49:29 GMT-0600 (Central Standard Time),784374.299999997,A,letterenter,I,enter,288,2,1982.1000000014901,782392.1999999955,8008,WL,C,4.0
7,10.430000066757202,immed,49569.9999332428,Thu Jan 09 2025 13:49:29 GMT-0600 (Central Standard Time),785374.1000000015,A,f,I,f,989,2,999.5,784374.6000000015,8008,WL,C,5.0
7,10.630000114440918,immed,49369.99988555908,Thu Jan 09 2025 13:49:29 GMT-0600 (Central Standard Time),785574.3999999985,A,fl,I,l,189,2,1199.7999999970198,784374.6000000015,8008,WL,C,5.0
7,11.080000162124634,immed,48919.999837875366,Thu Jan 09 2025 13:49:29 GMT-0600 (Central Standard Time),786024.1000000015,A,fla,I,a,437,2,1649.5,784374.6000000015,8008,WL,C,5.0
7,11.496999979019165,immed,48503.000020980835,Thu Jan 09 2025 13:49:29 GMT-0600 (Central Standard Time),786440.5,A,flag,I,g,403,2,2065.89999999851,784374.6000000015,8008,WL,C,5.0
7,11.746000051498413,immed,48253.99994850159,Thu Jan 09 2025 13:49:29 GMT-0600 (Central Standard Time),786690.299999997,A,flagenter,I,enter,234,2,2315.6999999955297,784374.6000000015,8008,WL,C,5.0
7,12.330000162124634,immed,47669.999837875366,Thu Jan 09 2025 13:49:29 GMT-0600 (Central Standard Time),787273.6999999955,A,w,I,w,569,2,583.0999999940395,786690.6000000015,8008,WL,C,6.0
7,12.646000146865845,immed,47353.999853134155,Thu Jan 09 2025 13:49:29 GMT-0600 (Central Standard Time),787590.1999999955,A,wh,I,h,305,2,899.5999999940395,786690.6000000015,8008,WL,C,6.0
7,12.812999963760376,immed,47187.000036239624,Thu Jan 09 2025 13:49:29 GMT-0600 (Central Standard Time),787756.799999997,A,whe,I,e,157,2,1066.1999999955297,786690.6000000015,8008,WL,C,6.0
7,13.578999996185303,immed,46421.0000038147,Thu Jan 09 2025 13:49:29 GMT-0600 (Central Standard Time),788523.0,A,whea,I,a,750,2,1832.3999999985099,786690.6000000015,8008,WL,C,6.0
7,13.76200008392334,immed,46237.99991607666,Thu Jan 09 2025 13:49:29 GMT-0600 (Central Standard Time),788706.3999999985,A,wheat,I,t,168,2,2015.7999999970198,786690.6000000015,8008,WL,C,6.0
7,14.246000051498413,immed,45753.99994850159,Thu Jan 09 2025 13:49:29 GMT-0600 (Central Standard Time),789189.6999999955,A,wheatenter,I,enter,473,2,2499.0999999940395,786690.6000000015,8008,WL,C,6.0
7,14.894999980926514,immed,45105.000019073486,Thu Jan 09 2025 13:49:29 GMT-0600 (Central Standard Time),789839.0,A,d,I,d,638,2,649.0,789190.0,8008,WL,C,7.0
7,15.144999980926514,immed,44855.000019073486,Thu Jan 09 2025 13:49:29 GMT-0600 (Central Standard Time),790089.1999999955,A,do,I,o,236,2,899.1999999955297,789190.0,8008,WL,C,7.0
7,15.411999940872192,immed,44588.00005912781,Thu Jan 09 2025 13:49:29 GMT-0600 (Central Standard Time),790356.1000000015,A,doc,I,c,258,2,1166.1000000014901,789190.0,8008,WL,C,7.0
7,15.779000043869019,immed,44220.99995613098,Thu Jan 09 2025 13:49:29 GMT-0600 (Central Standard Time),790722.3999999985,A,doct,I,t,360,2,1532.3999999985099,789190.0,8008,WL,C,7.0
7,16.045000076293945,immed,43954.999923706055,Thu Jan 09 2025 13:49:29 GMT-0600 (Central Standard Time),790989.1000000015,A,docto,I,o,249,2,1799.1000000014901,789190.0,8008,WL,C,7.0
7,16.295000076293945,immed,43704.999923706055,Thu Jan 09 2025 13:49:29 GMT-0600 (Central Standard Time),791239.0,A,doctor,I,r,230,2,2049.0,789190.0,8008,WL,C,7.0
7,16.695000171661377,immed,43304.99982833862,Thu Jan 09 2025 13:49:29 GMT-0600 (Central Standard Time),791638.799999997,A,doctorenter,I,enter,381,2,2448.7999999970198,789190.0,8008,WL,C,7.0
7,17.24500012397766,immed,42754.99987602234,Thu Jan 09 2025 13:49:29 GMT-0600 (Central Standard Time),792188.6000000015,A,n,I,n,541,2,549.5,791639.1000000015,8008,WL,C,8.0
7,17.561000108718872,immed,42438.99989128113,Thu Jan 09 2025 13:49:29 GMT-0600 (Central Standard Time),792505.299999997,A,na,I,a,302,2,866.1999999955297,791639.1000000015,8008,WL,C,8.0
7,17.795000076293945,immed,42204.999923706055,Thu Jan 09 2025 13:49:29 GMT-0600 (Central Standard Time),792738.799999997,A,nai,I,i,211,2,1099.6999999955297,791639.1000000015,8008,WL,C,8.0
7,18.128000020980835,immed,41871.999979019165,Thu Jan 09 2025 13:49:29 GMT-0600 (Central Standard Time),793071.8999999985,A,nail,I,l,321,2,1432.7999999970198,791639.1000000015,8008,WL,C,8.0
7,18.694000005722046,immed,41305.999994277954,Thu Jan 09 2025 13:49:29 GMT-0600 (Central Standard Time),793638.1000000015,A,nailenter,I,enter,547,2,1999.0,791639.1000000015,8008,WL,C,8.0
7,19.212000131607056,immed,40787.999868392944,Thu Jan 09 2025 13:49:29 GMT-0600 (Central Standard Time),794155.799999997,A,t,I,t,509,2,517.2999999970198,793638.5,8008,WL,C,9.0
7,19.49399995803833,immed,40506.00004196167,Thu Jan 09 2025 13:49:29 GMT-0600 (Central Standard Time),794438.1000000015,A,to,I,o,271,2,799.6000000014901,793638.5,8008,WL,C,9.0
7,19.811000108718872,immed,40188.99989128113,Thu Jan 09 2025 13:49:29 GMT-0600 (Central Standard Time),794754.5,A,tow,I,w,309,2,1116.0,793638.5,8008,WL,C,9.0
7,20.094000101089478,immed,39905.99989891052,Thu Jan 09 2025 13:49:29 GMT-0600 (Central Standard Time),795037.799999997,A,towe,I,e,273,2,1399.2999999970198,793638.5,8008,WL,C,9.0
7,20.377000093460083,immed,39622.99990653992,Thu Jan 09 2025 13:49:29 GMT-0600 (Central Standard Time),795321.1000000015,A,tower,I,r,261,2,1682.6000000014901,793638.5,8008,WL,C,9.0
7,20.927000045776367,immed,39072.99995422363,Thu Jan 09 2025 13:49:29 GMT-0600 (Central Standard Time),795871.1000000015,A,towerenter,I,enter,538,2,2232.60000000149,793638.5,8008,WL,C,9.0
7,25.159000158309937,immed,34840.99984169006,Thu Jan 09 2025 13:49:29 GMT-0600 (Central Standard Time),800102.799999997,A,c,I,c,4212,2,4231.39999999851,795871.3999999985,8008,WL,C,10.0
7,25.442000150680542,immed,34557.99984931946,Thu Jan 09 2025 13:49:29 GMT-0600 (Central Standard Time),800386.1000000015,A,ca,I,a,260,2,4514.70000000298,795871.3999999985,8008,WL,C,10.0
7,25.909000158309937,immed,34090.99984169006,Thu Jan 09 2025 13:49:29 GMT-0600 (Central Standard Time),800852.6000000015,A,cam,I,m,457,2,4981.20000000298,795871.3999999985,8008,WL,C,10.0
7,26.342000007629395,immed,33657.999992370605,Thu Jan 09 2025 13:49:29 GMT-0600 (Central Standard Time),801285.8999999985,A,camp,I,p,414,2,5414.5,795871.3999999985,8008,WL,C,10.0
7,26.858999967575073,immed,33141.00003242493,Thu Jan 09 2025 13:49:29 GMT-0600 (Central Standard Time),801802.6999999955,A,campenter,I,enter,493,2,5931.29999999702,795871.3999999985,8008,WL,C,10.0
7,33.44000005722046,immed,26559.99994277954,Thu Jan 09 2025 13:49:29 GMT-0600 (Central Standard Time),808383.6000000015,A,b,I,b,6569,2,6580.60000000149,801803.0,8008,WL,C,11.0
7,33.77300000190735,immed,26226.99999809265,Thu Jan 09 2025 13:49:29 GMT-0600 (Central Standard Time),808717.0,A,bo,I,o,323,2,6914.0,801803.0,8008,WL,C,11.0
7,34.12400007247925,immed,25875.999927520752,Thu Jan 09 2025 13:49:29 GMT-0600 (Central Standard Time),809067.799999997,A,bod,I,d,343,2,7264.79999999702,801803.0,8008,WL,C,11.0
7,34.388999938964844,immed,25611.000061035156,Thu Jan 09 2025 13:49:29 GMT-0600 (Central Standard Time),809333.3999999985,A,body,I,y,247,2,7530.39999999851,801803.0,8008,WL,C,11.0
7,34.9060001373291,immed,25093.9998626709,Thu Jan 09 2025 13:49:29 GMT-0600 (Central Standard Time),809849.8999999985,A,bodyenter,I,enter,494,2,8046.89999999851,801803.0,8008,WL,C,11.0
7,35.888999938964844,immed,24111.000061035156,Thu Jan 09 2025 13:49:29 GMT-0600 (Central Standard Time),810832.799999997,A,enter,I,enter,970,2,982.6000000014901,809850.1999999955,8008,WL,C,12.0
7,36.08899998664856,immed,23911.00001335144,Thu Jan 09 2025 13:49:29 GMT-0600 (Central Standard Time),811033.1999999955,A,enter,I,enter,178,2,199.89999999850988,810833.299999997,8008,WL,C,13.0
7,36.23900008201599,immed,23760.99991798401,Thu Jan 09 2025 13:49:29 GMT-0600 (Central Standard Time),811182.6999999955,A,enter,I,enter,130,2,149.09999999403954,811033.6000000015,8008,WL,C,14.0
7,37.32200002670288,immed,22677.99997329712,Thu Jan 09 2025 13:49:29 GMT-0600 (Central Standard Time),812266.0,A,enter,I,enter,1069,2,1083.0,811183.0,8008,WL,C,15.0
