block_c,block_dur,condition,countdown,datetime,endtime,list,multichar_response,project,response,response_time,session_number,start_end,starttime,subject_id,task,task_vers,trial
,,,,Wed Apr 23 2025 15:42:10 GMT-0500 (Central Daylight Time),,,,I,space,500,3,,,8008,WL,B,
prac,,0,,Wed Apr 23 2025 15:42:10 GMT-0500 (Central Daylight Time),,NA,b,I,b,7131,3,,,8008,WL,B,1.0
prac,,0,,Wed Apr 23 2025 15:42:10 GMT-0500 (Central Daylight Time),,NA,bo,I,o,497,3,,,8008,WL,B,1.0
prac,,0,,Wed Apr 23 2025 15:42:10 GMT-0500 (Central Daylight Time),,NA,boo,I,o,137,3,,,8008,WL,B,1.0
prac,,0,,Wed Apr 23 2025 15:42:10 GMT-0500 (Central Daylight Time),,NA,boos,I,s,380,3,,,8008,WL,B,1.0
prac,,0,,Wed Apr 23 2025 15:42:10 GMT-0500 (Central Daylight Time),,NA,boost,I,t,212,3,,,8008,WL,B,1.0
prac,,0,,Wed Apr 23 2025 15:42:10 GMT-0500 (Central Daylight Time),,NA,boostenter,I,enter,3267,3,,,8008,WL,B,1.0
1,1.683000087738037,learn,58316.99991226196,Wed Apr 23 2025 15:42:10 GMT-0500 (Central Daylight Time),199873.5,A,s,I,s,1666,3,1682.3999999994412,198191.10000000056,8008,WL,B,1.0
1,1.883000135421753,learn,58116.99986457825,Wed Apr 23 2025 15:42:10 GMT-0500 (Central Daylight Time),200073.2999999998,A,st,I,t,185,3,1882.199999999255,198191.10000000056,8008,WL,B,1.0
1,2.2320001125335693,learn,57767.99988746643,Wed Apr 23 2025 15:42:10 GMT-0500 (Central Daylight Time),200422.7000000002,A,str,I,r,330,3,2231.5999999996275,198191.10000000056,8008,WL,B,1.0
1,2.432000160217285,learn,57567.999839782715,Wed Apr 23 2025 15:42:10 GMT-0500 (Central Daylight Time),200622.7999999998,A,strr,I,r,178,3,2431.699999999255,198191.10000000056,8008,WL,B,1.0
1,3.865000009536743,learn,56134.99999046326,Wed Apr 23 2025 15:42:10 GMT-0500 (Central Daylight Time),202055.60000000056,A,str,I,backspace,1412,3,3864.5,198191.10000000056,8008,WL,B,1.0
1,5.016000032424927,learn,54983.99996757507,Wed Apr 23 2025 15:42:10 GMT-0500 (Central Daylight Time),203206.2000000002,A,stre,I,e,1139,3,5015.0999999996275,198191.10000000056,8008,WL,B,1.0
1,5.200000047683716,learn,54799.999952316284,Wed Apr 23 2025 15:42:10 GMT-0500 (Central Daylight Time),203390.10000000056,A,stree,I,e,165,3,5199.0,198191.10000000056,8008,WL,B,1.0
1,5.381999969482422,learn,54618.00003051758,Wed Apr 23 2025 15:42:10 GMT-0500 (Central Daylight Time),203572.60000000056,A,street,I,t,164,3,5381.5,198191.10000000056,8008,WL,B,1.0
1,6.265000104904175,learn,53734.999895095825,Wed Apr 23 2025 15:42:10 GMT-0500 (Central Daylight Time),204454.90000000037,A,streetenter,I,enter,871,3,6263.799999999814,198191.10000000056,8008,WL,B,1.0
1,6.898000001907349,learn,53101.99999809265,Wed Apr 23 2025 15:42:10 GMT-0500 (Central Daylight Time),205088.7999999998,A,g,I,g,611,3,633.2999999998137,204455.5,8008,WL,B,2.0
1,7.164999961853027,learn,52835.00003814697,Wed Apr 23 2025 15:42:10 GMT-0500 (Central Daylight Time),205355.40000000037,A,gr,I,r,249,3,899.9000000003725,204455.5,8008,WL,B,2.0
1,7.5320000648498535,learn,52467.99993515015,Wed Apr 23 2025 15:42:10 GMT-0500 (Central Daylight Time),205722.2000000002,A,gra,I,a,351,3,1266.7000000001863,204455.5,8008,WL,B,2.0
1,7.864000082015991,learn,52135.99991798401,Wed Apr 23 2025 15:42:10 GMT-0500 (Central Daylight Time),206054.2999999998,A,gras,I,s,320,3,1598.7999999998137,204455.5,8008,WL,B,2.0
1,8.031000137329102,learn,51968.9998626709,Wed Apr 23 2025 15:42:10 GMT-0500 (Central Daylight Time),206221.10000000056,A,grass,I,s,156,3,1765.6000000005588,204455.5,8008,WL,B,2.0
1,8.348000049591064,learn,51651.999950408936,Wed Apr 23 2025 15:42:10 GMT-0500 (Central Daylight Time),206538.7999999998,A,grassenter,I,enter,302,3,2083.2999999998137,204455.5,8008,WL,B,2.0
1,9.414999961853027,learn,50585.00003814697,Wed Apr 23 2025 15:42:10 GMT-0500 (Central Daylight Time),207605.10000000056,A,d,I,d,1061,3,1066.0,206539.10000000056,8008,WL,B,3.0
1,9.698000192642212,learn,50301.99980735779,Wed Apr 23 2025 15:42:10 GMT-0500 (Central Daylight Time),207888.40000000037,A,do,I,o,263,3,1349.2999999998137,206539.10000000056,8008,WL,B,3.0
1,9.880000114440918,learn,50119.99988555908,Wed Apr 23 2025 15:42:10 GMT-0500 (Central Daylight Time),208070.7999999998,A,doo,I,o,161,3,1531.699999999255,206539.10000000056,8008,WL,B,3.0
1,10.098000049591064,learn,49901.999950408936,Wed Apr 23 2025 15:42:10 GMT-0500 (Central Daylight Time),208288.0,A,door,I,r,205,3,1748.8999999994412,206539.10000000056,8008,WL,B,3.0
1,10.434000015258789,learn,49565.99998474121,Wed Apr 23 2025 15:42:10 GMT-0500 (Central Daylight Time),208624.60000000056,A,doorenter,I,enter,323,3,2085.5,206539.10000000056,8008,WL,B,3.0
1,10.914000034332275,learn,49085.999965667725,Wed Apr 23 2025 15:42:10 GMT-0500 (Central Daylight Time),209104.2999999998,A,w,I,w,460,3,479.3999999994412,208624.90000000037,8008,WL,B,4.0
1,11.446000099182129,learn,48553.99990081787,Wed Apr 23 2025 15:42:10 GMT-0500 (Central Daylight Time),209636.10000000056,A,wi,I,i,523,3,1011.2000000001863,208624.90000000037,8008,WL,B,4.0
1,11.847000122070312,learn,48152.99987792969,Wed Apr 23 2025 15:42:10 GMT-0500 (Central Daylight Time),210037.2000000002,A,win,I,n,384,3,1412.2999999998137,208624.90000000037,8008,WL,B,4.0
1,12.213000059127808,learn,47786.99994087219,Wed Apr 23 2025 15:42:10 GMT-0500 (Central Daylight Time),210403.90000000037,A,wind,I,d,345,3,1779.0,208624.90000000037,8008,WL,B,4.0
1,12.413000106811523,learn,47586.99989318848,Wed Apr 23 2025 15:42:10 GMT-0500 (Central Daylight Time),210603.7000000002,A,windo,I,o,193,3,1978.7999999998137,208624.90000000037,8008,WL,B,4.0
1,12.695000171661377,learn,47304.99982833862,Wed Apr 23 2025 15:42:10 GMT-0500 (Central Daylight Time),210885.7000000002,A,window,I,w,271,3,2260.7999999998137,208624.90000000037,8008,WL,B,4.0
1,13.646000146865845,learn,46353.999853134155,Wed Apr 23 2025 15:42:10 GMT-0500 (Central Daylight Time),211836.2999999998,A,windowenter,I,enter,942,3,3211.399999999441,208624.90000000037,8008,WL,B,4.0
1,13.996999979019165,learn,46003.000020980835,Wed Apr 23 2025 15:42:10 GMT-0500 (Central Daylight Time),212187.0,A,a,I,a,330,3,350.3999999994412,211836.60000000056,8008,WL,B,5.0
1,14.51200008392334,learn,45487.99991607666,Wed Apr 23 2025 15:42:10 GMT-0500 (Central Daylight Time),212701.7999999998,A,ar,I,r,504,3,865.1999999992549,211836.60000000056,8008,WL,B,5.0
1,15.246000051498413,learn,44753.99994850159,Wed Apr 23 2025 15:42:10 GMT-0500 (Central Daylight Time),213436.40000000037,A,arm,I,m,714,3,1599.7999999998137,211836.60000000056,8008,WL,B,5.0
1,16.41200017929077,learn,43587.99982070923,Wed Apr 23 2025 15:42:10 GMT-0500 (Central Daylight Time),214602.10000000056,A,armenter,I,enter,1151,3,2765.5,211836.60000000056,8008,WL,B,5.0
1,17.01200008392334,learn,42987.99991607666,Wed Apr 23 2025 15:42:10 GMT-0500 (Central Daylight Time),215202.0,A,w,I,w,585,3,599.7000000001863,214602.2999999998,8008,WL,B,6.0
1,17.361999988555908,learn,42638.00001144409,Wed Apr 23 2025 15:42:10 GMT-0500 (Central Daylight Time),215552.5,A,wi,I,i,329,3,950.2000000001863,214602.2999999998,8008,WL,B,6.0
1,17.92799997329712,learn,42072.00002670288,Wed Apr 23 2025 15:42:10 GMT-0500 (Central Daylight Time),216118.2000000002,A,wif,I,f,554,3,1515.9000000003725,214602.2999999998,8008,WL,B,6.0
1,18.344000101089478,learn,41655.99989891052,Wed Apr 23 2025 15:42:10 GMT-0500 (Central Daylight Time),216534.10000000056,A,wife,I,e,403,3,1931.800000000745,214602.2999999998,8008,WL,B,6.0
1,19.611999988555908,learn,40388.00001144409,Wed Apr 23 2025 15:42:10 GMT-0500 (Central Daylight Time),217801.90000000037,A,wifeenter,I,enter,1254,3,3199.600000000559,214602.2999999998,8008,WL,B,6.0
1,25.81000018119812,learn,34189.99981880188,Wed Apr 23 2025 15:42:10 GMT-0500 (Central Daylight Time),224000.7999999998,A,p,I,p,6185,3,6198.5999999996275,217802.2000000002,8008,WL,B,7.0
1,26.29200005531311,learn,33707.99994468689,Wed Apr 23 2025 15:42:10 GMT-0500 (Central Daylight Time),224482.60000000056,A,pu,I,u,468,3,6680.4000000003725,217802.2000000002,8008,WL,B,7.0
1,26.875,learn,33125.0,Wed Apr 23 2025 15:42:10 GMT-0500 (Central Daylight Time),225065.2000000002,A,pup,I,p,569,3,7263.0,217802.2000000002,8008,WL,B,7.0
1,27.242000102996826,learn,32757.999897003174,Wed Apr 23 2025 15:42:10 GMT-0500 (Central Daylight Time),225432.2999999998,A,pupi,I,i,354,3,7630.0999999996275,217802.2000000002,8008,WL,B,7.0
1,27.659000158309937,learn,32340.999841690063,Wed Apr 23 2025 15:42:10 GMT-0500 (Central Daylight Time),225849.0,A,pupil,I,l,396,3,8046.799999999814,217802.2000000002,8008,WL,B,7.0
1,28.19099998474121,learn,31809.00001525879,Wed Apr 23 2025 15:42:10 GMT-0500 (Central Daylight Time),226381.0,A,pupilenter,I,enter,514,3,8578.799999999814,217802.2000000002,8008,WL,B,7.0
1,28.907999992370605,learn,31092.000007629395,Wed Apr 23 2025 15:42:10 GMT-0500 (Central Daylight Time),227098.60000000056,A,c,I,c,696,3,717.3000000007451,226381.2999999998,8008,WL,B,8.0
1,29.141000032424927,learn,30858.999967575073,Wed Apr 23 2025 15:42:10 GMT-0500 (Central Daylight Time),227331.2999999998,A,ca,I,a,217,3,950.0,226381.2999999998,8008,WL,B,8.0
1,29.341000080108643,learn,30658.999919891357,Wed Apr 23 2025 15:42:10 GMT-0500 (Central Daylight Time),227530.90000000037,A,cab,I,b,185,3,1149.6000000005588,226381.2999999998,8008,WL,B,8.0
1,29.625,learn,30375.0,Wed Apr 23 2025 15:42:10 GMT-0500 (Central Daylight Time),227815.60000000056,A,cabi,I,i,265,3,1434.300000000745,226381.2999999998,8008,WL,B,8.0
1,29.825999975204468,learn,30174.000024795532,Wed Apr 23 2025 15:42:10 GMT-0500 (Central Daylight Time),228016.7000000002,A,cabin,I,n,180,3,1635.4000000003725,226381.2999999998,8008,WL,B,8.0
1,30.34000015258789,learn,29659.99984741211,Wed Apr 23 2025 15:42:10 GMT-0500 (Central Daylight Time),228530.40000000037,A,cabinenter,I,enter,500,3,2149.100000000559,226381.2999999998,8008,WL,B,8.0
1,30.9060001373291,learn,29093.9998626709,Wed Apr 23 2025 15:42:10 GMT-0500 (Central Daylight Time),229096.60000000056,A,l,I,l,545,3,566.0,228530.60000000056,8008,WL,B,9.0
1,31.222000122070312,learn,28777.999877929688,Wed Apr 23 2025 15:42:10 GMT-0500 (Central Daylight Time),229412.7000000002,A,la,I,a,307,3,882.0999999996275,228530.60000000056,8008,WL,B,9.0
1,31.472000122070312,learn,28527.999877929688,Wed Apr 23 2025 15:42:10 GMT-0500 (Central Daylight Time),229662.7000000002,A,lak,I,k,239,3,1132.0999999996275,228530.60000000056,8008,WL,B,9.0
1,31.789999961853027,learn,28210.000038146973,Wed Apr 23 2025 15:42:10 GMT-0500 (Central Daylight Time),229980.2999999998,A,lake,I,e,308,3,1449.699999999255,228530.60000000056,8008,WL,B,9.0
1,32.42400002479553,learn,27575.999975204468,Wed Apr 23 2025 15:42:10 GMT-0500 (Central Daylight Time),230614.2999999998,A,lakeenter,I,enter,614,3,2083.699999999255,228530.60000000056,8008,WL,B,9.0
1,42.28600001335144,learn,17713.99998664856,Wed Apr 23 2025 15:42:10 GMT-0500 (Central Daylight Time),240477.2000000002,A,enter,I,enter,9845,3,9862.599999999627,230614.60000000056,8008,WL,B,10.0
1,42.53600001335144,learn,17463.99998664856,Wed Apr 23 2025 15:42:10 GMT-0500 (Central Daylight Time),240727.2000000002,A,enter,I,enter,229,3,249.59999999962747,240477.60000000056,8008,WL,B,11.0
1,42.76900005340576,learn,17230.99994659424,Wed Apr 23 2025 15:42:10 GMT-0500 (Central Daylight Time),240959.90000000037,A,enter,I,enter,220,3,232.40000000037253,240727.5,8008,WL,B,12.0
1,43.00200009346008,learn,16997.999906539917,Wed Apr 23 2025 15:42:10 GMT-0500 (Central Daylight Time),241193.2000000002,A,enter,I,enter,213,3,233.0,240960.2000000002,8008,WL,B,13.0
1,43.22000002861023,learn,16779.99997138977,Wed Apr 23 2025 15:42:10 GMT-0500 (Central Daylight Time),241410.90000000037,A,enter,I,enter,197,3,217.40000000037253,241193.5,8008,WL,B,14.0
1,43.835999965667725,learn,16164.000034332275,Wed Apr 23 2025 15:42:10 GMT-0500 (Central Daylight Time),242026.7000000002,A,enter,I,enter,595,3,615.5999999996275,241411.10000000056,8008,WL,B,15.0
2,1.1480000019073486,learn,58851.99999809265,Wed Apr 23 2025 15:42:10 GMT-0500 (Central Daylight Time),312203.7000000002,A,c,I,c,1131,3,1148.0999999996275,311055.60000000056,8008,WL,B,1.0
2,1.3489999771118164,learn,58651.00002288818,Wed Apr 23 2025 15:42:10 GMT-0500 (Central Daylight Time),312404.4000000004,A,ci,I,i,194,3,1348.7999999998137,311055.60000000056,8008,WL,B,1.0
2,1.815999984741211,learn,58184.00001525879,Wed Apr 23 2025 15:42:10 GMT-0500 (Central Daylight Time),312870.9000000004,A,cit,I,t,455,3,1815.2999999998137,311055.60000000056,8008,WL,B,1.0
2,2.0160000324249268,learn,57983.99996757507,Wed Apr 23 2025 15:42:10 GMT-0500 (Central Daylight Time),313071.10000000056,A,city,I,y,180,3,2015.5,311055.60000000056,8008,WL,B,1.0
2,2.5320000648498535,learn,57467.99993515015,Wed Apr 23 2025 15:42:10 GMT-0500 (Central Daylight Time),313587.7000000002,A,cityenter,I,enter,494,3,2532.0999999996275,311055.60000000056,8008,WL,B,1.0
2,3.13100004196167,learn,56868.99995803833,Wed Apr 23 2025 15:42:10 GMT-0500 (Central Daylight Time),314186.5,A,s,I,s,584,3,598.5999999996275,313587.9000000004,8008,WL,B,2.0
2,3.365999937057495,learn,56634.000062942505,Wed Apr 23 2025 15:42:10 GMT-0500 (Central Daylight Time),314421.10000000056,A,st,I,t,229,3,833.2000000001863,313587.9000000004,8008,WL,B,2.0
2,3.8489999771118164,learn,56151.00002288818,Wed Apr 23 2025 15:42:10 GMT-0500 (Central Daylight Time),314903.7999999998,A,sta,I,a,469,3,1315.8999999994412,313587.9000000004,8008,WL,B,2.0
2,4.115000009536743,learn,55884.99999046326,Wed Apr 23 2025 15:42:10 GMT-0500 (Central Daylight Time),315170.2999999998,A,star,I,r,253,3,1582.3999999994412,313587.9000000004,8008,WL,B,2.0
2,4.8459999561309814,learn,55154.00004386902,Wed Apr 23 2025 15:42:10 GMT-0500 (Central Daylight Time),315901.2000000002,A,starenter,I,enter,712,3,2313.2999999998137,313587.9000000004,8008,WL,B,2.0
2,5.447000026702881,learn,54552.99997329712,Wed Apr 23 2025 15:42:10 GMT-0500 (Central Daylight Time),316502.0,A,p,I,p,589,3,600.3999999994412,315901.60000000056,8008,WL,B,3.0
2,5.931999921798706,learn,54068.000078201294,Wed Apr 23 2025 15:42:10 GMT-0500 (Central Daylight Time),316986.9000000004,A,pi,I,i,469,3,1085.2999999998137,315901.60000000056,8008,WL,B,3.0
2,6.36299991607666,learn,53637.00008392334,Wed Apr 23 2025 15:42:10 GMT-0500 (Central Daylight Time),317418.4000000004,A,pip,I,p,411,3,1516.7999999998137,315901.60000000056,8008,WL,B,3.0
2,6.7790000438690186,learn,53220.99995613098,Wed Apr 23 2025 15:42:10 GMT-0500 (Central Daylight Time),317834.60000000056,A,pipe,I,e,399,3,1933.0,315901.60000000056,8008,WL,B,3.0
2,7.213000059127808,learn,52786.99994087219,Wed Apr 23 2025 15:42:10 GMT-0500 (Central Daylight Time),318268.2999999998,A,pipeenter,I,enter,426,3,2366.699999999255,315901.60000000056,8008,WL,B,3.0
2,7.711999893188477,learn,52288.00010681152,Wed Apr 23 2025 15:42:10 GMT-0500 (Central Daylight Time),318767.7000000002,A,c,I,c,486,3,499.29999999981374,318268.4000000004,8008,WL,B,4.0
2,7.980999946594238,learn,52019.00005340576,Wed Apr 23 2025 15:42:10 GMT-0500 (Central Daylight Time),319036.2999999998,A,cl,I,l,253,3,767.8999999994412,318268.4000000004,8008,WL,B,4.0
2,8.263999938964844,learn,51736.000061035156,Wed Apr 23 2025 15:42:10 GMT-0500 (Central Daylight Time),319319.10000000056,A,clo,I,o,271,3,1050.7000000001863,318268.4000000004,8008,WL,B,4.0
2,9.147000074386597,learn,50852.9999256134,Wed Apr 23 2025 15:42:10 GMT-0500 (Central Daylight Time),320202.0,A,cloc,I,c,863,3,1933.5999999996275,318268.4000000004,8008,WL,B,4.0
2,9.394999980926514,learn,50605.000019073486,Wed Apr 23 2025 15:42:10 GMT-0500 (Central Daylight Time),320450.5,A,clock,I,k,234,3,2182.0999999996275,318268.4000000004,8008,WL,B,4.0
2,10.04699993133545,learn,49953.00006866455,Wed Apr 23 2025 15:42:10 GMT-0500 (Central Daylight Time),321102.0,A,clockenter,I,enter,641,3,2833.5999999996275,318268.4000000004,8008,WL,B,4.0
2,10.565000057220459,learn,49434.99994277954,Wed Apr 23 2025 15:42:10 GMT-0500 (Central Daylight Time),321620.5,A,s,I,s,503,3,518.2000000001863,321102.2999999998,8008,WL,B,5.0
2,10.864000082015991,learn,49135.99991798401,Wed Apr 23 2025 15:42:10 GMT-0500 (Central Daylight Time),321918.7999999998,A,sk,I,k,279,3,816.5,321102.2999999998,8008,WL,B,5.0
2,11.19700002670288,learn,48802.99997329712,Wed Apr 23 2025 15:42:10 GMT-0500 (Central Daylight Time),322252.0,A,ski,I,i,316,3,1149.7000000001863,321102.2999999998,8008,WL,B,5.0
2,11.46399998664856,learn,48536.00001335144,Wed Apr 23 2025 15:42:10 GMT-0500 (Central Daylight Time),322519.5,A,skin,I,n,254,3,1417.2000000001863,321102.2999999998,8008,WL,B,5.0
2,12.07800006866455,learn,47921.99993133545,Wed Apr 23 2025 15:42:10 GMT-0500 (Central Daylight Time),323133.60000000056,A,skinenter,I,enter,595,3,2031.300000000745,321102.2999999998,8008,WL,B,5.0
2,12.529000043869019,learn,47470.99995613098,Wed Apr 23 2025 15:42:10 GMT-0500 (Central Daylight Time),323584.0,A,a,I,a,429,3,450.20000000018626,323133.7999999998,8008,WL,B,6.0
2,12.911999940872192,learn,47088.00005912781,Wed Apr 23 2025 15:42:10 GMT-0500 (Central Daylight Time),323967.7000000002,A,ar,I,r,362,3,833.9000000003725,323133.7999999998,8008,WL,B,6.0
2,13.295000076293945,learn,46704.999923706055,Wed Apr 23 2025 15:42:10 GMT-0500 (Central Daylight Time),324349.7999999998,A,arm,I,m,371,3,1216.0,323133.7999999998,8008,WL,B,6.0
2,13.944999933242798,learn,46055.0000667572,Wed Apr 23 2025 15:42:10 GMT-0500 (Central Daylight Time),325000.0,A,armenter,I,enter,637,3,1866.2000000001863,323133.7999999998,8008,WL,B,6.0
2,14.41100001335144,learn,45588.99998664856,Wed Apr 23 2025 15:42:10 GMT-0500 (Central Daylight Time),325466.2999999998,A,d,I,d,445,3,466.0,325000.2999999998,8008,WL,B,7.0
2,14.829999923706055,learn,45170.000076293945,Wed Apr 23 2025 15:42:10 GMT-0500 (Central Daylight Time),325885.10000000056,A,do,I,o,399,3,884.8000000007451,325000.2999999998,8008,WL,B,7.0
2,15.02999997138977,learn,44970.00002861023,Wed Apr 23 2025 15:42:10 GMT-0500 (Central Daylight Time),326085.0,A,doo,I,o,183,3,1084.7000000001863,325000.2999999998,8008,WL,B,7.0
2,15.342000007629395,learn,44657.999992370605,Wed Apr 23 2025 15:42:10 GMT-0500 (Central Daylight Time),326397.7000000002,A,door,I,r,301,3,1397.4000000003725,325000.2999999998,8008,WL,B,7.0
2,15.776999950408936,learn,44223.000049591064,Wed Apr 23 2025 15:42:10 GMT-0500 (Central Daylight Time),326832.5,A,doorenter,I,enter,422,3,1832.2000000001863,325000.2999999998,8008,WL,B,7.0
2,16.311000108718872,learn,43688.99989128113,Wed Apr 23 2025 15:42:10 GMT-0500 (Central Daylight Time),327366.0,A,w,I,w,514,3,533.2999999998137,326832.7000000002,8008,WL,B,8.0
2,16.628000020980835,learn,43371.999979019165,Wed Apr 23 2025 15:42:10 GMT-0500 (Central Daylight Time),327682.7000000002,A,wi,I,i,300,3,850.0,326832.7000000002,8008,WL,B,8.0
2,16.944000005722046,learn,43055.999994277954,Wed Apr 23 2025 15:42:10 GMT-0500 (Central Daylight Time),327999.5,A,win,I,n,305,3,1166.7999999998137,326832.7000000002,8008,WL,B,8.0
2,17.24399995803833,learn,42756.00004196167,Wed Apr 23 2025 15:42:10 GMT-0500 (Central Daylight Time),328299.4000000004,A,wind,I,d,294,3,1466.7000000001863,326832.7000000002,8008,WL,B,8.0
2,17.545000076293945,learn,42454.999923706055,Wed Apr 23 2025 15:42:10 GMT-0500 (Central Daylight Time),328600.4000000004,A,windo,I,o,281,3,1767.7000000001863,326832.7000000002,8008,WL,B,8.0
2,17.82699990272522,learn,42173.00009727478,Wed Apr 23 2025 15:42:10 GMT-0500 (Central Daylight Time),328882.2000000002,A,window,I,w,266,3,2049.5,326832.7000000002,8008,WL,B,8.0
2,18.276000022888184,learn,41723.99997711182,Wed Apr 23 2025 15:42:10 GMT-0500 (Central Daylight Time),329331.60000000056,A,windowenter,I,enter,441,3,2498.9000000003725,326832.7000000002,8008,WL,B,8.0
2,18.894999980926514,learn,41105.000019073486,Wed Apr 23 2025 15:42:10 GMT-0500 (Central Daylight Time),329950.10000000056,A,c,I,c,599,3,618.2000000001863,329331.9000000004,8008,WL,B,9.0
2,19.16000008583069,learn,40839.99991416931,Wed Apr 23 2025 15:42:10 GMT-0500 (Central Daylight Time),330215.0,A,ca,I,a,247,3,883.0999999996275,329331.9000000004,8008,WL,B,9.0
2,19.425999879837036,learn,40574.000120162964,Wed Apr 23 2025 15:42:10 GMT-0500 (Central Daylight Time),330481.2000000002,A,cab,I,b,244,3,1149.2999999998137,329331.9000000004,8008,WL,B,9.0
2,19.759000062942505,learn,40240.999937057495,Wed Apr 23 2025 15:42:10 GMT-0500 (Central Daylight Time),330814.2999999998,A,cabi,I,i,313,3,1482.3999999994412,329331.9000000004,8008,WL,B,9.0
2,20.141000032424927,learn,39858.99996757507,Wed Apr 23 2025 15:42:10 GMT-0500 (Central Daylight Time),331196.60000000056,A,cabin,I,n,371,3,1864.7000000001863,329331.9000000004,8008,WL,B,9.0
2,20.674999952316284,learn,39325.000047683716,Wed Apr 23 2025 15:42:10 GMT-0500 (Central Daylight Time),331730.60000000056,A,cabinenter,I,enter,529,3,2398.7000000001863,329331.9000000004,8008,WL,B,9.0
2,21.19099998474121,learn,38809.00001525879,Wed Apr 23 2025 15:42:10 GMT-0500 (Central Daylight Time),332246.10000000056,A,l,I,l,505,3,515.3000000007451,331730.7999999998,8008,WL,B,10.0
2,21.627000093460083,learn,38372.99990653992,Wed Apr 23 2025 15:42:10 GMT-0500 (Central Daylight Time),332682.60000000056,A,la,I,a,423,3,951.8000000007451,331730.7999999998,8008,WL,B,10.0
2,22.191999912261963,learn,37808.00008773804,Wed Apr 23 2025 15:42:10 GMT-0500 (Central Daylight Time),333247.7000000002,A,lak,I,k,544,3,1516.9000000003725,331730.7999999998,8008,WL,B,10.0
2,22.4760000705719,learn,37523.9999294281,Wed Apr 23 2025 15:42:10 GMT-0500 (Central Daylight Time),333531.2000000002,A,lake,I,e,261,3,1800.4000000003725,331730.7999999998,8008,WL,B,10.0
2,22.841000080108643,learn,37158.99991989136,Wed Apr 23 2025 15:42:10 GMT-0500 (Central Daylight Time),333896.7000000002,A,lakeenter,I,enter,352,3,2165.9000000003725,331730.7999999998,8008,WL,B,10.0
2,23.509000062942505,learn,36490.999937057495,Wed Apr 23 2025 15:42:10 GMT-0500 (Central Daylight Time),334563.9000000004,A,g,I,g,647,3,666.9000000003725,333897.0,8008,WL,B,11.0
2,23.7260000705719,learn,36273.9999294281,Wed Apr 23 2025 15:42:10 GMT-0500 (Central Daylight Time),334781.4000000004,A,gr,I,r,206,3,884.4000000003725,333897.0,8008,WL,B,11.0
2,24.111000061035156,learn,35888.999938964844,Wed Apr 23 2025 15:42:10 GMT-0500 (Central Daylight Time),335165.9000000004,A,gra,I,a,364,3,1268.9000000003725,333897.0,8008,WL,B,11.0
2,24.509000062942505,learn,35490.999937057495,Wed Apr 23 2025 15:42:10 GMT-0500 (Central Daylight Time),335564.2000000002,A,gras,I,s,392,3,1667.2000000001863,333897.0,8008,WL,B,11.0
2,24.70900011062622,learn,35290.99988937378,Wed Apr 23 2025 15:42:10 GMT-0500 (Central Daylight Time),335764.4000000004,A,grass,I,s,178,3,1867.4000000003725,333897.0,8008,WL,B,11.0
2,25.191999912261963,learn,34808.00008773804,Wed Apr 23 2025 15:42:10 GMT-0500 (Central Daylight Time),336247.2999999998,A,grassenter,I,enter,470,3,2350.2999999998137,333897.0,8008,WL,B,11.0
2,26.322999954223633,learn,33677.00004577637,Wed Apr 23 2025 15:42:10 GMT-0500 (Central Daylight Time),337378.2000000002,A,s,I,s,1124,3,1130.7000000001863,336247.5,8008,WL,B,12.0
2,26.622999906539917,learn,33377.00009346008,Wed Apr 23 2025 15:42:10 GMT-0500 (Central Daylight Time),337677.9000000004,A,st,I,t,282,3,1430.4000000003725,336247.5,8008,WL,B,12.0
2,26.83999991416931,learn,33160.00008583069,Wed Apr 23 2025 15:42:10 GMT-0500 (Central Daylight Time),337894.9000000004,A,str,I,r,206,3,1647.4000000003725,336247.5,8008,WL,B,12.0
2,27.138000011444092,learn,32861.99998855591,Wed Apr 23 2025 15:42:10 GMT-0500 (Central Daylight Time),338193.5,A,stre,I,e,285,3,1946.0,336247.5,8008,WL,B,12.0
2,27.322999954223633,learn,32677.000045776367,Wed Apr 23 2025 15:42:10 GMT-0500 (Central Daylight Time),338378.2000000002,A,stree,I,e,171,3,2130.7000000001863,336247.5,8008,WL,B,12.0
2,27.522000074386597,learn,32477.999925613403,Wed Apr 23 2025 15:42:10 GMT-0500 (Central Daylight Time),338577.60000000056,A,street,I,t,186,3,2330.100000000559,336247.5,8008,WL,B,12.0
2,28.625,learn,31375.0,Wed Apr 23 2025 15:42:10 GMT-0500 (Central Daylight Time),339679.7999999998,A,streetenter,I,enter,1081,3,3432.2999999998137,336247.5,8008,WL,B,12.0
2,40.26799988746643,learn,19732.00011253357,Wed Apr 23 2025 15:42:10 GMT-0500 (Central Daylight Time),351322.9000000004,A,c,I,c,11626,3,11642.900000000373,339680.0,8008,WL,B,13.0
2,40.46900010108948,learn,19530.999898910522,Wed Apr 23 2025 15:42:10 GMT-0500 (Central Daylight Time),351524.2999999998,A,ca,I,a,193,3,11844.299999999814,339680.0,8008,WL,B,13.0
2,40.71900010108948,learn,19280.999898910522,Wed Apr 23 2025 15:42:10 GMT-0500 (Central Daylight Time),351774.0,A,cab,I,b,239,3,12094.0,339680.0,8008,WL,B,13.0
2,41.13499999046326,learn,18865.000009536743,Wed Apr 23 2025 15:42:10 GMT-0500 (Central Daylight Time),352190.4000000004,A,cabi,I,i,399,3,12510.400000000373,339680.0,8008,WL,B,13.0
2,41.418999910354614,learn,18581.000089645386,Wed Apr 23 2025 15:42:10 GMT-0500 (Central Daylight Time),352473.7999999998,A,cabin,I,n,269,3,12793.799999999814,339680.0,8008,WL,B,13.0
2,41.96900010108948,learn,18030.999898910522,Wed Apr 23 2025 15:42:10 GMT-0500 (Central Daylight Time),353024.10000000056,A,cabinenter,I,enter,539,3,13344.100000000559,339680.0,8008,WL,B,13.0
2,42.50200009346008,learn,17497.999906539917,Wed Apr 23 2025 15:42:10 GMT-0500 (Central Daylight Time),353557.60000000056,A,l,I,l,516,3,533.2000000001863,353024.4000000004,8008,WL,B,14.0
2,42.88599991798401,learn,17114.00008201599,Wed Apr 23 2025 15:42:10 GMT-0500 (Central Daylight Time),353941.2999999998,A,la,I,a,375,3,916.8999999994412,353024.4000000004,8008,WL,B,14.0
2,43.15299987792969,learn,16847.000122070312,Wed Apr 23 2025 15:42:10 GMT-0500 (Central Daylight Time),354208.2000000002,A,lak,I,k,245,3,1183.7999999998137,353024.4000000004,8008,WL,B,14.0
2,43.50099992752075,learn,16499.000072479248,Wed Apr 23 2025 15:42:10 GMT-0500 (Central Daylight Time),354556.4000000004,A,lake,I,e,339,3,1532.0,353024.4000000004,8008,WL,B,14.0
2,44.20300006866455,learn,15796.99993133545,Wed Apr 23 2025 15:42:10 GMT-0500 (Central Daylight Time),355258.60000000056,A,lakeenter,I,enter,686,3,2234.2000000001863,353024.4000000004,8008,WL,B,14.0
2,45.70199990272522,learn,14298.00009727478,Wed Apr 23 2025 15:42:10 GMT-0500 (Central Daylight Time),356757.5,A,s,I,s,1490,3,1498.5999999996275,355258.9000000004,8008,WL,B,15.0
2,45.90000009536743,learn,14099.999904632568,Wed Apr 23 2025 15:42:10 GMT-0500 (Central Daylight Time),356955.9000000004,A,st,I,t,181,3,1697.0,355258.9000000004,8008,WL,B,15.0
2,46.117000102996826,learn,13882.999897003174,Wed Apr 23 2025 15:42:10 GMT-0500 (Central Daylight Time),357172.7999999998,A,sta,I,a,196,3,1913.8999999994412,355258.9000000004,8008,WL,B,15.0
2,46.300999879837036,learn,13699.000120162964,Wed Apr 23 2025 15:42:10 GMT-0500 (Central Daylight Time),357356.5,A,star,I,r,166,3,2097.5999999996275,355258.9000000004,8008,WL,B,15.0
2,47.050999879837036,learn,12949.000120162964,Wed Apr 23 2025 15:42:10 GMT-0500 (Central Daylight Time),358106.10000000056,A,starenter,I,enter,735,3,2847.2000000001863,355258.9000000004,8008,WL,B,15.0
3,1.63100004196167,learn,58368.99995803833,Wed Apr 23 2025 15:42:10 GMT-0500 (Central Daylight Time),430683.4000000004,A,s,I,s,1608,3,1630.6000000005588,429052.7999999998,8008,WL,B,1.0
3,2.0789999961853027,learn,57921.0000038147,Wed Apr 23 2025 15:42:10 GMT-0500 (Central Daylight Time),431132.10000000056,A,sk,I,k,432,3,2079.300000000745,429052.7999999998,8008,WL,B,1.0
3,2.4620001316070557,learn,57537.999868392944,Wed Apr 23 2025 15:42:10 GMT-0500 (Central Daylight Time),431515.10000000056,A,ski,I,i,376,3,2462.300000000745,429052.7999999998,8008,WL,B,1.0
3,2.7799999713897705,learn,57220.00002861023,Wed Apr 23 2025 15:42:10 GMT-0500 (Central Daylight Time),431833.0,A,skin,I,n,305,3,2780.2000000001863,429052.7999999998,8008,WL,B,1.0
3,3.4130001068115234,learn,56586.99989318848,Wed Apr 23 2025 15:42:10 GMT-0500 (Central Daylight Time),432466.10000000056,A,skinenter,I,enter,612,3,3413.300000000745,429052.7999999998,8008,WL,B,1.0
3,4.0299999713897705,learn,55970.00002861023,Wed Apr 23 2025 15:42:10 GMT-0500 (Central Daylight Time),433083.10000000056,A,f,I,f,603,3,616.8000000007451,432466.2999999998,8008,WL,B,2.0
3,4.296999931335449,learn,55703.00006866455,Wed Apr 23 2025 15:42:10 GMT-0500 (Central Daylight Time),433349.7000000002,A,fi,I,i,248,3,883.4000000003725,432466.2999999998,8008,WL,B,2.0
3,4.647000074386597,learn,55352.9999256134,Wed Apr 23 2025 15:42:10 GMT-0500 (Central Daylight Time),433699.4000000004,A,fir,I,r,329,3,1233.1000000005588,432466.2999999998,8008,WL,B,2.0
3,4.812000036239624,learn,55187.999963760376,Wed Apr 23 2025 15:42:10 GMT-0500 (Central Daylight Time),433865.10000000056,A,fire,I,e,152,3,1398.800000000745,432466.2999999998,8008,WL,B,2.0
3,5.229000091552734,learn,54770.999908447266,Wed Apr 23 2025 15:42:10 GMT-0500 (Central Daylight Time),434281.7999999998,A,fireenter,I,enter,402,3,1815.5,432466.2999999998,8008,WL,B,2.0
3,5.7790000438690186,learn,54220.99995613098,Wed Apr 23 2025 15:42:10 GMT-0500 (Central Daylight Time),434831.7000000002,A,c,I,c,530,3,549.7000000001863,434282.0,8008,WL,B,3.0
3,5.996000051498413,learn,54003.99994850159,Wed Apr 23 2025 15:42:10 GMT-0500 (Central Daylight Time),435048.5,A,cl,I,l,197,3,766.5,434282.0,8008,WL,B,3.0
3,6.2790000438690186,learn,53720.99995613098,Wed Apr 23 2025 15:42:10 GMT-0500 (Central Daylight Time),435331.4000000004,A,clo,I,o,277,3,1049.4000000003725,434282.0,8008,WL,B,3.0
3,6.5970001220703125,learn,53402.99987792969,Wed Apr 23 2025 15:42:10 GMT-0500 (Central Daylight Time),435649.2000000002,A,cloc,I,c,296,3,1367.2000000001863,434282.0,8008,WL,B,3.0
3,6.759999990463257,learn,53240.00000953674,Wed Apr 23 2025 15:42:10 GMT-0500 (Central Daylight Time),435812.9000000004,A,clock,I,k,145,3,1530.9000000003725,434282.0,8008,WL,B,3.0
3,7.230000019073486,learn,52769.999980926514,Wed Apr 23 2025 15:42:10 GMT-0500 (Central Daylight Time),436282.2999999998,A,clockenter,I,enter,454,3,2000.2999999998137,434282.0,8008,WL,B,3.0
3,7.880000114440918,learn,52119.99988555908,Wed Apr 23 2025 15:42:10 GMT-0500 (Central Daylight Time),436932.7999999998,A,p,I,p,646,3,650.2999999998137,436282.5,8008,WL,B,4.0
3,8.32800006866455,learn,51671.99993133545,Wed Apr 23 2025 15:42:10 GMT-0500 (Central Daylight Time),437380.9000000004,A,pi,I,i,440,3,1098.4000000003725,436282.5,8008,WL,B,4.0
3,8.661999940872192,learn,51338.00005912781,Wed Apr 23 2025 15:42:10 GMT-0500 (Central Daylight Time),437715.0,A,pip,I,p,319,3,1432.5,436282.5,8008,WL,B,4.0
3,9.212000131607056,learn,50787.999868392944,Wed Apr 23 2025 15:42:10 GMT-0500 (Central Daylight Time),438264.4000000004,A,pipe,I,e,526,3,1981.9000000003725,436282.5,8008,WL,B,4.0
3,9.561000108718872,learn,50438.99989128113,Wed Apr 23 2025 15:42:10 GMT-0500 (Central Daylight Time),438613.5,A,pipeenter,I,enter,330,3,2331.0,436282.5,8008,WL,B,4.0
3,10.061000108718872,learn,49938.99989128113,Wed Apr 23 2025 15:42:10 GMT-0500 (Central Daylight Time),439113.60000000056,A,w,I,w,488,3,499.80000000074506,438613.7999999998,8008,WL,B,5.0
3,10.361000061035156,learn,49638.999938964844,Wed Apr 23 2025 15:42:10 GMT-0500 (Central Daylight Time),439413.5,A,wi,I,i,282,3,799.7000000001863,438613.7999999998,8008,WL,B,5.0
3,10.730000019073486,learn,49269.999980926514,Wed Apr 23 2025 15:42:10 GMT-0500 (Central Daylight Time),439782.2999999998,A,wif,I,f,350,3,1168.5,438613.7999999998,8008,WL,B,5.0
3,10.977999925613403,learn,49022.0000743866,Wed Apr 23 2025 15:42:10 GMT-0500 (Central Daylight Time),440030.7000000002,A,wife,I,e,228,3,1416.9000000003725,438613.7999999998,8008,WL,B,5.0
3,11.377000093460083,learn,48622.99990653992,Wed Apr 23 2025 15:42:10 GMT-0500 (Central Daylight Time),440429.5,A,wifeenter,I,enter,381,3,1815.7000000001863,438613.7999999998,8008,WL,B,5.0
3,12.026999950408936,learn,47973.000049591064,Wed Apr 23 2025 15:42:10 GMT-0500 (Central Daylight Time),441079.2999999998,A,s,I,s,638,3,649.5999999996275,440429.7000000002,8008,WL,B,6.0
3,12.278000116348267,learn,47721.99988365173,Wed Apr 23 2025 15:42:10 GMT-0500 (Central Daylight Time),441331.0,A,st,I,t,230,3,901.2999999998137,440429.7000000002,8008,WL,B,6.0
3,12.543999910354614,learn,47456.000089645386,Wed Apr 23 2025 15:42:10 GMT-0500 (Central Daylight Time),441596.4000000004,A,sta,I,a,248,3,1166.7000000001863,440429.7000000002,8008,WL,B,6.0
3,12.760999917984009,learn,47239.00008201599,Wed Apr 23 2025 15:42:10 GMT-0500 (Central Daylight Time),441813.2000000002,A,star,I,r,208,3,1383.5,440429.7000000002,8008,WL,B,6.0
3,13.808000087738037,learn,46191.99991226196,Wed Apr 23 2025 15:42:10 GMT-0500 (Central Daylight Time),442861.0,A,starenter,I,enter,1029,3,2431.2999999998137,440429.7000000002,8008,WL,B,6.0
3,14.443000078201294,learn,45556.999921798706,Wed Apr 23 2025 15:42:10 GMT-0500 (Central Daylight Time),443495.7999999998,A,a,I,a,615,3,634.5,442861.2999999998,8008,WL,B,7.0
3,14.861999988555908,learn,45138.00001144409,Wed Apr 23 2025 15:42:10 GMT-0500 (Central Daylight Time),443915.0,A,ar,I,r,413,3,1053.7000000001863,442861.2999999998,8008,WL,B,7.0
3,15.776999950408936,learn,44223.000049591064,Wed Apr 23 2025 15:42:10 GMT-0500 (Central Daylight Time),444829.5,A,arm,I,m,894,3,1968.2000000001863,442861.2999999998,8008,WL,B,7.0
3,16.7260000705719,learn,43273.9999294281,Wed Apr 23 2025 15:42:10 GMT-0500 (Central Daylight Time),445779.0,A,armenter,I,enter,930,3,2917.7000000001863,442861.2999999998,8008,WL,B,7.0
3,17.35800004005432,learn,42641.99995994568,Wed Apr 23 2025 15:42:10 GMT-0500 (Central Daylight Time),446411.10000000056,A,g,I,g,612,3,631.8000000007451,445779.2999999998,8008,WL,B,8.0
3,17.624000072479248,learn,42375.99992752075,Wed Apr 23 2025 15:42:10 GMT-0500 (Central Daylight Time),446677.0,A,gr,I,r,255,3,897.7000000001863,445779.2999999998,8008,WL,B,8.0
3,18.125999927520752,learn,41874.00007247925,Wed Apr 23 2025 15:42:10 GMT-0500 (Central Daylight Time),447178.9000000004,A,gra,I,a,488,3,1399.6000000005588,445779.2999999998,8008,WL,B,8.0
3,18.52500009536743,learn,41474.99990463257,Wed Apr 23 2025 15:42:10 GMT-0500 (Central Daylight Time),447578.10000000056,A,gras,I,s,378,3,1798.800000000745,445779.2999999998,8008,WL,B,8.0
3,18.743000030517578,learn,41256.99996948242,Wed Apr 23 2025 15:42:10 GMT-0500 (Central Daylight Time),447795.2999999998,A,grass,I,s,194,3,2016.0,445779.2999999998,8008,WL,B,8.0
3,19.04100012779236,learn,40958.99987220764,Wed Apr 23 2025 15:42:10 GMT-0500 (Central Daylight Time),448093.7999999998,A,grassenter,I,enter,280,3,2314.5,445779.2999999998,8008,WL,B,8.0
3,20.009000062942505,learn,39990.999937057495,Wed Apr 23 2025 15:42:10 GMT-0500 (Central Daylight Time),449061.60000000056,A,w,I,w,949,3,967.6000000005588,448094.0,8008,WL,B,9.0
3,20.35800004005432,learn,39641.99995994568,Wed Apr 23 2025 15:42:10 GMT-0500 (Central Daylight Time),449411.10000000056,A,wi,I,i,334,3,1317.1000000005588,448094.0,8008,WL,B,9.0
3,20.691999912261963,learn,39308.00008773804,Wed Apr 23 2025 15:42:10 GMT-0500 (Central Daylight Time),449744.2000000002,A,win,I,n,320,3,1650.2000000001863,448094.0,8008,WL,B,9.0
3,21.058000087738037,learn,38941.99991226196,Wed Apr 23 2025 15:42:10 GMT-0500 (Central Daylight Time),450110.4000000004,A,wind,I,d,347,3,2016.4000000003725,448094.0,8008,WL,B,9.0
3,21.289999961853027,learn,38710.00003814697,Wed Apr 23 2025 15:42:10 GMT-0500 (Central Daylight Time),450343.10000000056,A,windo,I,o,222,3,2249.100000000559,448094.0,8008,WL,B,9.0
3,21.592000007629395,learn,38407.999992370605,Wed Apr 23 2025 15:42:10 GMT-0500 (Central Daylight Time),450644.60000000056,A,window,I,w,281,3,2550.600000000559,448094.0,8008,WL,B,9.0
3,21.990999937057495,learn,38009.000062942505,Wed Apr 23 2025 15:42:10 GMT-0500 (Central Daylight Time),451043.7999999998,A,windowenter,I,enter,383,3,2949.7999999998137,448094.0,8008,WL,B,9.0
3,30.888000011444092,learn,29111.99998855591,Wed Apr 23 2025 15:42:10 GMT-0500 (Central Daylight Time),459940.7999999998,A,c,I,c,8891,3,8896.599999999627,451044.2000000002,8008,WL,B,10.0
3,31.286999940872192,learn,28713.000059127808,Wed Apr 23 2025 15:42:10 GMT-0500 (Central Daylight Time),460340.0,A,ca,I,a,382,3,9295.799999999814,451044.2000000002,8008,WL,B,10.0
3,31.70300006866455,learn,28296.99993133545,Wed Apr 23 2025 15:42:10 GMT-0500 (Central Daylight Time),460756.2000000002,A,cab,I,b,407,3,9712.0,451044.2000000002,8008,WL,B,10.0
3,32.019999980926514,learn,27980.000019073486,Wed Apr 23 2025 15:42:10 GMT-0500 (Central Daylight Time),461073.10000000056,A,cabi,I,i,295,3,10028.900000000373,451044.2000000002,8008,WL,B,10.0
3,32.319000005722046,learn,27680.999994277954,Wed Apr 23 2025 15:42:10 GMT-0500 (Central Daylight Time),461371.2000000002,A,cabin,I,n,291,3,10327.0,451044.2000000002,8008,WL,B,10.0
3,32.78600001335144,learn,27213.99998664856,Wed Apr 23 2025 15:42:10 GMT-0500 (Central Daylight Time),461839.10000000056,A,cabinenter,I,enter,457,3,10794.900000000373,451044.2000000002,8008,WL,B,10.0
3,33.486000061035156,learn,26513.999938964844,Wed Apr 23 2025 15:42:10 GMT-0500 (Central Daylight Time),462538.60000000056,A,l,I,l,686,3,699.3000000007451,461839.2999999998,8008,WL,B,11.0
3,33.87000012397766,learn,26129.99987602234,Wed Apr 23 2025 15:42:10 GMT-0500 (Central Daylight Time),462922.2999999998,A,la,I,a,371,3,1083.0,461839.2999999998,8008,WL,B,11.0
3,34.20099997520447,learn,25799.000024795532,Wed Apr 23 2025 15:42:10 GMT-0500 (Central Daylight Time),463253.4000000004,A,lak,I,k,311,3,1414.1000000005588,461839.2999999998,8008,WL,B,11.0
3,34.58500003814697,learn,25414.999961853027,Wed Apr 23 2025 15:42:10 GMT-0500 (Central Daylight Time),463638.10000000056,A,lake,I,e,367,3,1798.800000000745,461839.2999999998,8008,WL,B,11.0
3,35.051000118255615,learn,24948.999881744385,Wed Apr 23 2025 15:42:10 GMT-0500 (Central Daylight Time),464103.7999999998,A,lakeenter,I,enter,455,3,2264.5,461839.2999999998,8008,WL,B,11.0
3,40.31699991226196,learn,19683.000087738037,Wed Apr 23 2025 15:42:10 GMT-0500 (Central Daylight Time),469369.2000000002,A,c,I,c,5247,3,5265.299999999814,464103.9000000004,8008,WL,B,12.0
3,40.70099997520447,learn,19299.000024795532,Wed Apr 23 2025 15:42:10 GMT-0500 (Central Daylight Time),469753.9000000004,A,ci,I,i,373,3,5650.0,464103.9000000004,8008,WL,B,12.0
3,41.21499991416931,learn,18785.00008583069,Wed Apr 23 2025 15:42:10 GMT-0500 (Central Daylight Time),470268.0,A,cit,I,t,506,3,6164.0999999996275,464103.9000000004,8008,WL,B,12.0
3,41.449000120162964,learn,18550.999879837036,Wed Apr 23 2025 15:42:10 GMT-0500 (Central Daylight Time),470502.0,A,city,I,y,216,3,6398.0999999996275,464103.9000000004,8008,WL,B,12.0
3,41.88300013542175,learn,18116.999864578247,Wed Apr 23 2025 15:42:10 GMT-0500 (Central Daylight Time),470936.10000000056,A,cityenter,I,enter,420,3,6832.200000000186,464103.9000000004,8008,WL,B,12.0
3,50.562999963760376,learn,9437.000036239624,Wed Apr 23 2025 15:42:10 GMT-0500 (Central Daylight Time),479616.0,A,a,I,a,8677,3,8679.700000000186,470936.2999999998,8008,WL,B,13.0
3,51.0789999961853,learn,8921.000003814697,Wed Apr 23 2025 15:42:10 GMT-0500 (Central Daylight Time),480132.0,A,ar,I,r,500,3,9195.700000000186,470936.2999999998,8008,WL,B,13.0
3,51.38000011444092,learn,8619.999885559082,Wed Apr 23 2025 15:42:10 GMT-0500 (Central Daylight Time),480433.2999999998,A,arm,I,m,289,3,9497.0,470936.2999999998,8008,WL,B,13.0
3,51.86199998855591,learn,8138.000011444092,Wed Apr 23 2025 15:42:10 GMT-0500 (Central Daylight Time),480914.9000000004,A,armenter,I,enter,475,3,9978.600000000559,470936.2999999998,8008,WL,B,13.0
3,52.31100010871887,learn,7688.999891281128,Wed Apr 23 2025 15:42:10 GMT-0500 (Central Daylight Time),481364.2999999998,A,s,I,s,434,3,449.29999999981374,480915.0,8008,WL,B,14.0
3,52.61299991607666,learn,7387.00008392334,Wed Apr 23 2025 15:42:10 GMT-0500 (Central Daylight Time),481665.5,A,sk,I,k,288,3,750.5,480915.0,8008,WL,B,14.0
3,52.979000091552734,learn,7020.999908447266,Wed Apr 23 2025 15:42:10 GMT-0500 (Central Daylight Time),482032.2000000002,A,ski,I,i,347,3,1117.2000000001863,480915.0,8008,WL,B,14.0
3,53.295000076293945,learn,6704.999923706055,Wed Apr 23 2025 15:42:10 GMT-0500 (Central Daylight Time),482347.60000000056,A,skin,I,n,300,3,1432.6000000005588,480915.0,8008,WL,B,14.0
3,54.543999910354614,learn,5456.000089645386,Wed Apr 23 2025 15:42:10 GMT-0500 (Central Daylight Time),483597.10000000056,A,skinenter,I,enter,1233,3,2682.100000000559,480915.0,8008,WL,B,14.0
3,57.2279999256134,learn,2772.0000743865967,Wed Apr 23 2025 15:42:10 GMT-0500 (Central Daylight Time),486281.10000000056,A,enter,I,enter,2672,3,2683.800000000745,483597.2999999998,8008,WL,B,15.0
4,2.7660000324249268,learn,57233.99996757507,Wed Apr 23 2025 15:42:10 GMT-0500 (Central Daylight Time),557473.9000000004,A,s,I,s,2761,3,2765.7000000001863,554708.2000000002,8008,WL,B,1.0
4,3.5829999446868896,learn,56417.00005531311,Wed Apr 23 2025 15:42:10 GMT-0500 (Central Daylight Time),558291.1000000006,A,st,I,t,804,3,3582.9000000003725,554708.2000000002,8008,WL,B,1.0
4,3.9160001277923584,learn,56083.99987220764,Wed Apr 23 2025 15:42:10 GMT-0500 (Central Daylight Time),558623.7000000002,A,str,I,r,322,3,3915.5,554708.2000000002,8008,WL,B,1.0
4,4.299000024795532,learn,55700.99997520447,Wed Apr 23 2025 15:42:10 GMT-0500 (Central Daylight Time),559007.0,A,stre,I,e,373,3,4298.799999999814,554708.2000000002,8008,WL,B,1.0
4,4.482000112533569,learn,55517.99988746643,Wed Apr 23 2025 15:42:10 GMT-0500 (Central Daylight Time),559189.7000000002,A,stree,I,e,166,3,4481.5,554708.2000000002,8008,WL,B,1.0
4,4.697999954223633,learn,55302.00004577637,Wed Apr 23 2025 15:42:10 GMT-0500 (Central Daylight Time),559406.4000000004,A,street,I,t,207,3,4698.200000000186,554708.2000000002,8008,WL,B,1.0
4,5.29800009727478,learn,54701.99990272522,Wed Apr 23 2025 15:42:10 GMT-0500 (Central Daylight Time),560006.5,A,streetenter,I,enter,590,3,5298.299999999814,554708.2000000002,8008,WL,B,1.0
4,6.016999959945679,learn,53983.00004005432,Wed Apr 23 2025 15:42:10 GMT-0500 (Central Daylight Time),560725.0,A,g,I,g,700,3,718.2000000001863,560006.7999999998,8008,WL,B,2.0
4,6.252000093460083,learn,53747.99990653992,Wed Apr 23 2025 15:42:10 GMT-0500 (Central Daylight Time),560959.7999999998,A,gr,I,r,217,3,953.0,560006.7999999998,8008,WL,B,2.0
4,6.736000061035156,learn,53263.999938964844,Wed Apr 23 2025 15:42:10 GMT-0500 (Central Daylight Time),561444.4000000004,A,gra,I,a,468,3,1437.6000000005588,560006.7999999998,8008,WL,B,2.0
4,7.1519999504089355,learn,52848.000049591064,Wed Apr 23 2025 15:42:10 GMT-0500 (Central Daylight Time),561860.2000000002,A,gras,I,s,407,3,1853.4000000003725,560006.7999999998,8008,WL,B,2.0
4,7.364000082015991,learn,52635.99991798401,Wed Apr 23 2025 15:42:10 GMT-0500 (Central Daylight Time),562072.4000000004,A,grass,I,s,201,3,2065.600000000559,560006.7999999998,8008,WL,B,2.0
4,7.851000070571899,learn,52148.9999294281,Wed Apr 23 2025 15:42:10 GMT-0500 (Central Daylight Time),562558.9000000004,A,grassenter,I,enter,468,3,2552.100000000559,560006.7999999998,8008,WL,B,2.0
4,8.730999946594238,learn,51269.00005340576,Wed Apr 23 2025 15:42:10 GMT-0500 (Central Daylight Time),563439.4000000004,A,w,I,w,858,3,879.7999999998137,562559.6000000006,8008,WL,B,3.0
4,8.949000120162964,learn,51050.999879837036,Wed Apr 23 2025 15:42:10 GMT-0500 (Central Daylight Time),563656.9000000004,A,wi,I,i,214,3,1097.2999999998137,562559.6000000006,8008,WL,B,3.0
4,9.199000120162964,learn,50800.999879837036,Wed Apr 23 2025 15:42:10 GMT-0500 (Central Daylight Time),563906.9000000004,A,win,I,n,236,3,1347.2999999998137,562559.6000000006,8008,WL,B,3.0
4,9.480000019073486,learn,50519.999980926514,Wed Apr 23 2025 15:42:10 GMT-0500 (Central Daylight Time),564188.1000000006,A,wind,I,d,264,3,1628.5,562559.6000000006,8008,WL,B,3.0
4,9.713000059127808,learn,50286.99994087219,Wed Apr 23 2025 15:42:10 GMT-0500 (Central Daylight Time),564421.6000000006,A,windo,I,o,216,3,1862.0,562559.6000000006,8008,WL,B,3.0
4,9.96399998664856,learn,50036.00001335144,Wed Apr 23 2025 15:42:10 GMT-0500 (Central Daylight Time),564672.1000000006,A,window,I,w,231,3,2112.5,562559.6000000006,8008,WL,B,3.0
4,10.79800009727478,learn,49201.99990272522,Wed Apr 23 2025 15:42:10 GMT-0500 (Central Daylight Time),565505.9000000004,A,windowenter,I,enter,815,3,2946.2999999998137,562559.6000000006,8008,WL,B,3.0
4,11.27999997138977,learn,48720.00002861023,Wed Apr 23 2025 15:42:10 GMT-0500 (Central Daylight Time),565987.7999999998,A,d,I,d,467,3,481.69999999925494,565506.1000000006,8008,WL,B,4.0
4,11.562999963760376,learn,48437.000036239624,Wed Apr 23 2025 15:42:10 GMT-0500 (Central Daylight Time),566270.7999999998,A,do,I,o,265,3,764.6999999992549,565506.1000000006,8008,WL,B,4.0
4,11.746000051498413,learn,48253.99994850159,Wed Apr 23 2025 15:42:10 GMT-0500 (Central Daylight Time),566454.4000000004,A,doo,I,o,166,3,948.2999999998137,565506.1000000006,8008,WL,B,4.0
4,11.980000019073486,learn,48019.999980926514,Wed Apr 23 2025 15:42:10 GMT-0500 (Central Daylight Time),566688.5,A,door,I,r,214,3,1182.3999999994412,565506.1000000006,8008,WL,B,4.0
4,12.746000051498413,learn,47253.99994850159,Wed Apr 23 2025 15:42:10 GMT-0500 (Central Daylight Time),567453.7999999998,A,doorenter,I,enter,756,3,1947.699999999255,565506.1000000006,8008,WL,B,4.0
4,13.128999948501587,learn,46871.00005149841,Wed Apr 23 2025 15:42:10 GMT-0500 (Central Daylight Time),567837.2999999998,A,a,I,a,367,3,383.29999999981374,567454.0,8008,WL,B,5.0
4,13.67900013923645,learn,46320.99986076355,Wed Apr 23 2025 15:42:10 GMT-0500 (Central Daylight Time),568386.6000000006,A,ar,I,r,543,3,932.6000000005588,567454.0,8008,WL,B,5.0
4,14.029000043869019,learn,45970.99995613098,Wed Apr 23 2025 15:42:10 GMT-0500 (Central Daylight Time),568737.0,A,arm,I,m,346,3,1283.0,567454.0,8008,WL,B,5.0
4,15.196000099182129,learn,44803.99990081787,Wed Apr 23 2025 15:42:10 GMT-0500 (Central Daylight Time),569904.2999999998,A,armenter,I,enter,1163,3,2450.2999999998137,567454.0,8008,WL,B,5.0
4,15.92900013923645,learn,44070.99986076355,Wed Apr 23 2025 15:42:10 GMT-0500 (Central Daylight Time),570637.5,A,c,I,c,724,3,733.0,569904.5,8008,WL,B,6.0
4,16.146000146865845,learn,43853.999853134155,Wed Apr 23 2025 15:42:10 GMT-0500 (Central Daylight Time),570854.2000000002,A,ci,I,i,199,3,949.7000000001863,569904.5,8008,WL,B,6.0
4,16.578999996185303,learn,43421.0000038147,Wed Apr 23 2025 15:42:10 GMT-0500 (Central Daylight Time),571286.9000000004,A,cit,I,t,414,3,1382.4000000003725,569904.5,8008,WL,B,6.0
4,16.729000091552734,learn,43270.999908447266,Wed Apr 23 2025 15:42:10 GMT-0500 (Central Daylight Time),571437.4000000004,A,city,I,y,142,3,1532.9000000003725,569904.5,8008,WL,B,6.0
4,17.311000108718872,learn,42688.99989128113,Wed Apr 23 2025 15:42:10 GMT-0500 (Central Daylight Time),572019.4000000004,A,cityenter,I,enter,575,3,2114.9000000003725,569904.5,8008,WL,B,6.0
4,18.194000005722046,learn,41805.999994277954,Wed Apr 23 2025 15:42:10 GMT-0500 (Central Daylight Time),572902.4000000004,A,p,I,p,873,3,882.7000000001863,572019.7000000002,8008,WL,B,7.0
4,19.044000148773193,learn,40955.99985122681,Wed Apr 23 2025 15:42:10 GMT-0500 (Central Daylight Time),573752.2999999998,A,pu,I,u,838,3,1732.5999999996275,572019.7000000002,8008,WL,B,7.0
4,19.52900004386902,learn,40470.99995613098,Wed Apr 23 2025 15:42:10 GMT-0500 (Central Daylight Time),574236.7999999998,A,pup,I,p,476,3,2217.0999999996275,572019.7000000002,8008,WL,B,7.0
4,19.877000093460083,learn,40122.99990653992,Wed Apr 23 2025 15:42:10 GMT-0500 (Central Daylight Time),574585.1000000006,A,pupi,I,i,336,3,2565.4000000003725,572019.7000000002,8008,WL,B,7.0
4,20.311000108718872,learn,39688.99989128113,Wed Apr 23 2025 15:42:10 GMT-0500 (Central Daylight Time),575018.7999999998,A,pupil,I,l,427,3,2999.0999999996275,572019.7000000002,8008,WL,B,7.0
4,21.05999994277954,learn,38940.00005722046,Wed Apr 23 2025 15:42:10 GMT-0500 (Central Daylight Time),575768.0,A,pupilenter,I,enter,731,3,3748.2999999998137,572019.7000000002,8008,WL,B,7.0
4,21.861000061035156,learn,38138.999938964844,Wed Apr 23 2025 15:42:10 GMT-0500 (Central Daylight Time),576568.7000000002,A,f,I,f,781,3,800.5,575768.2000000002,8008,WL,B,8.0
4,22.375999927520752,learn,37624.00007247925,Wed Apr 23 2025 15:42:10 GMT-0500 (Central Daylight Time),577084.5,A,fi,I,i,500,3,1316.2999999998137,575768.2000000002,8008,WL,B,8.0
4,22.694000005722046,learn,37305.999994277954,Wed Apr 23 2025 15:42:10 GMT-0500 (Central Daylight Time),577401.9000000004,A,fir,I,r,298,3,1633.7000000001863,575768.2000000002,8008,WL,B,8.0
4,22.860000133514404,learn,37139.999866485596,Wed Apr 23 2025 15:42:10 GMT-0500 (Central Daylight Time),577568.1000000006,A,fire,I,e,147,3,1799.9000000003725,575768.2000000002,8008,WL,B,8.0
4,23.625999927520752,learn,36374.00007247925,Wed Apr 23 2025 15:42:10 GMT-0500 (Central Daylight Time),578334.2000000002,A,fireenter,I,enter,756,3,2566.0,575768.2000000002,8008,WL,B,8.0
4,24.259000062942505,learn,35740.999937057495,Wed Apr 23 2025 15:42:10 GMT-0500 (Central Daylight Time),578966.7999999998,A,s,I,s,614,3,632.3999999994412,578334.4000000004,8008,WL,B,9.0
4,24.509000062942505,learn,35490.999937057495,Wed Apr 23 2025 15:42:10 GMT-0500 (Central Daylight Time),579217.4000000004,A,sk,I,k,238,3,883.0,578334.4000000004,8008,WL,B,9.0
4,24.8270001411438,learn,35172.9998588562,Wed Apr 23 2025 15:42:10 GMT-0500 (Central Daylight Time),579534.7000000002,A,ski,I,i,307,3,1200.2999999998137,578334.4000000004,8008,WL,B,9.0
4,25.094000101089478,learn,34905.99989891052,Wed Apr 23 2025 15:42:10 GMT-0500 (Central Daylight Time),579801.7000000002,A,skin,I,n,247,3,1467.2999999998137,578334.4000000004,8008,WL,B,9.0
4,25.85800004005432,learn,34141.99995994568,Wed Apr 23 2025 15:42:10 GMT-0500 (Central Daylight Time),580566.2999999998,A,skinenter,I,enter,747,3,2231.899999999441,578334.4000000004,8008,WL,B,9.0
4,27.625,learn,32375.0,Wed Apr 23 2025 15:42:10 GMT-0500 (Central Daylight Time),582332.6000000006,A,w,I,w,1750,3,1766.0,580566.6000000006,8008,WL,B,10.0
4,27.841000080108643,learn,32158.999919891357,Wed Apr 23 2025 15:42:10 GMT-0500 (Central Daylight Time),582549.1000000006,A,wi,I,i,208,3,1982.5,580566.6000000006,8008,WL,B,10.0
4,28.14199995994568,learn,31858.00004005432,Wed Apr 23 2025 15:42:10 GMT-0500 (Central Daylight Time),582849.9000000004,A,wif,I,f,281,3,2283.2999999998137,580566.6000000006,8008,WL,B,10.0
4,28.44099998474121,learn,31559.00001525879,Wed Apr 23 2025 15:42:10 GMT-0500 (Central Daylight Time),583149.5,A,wife,I,e,291,3,2582.899999999441,580566.6000000006,8008,WL,B,10.0
4,28.742000102996826,learn,31257.999897003174,Wed Apr 23 2025 15:42:10 GMT-0500 (Central Daylight Time),583450.0,A,wifeenter,I,enter,280,3,2883.399999999441,580566.6000000006,8008,WL,B,10.0
4,29.259000062942505,learn,30740.999937057495,Wed Apr 23 2025 15:42:10 GMT-0500 (Central Daylight Time),583966.7000000002,A,s,I,s,507,3,516.4000000003725,583450.2999999998,8008,WL,B,11.0
4,29.490999937057495,learn,30509.000062942505,Wed Apr 23 2025 15:42:10 GMT-0500 (Central Daylight Time),584198.7000000002,A,st,I,t,214,3,748.4000000003725,583450.2999999998,8008,WL,B,11.0
4,29.70799994468689,learn,30292.00005531311,Wed Apr 23 2025 15:42:10 GMT-0500 (Central Daylight Time),584416.2000000002,A,sta,I,a,198,3,965.9000000003725,583450.2999999998,8008,WL,B,11.0
4,29.924999952316284,learn,30075.000047683716,Wed Apr 23 2025 15:42:10 GMT-0500 (Central Daylight Time),584633.2000000002,A,star,I,r,198,3,1182.9000000003725,583450.2999999998,8008,WL,B,11.0
4,31.140000104904175,learn,28859.999895095825,Wed Apr 23 2025 15:42:10 GMT-0500 (Central Daylight Time),585848.2999999998,A,starenter,I,enter,1204,3,2398.0,583450.2999999998,8008,WL,B,11.0
4,31.824000120162964,learn,28175.999879837036,Wed Apr 23 2025 15:42:10 GMT-0500 (Central Daylight Time),586532.2000000002,A,c,I,c,677,3,683.7000000001863,585848.5,8008,WL,B,12.0
4,32.407999992370605,learn,27592.000007629395,Wed Apr 23 2025 15:42:10 GMT-0500 (Central Daylight Time),587115.7999999998,A,ca,I,a,577,3,1267.2999999998137,585848.5,8008,WL,B,12.0
4,32.706000089645386,learn,27293.999910354614,Wed Apr 23 2025 15:42:10 GMT-0500 (Central Daylight Time),587414.5,A,cab,I,b,281,3,1566.0,585848.5,8008,WL,B,12.0
4,33.00699996948242,learn,26993.000030517578,Wed Apr 23 2025 15:42:10 GMT-0500 (Central Daylight Time),587715.4000000004,A,cabi,I,i,286,3,1866.9000000003725,585848.5,8008,WL,B,12.0
4,33.50600004196167,learn,26493.99995803833,Wed Apr 23 2025 15:42:10 GMT-0500 (Central Daylight Time),588214.2999999998,A,cabin,I,n,481,3,2365.7999999998137,585848.5,8008,WL,B,12.0
4,34.67300009727478,learn,25326.99990272522,Wed Apr 23 2025 15:42:10 GMT-0500 (Central Daylight Time),589381.4000000004,A,cabinenter,I,enter,1159,3,3532.9000000003725,585848.5,8008,WL,B,12.0
4,35.28999996185303,learn,24710.000038146973,Wed Apr 23 2025 15:42:10 GMT-0500 (Central Daylight Time),589997.9000000004,A,l,I,l,607,3,616.2999999998137,589381.6000000006,8008,WL,B,13.0
4,35.8050000667572,learn,24194.999933242798,Wed Apr 23 2025 15:42:10 GMT-0500 (Central Daylight Time),590513.4000000004,A,la,I,a,511,3,1131.7999999998137,589381.6000000006,8008,WL,B,13.0
4,36.07200002670288,learn,23927.99997329712,Wed Apr 23 2025 15:42:10 GMT-0500 (Central Daylight Time),590780.0,A,lak,I,k,259,3,1398.3999999994412,589381.6000000006,8008,WL,B,13.0
4,36.4060001373291,learn,23593.9998626709,Wed Apr 23 2025 15:42:10 GMT-0500 (Central Daylight Time),591113.9000000004,A,lake,I,e,321,3,1732.2999999998137,589381.6000000006,8008,WL,B,13.0
4,37.473000049591064,learn,22526.999950408936,Wed Apr 23 2025 15:42:10 GMT-0500 (Central Daylight Time),592180.9000000004,A,lakeenter,I,enter,1051,3,2799.2999999998137,589381.6000000006,8008,WL,B,13.0
4,39.03800010681152,learn,20961.999893188477,Wed Apr 23 2025 15:42:10 GMT-0500 (Central Daylight Time),593745.7999999998,A,c,I,c,1559,3,1564.699999999255,592181.1000000006,8008,WL,B,14.0
4,39.42199993133545,learn,20578.00006866455,Wed Apr 23 2025 15:42:10 GMT-0500 (Central Daylight Time),594130.6000000006,A,ci,I,i,379,3,1949.5,592181.1000000006,8008,WL,B,14.0
4,39.837000131607056,learn,20162.999868392944,Wed Apr 23 2025 15:42:10 GMT-0500 (Central Daylight Time),594545.5,A,cit,I,t,402,3,2364.399999999441,592181.1000000006,8008,WL,B,14.0
4,40.05400013923645,learn,19945.99986076355,Wed Apr 23 2025 15:42:10 GMT-0500 (Central Daylight Time),594761.7999999998,A,city,I,y,211,3,2580.699999999255,592181.1000000006,8008,WL,B,14.0
4,41.03800010681152,learn,18961.999893188477,Wed Apr 23 2025 15:42:10 GMT-0500 (Central Daylight Time),595746.2999999998,A,cityenter,I,enter,971,3,3565.199999999255,592181.1000000006,8008,WL,B,14.0
4,52.83299994468689,learn,7167.00005531311,Wed Apr 23 2025 15:42:10 GMT-0500 (Central Daylight Time),607541.2999999998,A,s,I,s,11778,3,11794.799999999814,595746.5,8008,WL,B,15.0
4,53.08400011062622,learn,6915.999889373779,Wed Apr 23 2025 15:42:10 GMT-0500 (Central Daylight Time),607792.1000000006,A,st,I,t,239,3,12045.600000000559,595746.5,8008,WL,B,15.0
4,53.282999992370605,learn,6717.0000076293945,Wed Apr 23 2025 15:42:10 GMT-0500 (Central Daylight Time),607991.2000000002,A,sta,I,a,181,3,12244.700000000186,595746.5,8008,WL,B,15.0
4,53.519999980926514,learn,6480.000019073486,Wed Apr 23 2025 15:42:10 GMT-0500 (Central Daylight Time),608228.4000000004,A,star,I,r,218,3,12481.900000000373,595746.5,8008,WL,B,15.0
4,54.13300013542175,learn,5866.999864578247,Wed Apr 23 2025 15:42:10 GMT-0500 (Central Daylight Time),608841.5,A,starenter,I,enter,609,3,13095.0,595746.5,8008,WL,B,15.0
5,1.433000087738037,learn,60000.0,Wed Apr 23 2025 15:42:10 GMT-0500 (Central Daylight Time),676835.4000000004,A,c,I,c,1418,3,1433.0,675402.4000000004,8008,WL,B,1.0
5,1.75,learn,60000.0,Wed Apr 23 2025 15:42:10 GMT-0500 (Central Daylight Time),677152.2999999998,A,cl,I,l,296,3,1749.8999999994412,675402.4000000004,8008,WL,B,1.0
5,2.0829999446868896,learn,60000.0,Wed Apr 23 2025 15:42:10 GMT-0500 (Central Daylight Time),677485.1000000006,A,clo,I,o,316,3,2082.7000000001863,675402.4000000004,8008,WL,B,1.0
5,2.4000000953674316,learn,60000.0,Wed Apr 23 2025 15:42:10 GMT-0500 (Central Daylight Time),677802.0,A,cloc,I,c,303,3,2399.5999999996275,675402.4000000004,8008,WL,B,1.0
5,2.565999984741211,learn,60000.0,Wed Apr 23 2025 15:42:10 GMT-0500 (Central Daylight Time),677968.4000000004,A,clock,I,k,154,3,2566.0,675402.4000000004,8008,WL,B,1.0
5,3.3550000190734863,learn,60000.0,Wed Apr 23 2025 15:42:10 GMT-0500 (Central Daylight Time),678757.5,A,clockenter,I,enter,772,3,3355.0999999996275,675402.4000000004,8008,WL,B,1.0
5,3.9660000801086426,learn,60000.0,Wed Apr 23 2025 15:42:10 GMT-0500 (Central Daylight Time),679368.4000000004,A,s,I,s,599,3,610.2999999998137,678758.1000000006,8008,WL,B,2.0
5,4.249000072479248,learn,60000.0,Wed Apr 23 2025 15:42:10 GMT-0500 (Central Daylight Time),679651.2000000002,A,sk,I,k,276,3,893.0999999996275,678758.1000000006,8008,WL,B,2.0
5,4.631999969482422,learn,60000.0,Wed Apr 23 2025 15:42:10 GMT-0500 (Central Daylight Time),680034.4000000004,A,ski,I,i,369,3,1276.2999999998137,678758.1000000006,8008,WL,B,2.0
5,4.982000112533569,learn,60000.0,Wed Apr 23 2025 15:42:10 GMT-0500 (Central Daylight Time),680384.5,A,skin,I,n,346,3,1626.3999999994412,678758.1000000006,8008,WL,B,2.0
5,5.631999969482422,learn,60000.0,Wed Apr 23 2025 15:42:10 GMT-0500 (Central Daylight Time),681034.4000000004,A,skinenter,I,enter,644,3,2276.2999999998137,678758.1000000006,8008,WL,B,2.0
5,6.266000032424927,learn,60000.0,Wed Apr 23 2025 15:42:10 GMT-0500 (Central Daylight Time),681668.5,A,f,I,f,618,3,634.0,681034.5,8008,WL,B,3.0
5,6.482000112533569,learn,60000.0,Wed Apr 23 2025 15:42:10 GMT-0500 (Central Daylight Time),681884.7999999998,A,fi,I,i,208,3,850.2999999998137,681034.5,8008,WL,B,3.0
5,6.8480000495910645,learn,60000.0,Wed Apr 23 2025 15:42:10 GMT-0500 (Central Daylight Time),682250.2999999998,A,fir,I,r,350,3,1215.7999999998137,681034.5,8008,WL,B,3.0
5,7.031000137329102,learn,60000.0,Wed Apr 23 2025 15:42:10 GMT-0500 (Central Daylight Time),682433.5,A,fire,I,e,178,3,1399.0,681034.5,8008,WL,B,3.0
5,7.680999994277954,learn,60000.0,Wed Apr 23 2025 15:42:10 GMT-0500 (Central Daylight Time),683083.6000000006,A,fireenter,I,enter,643,3,2049.100000000559,681034.5,8008,WL,B,3.0
5,8.414000034332275,learn,60000.0,Wed Apr 23 2025 15:42:10 GMT-0500 (Central Daylight Time),683816.5,A,p,I,p,721,3,732.7999999998137,683083.7000000002,8008,WL,B,4.0
5,8.799000024795532,learn,60000.0,Wed Apr 23 2025 15:42:10 GMT-0500 (Central Daylight Time),684201.4000000004,A,pi,I,i,371,3,1117.7000000001863,683083.7000000002,8008,WL,B,4.0
5,9.114000082015991,learn,60000.0,Wed Apr 23 2025 15:42:10 GMT-0500 (Central Daylight Time),684516.5,A,pip,I,p,306,3,1432.7999999998137,683083.7000000002,8008,WL,B,4.0
5,9.697999954223633,learn,60000.0,Wed Apr 23 2025 15:42:10 GMT-0500 (Central Daylight Time),685100.7000000002,A,pipe,I,e,575,3,2017.0,683083.7000000002,8008,WL,B,4.0
5,10.614000082015991,learn,60000.0,Wed Apr 23 2025 15:42:10 GMT-0500 (Central Daylight Time),686016.0,A,pipeenter,I,enter,896,3,2932.2999999998137,683083.7000000002,8008,WL,B,4.0
5,11.130000114440918,learn,60000.0,Wed Apr 23 2025 15:42:10 GMT-0500 (Central Daylight Time),686532.2000000002,A,w,I,w,509,3,516.0999999996275,686016.1000000006,8008,WL,B,5.0
5,11.296000003814697,learn,60000.0,Wed Apr 23 2025 15:42:10 GMT-0500 (Central Daylight Time),686698.7999999998,A,wi,I,i,161,3,682.6999999992549,686016.1000000006,8008,WL,B,5.0
5,11.562999963760376,learn,60000.0,Wed Apr 23 2025 15:42:10 GMT-0500 (Central Daylight Time),686965.7000000002,A,win,I,n,250,3,949.5999999996275,686016.1000000006,8008,WL,B,5.0
5,11.880000114440918,learn,60000.0,Wed Apr 23 2025 15:42:10 GMT-0500 (Central Daylight Time),687282.0,A,wind,I,d,310,3,1265.8999999994412,686016.1000000006,8008,WL,B,5.0
5,12.21399998664856,learn,60000.0,Wed Apr 23 2025 15:42:10 GMT-0500 (Central Daylight Time),687616.5,A,windo,I,o,330,3,1600.3999999994412,686016.1000000006,8008,WL,B,5.0
5,12.546000003814697,learn,60000.0,Wed Apr 23 2025 15:42:10 GMT-0500 (Central Daylight Time),687948.5,A,window,I,w,324,3,1932.3999999994412,686016.1000000006,8008,WL,B,5.0
5,12.896000146865845,learn,60000.0,Wed Apr 23 2025 15:42:10 GMT-0500 (Central Daylight Time),688298.2000000002,A,windowenter,I,enter,343,3,2282.0999999996275,686016.1000000006,8008,WL,B,5.0
5,13.614000082015991,learn,60000.0,Wed Apr 23 2025 15:42:10 GMT-0500 (Central Daylight Time),689016.2000000002,A,s,I,s,715,3,717.7999999998137,688298.4000000004,8008,WL,B,6.0
5,13.796000003814697,learn,60000.0,Wed Apr 23 2025 15:42:10 GMT-0500 (Central Daylight Time),689198.2000000002,A,st,I,t,164,3,899.7999999998137,688298.4000000004,8008,WL,B,6.0
5,14.02999997138977,learn,60000.0,Wed Apr 23 2025 15:42:10 GMT-0500 (Central Daylight Time),689432.7000000002,A,sta,I,a,222,3,1134.2999999998137,688298.4000000004,8008,WL,B,6.0
5,14.246000051498413,learn,60000.0,Wed Apr 23 2025 15:42:10 GMT-0500 (Central Daylight Time),689648.4000000004,A,star,I,r,196,3,1350.0,688298.4000000004,8008,WL,B,6.0
5,14.861999988555908,learn,60000.0,Wed Apr 23 2025 15:42:10 GMT-0500 (Central Daylight Time),690264.7999999998,A,starenter,I,enter,612,3,1966.3999999994412,688298.4000000004,8008,WL,B,6.0
5,15.295000076293945,learn,60000.0,Wed Apr 23 2025 15:42:10 GMT-0500 (Central Daylight Time),690697.4000000004,A,w,I,w,428,3,432.40000000037253,690265.0,8008,WL,B,7.0
5,15.61300015449524,learn,60000.0,Wed Apr 23 2025 15:42:10 GMT-0500 (Central Daylight Time),691015.2000000002,A,wi,I,i,299,3,750.2000000001863,690265.0,8008,WL,B,7.0
5,15.92799997329712,learn,60000.0,Wed Apr 23 2025 15:42:10 GMT-0500 (Central Daylight Time),691330.6000000006,A,wif,I,f,300,3,1065.6000000005588,690265.0,8008,WL,B,7.0
5,16.09500002861023,learn,60000.0,Wed Apr 23 2025 15:42:10 GMT-0500 (Central Daylight Time),691497.4000000004,A,wife,I,e,161,3,1232.4000000003725,690265.0,8008,WL,B,7.0
5,16.411999940872192,learn,60000.0,Wed Apr 23 2025 15:42:10 GMT-0500 (Central Daylight Time),691814.2999999998,A,wifeenter,I,enter,307,3,1549.2999999998137,690265.0,8008,WL,B,7.0
5,16.878999948501587,learn,60000.0,Wed Apr 23 2025 15:42:10 GMT-0500 (Central Daylight Time),692281.2000000002,A,a,I,a,463,3,466.70000000018626,691814.5,8008,WL,B,8.0
5,17.34500002861023,learn,60000.0,Wed Apr 23 2025 15:42:10 GMT-0500 (Central Daylight Time),692747.2000000002,A,ar,I,r,451,3,932.7000000001863,691814.5,8008,WL,B,8.0
5,17.74500012397766,learn,60000.0,Wed Apr 23 2025 15:42:10 GMT-0500 (Central Daylight Time),693147.6000000006,A,arm,I,m,385,3,1333.1000000005588,691814.5,8008,WL,B,8.0
5,18.263000011444092,learn,60000.0,Wed Apr 23 2025 15:42:10 GMT-0500 (Central Daylight Time),693665.7000000002,A,armenter,I,enter,496,3,1851.2000000001863,691814.5,8008,WL,B,8.0
5,18.694999933242798,learn,60000.0,Wed Apr 23 2025 15:42:10 GMT-0500 (Central Daylight Time),694097.7000000002,A,s,I,s,419,3,431.90000000037253,693665.7999999998,8008,WL,B,9.0
5,18.91100001335144,learn,60000.0,Wed Apr 23 2025 15:42:10 GMT-0500 (Central Daylight Time),694313.4000000004,A,st,I,t,203,3,647.6000000005588,693665.7999999998,8008,WL,B,9.0
5,19.14400005340576,learn,60000.0,Wed Apr 23 2025 15:42:10 GMT-0500 (Central Daylight Time),694546.6000000006,A,str,I,r,219,3,880.8000000007451,693665.7999999998,8008,WL,B,9.0
5,19.444000005722046,learn,60000.0,Wed Apr 23 2025 15:42:10 GMT-0500 (Central Daylight Time),694846.7000000002,A,stre,I,e,282,3,1180.9000000003725,693665.7999999998,8008,WL,B,9.0
5,19.594000101089478,learn,60000.0,Wed Apr 23 2025 15:42:10 GMT-0500 (Central Daylight Time),694996.6000000006,A,stree,I,e,133,3,1330.800000000745,693665.7999999998,8008,WL,B,9.0
5,19.776999950408936,learn,60000.0,Wed Apr 23 2025 15:42:10 GMT-0500 (Central Daylight Time),695179.7999999998,A,street,I,t,176,3,1514.0,693665.7999999998,8008,WL,B,9.0
5,20.511000156402588,learn,60000.0,Wed Apr 23 2025 15:42:10 GMT-0500 (Central Daylight Time),695913.0,A,streetenter,I,enter,720,3,2247.2000000001863,693665.7999999998,8008,WL,B,9.0
5,21.278000116348267,learn,60000.0,Wed Apr 23 2025 15:42:10 GMT-0500 (Central Daylight Time),696680.1000000006,A,g,I,g,748,3,766.9000000003725,695913.2000000002,8008,WL,B,10.0
5,21.610000133514404,learn,60000.0,Wed Apr 23 2025 15:42:10 GMT-0500 (Central Daylight Time),697012.2999999998,A,gr,I,r,324,3,1099.0999999996275,695913.2000000002,8008,WL,B,10.0
5,22.094000101089478,learn,60000.0,Wed Apr 23 2025 15:42:10 GMT-0500 (Central Daylight Time),697496.0,A,gra,I,a,472,3,1582.7999999998137,695913.2000000002,8008,WL,B,10.0
5,22.47699999809265,learn,60000.0,Wed Apr 23 2025 15:42:10 GMT-0500 (Central Daylight Time),697879.0,A,gras,I,s,364,3,1965.7999999998137,695913.2000000002,8008,WL,B,10.0
5,22.66000008583069,learn,60000.0,Wed Apr 23 2025 15:42:10 GMT-0500 (Central Daylight Time),698062.0,A,grass,I,s,165,3,2148.7999999998137,695913.2000000002,8008,WL,B,10.0
5,23.009999990463257,learn,60000.0,Wed Apr 23 2025 15:42:10 GMT-0500 (Central Daylight Time),698411.9000000004,A,grassenter,I,enter,342,3,2498.7000000001863,695913.2000000002,8008,WL,B,10.0
5,24.210000038146973,learn,60000.0,Wed Apr 23 2025 15:42:10 GMT-0500 (Central Daylight Time),699612.1000000006,A,c,I,c,1193,3,1200.0,698412.1000000006,8008,WL,B,11.0
5,24.493000030517578,learn,60000.0,Wed Apr 23 2025 15:42:10 GMT-0500 (Central Daylight Time),699895.2999999998,A,ca,I,a,264,3,1483.199999999255,698412.1000000006,8008,WL,B,11.0
5,24.860000133514404,learn,60000.0,Wed Apr 23 2025 15:42:10 GMT-0500 (Central Daylight Time),700262.5,A,cab,I,b,357,3,1850.3999999994412,698412.1000000006,8008,WL,B,11.0
5,25.193000078201294,learn,60000.0,Wed Apr 23 2025 15:42:10 GMT-0500 (Central Daylight Time),700595.2999999998,A,cabi,I,i,325,3,2183.199999999255,698412.1000000006,8008,WL,B,11.0
5,25.493000030517578,learn,60000.0,Wed Apr 23 2025 15:42:10 GMT-0500 (Central Daylight Time),700895.5,A,cabin,I,n,281,3,2483.399999999441,698412.1000000006,8008,WL,B,11.0
5,26.159000158309937,learn,60000.0,Wed Apr 23 2025 15:42:10 GMT-0500 (Central Daylight Time),701561.9000000004,A,cabinenter,I,enter,653,3,3149.7999999998137,698412.1000000006,8008,WL,B,11.0
5,26.759000062942505,learn,60000.0,Wed Apr 23 2025 15:42:10 GMT-0500 (Central Daylight Time),702161.2999999998,A,l,I,l,596,3,599.2999999998137,701562.0,8008,WL,B,12.0
5,27.225000143051147,learn,60000.0,Wed Apr 23 2025 15:42:10 GMT-0500 (Central Daylight Time),702627.2999999998,A,la,I,a,451,3,1065.2999999998137,701562.0,8008,WL,B,12.0
5,27.442000150680542,learn,60000.0,Wed Apr 23 2025 15:42:10 GMT-0500 (Central Daylight Time),702844.0,A,lak,I,k,209,3,1282.0,701562.0,8008,WL,B,12.0
5,28.657999992370605,learn,60000.0,Wed Apr 23 2025 15:42:10 GMT-0500 (Central Daylight Time),704060.7999999998,A,lake,I,e,1208,3,2498.7999999998137,701562.0,8008,WL,B,12.0
5,28.924999952316284,learn,60000.0,Wed Apr 23 2025 15:42:10 GMT-0500 (Central Daylight Time),704327.0,A,lakeenter,I,enter,248,3,2765.0,701562.0,8008,WL,B,12.0
5,31.707000017166138,learn,60000.0,Wed Apr 23 2025 15:42:10 GMT-0500 (Central Daylight Time),707109.2999999998,A,c,I,c,2766,3,2782.199999999255,704327.1000000006,8008,WL,B,13.0
5,32.075000047683716,learn,60000.0,Wed Apr 23 2025 15:42:10 GMT-0500 (Central Daylight Time),707477.6000000006,A,ci,I,i,359,3,3150.5,704327.1000000006,8008,WL,B,13.0
5,32.473000049591064,learn,60000.0,Wed Apr 23 2025 15:42:10 GMT-0500 (Central Daylight Time),707875.7999999998,A,cit,I,t,391,3,3548.699999999255,704327.1000000006,8008,WL,B,13.0
5,32.67400002479553,learn,60000.0,Wed Apr 23 2025 15:42:10 GMT-0500 (Central Daylight Time),708076.5,A,city,I,y,185,3,3749.399999999441,704327.1000000006,8008,WL,B,13.0
5,33.42300009727478,learn,60000.0,Wed Apr 23 2025 15:42:10 GMT-0500 (Central Daylight Time),708825.7000000002,A,cityenter,I,enter,744,3,4498.5999999996275,704327.1000000006,8008,WL,B,13.0
5,36.2720000743866,learn,60000.0,Wed Apr 23 2025 15:42:10 GMT-0500 (Central Daylight Time),711674.5,A,p,I,p,2843,3,2848.5999999996275,708825.9000000004,8008,WL,B,14.0
5,36.74000000953674,learn,60000.0,Wed Apr 23 2025 15:42:10 GMT-0500 (Central Daylight Time),712142.0,A,pu,I,u,459,3,3316.0999999996275,708825.9000000004,8008,WL,B,14.0
5,37.223000049591064,learn,60000.0,Wed Apr 23 2025 15:42:10 GMT-0500 (Central Daylight Time),712625.5,A,pup,I,p,468,3,3799.5999999996275,708825.9000000004,8008,WL,B,14.0
5,37.5220000743866,learn,60000.0,Wed Apr 23 2025 15:42:10 GMT-0500 (Central Daylight Time),712924.4000000004,A,pupi,I,i,291,3,4098.5,708825.9000000004,8008,WL,B,14.0
5,37.956000089645386,learn,60000.0,Wed Apr 23 2025 15:42:10 GMT-0500 (Central Daylight Time),713358.4000000004,A,pupil,I,l,416,3,4532.5,708825.9000000004,8008,WL,B,14.0
5,38.40499997138977,learn,60000.0,Wed Apr 23 2025 15:42:10 GMT-0500 (Central Daylight Time),713807.6000000006,A,pupilenter,I,enter,438,3,4981.700000000186,708825.9000000004,8008,WL,B,14.0
5,39.98699998855591,learn,60000.0,Wed Apr 23 2025 15:42:10 GMT-0500 (Central Daylight Time),715390.0,A,enter,I,enter,1564,3,1582.0999999996275,713807.9000000004,8008,WL,B,15.0
6,1.4000000953674316,distr,58599.99990463257,Wed Apr 23 2025 15:42:10 GMT-0500 (Central Daylight Time),787083.7000000002,B,b,I,b,1385,3,1399.5,785684.2000000002,8008,WL,B,1.0
6,1.7330000400543213,distr,58266.99995994568,Wed Apr 23 2025 15:42:10 GMT-0500 (Central Daylight Time),787417.2999999998,B,ba,I,a,314,3,1733.0999999996275,785684.2000000002,8008,WL,B,1.0
6,1.9830000400543213,distr,58016.99995994568,Wed Apr 23 2025 15:42:10 GMT-0500 (Central Daylight Time),787666.6000000006,B,bab,I,b,243,3,1982.4000000003725,785684.2000000002,8008,WL,B,1.0
6,2.499000072479248,distr,57500.99992752075,Wed Apr 23 2025 15:42:10 GMT-0500 (Central Daylight Time),788183.4000000004,B,baby,I,y,497,3,2499.2000000001863,785684.2000000002,8008,WL,B,1.0
6,3.381999969482422,distr,56618.00003051758,Wed Apr 23 2025 15:42:10 GMT-0500 (Central Daylight Time),789066.2999999998,B,babyenter,I,enter,869,3,3382.0999999996275,785684.2000000002,8008,WL,B,1.0
6,4.64900016784668,distr,55350.99983215332,Wed Apr 23 2025 15:42:10 GMT-0500 (Central Daylight Time),790332.5,B,o,I,o,1258,3,1265.8999999994412,789066.6000000006,8008,WL,B,2.0
6,5.04800009727478,distr,54951.99990272522,Wed Apr 23 2025 15:42:10 GMT-0500 (Central Daylight Time),790732.2000000002,B,oc,I,c,383,3,1665.5999999996275,789066.6000000006,8008,WL,B,2.0
6,5.516000032424927,distr,54483.99996757507,Wed Apr 23 2025 15:42:10 GMT-0500 (Central Daylight Time),791200.0,B,oce,I,e,448,3,2133.399999999441,789066.6000000006,8008,WL,B,2.0
6,6.082000017166138,distr,53917.99998283386,Wed Apr 23 2025 15:42:10 GMT-0500 (Central Daylight Time),791766.2999999998,B,ocea,I,a,556,3,2699.699999999255,789066.6000000006,8008,WL,B,2.0
6,6.414999961853027,distr,53585.00003814697,Wed Apr 23 2025 15:42:10 GMT-0500 (Central Daylight Time),792099.1000000006,B,ocean,I,n,318,3,3032.5,789066.6000000006,8008,WL,B,2.0
6,7.164999961853027,distr,52835.00003814697,Wed Apr 23 2025 15:42:10 GMT-0500 (Central Daylight Time),792849.1000000006,B,oceanenter,I,enter,747,3,3782.5,789066.6000000006,8008,WL,B,2.0
6,7.815000057220459,distr,52184.99994277954,Wed Apr 23 2025 15:42:10 GMT-0500 (Central Daylight Time),793499.4000000004,B,b,I,b,644,3,650.2000000001863,792849.2000000002,8008,WL,B,3.0
6,8.481000185012817,distr,51518.99981498718,Wed Apr 23 2025 15:42:10 GMT-0500 (Central Daylight Time),794164.7000000002,B,bu,I,u,649,3,1315.5,792849.2000000002,8008,WL,B,3.0
6,8.781000137329102,distr,51218.9998626709,Wed Apr 23 2025 15:42:10 GMT-0500 (Central Daylight Time),794464.7999999998,B,bui,I,i,297,3,1615.5999999996275,792849.2000000002,8008,WL,B,3.0
6,9.514000177383423,distr,50485.99982261658,Wed Apr 23 2025 15:42:10 GMT-0500 (Central Daylight Time),795197.6000000006,B,buil,I,l,716,3,2348.4000000003725,792849.2000000002,8008,WL,B,3.0
6,9.96399998664856,distr,50036.00001335144,Wed Apr 23 2025 15:42:10 GMT-0500 (Central Daylight Time),795647.6000000006,B,build,I,d,439,3,2798.4000000003725,792849.2000000002,8008,WL,B,3.0
6,10.130000114440918,distr,49869.99988555908,Wed Apr 23 2025 15:42:10 GMT-0500 (Central Daylight Time),795814.4000000004,B,buildi,I,i,157,3,2965.2000000001863,792849.2000000002,8008,WL,B,3.0
6,10.330000162124634,distr,49669.999837875366,Wed Apr 23 2025 15:42:10 GMT-0500 (Central Daylight Time),796014.4000000004,B,buildin,I,n,190,3,3165.2000000001863,792849.2000000002,8008,WL,B,3.0
6,10.631999969482422,distr,49368.00003051758,Wed Apr 23 2025 15:42:10 GMT-0500 (Central Daylight Time),796316.2000000002,B,building,I,g,294,3,3467.0,792849.2000000002,8008,WL,B,3.0
6,10.998000144958496,distr,49001.999855041504,Wed Apr 23 2025 15:42:10 GMT-0500 (Central Daylight Time),796681.7000000002,B,buildingenter,I,enter,353,3,3832.5,792849.2000000002,8008,WL,B,3.0
6,11.515000104904175,distr,48484.999895095825,Wed Apr 23 2025 15:42:10 GMT-0500 (Central Daylight Time),797198.6000000006,B,c,I,c,507,3,516.6000000005588,796682.0,8008,WL,B,4.0
6,11.746999979019165,distr,48253.000020980835,Wed Apr 23 2025 15:42:10 GMT-0500 (Central Daylight Time),797431.5,B,ce,I,e,214,3,749.5,796682.0,8008,WL,B,4.0
6,12.095999956130981,distr,47904.00004386902,Wed Apr 23 2025 15:42:10 GMT-0500 (Central Daylight Time),797780.2000000002,B,cel,I,l,332,3,1098.2000000001863,796682.0,8008,WL,B,4.0
6,12.296000003814697,distr,47703.9999961853,Wed Apr 23 2025 15:42:10 GMT-0500 (Central Daylight Time),797980.2999999998,B,cell,I,l,192,3,1298.2999999998137,796682.0,8008,WL,B,4.0
6,13.396000146865845,distr,46603.999853134155,Wed Apr 23 2025 15:42:10 GMT-0500 (Central Daylight Time),799080.1000000006,B,cellenter,I,enter,1080,3,2398.100000000559,796682.0,8008,WL,B,4.0
6,17.629000186920166,distr,42370.999813079834,Wed Apr 23 2025 15:42:10 GMT-0500 (Central Daylight Time),803312.9000000004,B,enter,I,enter,4214,3,4232.600000000559,799080.2999999998,8008,WL,B,5.0
6,17.878000020980835,distr,42121.999979019165,Wed Apr 23 2025 15:42:10 GMT-0500 (Central Daylight Time),803562.2999999998,B,enter,I,enter,244,3,249.29999999981374,803313.0,8008,WL,B,6.0
6,18.128000020980835,distr,41871.999979019165,Wed Apr 23 2025 15:42:10 GMT-0500 (Central Daylight Time),803812.0,B,enter,I,enter,243,3,249.59999999962747,803562.4000000004,8008,WL,B,7.0
6,18.378000020980835,distr,41621.999979019165,Wed Apr 23 2025 15:42:10 GMT-0500 (Central Daylight Time),804061.6000000006,B,enter,I,enter,233,3,249.40000000037253,803812.2000000002,8008,WL,B,8.0
6,18.611000061035156,distr,41388.999938964844,Wed Apr 23 2025 15:42:10 GMT-0500 (Central Daylight Time),804295.1000000006,B,enter,I,enter,223,3,233.30000000074506,804061.7999999998,8008,WL,B,9.0
6,18.844000101089478,distr,41155.99989891052,Wed Apr 23 2025 15:42:10 GMT-0500 (Central Daylight Time),804528.2999999998,B,enter,I,enter,215,3,233.0,804295.2999999998,8008,WL,B,10.0
6,19.061000108718872,distr,40938.99989128113,Wed Apr 23 2025 15:42:10 GMT-0500 (Central Daylight Time),804744.7000000002,B,enter,I,enter,205,3,216.09999999962747,804528.6000000006,8008,WL,B,11.0
6,19.311000108718872,distr,40688.99989128113,Wed Apr 23 2025 15:42:10 GMT-0500 (Central Daylight Time),804994.7999999998,B,enter,I,enter,236,3,249.8999999994412,804744.9000000004,8008,WL,B,12.0
6,19.545000076293945,distr,40454.999923706055,Wed Apr 23 2025 15:42:10 GMT-0500 (Central Daylight Time),805229.2000000002,B,enter,I,enter,219,3,234.20000000018626,804995.0,8008,WL,B,13.0
6,20.094000101089478,distr,39905.99989891052,Wed Apr 23 2025 15:42:10 GMT-0500 (Central Daylight Time),805778.5,B,enter,I,enter,543,3,549.0,805229.5,8008,WL,B,14.0
6,20.594000101089478,distr,39405.99989891052,Wed Apr 23 2025 15:42:10 GMT-0500 (Central Daylight Time),806277.9000000004,B,enter,I,enter,482,3,499.29999999981374,805778.6000000006,8008,WL,B,15.0
7,7.996999979019165,immed,52003.000020980835,Wed Apr 23 2025 15:42:10 GMT-0500 (Central Daylight Time),815975.9000000004,A,b,I,b,7978,3,7997.0,807978.9000000004,8008,WL,B,1.0
7,8.246999979019165,immed,51753.000020980835,Wed Apr 23 2025 15:42:10 GMT-0500 (Central Daylight Time),816225.7000000002,A,ba,I,a,230,3,8246.799999999814,807978.9000000004,8008,WL,B,1.0
7,8.430000066757202,immed,51569.9999332428,Wed Apr 23 2025 15:42:10 GMT-0500 (Central Daylight Time),816409.1000000006,A,bab,I,b,163,3,8430.200000000186,807978.9000000004,8008,WL,B,1.0
7,13.427000045776367,immed,46572.99995422363,Wed Apr 23 2025 15:42:10 GMT-0500 (Central Daylight Time),821405.9000000004,A,ba,I,backspace,4988,3,13427.0,807978.9000000004,8008,WL,B,1.0
7,13.793999910354614,immed,46206.000089645386,Wed Apr 23 2025 15:42:10 GMT-0500 (Central Daylight Time),821772.9000000004,A,b,I,backspace,351,3,13794.0,807978.9000000004,8008,WL,B,1.0
7,14.144000053405762,immed,45855.99994659424,Wed Apr 23 2025 15:42:10 GMT-0500 (Central Daylight Time),822122.6000000006,A,,I,backspace,344,3,14143.700000000186,807978.9000000004,8008,WL,B,1.0
7,16.292999982833862,immed,43707.00001716614,Wed Apr 23 2025 15:42:10 GMT-0500 (Central Daylight Time),824271.9000000004,A,g,I,g,2138,3,16293.0,807978.9000000004,8008,WL,B,1.0
7,16.509999990463257,immed,43490.00000953674,Wed Apr 23 2025 15:42:10 GMT-0500 (Central Daylight Time),824489.2000000002,A,gr,I,r,204,3,16510.299999999814,807978.9000000004,8008,WL,B,1.0
7,16.977999925613403,immed,43022.0000743866,Wed Apr 23 2025 15:42:10 GMT-0500 (Central Daylight Time),824956.5,A,gra,I,a,451,3,16977.599999999627,807978.9000000004,8008,WL,B,1.0
7,17.425999879837036,immed,42574.000120162964,Wed Apr 23 2025 15:42:10 GMT-0500 (Central Daylight Time),825405.2000000002,A,gras,I,s,432,3,17426.299999999814,807978.9000000004,8008,WL,B,1.0
7,17.64299988746643,immed,42357.00011253357,Wed Apr 23 2025 15:42:10 GMT-0500 (Central Daylight Time),825621.9000000004,A,grass,I,s,199,3,17643.0,807978.9000000004,8008,WL,B,1.0
7,18.175999879837036,immed,41824.000120162964,Wed Apr 23 2025 15:42:10 GMT-0500 (Central Daylight Time),826155.0,A,grassenter,I,enter,527,3,18176.099999999627,807978.9000000004,8008,WL,B,1.0
7,20.875,immed,39125.0,Wed Apr 23 2025 15:42:10 GMT-0500 (Central Daylight Time),828853.7999999998,A,a,I,a,2690,3,2698.5999999996275,826155.2000000002,8008,WL,B,2.0
7,21.44099998474121,immed,38559.00001525879,Wed Apr 23 2025 15:42:10 GMT-0500 (Central Daylight Time),829420.4000000004,A,ar,I,r,551,3,3265.2000000001863,826155.2000000002,8008,WL,B,2.0
7,22.20799994468689,immed,37792.00005531311,Wed Apr 23 2025 15:42:10 GMT-0500 (Central Daylight Time),830187.2999999998,A,arm,I,m,752,3,4032.0999999996275,826155.2000000002,8008,WL,B,2.0
7,23.424000024795532,immed,36575.99997520447,Wed Apr 23 2025 15:42:10 GMT-0500 (Central Daylight Time),831403.2999999998,A,armenter,I,enter,1202,3,5248.0999999996275,826155.2000000002,8008,WL,B,2.0
7,24.842000007629395,immed,35157.999992370605,Wed Apr 23 2025 15:42:10 GMT-0500 (Central Daylight Time),832820.6000000006,A,h,I,h,1409,3,1417.1000000005588,831403.5,8008,WL,B,3.0
7,25.341000080108643,immed,34658.99991989136,Wed Apr 23 2025 15:42:10 GMT-0500 (Central Daylight Time),833320.1000000006,A,ho,I,o,487,3,1916.6000000005588,831403.5,8008,WL,B,3.0
7,25.558000087738037,immed,34441.99991226196,Wed Apr 23 2025 15:42:10 GMT-0500 (Central Daylight Time),833537.0,A,hou,I,u,198,3,2133.5,831403.5,8008,WL,B,3.0
7,25.823999881744385,immed,34176.000118255615,Wed Apr 23 2025 15:42:10 GMT-0500 (Central Daylight Time),833802.9000000004,A,hous,I,s,252,3,2399.4000000003725,831403.5,8008,WL,B,3.0
7,26.17199993133545,immed,33828.00006866455,Wed Apr 23 2025 15:42:10 GMT-0500 (Central Daylight Time),834152.0,A,house,I,e,330,3,2748.5,831403.5,8008,WL,B,3.0
7,26.438999891281128,immed,33561.00010871887,Wed Apr 23 2025 15:42:10 GMT-0500 (Central Daylight Time),834419.0,A,houseenter,I,enter,253,3,3015.5,831403.5,8008,WL,B,3.0
7,26.85599994659424,immed,33144.00005340576,Wed Apr 23 2025 15:42:10 GMT-0500 (Central Daylight Time),834836.0,A,w,I,w,409,3,416.79999999981374,834419.2000000002,8008,WL,B,4.0
7,27.105000019073486,immed,32894.999980926514,Wed Apr 23 2025 15:42:10 GMT-0500 (Central Daylight Time),835085.0,A,wi,I,i,239,3,665.7999999998137,834419.2000000002,8008,WL,B,4.0
7,27.388000011444092,immed,32611.99998855591,Wed Apr 23 2025 15:42:10 GMT-0500 (Central Daylight Time),835368.4000000004,A,win,I,n,264,3,949.2000000001863,834419.2000000002,8008,WL,B,4.0
7,27.703999996185303,immed,32296.000003814697,Wed Apr 23 2025 15:42:10 GMT-0500 (Central Daylight Time),835684.6000000006,A,wind,I,d,308,3,1265.4000000003725,834419.2000000002,8008,WL,B,4.0
7,28.00499987602234,immed,31995.00012397766,Wed Apr 23 2025 15:42:10 GMT-0500 (Central Daylight Time),835985.4000000004,A,windo,I,o,288,3,1566.2000000001863,834419.2000000002,8008,WL,B,4.0
7,28.25499987602234,immed,31745.00012397766,Wed Apr 23 2025 15:42:10 GMT-0500 (Central Daylight Time),836235.6000000006,A,window,I,w,235,3,1816.4000000003725,834419.2000000002,8008,WL,B,4.0
7,29.07100009918213,immed,30928.99990081787,Wed Apr 23 2025 15:42:10 GMT-0500 (Central Daylight Time),837051.7000000002,A,windowenter,I,enter,809,3,2632.5,834419.2000000002,8008,WL,B,4.0
7,29.671000003814697,immed,30328.999996185303,Wed Apr 23 2025 15:42:10 GMT-0500 (Central Daylight Time),837651.6000000006,A,s,I,s,583,3,599.7000000001863,837051.9000000004,8008,WL,B,5.0
7,29.854000091552734,immed,30145.999908447266,Wed Apr 23 2025 15:42:10 GMT-0500 (Central Daylight Time),837834.0,A,st,I,t,169,3,782.0999999996275,837051.9000000004,8008,WL,B,5.0
7,30.086999893188477,immed,29913.000106811523,Wed Apr 23 2025 15:42:10 GMT-0500 (Central Daylight Time),838067.5,A,sta,I,a,227,3,1015.5999999996275,837051.9000000004,8008,WL,B,5.0
7,30.338000059127808,immed,29661.999940872192,Wed Apr 23 2025 15:42:10 GMT-0500 (Central Daylight Time),838317.7999999998,A,star,I,r,241,3,1265.8999999994412,837051.9000000004,8008,WL,B,5.0
7,31.371000051498413,immed,28628.999948501587,Wed Apr 23 2025 15:42:10 GMT-0500 (Central Daylight Time),839351.2999999998,A,starenter,I,enter,1023,3,2299.399999999441,837051.9000000004,8008,WL,B,5.0
7,31.80399990081787,immed,28196.00009918213,Wed Apr 23 2025 15:42:10 GMT-0500 (Central Daylight Time),839783.9000000004,A,w,I,w,422,3,432.5,839351.4000000004,8008,WL,B,6.0
7,32.187000036239624,immed,27812.999963760376,Wed Apr 23 2025 15:42:10 GMT-0500 (Central Daylight Time),840167.6000000006,A,wi,I,i,364,3,816.2000000001863,839351.4000000004,8008,WL,B,6.0
7,32.53600001335144,immed,27463.99998664856,Wed Apr 23 2025 15:42:10 GMT-0500 (Central Daylight Time),840516.6000000006,A,wif,I,f,333,3,1165.2000000001863,839351.4000000004,8008,WL,B,6.0
7,32.70300006866455,immed,27296.99993133545,Wed Apr 23 2025 15:42:10 GMT-0500 (Central Daylight Time),840683.6000000006,A,wife,I,e,152,3,1332.2000000001863,839351.4000000004,8008,WL,B,6.0
7,33.00399994850159,immed,26996.000051498413,Wed Apr 23 2025 15:42:10 GMT-0500 (Central Daylight Time),840984.6000000006,A,wifeenter,I,enter,280,3,1633.2000000001863,839351.4000000004,8008,WL,B,6.0
7,33.73699998855591,immed,26263.00001144409,Wed Apr 23 2025 15:42:10 GMT-0500 (Central Daylight Time),841717.5,A,p,I,p,716,3,732.7000000001863,840984.7999999998,8008,WL,B,7.0
7,34.168999910354614,immed,25831.000089645386,Wed Apr 23 2025 15:42:10 GMT-0500 (Central Daylight Time),842149.5,A,pu,I,u,423,3,1164.7000000001863,840984.7999999998,8008,WL,B,7.0
7,34.55299997329712,immed,25447.00002670288,Wed Apr 23 2025 15:42:10 GMT-0500 (Central Daylight Time),842532.7999999998,A,pup,I,p,373,3,1548.0,840984.7999999998,8008,WL,B,7.0
7,34.901999950408936,immed,25098.000049591064,Wed Apr 23 2025 15:42:10 GMT-0500 (Central Daylight Time),842882.6000000006,A,pupi,I,i,344,3,1897.800000000745,840984.7999999998,8008,WL,B,7.0
7,35.35599994659424,immed,24644.00005340576,Wed Apr 23 2025 15:42:10 GMT-0500 (Central Daylight Time),843336.5,A,pupil,I,l,450,3,2351.7000000001863,840984.7999999998,8008,WL,B,7.0
7,36.085999965667725,immed,23914.000034332275,Wed Apr 23 2025 15:42:10 GMT-0500 (Central Daylight Time),844066.5,A,pupilenter,I,enter,719,3,3081.7000000001863,840984.7999999998,8008,WL,B,7.0
7,37.05200004577637,immed,22947.999954223633,Wed Apr 23 2025 15:42:10 GMT-0500 (Central Daylight Time),845032.7000000002,A,s,I,s,952,3,965.9000000003725,844066.7999999998,8008,WL,B,8.0
7,37.30200004577637,immed,22697.999954223633,Wed Apr 23 2025 15:42:10 GMT-0500 (Central Daylight Time),845282.6000000006,A,sk,I,k,244,3,1215.800000000745,844066.7999999998,8008,WL,B,8.0
7,37.60199999809265,immed,22398.00000190735,Wed Apr 23 2025 15:42:10 GMT-0500 (Central Daylight Time),845582.6000000006,A,ski,I,i,282,3,1515.800000000745,844066.7999999998,8008,WL,B,8.0
7,37.736000061035156,immed,22263.999938964844,Wed Apr 23 2025 15:42:10 GMT-0500 (Central Daylight Time),845716.1000000006,A,skin,I,n,117,3,1649.300000000745,844066.7999999998,8008,WL,B,8.0
7,38.30200004577637,immed,21697.999954223633,Wed Apr 23 2025 15:42:10 GMT-0500 (Central Daylight Time),846282.0,A,skinenter,I,enter,560,3,2215.2000000001863,844066.7999999998,8008,WL,B,8.0
7,38.85199999809265,immed,21148.00000190735,Wed Apr 23 2025 15:42:10 GMT-0500 (Central Daylight Time),846832.0,A,f,I,f,537,3,549.7000000001863,846282.2999999998,8008,WL,B,9.0
7,39.20199990272522,immed,20798.00009727478,Wed Apr 23 2025 15:42:10 GMT-0500 (Central Daylight Time),847181.7999999998,A,fi,I,i,332,3,899.5,846282.2999999998,8008,WL,B,9.0
7,39.53500008583069,immed,20464.99991416931,Wed Apr 23 2025 15:42:10 GMT-0500 (Central Daylight Time),847515.2000000002,A,fir,I,r,327,3,1232.9000000003725,846282.2999999998,8008,WL,B,9.0
7,39.78399991989136,immed,20216.000080108643,Wed Apr 23 2025 15:42:10 GMT-0500 (Central Daylight Time),847764.5,A,fire,I,e,233,3,1482.2000000001863,846282.2999999998,8008,WL,B,9.0
7,40.56699991226196,immed,19433.000087738037,Wed Apr 23 2025 15:42:10 GMT-0500 (Central Daylight Time),848547.6000000006,A,fireenter,I,enter,768,3,2265.300000000745,846282.2999999998,8008,WL,B,9.0
7,41.050999879837036,immed,18949.000120162964,Wed Apr 23 2025 15:42:10 GMT-0500 (Central Daylight Time),849030.9000000004,A,c,I,c,465,3,483.0,848547.9000000004,8008,WL,B,10.0
7,41.28399991989136,immed,18716.000080108643,Wed Apr 23 2025 15:42:10 GMT-0500 (Central Daylight Time),849264.0,A,ca,I,a,221,3,716.0999999996275,848547.9000000004,8008,WL,B,10.0
7,41.46799993515015,immed,18532.000064849854,Wed Apr 23 2025 15:42:10 GMT-0500 (Central Daylight Time),849448.1000000006,A,cab,I,b,173,3,900.2000000001863,848547.9000000004,8008,WL,B,10.0
7,41.73399996757507,immed,18266.000032424927,Wed Apr 23 2025 15:42:10 GMT-0500 (Central Daylight Time),849713.9000000004,A,cabi,I,i,261,3,1166.0,848547.9000000004,8008,WL,B,10.0
7,42.00099992752075,immed,17999.000072479248,Wed Apr 23 2025 15:42:10 GMT-0500 (Central Daylight Time),849981.5,A,cabin,I,n,251,3,1433.5999999996275,848547.9000000004,8008,WL,B,10.0
7,42.782999992370605,immed,17217.000007629395,Wed Apr 23 2025 15:42:10 GMT-0500 (Central Daylight Time),850763.2999999998,A,cabinenter,I,enter,775,3,2215.399999999441,848547.9000000004,8008,WL,B,10.0
7,43.48399996757507,immed,16516.000032424927,Wed Apr 23 2025 15:42:10 GMT-0500 (Central Daylight Time),851464.2999999998,A,w,I,w,683,3,700.7999999998137,850763.5,8008,WL,B,11.0
7,43.76600003242493,immed,16233.999967575073,Wed Apr 23 2025 15:42:10 GMT-0500 (Central Daylight Time),851746.6000000006,A,wo,I,o,268,3,983.1000000005588,850763.5,8008,WL,B,11.0
7,43.93300008773804,immed,16066.999912261963,Wed Apr 23 2025 15:42:10 GMT-0500 (Central Daylight Time),851913.7000000002,A,woo,I,o,162,3,1150.2000000001863,850763.5,8008,WL,B,11.0
7,44.13199996948242,immed,15868.000030517578,Wed Apr 23 2025 15:42:10 GMT-0500 (Central Daylight Time),852112.6000000006,A,wood,I,d,195,3,1349.1000000005588,850763.5,8008,WL,B,11.0
7,44.28399991989136,immed,15716.000080108643,Wed Apr 23 2025 15:42:10 GMT-0500 (Central Daylight Time),852263.9000000004,A,woods,I,s,148,3,1500.4000000003725,850763.5,8008,WL,B,11.0
7,46.15000009536743,immed,13849.999904632568,Wed Apr 23 2025 15:42:10 GMT-0500 (Central Daylight Time),854129.7999999998,A,wood,I,backspace,1853,3,3366.2999999998137,850763.5,8008,WL,B,11.0
7,46.431999921798706,immed,13568.000078201294,Wed Apr 23 2025 15:42:10 GMT-0500 (Central Daylight Time),854412.5,A,woo,I,backspace,275,3,3649.0,850763.5,8008,WL,B,11.0
7,46.698999881744385,immed,13301.000118255615,Wed Apr 23 2025 15:42:10 GMT-0500 (Central Daylight Time),854679.2000000002,A,wo,I,backspace,248,3,3915.7000000001863,850763.5,8008,WL,B,11.0
7,46.91599988937378,immed,13084.00011062622,Wed Apr 23 2025 15:42:10 GMT-0500 (Central Daylight Time),854896.1000000006,A,w,I,backspace,196,3,4132.600000000559,850763.5,8008,WL,B,11.0
7,47.132999897003174,immed,12867.000102996826,Wed Apr 23 2025 15:42:10 GMT-0500 (Central Daylight Time),855113.5,A,,I,backspace,214,3,4350.0,850763.5,8008,WL,B,11.0
7,47.8989999294281,immed,12101.0000705719,Wed Apr 23 2025 15:42:10 GMT-0500 (Central Daylight Time),855879.7000000002,A,l,I,l,755,3,5116.200000000186,850763.5,8008,WL,B,11.0
7,48.180999994277954,immed,11819.000005722046,Wed Apr 23 2025 15:42:10 GMT-0500 (Central Daylight Time),856161.4000000004,A,la,I,a,276,3,5397.9000000003725,850763.5,8008,WL,B,11.0
7,48.39800000190735,immed,11601.999998092651,Wed Apr 23 2025 15:42:10 GMT-0500 (Central Daylight Time),856378.2000000002,A,lak,I,k,203,3,5614.700000000186,850763.5,8008,WL,B,11.0
7,48.71600008010864,immed,11283.999919891357,Wed Apr 23 2025 15:42:10 GMT-0500 (Central Daylight Time),856695.9000000004,A,lake,I,e,299,3,5932.4000000003725,850763.5,8008,WL,B,11.0
7,50.11500000953674,immed,9884.999990463257,Wed Apr 23 2025 15:42:10 GMT-0500 (Central Daylight Time),858094.7000000002,A,lakeenter,I,enter,1389,3,7331.200000000186,850763.5,8008,WL,B,11.0
7,51.081000089645386,immed,8918.999910354614,Wed Apr 23 2025 15:42:10 GMT-0500 (Central Daylight Time),859061.1000000006,A,c,I,c,958,3,966.0,858095.1000000006,8008,WL,B,12.0
7,51.54699993133545,immed,8453.00006866455,Wed Apr 23 2025 15:42:10 GMT-0500 (Central Daylight Time),859527.1000000006,A,ci,I,i,455,3,1432.0,858095.1000000006,8008,WL,B,12.0
7,51.88100004196167,immed,8118.99995803833,Wed Apr 23 2025 15:42:10 GMT-0500 (Central Daylight Time),859861.5,A,cit,I,t,326,3,1766.3999999994412,858095.1000000006,8008,WL,B,12.0
7,52.06500005722046,immed,7934.999942779541,Wed Apr 23 2025 15:42:10 GMT-0500 (Central Daylight Time),860044.7999999998,A,city,I,y,167,3,1949.699999999255,858095.1000000006,8008,WL,B,12.0
7,55.34599995613098,immed,4654.000043869019,Wed Apr 23 2025 15:42:10 GMT-0500 (Central Daylight Time),863326.0,A,cityenter,I,enter,3272,3,5230.899999999441,858095.1000000006,8008,WL,B,12.0
7,56.27900004386902,immed,3720.9999561309814,Wed Apr 23 2025 15:42:10 GMT-0500 (Central Daylight Time),864259.2999999998,A,enter,I,enter,927,3,933.0999999996275,863326.2000000002,8008,WL,B,13.0
7,56.51200008392334,immed,3487.99991607666,Wed Apr 23 2025 15:42:10 GMT-0500 (Central Daylight Time),864492.6000000006,A,enter,I,enter,217,3,233.0,864259.6000000006,8008,WL,B,14.0
7,56.96199989318848,immed,3038.0001068115234,Wed Apr 23 2025 15:42:10 GMT-0500 (Central Daylight Time),864942.7000000002,A,enter,I,enter,440,3,449.90000000037253,864492.7999999998,8008,WL,B,15.0
