block_c,block_dur,condition,countdown,datetime,endtime,list,multichar_response,project,response,response_time,session_number,start_end,starttime,subject_id,task,task_vers,trial
,,,,Mon Nov 04 2024 14:31:52 GMT-0600 (Central Standard Time),,,,I,space,845,1,,,8008,WL,A,
prac,,0,,Mon Nov 04 2024 14:31:52 GMT-0600 (Central Standard Time),,NA,b,I,b,12321,1,,,8008,WL,A,1.0
prac,,0,,Mon Nov 04 2024 14:31:52 GMT-0600 (Central Standard Time),,NA,bo,I,o,303,1,,,8008,WL,A,1.0
prac,,0,,Mon Nov 04 2024 14:31:52 GMT-0600 (Central Standard Time),,NA,boo,I,o,386,1,,,8008,WL,A,1.0
prac,,0,,Mon Nov 04 2024 14:31:52 GMT-0600 (Central Standard Time),,NA,boos,I,s,1043,1,,,8008,WL,A,1.0
prac,,0,,Mon Nov 04 2024 14:31:52 GMT-0600 (Central Standard Time),,NA,boost,I,t,250,1,,,8008,WL,A,1.0
prac,,0,,Mon Nov 04 2024 14:31:52 GMT-0600 (Central Standard Time),,NA,boostenter,I,enter,24487,1,,,8008,WL,A,1.0
1,1.9159998893737793,learn,58084.00011062622,Mon Nov 04 2024 14:31:52 GMT-0600 (Central Standard Time),175673.09999999404,A,b,I,b,1903,1,1915.699999988079,173757.40000000596,8008,WL,A,1.0
1,2.2660000324249268,learn,57733.99996757507,Mon Nov 04 2024 14:31:52 GMT-0600 (Central Standard Time),176023.19999998808,A,bo,I,o,338,1,2265.7999999821186,173757.40000000596,8008,WL,A,1.0
1,2.4830000400543213,learn,57516.99995994568,Mon Nov 04 2024 14:31:52 GMT-0600 (Central Standard Time),176239.69999998808,A,boo,I,o,197,1,2482.2999999821186,173757.40000000596,8008,WL,A,1.0
1,2.7990000247955322,learn,57200.99997520447,Mon Nov 04 2024 14:31:52 GMT-0600 (Central Standard Time),176556.40000000596,A,book,I,k,309,1,2799.0,173757.40000000596,8008,WL,A,1.0
1,3.75,learn,56250.0,Mon Nov 04 2024 14:31:52 GMT-0600 (Central Standard Time),177506.69999998808,A,bookenter,I,enter,936,1,3749.2999999821186,173757.40000000596,8008,WL,A,1.0
1,5.38100004196167,learn,54618.99995803833,Mon Nov 04 2024 14:31:52 GMT-0600 (Central Standard Time),179138.59999999404,A,f,I,f,1626,1,1631.4000000059605,177507.19999998808,8008,WL,A,2.0
1,5.79800009727478,learn,54201.99990272522,Mon Nov 04 2024 14:31:52 GMT-0600 (Central Standard Time),179555.19999998808,A,fl,I,l,402,1,2048.0,177507.19999998808,8008,WL,A,2.0
1,6.065000057220459,learn,53934.99994277954,Mon Nov 04 2024 14:31:52 GMT-0600 (Central Standard Time),179822.0,A,flo,I,o,249,1,2314.800000011921,177507.19999998808,8008,WL,A,2.0
1,6.38100004196167,learn,53618.99995803833,Mon Nov 04 2024 14:31:52 GMT-0600 (Central Standard Time),180138.29999998212,A,flow,I,w,311,1,2631.0999999940395,177507.19999998808,8008,WL,A,2.0
1,6.664999961853027,learn,53335.00003814697,Mon Nov 04 2024 14:31:52 GMT-0600 (Central Standard Time),180421.90000000596,A,flowe,I,e,266,1,2914.7000000178814,177507.19999998808,8008,WL,A,2.0
1,6.96399998664856,learn,53036.00001335144,Mon Nov 04 2024 14:31:52 GMT-0600 (Central Standard Time),180721.5,A,flower,I,r,278,1,3214.300000011921,177507.19999998808,8008,WL,A,2.0
1,7.364000082015991,learn,52635.99991798401,Mon Nov 04 2024 14:31:52 GMT-0600 (Central Standard Time),181121.5,A,flowerenter,I,enter,387,1,3614.300000011921,177507.19999998808,8008,WL,A,2.0
1,7.831000089645386,learn,52168.999910354614,Mon Nov 04 2024 14:31:52 GMT-0600 (Central Standard Time),181588.0,A,t,I,t,459,1,466.0,181122.0,8008,WL,A,3.0
1,8.030999898910522,learn,51969.00010108948,Mon Nov 04 2024 14:31:52 GMT-0600 (Central Standard Time),181788.0,A,tr,I,r,193,1,666.0,181122.0,8008,WL,A,3.0
1,8.680999994277954,learn,51319.000005722046,Mon Nov 04 2024 14:31:52 GMT-0600 (Central Standard Time),182437.79999998212,A,tra,I,a,633,1,1315.7999999821186,181122.0,8008,WL,A,3.0
1,9.055999994277954,learn,50944.000005722046,Mon Nov 04 2024 14:31:52 GMT-0600 (Central Standard Time),182813.29999998212,A,trai,I,i,370,1,1691.2999999821186,181122.0,8008,WL,A,3.0
1,9.263999938964844,learn,50736.000061035156,Mon Nov 04 2024 14:31:52 GMT-0600 (Central Standard Time),183021.29999998212,A,train,I,n,191,1,1899.2999999821186,181122.0,8008,WL,A,3.0
1,10.44700002670288,learn,49552.99997329712,Mon Nov 04 2024 14:31:52 GMT-0600 (Central Standard Time),184203.79999998212,A,trainenter,I,enter,1168,1,3081.7999999821186,181122.0,8008,WL,A,3.0
1,15.545000076293945,learn,44454.999923706055,Mon Nov 04 2024 14:31:52 GMT-0600 (Central Standard Time),189302.29999998212,A,k,I,k,5089,1,5098.0,184204.29999998212,8008,WL,A,4.0
1,15.994999885559082,learn,44005.00011444092,Mon Nov 04 2024 14:31:52 GMT-0600 (Central Standard Time),189752.0,A,ke,I,e,438,1,5547.700000017881,184204.29999998212,8008,WL,A,4.0
1,16.244999885559082,learn,43755.00011444092,Mon Nov 04 2024 14:31:52 GMT-0600 (Central Standard Time),190002.5,A,key,I,y,245,1,5798.200000017881,184204.29999998212,8008,WL,A,4.0
1,17.045000076293945,learn,42954.999923706055,Mon Nov 04 2024 14:31:52 GMT-0600 (Central Standard Time),190801.79999998212,A,keyenter,I,enter,779,1,6597.5,184204.29999998212,8008,WL,A,4.0
1,35.33899998664856,learn,24661.00001335144,Mon Nov 04 2024 14:31:52 GMT-0600 (Central Standard Time),209096.0,A,enter,I,enter,18283,1,18293.5,190802.5,8008,WL,A,5.0
1,36.50499987602234,learn,23495.00012397766,Mon Nov 04 2024 14:31:52 GMT-0600 (Central Standard Time),210262.29999998212,A,enter,I,enter,1157,1,1165.8999999761581,209096.40000000596,8008,WL,A,6.0
1,36.7720000743866,learn,23227.999925613403,Mon Nov 04 2024 14:31:52 GMT-0600 (Central Standard Time),210529.09999999404,A,enter,I,enter,255,1,266.30000001192093,210262.79999998212,8008,WL,A,7.0
1,36.98799991607666,learn,23012.00008392334,Mon Nov 04 2024 14:31:52 GMT-0600 (Central Standard Time),210745.40000000596,A,enter,I,enter,196,1,215.90000000596046,210529.5,8008,WL,A,8.0
1,37.187999963760376,learn,22812.000036239624,Mon Nov 04 2024 14:31:52 GMT-0600 (Central Standard Time),210945.29999998212,A,enter,I,enter,187,1,199.2999999821186,210746.0,8008,WL,A,9.0
1,37.371999979019165,learn,22628.000020980835,Mon Nov 04 2024 14:31:52 GMT-0600 (Central Standard Time),211128.79999998212,A,enter,I,enter,171,1,182.89999997615814,210945.90000000596,8008,WL,A,10.0
1,37.605000019073486,learn,22394.999980926514,Mon Nov 04 2024 14:31:52 GMT-0600 (Central Standard Time),211361.79999998212,A,enter,I,enter,220,1,232.59999999403954,211129.19999998808,8008,WL,A,11.0
1,37.9210000038147,learn,22078.999996185303,Mon Nov 04 2024 14:31:52 GMT-0600 (Central Standard Time),211678.59999999404,A,enter,I,enter,299,1,316.30000001192093,211362.29999998212,8008,WL,A,12.0
1,38.23799991607666,learn,21762.00008392334,Mon Nov 04 2024 14:31:52 GMT-0600 (Central Standard Time),211995.0,A,enter,I,enter,311,1,315.90000000596046,211679.09999999404,8008,WL,A,13.0
1,38.75499987602234,learn,21245.00012397766,Mon Nov 04 2024 14:31:52 GMT-0600 (Central Standard Time),212511.69999998808,A,enter,I,enter,498,1,516.1999999880791,211995.5,8008,WL,A,14.0
1,39.25399994850159,learn,20746.000051498413,Mon Nov 04 2024 14:31:52 GMT-0600 (Central Standard Time),213011.40000000596,A,enter,I,enter,493,1,499.2000000178814,212512.19999998808,8008,WL,A,15.0
2,1.317000150680542,learn,58682.99984931946,Mon Nov 04 2024 14:31:52 GMT-0600 (Central Standard Time),285605.2999999821,A,g,I,g,1306,1,1315.7999999821186,284289.5,8008,WL,A,1.0
2,1.7660000324249268,learn,58233.99996757507,Mon Nov 04 2024 14:31:52 GMT-0600 (Central Standard Time),286055.09999999404,A,go,I,o,431,1,1765.5999999940395,284289.5,8008,WL,A,1.0
2,2.0500001907348633,learn,57949.99980926514,Mon Nov 04 2024 14:31:52 GMT-0600 (Central Standard Time),286338.40000000596,A,gol,I,l,278,1,2048.9000000059605,284289.5,8008,WL,A,1.0
2,2.450000047683716,learn,57549.999952316284,Mon Nov 04 2024 14:31:52 GMT-0600 (Central Standard Time),286738.5,A,gold,I,d,379,1,2449.0,284289.5,8008,WL,A,1.0
2,2.8330001831054688,learn,57166.99981689453,Mon Nov 04 2024 14:31:52 GMT-0600 (Central Standard Time),287121.59999999404,A,goldenter,I,enter,363,1,2832.0999999940395,284289.5,8008,WL,A,1.0
2,3.3990001678466797,learn,56600.99983215332,Mon Nov 04 2024 14:31:52 GMT-0600 (Central Standard Time),287688.0,A,s,I,s,556,1,566.0999999940395,287121.90000000596,8008,WL,A,2.0
2,3.565999984741211,learn,56434.00001525879,Mon Nov 04 2024 14:31:52 GMT-0600 (Central Standard Time),287854.90000000596,A,sa,I,a,149,1,733.0,287121.90000000596,8008,WL,A,2.0
2,3.9160001277923584,learn,56083.99987220764,Mon Nov 04 2024 14:31:52 GMT-0600 (Central Standard Time),288204.5,A,sal,I,l,343,1,1082.5999999940395,287121.90000000596,8008,WL,A,2.0
2,4.299000024795532,learn,55700.99997520447,Mon Nov 04 2024 14:31:52 GMT-0600 (Central Standard Time),288587.6999999881,A,salt,I,t,377,1,1465.7999999821186,287121.90000000596,8008,WL,A,2.0
2,4.64900016784668,learn,55350.99983215332,Mon Nov 04 2024 14:31:52 GMT-0600 (Central Standard Time),288937.90000000596,A,saltenter,I,enter,329,1,1816.0,287121.90000000596,8008,WL,A,2.0
2,5.182000160217285,learn,54817.999839782715,Mon Nov 04 2024 14:31:52 GMT-0600 (Central Standard Time),289470.90000000596,A,f,I,f,515,1,532.5,288938.40000000596,8008,WL,A,3.0
2,5.64900016784668,learn,54350.99983215332,Mon Nov 04 2024 14:31:52 GMT-0600 (Central Standard Time),289937.2999999821,A,fi,I,i,455,1,998.8999999761581,288938.40000000596,8008,WL,A,3.0
2,5.982000112533569,learn,54017.99988746643,Mon Nov 04 2024 14:31:52 GMT-0600 (Central Standard Time),290270.59999999404,A,fin,I,n,324,1,1332.199999988079,288938.40000000596,8008,WL,A,3.0
2,6.448000192642212,learn,53551.99980735779,Mon Nov 04 2024 14:31:52 GMT-0600 (Central Standard Time),290737.09999999404,A,fing,I,g,455,1,1798.699999988079,288938.40000000596,8008,WL,A,3.0
2,6.832000017166138,learn,53167.99998283386,Mon Nov 04 2024 14:31:52 GMT-0600 (Central Standard Time),291120.2999999821,A,finge,I,e,372,1,2181.899999976158,288938.40000000596,8008,WL,A,3.0
2,7.015000104904175,learn,52984.999895095825,Mon Nov 04 2024 14:31:52 GMT-0600 (Central Standard Time),291303.59999999404,A,finger,I,r,173,1,2365.199999988079,288938.40000000596,8008,WL,A,3.0
2,7.4150002002716064,learn,52584.99979972839,Mon Nov 04 2024 14:31:52 GMT-0600 (Central Standard Time),291703.40000000596,A,fingerenter,I,enter,389,1,2765.0,288938.40000000596,8008,WL,A,3.0
2,8.364000082015991,learn,51635.99991798401,Mon Nov 04 2024 14:31:52 GMT-0600 (Central Standard Time),292653.2999999821,A,r,I,r,942,1,949.5,291703.7999999821,8008,WL,A,4.0
2,8.731000185012817,learn,51268.99981498718,Mon Nov 04 2024 14:31:52 GMT-0600 (Central Standard Time),293019.7999999821,A,ru,I,u,352,1,1316.0,291703.7999999821,8008,WL,A,4.0
2,9.014000177383423,learn,50985.99982261658,Mon Nov 04 2024 14:31:52 GMT-0600 (Central Standard Time),293303.0,A,rug,I,g,273,1,1599.2000000178814,291703.7999999821,8008,WL,A,4.0
2,9.44700002670288,learn,50552.99997329712,Mon Nov 04 2024 14:31:52 GMT-0600 (Central Standard Time),293736.1999999881,A,rugenter,I,enter,422,1,2032.4000000059605,291703.7999999821,8008,WL,A,4.0
2,9.913000106811523,learn,50086.99989318848,Mon Nov 04 2024 14:31:52 GMT-0600 (Central Standard Time),294202.5,A,a,I,a,461,1,466.09999999403954,293736.40000000596,8008,WL,A,5.0
2,10.34600019454956,learn,49653.99980545044,Mon Nov 04 2024 14:31:52 GMT-0600 (Central Standard Time),294635.5,A,ap,I,p,427,1,899.0999999940395,293736.40000000596,8008,WL,A,5.0
2,10.496000051498413,learn,49503.99994850159,Mon Nov 04 2024 14:31:52 GMT-0600 (Central Standard Time),294786.0,A,app,I,p,130,1,1049.5999999940395,293736.40000000596,8008,WL,A,5.0
2,10.730000019073486,learn,49269.999980926514,Mon Nov 04 2024 14:31:52 GMT-0600 (Central Standard Time),295020.09999999404,A,appl,I,l,227,1,1283.699999988079,293736.40000000596,8008,WL,A,5.0
2,11.111999988555908,learn,48888.00001144409,Mon Nov 04 2024 14:31:52 GMT-0600 (Central Standard Time),295402.1999999881,A,apple,I,e,369,1,1665.7999999821186,293736.40000000596,8008,WL,A,5.0
2,11.629000186920166,learn,48370.999813079834,Mon Nov 04 2024 14:31:52 GMT-0600 (Central Standard Time),295918.90000000596,A,appleenter,I,enter,507,1,2182.5,293736.40000000596,8008,WL,A,5.0
2,12.26200008392334,learn,47737.99991607666,Mon Nov 04 2024 14:31:52 GMT-0600 (Central Standard Time),296552.0,A,t,I,t,614,1,632.9000000059605,295919.09999999404,8008,WL,A,6.0
2,12.462000131607056,learn,47537.999868392944,Mon Nov 04 2024 14:31:52 GMT-0600 (Central Standard Time),296752.0,A,tr,I,r,181,1,832.9000000059605,295919.09999999404,8008,WL,A,6.0
2,13.111999988555908,learn,46888.00001144409,Mon Nov 04 2024 14:31:52 GMT-0600 (Central Standard Time),297401.6999999881,A,tra,I,a,637,1,1482.5999999940395,295919.09999999404,8008,WL,A,6.0
2,13.51200008392334,learn,46487.99991607666,Mon Nov 04 2024 14:31:52 GMT-0600 (Central Standard Time),297801.6999999881,A,trai,I,i,380,1,1882.5999999940395,295919.09999999404,8008,WL,A,6.0
2,13.695000171661377,learn,46304.99982833862,Mon Nov 04 2024 14:31:52 GMT-0600 (Central Standard Time),297985.09999999404,A,train,I,n,172,1,2066.0,295919.09999999404,8008,WL,A,6.0
2,14.495000123977661,learn,45504.99987602234,Mon Nov 04 2024 14:31:52 GMT-0600 (Central Standard Time),298784.7999999821,A,trainenter,I,enter,788,1,2865.699999988079,295919.09999999404,8008,WL,A,6.0
2,15.32800006866455,learn,44671.99993133545,Mon Nov 04 2024 14:31:52 GMT-0600 (Central Standard Time),299617.6999999881,A,f,I,f,821,1,832.5999999940395,298785.09999999404,8008,WL,A,7.0
2,15.544000148773193,learn,44455.99985122681,Mon Nov 04 2024 14:31:52 GMT-0600 (Central Standard Time),299834.2999999821,A,fl,I,l,212,1,1049.199999988079,298785.09999999404,8008,WL,A,7.0
2,15.811000108718872,learn,44188.99989128113,Mon Nov 04 2024 14:31:52 GMT-0600 (Central Standard Time),300101.0,A,flo,I,o,251,1,1315.9000000059605,298785.09999999404,8008,WL,A,7.0
2,16.187000036239624,learn,43812.999963760376,Mon Nov 04 2024 14:31:52 GMT-0600 (Central Standard Time),300477.1999999881,A,flow,I,w,354,1,1692.0999999940395,298785.09999999404,8008,WL,A,7.0
2,16.377000093460083,learn,43622.99990653992,Mon Nov 04 2024 14:31:52 GMT-0600 (Central Standard Time),300667.40000000596,A,flowe,I,e,175,1,1882.300000011921,298785.09999999404,8008,WL,A,7.0
2,16.710999965667725,learn,43289.000034332275,Mon Nov 04 2024 14:31:52 GMT-0600 (Central Standard Time),301000.5,A,flower,I,r,322,1,2215.4000000059605,298785.09999999404,8008,WL,A,7.0
2,17.177000045776367,learn,42822.99995422363,Mon Nov 04 2024 14:31:52 GMT-0600 (Central Standard Time),301466.90000000596,A,flowerenter,I,enter,461,1,2681.800000011921,298785.09999999404,8008,WL,A,7.0
2,18.042999982833862,learn,41957.00001716614,Mon Nov 04 2024 14:31:52 GMT-0600 (Central Standard Time),302333.5,A,k,I,k,859,1,866.4000000059605,301467.09999999404,8008,WL,A,8.0
2,18.443000078201294,learn,41556.999921798706,Mon Nov 04 2024 14:31:52 GMT-0600 (Central Standard Time),302733.2999999821,A,ke,I,e,392,1,1266.199999988079,301467.09999999404,8008,WL,A,8.0
2,18.72699999809265,learn,41273.00000190735,Mon Nov 04 2024 14:31:52 GMT-0600 (Central Standard Time),303016.6999999881,A,key,I,y,272,1,1549.5999999940395,301467.09999999404,8008,WL,A,8.0
2,19.460000038146973,learn,40539.99996185303,Mon Nov 04 2024 14:31:52 GMT-0600 (Central Standard Time),303749.7999999821,A,keyenter,I,enter,725,1,2282.699999988079,301467.09999999404,8008,WL,A,8.0
2,20.759000062942505,learn,39240.999937057495,Mon Nov 04 2024 14:31:52 GMT-0600 (Central Standard Time),305049.1999999881,A,c,I,c,1280,1,1299.0999999940395,303750.09999999404,8008,WL,A,9.0
2,21.026000022888184,learn,38973.99997711182,Mon Nov 04 2024 14:31:52 GMT-0600 (Central Standard Time),305315.90000000596,A,ch,I,h,252,1,1565.800000011921,303750.09999999404,8008,WL,A,9.0
2,21.37600016593933,learn,38623.99983406067,Mon Nov 04 2024 14:31:52 GMT-0600 (Central Standard Time),305665.90000000596,A,chi,I,i,330,1,1915.800000011921,303750.09999999404,8008,WL,A,9.0
2,21.742000102996826,learn,38257.999897003174,Mon Nov 04 2024 14:31:52 GMT-0600 (Central Standard Time),306032.1999999881,A,chim,I,m,348,1,2282.0999999940395,303750.09999999404,8008,WL,A,9.0
2,22.05900001525879,learn,37940.99998474121,Mon Nov 04 2024 14:31:52 GMT-0600 (Central Standard Time),306348.90000000596,A,chimn,I,n,309,1,2598.800000011921,303750.09999999404,8008,WL,A,9.0
2,22.475000143051147,learn,37524.99985694885,Mon Nov 04 2024 14:31:52 GMT-0600 (Central Standard Time),306765.2999999821,A,chimne,I,e,400,1,3015.199999988079,303750.09999999404,8008,WL,A,9.0
2,23.30900001525879,learn,36690.99998474121,Mon Nov 04 2024 14:31:52 GMT-0600 (Central Standard Time),307598.5,A,chimney,I,y,824,1,3848.4000000059605,303750.09999999404,8008,WL,A,9.0
2,24.407999992370605,learn,35592.000007629395,Mon Nov 04 2024 14:31:52 GMT-0600 (Central Standard Time),308698.09999999404,A,chimneyenter,I,enter,1095,1,4948.0,303750.09999999404,8008,WL,A,9.0
2,30.240000009536743,learn,29759.999990463257,Mon Nov 04 2024 14:31:52 GMT-0600 (Central Standard Time),314529.7999999821,A,r,I,r,5811,1,5831.399999976158,308698.40000000596,8008,WL,A,10.0
2,30.805999994277954,learn,29194.000005722046,Mon Nov 04 2024 14:31:52 GMT-0600 (Central Standard Time),315096.1999999881,A,ra,I,a,547,1,6397.799999982119,308698.40000000596,8008,WL,A,10.0
2,31.289000034332275,learn,28710.999965667725,Mon Nov 04 2024 14:31:52 GMT-0600 (Central Standard Time),315579.2999999821,A,rat,I,t,477,1,6880.899999976158,308698.40000000596,8008,WL,A,10.0
2,31.539000034332275,learn,28460.999965667725,Mon Nov 04 2024 14:31:52 GMT-0600 (Central Standard Time),315829.09999999404,A,ratt,I,t,234,1,7130.699999988079,308698.40000000596,8008,WL,A,10.0
2,31.789000034332275,learn,28210.999965667725,Mon Nov 04 2024 14:31:52 GMT-0600 (Central Standard Time),316079.0,A,rattl,I,l,240,1,7380.5999999940395,308698.40000000596,8008,WL,A,10.0
2,32.1560001373291,learn,27843.9998626709,Mon Nov 04 2024 14:31:52 GMT-0600 (Central Standard Time),316445.6999999881,A,rattle,I,e,350,1,7747.299999982119,308698.40000000596,8008,WL,A,10.0
2,33.73800015449524,learn,26261.99984550476,Mon Nov 04 2024 14:31:52 GMT-0600 (Central Standard Time),318028.40000000596,A,rattleenter,I,enter,1575,1,9330.0,308698.40000000596,8008,WL,A,10.0
2,45.51800012588501,learn,14481.99987411499,Mon Nov 04 2024 14:31:52 GMT-0600 (Central Standard Time),329808.0,A,enter,I,enter,11761,1,11779.300000011921,318028.6999999881,8008,WL,A,11.0
2,46.20099997520447,learn,13799.000024795532,Mon Nov 04 2024 14:31:52 GMT-0600 (Central Standard Time),330491.1999999881,A,enter,I,enter,669,1,682.7999999821186,329808.40000000596,8008,WL,A,12.0
2,46.70099997520447,learn,13299.000024795532,Mon Nov 04 2024 14:31:52 GMT-0600 (Central Standard Time),330991.09999999404,A,enter,I,enter,490,1,499.40000000596046,330491.6999999881,8008,WL,A,13.0
2,47.20099997520447,learn,12799.000024795532,Mon Nov 04 2024 14:31:52 GMT-0600 (Central Standard Time),331491.0,A,enter,I,enter,486,1,499.59999999403954,330991.40000000596,8008,WL,A,14.0
2,48.117000102996826,learn,11882.999897003174,Mon Nov 04 2024 14:31:52 GMT-0600 (Central Standard Time),332407.1999999881,A,enter,I,enter,899,1,915.7999999821186,331491.40000000596,8008,WL,A,15.0
3,0.9330000877380371,learn,59066.99991226196,Mon Nov 04 2024 14:31:52 GMT-0600 (Central Standard Time),401902.09999999404,A,h,I,h,917,1,932.8000000119209,400969.2999999821,8008,WL,A,1.0
3,1.4000000953674316,learn,58599.99990463257,Mon Nov 04 2024 14:31:52 GMT-0600 (Central Standard Time),402368.7999999821,A,ha,I,a,447,1,1399.5,400969.2999999821,8008,WL,A,1.0
3,1.9160001277923584,learn,58083.99987220764,Mon Nov 04 2024 14:31:52 GMT-0600 (Central Standard Time),402885.2999999821,A,har,I,r,501,1,1916.0,400969.2999999821,8008,WL,A,1.0
3,2.116000175476074,learn,57883.999824523926,Mon Nov 04 2024 14:31:52 GMT-0600 (Central Standard Time),403085.09999999404,A,harp,I,p,192,1,2115.800000011921,400969.2999999821,8008,WL,A,1.0
3,2.7330000400543213,learn,57266.99995994568,Mon Nov 04 2024 14:31:52 GMT-0600 (Central Standard Time),403701.6999999881,A,harpenter,I,enter,609,1,2732.4000000059605,400969.2999999821,8008,WL,A,1.0
3,3.366000175476074,learn,56633.999824523926,Mon Nov 04 2024 14:31:52 GMT-0600 (Central Standard Time),404334.7999999821,A,b,I,b,616,1,632.6999999880791,403702.09999999404,8008,WL,A,2.0
3,3.7340002059936523,learn,56265.99979400635,Mon Nov 04 2024 14:31:52 GMT-0600 (Central Standard Time),404703.2999999821,A,bo,I,o,358,1,1001.1999999880791,403702.09999999404,8008,WL,A,2.0
3,3.882000207901001,learn,56117.999792099,Mon Nov 04 2024 14:31:52 GMT-0600 (Central Standard Time),404851.2999999821,A,boo,I,o,134,1,1149.199999988079,403702.09999999404,8008,WL,A,2.0
3,4.116000175476074,learn,55883.999824523926,Mon Nov 04 2024 14:31:52 GMT-0600 (Central Standard Time),405084.5,A,book,I,k,218,1,1382.4000000059605,403702.09999999404,8008,WL,A,2.0
3,4.682000160217285,learn,55317.999839782715,Mon Nov 04 2024 14:31:52 GMT-0600 (Central Standard Time),405651.1999999881,A,bookenter,I,enter,553,1,1949.0999999940395,403702.09999999404,8008,WL,A,2.0
3,5.132000207901001,learn,54867.999792099,Mon Nov 04 2024 14:31:52 GMT-0600 (Central Standard Time),406100.7999999821,A,l,I,l,434,1,449.2999999821186,405651.5,8008,WL,A,3.0
3,5.382000207901001,learn,54617.999792099,Mon Nov 04 2024 14:31:52 GMT-0600 (Central Standard Time),406350.90000000596,A,lo,I,o,241,1,699.4000000059605,405651.5,8008,WL,A,3.0
3,6.3480000495910645,learn,53651.999950408936,Mon Nov 04 2024 14:31:52 GMT-0600 (Central Standard Time),407317.2999999821,A,log,I,g,958,1,1665.7999999821186,405651.5,8008,WL,A,3.0
3,6.565000057220459,learn,53434.99994277954,Mon Nov 04 2024 14:31:52 GMT-0600 (Central Standard Time),407533.90000000596,A,logenter,I,enter,208,1,1882.4000000059605,405651.5,8008,WL,A,3.0
3,7.180999994277954,learn,52819.000005722046,Mon Nov 04 2024 14:31:52 GMT-0600 (Central Standard Time),408150.1999999881,A,m,I,m,600,1,616.0,407534.1999999881,8008,WL,A,4.0
3,7.448000192642212,learn,52551.99980735779,Mon Nov 04 2024 14:31:52 GMT-0600 (Central Standard Time),408416.7999999821,A,me,I,e,255,1,882.5999999940395,407534.1999999881,8008,WL,A,4.0
3,7.748000144958496,learn,52251.999855041504,Mon Nov 04 2024 14:31:52 GMT-0600 (Central Standard Time),408716.7999999821,A,mea,I,a,284,1,1182.5999999940395,407534.1999999881,8008,WL,A,4.0
3,8.065000057220459,learn,51934.99994277954,Mon Nov 04 2024 14:31:52 GMT-0600 (Central Standard Time),409033.5,A,mead,I,d,296,1,1499.300000011921,407534.1999999881,8008,WL,A,4.0
3,8.430999994277954,learn,51569.000005722046,Mon Nov 04 2024 14:31:52 GMT-0600 (Central Standard Time),409400.0,A,meado,I,o,356,1,1865.800000011921,407534.1999999881,8008,WL,A,4.0
3,8.747000217437744,learn,51252.999782562256,Mon Nov 04 2024 14:31:52 GMT-0600 (Central Standard Time),409716.40000000596,A,meadow,I,w,301,1,2182.2000000178814,407534.1999999881,8008,WL,A,4.0
3,9.331000089645386,learn,50668.999910354614,Mon Nov 04 2024 14:31:52 GMT-0600 (Central Standard Time),410299.6999999881,A,meadowenter,I,enter,577,1,2765.5,407534.1999999881,8008,WL,A,4.0
3,11.546000003814697,learn,48453.9999961853,Mon Nov 04 2024 14:31:52 GMT-0600 (Central Standard Time),412515.2999999821,A,r,I,r,2202,1,2215.2999999821186,410300.0,8008,WL,A,5.0
3,11.963000059127808,learn,48036.99994087219,Mon Nov 04 2024 14:31:52 GMT-0600 (Central Standard Time),412932.1999999881,A,ru,I,u,410,1,2632.199999988079,410300.0,8008,WL,A,5.0
3,12.246000051498413,learn,47753.99994850159,Mon Nov 04 2024 14:31:52 GMT-0600 (Central Standard Time),413215.2999999821,A,rug,I,g,273,1,2915.2999999821186,410300.0,8008,WL,A,5.0
3,12.731000185012817,learn,47268.99981498718,Mon Nov 04 2024 14:31:52 GMT-0600 (Central Standard Time),413699.90000000596,A,rugenter,I,enter,470,1,3399.9000000059605,410300.0,8008,WL,A,5.0
3,13.162000179290771,learn,46837.99982070923,Mon Nov 04 2024 14:31:52 GMT-0600 (Central Standard Time),414131.7999999821,A,r,I,r,426,1,431.59999999403954,413700.1999999881,8008,WL,A,6.0
3,13.57800006866455,learn,46421.99993133545,Mon Nov 04 2024 14:31:52 GMT-0600 (Central Standard Time),414548.40000000596,A,ra,I,a,409,1,848.2000000178814,413700.1999999881,8008,WL,A,6.0
3,14.011000156402588,learn,45988.99984359741,Mon Nov 04 2024 14:31:52 GMT-0600 (Central Standard Time),414981.5,A,rat,I,t,425,1,1281.300000011921,413700.1999999881,8008,WL,A,6.0
3,14.228000164031982,learn,45771.99983596802,Mon Nov 04 2024 14:31:52 GMT-0600 (Central Standard Time),415198.0,A,ratt,I,t,208,1,1497.800000011921,413700.1999999881,8008,WL,A,6.0
3,14.445000171661377,learn,45554.99982833862,Mon Nov 04 2024 14:31:52 GMT-0600 (Central Standard Time),415414.6999999881,A,rattl,I,l,208,1,1714.5,413700.1999999881,8008,WL,A,6.0
3,14.745000123977661,learn,45254.99987602234,Mon Nov 04 2024 14:31:52 GMT-0600 (Central Standard Time),415714.5,A,rattle,I,e,279,1,2014.300000011921,413700.1999999881,8008,WL,A,6.0
3,15.144000053405762,learn,44855.99994659424,Mon Nov 04 2024 14:31:52 GMT-0600 (Central Standard Time),416114.40000000596,A,rattleenter,I,enter,395,1,2414.2000000178814,413700.1999999881,8008,WL,A,6.0
3,15.628000020980835,learn,44371.999979019165,Mon Nov 04 2024 14:31:52 GMT-0600 (Central Standard Time),416597.59999999404,A,f,I,f,475,1,482.80000001192093,416114.7999999821,8008,WL,A,7.0
3,15.91100001335144,learn,44088.99998664856,Mon Nov 04 2024 14:31:52 GMT-0600 (Central Standard Time),416880.7999999821,A,fi,I,i,272,1,766.0,416114.7999999821,8008,WL,A,7.0
3,16.211000204086304,learn,43788.999795913696,Mon Nov 04 2024 14:31:52 GMT-0600 (Central Standard Time),417181.0,A,fin,I,n,284,1,1066.2000000178814,416114.7999999821,8008,WL,A,7.0
3,16.544000148773193,learn,43455.99985122681,Mon Nov 04 2024 14:31:52 GMT-0600 (Central Standard Time),417514.0,A,fing,I,g,312,1,1399.2000000178814,416114.7999999821,8008,WL,A,7.0
3,16.794000148773193,learn,43205.99985122681,Mon Nov 04 2024 14:31:52 GMT-0600 (Central Standard Time),417763.7999999821,A,finge,I,e,243,1,1649.0,416114.7999999821,8008,WL,A,7.0
3,17.039000034332275,learn,42960.999965667725,Mon Nov 04 2024 14:31:52 GMT-0600 (Central Standard Time),418008.90000000596,A,finger,I,r,241,1,1894.1000000238419,416114.7999999821,8008,WL,A,7.0
3,17.22699999809265,learn,42773.00000190735,Mon Nov 04 2024 14:31:52 GMT-0600 (Central Standard Time),418196.7999999821,A,fingerenter,I,enter,181,1,2082.0,416114.7999999821,8008,WL,A,7.0
3,17.64400005340576,learn,42355.99994659424,Mon Nov 04 2024 14:31:52 GMT-0600 (Central Standard Time),418613.6999999881,A,s,I,s,401,1,416.59999999403954,418197.09999999404,8008,WL,A,8.0
3,17.794000148773193,learn,42205.99985122681,Mon Nov 04 2024 14:31:52 GMT-0600 (Central Standard Time),418763.6999999881,A,sa,I,a,136,1,566.5999999940395,418197.09999999404,8008,WL,A,8.0
3,18.193000078201294,learn,41806.999921798706,Mon Nov 04 2024 14:31:52 GMT-0600 (Central Standard Time),419163.5,A,sal,I,l,386,1,966.4000000059605,418197.09999999404,8008,WL,A,8.0
3,18.41000008583069,learn,41589.99991416931,Mon Nov 04 2024 14:31:52 GMT-0600 (Central Standard Time),419380.1999999881,A,salt,I,t,210,1,1183.0999999940395,418197.09999999404,8008,WL,A,8.0
3,19.276000022888184,learn,40723.99997711182,Mon Nov 04 2024 14:31:52 GMT-0600 (Central Standard Time),420246.40000000596,A,saltenter,I,enter,849,1,2049.300000011921,418197.09999999404,8008,WL,A,8.0
3,27.407000064849854,learn,32592.999935150146,Mon Nov 04 2024 14:31:52 GMT-0600 (Central Standard Time),428377.09999999404,A,c,I,c,8119,1,8130.300000011921,420246.7999999821,8008,WL,A,9.0
3,27.757000207901,learn,32242.999792099,Mon Nov 04 2024 14:31:52 GMT-0600 (Central Standard Time),428727.09999999404,A,ch,I,h,332,1,8480.300000011921,420246.7999999821,8008,WL,A,9.0
3,28.174000024795532,learn,31825.999975204468,Mon Nov 04 2024 14:31:52 GMT-0600 (Central Standard Time),429143.6999999881,A,chi,I,i,406,1,8896.90000000596,420246.7999999821,8008,WL,A,9.0
3,28.507000207901,learn,31492.999792099,Mon Nov 04 2024 14:31:52 GMT-0600 (Central Standard Time),429477.0,A,chim,I,m,318,1,9230.200000017881,420246.7999999821,8008,WL,A,9.0
3,28.823000192642212,learn,31176.999807357788,Mon Nov 04 2024 14:31:52 GMT-0600 (Central Standard Time),429793.2999999821,A,chimn,I,n,304,1,9546.5,420246.7999999821,8008,WL,A,9.0
3,29.123000144958496,learn,30876.999855041504,Mon Nov 04 2024 14:31:52 GMT-0600 (Central Standard Time),430093.2999999821,A,chimne,I,e,292,1,9846.5,420246.7999999821,8008,WL,A,9.0
3,29.390000104904175,learn,30609.999895095825,Mon Nov 04 2024 14:31:52 GMT-0600 (Central Standard Time),430360.09999999404,A,chimney,I,y,248,1,10113.300000011921,420246.7999999821,8008,WL,A,9.0
3,30.305999994277954,learn,29694.000005722046,Mon Nov 04 2024 14:31:52 GMT-0600 (Central Standard Time),431276.2999999821,A,chimneyenter,I,enter,910,1,11029.5,420246.7999999821,8008,WL,A,9.0
3,36.03800010681152,learn,23961.999893188477,Mon Nov 04 2024 14:31:52 GMT-0600 (Central Standard Time),437007.7999999821,A,f,I,f,5721,1,5731.0999999940395,431276.6999999881,8008,WL,A,10.0
3,36.30400013923645,learn,23695.99986076355,Mon Nov 04 2024 14:31:52 GMT-0600 (Central Standard Time),437274.40000000596,A,fl,I,l,262,1,5997.700000017881,431276.6999999881,8008,WL,A,10.0
3,36.62100005149841,learn,23378.999948501587,Mon Nov 04 2024 14:31:52 GMT-0600 (Central Standard Time),437591.09999999404,A,flo,I,o,307,1,6314.4000000059605,431276.6999999881,8008,WL,A,10.0
3,36.88800001144409,learn,23111.99998855591,Mon Nov 04 2024 14:31:52 GMT-0600 (Central Standard Time),437857.59999999404,A,flow,I,w,246,1,6580.9000000059605,431276.6999999881,8008,WL,A,10.0
3,37.170000076293945,learn,22829.999923706055,Mon Nov 04 2024 14:31:52 GMT-0600 (Central Standard Time),438140.5,A,flowe,I,e,276,1,6863.800000011921,431276.6999999881,8008,WL,A,10.0
3,37.48700022697449,learn,22512.999773025513,Mon Nov 04 2024 14:31:52 GMT-0600 (Central Standard Time),438457.1999999881,A,flower,I,r,297,1,7180.5,431276.6999999881,8008,WL,A,10.0
3,38.087000131607056,learn,21912.999868392944,Mon Nov 04 2024 14:31:52 GMT-0600 (Central Standard Time),439057.1999999881,A,flowerenter,I,enter,580,1,7780.5,431276.6999999881,8008,WL,A,10.0
3,39.30400013923645,learn,20695.99986076355,Mon Nov 04 2024 14:31:52 GMT-0600 (Central Standard Time),440273.6999999881,A,g,I,g,1204,1,1216.199999988079,439057.5,8008,WL,A,11.0
3,39.62000012397766,learn,20379.99987602234,Mon Nov 04 2024 14:31:52 GMT-0600 (Central Standard Time),440590.09999999404,A,go,I,o,308,1,1532.5999999940395,439057.5,8008,WL,A,11.0
3,39.88700008392334,learn,20112.99991607666,Mon Nov 04 2024 14:31:52 GMT-0600 (Central Standard Time),440856.59999999404,A,gol,I,l,255,1,1799.0999999940395,439057.5,8008,WL,A,11.0
3,40.20300006866455,learn,19796.99993133545,Mon Nov 04 2024 14:31:52 GMT-0600 (Central Standard Time),441172.90000000596,A,gold,I,d,309,1,2115.4000000059605,439057.5,8008,WL,A,11.0
3,40.58200001716614,learn,19417.999982833862,Mon Nov 04 2024 14:31:52 GMT-0600 (Central Standard Time),441551.59999999404,A,goldenter,I,enter,374,1,2494.0999999940395,439057.5,8008,WL,A,11.0
3,41.13600015640259,learn,18863.999843597412,Mon Nov 04 2024 14:31:52 GMT-0600 (Central Standard Time),442106.1999999881,A,k,I,k,550,1,554.0,441552.1999999881,8008,WL,A,12.0
3,41.61900019645691,learn,18380.99980354309,Mon Nov 04 2024 14:31:52 GMT-0600 (Central Standard Time),442589.2999999821,A,ke,I,e,467,1,1037.0999999940395,441552.1999999881,8008,WL,A,12.0
3,41.986000061035156,learn,18013.999938964844,Mon Nov 04 2024 14:31:52 GMT-0600 (Central Standard Time),442955.6999999881,A,key,I,y,352,1,1403.5,441552.1999999881,8008,WL,A,12.0
3,43.01900005340576,learn,16980.99994659424,Mon Nov 04 2024 14:31:52 GMT-0600 (Central Standard Time),443989.0,A,keyenter,I,enter,1026,1,2436.800000011921,441552.1999999881,8008,WL,A,12.0
3,59.54700016975403,learn,452.9998302459717,Mon Nov 04 2024 14:31:52 GMT-0600 (Central Standard Time),460517.1999999881,A,enter,I,enter,16521,1,16528.0,443989.1999999881,8008,WL,A,13.0
3,59.88000011444092,learn,119.99988555908203,Mon Nov 04 2024 14:31:52 GMT-0600 (Central Standard Time),460850.2999999821,A,enter,I,enter,320,1,332.69999998807907,460517.59999999404,8008,WL,A,14.0
3,60.01400017738342,learn,-14.000177383422852,Mon Nov 04 2024 14:31:52 GMT-0600 (Central Standard Time),460983.6999999881,A,None,I,None,128,1,133.0,460850.6999999881,8008,WL,A,15.0
4,1.2170000076293945,learn,58782.999992370605,Mon Nov 04 2024 14:31:52 GMT-0600 (Central Standard Time),533860.7999999821,A,a,I,a,1209,1,1216.0999999940395,532644.6999999881,8008,WL,A,1.0
4,1.5989999771118164,learn,58401.00002288818,Mon Nov 04 2024 14:31:52 GMT-0600 (Central Standard Time),534244.0,A,ap,I,p,369,1,1599.300000011921,532644.6999999881,8008,WL,A,1.0
4,1.7820000648498535,learn,58217.99993515015,Mon Nov 04 2024 14:31:52 GMT-0600 (Central Standard Time),534427.400000006,A,app,I,p,169,1,1782.7000000178814,532644.6999999881,8008,WL,A,1.0
4,2.0320000648498535,learn,57967.99993515015,Mon Nov 04 2024 14:31:52 GMT-0600 (Central Standard Time),534677.1999999881,A,appl,I,l,234,1,2032.5,532644.6999999881,8008,WL,A,1.0
4,2.4820001125335693,learn,57517.99988746643,Mon Nov 04 2024 14:31:52 GMT-0600 (Central Standard Time),535127.0,A,apple,I,e,440,1,2482.300000011921,532644.6999999881,8008,WL,A,1.0
4,2.8989999294281006,learn,57101.0000705719,Mon Nov 04 2024 14:31:52 GMT-0600 (Central Standard Time),535543.6999999881,A,appleenter,I,enter,406,1,2899.0,532644.6999999881,8008,WL,A,1.0
4,3.4820001125335693,learn,56517.99988746643,Mon Nov 04 2024 14:31:52 GMT-0600 (Central Standard Time),536127.0,A,b,I,b,574,1,582.9000000059605,535544.099999994,8008,WL,A,2.0
4,3.7980000972747803,learn,56201.99990272522,Mon Nov 04 2024 14:31:52 GMT-0600 (Central Standard Time),536443.599999994,A,bu,I,u,303,1,899.5,535544.099999994,8008,WL,A,2.0
4,4.04800009727478,learn,55951.99990272522,Mon Nov 04 2024 14:31:52 GMT-0600 (Central Standard Time),536693.2999999821,A,but,I,t,242,1,1149.199999988079,535544.099999994,8008,WL,A,2.0
4,4.230999946594238,learn,55769.00005340576,Mon Nov 04 2024 14:31:52 GMT-0600 (Central Standard Time),536876.599999994,A,butt,I,t,168,1,1332.5,535544.099999994,8008,WL,A,2.0
4,4.447999954223633,learn,55552.00004577637,Mon Nov 04 2024 14:31:52 GMT-0600 (Central Standard Time),537093.0,A,butto,I,o,201,1,1548.9000000059605,535544.099999994,8008,WL,A,2.0
4,4.615000009536743,learn,55384.99999046326,Mon Nov 04 2024 14:31:52 GMT-0600 (Central Standard Time),537259.900000006,A,button,I,n,160,1,1715.800000011921,535544.099999994,8008,WL,A,2.0
4,5.364000082015991,learn,54635.99991798401,Mon Nov 04 2024 14:31:52 GMT-0600 (Central Standard Time),538009.5,A,buttonenter,I,enter,738,1,2465.4000000059605,535544.099999994,8008,WL,A,2.0
4,6.5309998989105225,learn,53469.00010108948,Mon Nov 04 2024 14:31:52 GMT-0600 (Central Standard Time),539176.0,A,b,I,b,1148,1,1166.0999999940395,538009.900000006,8008,WL,A,3.0
4,6.796999931335449,learn,53203.00006866455,Mon Nov 04 2024 14:31:52 GMT-0600 (Central Standard Time),539442.400000006,A,bo,I,o,254,1,1432.5,538009.900000006,8008,WL,A,3.0
4,6.96399998664856,learn,53036.00001335144,Mon Nov 04 2024 14:31:52 GMT-0600 (Central Standard Time),539609.0,A,boo,I,o,147,1,1599.0999999940395,538009.900000006,8008,WL,A,3.0
4,7.180999994277954,learn,52819.000005722046,Mon Nov 04 2024 14:31:52 GMT-0600 (Central Standard Time),539825.7999999821,A,book,I,k,197,1,1815.8999999761581,538009.900000006,8008,WL,A,3.0
4,7.680000066757202,learn,52319.9999332428,Mon Nov 04 2024 14:31:52 GMT-0600 (Central Standard Time),540325.5,A,bookenter,I,enter,492,1,2315.5999999940395,538009.900000006,8008,WL,A,3.0
4,8.230000019073486,learn,51769.999980926514,Mon Nov 04 2024 14:31:52 GMT-0600 (Central Standard Time),540875.400000006,A,f,I,f,536,1,549.6000000238419,540325.7999999821,8008,WL,A,4.0
4,8.463000059127808,learn,51536.99994087219,Mon Nov 04 2024 14:31:52 GMT-0600 (Central Standard Time),541108.599999994,A,fl,I,l,218,1,782.8000000119209,540325.7999999821,8008,WL,A,4.0
4,8.713000059127808,learn,51286.99994087219,Mon Nov 04 2024 14:31:52 GMT-0600 (Central Standard Time),541358.400000006,A,flo,I,o,233,1,1032.6000000238419,540325.7999999821,8008,WL,A,4.0
4,8.897000074386597,learn,51102.9999256134,Mon Nov 04 2024 14:31:52 GMT-0600 (Central Standard Time),541541.900000006,A,flow,I,w,175,1,1216.1000000238419,540325.7999999821,8008,WL,A,4.0
4,9.19700002670288,learn,50802.99997329712,Mon Nov 04 2024 14:31:52 GMT-0600 (Central Standard Time),541841.6999999881,A,flowe,I,e,279,1,1515.9000000059605,540325.7999999821,8008,WL,A,4.0
4,9.480000019073486,learn,50519.999980926514,Mon Nov 04 2024 14:31:52 GMT-0600 (Central Standard Time),542124.599999994,A,flower,I,r,276,1,1798.800000011921,540325.7999999821,8008,WL,A,4.0
4,9.796000003814697,learn,50203.9999961853,Mon Nov 04 2024 14:31:52 GMT-0600 (Central Standard Time),542441.400000006,A,flowerenter,I,enter,304,1,2115.600000023842,540325.7999999821,8008,WL,A,4.0
4,10.496000051498413,learn,49503.99994850159,Mon Nov 04 2024 14:31:52 GMT-0600 (Central Standard Time),543141.1999999881,A,g,I,g,684,1,699.5,542441.6999999881,8008,WL,A,5.0
4,10.812999963760376,learn,49187.000036239624,Mon Nov 04 2024 14:31:52 GMT-0600 (Central Standard Time),543457.900000006,A,go,I,o,296,1,1016.2000000178814,542441.6999999881,8008,WL,A,5.0
4,11.062999963760376,learn,48937.000036239624,Mon Nov 04 2024 14:31:52 GMT-0600 (Central Standard Time),543707.599999994,A,gol,I,l,236,1,1265.9000000059605,542441.6999999881,8008,WL,A,5.0
4,11.378999948501587,learn,48621.00005149841,Mon Nov 04 2024 14:31:52 GMT-0600 (Central Standard Time),544024.1999999881,A,gold,I,d,298,1,1582.5,542441.6999999881,8008,WL,A,5.0
4,11.729000091552734,learn,48270.999908447266,Mon Nov 04 2024 14:31:52 GMT-0600 (Central Standard Time),544374.1999999881,A,goldenter,I,enter,341,1,1932.5,542441.6999999881,8008,WL,A,5.0
4,12.312000036239624,learn,47687.999963760376,Mon Nov 04 2024 14:31:52 GMT-0600 (Central Standard Time),544957.2999999821,A,k,I,k,567,1,582.6999999880791,544374.599999994,8008,WL,A,6.0
4,12.729000091552734,learn,47270.999908447266,Mon Nov 04 2024 14:31:52 GMT-0600 (Central Standard Time),545374.099999994,A,ke,I,e,400,1,999.5,544374.599999994,8008,WL,A,6.0
4,12.995000123977661,learn,47004.99987602234,Mon Nov 04 2024 14:31:52 GMT-0600 (Central Standard Time),545640.400000006,A,key,I,y,247,1,1265.800000011921,544374.599999994,8008,WL,A,6.0
4,13.661999940872192,learn,46338.00005912781,Mon Nov 04 2024 14:31:52 GMT-0600 (Central Standard Time),546306.900000006,A,keyenter,I,enter,653,1,1932.300000011921,544374.599999994,8008,WL,A,6.0
4,14.227999925613403,learn,45772.0000743866,Mon Nov 04 2024 14:31:52 GMT-0600 (Central Standard Time),546873.2999999821,A,l,I,l,555,1,566.0,546307.2999999821,8008,WL,A,7.0
4,14.462000131607056,learn,45537.999868392944,Mon Nov 04 2024 14:31:52 GMT-0600 (Central Standard Time),547106.599999994,A,lo,I,o,228,1,799.3000000119209,546307.2999999821,8008,WL,A,7.0
4,14.861999988555908,learn,45138.00001144409,Mon Nov 04 2024 14:31:52 GMT-0600 (Central Standard Time),547506.900000006,A,log,I,g,379,1,1199.6000000238419,546307.2999999821,8008,WL,A,7.0
4,15.210999965667725,learn,44789.000034332275,Mon Nov 04 2024 14:31:52 GMT-0600 (Central Standard Time),547856.400000006,A,logenter,I,enter,331,1,1549.1000000238419,546307.2999999821,8008,WL,A,7.0
4,15.82800006866455,learn,44171.99993133545,Mon Nov 04 2024 14:31:52 GMT-0600 (Central Standard Time),548472.900000006,A,m,I,m,605,1,616.1000000238419,547856.7999999821,8008,WL,A,8.0
4,16.111000061035156,learn,43888.999938964844,Mon Nov 04 2024 14:31:52 GMT-0600 (Central Standard Time),548756.1999999881,A,me,I,e,277,1,899.4000000059605,547856.7999999821,8008,WL,A,8.0
4,16.39400005340576,learn,43605.99994659424,Mon Nov 04 2024 14:31:52 GMT-0600 (Central Standard Time),549039.2999999821,A,mea,I,a,265,1,1182.5,547856.7999999821,8008,WL,A,8.0
4,16.66100001335144,learn,43338.99998664856,Mon Nov 04 2024 14:31:52 GMT-0600 (Central Standard Time),549306.099999994,A,mead,I,d,246,1,1449.300000011921,547856.7999999821,8008,WL,A,8.0
4,17.01099991798401,learn,42989.00008201599,Mon Nov 04 2024 14:31:52 GMT-0600 (Central Standard Time),549655.900000006,A,meado,I,o,331,1,1799.1000000238419,547856.7999999821,8008,WL,A,8.0
4,17.39400005340576,learn,42605.99994659424,Mon Nov 04 2024 14:31:52 GMT-0600 (Central Standard Time),550039.1999999881,A,meadow,I,w,365,1,2182.4000000059605,547856.7999999821,8008,WL,A,8.0
4,18.89300012588501,learn,41106.99987411499,Mon Nov 04 2024 14:31:52 GMT-0600 (Central Standard Time),551538.1999999881,A,meadowenter,I,enter,1486,1,3681.4000000059605,547856.7999999821,8008,WL,A,8.0
4,22.79200005531311,learn,37207.99994468689,Mon Nov 04 2024 14:31:52 GMT-0600 (Central Standard Time),555437.1999999881,A,r,I,r,3891,1,3898.699999988079,551538.5,8008,WL,A,9.0
4,23.075999975204468,learn,36924.00002479553,Mon Nov 04 2024 14:31:52 GMT-0600 (Central Standard Time),555720.6999999881,A,ru,I,u,272,1,4182.199999988079,551538.5,8008,WL,A,9.0
4,23.342000007629395,learn,36657.999992370605,Mon Nov 04 2024 14:31:52 GMT-0600 (Central Standard Time),555987.0,A,rug,I,g,261,1,4448.5,551538.5,8008,WL,A,9.0
4,24.492000102996826,learn,35507.999897003174,Mon Nov 04 2024 14:31:52 GMT-0600 (Central Standard Time),557136.900000006,A,rugenter,I,enter,1130,1,5598.4000000059605,551538.5,8008,WL,A,9.0
4,30.539999961853027,learn,29460.000038146973,Mon Nov 04 2024 14:31:52 GMT-0600 (Central Standard Time),563184.900000006,A,h,I,h,6029,1,6047.700000017881,557137.1999999881,8008,WL,A,10.0
4,31.25600004196167,learn,28743.99995803833,Mon Nov 04 2024 14:31:52 GMT-0600 (Central Standard Time),563901.599999994,A,ha,I,a,708,1,6764.4000000059605,557137.1999999881,8008,WL,A,10.0
4,31.689000129699707,learn,28310.999870300293,Mon Nov 04 2024 14:31:52 GMT-0600 (Central Standard Time),564334.5,A,har,I,r,416,1,7197.300000011921,557137.1999999881,8008,WL,A,10.0
4,32.15599989891052,learn,27844.000101089478,Mon Nov 04 2024 14:31:52 GMT-0600 (Central Standard Time),564801.400000006,A,harp,I,p,455,1,7664.200000017881,557137.1999999881,8008,WL,A,10.0
4,33.32200002670288,learn,26677.99997329712,Mon Nov 04 2024 14:31:52 GMT-0600 (Central Standard Time),565967.2999999821,A,harpenter,I,enter,1148,1,8830.09999999404,557137.1999999881,8008,WL,A,10.0
4,43.3529999256134,learn,16647.000074386597,Mon Nov 04 2024 14:31:52 GMT-0600 (Central Standard Time),575997.599999994,A,r,I,r,10022,1,10029.90000000596,565967.6999999881,8008,WL,A,11.0
4,43.88499999046326,learn,16115.000009536743,Mon Nov 04 2024 14:31:52 GMT-0600 (Central Standard Time),576530.599999994,A,ra,I,a,527,1,10562.90000000596,565967.6999999881,8008,WL,A,11.0
4,44.319000005722046,learn,15680.999994277954,Mon Nov 04 2024 14:31:52 GMT-0600 (Central Standard Time),576963.7999999821,A,rat,I,t,427,1,10996.09999999404,565967.6999999881,8008,WL,A,11.0
4,44.53500008583069,learn,15464.999914169312,Mon Nov 04 2024 14:31:52 GMT-0600 (Central Standard Time),577180.400000006,A,ratt,I,t,202,1,11212.700000017881,565967.6999999881,8008,WL,A,11.0
4,44.71900010108948,learn,15280.999898910522,Mon Nov 04 2024 14:31:52 GMT-0600 (Central Standard Time),577363.7999999821,A,rattl,I,l,177,1,11396.09999999404,565967.6999999881,8008,WL,A,11.0
4,45.05200004577637,learn,14947.999954223633,Mon Nov 04 2024 14:31:52 GMT-0600 (Central Standard Time),577697.099999994,A,rattle,I,e,314,1,11729.40000000596,565967.6999999881,8008,WL,A,11.0
4,45.38499999046326,learn,14615.000009536743,Mon Nov 04 2024 14:31:52 GMT-0600 (Central Standard Time),578030.1999999881,A,rattleenter,I,enter,316,1,12062.5,565967.6999999881,8008,WL,A,11.0
4,48.151000022888184,learn,11848.999977111816,Mon Nov 04 2024 14:31:52 GMT-0600 (Central Standard Time),580796.099999994,A,f,I,f,2759,1,2765.5,578030.599999994,8008,WL,A,12.0
4,48.36800003051758,learn,11631.999969482422,Mon Nov 04 2024 14:31:52 GMT-0600 (Central Standard Time),581012.6999999881,A,fl,I,l,209,1,2982.0999999940395,578030.599999994,8008,WL,A,12.0
4,48.6010000705719,learn,11398.9999294281,Mon Nov 04 2024 14:31:52 GMT-0600 (Central Standard Time),581246.099999994,A,flo,I,o,217,1,3215.5,578030.599999994,8008,WL,A,12.0
4,48.75099992752075,learn,11249.000072479248,Mon Nov 04 2024 14:31:52 GMT-0600 (Central Standard Time),581396.0,A,flow,I,w,143,1,3365.4000000059605,578030.599999994,8008,WL,A,12.0
4,49.00099992752075,learn,10999.000072479248,Mon Nov 04 2024 14:31:52 GMT-0600 (Central Standard Time),581645.900000006,A,flowe,I,e,241,1,3615.300000011921,578030.599999994,8008,WL,A,12.0
4,49.26699995994568,learn,10733.000040054321,Mon Nov 04 2024 14:31:52 GMT-0600 (Central Standard Time),581912.400000006,A,flower,I,r,256,1,3881.800000011921,578030.599999994,8008,WL,A,12.0
4,50.467000007629395,learn,9532.999992370605,Mon Nov 04 2024 14:31:52 GMT-0600 (Central Standard Time),583111.6999999881,A,flowerenter,I,enter,1189,1,5081.0999999940395,578030.599999994,8008,WL,A,12.0
4,51.16700005531311,learn,8832.99994468689,Mon Nov 04 2024 14:31:52 GMT-0600 (Central Standard Time),583812.0,A,m,I,m,694,1,700.0,583112.0,8008,WL,A,13.0
4,51.467000007629395,learn,8532.999992370605,Mon Nov 04 2024 14:31:52 GMT-0600 (Central Standard Time),584111.900000006,A,me,I,e,282,1,999.9000000059605,583112.0,8008,WL,A,13.0
4,51.73300004005432,learn,8266.999959945679,Mon Nov 04 2024 14:31:52 GMT-0600 (Central Standard Time),584378.400000006,A,mea,I,a,246,1,1266.4000000059605,583112.0,8008,WL,A,13.0
4,51.91700005531311,learn,8082.99994468689,Mon Nov 04 2024 14:31:52 GMT-0600 (Central Standard Time),584561.599999994,A,mead,I,d,163,1,1449.5999999940395,583112.0,8008,WL,A,13.0
4,52.16600012779236,learn,7833.999872207642,Mon Nov 04 2024 14:31:52 GMT-0600 (Central Standard Time),584811.5,A,meado,I,o,236,1,1699.5,583112.0,8008,WL,A,13.0
4,52.40000009536743,learn,7599.999904632568,Mon Nov 04 2024 14:31:52 GMT-0600 (Central Standard Time),585044.900000006,A,meadow,I,w,218,1,1932.9000000059605,583112.0,8008,WL,A,13.0
4,52.950000047683716,learn,7049.999952316284,Mon Nov 04 2024 14:31:52 GMT-0600 (Central Standard Time),585594.599999994,A,meadowenter,I,enter,537,1,2482.5999999940395,583112.0,8008,WL,A,13.0
4,58.680999994277954,learn,1319.000005722046,Mon Nov 04 2024 14:31:52 GMT-0600 (Central Standard Time),591326.599999994,A,t,I,t,5723,1,5731.699999988079,585594.900000006,8008,WL,A,14.0
4,59.04699993133545,learn,953.0000686645508,Mon Nov 04 2024 14:31:52 GMT-0600 (Central Standard Time),591692.599999994,A,tr,I,r,351,1,6097.699999988079,585594.900000006,8008,WL,A,14.0
4,59.71399998664856,learn,286.00001335144043,Mon Nov 04 2024 14:31:52 GMT-0600 (Central Standard Time),592359.0,A,tra,I,a,649,1,6764.0999999940395,585594.900000006,8008,WL,A,14.0
4,60.013999938964844,learn,-13.99993896484375,Mon Nov 04 2024 14:31:52 GMT-0600 (Central Standard Time),592659.1999999881,A,traNone,I,None,295,1,7064.299999982119,585594.900000006,8008,WL,A,14.0
5,1.3489999771118164,learn,60000.0,Mon Nov 04 2024 14:31:52 GMT-0600 (Central Standard Time),665919.599999994,A,a,I,a,1340,1,1349.800000011921,664569.7999999821,8008,WL,A,1.0
5,1.7160000801086426,learn,60000.0,Mon Nov 04 2024 14:31:52 GMT-0600 (Central Standard Time),666286.1999999881,A,ap,I,p,350,1,1716.4000000059605,664569.7999999821,8008,WL,A,1.0
5,1.9660000801086426,learn,60000.0,Mon Nov 04 2024 14:31:52 GMT-0600 (Central Standard Time),666535.900000006,A,app,I,p,231,1,1966.1000000238419,664569.7999999821,8008,WL,A,1.0
5,2.365999937057495,learn,60000.0,Mon Nov 04 2024 14:31:52 GMT-0600 (Central Standard Time),666935.900000006,A,appl,I,l,390,1,2366.100000023842,664569.7999999821,8008,WL,A,1.0
5,2.8320000171661377,learn,60000.0,Mon Nov 04 2024 14:31:52 GMT-0600 (Central Standard Time),667402.2999999821,A,apple,I,e,461,1,2832.5,664569.7999999821,8008,WL,A,1.0
5,3.315000057220459,learn,60000.0,Mon Nov 04 2024 14:31:52 GMT-0600 (Central Standard Time),667885.400000006,A,appleenter,I,enter,475,1,3315.600000023842,664569.7999999821,8008,WL,A,1.0
5,3.881999969482422,learn,60000.0,Mon Nov 04 2024 14:31:52 GMT-0600 (Central Standard Time),668452.0,A,b,I,b,552,1,566.2000000178814,667885.7999999821,8008,WL,A,2.0
5,4.2149999141693115,learn,60000.0,Mon Nov 04 2024 14:31:52 GMT-0600 (Central Standard Time),668785.0,A,bu,I,u,321,1,899.2000000178814,667885.7999999821,8008,WL,A,2.0
5,4.5320000648498535,learn,60000.0,Mon Nov 04 2024 14:31:52 GMT-0600 (Central Standard Time),669101.6999999881,A,but,I,t,300,1,1215.9000000059605,667885.7999999821,8008,WL,A,2.0
5,4.7149999141693115,learn,60000.0,Mon Nov 04 2024 14:31:52 GMT-0600 (Central Standard Time),669285.0,A,butt,I,t,168,1,1399.2000000178814,667885.7999999821,8008,WL,A,2.0
5,4.931999921798706,learn,60000.0,Mon Nov 04 2024 14:31:52 GMT-0600 (Central Standard Time),669501.6999999881,A,butto,I,o,201,1,1615.9000000059605,667885.7999999821,8008,WL,A,2.0
5,5.2149999141693115,learn,60000.0,Mon Nov 04 2024 14:31:52 GMT-0600 (Central Standard Time),669784.900000006,A,button,I,n,264,1,1899.1000000238419,667885.7999999821,8008,WL,A,2.0
5,6.0980000495910645,learn,60000.0,Mon Nov 04 2024 14:31:52 GMT-0600 (Central Standard Time),670668.0,A,buttonenter,I,enter,868,1,2782.2000000178814,667885.7999999821,8008,WL,A,2.0
5,6.614000082015991,learn,60000.0,Mon Nov 04 2024 14:31:52 GMT-0600 (Central Standard Time),671184.1999999881,A,g,I,g,506,1,515.9000000059605,670668.2999999821,8008,WL,A,3.0
5,6.898000001907349,learn,60000.0,Mon Nov 04 2024 14:31:52 GMT-0600 (Central Standard Time),671467.5,A,go,I,o,268,1,799.2000000178814,670668.2999999821,8008,WL,A,3.0
5,7.180999994277954,learn,60000.0,Mon Nov 04 2024 14:31:52 GMT-0600 (Central Standard Time),671751.0,A,gol,I,l,274,1,1082.7000000178814,670668.2999999821,8008,WL,A,3.0
5,7.46399998664856,learn,60000.0,Mon Nov 04 2024 14:31:52 GMT-0600 (Central Standard Time),672034.5,A,gold,I,d,279,1,1366.2000000178814,670668.2999999821,8008,WL,A,3.0
5,7.980999946594238,learn,60000.0,Mon Nov 04 2024 14:31:52 GMT-0600 (Central Standard Time),672550.599999994,A,goldenter,I,enter,507,1,1882.300000011921,670668.2999999821,8008,WL,A,3.0
5,8.54699993133545,learn,60000.0,Mon Nov 04 2024 14:31:52 GMT-0600 (Central Standard Time),673117.0,A,k,I,k,551,1,566.0999999940395,672550.900000006,8008,WL,A,4.0
5,8.996999979019165,learn,60000.0,Mon Nov 04 2024 14:31:52 GMT-0600 (Central Standard Time),673567.099999994,A,ke,I,e,440,1,1016.1999999880791,672550.900000006,8008,WL,A,4.0
5,9.230000019073486,learn,60000.0,Mon Nov 04 2024 14:31:52 GMT-0600 (Central Standard Time),673800.099999994,A,key,I,y,214,1,1249.199999988079,672550.900000006,8008,WL,A,4.0
5,9.79699993133545,learn,60000.0,Mon Nov 04 2024 14:31:52 GMT-0600 (Central Standard Time),674366.599999994,A,keyenter,I,enter,549,1,1815.699999988079,672550.900000006,8008,WL,A,4.0
5,10.496999979019165,learn,60000.0,Mon Nov 04 2024 14:31:52 GMT-0600 (Central Standard Time),675066.6999999881,A,r,I,r,687,1,699.7999999821186,674366.900000006,8008,WL,A,5.0
5,10.77999997138977,learn,60000.0,Mon Nov 04 2024 14:31:52 GMT-0600 (Central Standard Time),675349.7999999821,A,ra,I,a,267,1,982.8999999761581,674366.900000006,8008,WL,A,5.0
5,11.163000106811523,learn,60000.0,Mon Nov 04 2024 14:31:52 GMT-0600 (Central Standard Time),675733.099999994,A,rat,I,t,375,1,1366.199999988079,674366.900000006,8008,WL,A,5.0
5,11.329999923706055,learn,60000.0,Mon Nov 04 2024 14:31:52 GMT-0600 (Central Standard Time),675899.599999994,A,ratt,I,t,160,1,1532.699999988079,674366.900000006,8008,WL,A,5.0
5,11.513000011444092,learn,60000.0,Mon Nov 04 2024 14:31:52 GMT-0600 (Central Standard Time),676082.599999994,A,rattl,I,l,178,1,1715.699999988079,674366.900000006,8008,WL,A,5.0
5,11.812999963760376,learn,60000.0,Mon Nov 04 2024 14:31:52 GMT-0600 (Central Standard Time),676382.7999999821,A,rattle,I,e,291,1,2015.8999999761581,674366.900000006,8008,WL,A,5.0
5,12.145999908447266,learn,60000.0,Mon Nov 04 2024 14:31:52 GMT-0600 (Central Standard Time),676716.099999994,A,rattleenter,I,enter,319,1,2349.199999988079,674366.900000006,8008,WL,A,5.0
5,12.700999975204468,learn,60000.0,Mon Nov 04 2024 14:31:52 GMT-0600 (Central Standard Time),677271.0,A,b,I,b,538,1,554.5999999940395,676716.400000006,8008,WL,A,6.0
5,12.979000091552734,learn,60000.0,Mon Nov 04 2024 14:31:52 GMT-0600 (Central Standard Time),677549.1999999881,A,bo,I,o,270,1,832.7999999821186,676716.400000006,8008,WL,A,6.0
5,13.161999940872192,learn,60000.0,Mon Nov 04 2024 14:31:52 GMT-0600 (Central Standard Time),677732.2999999821,A,boo,I,o,168,1,1015.8999999761581,676716.400000006,8008,WL,A,6.0
5,13.394999980926514,learn,60000.0,Mon Nov 04 2024 14:31:52 GMT-0600 (Central Standard Time),677965.599999994,A,book,I,k,225,1,1249.199999988079,676716.400000006,8008,WL,A,6.0
5,13.895999908447266,learn,60000.0,Mon Nov 04 2024 14:31:52 GMT-0600 (Central Standard Time),678466.1999999881,A,bookenter,I,enter,496,1,1749.7999999821186,676716.400000006,8008,WL,A,6.0
5,14.59500002861023,learn,60000.0,Mon Nov 04 2024 14:31:52 GMT-0600 (Central Standard Time),679165.2999999821,A,r,I,r,684,1,698.8999999761581,678466.400000006,8008,WL,A,7.0
5,14.82800006866455,learn,60000.0,Mon Nov 04 2024 14:31:52 GMT-0600 (Central Standard Time),679398.5,A,ru,I,u,216,1,932.0999999940395,678466.400000006,8008,WL,A,7.0
5,15.095999956130981,learn,60000.0,Mon Nov 04 2024 14:31:52 GMT-0600 (Central Standard Time),679666.0,A,rug,I,g,247,1,1199.5999999940395,678466.400000006,8008,WL,A,7.0
5,15.527999877929688,learn,60000.0,Mon Nov 04 2024 14:31:52 GMT-0600 (Central Standard Time),680098.5,A,rugenter,I,enter,412,1,1632.0999999940395,678466.400000006,8008,WL,A,7.0
5,16.34500002861023,learn,60000.0,Mon Nov 04 2024 14:31:52 GMT-0600 (Central Standard Time),680914.7999999821,A,f,I,f,803,1,816.0,680098.7999999821,8008,WL,A,8.0
5,16.66100001335144,learn,60000.0,Mon Nov 04 2024 14:31:52 GMT-0600 (Central Standard Time),681231.1999999881,A,fl,I,l,299,1,1132.4000000059605,680098.7999999821,8008,WL,A,8.0
5,16.92899990081787,learn,60000.0,Mon Nov 04 2024 14:31:52 GMT-0600 (Central Standard Time),681499.0,A,flo,I,o,254,1,1400.2000000178814,680098.7999999821,8008,WL,A,8.0
5,17.14400005340576,learn,60000.0,Mon Nov 04 2024 14:31:52 GMT-0600 (Central Standard Time),681714.400000006,A,flow,I,w,210,1,1615.6000000238419,680098.7999999821,8008,WL,A,8.0
5,17.444000005722046,learn,60000.0,Mon Nov 04 2024 14:31:52 GMT-0600 (Central Standard Time),682014.5,A,flowe,I,e,283,1,1915.7000000178814,680098.7999999821,8008,WL,A,8.0
5,17.74399995803833,learn,60000.0,Mon Nov 04 2024 14:31:52 GMT-0600 (Central Standard Time),682314.2999999821,A,flower,I,r,295,1,2215.5,680098.7999999821,8008,WL,A,8.0
5,18.111000061035156,learn,60000.0,Mon Nov 04 2024 14:31:52 GMT-0600 (Central Standard Time),682680.900000006,A,flowerenter,I,enter,347,1,2582.100000023842,680098.7999999821,8008,WL,A,8.0
5,18.793999910354614,learn,60000.0,Mon Nov 04 2024 14:31:52 GMT-0600 (Central Standard Time),683363.900000006,A,m,I,m,669,1,682.6000000238419,682681.2999999821,8008,WL,A,9.0
5,19.05999994277954,learn,60000.0,Mon Nov 04 2024 14:31:52 GMT-0600 (Central Standard Time),683630.5,A,me,I,e,258,1,949.2000000178814,682681.2999999821,8008,WL,A,9.0
5,19.344000101089478,learn,60000.0,Mon Nov 04 2024 14:31:52 GMT-0600 (Central Standard Time),683913.599999994,A,mea,I,a,263,1,1232.300000011921,682681.2999999821,8008,WL,A,9.0
5,19.526999950408936,learn,60000.0,Mon Nov 04 2024 14:31:52 GMT-0600 (Central Standard Time),684097.099999994,A,mead,I,d,164,1,1415.800000011921,682681.2999999821,8008,WL,A,9.0
5,19.793999910354614,learn,60000.0,Mon Nov 04 2024 14:31:52 GMT-0600 (Central Standard Time),684363.6999999881,A,meado,I,o,260,1,1682.4000000059605,682681.2999999821,8008,WL,A,9.0
5,20.05999994277954,learn,60000.0,Mon Nov 04 2024 14:31:52 GMT-0600 (Central Standard Time),684630.1999999881,A,meadow,I,w,258,1,1948.9000000059605,682681.2999999821,8008,WL,A,9.0
5,20.627000093460083,learn,60000.0,Mon Nov 04 2024 14:31:52 GMT-0600 (Central Standard Time),685196.6999999881,A,meadowenter,I,enter,551,1,2515.4000000059605,682681.2999999821,8008,WL,A,9.0
5,21.325999975204468,learn,60000.0,Mon Nov 04 2024 14:31:52 GMT-0600 (Central Standard Time),685896.400000006,A,h,I,h,689,1,699.3000000119209,685197.099999994,8008,WL,A,10.0
5,21.592999935150146,learn,60000.0,Mon Nov 04 2024 14:31:52 GMT-0600 (Central Standard Time),686162.7999999821,A,ha,I,a,261,1,965.6999999880791,685197.099999994,8008,WL,A,10.0
5,21.842999935150146,learn,60000.0,Mon Nov 04 2024 14:31:52 GMT-0600 (Central Standard Time),686413.0,A,har,I,r,243,1,1215.9000000059605,685197.099999994,8008,WL,A,10.0
5,22.526000022888184,learn,60000.0,Mon Nov 04 2024 14:31:52 GMT-0600 (Central Standard Time),687096.0,A,harp,I,p,665,1,1898.9000000059605,685197.099999994,8008,WL,A,10.0
5,23.592000007629395,learn,60000.0,Mon Nov 04 2024 14:31:52 GMT-0600 (Central Standard Time),688162.5,A,harpenter,I,enter,1054,1,2965.4000000059605,685197.099999994,8008,WL,A,10.0
5,36.63800001144409,learn,60000.0,Mon Nov 04 2024 14:31:52 GMT-0600 (Central Standard Time),701208.1999999881,A,enter,I,enter,13035,1,13045.40000000596,688162.7999999821,8008,WL,A,11.0
5,37.13800001144409,learn,60000.0,Mon Nov 04 2024 14:31:52 GMT-0600 (Central Standard Time),701708.1999999881,A,enter,I,enter,485,1,499.69999998807907,701208.5,8008,WL,A,12.0
5,37.53800010681152,learn,60000.0,Mon Nov 04 2024 14:31:52 GMT-0600 (Central Standard Time),702107.900000006,A,enter,I,enter,385,1,399.5,701708.400000006,8008,WL,A,13.0
5,37.9210000038147,learn,60000.0,Mon Nov 04 2024 14:31:52 GMT-0600 (Central Standard Time),702491.1999999881,A,enter,I,enter,369,1,382.90000000596046,702108.2999999821,8008,WL,A,14.0
5,38.33800005912781,learn,60000.0,Mon Nov 04 2024 14:31:52 GMT-0600 (Central Standard Time),702908.099999994,A,enter,I,enter,402,1,416.5,702491.599999994,8008,WL,A,15.0
6,1.9159998893737793,distr,58084.00011062622,Mon Nov 04 2024 14:31:52 GMT-0600 (Central Standard Time),776584.6999999881,B,b,I,b,1897,1,1915.9000000059605,774668.7999999821,8008,WL,A,1.0
6,2.2319998741149902,distr,57768.00012588501,Mon Nov 04 2024 14:31:52 GMT-0600 (Central Standard Time),776901.1999999881,B,bo,I,o,300,1,2232.4000000059605,774668.7999999821,8008,WL,A,1.0
6,2.6489999294281006,distr,57351.0000705719,Mon Nov 04 2024 14:31:52 GMT-0600 (Central Standard Time),777317.7999999821,B,bow,I,w,408,1,2649.0,774668.7999999821,8008,WL,A,1.0
6,2.998999834060669,distr,57001.00016593933,Mon Nov 04 2024 14:31:52 GMT-0600 (Central Standard Time),777667.7999999821,B,bowl,I,l,344,1,2999.0,774668.7999999821,8008,WL,A,1.0
6,3.997999906539917,distr,56002.00009346008,Mon Nov 04 2024 14:31:52 GMT-0600 (Central Standard Time),778667.1999999881,B,bowlenter,I,enter,994,1,3998.4000000059605,774668.7999999821,8008,WL,A,1.0
6,4.815000057220459,distr,55184.99994277954,Mon Nov 04 2024 14:31:52 GMT-0600 (Central Standard Time),779483.900000006,B,d,I,d,810,1,816.4000000059605,778667.5,8008,WL,A,2.0
6,5.13100004196167,distr,54868.99995803833,Mon Nov 04 2024 14:31:52 GMT-0600 (Central Standard Time),779800.2999999821,B,da,I,a,306,1,1132.7999999821186,778667.5,8008,WL,A,2.0
6,5.565000057220459,distr,54434.99994277954,Mon Nov 04 2024 14:31:52 GMT-0600 (Central Standard Time),780233.599999994,B,daw,I,w,421,1,1566.0999999940395,778667.5,8008,WL,A,2.0
6,5.997999906539917,distr,54002.00009346008,Mon Nov 04 2024 14:31:52 GMT-0600 (Central Standard Time),780666.900000006,B,dawn,I,n,420,1,1999.4000000059605,778667.5,8008,WL,A,2.0
6,6.796999931335449,distr,53203.00006866455,Mon Nov 04 2024 14:31:52 GMT-0600 (Central Standard Time),781466.2999999821,B,dawnenter,I,enter,794,1,2798.7999999821186,778667.5,8008,WL,A,2.0
6,7.7809998989105225,distr,52219.00010108948,Mon Nov 04 2024 14:31:52 GMT-0600 (Central Standard Time),782449.7999999821,B,j,I,j,963,1,983.1999999880791,781466.599999994,8008,WL,A,3.0
6,8.096999883651733,distr,51903.00011634827,Mon Nov 04 2024 14:31:52 GMT-0600 (Central Standard Time),782766.099999994,B,ju,I,u,300,1,1299.5,781466.599999994,8008,WL,A,3.0
6,8.46399998664856,distr,51536.00001335144,Mon Nov 04 2024 14:31:52 GMT-0600 (Central Standard Time),783132.599999994,B,jud,I,d,359,1,1666.0,781466.599999994,8008,WL,A,3.0
6,8.962999820709229,distr,51037.00017929077,Mon Nov 04 2024 14:31:52 GMT-0600 (Central Standard Time),783632.2999999821,B,judg,I,g,481,1,2165.699999988079,781466.599999994,8008,WL,A,3.0
6,9.329999923706055,distr,50670.000076293945,Mon Nov 04 2024 14:31:52 GMT-0600 (Central Standard Time),783999.099999994,B,judge,I,e,349,1,2532.5,781466.599999994,8008,WL,A,3.0
6,10.013000011444092,distr,49986.99998855591,Mon Nov 04 2024 14:31:52 GMT-0600 (Central Standard Time),784682.099999994,B,judgeenter,I,enter,662,1,3215.5,781466.599999994,8008,WL,A,3.0
6,10.679999828338623,distr,49320.00017166138,Mon Nov 04 2024 14:31:52 GMT-0600 (Central Standard Time),785348.5,B,p,I,p,652,1,666.0999999940395,784682.400000006,8008,WL,A,4.0
6,11.078999996185303,distr,48921.0000038147,Mon Nov 04 2024 14:31:52 GMT-0600 (Central Standard Time),785748.400000006,B,po,I,o,385,1,1066.0,784682.400000006,8008,WL,A,4.0
6,11.246000051498413,distr,48753.99994850159,Mon Nov 04 2024 14:31:52 GMT-0600 (Central Standard Time),785915.0,B,poo,I,o,161,1,1232.5999999940395,784682.400000006,8008,WL,A,4.0
6,11.529000043869019,distr,48470.99995613098,Mon Nov 04 2024 14:31:52 GMT-0600 (Central Standard Time),786198.400000006,B,pool,I,l,267,1,1516.0,784682.400000006,8008,WL,A,4.0
6,12.19599986076355,distr,47804.00013923645,Mon Nov 04 2024 14:31:52 GMT-0600 (Central Standard Time),786864.6999999881,B,poolenter,I,enter,655,1,2182.2999999821186,784682.400000006,8008,WL,A,4.0
6,12.994999885559082,distr,47005.00011444092,Mon Nov 04 2024 14:31:52 GMT-0600 (Central Standard Time),787664.5,B,i,I,i,781,1,799.5,786865.0,8008,WL,A,5.0
6,13.328999996185303,distr,46671.0000038147,Mon Nov 04 2024 14:31:52 GMT-0600 (Central Standard Time),787997.7999999821,B,in,I,n,325,1,1132.7999999821186,786865.0,8008,WL,A,5.0
6,13.694999933242798,distr,46305.0000667572,Mon Nov 04 2024 14:31:52 GMT-0600 (Central Standard Time),788364.1999999881,B,ins,I,s,352,1,1499.199999988079,786865.0,8008,WL,A,5.0
6,13.994999885559082,distr,46005.00011444092,Mon Nov 04 2024 14:31:52 GMT-0600 (Central Standard Time),788664.1999999881,B,inse,I,e,290,1,1799.199999988079,786865.0,8008,WL,A,5.0
6,14.34500002861023,distr,45654.99997138977,Mon Nov 04 2024 14:31:52 GMT-0600 (Central Standard Time),789014.1999999881,B,insec,I,c,333,1,2149.199999988079,786865.0,8008,WL,A,5.0
6,14.911999940872192,distr,45088.00005912781,Mon Nov 04 2024 14:31:52 GMT-0600 (Central Standard Time),789580.7999999821,B,insect,I,t,551,1,2715.7999999821186,786865.0,8008,WL,A,5.0
6,15.727999925613403,distr,44272.0000743866,Mon Nov 04 2024 14:31:52 GMT-0600 (Central Standard Time),790397.099999994,B,insectenter,I,enter,800,1,3532.0999999940395,786865.0,8008,WL,A,5.0
6,18.293999910354614,distr,41706.000089645386,Mon Nov 04 2024 14:31:52 GMT-0600 (Central Standard Time),792962.7999999821,B,p,I,p,2561,1,2565.2999999821186,790397.5,8008,WL,A,6.0
6,18.5939998626709,distr,41406.0001373291,Mon Nov 04 2024 14:31:52 GMT-0600 (Central Standard Time),793263.0,B,pe,I,e,291,1,2865.5,790397.5,8008,WL,A,6.0
6,18.927000045776367,distr,41072.99995422363,Mon Nov 04 2024 14:31:52 GMT-0600 (Central Standard Time),793595.900000006,B,pea,I,a,319,1,3198.4000000059605,790397.5,8008,WL,A,6.0
6,19.276999950408936,distr,40723.000049591064,Mon Nov 04 2024 14:31:52 GMT-0600 (Central Standard Time),793946.0,B,peac,I,c,338,1,3548.5,790397.5,8008,WL,A,6.0
6,19.57699990272522,distr,40423.00009727478,Mon Nov 04 2024 14:31:52 GMT-0600 (Central Standard Time),794245.7999999821,B,peach,I,h,292,1,3848.2999999821186,790397.5,8008,WL,A,6.0
6,20.97599983215332,distr,39024.00016784668,Mon Nov 04 2024 14:31:52 GMT-0600 (Central Standard Time),795645.400000006,B,peachenter,I,enter,1384,1,5247.9000000059605,790397.5,8008,WL,A,6.0
6,31.83999991416931,distr,28160.00008583069,Mon Nov 04 2024 14:31:52 GMT-0600 (Central Standard Time),806508.599999994,B,enter,I,enter,10848,1,10862.90000000596,795645.6999999881,8008,WL,A,7.0
6,32.08999991416931,distr,27910.00008583069,Mon Nov 04 2024 14:31:52 GMT-0600 (Central Standard Time),806758.6999999881,B,enter,I,enter,241,1,249.69999998807907,806509.0,8008,WL,A,8.0
6,32.32299995422363,distr,27677.000045776367,Mon Nov 04 2024 14:31:52 GMT-0600 (Central Standard Time),806991.7999999821,B,enter,I,enter,223,1,232.69999998807907,806759.099999994,8008,WL,A,9.0
6,32.52300000190735,distr,27476.99999809265,Mon Nov 04 2024 14:31:52 GMT-0600 (Central Standard Time),807191.7999999821,B,enter,I,enter,182,1,199.59999999403954,806992.1999999881,8008,WL,A,10.0
6,32.70599985122681,distr,27294.000148773193,Mon Nov 04 2024 14:31:52 GMT-0600 (Central Standard Time),807375.1999999881,B,enter,I,enter,166,1,183.0,807192.1999999881,8008,WL,A,11.0
6,32.87299990653992,distr,27127.000093460083,Mon Nov 04 2024 14:31:52 GMT-0600 (Central Standard Time),807541.6999999881,B,enter,I,enter,159,1,166.09999999403954,807375.599999994,8008,WL,A,12.0
6,33.055999994277954,distr,26944.000005722046,Mon Nov 04 2024 14:31:52 GMT-0600 (Central Standard Time),807725.0,B,enter,I,enter,176,1,183.0,807542.0,8008,WL,A,13.0
6,33.48899984359741,distr,26511.000156402588,Mon Nov 04 2024 14:31:52 GMT-0600 (Central Standard Time),808158.1999999881,B,enter,I,enter,425,1,432.90000000596046,807725.2999999821,8008,WL,A,14.0
6,34.121999979019165,distr,25878.000020980835,Mon Nov 04 2024 14:31:52 GMT-0600 (Central Standard Time),808791.1999999881,B,enter,I,enter,615,1,632.5999999940395,808158.599999994,8008,WL,A,15.0
7,1.6329998970031738,immed,58367.000102996826,Mon Nov 04 2024 14:31:52 GMT-0600 (Central Standard Time),826002.6999999881,A,b,I,b,1612,1,1632.699999988079,824370.0,8008,WL,A,1.0
7,2.431999921798706,immed,57568.000078201294,Mon Nov 04 2024 14:31:52 GMT-0600 (Central Standard Time),826802.400000006,A,bo,I,o,779,1,2432.4000000059605,824370.0,8008,WL,A,1.0
7,2.5989999771118164,immed,57401.00002288818,Mon Nov 04 2024 14:31:52 GMT-0600 (Central Standard Time),826969.0,A,boo,I,o,155,1,2599.0,824370.0,8008,WL,A,1.0
7,2.881999969482422,immed,57118.00003051758,Mon Nov 04 2024 14:31:52 GMT-0600 (Central Standard Time),827252.0,A,book,I,k,277,1,2882.0,824370.0,8008,WL,A,1.0
7,3.697999954223633,immed,56302.00004577637,Mon Nov 04 2024 14:31:52 GMT-0600 (Central Standard Time),828068.2999999821,A,bookenter,I,enter,810,1,3698.2999999821186,824370.0,8008,WL,A,1.0
7,4.480999946594238,immed,55519.00005340576,Mon Nov 04 2024 14:31:52 GMT-0600 (Central Standard Time),828851.5,A,f,I,f,769,1,782.8000000119209,828068.6999999881,8008,WL,A,2.0
7,4.797999858856201,immed,55202.0001411438,Mon Nov 04 2024 14:31:52 GMT-0600 (Central Standard Time),829168.1999999881,A,fl,I,l,298,1,1099.5,828068.6999999881,8008,WL,A,2.0
7,5.164999961853027,immed,54835.00003814697,Mon Nov 04 2024 14:31:52 GMT-0600 (Central Standard Time),829534.6999999881,A,flo,I,o,350,1,1466.0,828068.6999999881,8008,WL,A,2.0
7,5.480999946594238,immed,54519.00005340576,Mon Nov 04 2024 14:31:52 GMT-0600 (Central Standard Time),829851.1999999881,A,flow,I,w,303,1,1782.5,828068.6999999881,8008,WL,A,2.0
7,5.830999851226807,immed,54169.00014877319,Mon Nov 04 2024 14:31:52 GMT-0600 (Central Standard Time),830201.1999999881,A,flowe,I,e,330,1,2132.5,828068.6999999881,8008,WL,A,2.0
7,6.164000034332275,immed,53835.999965667725,Mon Nov 04 2024 14:31:52 GMT-0600 (Central Standard Time),830534.400000006,A,flower,I,r,324,1,2465.7000000178814,828068.6999999881,8008,WL,A,2.0
7,6.5309998989105225,immed,53469.00010108948,Mon Nov 04 2024 14:31:52 GMT-0600 (Central Standard Time),830901.099999994,A,flowerenter,I,enter,351,1,2832.4000000059605,828068.6999999881,8008,WL,A,2.0
7,7.414000034332275,immed,52585.999965667725,Mon Nov 04 2024 14:31:52 GMT-0600 (Central Standard Time),831784.0,A,m,I,m,864,1,882.7000000178814,830901.2999999821,8008,WL,A,3.0
7,7.71399998664856,immed,52286.00001335144,Mon Nov 04 2024 14:31:52 GMT-0600 (Central Standard Time),832084.0,A,me,I,e,293,1,1182.7000000178814,830901.2999999821,8008,WL,A,3.0
7,8.080999851226807,immed,51919.00014877319,Mon Nov 04 2024 14:31:52 GMT-0600 (Central Standard Time),832450.599999994,A,mea,I,a,362,1,1549.300000011921,830901.2999999821,8008,WL,A,3.0
7,8.46399998664856,immed,51536.00001335144,Mon Nov 04 2024 14:31:52 GMT-0600 (Central Standard Time),832833.6999999881,A,mead,I,d,371,1,1932.4000000059605,830901.2999999821,8008,WL,A,3.0
7,8.813999891281128,immed,51186.00010871887,Mon Nov 04 2024 14:31:52 GMT-0600 (Central Standard Time),833183.7999999821,A,meado,I,o,340,1,2282.5,830901.2999999821,8008,WL,A,3.0
7,9.162999868392944,immed,50837.000131607056,Mon Nov 04 2024 14:31:52 GMT-0600 (Central Standard Time),833533.599999994,A,meadow,I,w,334,1,2632.300000011921,830901.2999999821,8008,WL,A,3.0
7,9.629999876022339,immed,50370.00012397766,Mon Nov 04 2024 14:31:52 GMT-0600 (Central Standard Time),834000.099999994,A,meadowenter,I,enter,448,1,3098.800000011921,830901.2999999821,8008,WL,A,3.0
7,10.211999893188477,immed,49788.00010681152,Mon Nov 04 2024 14:31:52 GMT-0600 (Central Standard Time),834583.0,A,h,I,h,574,1,582.5999999940395,834000.400000006,8008,WL,A,4.0
7,10.546000003814697,immed,49453.9999961853,Mon Nov 04 2024 14:31:52 GMT-0600 (Central Standard Time),834916.2999999821,A,ha,I,a,318,1,915.8999999761581,834000.400000006,8008,WL,A,4.0
7,10.963000059127808,immed,49036.99994087219,Mon Nov 04 2024 14:31:52 GMT-0600 (Central Standard Time),835333.099999994,A,har,I,r,409,1,1332.699999988079,834000.400000006,8008,WL,A,4.0
7,11.296000003814697,immed,48703.9999961853,Mon Nov 04 2024 14:31:52 GMT-0600 (Central Standard Time),835666.2999999821,A,harp,I,p,320,1,1665.8999999761581,834000.400000006,8008,WL,A,4.0
7,12.312000036239624,immed,47687.999963760376,Mon Nov 04 2024 14:31:52 GMT-0600 (Central Standard Time),836682.2999999821,A,harpenter,I,enter,1011,1,2681.899999976158,834000.400000006,8008,WL,A,4.0
7,13.711999893188477,immed,46288.00010681152,Mon Nov 04 2024 14:31:52 GMT-0600 (Central Standard Time),838082.1999999881,A,f,I,f,1379,1,1399.5999999940395,836682.599999994,8008,WL,A,5.0
7,14.027999877929688,immed,45972.00012207031,Mon Nov 04 2024 14:31:52 GMT-0600 (Central Standard Time),838398.5,A,fi,I,i,299,1,1715.9000000059605,836682.599999994,8008,WL,A,5.0
7,14.378000020980835,immed,45621.999979019165,Mon Nov 04 2024 14:31:52 GMT-0600 (Central Standard Time),838748.599999994,A,fin,I,n,335,1,2066.0,836682.599999994,8008,WL,A,5.0
7,14.777999877929688,immed,45222.00012207031,Mon Nov 04 2024 14:31:52 GMT-0600 (Central Standard Time),839148.2999999821,A,fing,I,g,393,1,2465.699999988079,836682.599999994,8008,WL,A,5.0
7,15.144999980926514,immed,44855.000019073486,Mon Nov 04 2024 14:31:52 GMT-0600 (Central Standard Time),839515.099999994,A,finge,I,e,346,1,2832.5,836682.599999994,8008,WL,A,5.0
7,15.293999910354614,immed,44706.000089645386,Mon Nov 04 2024 14:31:52 GMT-0600 (Central Standard Time),839665.0,A,finger,I,r,131,1,2982.4000000059605,836682.599999994,8008,WL,A,5.0
7,15.727999925613403,immed,44272.0000743866,Mon Nov 04 2024 14:31:52 GMT-0600 (Central Standard Time),840098.2999999821,A,fingerenter,I,enter,429,1,3415.699999988079,836682.599999994,8008,WL,A,5.0
7,16.293999910354614,immed,43706.000089645386,Mon Nov 04 2024 14:31:52 GMT-0600 (Central Standard Time),840664.599999994,A,a,I,a,555,1,566.0,840098.599999994,8008,WL,A,6.0
7,16.65999984741211,immed,43340.00015258789,Mon Nov 04 2024 14:31:52 GMT-0600 (Central Standard Time),841030.6999999881,A,ap,I,p,349,1,932.0999999940395,840098.599999994,8008,WL,A,6.0
7,16.80999994277954,immed,43190.00005722046,Mon Nov 04 2024 14:31:52 GMT-0600 (Central Standard Time),841180.7999999821,A,app,I,p,143,1,1082.199999988079,840098.599999994,8008,WL,A,6.0
7,17.05999994277954,immed,42940.00005722046,Mon Nov 04 2024 14:31:52 GMT-0600 (Central Standard Time),841430.6999999881,A,appl,I,l,241,1,1332.0999999940395,840098.599999994,8008,WL,A,6.0
7,17.568000078201294,immed,42431.999921798706,Mon Nov 04 2024 14:31:52 GMT-0600 (Central Standard Time),841938.099999994,A,apple,I,e,503,1,1839.5,840098.599999994,8008,WL,A,6.0
7,17.89299988746643,immed,42107.00011253357,Mon Nov 04 2024 14:31:52 GMT-0600 (Central Standard Time),842263.7999999821,A,appleenter,I,enter,306,1,2165.199999988079,840098.599999994,8008,WL,A,6.0
7,20.111000061035156,immed,39888.999938964844,Mon Nov 04 2024 14:31:52 GMT-0600 (Central Standard Time),844481.099999994,A,g,I,g,2198,1,2216.9000000059605,842264.1999999881,8008,WL,A,7.0
7,20.342999935150146,immed,39657.00006484985,Mon Nov 04 2024 14:31:52 GMT-0600 (Central Standard Time),844713.400000006,A,go,I,o,220,1,2449.2000000178814,842264.1999999881,8008,WL,A,7.0
7,20.625999927520752,immed,39374.00007247925,Mon Nov 04 2024 14:31:52 GMT-0600 (Central Standard Time),844996.5,A,gol,I,l,268,1,2732.300000011921,842264.1999999881,8008,WL,A,7.0
7,21.009000062942505,immed,38990.999937057495,Mon Nov 04 2024 14:31:52 GMT-0600 (Central Standard Time),845379.6999999881,A,gold,I,d,377,1,3115.5,842264.1999999881,8008,WL,A,7.0
7,21.325999975204468,immed,38674.00002479553,Mon Nov 04 2024 14:31:52 GMT-0600 (Central Standard Time),845696.400000006,A,goldenter,I,enter,306,1,3432.2000000178814,842264.1999999881,8008,WL,A,7.0
7,21.925999879837036,immed,38074.000120162964,Mon Nov 04 2024 14:31:52 GMT-0600 (Central Standard Time),846296.099999994,A,k,I,k,581,1,599.4000000059605,845696.6999999881,8008,WL,A,8.0
7,22.358999967575073,immed,37641.00003242493,Mon Nov 04 2024 14:31:52 GMT-0600 (Central Standard Time),846729.599999994,A,ke,I,e,414,1,1032.9000000059605,845696.6999999881,8008,WL,A,8.0
7,22.674999952316284,immed,37325.000047683716,Mon Nov 04 2024 14:31:52 GMT-0600 (Central Standard Time),847045.900000006,A,key,I,y,300,1,1349.2000000178814,845696.6999999881,8008,WL,A,8.0
7,23.441999912261963,immed,36558.00008773804,Mon Nov 04 2024 14:31:52 GMT-0600 (Central Standard Time),847812.2999999821,A,keyenter,I,enter,760,1,2115.5999999940395,845696.6999999881,8008,WL,A,8.0
7,28.125,immed,31875.0,Mon Nov 04 2024 14:31:52 GMT-0600 (Central Standard Time),852495.400000006,A,t,I,t,4673,1,4682.700000017881,847812.6999999881,8008,WL,A,9.0
7,28.306999921798706,immed,31693.000078201294,Mon Nov 04 2024 14:31:52 GMT-0600 (Central Standard Time),852677.5,A,tr,I,r,166,1,4864.800000011921,847812.6999999881,8008,WL,A,9.0
7,28.924000024795532,immed,31075.999975204468,Mon Nov 04 2024 14:31:52 GMT-0600 (Central Standard Time),853294.0,A,tra,I,a,600,1,5481.300000011921,847812.6999999881,8008,WL,A,9.0
7,29.289999961853027,immed,30710.000038146973,Mon Nov 04 2024 14:31:52 GMT-0600 (Central Standard Time),853660.5,A,trai,I,i,352,1,5847.800000011921,847812.6999999881,8008,WL,A,9.0
7,29.52300000190735,immed,30476.99999809265,Mon Nov 04 2024 14:31:52 GMT-0600 (Central Standard Time),853893.6999999881,A,train,I,n,225,1,6081.0,847812.6999999881,8008,WL,A,9.0
7,30.322999954223633,immed,29677.000045776367,Mon Nov 04 2024 14:31:52 GMT-0600 (Central Standard Time),854693.400000006,A,trainenter,I,enter,784,1,6880.700000017881,847812.6999999881,8008,WL,A,9.0
7,32.67199993133545,immed,27328.00006866455,Mon Nov 04 2024 14:31:52 GMT-0600 (Central Standard Time),857042.6999999881,A,l,I,l,2344,1,2348.7999999821186,854693.900000006,8008,WL,A,10.0
7,32.93899989128113,immed,27061.000108718872,Mon Nov 04 2024 14:31:52 GMT-0600 (Central Standard Time),857309.400000006,A,lo,I,o,251,1,2615.5,854693.900000006,8008,WL,A,10.0
7,33.289000034332275,immed,26710.999965667725,Mon Nov 04 2024 14:31:52 GMT-0600 (Central Standard Time),857659.099999994,A,log,I,g,336,1,2965.199999988079,854693.900000006,8008,WL,A,10.0
7,33.58899998664856,immed,26411.00001335144,Mon Nov 04 2024 14:31:52 GMT-0600 (Central Standard Time),857959.2999999821,A,logenter,I,enter,282,1,3265.399999976158,854693.900000006,8008,WL,A,10.0
7,34.67199993133545,immed,25328.00006866455,Mon Nov 04 2024 14:31:52 GMT-0600 (Central Standard Time),859042.400000006,A,b,I,b,1063,1,1082.800000011921,857959.599999994,8008,WL,A,11.0
7,34.954999923706055,immed,25045.000076293945,Mon Nov 04 2024 14:31:52 GMT-0600 (Central Standard Time),859325.400000006,A,bo,I,o,275,1,1365.800000011921,857959.599999994,8008,WL,A,11.0
7,35.15499997138977,immed,24845.00002861023,Mon Nov 04 2024 14:31:52 GMT-0600 (Central Standard Time),859525.099999994,A,boo,I,o,184,1,1565.5,857959.599999994,8008,WL,A,11.0
7,35.38800001144409,immed,24611.99998855591,Mon Nov 04 2024 14:31:52 GMT-0600 (Central Standard Time),859758.900000006,A,book,I,k,217,1,1799.300000011921,857959.599999994,8008,WL,A,11.0
7,38.50499987602234,immed,21495.00012397766,Mon Nov 04 2024 14:31:52 GMT-0600 (Central Standard Time),862875.1999999881,A,bookenter,I,enter,3103,1,4915.5999999940395,857959.599999994,8008,WL,A,11.0
7,38.83699989318848,immed,21163.000106811523,Mon Nov 04 2024 14:31:52 GMT-0600 (Central Standard Time),863207.400000006,A,a,I,a,314,1,332.0,862875.400000006,8008,WL,A,12.0
7,39.05399990081787,immed,20946.00009918213,Mon Nov 04 2024 14:31:52 GMT-0600 (Central Standard Time),863424.2999999821,A,ap,I,p,198,1,548.8999999761581,862875.400000006,8008,WL,A,12.0
7,39.22000002861023,immed,20779.99997138977,Mon Nov 04 2024 14:31:52 GMT-0600 (Central Standard Time),863590.7999999821,A,app,I,p,149,1,715.3999999761581,862875.400000006,8008,WL,A,12.0
7,39.420000076293945,immed,20579.999923706055,Mon Nov 04 2024 14:31:52 GMT-0600 (Central Standard Time),863790.6999999881,A,appl,I,l,191,1,915.2999999821186,862875.400000006,8008,WL,A,12.0
7,39.753000020980835,immed,20246.999979019165,Mon Nov 04 2024 14:31:52 GMT-0600 (Central Standard Time),864124.099999994,A,apple,I,e,327,1,1248.699999988079,862875.400000006,8008,WL,A,12.0
7,40.503000020980835,immed,19496.999979019165,Mon Nov 04 2024 14:31:52 GMT-0600 (Central Standard Time),864873.599999994,A,appleenter,I,enter,737,1,1998.199999988079,862875.400000006,8008,WL,A,12.0
7,41.7189998626709,immed,18281.0001373291,Mon Nov 04 2024 14:31:52 GMT-0600 (Central Standard Time),866089.900000006,A,enter,I,enter,1196,1,1216.0,864873.900000006,8008,WL,A,13.0
7,42.069000005722046,immed,17930.999994277954,Mon Nov 04 2024 14:31:52 GMT-0600 (Central Standard Time),866439.900000006,A,enter,I,enter,332,1,349.60000002384186,866090.2999999821,8008,WL,A,14.0
7,42.6029999256134,immed,17397.000074386597,Mon Nov 04 2024 14:31:52 GMT-0600 (Central Standard Time),866973.1999999881,A,enter,I,enter,518,1,533.0,866440.1999999881,8008,WL,A,15.0
