acc_sum,block,block_c,change,condition,correct,correct_response,datetime,endtime,face,project,response,response_time,row_sel,session_number,start_end,starttime,subject_id,task,task_vers,trial
0,prac,1,,1-Back,,,Fri Oct 11 2024 10:52:12 GMT-0400 (Eastern Daylight Time),,050_m_f_n_a.png,I,space,15739,1,1,,,9002,NNB,A,0
1,prac,1,0.0,1-Back,1,m,Fri Oct 11 2024 10:52:12 GMT-0400 (Eastern Daylight Time),213558.70000004768,063_y_f_n_a.png,I,m,496,2,1,1321.7999999523163,212236.90000009537,9002,NNB,A,1
2,prac,1,1.0,1-Back,1,z,Fri Oct 11 2024 10:52:12 GMT-0400 (Eastern Daylight Time),215241.90000009537,063_y_f_n_a.png,I,z,896,3,1,1668.1000000238419,213573.80000007153,9002,NNB,A,2
3,prac,1,0.0,1-Back,1,m,Fri Oct 11 2024 10:52:12 GMT-0400 (Eastern Daylight Time),216775.40000009537,053_o_m_n_a.png,I,m,687,4,1,1518.6000000238419,215256.80000007153,9002,NNB,A,3
4,prac,1,0.0,1-Back,1,m,Fri Oct 11 2024 10:52:12 GMT-0400 (Eastern Daylight Time),218508.5,058_m_m_n_a.png,I,m,901,5,1,1718.5999999046326,216789.90000009537,9002,NNB,A,4
5,prac,1,1.0,1-Back,1,z,Fri Oct 11 2024 10:52:12 GMT-0400 (Eastern Daylight Time),220091.70000004768,058_m_m_n_a.png,I,z,794,6,1,1568.6000000238419,218523.10000002384,9002,NNB,A,5
6,prac,1,0.0,1-Back,1,m,Fri Oct 11 2024 10:52:12 GMT-0400 (Eastern Daylight Time),221791.80000007153,047_o_f_n_a.png,I,m,816,7,1,1685.5,220106.30000007153,9002,NNB,A,6
7,prac,1,0.0,1-Back,1,m,Fri Oct 11 2024 10:52:12 GMT-0400 (Eastern Daylight Time),223525.0,045_m_m_n_a.png,I,m,897,8,1,1719.0,221806.0,9002,NNB,A,7
8,prac,1,0.0,1-Back,1,m,Fri Oct 11 2024 10:52:12 GMT-0400 (Eastern Daylight Time),225108.5,050_m_f_n_a.png,I,m,743,9,1,1568.0,223540.5,9002,NNB,A,8
9,prac,1,1.0,1-Back,1,z,Fri Oct 11 2024 10:52:12 GMT-0400 (Eastern Daylight Time),226641.60000002384,050_m_f_n_a.png,I,z,740,10,1,1519.6000000238419,225122.0,9002,NNB,A,9
10,prac,1,0.0,1-Back,1,m,Fri Oct 11 2024 10:52:12 GMT-0400 (Eastern Daylight Time),228208.60000002384,053_o_m_n_a.png,I,m,773,11,1,1552.2999999523163,226656.30000007153,9002,NNB,A,10
11,prac,1,0.0,1-Back,1,m,Fri Oct 11 2024 10:52:12 GMT-0400 (Eastern Daylight Time),229891.60000002384,010_y_f_n_a.png,I,m,804,12,1,1668.7999999523163,228222.80000007153,9002,NNB,A,11
0,prac,2,0.0,1-Back,,,Fri Oct 11 2024 10:52:12 GMT-0400 (Eastern Daylight Time),229891.60000002384,050_m_f_n_a.png,I,a,10937,1,1,1668.7999999523163,228222.80000007153,9002,NNB,A,0
1,prac,2,0.0,1-Back,1,m,Fri Oct 11 2024 10:52:12 GMT-0400 (Eastern Daylight Time),245941.70000004768,063_y_f_n_a.png,I,m,1280,2,1,2048.399999976158,243893.30000007153,9002,NNB,A,1
2,prac,2,1.0,1-Back,1,z,Fri Oct 11 2024 10:52:12 GMT-0400 (Eastern Daylight Time),247875.0,063_y_f_n_a.png,I,z,1134,3,1,1915.6999999284744,245959.30000007153,9002,NNB,A,2
3,prac,2,0.0,1-Back,1,m,Fri Oct 11 2024 10:52:12 GMT-0400 (Eastern Daylight Time),249475.0,053_o_m_n_a.png,I,m,802,4,1,1584.3999999761581,247890.60000002384,9002,NNB,A,3
4,prac,2,0.0,1-Back,1,m,Fri Oct 11 2024 10:52:12 GMT-0400 (Eastern Daylight Time),251641.70000004768,058_m_m_n_a.png,I,m,1380,5,1,2152.600000023842,249489.10000002384,9002,NNB,A,4
5,prac,2,1.0,1-Back,1,z,Fri Oct 11 2024 10:52:12 GMT-0400 (Eastern Daylight Time),253158.40000009537,058_m_m_n_a.png,I,z,734,6,1,1502.8000000715256,251655.60000002384,9002,NNB,A,5
6,prac,2,0.0,1-Back,1,m,Fri Oct 11 2024 10:52:12 GMT-0400 (Eastern Daylight Time),255075.10000002384,047_o_f_n_a.png,I,m,1120,7,1,1901.5,253173.60000002384,9002,NNB,A,6
7,prac,2,0.0,1-Back,1,m,Fri Oct 11 2024 10:52:12 GMT-0400 (Eastern Daylight Time),256658.40000009537,045_m_m_n_a.png,I,m,789,8,1,1569.8000000715256,255088.60000002384,9002,NNB,A,7
8,prac,2,0.0,1-Back,1,m,Fri Oct 11 2024 10:52:12 GMT-0400 (Eastern Daylight Time),258275.20000004768,050_m_f_n_a.png,I,m,820,9,1,1602.1000000238419,256673.10000002384,9002,NNB,A,8
9,prac,2,1.0,1-Back,1,z,Fri Oct 11 2024 10:52:12 GMT-0400 (Eastern Daylight Time),259691.90000009537,050_m_f_n_a.png,I,z,628,10,1,1402.6000000238419,258289.30000007153,9002,NNB,A,9
10,prac,2,0.0,1-Back,1,m,Fri Oct 11 2024 10:52:12 GMT-0400 (Eastern Daylight Time),261541.90000009537,053_o_m_n_a.png,I,m,1067,11,1,1835.3000000715256,259706.60000002384,9002,NNB,A,10
11,prac,2,0.0,1-Back,1,m,Fri Oct 11 2024 10:52:12 GMT-0400 (Eastern Daylight Time),263175.10000002384,010_y_f_n_a.png,I,m,848,12,1,1617.6000000238419,261557.5,9002,NNB,A,11
0,test,1,0.0,1-Back,,,Fri Oct 11 2024 10:52:12 GMT-0400 (Eastern Daylight Time),263175.10000002384,063_y_f_n_a.png,I,space,9441,1,1,1617.6000000238419,261557.5,9002,NNB,A,0
1,test,1,0.0,1-Back,1,m,Fri Oct 11 2024 10:52:12 GMT-0400 (Eastern Daylight Time),293708.3000000715,043_m_f_n_a.png,I,m,826,2,1,1836.6000000238419,291871.7000000477,9002,NNB,A,1
2,test,1,0.0,1-Back,1,m,Fri Oct 11 2024 10:52:12 GMT-0400 (Eastern Daylight Time),295475.0,010_y_f_n_a.png,I,m,737,3,1,1754.0,293721.0,9002,NNB,A,2
3,test,1,1.0,1-Back,1,z,Fri Oct 11 2024 10:52:12 GMT-0400 (Eastern Daylight Time),297108.40000009537,010_y_f_n_a.png,I,z,602,4,1,1621.3000000715256,295487.10000002384,9002,NNB,A,3
4,test,1,0.0,1-Back,1,m,Fri Oct 11 2024 10:52:12 GMT-0400 (Eastern Daylight Time),298908.40000009537,043_m_f_n_a.png,I,m,776,5,1,1786.9000000953674,297121.5,9002,NNB,A,4
5,test,1,0.0,1-Back,1,m,Fri Oct 11 2024 10:52:12 GMT-0400 (Eastern Daylight Time),300791.40000009537,053_o_m_n_a.png,I,m,865,6,1,1870.6000000238419,298920.8000000715,9002,NNB,A,5
6,test,1,1.0,1-Back,1,z,Fri Oct 11 2024 10:52:12 GMT-0400 (Eastern Daylight Time),303008.40000009537,053_o_m_n_a.png,I,z,1190,7,1,2204.0,300804.40000009537,9002,NNB,A,6
7,test,1,0.0,1-Back,1,m,Fri Oct 11 2024 10:52:12 GMT-0400 (Eastern Daylight Time),304891.8000000715,058_m_m_n_a.png,I,m,860,8,1,1870.7000000476837,303021.10000002384,9002,NNB,A,7
8,test,1,0.0,1-Back,1,m,Fri Oct 11 2024 10:52:12 GMT-0400 (Eastern Daylight Time),306691.7000000477,047_o_f_n_a.png,I,m,769,9,1,1786.0,304905.7000000477,9002,NNB,A,8
9,test,1,0.0,1-Back,1,m,Fri Oct 11 2024 10:52:12 GMT-0400 (Eastern Daylight Time),308774.7000000477,058_m_m_n_a.png,I,m,1048,10,1,2065.7999999523163,306708.90000009537,9002,NNB,A,9
10,test,1,0.0,1-Back,1,m,Fri Oct 11 2024 10:52:12 GMT-0400 (Eastern Daylight Time),310558.0,041_y_m_n_a.png,I,m,758,11,1,1771.6999999284744,308786.3000000715,9002,NNB,A,10
11,test,1,1.0,1-Back,1,z,Fri Oct 11 2024 10:52:12 GMT-0400 (Eastern Daylight Time),312325.0,041_y_m_n_a.png,I,z,734,12,1,1756.2999999523163,310568.7000000477,9002,NNB,A,11
12,test,1,0.0,1-Back,1,m,Fri Oct 11 2024 10:52:12 GMT-0400 (Eastern Daylight Time),314041.60000002384,044_o_f_n_a.png,I,m,696,13,1,1704.1999999284744,312337.40000009537,9002,NNB,A,12
13,test,1,1.0,1-Back,1,z,Fri Oct 11 2024 10:52:12 GMT-0400 (Eastern Daylight Time),315941.8000000715,044_o_f_n_a.png,I,z,867,14,1,1887.3999999761581,314054.40000009537,9002,NNB,A,13
14,test,1,0.0,1-Back,1,m,Fri Oct 11 2024 10:52:12 GMT-0400 (Eastern Daylight Time),317608.40000009537,008_y_m_n_a.png,I,m,647,15,1,1652.8000000715256,315955.60000002384,9002,NNB,A,14
15,test,1,0.0,1-Back,1,m,Fri Oct 11 2024 10:52:12 GMT-0400 (Eastern Daylight Time),319258.2000000477,050_m_f_n_a.png,I,m,628,16,1,1637.2999999523163,317620.90000009537,9002,NNB,A,15
16,test,1,0.0,1-Back,1,m,Fri Oct 11 2024 10:52:12 GMT-0400 (Eastern Daylight Time),320941.8000000715,046_o_m_n_a.png,I,m,658,17,1,1671.2000000476837,319270.60000002384,9002,NNB,A,16
17,test,1,0.0,1-Back,1,m,Fri Oct 11 2024 10:52:12 GMT-0400 (Eastern Daylight Time),322758.40000009537,050_m_f_n_a.png,I,m,784,18,1,1803.4000000953674,320955.0,9002,NNB,A,17
0,test,2,0.0,1-Back,,,Fri Oct 11 2024 10:52:12 GMT-0400 (Eastern Daylight Time),322758.40000009537,058_m_m_n_a.png,I,space,3582,1,1,1803.4000000953674,320955.0,9002,NNB,A,0
1,test,2,0.0,1-Back,1,m,Fri Oct 11 2024 10:52:12 GMT-0400 (Eastern Daylight Time),330608.3000000715,043_m_f_n_a.png,I,m,1206,2,1,2219.5,328388.8000000715,9002,NNB,A,1
2,test,2,1.0,1-Back,1,z,Fri Oct 11 2024 10:52:12 GMT-0400 (Eastern Daylight Time),332524.5,043_m_f_n_a.png,I,z,891,3,1,1903.5999999046326,330620.90000009537,9002,NNB,A,2
3,test,2,0.0,1-Back,1,m,Fri Oct 11 2024 10:52:12 GMT-0400 (Eastern Daylight Time),334375.0,058_m_m_n_a.png,I,m,833,4,1,1839.0,332536.0,9002,NNB,A,3
4,test,2,0.0,1-Back,1,m,Fri Oct 11 2024 10:52:12 GMT-0400 (Eastern Daylight Time),336758.7000000477,041_y_m_n_a.png,I,m,1366,5,1,2371.7999999523163,334386.90000009537,9002,NNB,A,4
5,test,2,0.0,1-Back,1,m,Fri Oct 11 2024 10:52:12 GMT-0400 (Eastern Daylight Time),338475.0,063_y_f_n_a.png,I,m,695,6,1,1702.5,336772.5,9002,NNB,A,5
6,test,2,1.0,1-Back,1,z,Fri Oct 11 2024 10:52:12 GMT-0400 (Eastern Daylight Time),340008.40000009537,063_y_f_n_a.png,I,z,514,7,1,1520.0,338488.40000009537,9002,NNB,A,6
7,test,2,0.0,1-Back,1,m,Fri Oct 11 2024 10:52:12 GMT-0400 (Eastern Daylight Time),341741.8000000715,041_y_m_n_a.png,I,m,708,8,1,1720.3999999761581,340021.40000009537,9002,NNB,A,7
8,test,2,0.0,1-Back,1,m,Fri Oct 11 2024 10:52:12 GMT-0400 (Eastern Daylight Time),343541.60000002384,044_o_f_n_a.png,I,m,768,9,1,1786.3999999761581,341755.2000000477,9002,NNB,A,8
9,test,2,0.0,1-Back,1,m,Fri Oct 11 2024 10:52:12 GMT-0400 (Eastern Daylight Time),345358.5,045_m_m_n_a.png,I,m,792,10,1,1804.5999999046326,343553.90000009537,9002,NNB,A,9
10,test,2,1.0,1-Back,1,z,Fri Oct 11 2024 10:52:12 GMT-0400 (Eastern Daylight Time),347158.2000000477,045_m_m_n_a.png,I,z,766,11,1,1786.8999999761581,345371.3000000715,9002,NNB,A,10
11,test,2,0.0,1-Back,1,m,Fri Oct 11 2024 10:52:12 GMT-0400 (Eastern Daylight Time),348925.0,044_o_f_n_a.png,I,m,742,12,1,1754.5,347170.5,9002,NNB,A,11
12,test,2,0.0,1-Back,1,m,Fri Oct 11 2024 10:52:12 GMT-0400 (Eastern Daylight Time),350908.60000002384,047_o_f_n_a.png,I,m,960,13,1,1971.2999999523163,348937.3000000715,9002,NNB,A,12
13,test,2,0.0,1-Back,1,m,Fri Oct 11 2024 10:52:12 GMT-0400 (Eastern Daylight Time),352558.40000009537,053_o_m_n_a.png,I,m,624,14,1,1635.4000000953674,350923.0,9002,NNB,A,13
14,test,2,0.0,1-Back,1,m,Fri Oct 11 2024 10:52:12 GMT-0400 (Eastern Daylight Time),354375.10000002384,046_o_m_n_a.png,I,m,799,15,1,1804.0,352571.10000002384,9002,NNB,A,14
15,test,2,1.0,1-Back,1,z,Fri Oct 11 2024 10:52:12 GMT-0400 (Eastern Daylight Time),356441.8000000715,046_o_m_n_a.png,I,z,1047,16,1,2054.0,354387.8000000715,9002,NNB,A,15
16,test,2,0.0,1-Back,1,m,Fri Oct 11 2024 10:52:12 GMT-0400 (Eastern Daylight Time),358374.90000009537,008_y_m_n_a.png,I,m,915,17,1,1920.4000000953674,356454.5,9002,NNB,A,16
17,test,2,1.0,1-Back,1,z,Fri Oct 11 2024 10:52:12 GMT-0400 (Eastern Daylight Time),360241.8000000715,008_y_m_n_a.png,I,z,838,18,1,1853.2000000476837,358388.60000002384,9002,NNB,A,17
0,test,3,1.0,1-Back,,,Fri Oct 11 2024 10:52:12 GMT-0400 (Eastern Daylight Time),360241.8000000715,010_y_f_n_a.png,I,space,2563,1,1,1853.2000000476837,358388.60000002384,9002,NNB,A,0
1,test,3,0.0,1-Back,1,m,Fri Oct 11 2024 10:52:12 GMT-0400 (Eastern Daylight Time),366591.8000000715,046_o_m_n_a.png,I,m,657,2,1,1671.2000000476837,364920.60000002384,9002,NNB,A,1
2,test,3,1.0,1-Back,1,z,Fri Oct 11 2024 10:52:12 GMT-0400 (Eastern Daylight Time),368258.5,046_o_m_n_a.png,I,z,620,3,1,1650.0,366608.5,9002,NNB,A,2
3,test,3,0.0,1-Back,1,m,Fri Oct 11 2024 10:52:12 GMT-0400 (Eastern Daylight Time),370191.8000000715,050_m_f_n_a.png,I,m,906,4,1,1918.5,368273.3000000715,9002,NNB,A,3
4,test,3,1.0,1-Back,1,z,Fri Oct 11 2024 10:52:12 GMT-0400 (Eastern Daylight Time),371842.0,050_m_f_n_a.png,I,z,604,5,1,1633.6999999284744,370208.3000000715,9002,NNB,A,4
5,test,3,0.0,1-Back,1,m,Fri Oct 11 2024 10:52:12 GMT-0400 (Eastern Daylight Time),373625.10000002384,044_o_f_n_a.png,I,m,762,6,1,1769.6999999284744,371855.40000009537,9002,NNB,A,5
6,test,3,0.0,1-Back,1,m,Fri Oct 11 2024 10:52:12 GMT-0400 (Eastern Daylight Time),375558.3000000715,041_y_m_n_a.png,I,m,901,7,1,1920.0,373638.3000000715,9002,NNB,A,6
7,test,3,0.0,1-Back,1,m,Fri Oct 11 2024 10:52:12 GMT-0400 (Eastern Daylight Time),377708.40000009537,044_o_f_n_a.png,I,m,1127,8,1,2136.4000000953674,375572.0,9002,NNB,A,7
8,test,3,0.0,1-Back,1,m,Fri Oct 11 2024 10:52:12 GMT-0400 (Eastern Daylight Time),379391.8000000715,008_y_m_n_a.png,I,m,656,9,1,1670.1000000238419,377721.7000000477,9002,NNB,A,8
9,test,3,1.0,1-Back,1,z,Fri Oct 11 2024 10:52:12 GMT-0400 (Eastern Daylight Time),380908.5,008_y_m_n_a.png,I,z,476,10,1,1500.6999999284744,379407.8000000715,9002,NNB,A,9
10,test,3,0.0,1-Back,1,m,Fri Oct 11 2024 10:52:12 GMT-0400 (Eastern Daylight Time),382458.60000002384,043_m_f_n_a.png,I,m,528,11,1,1537.3999999761581,380921.2000000477,9002,NNB,A,10
11,test,3,0.0,1-Back,1,m,Fri Oct 11 2024 10:52:12 GMT-0400 (Eastern Daylight Time),384258.2000000477,063_y_f_n_a.png,I,m,770,12,1,1786.5,382471.7000000477,9002,NNB,A,11
12,test,3,1.0,1-Back,1,z,Fri Oct 11 2024 10:52:12 GMT-0400 (Eastern Daylight Time),386525.0,063_y_f_n_a.png,I,z,1242,13,1,2253.899999976158,384271.10000002384,9002,NNB,A,12
13,test,3,0.0,1-Back,1,m,Fri Oct 11 2024 10:52:12 GMT-0400 (Eastern Daylight Time),388375.10000002384,043_m_f_n_a.png,I,m,833,14,1,1837.1999999284744,386537.90000009537,9002,NNB,A,13
14,test,3,0.0,1-Back,1,m,Fri Oct 11 2024 10:52:12 GMT-0400 (Eastern Daylight Time),390041.90000009537,058_m_m_n_a.png,I,m,646,15,1,1654.3000000715256,388387.60000002384,9002,NNB,A,14
15,test,3,1.0,1-Back,1,z,Fri Oct 11 2024 10:52:12 GMT-0400 (Eastern Daylight Time),391975.0,058_m_m_n_a.png,I,z,915,16,1,1920.7999999523163,390054.2000000477,9002,NNB,A,15
16,test,3,0.0,1-Back,1,m,Fri Oct 11 2024 10:52:12 GMT-0400 (Eastern Daylight Time),394208.5,047_o_f_n_a.png,I,m,1206,17,1,2219.6999999284744,391988.8000000715,9002,NNB,A,16
17,test,3,1.0,1-Back,1,z,Fri Oct 11 2024 10:52:12 GMT-0400 (Eastern Daylight Time),396091.90000009537,047_o_f_n_a.png,I,z,860,18,1,1870.7000000476837,394221.2000000477,9002,NNB,A,17
0,test,4,1.0,1-Back,,,Fri Oct 11 2024 10:52:12 GMT-0400 (Eastern Daylight Time),396091.90000009537,050_m_f_n_a.png,I,space,3098,1,1,1870.7000000476837,394221.2000000477,9002,NNB,A,0
1,test,4,0.0,1-Back,1,m,Fri Oct 11 2024 10:52:12 GMT-0400 (Eastern Daylight Time),402975.0,046_o_m_n_a.png,I,m,740,2,1,1753.6999999284744,401221.3000000715,9002,NNB,A,1
2,test,4,0.0,1-Back,1,m,Fri Oct 11 2024 10:52:12 GMT-0400 (Eastern Daylight Time),404942.0,050_m_f_n_a.png,I,m,942,3,1,1955.3999999761581,402986.60000002384,9002,NNB,A,2
3,test,4,0.0,1-Back,1,m,Fri Oct 11 2024 10:52:12 GMT-0400 (Eastern Daylight Time),406841.8000000715,044_o_f_n_a.png,I,m,879,4,1,1886.5,404955.3000000715,9002,NNB,A,3
4,test,4,1.0,1-Back,1,z,Fri Oct 11 2024 10:52:12 GMT-0400 (Eastern Daylight Time),408641.3000000715,044_o_f_n_a.png,I,z,771,5,1,1784.8999999761581,406856.40000009537,9002,NNB,A,4
5,test,4,0.0,1-Back,1,m,Fri Oct 11 2024 10:52:12 GMT-0400 (Eastern Daylight Time),410325.0,063_y_f_n_a.png,I,m,651,6,1,1672.8999999761581,408652.10000002384,9002,NNB,A,5
6,test,4,0.0,1-Back,1,m,Fri Oct 11 2024 10:52:12 GMT-0400 (Eastern Daylight Time),412275.40000009537,041_y_m_n_a.png,I,m,920,7,1,1937.0,410338.40000009537,9002,NNB,A,6
7,test,4,1.0,1-Back,1,z,Fri Oct 11 2024 10:52:12 GMT-0400 (Eastern Daylight Time),413975.2000000477,041_y_m_n_a.png,I,z,667,8,1,1686.7000000476837,412288.5,9002,NNB,A,7
8,test,4,0.0,1-Back,1,m,Fri Oct 11 2024 10:52:12 GMT-0400 (Eastern Daylight Time),415658.5,063_y_f_n_a.png,I,m,662,9,1,1668.6999999284744,413989.8000000715,9002,NNB,A,8
9,test,4,0.0,1-Back,1,m,Fri Oct 11 2024 10:52:12 GMT-0400 (Eastern Daylight Time),417241.7000000477,045_m_m_n_a.png,I,m,562,10,1,1570.0,415671.7000000477,9002,NNB,A,9
10,test,4,1.0,1-Back,1,z,Fri Oct 11 2024 10:52:12 GMT-0400 (Eastern Daylight Time),419358.2000000477,045_m_m_n_a.png,I,z,1091,11,1,2103.0,417255.2000000477,9002,NNB,A,10
11,test,4,0.0,1-Back,1,m,Fri Oct 11 2024 10:52:12 GMT-0400 (Eastern Daylight Time),421025.40000009537,047_o_f_n_a.png,I,m,639,12,1,1654.5,419370.90000009537,9002,NNB,A,11
12,test,4,0.0,1-Back,1,m,Fri Oct 11 2024 10:52:12 GMT-0400 (Eastern Daylight Time),423058.60000002384,053_o_m_n_a.png,I,m,1004,13,1,2020.8999999761581,421037.7000000477,9002,NNB,A,12
13,test,4,0.0,1-Back,1,m,Fri Oct 11 2024 10:52:12 GMT-0400 (Eastern Daylight Time),424774.90000009537,047_o_f_n_a.png,I,m,683,14,1,1699.5,423075.40000009537,9002,NNB,A,13
14,test,4,0.0,1-Back,1,m,Fri Oct 11 2024 10:52:12 GMT-0400 (Eastern Daylight Time),426541.60000002384,010_y_f_n_a.png,I,m,742,15,1,1755.1999999284744,424786.40000009537,9002,NNB,A,14
14,test,4,1.0,1-Back,0,z,Fri Oct 11 2024 10:52:12 GMT-0400 (Eastern Daylight Time),428408.40000009537,010_y_f_n_a.png,I,m,847,16,1,1853.7000000476837,426554.7000000477,9002,NNB,A,15
15,test,4,0.0,1-Back,1,m,Fri Oct 11 2024 10:52:12 GMT-0400 (Eastern Daylight Time),430041.5,043_m_f_n_a.png,I,m,612,17,1,1620.7999999523163,428420.7000000477,9002,NNB,A,16
16,test,4,1.0,1-Back,1,z,Fri Oct 11 2024 10:52:12 GMT-0400 (Eastern Daylight Time),431641.90000009537,043_m_f_n_a.png,I,z,580,18,1,1590.3000000715256,430051.60000002384,9002,NNB,A,17
0,test,5,1.0,1-Back,,,Fri Oct 11 2024 10:52:12 GMT-0400 (Eastern Daylight Time),431641.90000009537,053_o_m_n_a.png,I,space,1683,1,1,1590.3000000715256,430051.60000002384,9002,NNB,A,0
0,test,5,1.0,1-Back,0,z,Fri Oct 11 2024 10:52:12 GMT-0400 (Eastern Daylight Time),436975.3000000715,053_o_m_n_a.png,I,m,590,2,1,1604.0,435371.3000000715,9002,NNB,A,1
0,test,5,0.0,1-Back,0,m,Fri Oct 11 2024 10:52:12 GMT-0400 (Eastern Daylight Time),439491.8000000715,063_y_f_n_a.png,I,z,1485,3,1,2503.399999976158,436988.40000009537,9002,NNB,A,2
1,test,5,0.0,1-Back,1,m,Fri Oct 11 2024 10:52:12 GMT-0400 (Eastern Daylight Time),441392.10000002384,041_y_m_n_a.png,I,m,873,4,1,1887.2999999523163,439504.8000000715,9002,NNB,A,3
2,test,5,0.0,1-Back,1,m,Fri Oct 11 2024 10:52:12 GMT-0400 (Eastern Daylight Time),443608.40000009537,063_y_f_n_a.png,I,m,1198,5,1,2203.3000000715256,441405.10000002384,9002,NNB,A,4
3,test,5,0.0,1-Back,1,m,Fri Oct 11 2024 10:52:12 GMT-0400 (Eastern Daylight Time),445625.10000002384,058_m_m_n_a.png,I,m,996,6,1,2003.2999999523163,443621.8000000715,9002,NNB,A,5
4,test,5,1.0,1-Back,1,z,Fri Oct 11 2024 10:52:12 GMT-0400 (Eastern Daylight Time),447758.40000009537,058_m_m_n_a.png,I,z,1108,7,1,2120.100000023842,445638.3000000715,9002,NNB,A,6
5,test,5,0.0,1-Back,1,m,Fri Oct 11 2024 10:52:12 GMT-0400 (Eastern Daylight Time),449508.60000002384,010_y_f_n_a.png,I,m,718,8,1,1736.2999999523163,447772.3000000715,9002,NNB,A,7
6,test,5,0.0,1-Back,1,m,Fri Oct 11 2024 10:52:12 GMT-0400 (Eastern Daylight Time),451208.60000002384,008_y_m_n_a.png,I,m,681,9,1,1687.6999999284744,449520.90000009537,9002,NNB,A,8
7,test,5,0.0,1-Back,1,m,Fri Oct 11 2024 10:52:12 GMT-0400 (Eastern Daylight Time),452842.2000000477,010_y_f_n_a.png,I,m,613,10,1,1619.6000000238419,451222.60000002384,9002,NNB,A,9
8,test,5,0.0,1-Back,1,m,Fri Oct 11 2024 10:52:12 GMT-0400 (Eastern Daylight Time),454591.8000000715,047_o_f_n_a.png,I,m,724,11,1,1737.5,452854.3000000715,9002,NNB,A,10
9,test,5,1.0,1-Back,1,z,Fri Oct 11 2024 10:52:12 GMT-0400 (Eastern Daylight Time),456258.60000002384,047_o_f_n_a.png,I,z,637,12,1,1653.7999999523163,454604.8000000715,9002,NNB,A,11
10,test,5,0.0,1-Back,1,m,Fri Oct 11 2024 10:52:12 GMT-0400 (Eastern Daylight Time),457875.10000002384,046_o_m_n_a.png,I,m,586,13,1,1602.6000000238419,456272.5,9002,NNB,A,12
11,test,5,0.0,1-Back,1,m,Fri Oct 11 2024 10:52:12 GMT-0400 (Eastern Daylight Time),459591.40000009537,050_m_f_n_a.png,I,m,698,14,1,1703.3000000715256,457888.10000002384,9002,NNB,A,13
12,test,5,1.0,1-Back,1,z,Fri Oct 11 2024 10:52:12 GMT-0400 (Eastern Daylight Time),461392.10000002384,050_m_f_n_a.png,I,z,773,15,1,1786.7999999523163,459605.3000000715,9002,NNB,A,14
13,test,5,0.0,1-Back,1,m,Fri Oct 11 2024 10:52:12 GMT-0400 (Eastern Daylight Time),463375.0,046_o_m_n_a.png,I,m,957,16,1,1970.3999999761581,461404.60000002384,9002,NNB,A,15
14,test,5,0.0,1-Back,1,m,Fri Oct 11 2024 10:52:12 GMT-0400 (Eastern Daylight Time),464991.90000009537,043_m_f_n_a.png,I,m,591,17,1,1603.3000000715256,463388.60000002384,9002,NNB,A,16
15,test,5,0.0,1-Back,1,m,Fri Oct 11 2024 10:52:12 GMT-0400 (Eastern Daylight Time),466608.60000002384,045_m_m_n_a.png,I,m,589,18,1,1604.2999999523163,465004.3000000715,9002,NNB,A,17
0,prac,1,0.0,2-Back,,,Fri Oct 11 2024 10:52:12 GMT-0400 (Eastern Daylight Time),466608.60000002384,008_y_m_n_a.png,I,space,15638,1,1,1604.2999999523163,465004.3000000715,9002,NNB,A,0
0,prac,1,0.0,2-Back,,,Fri Oct 11 2024 10:52:12 GMT-0400 (Eastern Daylight Time),466608.60000002384,043_m_f_n_a.png,I,space,15638,2,1,1604.2999999523163,465004.3000000715,9002,NNB,A,0
1,prac,1,1.0,2-Back,1,m,Fri Oct 11 2024 10:52:12 GMT-0400 (Eastern Daylight Time),649142.4000000954,046_o_m_n_a.png,I,m,995,3,1,1802.8000000715256,647339.6000000238,9002,NNB,A,1
2,prac,1,0.0,2-Back,1,m,Fri Oct 11 2024 10:52:12 GMT-0400 (Eastern Daylight Time),651292.7000000477,047_o_f_n_a.png,I,m,1273,4,1,2136.0,649156.7000000477,9002,NNB,A,2
3,prac,1,0.0,2-Back,1,z,Fri Oct 11 2024 10:52:12 GMT-0400 (Eastern Daylight Time),653508.9000000954,046_o_m_n_a.png,I,z,1419,5,1,2200.8000000715256,651308.1000000238,9002,NNB,A,3
3,prac,1,1.0,2-Back,0,z,Fri Oct 11 2024 10:52:12 GMT-0400 (Eastern Daylight Time),655591.5,047_o_f_n_a.png,I,m,1298,6,1,2067.1999999284744,653524.3000000715,9002,NNB,A,4
4,prac,1,0.0,2-Back,1,m,Fri Oct 11 2024 10:52:12 GMT-0400 (Eastern Daylight Time),657442.2000000477,045_m_m_n_a.png,I,m,1009,7,1,1831.0,655611.2000000477,9002,NNB,A,5
4,prac,1,0.0,2-Back,0,m,Fri Oct 11 2024 10:52:12 GMT-0400 (Eastern Daylight Time),659825.4000000954,053_o_m_n_a.png,I,z,1548,8,1,2368.5,657456.9000000954,9002,NNB,A,6
4,prac,1,0.0,2-Back,0,m,Fri Oct 11 2024 10:52:12 GMT-0400 (Eastern Daylight Time),662191.4000000954,010_y_f_n_a.png,I,z,1488,9,1,2348.5,659842.9000000954,9002,NNB,A,7
4,prac,1,1.0,2-Back,0,z,Fri Oct 11 2024 10:52:12 GMT-0400 (Eastern Daylight Time),663875.6000000238,053_o_m_n_a.png,I,m,890,10,1,1670.8999999761581,662204.7000000477,9002,NNB,A,8
4,prac,1,0.0,2-Back,0,m,Fri Oct 11 2024 10:52:12 GMT-0400 (Eastern Daylight Time),665875.4000000954,063_y_f_n_a.png,I,z,1149,11,1,1985.3000000715256,663890.1000000238,9002,NNB,A,9
5,prac,1,0.0,2-Back,1,m,Fri Oct 11 2024 10:52:12 GMT-0400 (Eastern Daylight Time),667758.9000000954,045_m_m_n_a.png,I,m,1090,12,1,1868.1000000238419,665890.8000000715,9002,NNB,A,10
0,prac,2,0.0,2-Back,,,Fri Oct 11 2024 10:52:12 GMT-0400 (Eastern Daylight Time),667758.9000000954,008_y_m_n_a.png,I,a,9447,1,1,1868.1000000238419,665890.8000000715,9002,NNB,A,0
0,prac,2,0.0,2-Back,,,Fri Oct 11 2024 10:52:12 GMT-0400 (Eastern Daylight Time),667758.9000000954,043_m_f_n_a.png,I,a,9447,2,1,1868.1000000238419,665890.8000000715,9002,NNB,A,0
1,prac,2,1.0,2-Back,1,m,Fri Oct 11 2024 10:52:12 GMT-0400 (Eastern Daylight Time),684625.4000000954,046_o_m_n_a.png,I,m,1400,3,1,2218.9000000953674,682406.5,9002,NNB,A,1
2,prac,2,0.0,2-Back,1,m,Fri Oct 11 2024 10:52:12 GMT-0400 (Eastern Daylight Time),686725.2000000477,047_o_f_n_a.png,I,m,1228,4,1,2085.2999999523163,684639.9000000954,9002,NNB,A,2
3,prac,2,0.0,2-Back,1,z,Fri Oct 11 2024 10:52:12 GMT-0400 (Eastern Daylight Time),688325.6000000238,046_o_m_n_a.png,I,z,806,5,1,1588.6999999284744,686736.9000000954,9002,NNB,A,3
3,prac,2,1.0,2-Back,0,z,Fri Oct 11 2024 10:52:12 GMT-0400 (Eastern Daylight Time),690092.4000000954,047_o_f_n_a.png,I,m,978,6,1,1752.1000000238419,688340.3000000715,9002,NNB,A,4
4,prac,2,0.0,2-Back,1,m,Fri Oct 11 2024 10:52:12 GMT-0400 (Eastern Daylight Time),692459.0,045_m_m_n_a.png,I,m,1540,7,1,2351.7999999523163,690107.2000000477,9002,NNB,A,5
4,prac,2,0.0,2-Back,0,m,Fri Oct 11 2024 10:52:12 GMT-0400 (Eastern Daylight Time),694325.4000000954,053_o_m_n_a.png,I,z,1027,8,1,1852.0,692473.4000000954,9002,NNB,A,6
5,prac,2,0.0,2-Back,1,m,Fri Oct 11 2024 10:52:12 GMT-0400 (Eastern Daylight Time),696408.9000000954,010_y_f_n_a.png,I,m,1212,9,1,2068.600000023842,694340.3000000715,9002,NNB,A,7
6,prac,2,1.0,2-Back,1,z,Fri Oct 11 2024 10:52:12 GMT-0400 (Eastern Daylight Time),698508.5,053_o_m_n_a.png,I,z,1311,10,1,2085.0,696423.5,9002,NNB,A,8
7,prac,2,0.0,2-Back,1,m,Fri Oct 11 2024 10:52:12 GMT-0400 (Eastern Daylight Time),700708.9000000954,063_y_f_n_a.png,I,m,1353,11,1,2187.7000000476837,698521.2000000477,9002,NNB,A,9
7,prac,2,0.0,2-Back,0,m,Fri Oct 11 2024 10:52:12 GMT-0400 (Eastern Daylight Time),702425.5,045_m_m_n_a.png,I,z,893,12,1,1702.0,700723.5,9002,NNB,A,10
0,test,1,0.0,2-Back,,,Fri Oct 11 2024 10:52:12 GMT-0400 (Eastern Daylight Time),702425.5,041_y_m_n_a.png,I,space,10882,1,1,1702.0,700723.5,9002,NNB,A,0
0,test,1,0.0,2-Back,,,Fri Oct 11 2024 10:52:12 GMT-0400 (Eastern Daylight Time),702425.5,041_y_m_n_a.png,I,space,10882,2,1,1702.0,700723.5,9002,NNB,A,0
1,test,1,0.0,2-Back,1,m,Fri Oct 11 2024 10:52:12 GMT-0400 (Eastern Daylight Time),737075.7000000477,047_o_f_n_a.png,I,m,1504,3,1,2520.5,734555.2000000477,9002,NNB,A,1
2,test,1,0.0,2-Back,1,m,Fri Oct 11 2024 10:52:12 GMT-0400 (Eastern Daylight Time),739125.4000000954,058_m_m_n_a.png,I,m,1018,4,1,2036.6000000238419,737088.8000000715,9002,NNB,A,2
3,test,1,1.0,2-Back,1,z,Fri Oct 11 2024 10:52:12 GMT-0400 (Eastern Daylight Time),741191.7000000477,047_o_f_n_a.png,I,z,1048,5,1,2052.399999976158,739139.3000000715,9002,NNB,A,3
4,test,1,0.0,2-Back,1,m,Fri Oct 11 2024 10:52:12 GMT-0400 (Eastern Daylight Time),743808.8000000715,063_y_f_n_a.png,I,m,1590,6,1,2603.399999976158,741205.4000000954,9002,NNB,A,4
4,test,1,0.0,2-Back,0,m,Fri Oct 11 2024 10:52:12 GMT-0400 (Eastern Daylight Time),746842.3000000715,058_m_m_n_a.png,I,None,2016,7,1,3019.899999976158,743822.4000000954,9002,NNB,A,5
5,test,1,1.0,2-Back,1,z,Fri Oct 11 2024 10:52:12 GMT-0400 (Eastern Daylight Time),749142.3000000715,063_y_f_n_a.png,I,z,1268,8,1,2287.2000000476837,746855.1000000238,9002,NNB,A,6
5,test,1,0.0,2-Back,0,m,Fri Oct 11 2024 10:52:12 GMT-0400 (Eastern Daylight Time),752175.3000000715,008_y_m_n_a.png,I,None,2016,9,1,3019.600000023842,749155.7000000477,9002,NNB,A,7
6,test,1,0.0,2-Back,1,m,Fri Oct 11 2024 10:52:12 GMT-0400 (Eastern Daylight Time),754358.7000000477,044_o_f_n_a.png,I,m,1150,10,1,2171.100000023842,752187.6000000238,9002,NNB,A,8
7,test,1,1.0,2-Back,1,z,Fri Oct 11 2024 10:52:12 GMT-0400 (Eastern Daylight Time),756658.9000000954,008_y_m_n_a.png,I,z,1271,11,1,2286.5,754372.4000000954,9002,NNB,A,9
8,test,1,0.0,2-Back,1,m,Fri Oct 11 2024 10:52:12 GMT-0400 (Eastern Daylight Time),759375.5,043_m_f_n_a.png,I,m,1691,12,1,2703.5999999046326,756671.9000000954,9002,NNB,A,10
9,test,1,0.0,2-Back,1,m,Fri Oct 11 2024 10:52:12 GMT-0400 (Eastern Daylight Time),761875.5,043_m_f_n_a.png,I,m,1470,13,1,2486.399999976158,759389.1000000238,9002,NNB,A,11
10,test,1,0.0,2-Back,1,m,Fri Oct 11 2024 10:52:12 GMT-0400 (Eastern Daylight Time),764775.5,046_o_m_n_a.png,I,m,1866,14,1,2886.2999999523163,761889.2000000477,9002,NNB,A,12
10,test,1,0.0,2-Back,0,m,Fri Oct 11 2024 10:52:12 GMT-0400 (Eastern Daylight Time),767408.8000000715,044_o_f_n_a.png,I,z,1606,15,1,2618.8000000715256,764790.0,9002,NNB,A,13
11,test,1,1.0,2-Back,1,z,Fri Oct 11 2024 10:52:12 GMT-0400 (Eastern Daylight Time),769392.4000000954,046_o_m_n_a.png,I,z,957,16,1,1970.9000000953674,767421.5,9002,NNB,A,14
12,test,1,0.0,2-Back,1,m,Fri Oct 11 2024 10:52:12 GMT-0400 (Eastern Daylight Time),772325.6000000238,050_m_f_n_a.png,I,m,1902,17,1,2918.7999999523163,769406.8000000715,9002,NNB,A,15
13,test,1,0.0,2-Back,1,m,Fri Oct 11 2024 10:52:12 GMT-0400 (Eastern Daylight Time),775208.7000000477,045_m_m_n_a.png,I,m,1864,18,1,2870.0,772338.7000000477,9002,NNB,A,16
0,test,2,0.0,2-Back,,,Fri Oct 11 2024 10:52:12 GMT-0400 (Eastern Daylight Time),775208.7000000477,045_m_m_n_a.png,I,space,1909,1,1,2870.0,772338.7000000477,9002,NNB,A,0
0,test,2,0.0,2-Back,,,Fri Oct 11 2024 10:52:12 GMT-0400 (Eastern Daylight Time),775208.7000000477,010_y_f_n_a.png,I,space,1909,2,1,2870.0,772338.7000000477,9002,NNB,A,0
1,test,2,1.0,2-Back,1,z,Fri Oct 11 2024 10:52:12 GMT-0400 (Eastern Daylight Time),784992.1000000238,045_m_m_n_a.png,I,z,1707,3,1,2719.7999999523163,782272.3000000715,9002,NNB,A,1
2,test,2,0.0,2-Back,1,m,Fri Oct 11 2024 10:52:12 GMT-0400 (Eastern Daylight Time),787575.8000000715,050_m_f_n_a.png,I,m,1550,4,1,2570.7000000476837,785005.1000000238,9002,NNB,A,2
2,test,2,0.0,2-Back,0,m,Fri Oct 11 2024 10:52:12 GMT-0400 (Eastern Daylight Time),789658.9000000954,010_y_f_n_a.png,I,z,1062,5,1,2070.2000000476837,787588.7000000477,9002,NNB,A,3
3,test,2,0.0,2-Back,1,m,Fri Oct 11 2024 10:52:12 GMT-0400 (Eastern Daylight Time),792408.6000000238,046_o_m_n_a.png,I,m,1714,6,1,2731.2999999523163,789677.3000000715,9002,NNB,A,4
3,test,2,0.0,2-Back,0,m,Fri Oct 11 2024 10:52:12 GMT-0400 (Eastern Daylight Time),794709.0,063_y_f_n_a.png,I,z,1269,7,1,2287.399999976158,792421.6000000238,9002,NNB,A,5
3,test,2,1.0,2-Back,0,z,Fri Oct 11 2024 10:52:12 GMT-0400 (Eastern Daylight Time),797442.2000000477,046_o_m_n_a.png,I,m,1705,8,1,2720.399999976158,794721.8000000715,9002,NNB,A,6
4,test,2,0.0,2-Back,1,m,Fri Oct 11 2024 10:52:12 GMT-0400 (Eastern Daylight Time),799975.6000000238,008_y_m_n_a.png,I,m,1515,9,1,2519.0,797456.6000000238,9002,NNB,A,7
5,test,2,0.0,2-Back,1,m,Fri Oct 11 2024 10:52:12 GMT-0400 (Eastern Daylight Time),802609.1000000238,008_y_m_n_a.png,I,m,1606,10,1,2620.1999999284744,799988.9000000954,9002,NNB,A,8
6,test,2,0.0,2-Back,1,m,Fri Oct 11 2024 10:52:12 GMT-0400 (Eastern Daylight Time),805142.2000000477,043_m_f_n_a.png,I,m,1501,11,1,2519.100000023842,802623.1000000238,9002,NNB,A,9
6,test,2,0.0,2-Back,0,m,Fri Oct 11 2024 10:52:12 GMT-0400 (Eastern Daylight Time),806908.7000000477,010_y_f_n_a.png,I,z,743,12,1,1752.7999999523163,805155.9000000954,9002,NNB,A,10
7,test,2,1.0,2-Back,1,z,Fri Oct 11 2024 10:52:12 GMT-0400 (Eastern Daylight Time),809875.6000000238,043_m_f_n_a.png,I,z,1937,13,1,2954.2999999523163,806921.3000000715,9002,NNB,A,11
8,test,2,0.0,2-Back,1,m,Fri Oct 11 2024 10:52:12 GMT-0400 (Eastern Daylight Time),812508.9000000954,053_o_m_n_a.png,I,m,1610,14,1,2618.7000000476837,809890.2000000477,9002,NNB,A,12
9,test,2,0.0,2-Back,1,m,Fri Oct 11 2024 10:52:12 GMT-0400 (Eastern Daylight Time),815158.9000000954,053_o_m_n_a.png,I,m,1617,15,1,2636.0,812522.9000000954,9002,NNB,A,13
10,test,2,0.0,2-Back,1,m,Fri Oct 11 2024 10:52:12 GMT-0400 (Eastern Daylight Time),817608.8000000715,044_o_f_n_a.png,I,m,1431,16,1,2436.8000000715256,815172.0,9002,NNB,A,14
10,test,2,0.0,2-Back,0,m,Fri Oct 11 2024 10:52:12 GMT-0400 (Eastern Daylight Time),820442.5,058_m_m_n_a.png,I,z,1813,17,1,2820.2999999523163,817622.2000000477,9002,NNB,A,15
10,test,2,1.0,2-Back,0,z,Fri Oct 11 2024 10:52:12 GMT-0400 (Eastern Daylight Time),822292.4000000954,044_o_f_n_a.png,I,m,803,18,1,1834.5,820457.9000000954,9002,NNB,A,16
0,test,3,1.0,2-Back,,,Fri Oct 11 2024 10:52:12 GMT-0400 (Eastern Daylight Time),822292.4000000954,041_y_m_n_a.png,I,space,2057,1,1,1834.5,820457.9000000954,9002,NNB,A,0
0,test,3,1.0,2-Back,,,Fri Oct 11 2024 10:52:12 GMT-0400 (Eastern Daylight Time),822292.4000000954,041_y_m_n_a.png,I,space,2057,2,1,1834.5,820457.9000000954,9002,NNB,A,0
1,test,3,0.0,2-Back,1,m,Fri Oct 11 2024 10:52:12 GMT-0400 (Eastern Daylight Time),831792.4000000954,044_o_f_n_a.png,I,m,1323,3,1,2337.9000000953674,829454.5,9002,NNB,A,1
2,test,3,0.0,2-Back,1,m,Fri Oct 11 2024 10:52:12 GMT-0400 (Eastern Daylight Time),834441.6000000238,045_m_m_n_a.png,I,m,1629,4,1,2635.899999976158,831805.7000000477,9002,NNB,A,2
2,test,3,1.0,2-Back,0,z,Fri Oct 11 2024 10:52:12 GMT-0400 (Eastern Daylight Time),836442.3000000715,044_o_f_n_a.png,I,m,980,5,1,1990.8999999761581,834451.4000000954,9002,NNB,A,3
2,test,3,0.0,2-Back,0,m,Fri Oct 11 2024 10:52:12 GMT-0400 (Eastern Daylight Time),839475.7000000477,008_y_m_n_a.png,I,None,2015,6,1,3020.2000000476837,836455.5,9002,NNB,A,4
2,test,3,0.0,2-Back,0,m,Fri Oct 11 2024 10:52:12 GMT-0400 (Eastern Daylight Time),841725.5,045_m_m_n_a.png,I,z,1226,7,1,2235.0999999046326,839490.4000000954,9002,NNB,A,5
2,test,3,1.0,2-Back,0,z,Fri Oct 11 2024 10:52:12 GMT-0400 (Eastern Daylight Time),844758.8000000715,008_y_m_n_a.png,I,None,2016,8,1,3019.2000000476837,841739.6000000238,9002,NNB,A,6
3,test,3,0.0,2-Back,1,m,Fri Oct 11 2024 10:52:12 GMT-0400 (Eastern Daylight Time),846825.6000000238,010_y_f_n_a.png,I,m,1047,9,1,2053.100000023842,844772.5,9002,NNB,A,7
4,test,3,0.0,2-Back,1,m,Fri Oct 11 2024 10:52:12 GMT-0400 (Eastern Daylight Time),849842.4000000954,058_m_m_n_a.png,I,m,1988,10,1,3003.600000023842,846838.8000000715,9002,NNB,A,8
5,test,3,1.0,2-Back,1,z,Fri Oct 11 2024 10:52:12 GMT-0400 (Eastern Daylight Time),851775.6000000238,010_y_f_n_a.png,I,z,908,11,1,1919.0,849856.6000000238,9002,NNB,A,9
5,test,3,1.0,2-Back,0,z,Fri Oct 11 2024 10:52:12 GMT-0400 (Eastern Daylight Time),854509.0,058_m_m_n_a.png,I,m,1710,12,1,2719.7999999523163,851789.2000000477,9002,NNB,A,10
6,test,3,0.0,2-Back,1,m,Fri Oct 11 2024 10:52:12 GMT-0400 (Eastern Daylight Time),857259.0,044_o_f_n_a.png,I,m,1729,13,1,2737.0,854522.0,9002,NNB,A,11
6,test,3,0.0,2-Back,0,m,Fri Oct 11 2024 10:52:12 GMT-0400 (Eastern Daylight Time),860292.4000000954,050_m_f_n_a.png,I,None,2016,14,1,3019.4000000953674,857273.0,9002,NNB,A,12
6,test,3,0.0,2-Back,0,m,Fri Oct 11 2024 10:52:12 GMT-0400 (Eastern Daylight Time),863325.4000000954,046_o_m_n_a.png,I,None,2016,15,1,3019.0,860306.4000000954,9002,NNB,A,13
7,test,3,1.0,2-Back,1,z,Fri Oct 11 2024 10:52:12 GMT-0400 (Eastern Daylight Time),865492.4000000954,050_m_f_n_a.png,I,z,1136,16,1,2152.2000000476837,863340.2000000477,9002,NNB,A,14
8,test,3,0.0,2-Back,1,m,Fri Oct 11 2024 10:52:12 GMT-0400 (Eastern Daylight Time),867608.8000000715,047_o_f_n_a.png,I,m,1098,17,1,2101.5,865507.3000000715,9002,NNB,A,15
9,test,3,0.0,2-Back,1,m,Fri Oct 11 2024 10:52:12 GMT-0400 (Eastern Daylight Time),870325.4000000954,047_o_f_n_a.png,I,m,1685,18,1,2703.100000023842,867622.3000000715,9002,NNB,A,16
0,test,4,0.0,2-Back,,,Fri Oct 11 2024 10:52:12 GMT-0400 (Eastern Daylight Time),870325.4000000954,053_o_m_n_a.png,I,space,1408,1,1,2703.100000023842,867622.3000000715,9002,NNB,A,0
0,test,4,0.0,2-Back,,,Fri Oct 11 2024 10:52:12 GMT-0400 (Eastern Daylight Time),870325.4000000954,063_y_f_n_a.png,I,space,1408,2,1,2703.100000023842,867622.3000000715,9002,NNB,A,0
1,test,4,1.0,2-Back,1,z,Fri Oct 11 2024 10:52:12 GMT-0400 (Eastern Daylight Time),878958.6000000238,053_o_m_n_a.png,I,z,1040,3,1,2060.399999976158,876898.2000000477,9002,NNB,A,1
2,test,4,1.0,2-Back,1,z,Fri Oct 11 2024 10:52:12 GMT-0400 (Eastern Daylight Time),881558.9000000954,063_y_f_n_a.png,I,z,1567,4,1,2589.8000000715256,878969.1000000238,9002,NNB,A,2
3,test,4,0.0,2-Back,1,m,Fri Oct 11 2024 10:52:12 GMT-0400 (Eastern Daylight Time),884458.9000000954,044_o_f_n_a.png,I,m,1879,5,1,2886.8000000715256,881572.1000000238,9002,NNB,A,3
4,test,4,0.0,2-Back,1,m,Fri Oct 11 2024 10:52:12 GMT-0400 (Eastern Daylight Time),887392.2000000477,044_o_f_n_a.png,I,m,1907,6,1,2919.100000023842,884473.1000000238,9002,NNB,A,4
5,test,4,0.0,2-Back,1,m,Fri Oct 11 2024 10:52:12 GMT-0400 (Eastern Daylight Time),889392.5,043_m_f_n_a.png,I,m,973,7,1,1986.8999999761581,887405.6000000238,9002,NNB,A,5
6,test,4,0.0,2-Back,1,m,Fri Oct 11 2024 10:52:12 GMT-0400 (Eastern Daylight Time),891725.7000000477,008_y_m_n_a.png,I,m,1309,8,1,2320.2999999523163,889405.4000000954,9002,NNB,A,6
6,test,4,1.0,2-Back,0,z,Fri Oct 11 2024 10:52:12 GMT-0400 (Eastern Daylight Time),894092.5,043_m_f_n_a.png,I,m,1328,9,1,2350.5,891742.0,9002,NNB,A,7
6,test,4,0.0,2-Back,0,m,Fri Oct 11 2024 10:52:12 GMT-0400 (Eastern Daylight Time),896208.8000000715,058_m_m_n_a.png,I,z,1073,10,1,2094.8000000715256,894114.0,9002,NNB,A,8
6,test,4,0.0,2-Back,0,m,Fri Oct 11 2024 10:52:12 GMT-0400 (Eastern Daylight Time),898709.0,008_y_m_n_a.png,I,z,1469,11,1,2486.6999999284744,896222.3000000715,9002,NNB,A,9
7,test,4,0.0,2-Back,1,m,Fri Oct 11 2024 10:52:12 GMT-0400 (Eastern Daylight Time),900792.0,047_o_f_n_a.png,I,m,1064,12,1,2068.0999999046326,898723.9000000954,9002,NNB,A,10
8,test,4,0.0,2-Back,1,m,Fri Oct 11 2024 10:52:12 GMT-0400 (Eastern Daylight Time),903308.9000000954,041_y_m_n_a.png,I,m,1493,13,1,2504.5,900804.4000000954,9002,NNB,A,11
9,test,4,1.0,2-Back,1,z,Fri Oct 11 2024 10:52:12 GMT-0400 (Eastern Daylight Time),905558.9000000954,047_o_f_n_a.png,I,z,1200,14,1,2232.2000000476837,903326.7000000477,9002,NNB,A,12
10,test,4,1.0,2-Back,1,z,Fri Oct 11 2024 10:52:12 GMT-0400 (Eastern Daylight Time),907992.1000000238,041_y_m_n_a.png,I,z,1415,15,1,2419.6999999284744,905572.4000000954,9002,NNB,A,13
11,test,4,0.0,2-Back,1,m,Fri Oct 11 2024 10:52:12 GMT-0400 (Eastern Daylight Time),910325.6000000238,045_m_m_n_a.png,I,m,1301,16,1,2319.2999999523163,908006.3000000715,9002,NNB,A,14
12,test,4,0.0,2-Back,1,m,Fri Oct 11 2024 10:52:12 GMT-0400 (Eastern Daylight Time),913258.9000000954,050_m_f_n_a.png,I,m,1912,17,1,2920.5,910338.4000000954,9002,NNB,A,15
13,test,4,1.0,2-Back,1,z,Fri Oct 11 2024 10:52:12 GMT-0400 (Eastern Daylight Time),915109.1000000238,045_m_m_n_a.png,I,z,819,18,1,1836.8999999761581,913272.2000000477,9002,NNB,A,16
0,test,5,1.0,2-Back,,,Fri Oct 11 2024 10:52:12 GMT-0400 (Eastern Daylight Time),915109.1000000238,041_y_m_n_a.png,I,space,1737,1,1,1836.8999999761581,913272.2000000477,9002,NNB,A,0
0,test,5,1.0,2-Back,,,Fri Oct 11 2024 10:52:12 GMT-0400 (Eastern Daylight Time),915109.1000000238,050_m_f_n_a.png,I,space,1737,2,1,1836.8999999761581,913272.2000000477,9002,NNB,A,0
1,test,5,1.0,2-Back,1,z,Fri Oct 11 2024 10:52:12 GMT-0400 (Eastern Daylight Time),924192.4000000954,041_y_m_n_a.png,I,z,1207,3,1,2220.8000000715256,921971.6000000238,9002,NNB,A,1
2,test,5,1.0,2-Back,1,z,Fri Oct 11 2024 10:52:12 GMT-0400 (Eastern Daylight Time),926159.1000000238,050_m_f_n_a.png,I,z,941,4,1,1953.2999999523163,924205.8000000715,9002,NNB,A,2
3,test,5,0.0,2-Back,1,m,Fri Oct 11 2024 10:52:12 GMT-0400 (Eastern Daylight Time),928808.7000000477,047_o_f_n_a.png,I,m,1632,5,1,2636.7000000476837,926172.0,9002,NNB,A,3
4,test,5,0.0,2-Back,1,m,Fri Oct 11 2024 10:52:12 GMT-0400 (Eastern Daylight Time),931659.0,041_y_m_n_a.png,I,m,1812,6,1,2833.5999999046326,928825.4000000954,9002,NNB,A,4
5,test,5,0.0,2-Back,1,m,Fri Oct 11 2024 10:52:12 GMT-0400 (Eastern Daylight Time),934575.6000000238,010_y_f_n_a.png,I,m,1891,7,1,2903.6999999284744,931671.9000000954,9002,NNB,A,5
5,test,5,0.0,2-Back,0,m,Fri Oct 11 2024 10:52:12 GMT-0400 (Eastern Daylight Time),936909.2000000477,047_o_f_n_a.png,I,z,1310,8,1,2319.7000000476837,934589.5,9002,NNB,A,6
6,test,5,1.0,2-Back,1,z,Fri Oct 11 2024 10:52:12 GMT-0400 (Eastern Daylight Time),939342.5,010_y_f_n_a.png,I,z,1392,9,1,2414.6999999284744,936927.8000000715,9002,NNB,A,7
7,test,5,0.0,2-Back,1,m,Fri Oct 11 2024 10:52:12 GMT-0400 (Eastern Daylight Time),941758.8000000715,046_o_m_n_a.png,I,m,1391,10,1,2403.399999976158,939355.4000000954,9002,NNB,A,8
8,test,5,0.0,2-Back,1,m,Fri Oct 11 2024 10:52:12 GMT-0400 (Eastern Daylight Time),944509.1000000238,043_m_f_n_a.png,I,m,1727,11,1,2737.600000023842,941771.5,9002,NNB,A,9
8,test,5,0.0,2-Back,0,m,Fri Oct 11 2024 10:52:12 GMT-0400 (Eastern Daylight Time),946858.4000000954,058_m_m_n_a.png,I,z,1328,12,1,2336.5,944521.9000000954,9002,NNB,A,10
8,test,5,0.0,2-Back,0,m,Fri Oct 11 2024 10:52:12 GMT-0400 (Eastern Daylight Time),949142.4000000954,046_o_m_n_a.png,I,z,1251,13,1,2269.7000000476837,946872.7000000477,9002,NNB,A,11
8,test,5,1.0,2-Back,0,z,Fri Oct 11 2024 10:52:12 GMT-0400 (Eastern Daylight Time),951542.3000000715,058_m_m_n_a.png,I,m,1367,14,1,2385.5,949156.8000000715,9002,NNB,A,12
9,test,5,0.0,2-Back,1,m,Fri Oct 11 2024 10:52:12 GMT-0400 (Eastern Daylight Time),953792.5,063_y_f_n_a.png,I,m,1223,15,1,2237.5999999046326,951554.9000000954,9002,NNB,A,13
10,test,5,0.0,2-Back,1,m,Fri Oct 11 2024 10:52:12 GMT-0400 (Eastern Daylight Time),955925.8000000715,053_o_m_n_a.png,I,m,1101,16,1,2119.5,953806.3000000715,9002,NNB,A,14
11,test,5,0.0,2-Back,1,m,Fri Oct 11 2024 10:52:12 GMT-0400 (Eastern Daylight Time),958409.1000000238,043_m_f_n_a.png,I,m,1464,17,1,2470.5,955938.6000000238,9002,NNB,A,15
12,test,5,1.0,2-Back,1,z,Fri Oct 11 2024 10:52:12 GMT-0400 (Eastern Daylight Time),960875.7000000477,053_o_m_n_a.png,I,z,1445,18,1,2453.2999999523163,958422.4000000954,9002,NNB,A,16
