block_c,block_dur,condition,countdown,datetime,endtime,list,multichar_response,project,response,response_time,session_number,start_end,starttime,subject_id,task,task_vers,trial
,,,,Tue Nov 12 2024 10:17:14 GMT-0600 (Central Standard Time),,,,O,space,423,1,,,7032,WL,C,
prac,,0,,Tue Nov 12 2024 10:17:14 GMT-0600 (Central Standard Time),,NA,b,O,b,4493,1,,,7032,WL,C,1.0
prac,,0,,Tue Nov 12 2024 10:17:14 GMT-0600 (Central Standard Time),,NA,bo,O,o,664,1,,,7032,WL,C,1.0
prac,,0,,Tue Nov 12 2024 10:17:14 GMT-0600 (Central Standard Time),,NA,boo,O,o,98,1,,,7032,WL,C,1.0
prac,,0,,Tue Nov 12 2024 10:17:14 GMT-0600 (Central Standard Time),,NA,boos,O,s,67,1,,,7032,WL,C,1.0
prac,,0,,Tue Nov 12 2024 10:17:14 GMT-0600 (Central Standard Time),,NA,boost,O,t,175,1,,,7032,WL,C,1.0
prac,,0,,Tue Nov 12 2024 10:17:14 GMT-0600 (Central Standard Time),,NA,boostenter,O,enter,2076,1,,,7032,WL,C,1.0
1,3.4659998416900635,learn,56534.00015830994,Tue Nov 12 2024 10:17:14 GMT-0600 (Central Standard Time),148366.70000004768,A,t,O,t,3426,1,3464.9000000953674,144901.79999995232,7032,WL,C,1.0
1,3.7159998416900635,learn,56284.00015830994,Tue Nov 12 2024 10:17:14 GMT-0600 (Central Standard Time),148616.70000004768,A,to,O,o,215,1,3714.9000000953674,144901.79999995232,7032,WL,C,1.0
1,3.931999921798706,learn,56068.000078201294,Tue Nov 12 2024 10:17:14 GMT-0600 (Central Standard Time),148833.0,A,toe,O,e,175,1,3931.2000000476837,144901.79999995232,7032,WL,C,1.0
1,4.98199987411499,learn,55018.00012588501,Tue Nov 12 2024 10:17:14 GMT-0600 (Central Standard Time),149882.5,A,to,O,backspace,1011,1,4980.700000047684,144901.79999995232,7032,WL,C,1.0
1,5.681999921798706,learn,54318.000078201294,Tue Nov 12 2024 10:17:14 GMT-0600 (Central Standard Time),150582.29999995232,A,tow,O,w,662,1,5680.5,144901.79999995232,7032,WL,C,1.0
1,5.7809998989105225,learn,54219.00010108948,Tue Nov 12 2024 10:17:14 GMT-0600 (Central Standard Time),150681.90000009537,A,towe,O,e,64,1,5780.100000143051,144901.79999995232,7032,WL,C,1.0
1,6.197999954223633,learn,53802.00004577637,Tue Nov 12 2024 10:17:14 GMT-0600 (Central Standard Time),151098.79999995232,A,tower,O,r,393,1,6197.0,144901.79999995232,7032,WL,C,1.0
1,7.996999979019165,learn,52003.000020980835,Tue Nov 12 2024 10:17:14 GMT-0600 (Central Standard Time),152897.09999990463,A,towerenter,O,enter,1756,1,7995.299999952316,144901.79999995232,7032,WL,C,1.0
1,10.596999883651733,learn,49403.00011634827,Tue Nov 12 2024 10:17:14 GMT-0600 (Central Standard Time),155497.29999995232,A,w,O,w,2580,1,2599.7000000476837,152897.59999990463,7032,WL,C,2.0
1,10.86299991607666,learn,49137.00008392334,Tue Nov 12 2024 10:17:14 GMT-0600 (Central Standard Time),155763.90000009537,A,wh,O,h,226,1,2866.300000190735,152897.59999990463,7032,WL,C,2.0
1,11.062999963760376,learn,48937.000036239624,Tue Nov 12 2024 10:17:14 GMT-0600 (Central Standard Time),155963.79999995232,A,whe,O,e,156,1,3066.2000000476837,152897.59999990463,7032,WL,C,2.0
1,11.29699993133545,learn,48703.00006866455,Tue Nov 12 2024 10:17:14 GMT-0600 (Central Standard Time),156197.0,A,whea,O,a,196,1,3299.4000000953674,152897.59999990463,7032,WL,C,2.0
1,11.513000011444092,learn,48486.99998855591,Tue Nov 12 2024 10:17:14 GMT-0600 (Central Standard Time),156413.90000009537,A,wheat,O,t,188,1,3516.300000190735,152897.59999990463,7032,WL,C,2.0
1,13.312000036239624,learn,46687.999963760376,Tue Nov 12 2024 10:17:14 GMT-0600 (Central Standard Time),158212.09999990463,A,wheatenter,O,enter,1762,1,5314.5,152897.59999990463,7032,WL,C,2.0
1,15.328999996185303,learn,44671.0000038147,Tue Nov 12 2024 10:17:14 GMT-0600 (Central Standard Time),160229.40000009537,A,q,O,q,2009,1,2017.0,158212.40000009537,7032,WL,C,3.0
1,15.544999837875366,learn,44455.000162124634,Tue Nov 12 2024 10:17:14 GMT-0600 (Central Standard Time),160445.59999990463,A,qu,O,u,178,1,2233.199999809265,158212.40000009537,7032,WL,C,3.0
1,15.76199984550476,learn,44238.00015449524,Tue Nov 12 2024 10:17:14 GMT-0600 (Central Standard Time),160662.09999990463,A,que,O,e,189,1,2449.699999809265,158212.40000009537,7032,WL,C,3.0
1,15.944999933242798,learn,44055.0000667572,Tue Nov 12 2024 10:17:14 GMT-0600 (Central Standard Time),160845.59999990463,A,quee,O,e,161,1,2633.199999809265,158212.40000009537,7032,WL,C,3.0
1,16.161999940872192,learn,43838.00005912781,Tue Nov 12 2024 10:17:14 GMT-0600 (Central Standard Time),161062.29999995232,A,queen,O,n,180,1,2849.899999856949,158212.40000009537,7032,WL,C,3.0
1,18.40999984741211,learn,41590.00015258789,Tue Nov 12 2024 10:17:14 GMT-0600 (Central Standard Time),163310.40000009537,A,queenenter,O,enter,2216,1,5098.0,158212.40000009537,7032,WL,C,3.0
1,19.74399995803833,learn,40256.00004196167,Tue Nov 12 2024 10:17:14 GMT-0600 (Central Standard Time),164644.59999990463,A,s,O,s,1327,1,1333.7999999523163,163310.79999995232,7032,WL,C,4.0
1,19.927000045776367,learn,40072.99995422363,Tue Nov 12 2024 10:17:14 GMT-0600 (Central Standard Time),164827.5,A,su,O,u,142,1,1516.7000000476837,163310.79999995232,7032,WL,C,4.0
1,20.210000038146973,learn,39789.99996185303,Tue Nov 12 2024 10:17:14 GMT-0600 (Central Standard Time),165110.90000009537,A,sug,O,g,249,1,1800.1000001430511,163310.79999995232,7032,WL,C,4.0
1,20.376999855041504,learn,39623.000144958496,Tue Nov 12 2024 10:17:14 GMT-0600 (Central Standard Time),165277.20000004768,A,suga,O,a,138,1,1966.4000000953674,163310.79999995232,7032,WL,C,4.0
1,20.609999895095825,learn,39390.000104904175,Tue Nov 12 2024 10:17:14 GMT-0600 (Central Standard Time),165510.59999990463,A,sugar,O,r,208,1,2199.7999999523163,163310.79999995232,7032,WL,C,4.0
1,22.075999975204468,learn,37924.00002479553,Tue Nov 12 2024 10:17:14 GMT-0600 (Central Standard Time),166975.90000009537,A,sugarenter,O,enter,1426,1,3665.100000143051,163310.79999995232,7032,WL,C,4.0
1,24.092000007629395,learn,35907.999992370605,Tue Nov 12 2024 10:17:14 GMT-0600 (Central Standard Time),168992.79999995232,A,h,O,h,2005,1,2016.5,166976.29999995232,7032,WL,C,5.0
1,24.924999952316284,learn,35075.000047683716,Tue Nov 12 2024 10:17:14 GMT-0600 (Central Standard Time),169825.90000009537,A,ho,O,o,802,1,2849.600000143051,166976.29999995232,7032,WL,C,5.0
1,25.20899987220764,learn,34791.00012779236,Tue Nov 12 2024 10:17:14 GMT-0600 (Central Standard Time),170109.29999995232,A,hom,O,m,248,1,3133.0,166976.29999995232,7032,WL,C,5.0
1,25.491999864578247,learn,34508.00013542175,Tue Nov 12 2024 10:17:14 GMT-0600 (Central Standard Time),170392.29999995232,A,home,O,e,255,1,3416.0,166976.29999995232,7032,WL,C,5.0
1,26.141000032424927,learn,33858.99996757507,Tue Nov 12 2024 10:17:14 GMT-0600 (Central Standard Time),171041.20000004768,A,homeenter,O,enter,617,1,4064.9000000953674,166976.29999995232,7032,WL,C,5.0
1,27.674999952316284,learn,32325.000047683716,Tue Nov 12 2024 10:17:14 GMT-0600 (Central Standard Time),172575.0,A,b,O,b,1516,1,1533.5,171041.5,7032,WL,C,6.0
1,27.94099998474121,learn,32059.00001525879,Tue Nov 12 2024 10:17:14 GMT-0600 (Central Standard Time),172841.70000004768,A,bo,O,o,225,1,1800.2000000476837,171041.5,7032,WL,C,6.0
1,28.174000024795532,learn,31825.999975204468,Tue Nov 12 2024 10:17:14 GMT-0600 (Central Standard Time),173074.70000004768,A,boy,O,y,200,1,2033.2000000476837,171041.5,7032,WL,C,6.0
1,29.322999954223633,learn,30677.000045776367,Tue Nov 12 2024 10:17:14 GMT-0600 (Central Standard Time),174223.40000009537,A,boyenter,O,enter,1117,1,3181.9000000953674,171041.5,7032,WL,C,6.0
1,30.723999977111816,learn,29276.000022888184,Tue Nov 12 2024 10:17:14 GMT-0600 (Central Standard Time),175624.09999990463,A,d,O,d,1390,1,1400.3999998569489,174223.70000004768,7032,WL,C,7.0
1,31.08999991416931,learn,28910.00008583069,Tue Nov 12 2024 10:17:14 GMT-0600 (Central Standard Time),175990.29999995232,A,do,O,o,338,1,1766.5999999046326,174223.70000004768,7032,WL,C,7.0
1,31.407999992370605,learn,28592.000007629395,Tue Nov 12 2024 10:17:14 GMT-0600 (Central Standard Time),176307.20000004768,A,doc,O,c,281,1,2083.5,174223.70000004768,7032,WL,C,7.0
1,31.740999937057495,learn,28259.000062942505,Tue Nov 12 2024 10:17:14 GMT-0600 (Central Standard Time),176640.40000009537,A,doct,O,t,303,1,2416.7000000476837,174223.70000004768,7032,WL,C,7.0
1,32.073999881744385,learn,27926.000118255615,Tue Nov 12 2024 10:17:14 GMT-0600 (Central Standard Time),176973.40000009537,A,docto,O,o,304,1,2749.7000000476837,174223.70000004768,7032,WL,C,7.0
1,32.42400002479553,learn,27575.999975204468,Tue Nov 12 2024 10:17:14 GMT-0600 (Central Standard Time),177323.40000009537,A,doctor,O,r,316,1,3099.7000000476837,174223.70000004768,7032,WL,C,7.0
1,33.00600004196167,learn,26993.99995803833,Tue Nov 12 2024 10:17:14 GMT-0600 (Central Standard Time),177905.59999990463,A,doctorenter,O,enter,540,1,3681.899999856949,174223.70000004768,7032,WL,C,7.0
1,34.10699987411499,learn,25893.00012588501,Tue Nov 12 2024 10:17:14 GMT-0600 (Central Standard Time),179006.09999990463,A,c,O,c,1091,1,1100.0999999046326,177906.0,7032,WL,C,8.0
1,34.306999921798706,learn,25693.000078201294,Tue Nov 12 2024 10:17:14 GMT-0600 (Central Standard Time),179206.20000004768,A,ca,O,a,164,1,1300.2000000476837,177906.0,7032,WL,C,8.0
1,34.60699987411499,learn,25393.00012588501,Tue Nov 12 2024 10:17:14 GMT-0600 (Central Standard Time),179505.90000009537,A,cam,O,m,261,1,1599.9000000953674,177906.0,7032,WL,C,8.0
1,34.95700001716614,learn,25042.999982833862,Tue Nov 12 2024 10:17:14 GMT-0600 (Central Standard Time),179855.90000009537,A,camp,O,p,321,1,1949.9000000953674,177906.0,7032,WL,C,8.0
1,36.937999963760376,learn,23062.000036239624,Tue Nov 12 2024 10:17:14 GMT-0600 (Central Standard Time),181837.59999990463,A,campenter,O,enter,1948,1,3931.5999999046326,177906.0,7032,WL,C,8.0
1,37.48899984359741,learn,22511.000156402588,Tue Nov 12 2024 10:17:14 GMT-0600 (Central Standard Time),182388.70000004768,A,f,O,f,528,1,550.7999999523163,181837.90000009537,7032,WL,C,9.0
1,37.77199983596802,learn,22228.000164031982,Tue Nov 12 2024 10:17:14 GMT-0600 (Central Standard Time),182671.70000004768,A,fl,O,l,247,1,833.7999999523163,181837.90000009537,7032,WL,C,9.0
1,37.93899989128113,learn,22061.000108718872,Tue Nov 12 2024 10:17:14 GMT-0600 (Central Standard Time),182838.0,A,fla,O,a,138,1,1000.0999999046326,181837.90000009537,7032,WL,C,9.0
1,38.23899984359741,learn,21761.000156402588,Tue Nov 12 2024 10:17:14 GMT-0600 (Central Standard Time),183138.09999990463,A,flag,O,g,261,1,1300.1999998092651,181837.90000009537,7032,WL,C,9.0
1,40.2039999961853,learn,19796.000003814697,Tue Nov 12 2024 10:17:14 GMT-0600 (Central Standard Time),185103.29999995232,A,flagenter,O,enter,1928,1,3265.399999856949,181837.90000009537,7032,WL,C,9.0
1,41.7039999961853,learn,18296.000003814697,Tue Nov 12 2024 10:17:14 GMT-0600 (Central Standard Time),186603.70000004768,A,l,O,l,1478,1,1500.1000001430511,185103.59999990463,7032,WL,C,10.0
1,41.87100005149841,learn,18128.999948501587,Tue Nov 12 2024 10:17:14 GMT-0600 (Central Standard Time),186770.29999995232,A,le,O,e,126,1,1666.7000000476837,185103.59999990463,7032,WL,C,10.0
1,42.25399994850159,learn,17746.000051498413,Tue Nov 12 2024 10:17:14 GMT-0600 (Central Standard Time),187153.70000004768,A,let,O,t,353,1,2050.100000143051,185103.59999990463,7032,WL,C,10.0
1,42.4210000038147,learn,17578.999996185303,Tue Nov 12 2024 10:17:14 GMT-0600 (Central Standard Time),187320.20000004768,A,lett,O,t,137,1,2216.600000143051,185103.59999990463,7032,WL,C,10.0
1,42.57099986076355,learn,17429.00013923645,Tue Nov 12 2024 10:17:14 GMT-0600 (Central Standard Time),187470.09999990463,A,lette,O,e,115,1,2366.5,185103.59999990463,7032,WL,C,10.0
1,42.72099995613098,learn,17279.00004386902,Tue Nov 12 2024 10:17:14 GMT-0600 (Central Standard Time),187620.09999990463,A,letter,O,r,108,1,2516.5,185103.59999990463,7032,WL,C,10.0
1,43.503000020980835,learn,16496.999979019165,Tue Nov 12 2024 10:17:14 GMT-0600 (Central Standard Time),188402.20000004768,A,letterenter,O,enter,742,1,3298.600000143051,185103.59999990463,7032,WL,C,10.0
1,44.47000002861023,learn,15529.99997138977,Tue Nov 12 2024 10:17:14 GMT-0600 (Central Standard Time),189369.79999995232,A,c,O,c,956,1,967.3999998569489,188402.40000009537,7032,WL,C,11.0
1,44.80399990081787,learn,15196.000099182129,Tue Nov 12 2024 10:17:14 GMT-0600 (Central Standard Time),189702.79999995232,A,co,O,o,297,1,1300.3999998569489,188402.40000009537,7032,WL,C,11.0
1,44.937000036239624,learn,15062.999963760376,Tue Nov 12 2024 10:17:14 GMT-0600 (Central Standard Time),189836.20000004768,A,cor,O,r,91,1,1433.7999999523163,188402.40000009537,7032,WL,C,11.0
1,45.28699994087219,learn,14713.000059127808,Tue Nov 12 2024 10:17:14 GMT-0600 (Central Standard Time),190186.09999990463,A,corn,O,n,314,1,1783.6999998092651,188402.40000009537,7032,WL,C,11.0
1,46.30200004577637,learn,13697.999954223633,Tue Nov 12 2024 10:17:14 GMT-0600 (Central Standard Time),191201.20000004768,A,cornenter,O,enter,976,1,2798.7999999523163,188402.40000009537,7032,WL,C,11.0
1,48.76900005340576,learn,11230.999946594238,Tue Nov 12 2024 10:17:14 GMT-0600 (Central Standard Time),193668.09999990463,A,c,O,c,2452,1,2466.699999809265,191201.40000009537,7032,WL,C,12.0
1,49.18499994277954,learn,10815.000057220459,Tue Nov 12 2024 10:17:14 GMT-0600 (Central Standard Time),194084.5,A,co,O,o,375,1,2883.0999999046326,191201.40000009537,7032,WL,C,12.0
1,49.317999839782715,learn,10682.000160217285,Tue Nov 12 2024 10:17:14 GMT-0600 (Central Standard Time),194217.29999995232,A,cow,O,w,102,1,3015.899999856949,191201.40000009537,7032,WL,C,12.0
1,50.06699991226196,learn,9933.000087738037,Tue Nov 12 2024 10:17:14 GMT-0600 (Central Standard Time),194966.70000004768,A,cowenter,O,enter,732,1,3765.2999999523163,191201.40000009537,7032,WL,C,12.0
1,51.21799993515015,learn,8782.000064849854,Tue Nov 12 2024 10:17:14 GMT-0600 (Central Standard Time),196117.0,A,s,O,s,1143,1,1150.0,194967.0,7032,WL,C,13.0
1,51.45099997520447,learn,8549.000024795532,Tue Nov 12 2024 10:17:14 GMT-0600 (Central Standard Time),196350.29999995232,A,sh,O,h,206,1,1383.2999999523163,194967.0,7032,WL,C,13.0
1,51.68499994277954,learn,8315.000057220459,Tue Nov 12 2024 10:17:14 GMT-0600 (Central Standard Time),196583.90000009537,A,sho,O,o,208,1,1616.9000000953674,194967.0,7032,WL,C,13.0
1,51.901000022888184,learn,8098.999977111816,Tue Nov 12 2024 10:17:14 GMT-0600 (Central Standard Time),196800.40000009537,A,shor,O,r,189,1,1833.4000000953674,194967.0,7032,WL,C,13.0
1,52.03399991989136,learn,7966.000080108643,Tue Nov 12 2024 10:17:14 GMT-0600 (Central Standard Time),196933.59999990463,A,shore,O,e,99,1,1966.5999999046326,194967.0,7032,WL,C,13.0
1,53.33299994468689,learn,6667.00005531311,Tue Nov 12 2024 10:17:14 GMT-0600 (Central Standard Time),198232.20000004768,A,shoreenter,O,enter,1260,1,3265.2000000476837,194967.0,7032,WL,C,13.0
1,55.64999985694885,learn,4350.0001430511475,Tue Nov 12 2024 10:17:14 GMT-0600 (Central Standard Time),200548.90000009537,A,b,O,b,2309,1,2316.4000000953674,198232.5,7032,WL,C,14.0
1,55.96599984169006,learn,4034.0001583099365,Tue Nov 12 2024 10:17:14 GMT-0600 (Central Standard Time),200865.79999995232,A,bo,O,o,291,1,2633.2999999523163,198232.5,7032,WL,C,14.0
1,56.25,learn,3750.0,Tue Nov 12 2024 10:17:14 GMT-0600 (Central Standard Time),201148.90000009537,A,bod,O,d,257,1,2916.4000000953674,198232.5,7032,WL,C,14.0
1,56.43299984931946,learn,3567.000150680542,Tue Nov 12 2024 10:17:14 GMT-0600 (Central Standard Time),201332.20000004768,A,body,O,y,156,1,3099.7000000476837,198232.5,7032,WL,C,14.0
1,57.348000049591064,learn,2651.9999504089355,Tue Nov 12 2024 10:17:14 GMT-0600 (Central Standard Time),202247.70000004768,A,bodyenter,O,enter,878,1,4015.2000000476837,198232.5,7032,WL,C,14.0
1,60.014999866485596,learn,-14.999866485595703,Tue Nov 12 2024 10:17:14 GMT-0600 (Central Standard Time),204914.70000004768,A,None,O,None,2660,1,2666.7000000476837,202248.0,7032,WL,C,15.0
2,5.381999969482422,learn,54618.00003051758,Tue Nov 12 2024 10:17:14 GMT-0600 (Central Standard Time),284288.5,A,t,O,t,5353,1,5381.400000095367,278907.09999990463,7032,WL,C,1.0
2,5.682000160217285,learn,54317.999839782715,Tue Nov 12 2024 10:17:14 GMT-0600 (Central Standard Time),284588.09999990463,A,to,O,o,260,1,5681.0,278907.09999990463,7032,WL,C,1.0
2,5.881999969482422,learn,54118.00003051758,Tue Nov 12 2024 10:17:14 GMT-0600 (Central Standard Time),284788.5,A,tow,O,w,176,1,5881.400000095367,278907.09999990463,7032,WL,C,1.0
2,6.0320000648498535,learn,53967.99993515015,Tue Nov 12 2024 10:17:14 GMT-0600 (Central Standard Time),284938.0,A,towe,O,e,111,1,6030.900000095367,278907.09999990463,7032,WL,C,1.0
2,6.2820000648498535,learn,53717.99993515015,Tue Nov 12 2024 10:17:14 GMT-0600 (Central Standard Time),285187.7999999523,A,tower,O,r,217,1,6280.700000047684,278907.09999990463,7032,WL,C,1.0
2,6.829999923706055,learn,53170.000076293945,Tue Nov 12 2024 10:17:14 GMT-0600 (Central Standard Time),285736.59999990463,A,towerenter,O,enter,518,1,6829.5,278907.09999990463,7032,WL,C,1.0
2,7.648000001907349,learn,52351.99999809265,Tue Nov 12 2024 10:17:14 GMT-0600 (Central Standard Time),286554.0,A,w,O,w,797,1,817.0999999046326,285736.90000009537,7032,WL,C,2.0
2,7.914999961853027,learn,52085.00003814697,Tue Nov 12 2024 10:17:14 GMT-0600 (Central Standard Time),286820.7000000477,A,wh,O,h,233,1,1083.7999999523163,285736.90000009537,7032,WL,C,2.0
2,8.064000129699707,learn,51935.99987030029,Tue Nov 12 2024 10:17:14 GMT-0600 (Central Standard Time),286970.59999990463,A,whe,O,e,109,1,1233.6999998092651,285736.90000009537,7032,WL,C,2.0
2,8.364000082015991,learn,51635.99991798401,Tue Nov 12 2024 10:17:14 GMT-0600 (Central Standard Time),287270.59999990463,A,whea,O,a,264,1,1533.6999998092651,285736.90000009537,7032,WL,C,2.0
2,8.54800009727478,learn,51451.99990272522,Tue Nov 12 2024 10:17:14 GMT-0600 (Central Standard Time),287453.7999999523,A,wheat,O,t,149,1,1716.8999998569489,285736.90000009537,7032,WL,C,2.0
2,9.396000146865845,learn,50603.999853134155,Tue Nov 12 2024 10:17:14 GMT-0600 (Central Standard Time),288302.7000000477,A,wheatenter,O,enter,811,1,2565.7999999523163,285736.90000009537,7032,WL,C,2.0
2,9.930999994277954,learn,50069.000005722046,Tue Nov 12 2024 10:17:14 GMT-0600 (Central Standard Time),288836.7999999523,A,q,O,q,519,1,533.7999999523163,288303.0,7032,WL,C,3.0
2,10.13100004196167,learn,49868.99995803833,Tue Nov 12 2024 10:17:14 GMT-0600 (Central Standard Time),289036.90000009537,A,qu,O,u,174,1,733.9000000953674,288303.0,7032,WL,C,3.0
2,10.36300015449524,learn,49636.99984550476,Tue Nov 12 2024 10:17:14 GMT-0600 (Central Standard Time),289269.7000000477,A,que,O,e,205,1,966.7000000476837,288303.0,7032,WL,C,3.0
2,10.52999997138977,learn,49470.00002861023,Tue Nov 12 2024 10:17:14 GMT-0600 (Central Standard Time),289436.2999999523,A,quee,O,e,136,1,1133.2999999523163,288303.0,7032,WL,C,3.0
2,10.71399998664856,learn,49286.00001335144,Tue Nov 12 2024 10:17:14 GMT-0600 (Central Standard Time),289620.09999990463,A,queen,O,n,143,1,1317.0999999046326,288303.0,7032,WL,C,3.0
2,11.229000091552734,learn,48770.999908447266,Tue Nov 12 2024 10:17:14 GMT-0600 (Central Standard Time),290135.40000009537,A,queenenter,O,enter,477,1,1832.4000000953674,288303.0,7032,WL,C,3.0
2,12.079999923706055,learn,47920.000076293945,Tue Nov 12 2024 10:17:14 GMT-0600 (Central Standard Time),290986.0,A,s,O,s,831,1,850.2999999523163,290135.7000000477,7032,WL,C,4.0
2,12.263000011444092,learn,47736.99998855591,Tue Nov 12 2024 10:17:14 GMT-0600 (Central Standard Time),291169.2000000477,A,su,O,u,153,1,1033.5,290135.7000000477,7032,WL,C,4.0
2,12.54699993133545,learn,47453.00006866455,Tue Nov 12 2024 10:17:14 GMT-0600 (Central Standard Time),291452.7000000477,A,sug,O,g,257,1,1317.0,290135.7000000477,7032,WL,C,4.0
2,12.696000099182129,learn,47303.99990081787,Tue Nov 12 2024 10:17:14 GMT-0600 (Central Standard Time),291602.40000009537,A,suga,O,a,119,1,1466.7000000476837,290135.7000000477,7032,WL,C,4.0
2,13.062999963760376,learn,46937.000036239624,Tue Nov 12 2024 10:17:14 GMT-0600 (Central Standard Time),291968.90000009537,A,sugar,O,r,337,1,1833.2000000476837,290135.7000000477,7032,WL,C,4.0
2,13.562000036239624,learn,46437.999963760376,Tue Nov 12 2024 10:17:14 GMT-0600 (Central Standard Time),292467.7999999523,A,sugarenter,O,enter,475,1,2332.0999999046326,290135.7000000477,7032,WL,C,4.0
2,13.962000131607056,learn,46037.999868392944,Tue Nov 12 2024 10:17:14 GMT-0600 (Central Standard Time),292868.09999990463,A,h,O,h,386,1,400.0,292468.09999990463,7032,WL,C,5.0
2,14.229000091552734,learn,45770.999908447266,Tue Nov 12 2024 10:17:14 GMT-0600 (Central Standard Time),293135.2000000477,A,ho,O,o,249,1,667.1000001430511,292468.09999990463,7032,WL,C,5.0
2,14.51200008392334,learn,45487.99991607666,Tue Nov 12 2024 10:17:14 GMT-0600 (Central Standard Time),293418.2999999523,A,hom,O,m,244,1,950.2000000476837,292468.09999990463,7032,WL,C,5.0
2,14.729000091552734,learn,45270.999908447266,Tue Nov 12 2024 10:17:14 GMT-0600 (Central Standard Time),293635.0,A,home,O,e,190,1,1166.9000000953674,292468.09999990463,7032,WL,C,5.0
2,15.16100001335144,learn,44838.99998664856,Tue Nov 12 2024 10:17:14 GMT-0600 (Central Standard Time),294067.5,A,homeenter,O,enter,400,1,1599.4000000953674,292468.09999990463,7032,WL,C,5.0
2,15.67900013923645,learn,44320.99986076355,Tue Nov 12 2024 10:17:14 GMT-0600 (Central Standard Time),294584.90000009537,A,b,O,b,507,1,517.2000000476837,294067.7000000477,7032,WL,C,6.0
2,15.96399998664856,learn,44036.00001335144,Tue Nov 12 2024 10:17:14 GMT-0600 (Central Standard Time),294870.09999990463,A,bo,O,o,246,1,802.3999998569489,294067.7000000477,7032,WL,C,6.0
2,16.694999933242798,learn,43305.0000667572,Tue Nov 12 2024 10:17:14 GMT-0600 (Central Standard Time),295601.0,A,boy,O,y,693,1,1533.2999999523163,294067.7000000477,7032,WL,C,6.0
2,17.061000108718872,learn,42938.99989128113,Tue Nov 12 2024 10:17:14 GMT-0600 (Central Standard Time),295966.7999999523,A,boyenter,O,enter,340,1,1899.0999999046326,294067.7000000477,7032,WL,C,6.0
2,17.646000146865845,learn,42353.999853134155,Tue Nov 12 2024 10:17:14 GMT-0600 (Central Standard Time),296550.90000009537,A,d,O,d,575,1,583.9000000953674,295967.0,7032,WL,C,7.0
2,17.896000146865845,learn,42103.999853134155,Tue Nov 12 2024 10:17:14 GMT-0600 (Central Standard Time),296800.90000009537,A,do,O,o,219,1,833.9000000953674,295967.0,7032,WL,C,7.0
2,18.09599995613098,learn,41904.00004386902,Tue Nov 12 2024 10:17:14 GMT-0600 (Central Standard Time),297000.7999999523,A,doc,O,c,165,1,1033.7999999523163,295967.0,7032,WL,C,7.0
2,18.394999980926514,learn,41605.000019073486,Tue Nov 12 2024 10:17:14 GMT-0600 (Central Standard Time),297300.5,A,doct,O,t,266,1,1333.5,295967.0,7032,WL,C,7.0
2,18.628999948501587,learn,41371.00005149841,Tue Nov 12 2024 10:17:14 GMT-0600 (Central Standard Time),297533.90000009537,A,docto,O,o,198,1,1566.9000000953674,295967.0,7032,WL,C,7.0
2,18.812000036239624,learn,41187.999963760376,Tue Nov 12 2024 10:17:14 GMT-0600 (Central Standard Time),297717.2000000477,A,doctor,O,r,149,1,1750.2000000476837,295967.0,7032,WL,C,7.0
2,20.026999950408936,learn,39973.000049591064,Tue Nov 12 2024 10:17:14 GMT-0600 (Central Standard Time),298932.2000000477,A,doctorenter,O,enter,1188,1,2965.2000000476837,295967.0,7032,WL,C,7.0
2,20.545000076293945,learn,39454.999923706055,Tue Nov 12 2024 10:17:14 GMT-0600 (Central Standard Time),299449.90000009537,A,c,O,c,498,1,517.4000000953674,298932.5,7032,WL,C,8.0
2,20.74500012397766,learn,39254.99987602234,Tue Nov 12 2024 10:17:14 GMT-0600 (Central Standard Time),299649.7999999523,A,ca,O,a,161,1,717.2999999523163,298932.5,7032,WL,C,8.0
2,21.061000108718872,learn,38938.99989128113,Tue Nov 12 2024 10:17:14 GMT-0600 (Central Standard Time),299966.2999999523,A,cam,O,m,284,1,1033.7999999523163,298932.5,7032,WL,C,8.0
2,21.261000156402588,learn,38738.99984359741,Tue Nov 12 2024 10:17:14 GMT-0600 (Central Standard Time),300166.2000000477,A,camp,O,p,165,1,1233.7000000476837,298932.5,7032,WL,C,8.0
2,21.776999950408936,learn,38223.000049591064,Tue Nov 12 2024 10:17:14 GMT-0600 (Central Standard Time),300681.90000009537,A,campenter,O,enter,484,1,1749.4000000953674,298932.5,7032,WL,C,8.0
2,22.5770001411438,learn,37422.9998588562,Tue Nov 12 2024 10:17:14 GMT-0600 (Central Standard Time),301482.5,A,f,O,f,788,1,800.4000000953674,300682.09999990463,7032,WL,C,9.0
2,22.811000108718872,learn,37188.99989128113,Tue Nov 12 2024 10:17:14 GMT-0600 (Central Standard Time),301716.0,A,fl,O,l,192,1,1033.9000000953674,300682.09999990463,7032,WL,C,9.0
2,22.944000005722046,learn,37055.999994277954,Tue Nov 12 2024 10:17:14 GMT-0600 (Central Standard Time),301849.09999990463,A,fla,O,a,95,1,1167.0,300682.09999990463,7032,WL,C,9.0
2,23.276999950408936,learn,36723.000049591064,Tue Nov 12 2024 10:17:14 GMT-0600 (Central Standard Time),302182.40000009537,A,flag,O,g,299,1,1500.3000001907349,300682.09999990463,7032,WL,C,9.0
2,23.825999975204468,learn,36174.00002479553,Tue Nov 12 2024 10:17:14 GMT-0600 (Central Standard Time),302731.2999999523,A,flagenter,O,enter,516,1,2049.2000000476837,300682.09999990463,7032,WL,C,9.0
2,25.092999935150146,learn,34907.00006484985,Tue Nov 12 2024 10:17:14 GMT-0600 (Central Standard Time),303998.2000000477,A,l,O,l,1251,1,1266.6000001430511,302731.59999990463,7032,WL,C,10.0
2,25.292999982833862,learn,34707.00001716614,Tue Nov 12 2024 10:17:14 GMT-0600 (Central Standard Time),304198.2000000477,A,le,O,e,175,1,1466.6000001430511,302731.59999990463,7032,WL,C,10.0
2,25.64199995994568,learn,34358.00004005432,Tue Nov 12 2024 10:17:14 GMT-0600 (Central Standard Time),304547.59999990463,A,let,O,t,323,1,1816.0,302731.59999990463,7032,WL,C,10.0
2,25.8270001411438,learn,34172.9998588562,Tue Nov 12 2024 10:17:14 GMT-0600 (Central Standard Time),304731.7000000477,A,lett,O,t,154,1,2000.1000001430511,302731.59999990463,7032,WL,C,10.0
2,26.042999982833862,learn,33957.00001716614,Tue Nov 12 2024 10:17:14 GMT-0600 (Central Standard Time),304947.90000009537,A,lette,O,e,174,1,2216.300000190735,302731.59999990463,7032,WL,C,10.0
2,26.2260000705719,learn,33773.9999294281,Tue Nov 12 2024 10:17:14 GMT-0600 (Central Standard Time),305131.5,A,letter,O,r,152,1,2399.9000000953674,302731.59999990463,7032,WL,C,10.0
2,28.20799994468689,learn,31792.00005531311,Tue Nov 12 2024 10:17:14 GMT-0600 (Central Standard Time),307113.2000000477,A,letterenter,O,enter,1949,1,4381.600000143051,302731.59999990463,7032,WL,C,10.0
2,28.992000102996826,learn,31007.999897003174,Tue Nov 12 2024 10:17:14 GMT-0600 (Central Standard Time),307897.09999990463,A,c,O,c,765,1,783.6999998092651,307113.40000009537,7032,WL,C,11.0
2,29.225000143051147,learn,30774.999856948853,Tue Nov 12 2024 10:17:14 GMT-0600 (Central Standard Time),308130.2000000477,A,co,O,o,203,1,1016.7999999523163,307113.40000009537,7032,WL,C,11.0
2,30.192000150680542,learn,29807.999849319458,Tue Nov 12 2024 10:17:14 GMT-0600 (Central Standard Time),309096.7000000477,A,cor,O,r,937,1,1983.2999999523163,307113.40000009537,7032,WL,C,11.0
2,30.442000150680542,learn,29557.999849319458,Tue Nov 12 2024 10:17:14 GMT-0600 (Central Standard Time),309346.59999990463,A,corn,O,n,219,1,2233.199999809265,307113.40000009537,7032,WL,C,11.0
2,31.157000064849854,learn,28842.999935150146,Tue Nov 12 2024 10:17:14 GMT-0600 (Central Standard Time),310062.09999990463,A,cornenter,O,enter,688,1,2948.699999809265,307113.40000009537,7032,WL,C,11.0
2,32.990999937057495,learn,27009.000062942505,Tue Nov 12 2024 10:17:14 GMT-0600 (Central Standard Time),311895.7999999523,A,b,O,b,1815,1,1833.3999998569489,310062.40000009537,7032,WL,C,12.0
2,33.574000120162964,learn,26425.999879837036,Tue Nov 12 2024 10:17:14 GMT-0600 (Central Standard Time),312478.90000009537,A,,O,backspace,547,1,2416.5,310062.40000009537,7032,WL,C,12.0
2,34.206000089645386,learn,25793.999910354614,Tue Nov 12 2024 10:17:14 GMT-0600 (Central Standard Time),313111.40000009537,A,n,O,n,606,1,3049.0,310062.40000009537,7032,WL,C,12.0
2,34.94000005722046,learn,25059.99994277954,Tue Nov 12 2024 10:17:14 GMT-0600 (Central Standard Time),313845.09999990463,A,na,O,a,711,1,3782.699999809265,310062.40000009537,7032,WL,C,12.0
2,35.10700011253357,learn,24892.99988746643,Tue Nov 12 2024 10:17:14 GMT-0600 (Central Standard Time),314011.90000009537,A,nai,O,i,125,1,3949.5,310062.40000009537,7032,WL,C,12.0
2,35.373000144958496,learn,24626.999855041504,Tue Nov 12 2024 10:17:14 GMT-0600 (Central Standard Time),314278.2999999523,A,nail,O,l,230,1,4215.899999856949,310062.40000009537,7032,WL,C,12.0
2,35.888999938964844,learn,24111.000061035156,Tue Nov 12 2024 10:17:14 GMT-0600 (Central Standard Time),314793.90000009537,A,nailenter,O,enter,486,1,4731.5,310062.40000009537,7032,WL,C,12.0
2,36.60599994659424,learn,23394.00005340576,Tue Nov 12 2024 10:17:14 GMT-0600 (Central Standard Time),315511.2000000477,A,c,O,c,700,1,717.0,314794.2000000477,7032,WL,C,13.0
2,36.789000034332275,learn,23210.999965667725,Tue Nov 12 2024 10:17:14 GMT-0600 (Central Standard Time),315694.40000009537,A,ca,O,a,155,1,900.2000000476837,314794.2000000477,7032,WL,C,13.0
2,36.973000049591064,learn,23026.999950408936,Tue Nov 12 2024 10:17:14 GMT-0600 (Central Standard Time),315877.7999999523,A,cat,O,t,150,1,1083.5999999046326,314794.2000000477,7032,WL,C,13.0
2,37.138999938964844,learn,22861.000061035156,Tue Nov 12 2024 10:17:14 GMT-0600 (Central Standard Time),316044.40000009537,A,catt,O,t,125,1,1250.2000000476837,314794.2000000477,7032,WL,C,13.0
2,37.34000015258789,learn,22659.99984741211,Tue Nov 12 2024 10:17:14 GMT-0600 (Central Standard Time),316244.7000000477,A,cattl,O,l,176,1,1450.5,314794.2000000477,7032,WL,C,13.0
2,37.539000034332275,learn,22460.999965667725,Tue Nov 12 2024 10:17:14 GMT-0600 (Central Standard Time),316444.2000000477,A,cattle,O,e,165,1,1650.0,314794.2000000477,7032,WL,C,13.0
2,38.23800015449524,learn,21761.99984550476,Tue Nov 12 2024 10:17:14 GMT-0600 (Central Standard Time),317143.2000000477,A,cattleenter,O,enter,661,1,2349.0,314794.2000000477,7032,WL,C,13.0
2,38.73900008201599,learn,21260.99991798401,Tue Nov 12 2024 10:17:14 GMT-0600 (Central Standard Time),317644.09999990463,A,s,O,s,478,1,500.59999990463257,317143.5,7032,WL,C,14.0
2,38.92199993133545,learn,21078.00006866455,Tue Nov 12 2024 10:17:14 GMT-0600 (Central Standard Time),317827.2999999523,A,sh,O,h,142,1,683.7999999523163,317143.5,7032,WL,C,14.0
2,39.08899998664856,learn,20911.00001335144,Tue Nov 12 2024 10:17:14 GMT-0600 (Central Standard Time),317993.90000009537,A,sho,O,o,128,1,850.4000000953674,317143.5,7032,WL,C,14.0
2,39.75600004196167,learn,20243.99995803833,Tue Nov 12 2024 10:17:14 GMT-0600 (Central Standard Time),318660.7000000477,A,shor,O,r,643,1,1517.2000000476837,317143.5,7032,WL,C,14.0
2,39.92199993133545,learn,20078.00006866455,Tue Nov 12 2024 10:17:14 GMT-0600 (Central Standard Time),318826.90000009537,A,shore,O,e,131,1,1683.4000000953674,317143.5,7032,WL,C,14.0
2,40.72200012207031,learn,19277.999877929688,Tue Nov 12 2024 10:17:14 GMT-0600 (Central Standard Time),319626.7999999523,A,shoreb,O,b,760,1,2483.2999999523163,317143.5,7032,WL,C,14.0
2,41.48800015449524,learn,18511.99984550476,Tue Nov 12 2024 10:17:14 GMT-0600 (Central Standard Time),320393.0,A,shorebo,O,o,736,1,3249.5,317143.5,7032,WL,C,14.0
2,41.855000019073486,learn,18144.999980926514,Tue Nov 12 2024 10:17:14 GMT-0600 (Central Standard Time),320759.59999990463,A,shorebod,O,d,332,1,3616.0999999046326,317143.5,7032,WL,C,14.0
2,41.98699998855591,learn,18013.00001144409,Tue Nov 12 2024 10:17:14 GMT-0600 (Central Standard Time),320892.5,A,shorebody,O,y,107,1,3749.0,317143.5,7032,WL,C,14.0
2,42.98800015449524,learn,17011.99984550476,Tue Nov 12 2024 10:17:14 GMT-0600 (Central Standard Time),321892.7000000477,A,shorebod,O,backspace,974,1,4749.200000047684,317143.5,7032,WL,C,14.0
2,43.187000036239624,learn,16812.999963760376,Tue Nov 12 2024 10:17:14 GMT-0600 (Central Standard Time),322092.2000000477,A,shorebo,O,backspace,159,1,4948.700000047684,317143.5,7032,WL,C,14.0
2,43.354000091552734,learn,16645.999908447266,Tue Nov 12 2024 10:17:14 GMT-0600 (Central Standard Time),322259.09999990463,A,shoreb,O,backspace,141,1,5115.599999904633,317143.5,7032,WL,C,14.0
2,43.521000146865845,learn,16478.999853134155,Tue Nov 12 2024 10:17:14 GMT-0600 (Central Standard Time),322425.59999990463,A,shore,O,backspace,131,1,5282.099999904633,317143.5,7032,WL,C,14.0
2,44.61899995803833,learn,15381.00004196167,Tue Nov 12 2024 10:17:14 GMT-0600 (Central Standard Time),323524.2999999523,A,shoreenter,O,enter,1073,1,6380.799999952316,317143.5,7032,WL,C,14.0
2,45.5699999332428,learn,14430.000066757202,Tue Nov 12 2024 10:17:14 GMT-0600 (Central Standard Time),324475.09999990463,A,b,O,b,938,1,950.5,323524.59999990463,7032,WL,C,15.0
2,45.8199999332428,learn,14180.000066757202,Tue Nov 12 2024 10:17:14 GMT-0600 (Central Standard Time),324724.90000009537,A,bo,O,o,216,1,1200.3000001907349,323524.59999990463,7032,WL,C,15.0
2,46.15300011634827,learn,13846.999883651733,Tue Nov 12 2024 10:17:14 GMT-0600 (Central Standard Time),325058.09999990463,A,bod,O,d,303,1,1533.5,323524.59999990463,7032,WL,C,15.0
2,46.236000061035156,learn,13763.999938964844,Tue Nov 12 2024 10:17:14 GMT-0600 (Central Standard Time),325141.2999999523,A,body,O,y,49,1,1616.7000000476837,323524.59999990463,7032,WL,C,15.0
2,47.28500008583069,learn,12714.999914169312,Tue Nov 12 2024 10:17:14 GMT-0600 (Central Standard Time),326190.09999990463,A,bodyenter,O,enter,1014,1,2665.5,323524.59999990463,7032,WL,C,15.0
3,1.7160000801086426,learn,58283.99991989136,Tue Nov 12 2024 10:17:14 GMT-0600 (Central Standard Time),399150.5,A,t,O,t,1688,1,1715.9000000953674,397434.59999990463,7032,WL,C,1.0
3,1.9500000476837158,learn,58049.999952316284,Tue Nov 12 2024 10:17:14 GMT-0600 (Central Standard Time),399383.7000000477,A,to,O,o,195,1,1949.1000001430511,397434.59999990463,7032,WL,C,1.0
3,2.2330000400543213,learn,57766.99995994568,Tue Nov 12 2024 10:17:14 GMT-0600 (Central Standard Time),399667.09999990463,A,toe,O,e,243,1,2232.5,397434.59999990463,7032,WL,C,1.0
3,2.7160000801086426,learn,57283.99991989136,Tue Nov 12 2024 10:17:14 GMT-0600 (Central Standard Time),400149.90000009537,A,to,O,backspace,455,1,2715.300000190735,397434.59999990463,7032,WL,C,1.0
3,3.499000072479248,learn,56500.99992752075,Tue Nov 12 2024 10:17:14 GMT-0600 (Central Standard Time),400932.7000000477,A,tow,O,w,758,1,3498.100000143051,397434.59999990463,7032,WL,C,1.0
3,3.631999969482422,learn,56368.00003051758,Tue Nov 12 2024 10:17:14 GMT-0600 (Central Standard Time),401066.2999999523,A,towe,O,e,102,1,3631.7000000476837,397434.59999990463,7032,WL,C,1.0
3,3.9170000553131104,learn,56082.99994468689,Tue Nov 12 2024 10:17:14 GMT-0600 (Central Standard Time),401350.5,A,tower,O,r,255,1,3915.9000000953674,397434.59999990463,7032,WL,C,1.0
3,4.715000152587891,learn,55284.99984741211,Tue Nov 12 2024 10:17:14 GMT-0600 (Central Standard Time),402148.5,A,towerenter,O,enter,773,1,4713.900000095367,397434.59999990463,7032,WL,C,1.0
3,6.831000089645386,learn,53168.999910354614,Tue Nov 12 2024 10:17:14 GMT-0600 (Central Standard Time),404265.2000000477,A,w,O,w,2097,1,2116.4000000953674,402148.7999999523,7032,WL,C,2.0
3,6.996999979019165,learn,53003.000020980835,Tue Nov 12 2024 10:17:14 GMT-0600 (Central Standard Time),404431.40000009537,A,wh,O,h,136,1,2282.600000143051,402148.7999999523,7032,WL,C,2.0
3,7.148000001907349,learn,52851.99999809265,Tue Nov 12 2024 10:17:14 GMT-0600 (Central Standard Time),404581.7999999523,A,whe,O,e,134,1,2433.0,402148.7999999523,7032,WL,C,2.0
3,7.365000009536743,learn,52634.99999046326,Tue Nov 12 2024 10:17:14 GMT-0600 (Central Standard Time),404798.59999990463,A,whea,O,a,189,1,2649.7999999523163,402148.7999999523,7032,WL,C,2.0
3,7.564000129699707,learn,52435.99987030029,Tue Nov 12 2024 10:17:14 GMT-0600 (Central Standard Time),404998.5,A,wheat,O,t,165,1,2849.7000000476837,402148.7999999523,7032,WL,C,2.0
3,8.330000162124634,learn,51669.999837875366,Tue Nov 12 2024 10:17:14 GMT-0600 (Central Standard Time),405763.90000009537,A,wheatenter,O,enter,738,1,3615.100000143051,402148.7999999523,7032,WL,C,2.0
3,8.664000034332275,learn,51335.999965667725,Tue Nov 12 2024 10:17:14 GMT-0600 (Central Standard Time),406098.09999990463,A,q,O,q,314,1,333.89999985694885,405764.2000000477,7032,WL,C,3.0
3,8.847000122070312,learn,51152.99987792969,Tue Nov 12 2024 10:17:14 GMT-0600 (Central Standard Time),406281.2999999523,A,qu,O,u,153,1,517.0999999046326,405764.2000000477,7032,WL,C,3.0
3,9.014000177383423,learn,50985.99982261658,Tue Nov 12 2024 10:17:14 GMT-0600 (Central Standard Time),406448.09999990463,A,que,O,e,128,1,683.8999998569489,405764.2000000477,7032,WL,C,3.0
3,9.664000034332275,learn,50335.999965667725,Tue Nov 12 2024 10:17:14 GMT-0600 (Central Standard Time),407097.7000000477,A,quee,O,e,620,1,1333.5,405764.2000000477,7032,WL,C,3.0
3,9.914000034332275,learn,50085.999965667725,Tue Nov 12 2024 10:17:14 GMT-0600 (Central Standard Time),407348.2000000477,A,queen,O,n,217,1,1584.0,405764.2000000477,7032,WL,C,3.0
3,11.095999956130981,learn,48904.00004386902,Tue Nov 12 2024 10:17:14 GMT-0600 (Central Standard Time),408529.7999999523,A,queenenter,O,enter,1150,1,2765.5999999046326,405764.2000000477,7032,WL,C,3.0
3,11.547000169754028,learn,48452.99983024597,Tue Nov 12 2024 10:17:14 GMT-0600 (Central Standard Time),408980.90000009537,A,s,O,s,428,1,450.90000009536743,408530.0,7032,WL,C,4.0
3,11.746000051498413,learn,48253.99994850159,Tue Nov 12 2024 10:17:14 GMT-0600 (Central Standard Time),409180.40000009537,A,su,O,u,166,1,650.4000000953674,408530.0,7032,WL,C,4.0
3,12.013000011444092,learn,47986.99998855591,Tue Nov 12 2024 10:17:14 GMT-0600 (Central Standard Time),409447.0,A,sug,O,g,238,1,917.0,408530.0,7032,WL,C,4.0
3,12.146000146865845,learn,47853.999853134155,Tue Nov 12 2024 10:17:14 GMT-0600 (Central Standard Time),409580.2000000477,A,suga,O,a,100,1,1050.2000000476837,408530.0,7032,WL,C,4.0
3,12.480000019073486,learn,47519.999980926514,Tue Nov 12 2024 10:17:14 GMT-0600 (Central Standard Time),409913.59999990463,A,sugar,O,r,303,1,1383.5999999046326,408530.0,7032,WL,C,4.0
3,13.195000171661377,learn,46804.99982833862,Tue Nov 12 2024 10:17:14 GMT-0600 (Central Standard Time),410629.09999990463,A,sugarenter,O,enter,681,1,2099.0999999046326,408530.0,7032,WL,C,4.0
3,13.562000036239624,learn,46437.999963760376,Tue Nov 12 2024 10:17:14 GMT-0600 (Central Standard Time),410996.40000009537,A,h,O,h,353,1,367.10000014305115,410629.2999999523,7032,WL,C,5.0
3,13.779000043869019,learn,46220.99995613098,Tue Nov 12 2024 10:17:14 GMT-0600 (Central Standard Time),411213.09999990463,A,ho,O,o,182,1,583.7999999523163,410629.2999999523,7032,WL,C,5.0
3,14.046000003814697,learn,45953.9999961853,Tue Nov 12 2024 10:17:14 GMT-0600 (Central Standard Time),411479.7000000477,A,hom,O,m,237,1,850.4000000953674,410629.2999999523,7032,WL,C,5.0
3,14.246000051498413,learn,45753.99994850159,Tue Nov 12 2024 10:17:14 GMT-0600 (Central Standard Time),411679.5,A,home,O,e,163,1,1050.2000000476837,410629.2999999523,7032,WL,C,5.0
3,14.778000116348267,learn,45221.99988365173,Tue Nov 12 2024 10:17:14 GMT-0600 (Central Standard Time),412211.7999999523,A,homeenter,O,enter,499,1,1582.5,410629.2999999523,7032,WL,C,5.0
3,15.529000043869019,learn,44470.99995613098,Tue Nov 12 2024 10:17:14 GMT-0600 (Central Standard Time),412962.5,A,b,O,b,738,1,750.4000000953674,412212.09999990463,7032,WL,C,6.0
3,15.728000164031982,learn,44271.99983596802,Tue Nov 12 2024 10:17:14 GMT-0600 (Central Standard Time),413162.2000000477,A,bo,O,o,171,1,950.1000001430511,412212.09999990463,7032,WL,C,6.0
3,16.228000164031982,learn,43771.99983596802,Tue Nov 12 2024 10:17:14 GMT-0600 (Central Standard Time),413662.2999999523,A,boy,O,y,472,1,1450.2000000476837,412212.09999990463,7032,WL,C,6.0
3,18.3270001411438,learn,41672.9998588562,Tue Nov 12 2024 10:17:14 GMT-0600 (Central Standard Time),415760.7000000477,A,boyenter,O,enter,2059,1,3548.600000143051,412212.09999990463,7032,WL,C,6.0
3,18.92799997329712,learn,41072.00002670288,Tue Nov 12 2024 10:17:14 GMT-0600 (Central Standard Time),416361.40000009537,A,d,O,d,581,1,600.4000000953674,415761.0,7032,WL,C,7.0
3,19.17799997329712,learn,40822.00002670288,Tue Nov 12 2024 10:17:14 GMT-0600 (Central Standard Time),416611.2000000477,A,do,O,o,210,1,850.2000000476837,415761.0,7032,WL,C,7.0
3,19.378000020980835,learn,40621.999979019165,Tue Nov 12 2024 10:17:14 GMT-0600 (Central Standard Time),416811.2000000477,A,doc,O,c,169,1,1050.2000000476837,415761.0,7032,WL,C,7.0
3,19.67799997329712,learn,40322.00002670288,Tue Nov 12 2024 10:17:14 GMT-0600 (Central Standard Time),417111.2000000477,A,doct,O,t,271,1,1350.2000000476837,415761.0,7032,WL,C,7.0
3,19.99500012397766,learn,40004.99987602234,Tue Nov 12 2024 10:17:14 GMT-0600 (Central Standard Time),417428.2000000477,A,docto,O,o,276,1,1667.2000000476837,415761.0,7032,WL,C,7.0
3,20.261000156402588,learn,39738.99984359741,Tue Nov 12 2024 10:17:14 GMT-0600 (Central Standard Time),417694.2000000477,A,doctor,O,r,231,1,1933.2000000476837,415761.0,7032,WL,C,7.0
3,20.89400005340576,learn,39105.99994659424,Tue Nov 12 2024 10:17:14 GMT-0600 (Central Standard Time),418326.5,A,doctorenter,O,enter,602,1,2565.5,415761.0,7032,WL,C,7.0
3,21.42799997329712,learn,38572.00002670288,Tue Nov 12 2024 10:17:14 GMT-0600 (Central Standard Time),418860.5,A,c,O,c,512,1,533.7999999523163,418326.7000000477,7032,WL,C,8.0
3,21.66100001335144,learn,38338.99998664856,Tue Nov 12 2024 10:17:14 GMT-0600 (Central Standard Time),419094.09999990463,A,ca,O,a,199,1,767.3999998569489,418326.7000000477,7032,WL,C,8.0
3,22.16000008583069,learn,37839.99991416931,Tue Nov 12 2024 10:17:14 GMT-0600 (Central Standard Time),419592.7000000477,A,cam,O,m,460,1,1266.0,418326.7000000477,7032,WL,C,8.0
3,22.677000045776367,learn,37322.99995422363,Tue Nov 12 2024 10:17:14 GMT-0600 (Central Standard Time),420110.09999990463,A,camp,O,p,509,1,1783.3999998569489,418326.7000000477,7032,WL,C,8.0
3,23.292999982833862,learn,36707.00001716614,Tue Nov 12 2024 10:17:14 GMT-0600 (Central Standard Time),420725.7000000477,A,campenter,O,enter,580,1,2399.0,418326.7000000477,7032,WL,C,8.0
3,23.844000101089478,learn,36155.99989891052,Tue Nov 12 2024 10:17:14 GMT-0600 (Central Standard Time),421276.40000009537,A,f,O,f,535,1,550.4000000953674,420726.0,7032,WL,C,9.0
3,24.193000078201294,learn,35806.999921798706,Tue Nov 12 2024 10:17:14 GMT-0600 (Central Standard Time),421626.40000009537,A,fl,O,l,315,1,900.4000000953674,420726.0,7032,WL,C,9.0
3,24.344000101089478,learn,35655.99989891052,Tue Nov 12 2024 10:17:14 GMT-0600 (Central Standard Time),421776.59999990463,A,fla,O,a,122,1,1050.5999999046326,420726.0,7032,WL,C,9.0
3,24.81000018119812,learn,35189.99981880188,Tue Nov 12 2024 10:17:14 GMT-0600 (Central Standard Time),422242.7999999523,A,flag,O,g,434,1,1516.7999999523163,420726.0,7032,WL,C,9.0
3,26.508000135421753,learn,33491.99986457825,Tue Nov 12 2024 10:17:14 GMT-0600 (Central Standard Time),423941.2999999523,A,flagenter,O,enter,1672,1,3215.2999999523163,420726.0,7032,WL,C,9.0
3,26.860000133514404,learn,33139.999866485596,Tue Nov 12 2024 10:17:14 GMT-0600 (Central Standard Time),424292.7000000477,A,l,O,l,345,1,351.2000000476837,423941.5,7032,WL,C,10.0
3,27.093000173568726,learn,32906.999826431274,Tue Nov 12 2024 10:17:14 GMT-0600 (Central Standard Time),424525.5,A,le,O,e,199,1,584.0,423941.5,7032,WL,C,10.0
3,27.39199995994568,learn,32608.00004005432,Tue Nov 12 2024 10:17:14 GMT-0600 (Central Standard Time),424825.40000009537,A,let,O,t,270,1,883.9000000953674,423941.5,7032,WL,C,10.0
3,27.55900001525879,learn,32440.99998474121,Tue Nov 12 2024 10:17:14 GMT-0600 (Central Standard Time),424992.09999990463,A,lett,O,t,130,1,1050.5999999046326,423941.5,7032,WL,C,10.0
3,27.825999975204468,learn,32174.000024795532,Tue Nov 12 2024 10:17:14 GMT-0600 (Central Standard Time),425258.7000000477,A,lette,O,e,238,1,1317.2000000476837,423941.5,7032,WL,C,10.0
3,28.02500009536743,learn,31974.99990463257,Tue Nov 12 2024 10:17:14 GMT-0600 (Central Standard Time),425458.40000009537,A,letter,O,r,160,1,1516.9000000953674,423941.5,7032,WL,C,10.0
3,28.79100012779236,learn,31208.99987220764,Tue Nov 12 2024 10:17:14 GMT-0600 (Central Standard Time),426223.90000009537,A,letterenter,O,enter,728,1,2282.4000000953674,423941.5,7032,WL,C,10.0
3,29.342000007629395,learn,30657.999992370605,Tue Nov 12 2024 10:17:14 GMT-0600 (Central Standard Time),426774.7000000477,A,c,O,c,534,1,550.5,426224.2000000477,7032,WL,C,11.0
3,29.575000047683716,learn,30424.999952316284,Tue Nov 12 2024 10:17:14 GMT-0600 (Central Standard Time),427008.0,A,co,O,o,206,1,783.7999999523163,426224.2000000477,7032,WL,C,11.0
3,29.758000135421753,learn,30241.999864578247,Tue Nov 12 2024 10:17:14 GMT-0600 (Central Standard Time),427191.2000000477,A,cor,O,r,160,1,967.0,426224.2000000477,7032,WL,C,11.0
3,30.174000024795532,learn,29825.999975204468,Tue Nov 12 2024 10:17:14 GMT-0600 (Central Standard Time),427607.2000000477,A,corn,O,n,388,1,1383.0,426224.2000000477,7032,WL,C,11.0
3,31.240000009536743,learn,28759.999990463257,Tue Nov 12 2024 10:17:14 GMT-0600 (Central Standard Time),428673.0,A,cornenter,O,enter,1046,1,2448.7999999523163,426224.2000000477,7032,WL,C,11.0
3,31.924000024795532,learn,28075.999975204468,Tue Nov 12 2024 10:17:14 GMT-0600 (Central Standard Time),429356.90000009537,A,n,O,n,676,1,683.5,428673.40000009537,7032,WL,C,12.0
3,32.27400016784668,learn,27725.99983215332,Tue Nov 12 2024 10:17:14 GMT-0600 (Central Standard Time),429707.09999990463,A,na,O,a,319,1,1033.6999998092651,428673.40000009537,7032,WL,C,12.0
3,32.42400002479553,learn,27575.999975204468,Tue Nov 12 2024 10:17:14 GMT-0600 (Central Standard Time),429856.90000009537,A,nai,O,i,118,1,1183.5,428673.40000009537,7032,WL,C,12.0
3,32.79100012779236,learn,27208.99987220764,Tue Nov 12 2024 10:17:14 GMT-0600 (Central Standard Time),430223.59999990463,A,nail,O,l,330,1,1550.1999998092651,428673.40000009537,7032,WL,C,12.0
3,33.223000049591064,learn,26776.999950408936,Tue Nov 12 2024 10:17:14 GMT-0600 (Central Standard Time),430655.7999999523,A,nailenter,O,enter,404,1,1982.3999998569489,428673.40000009537,7032,WL,C,12.0
3,33.640000104904175,learn,26359.999895095825,Tue Nov 12 2024 10:17:14 GMT-0600 (Central Standard Time),431073.2000000477,A,c,O,c,399,1,417.2000000476837,430656.0,7032,WL,C,13.0
3,33.824000120162964,learn,26175.999879837036,Tue Nov 12 2024 10:17:14 GMT-0600 (Central Standard Time),431256.59999990463,A,ca,O,a,155,1,600.5999999046326,430656.0,7032,WL,C,13.0
3,34.10700011253357,learn,25892.99988746643,Tue Nov 12 2024 10:17:14 GMT-0600 (Central Standard Time),431539.90000009537,A,cat,O,t,243,1,883.9000000953674,430656.0,7032,WL,C,13.0
3,34.25699996948242,learn,25743.000030517578,Tue Nov 12 2024 10:17:14 GMT-0600 (Central Standard Time),431689.7000000477,A,catt,O,t,113,1,1033.7000000476837,430656.0,7032,WL,C,13.0
3,34.50699996948242,learn,25493.000030517578,Tue Nov 12 2024 10:17:14 GMT-0600 (Central Standard Time),431939.7000000477,A,cattl,O,l,219,1,1283.7000000476837,430656.0,7032,WL,C,13.0
3,34.74000000953674,learn,25259.999990463257,Tue Nov 12 2024 10:17:14 GMT-0600 (Central Standard Time),432172.7000000477,A,cattle,O,e,206,1,1516.7000000476837,430656.0,7032,WL,C,13.0
3,36.97200012207031,learn,23027.999877929688,Tue Nov 12 2024 10:17:14 GMT-0600 (Central Standard Time),434404.59999990463,A,cattleenter,O,enter,2198,1,3748.5999999046326,430656.0,7032,WL,C,13.0
3,37.371999979019165,learn,22628.000020980835,Tue Nov 12 2024 10:17:14 GMT-0600 (Central Standard Time),434805.0,A,c,O,c,394,1,400.09999990463257,434404.90000009537,7032,WL,C,14.0
3,37.58899998664856,learn,22411.00001335144,Tue Nov 12 2024 10:17:14 GMT-0600 (Central Standard Time),435021.7000000477,A,ch,O,h,193,1,616.7999999523163,434404.90000009537,7032,WL,C,14.0
3,37.82200002670288,learn,22177.99997329712,Tue Nov 12 2024 10:17:14 GMT-0600 (Central Standard Time),435255.40000009537,A,cho,O,o,206,1,850.5,434404.90000009537,7032,WL,C,14.0
3,38.10600018501282,learn,21893.999814987183,Tue Nov 12 2024 10:17:14 GMT-0600 (Central Standard Time),435538.5,A,chor,O,r,248,1,1133.5999999046326,434404.90000009537,7032,WL,C,14.0
3,38.25500011444092,learn,21744.999885559082,Tue Nov 12 2024 10:17:14 GMT-0600 (Central Standard Time),435688.40000009537,A,chore,O,e,113,1,1283.5,434404.90000009537,7032,WL,C,14.0
3,39.355000019073486,learn,20644.999980926514,Tue Nov 12 2024 10:17:14 GMT-0600 (Central Standard Time),436788.09999990463,A,chor,O,backspace,1060,1,2383.199999809265,434404.90000009537,7032,WL,C,14.0
3,39.53800010681152,learn,20461.999893188477,Tue Nov 12 2024 10:17:14 GMT-0600 (Central Standard Time),436971.40000009537,A,cho,O,backspace,152,1,2566.5,434404.90000009537,7032,WL,C,14.0
3,39.705000162124634,learn,20294.999837875366,Tue Nov 12 2024 10:17:14 GMT-0600 (Central Standard Time),437138.0,A,ch,O,backspace,137,1,2733.0999999046326,434404.90000009537,7032,WL,C,14.0
3,39.871999979019165,learn,20128.000020980835,Tue Nov 12 2024 10:17:14 GMT-0600 (Central Standard Time),437304.59999990463,A,c,O,backspace,130,1,2899.699999809265,434404.90000009537,7032,WL,C,14.0
3,40.03800010681152,learn,19961.999893188477,Tue Nov 12 2024 10:17:14 GMT-0600 (Central Standard Time),437471.2000000477,A,,O,backspace,132,1,3066.2999999523163,434404.90000009537,7032,WL,C,14.0
3,40.855000019073486,learn,19144.999980926514,Tue Nov 12 2024 10:17:14 GMT-0600 (Central Standard Time),438287.5,A,s,O,s,789,1,3882.5999999046326,434404.90000009537,7032,WL,C,14.0
3,41.0550000667572,learn,18944.999933242798,Tue Nov 12 2024 10:17:14 GMT-0600 (Central Standard Time),438487.59999990463,A,sh,O,h,169,1,4082.699999809265,434404.90000009537,7032,WL,C,14.0
3,41.271000146865845,learn,18728.999853134155,Tue Nov 12 2024 10:17:14 GMT-0600 (Central Standard Time),438703.40000009537,A,sho,O,o,188,1,4298.5,434404.90000009537,7032,WL,C,14.0
3,41.521000146865845,learn,18478.999853134155,Tue Nov 12 2024 10:17:14 GMT-0600 (Central Standard Time),438953.7999999523,A,shor,O,r,231,1,4548.899999856949,434404.90000009537,7032,WL,C,14.0
3,41.72099995613098,learn,18279.00004386902,Tue Nov 12 2024 10:17:14 GMT-0600 (Central Standard Time),439154.0,A,shore,O,e,176,1,4749.099999904633,434404.90000009537,7032,WL,C,14.0
3,42.22000002861023,learn,17779.99997138977,Tue Nov 12 2024 10:17:14 GMT-0600 (Central Standard Time),439652.7999999523,A,shoreenter,O,enter,468,1,5247.899999856949,434404.90000009537,7032,WL,C,14.0
3,42.6710000038147,learn,17328.999996185303,Tue Nov 12 2024 10:17:14 GMT-0600 (Central Standard Time),440103.40000009537,A,b,O,b,441,1,450.30000019073486,439653.09999990463,7032,WL,C,15.0
3,42.9210000038147,learn,17078.999996185303,Tue Nov 12 2024 10:17:14 GMT-0600 (Central Standard Time),440353.5,A,bo,O,o,219,1,700.4000000953674,439653.09999990463,7032,WL,C,15.0
3,43.23699998855591,learn,16763.00001144409,Tue Nov 12 2024 10:17:14 GMT-0600 (Central Standard Time),440670.09999990463,A,bod,O,d,285,1,1017.0,439653.09999990463,7032,WL,C,15.0
3,43.437000036239624,learn,16562.999963760376,Tue Nov 12 2024 10:17:14 GMT-0600 (Central Standard Time),440869.7999999523,A,body,O,y,174,1,1216.7000000476837,439653.09999990463,7032,WL,C,15.0
3,44.71900010108948,learn,15280.999898910522,Tue Nov 12 2024 10:17:14 GMT-0600 (Central Standard Time),442152.0,A,bodyenter,O,enter,1245,1,2498.9000000953674,439653.09999990463,7032,WL,C,15.0
4,2.183000087738037,learn,57816.99991226196,Tue Nov 12 2024 10:17:14 GMT-0600 (Central Standard Time),514213.40000009537,A,t,O,t,2161,1,2183.300000190735,512030.09999990463,7032,WL,C,1.0
4,2.4830000400543213,learn,57516.99995994568,Tue Nov 12 2024 10:17:14 GMT-0600 (Central Standard Time),514512.5,A,to,O,o,263,1,2482.4000000953674,512030.09999990463,7032,WL,C,1.0
4,2.7660000324249268,learn,57233.99996757507,Tue Nov 12 2024 10:17:14 GMT-0600 (Central Standard Time),514795.7000000477,A,tow,O,w,244,1,2765.600000143051,512030.09999990463,7032,WL,C,1.0
4,2.9820001125335693,learn,57017.99988746643,Tue Nov 12 2024 10:17:14 GMT-0600 (Central Standard Time),515012.2000000477,A,towe,O,e,185,1,2982.100000143051,512030.09999990463,7032,WL,C,1.0
4,3.199000120162964,learn,56800.999879837036,Tue Nov 12 2024 10:17:14 GMT-0600 (Central Standard Time),515228.7999999523,A,tower,O,r,196,1,3198.7000000476837,512030.09999990463,7032,WL,C,1.0
4,5.081000089645386,learn,54918.999910354614,Tue Nov 12 2024 10:17:14 GMT-0600 (Central Standard Time),517110.7000000477,A,towerenter,O,enter,1845,1,5080.600000143051,512030.09999990463,7032,WL,C,1.0
4,7.015000104904175,learn,52984.999895095825,Tue Nov 12 2024 10:17:14 GMT-0600 (Central Standard Time),519044.59999990463,A,w,O,w,1927,1,1933.5999999046326,517111.0,7032,WL,C,2.0
4,7.180999994277954,learn,52819.000005722046,Tue Nov 12 2024 10:17:14 GMT-0600 (Central Standard Time),519211.0,A,wh,O,h,127,1,2100.0,517111.0,7032,WL,C,2.0
4,7.3480000495910645,learn,52651.999950408936,Tue Nov 12 2024 10:17:14 GMT-0600 (Central Standard Time),519377.7000000477,A,whe,O,e,141,1,2266.7000000476837,517111.0,7032,WL,C,2.0
4,7.680999994277954,learn,52319.000005722046,Tue Nov 12 2024 10:17:14 GMT-0600 (Central Standard Time),519710.90000009537,A,whea,O,a,306,1,2599.9000000953674,517111.0,7032,WL,C,2.0
4,7.88100004196167,learn,52118.99995803833,Tue Nov 12 2024 10:17:14 GMT-0600 (Central Standard Time),519910.7999999523,A,wheat,O,t,165,1,2799.7999999523163,517111.0,7032,WL,C,2.0
4,8.579999923706055,learn,51420.000076293945,Tue Nov 12 2024 10:17:14 GMT-0600 (Central Standard Time),520609.5,A,wheatenter,O,enter,668,1,3498.5,517111.0,7032,WL,C,2.0
4,9.54699993133545,learn,50453.00006866455,Tue Nov 12 2024 10:17:14 GMT-0600 (Central Standard Time),521576.7999999523,A,q,O,q,956,1,967.0999999046326,520609.7000000477,7032,WL,C,3.0
4,9.77999997138977,learn,50220.00002861023,Tue Nov 12 2024 10:17:14 GMT-0600 (Central Standard Time),521810.2000000477,A,qu,O,u,202,1,1200.5,520609.7000000477,7032,WL,C,3.0
4,9.996999979019165,learn,50003.000020980835,Tue Nov 12 2024 10:17:14 GMT-0600 (Central Standard Time),522026.7999999523,A,que,O,e,178,1,1417.0999999046326,520609.7000000477,7032,WL,C,3.0
4,10.180000066757202,learn,49819.9999332428,Tue Nov 12 2024 10:17:14 GMT-0600 (Central Standard Time),522210.09999990463,A,quee,O,e,145,1,1600.3999998569489,520609.7000000477,7032,WL,C,3.0
4,10.397000074386597,learn,49602.9999256134,Tue Nov 12 2024 10:17:14 GMT-0600 (Central Standard Time),522426.7000000477,A,queen,O,n,178,1,1817.0,520609.7000000477,7032,WL,C,3.0
4,16.877000093460083,learn,43122.99990653992,Tue Nov 12 2024 10:17:14 GMT-0600 (Central Standard Time),528906.7000000477,A,queenenter,O,enter,6449,1,8297.0,520609.7000000477,7032,WL,C,3.0
4,17.26099991798401,learn,42739.00008201599,Tue Nov 12 2024 10:17:14 GMT-0600 (Central Standard Time),529291.0,A,s,O,s,371,1,384.0,528907.0,7032,WL,C,4.0
4,17.477999925613403,learn,42522.0000743866,Tue Nov 12 2024 10:17:14 GMT-0600 (Central Standard Time),529507.4000000954,A,su,O,u,183,1,600.4000000953674,528907.0,7032,WL,C,4.0
4,17.72699999809265,learn,42273.00000190735,Tue Nov 12 2024 10:17:14 GMT-0600 (Central Standard Time),529757.0,A,sug,O,g,225,1,850.0,528907.0,7032,WL,C,4.0
4,17.89400005340576,learn,42105.99994659424,Tue Nov 12 2024 10:17:14 GMT-0600 (Central Standard Time),529924.0,A,suga,O,a,136,1,1017.0,528907.0,7032,WL,C,4.0
4,18.26099991798401,learn,41739.00008201599,Tue Nov 12 2024 10:17:14 GMT-0600 (Central Standard Time),530290.7000000477,A,sugar,O,r,346,1,1383.7000000476837,528907.0,7032,WL,C,4.0
4,19.875999927520752,learn,40124.00007247925,Tue Nov 12 2024 10:17:14 GMT-0600 (Central Standard Time),531905.7000000477,A,sugarenter,O,enter,1584,1,2998.7000000476837,528907.0,7032,WL,C,4.0
4,20.460000038146973,learn,39539.99996185303,Tue Nov 12 2024 10:17:14 GMT-0600 (Central Standard Time),532489.9000000954,A,h,O,h,564,1,583.9000000953674,531906.0,7032,WL,C,5.0
4,20.710000038146973,learn,39289.99996185303,Tue Nov 12 2024 10:17:14 GMT-0600 (Central Standard Time),532740.0,A,ho,O,o,218,1,834.0,531906.0,7032,WL,C,5.0
4,20.926000118255615,learn,39073.999881744385,Tue Nov 12 2024 10:17:14 GMT-0600 (Central Standard Time),532956.0999999046,A,hom,O,m,185,1,1050.0999999046326,531906.0,7032,WL,C,5.0
4,21.092999935150146,learn,38907.00006484985,Tue Nov 12 2024 10:17:14 GMT-0600 (Central Standard Time),533122.9000000954,A,home,O,e,137,1,1216.9000000953674,531906.0,7032,WL,C,5.0
4,21.858999967575073,learn,38141.00003242493,Tue Nov 12 2024 10:17:14 GMT-0600 (Central Standard Time),533888.4000000954,A,homeenter,O,enter,728,1,1982.4000000953674,531906.0,7032,WL,C,5.0
4,22.243000030517578,learn,37756.99996948242,Tue Nov 12 2024 10:17:14 GMT-0600 (Central Standard Time),534272.5999999046,A,b,O,b,374,1,383.89999985694885,533888.7000000477,7032,WL,C,6.0
4,22.542999982833862,learn,37457.00001716614,Tue Nov 12 2024 10:17:14 GMT-0600 (Central Standard Time),534572.4000000954,A,bo,O,o,259,1,683.7000000476837,533888.7000000477,7032,WL,C,6.0
4,22.792999982833862,learn,37207.00001716614,Tue Nov 12 2024 10:17:14 GMT-0600 (Central Standard Time),534822.4000000954,A,boy,O,y,217,1,933.7000000476837,533888.7000000477,7032,WL,C,6.0
4,23.325000047683716,learn,36674.999952316284,Tue Nov 12 2024 10:17:14 GMT-0600 (Central Standard Time),535354.7999999523,A,boyenter,O,enter,493,1,1466.0999999046326,533888.7000000477,7032,WL,C,6.0
4,23.80900001525879,learn,36190.99998474121,Tue Nov 12 2024 10:17:14 GMT-0600 (Central Standard Time),535838.9000000954,A,d,O,d,467,1,483.80000019073486,535355.0999999046,7032,WL,C,7.0
4,24.02500009536743,learn,35974.99990463257,Tue Nov 12 2024 10:17:14 GMT-0600 (Central Standard Time),536055.0999999046,A,do,O,o,181,1,700.0,535355.0999999046,7032,WL,C,7.0
4,24.22499990463257,learn,35775.00009536743,Tue Nov 12 2024 10:17:14 GMT-0600 (Central Standard Time),536255.2999999523,A,doc,O,c,164,1,900.2000000476837,535355.0999999046,7032,WL,C,7.0
4,24.561000108718872,learn,35438.99989128113,Tue Nov 12 2024 10:17:14 GMT-0600 (Central Standard Time),536589.4000000954,A,doct,O,t,309,1,1234.3000001907349,535355.0999999046,7032,WL,C,7.0
4,24.842999935150146,learn,35157.00006484985,Tue Nov 12 2024 10:17:14 GMT-0600 (Central Standard Time),536871.7999999523,A,docto,O,o,246,1,1516.7000000476837,535355.0999999046,7032,WL,C,7.0
4,25.110000133514404,learn,34889.999866485596,Tue Nov 12 2024 10:17:14 GMT-0600 (Central Standard Time),537138.0999999046,A,doctor,O,r,235,1,1783.0,535355.0999999046,7032,WL,C,7.0
4,25.941999912261963,learn,34058.00008773804,Tue Nov 12 2024 10:17:14 GMT-0600 (Central Standard Time),537970.4000000954,A,doctorenter,O,enter,797,1,2615.300000190735,535355.0999999046,7032,WL,C,7.0
4,29.29200005531311,learn,30707.99994468689,Tue Nov 12 2024 10:17:14 GMT-0600 (Central Standard Time),541320.2999999523,A,c,O,c,3340,1,3349.5999999046326,537970.7000000477,7032,WL,C,8.0
4,29.45799994468689,learn,30542.00005531311,Tue Nov 12 2024 10:17:14 GMT-0600 (Central Standard Time),541486.9000000954,A,ca,O,a,139,1,3516.2000000476837,537970.7000000477,7032,WL,C,8.0
4,29.691999912261963,learn,30308.000087738037,Tue Nov 12 2024 10:17:14 GMT-0600 (Central Standard Time),541720.2000000477,A,cam,O,m,209,1,3749.5,537970.7000000477,7032,WL,C,8.0
4,30.10800004005432,learn,29891.99995994568,Tue Nov 12 2024 10:17:14 GMT-0600 (Central Standard Time),542136.5999999046,A,camp,O,p,379,1,4165.899999856949,537970.7000000477,7032,WL,C,8.0
4,30.7739999294281,learn,29226.0000705719,Tue Nov 12 2024 10:17:14 GMT-0600 (Central Standard Time),542802.2999999523,A,campenter,O,enter,627,1,4831.599999904633,537970.7000000477,7032,WL,C,8.0
4,31.056999921798706,learn,28943.000078201294,Tue Nov 12 2024 10:17:14 GMT-0600 (Central Standard Time),543086.2000000477,A,f,O,f,276,1,283.60000014305115,542802.5999999046,7032,WL,C,9.0
4,31.324000120162964,learn,28675.999879837036,Tue Nov 12 2024 10:17:14 GMT-0600 (Central Standard Time),543353.2000000477,A,fl,O,l,230,1,550.6000001430511,542802.5999999046,7032,WL,C,9.0
4,31.424000024795532,learn,28575.999975204468,Tue Nov 12 2024 10:17:14 GMT-0600 (Central Standard Time),543452.5999999046,A,fla,O,a,74,1,650.0,542802.5999999046,7032,WL,C,9.0
4,31.756999969482422,learn,28243.000030517578,Tue Nov 12 2024 10:17:14 GMT-0600 (Central Standard Time),543786.2000000477,A,flag,O,g,307,1,983.6000001430511,542802.5999999046,7032,WL,C,9.0
4,33.055999994277954,learn,26944.000005722046,Tue Nov 12 2024 10:17:14 GMT-0600 (Central Standard Time),545084.7999999523,A,flagenter,O,enter,1273,1,2282.2000000476837,542802.5999999046,7032,WL,C,9.0
4,33.60700011253357,learn,26392.99988746643,Tue Nov 12 2024 10:17:14 GMT-0600 (Central Standard Time),545635.5,A,l,O,l,537,1,550.4000000953674,545085.0999999046,7032,WL,C,10.0
4,33.78999996185303,learn,26210.000038146973,Tue Nov 12 2024 10:17:14 GMT-0600 (Central Standard Time),545818.7999999523,A,le,O,e,144,1,733.7000000476837,545085.0999999046,7032,WL,C,10.0
4,34.15700006484985,learn,25842.999935150146,Tue Nov 12 2024 10:17:14 GMT-0600 (Central Standard Time),546185.7999999523,A,let,O,t,331,1,1100.7000000476837,545085.0999999046,7032,WL,C,10.0
4,34.306999921798706,learn,25693.000078201294,Tue Nov 12 2024 10:17:14 GMT-0600 (Central Standard Time),546335.4000000954,A,lett,O,t,123,1,1250.3000001907349,545085.0999999046,7032,WL,C,10.0
4,34.44000005722046,learn,25559.99994277954,Tue Nov 12 2024 10:17:14 GMT-0600 (Central Standard Time),546468.5999999046,A,lette,O,e,99,1,1383.5,545085.0999999046,7032,WL,C,10.0
4,34.556999921798706,learn,25443.000078201294,Tue Nov 12 2024 10:17:14 GMT-0600 (Central Standard Time),546585.2000000477,A,letter,O,r,88,1,1500.1000001430511,545085.0999999046,7032,WL,C,10.0
4,35.22200012207031,learn,24777.999877929688,Tue Nov 12 2024 10:17:14 GMT-0600 (Central Standard Time),547250.7999999523,A,letterenter,O,enter,634,1,2165.7000000476837,545085.0999999046,7032,WL,C,10.0
4,35.49000000953674,learn,24509.999990463257,Tue Nov 12 2024 10:17:14 GMT-0600 (Central Standard Time),547518.2000000477,A,c,O,c,258,1,267.2999999523163,547250.9000000954,7032,WL,C,11.0
4,35.74000000953674,learn,24259.999990463257,Tue Nov 12 2024 10:17:14 GMT-0600 (Central Standard Time),547768.4000000954,A,co,O,o,213,1,517.5,547250.9000000954,7032,WL,C,11.0
4,35.94000005722046,learn,24059.99994277954,Tue Nov 12 2024 10:17:14 GMT-0600 (Central Standard Time),547968.0999999046,A,cor,O,r,173,1,717.1999998092651,547250.9000000954,7032,WL,C,11.0
4,36.37299990653992,learn,23627.000093460083,Tue Nov 12 2024 10:17:14 GMT-0600 (Central Standard Time),548401.2999999523,A,corn,O,n,397,1,1150.3999998569489,547250.9000000954,7032,WL,C,11.0
4,37.47099995613098,learn,22529.00004386902,Tue Nov 12 2024 10:17:14 GMT-0600 (Central Standard Time),549500.0999999046,A,cornenter,O,enter,1069,1,2249.199999809265,547250.9000000954,7032,WL,C,11.0
4,38.105000019073486,learn,21894.999980926514,Tue Nov 12 2024 10:17:14 GMT-0600 (Central Standard Time),550133.7999999523,A,n,O,n,626,1,633.5,549500.2999999523,7032,WL,C,12.0
4,38.355000019073486,learn,21644.999980926514,Tue Nov 12 2024 10:17:14 GMT-0600 (Central Standard Time),550384.0999999046,A,na,O,a,215,1,883.7999999523163,549500.2999999523,7032,WL,C,12.0
4,38.48900008201599,learn,21510.99991798401,Tue Nov 12 2024 10:17:14 GMT-0600 (Central Standard Time),550517.2000000477,A,nai,O,i,100,1,1016.9000000953674,549500.2999999523,7032,WL,C,12.0
4,39.204999923706055,learn,20795.000076293945,Tue Nov 12 2024 10:17:14 GMT-0600 (Central Standard Time),551233.7000000477,A,nail,O,l,679,1,1733.4000000953674,549500.2999999523,7032,WL,C,12.0
4,39.98699998855591,learn,20013.00001144409,Tue Nov 12 2024 10:17:14 GMT-0600 (Central Standard Time),552015.7999999523,A,nailenter,O,enter,746,1,2515.5,549500.2999999523,7032,WL,C,12.0
4,40.40499997138977,learn,19595.00002861023,Tue Nov 12 2024 10:17:14 GMT-0600 (Central Standard Time),552433.4000000954,A,c,O,c,398,1,417.40000009536743,552016.0,7032,WL,C,13.0
4,40.5550000667572,learn,19444.999933242798,Tue Nov 12 2024 10:17:14 GMT-0600 (Central Standard Time),552583.2000000477,A,ca,O,a,114,1,567.2000000476837,552016.0,7032,WL,C,13.0
4,40.88800001144409,learn,19111.99998855591,Tue Nov 12 2024 10:17:14 GMT-0600 (Central Standard Time),552916.7999999523,A,cat,O,t,309,1,900.7999999523163,552016.0,7032,WL,C,13.0
4,41.05400013923645,learn,18945.99986076355,Tue Nov 12 2024 10:17:14 GMT-0600 (Central Standard Time),553083.0999999046,A,catt,O,t,128,1,1067.0999999046326,552016.0,7032,WL,C,13.0
4,41.270999908447266,learn,18729.000091552734,Tue Nov 12 2024 10:17:14 GMT-0600 (Central Standard Time),553299.9000000954,A,cattl,O,l,181,1,1283.9000000953674,552016.0,7032,WL,C,13.0
4,41.48799991607666,learn,18512.00008392334,Tue Nov 12 2024 10:17:14 GMT-0600 (Central Standard Time),553516.2000000477,A,cattle,O,e,183,1,1500.2000000476837,552016.0,7032,WL,C,13.0
4,42.03699994087219,learn,17963.000059127808,Tue Nov 12 2024 10:17:14 GMT-0600 (Central Standard Time),554065.2000000477,A,cattleenter,O,enter,518,1,2049.2000000476837,552016.0,7032,WL,C,13.0
4,42.38700008392334,learn,17612.99991607666,Tue Nov 12 2024 10:17:14 GMT-0600 (Central Standard Time),554416.0999999046,A,s,O,s,341,1,350.69999980926514,554065.4000000954,7032,WL,C,14.0
4,42.57100009918213,learn,17428.99990081787,Tue Nov 12 2024 10:17:14 GMT-0600 (Central Standard Time),554599.2999999523,A,sh,O,h,154,1,533.8999998569489,554065.4000000954,7032,WL,C,14.0
4,42.80400013923645,learn,17195.99986076355,Tue Nov 12 2024 10:17:14 GMT-0600 (Central Standard Time),554832.5999999046,A,sho,O,o,196,1,767.1999998092651,554065.4000000954,7032,WL,C,14.0
4,43.03699994087219,learn,16963.000059127808,Tue Nov 12 2024 10:17:14 GMT-0600 (Central Standard Time),555065.7999999523,A,shor,O,r,195,1,1000.3999998569489,554065.4000000954,7032,WL,C,14.0
4,43.13599991798401,learn,16864.00008201599,Tue Nov 12 2024 10:17:14 GMT-0600 (Central Standard Time),555164.9000000954,A,shore,O,e,74,1,1099.5,554065.4000000954,7032,WL,C,14.0
4,44.51900005340576,learn,15480.999946594238,Tue Nov 12 2024 10:17:14 GMT-0600 (Central Standard Time),556547.5,A,shoreenter,O,enter,1361,1,2482.0999999046326,554065.4000000954,7032,WL,C,14.0
4,44.88700008392334,learn,15112.99991607666,Tue Nov 12 2024 10:17:14 GMT-0600 (Central Standard Time),556915.2999999523,A,b,O,b,354,1,367.59999990463257,556547.7000000477,7032,WL,C,15.0
4,45.236000061035156,learn,14763.999938964844,Tue Nov 12 2024 10:17:14 GMT-0600 (Central Standard Time),557265.0,A,bo,O,o,320,1,717.2999999523163,556547.7000000477,7032,WL,C,15.0
4,45.60199999809265,learn,14398.000001907349,Tue Nov 12 2024 10:17:14 GMT-0600 (Central Standard Time),557630.5999999046,A,bod,O,d,338,1,1082.8999998569489,556547.7000000477,7032,WL,C,15.0
4,45.93499994277954,learn,14065.000057220459,Tue Nov 12 2024 10:17:14 GMT-0600 (Central Standard Time),557963.7000000477,A,body,O,y,325,1,1416.0,556547.7000000477,7032,WL,C,15.0
4,46.45199990272522,learn,13548.00009727478,Tue Nov 12 2024 10:17:14 GMT-0600 (Central Standard Time),558480.2999999523,A,bodyenter,O,enter,506,1,1932.5999999046326,556547.7000000477,7032,WL,C,15.0
5,3.699000120162964,learn,60000.0,Tue Nov 12 2024 10:17:14 GMT-0600 (Central Standard Time),634589.5999999046,A,t,O,t,3676,1,3698.5,630891.0999999046,7032,WL,C,1.0
5,3.9660000801086426,learn,60000.0,Tue Nov 12 2024 10:17:14 GMT-0600 (Central Standard Time),634856.5,A,to,O,o,231,1,3965.4000000953674,630891.0999999046,7032,WL,C,1.0
5,4.182000160217285,learn,60000.0,Tue Nov 12 2024 10:17:14 GMT-0600 (Central Standard Time),635072.9000000954,A,tow,O,w,186,1,4181.800000190735,630891.0999999046,7032,WL,C,1.0
5,4.432000160217285,learn,60000.0,Tue Nov 12 2024 10:17:14 GMT-0600 (Central Standard Time),635322.7000000477,A,towe,O,e,220,1,4431.600000143051,630891.0999999046,7032,WL,C,1.0
5,4.682000160217285,learn,60000.0,Tue Nov 12 2024 10:17:14 GMT-0600 (Central Standard Time),635572.7999999523,A,tower,O,r,226,1,4681.700000047684,630891.0999999046,7032,WL,C,1.0
5,5.814000129699707,learn,60000.0,Tue Nov 12 2024 10:17:14 GMT-0600 (Central Standard Time),636704.7000000477,A,towerenter,O,enter,1102,1,5813.600000143051,630891.0999999046,7032,WL,C,1.0
5,6.731000185012817,learn,60000.0,Tue Nov 12 2024 10:17:14 GMT-0600 (Central Standard Time),637621.9000000954,A,w,O,w,909,1,916.9000000953674,636705.0,7032,WL,C,2.0
5,6.965000152587891,learn,60000.0,Tue Nov 12 2024 10:17:14 GMT-0600 (Central Standard Time),637855.2000000477,A,wh,O,h,198,1,1150.2000000476837,636705.0,7032,WL,C,2.0
5,7.0980000495910645,learn,60000.0,Tue Nov 12 2024 10:17:14 GMT-0600 (Central Standard Time),637988.5,A,whe,O,e,100,1,1283.5,636705.0,7032,WL,C,2.0
5,7.364000082015991,learn,60000.0,Tue Nov 12 2024 10:17:14 GMT-0600 (Central Standard Time),638255.0999999046,A,whea,O,a,241,1,1550.0999999046326,636705.0,7032,WL,C,2.0
5,7.531000137329102,learn,60000.0,Tue Nov 12 2024 10:17:14 GMT-0600 (Central Standard Time),638421.5999999046,A,wheat,O,t,143,1,1716.5999999046326,636705.0,7032,WL,C,2.0
5,8.03000020980835,learn,60000.0,Tue Nov 12 2024 10:17:14 GMT-0600 (Central Standard Time),638920.5999999046,A,wheatenter,O,enter,469,1,2215.5999999046326,636705.0,7032,WL,C,2.0
5,8.498000144958496,learn,60000.0,Tue Nov 12 2024 10:17:14 GMT-0600 (Central Standard Time),639388.4000000954,A,q,O,q,461,1,467.5,638920.9000000954,7032,WL,C,3.0
5,8.781000137329102,learn,60000.0,Tue Nov 12 2024 10:17:14 GMT-0600 (Central Standard Time),639671.5,A,qu,O,u,256,1,750.5999999046326,638920.9000000954,7032,WL,C,3.0
5,8.94700002670288,learn,60000.0,Tue Nov 12 2024 10:17:14 GMT-0600 (Central Standard Time),639837.7000000477,A,que,O,e,141,1,916.7999999523163,638920.9000000954,7032,WL,C,3.0
5,9.164000034332275,learn,60000.0,Tue Nov 12 2024 10:17:14 GMT-0600 (Central Standard Time),640054.5999999046,A,quee,O,e,182,1,1133.6999998092651,638920.9000000954,7032,WL,C,3.0
5,9.397000074386597,learn,60000.0,Tue Nov 12 2024 10:17:14 GMT-0600 (Central Standard Time),640287.7999999523,A,queen,O,n,198,1,1366.8999998569489,638920.9000000954,7032,WL,C,3.0
5,9.92900013923645,learn,60000.0,Tue Nov 12 2024 10:17:14 GMT-0600 (Central Standard Time),640819.9000000954,A,queenenter,O,enter,507,1,1899.0,638920.9000000954,7032,WL,C,3.0
5,10.513000011444092,learn,60000.0,Tue Nov 12 2024 10:17:14 GMT-0600 (Central Standard Time),641404.0,A,s,O,s,563,1,583.7000000476837,640820.2999999523,7032,WL,C,4.0
5,10.730000019073486,learn,60000.0,Tue Nov 12 2024 10:17:14 GMT-0600 (Central Standard Time),641620.7000000477,A,su,O,u,184,1,800.4000000953674,640820.2999999523,7032,WL,C,4.0
5,10.94700002670288,learn,60000.0,Tue Nov 12 2024 10:17:14 GMT-0600 (Central Standard Time),641837.4000000954,A,sug,O,g,184,1,1017.1000001430511,640820.2999999523,7032,WL,C,4.0
5,11.11300015449524,learn,60000.0,Tue Nov 12 2024 10:17:14 GMT-0600 (Central Standard Time),642003.7999999523,A,suga,O,a,137,1,1183.5,640820.2999999523,7032,WL,C,4.0
5,11.330000162124634,learn,60000.0,Tue Nov 12 2024 10:17:14 GMT-0600 (Central Standard Time),642220.7999999523,A,sugar,O,r,193,1,1400.5,640820.2999999523,7032,WL,C,4.0
5,12.17900013923645,learn,60000.0,Tue Nov 12 2024 10:17:14 GMT-0600 (Central Standard Time),643069.2000000477,A,sugarenter,O,enter,823,1,2248.9000000953674,640820.2999999523,7032,WL,C,4.0
5,13.729000091552734,learn,60000.0,Tue Nov 12 2024 10:17:14 GMT-0600 (Central Standard Time),644619.7999999523,A,h,O,h,1529,1,1550.2999999523163,643069.5,7032,WL,C,5.0
5,14.046000003814697,learn,60000.0,Tue Nov 12 2024 10:17:14 GMT-0600 (Central Standard Time),644936.0999999046,A,ho,O,o,280,1,1866.5999999046326,643069.5,7032,WL,C,5.0
5,14.378000020980835,learn,60000.0,Tue Nov 12 2024 10:17:14 GMT-0600 (Central Standard Time),645269.0999999046,A,hom,O,m,308,1,2199.5999999046326,643069.5,7032,WL,C,5.0
5,14.67900013923645,learn,60000.0,Tue Nov 12 2024 10:17:14 GMT-0600 (Central Standard Time),645569.4000000954,A,home,O,e,271,1,2499.9000000953674,643069.5,7032,WL,C,5.0
5,14.878000020980835,learn,60000.0,Tue Nov 12 2024 10:17:14 GMT-0600 (Central Standard Time),645768.4000000954,A,homeenter,O,enter,161,1,2698.9000000953674,643069.5,7032,WL,C,5.0
5,15.328999996185303,learn,60000.0,Tue Nov 12 2024 10:17:14 GMT-0600 (Central Standard Time),646219.0999999046,A,b,O,b,438,1,450.39999985694885,645768.7000000477,7032,WL,C,6.0
5,15.59500002861023,learn,60000.0,Tue Nov 12 2024 10:17:14 GMT-0600 (Central Standard Time),646485.5999999046,A,bo,O,o,245,1,716.8999998569489,645768.7000000477,7032,WL,C,6.0
5,15.912000179290771,learn,60000.0,Tue Nov 12 2024 10:17:14 GMT-0600 (Central Standard Time),646802.2999999523,A,boy,O,y,288,1,1033.5999999046326,645768.7000000477,7032,WL,C,6.0
5,16.24400019645691,learn,60000.0,Tue Nov 12 2024 10:17:14 GMT-0600 (Central Standard Time),647134.5999999046,A,boyenter,O,enter,298,1,1365.8999998569489,645768.7000000477,7032,WL,C,6.0
5,16.528000116348267,learn,60000.0,Tue Nov 12 2024 10:17:14 GMT-0600 (Central Standard Time),647418.9000000954,A,d,O,d,272,1,284.10000014305115,647134.7999999523,7032,WL,C,7.0
5,16.695000171661377,learn,60000.0,Tue Nov 12 2024 10:17:14 GMT-0600 (Central Standard Time),647585.4000000954,A,do,O,o,128,1,450.60000014305115,647134.7999999523,7032,WL,C,7.0
5,16.91100001335144,learn,60000.0,Tue Nov 12 2024 10:17:14 GMT-0600 (Central Standard Time),647802.0,A,doc,O,c,187,1,667.2000000476837,647134.7999999523,7032,WL,C,7.0
5,17.228000164031982,learn,60000.0,Tue Nov 12 2024 10:17:14 GMT-0600 (Central Standard Time),648118.5999999046,A,docy,O,y,283,1,983.7999999523163,647134.7999999523,7032,WL,C,7.0
5,17.561000108718872,learn,60000.0,Tue Nov 12 2024 10:17:14 GMT-0600 (Central Standard Time),648451.5,A,docyo,O,o,293,1,1316.7000000476837,647134.7999999523,7032,WL,C,7.0
5,18.028000116348267,learn,60000.0,Tue Nov 12 2024 10:17:14 GMT-0600 (Central Standard Time),648918.0999999046,A,docy,O,backspace,451,1,1783.2999999523163,647134.7999999523,7032,WL,C,7.0
5,18.194000005722046,learn,60000.0,Tue Nov 12 2024 10:17:14 GMT-0600 (Central Standard Time),649084.7000000477,A,doc,O,backspace,145,1,1949.9000000953674,647134.7999999523,7032,WL,C,7.0
5,18.361000061035156,learn,60000.0,Tue Nov 12 2024 10:17:14 GMT-0600 (Central Standard Time),649251.4000000954,A,do,O,backspace,134,1,2116.600000143051,647134.7999999523,7032,WL,C,7.0
5,19.361000061035156,learn,60000.0,Tue Nov 12 2024 10:17:14 GMT-0600 (Central Standard Time),650251.0999999046,A,doc,O,c,969,1,3116.2999999523163,647134.7999999523,7032,WL,C,7.0
5,19.794000148773193,learn,60000.0,Tue Nov 12 2024 10:17:14 GMT-0600 (Central Standard Time),650684.2999999523,A,doct,O,t,402,1,3549.5,647134.7999999523,7032,WL,C,7.0
5,20.127000093460083,learn,60000.0,Tue Nov 12 2024 10:17:14 GMT-0600 (Central Standard Time),651017.7000000477,A,docto,O,o,304,1,3882.9000000953674,647134.7999999523,7032,WL,C,7.0
5,20.259999990463257,learn,60000.0,Tue Nov 12 2024 10:17:14 GMT-0600 (Central Standard Time),651150.2999999523,A,doctor,O,r,106,1,4015.5,647134.7999999523,7032,WL,C,7.0
5,20.776000022888184,learn,60000.0,Tue Nov 12 2024 10:17:14 GMT-0600 (Central Standard Time),651666.4000000954,A,doctorenter,O,enter,495,1,4531.600000143051,647134.7999999523,7032,WL,C,7.0
5,21.12600016593933,learn,60000.0,Tue Nov 12 2024 10:17:14 GMT-0600 (Central Standard Time),652017.0999999046,A,c,O,c,340,1,350.39999985694885,651666.7000000477,7032,WL,C,8.0
5,21.243000030517578,learn,60000.0,Tue Nov 12 2024 10:17:14 GMT-0600 (Central Standard Time),652133.7000000477,A,ca,O,a,90,1,467.0,651666.7000000477,7032,WL,C,8.0
5,21.493000030517578,learn,60000.0,Tue Nov 12 2024 10:17:14 GMT-0600 (Central Standard Time),652383.7000000477,A,cam,O,m,223,1,717.0,651666.7000000477,7032,WL,C,8.0
5,21.677000045776367,learn,60000.0,Tue Nov 12 2024 10:17:14 GMT-0600 (Central Standard Time),652567.2000000477,A,camp,O,p,157,1,900.5,651666.7000000477,7032,WL,C,8.0
5,21.909000158309937,learn,60000.0,Tue Nov 12 2024 10:17:14 GMT-0600 (Central Standard Time),652799.2999999523,A,campenter,O,enter,202,1,1132.5999999046326,651666.7000000477,7032,WL,C,8.0
5,22.16000008583069,learn,60000.0,Tue Nov 12 2024 10:17:14 GMT-0600 (Central Standard Time),653050.2999999523,A,l,O,l,239,1,250.70000004768372,652799.5999999046,7032,WL,C,9.0
5,22.343000173568726,learn,60000.0,Tue Nov 12 2024 10:17:14 GMT-0600 (Central Standard Time),653233.7000000477,A,la,O,a,145,1,434.10000014305115,652799.5999999046,7032,WL,C,9.0
5,22.609000205993652,learn,60000.0,Tue Nov 12 2024 10:17:14 GMT-0600 (Central Standard Time),653500.0,A,lat,O,t,235,1,700.4000000953674,652799.5999999046,7032,WL,C,9.0
5,22.759000062942505,learn,60000.0,Tue Nov 12 2024 10:17:14 GMT-0600 (Central Standard Time),653650.0999999046,A,latt,O,t,113,1,850.5,652799.5999999046,7032,WL,C,9.0
5,22.859000205993652,learn,60000.0,Tue Nov 12 2024 10:17:14 GMT-0600 (Central Standard Time),653749.5999999046,A,latte,O,e,73,1,950.0,652799.5999999046,7032,WL,C,9.0
5,23.076000213623047,learn,60000.0,Tue Nov 12 2024 10:17:14 GMT-0600 (Central Standard Time),653966.7000000477,A,latter,O,r,183,1,1167.1000001430511,652799.5999999046,7032,WL,C,9.0
5,23.859000205993652,learn,60000.0,Tue Nov 12 2024 10:17:14 GMT-0600 (Central Standard Time),654749.5,A,latte,O,backspace,758,1,1949.9000000953674,652799.5999999046,7032,WL,C,9.0
5,24.04200005531311,learn,60000.0,Tue Nov 12 2024 10:17:14 GMT-0600 (Central Standard Time),654932.7999999523,A,latt,O,backspace,160,1,2133.2000000476837,652799.5999999046,7032,WL,C,9.0
5,24.20900011062622,learn,60000.0,Tue Nov 12 2024 10:17:14 GMT-0600 (Central Standard Time),655099.7000000477,A,lat,O,backspace,125,1,2300.100000143051,652799.5999999046,7032,WL,C,9.0
5,24.342000007629395,learn,60000.0,Tue Nov 12 2024 10:17:14 GMT-0600 (Central Standard Time),655233.0,A,la,O,backspace,109,1,2433.4000000953674,652799.5999999046,7032,WL,C,9.0
5,24.492000102996826,learn,60000.0,Tue Nov 12 2024 10:17:14 GMT-0600 (Central Standard Time),655382.5999999046,A,l,O,backspace,116,1,2583.0,652799.5999999046,7032,WL,C,9.0
5,25.175000190734863,learn,60000.0,Tue Nov 12 2024 10:17:14 GMT-0600 (Central Standard Time),656065.9000000954,A,le,O,e,653,1,3266.300000190735,652799.5999999046,7032,WL,C,9.0
5,25.392000198364258,learn,60000.0,Tue Nov 12 2024 10:17:14 GMT-0600 (Central Standard Time),656282.4000000954,A,let,O,t,187,1,3482.800000190735,652799.5999999046,7032,WL,C,9.0
5,25.54300022125244,learn,60000.0,Tue Nov 12 2024 10:17:14 GMT-0600 (Central Standard Time),656432.2000000477,A,lett,O,t,123,1,3632.600000143051,652799.5999999046,7032,WL,C,9.0
5,25.693000078201294,learn,60000.0,Tue Nov 12 2024 10:17:14 GMT-0600 (Central Standard Time),656582.2000000477,A,lette,O,e,123,1,3782.600000143051,652799.5999999046,7032,WL,C,9.0
5,25.826000213623047,learn,60000.0,Tue Nov 12 2024 10:17:14 GMT-0600 (Central Standard Time),656715.7000000477,A,letter,O,r,113,1,3916.100000143051,652799.5999999046,7032,WL,C,9.0
5,27.591000080108643,learn,60000.0,Tue Nov 12 2024 10:17:14 GMT-0600 (Central Standard Time),658480.9000000954,A,letterenter,O,enter,1729,1,5681.300000190735,652799.5999999046,7032,WL,C,9.0
5,28.092000007629395,learn,60000.0,Tue Nov 12 2024 10:17:14 GMT-0600 (Central Standard Time),658981.7000000477,A,f,O,f,485,1,500.5,658481.2000000477,7032,WL,C,10.0
5,28.342000007629395,learn,60000.0,Tue Nov 12 2024 10:17:14 GMT-0600 (Central Standard Time),659231.5,A,fl,O,l,214,1,750.2999999523163,658481.2000000477,7032,WL,C,10.0
5,28.492000102996826,learn,60000.0,Tue Nov 12 2024 10:17:14 GMT-0600 (Central Standard Time),659381.7000000477,A,fla,O,a,125,1,900.5,658481.2000000477,7032,WL,C,10.0
5,28.892000198364258,learn,60000.0,Tue Nov 12 2024 10:17:14 GMT-0600 (Central Standard Time),659781.2000000477,A,flag,O,g,374,1,1300.0,658481.2000000477,7032,WL,C,10.0
5,29.707000017166138,learn,60000.0,Tue Nov 12 2024 10:17:14 GMT-0600 (Central Standard Time),660596.7999999523,A,flagenter,O,enter,796,1,2115.5999999046326,658481.2000000477,7032,WL,C,10.0
5,30.040000200271606,learn,60000.0,Tue Nov 12 2024 10:17:14 GMT-0600 (Central Standard Time),660929.9000000954,A,c,O,c,312,1,332.90000009536743,660597.0,7032,WL,C,11.0
5,30.27500009536743,learn,60000.0,Tue Nov 12 2024 10:17:14 GMT-0600 (Central Standard Time),661164.5999999046,A,co,O,o,212,1,567.5999999046326,660597.0,7032,WL,C,11.0
5,30.425000190734863,learn,60000.0,Tue Nov 12 2024 10:17:14 GMT-0600 (Central Standard Time),661314.2000000477,A,cor,O,r,111,1,717.2000000476837,660597.0,7032,WL,C,11.0
5,30.69100022315979,learn,60000.0,Tue Nov 12 2024 10:17:14 GMT-0600 (Central Standard Time),661581.0,A,corn,O,n,242,1,984.0,660597.0,7032,WL,C,11.0
5,32.140000104904175,learn,60000.0,Tue Nov 12 2024 10:17:14 GMT-0600 (Central Standard Time),663029.2999999523,A,cornenter,O,enter,1428,1,2432.2999999523163,660597.0,7032,WL,C,11.0
5,32.69100022315979,learn,60000.0,Tue Nov 12 2024 10:17:14 GMT-0600 (Central Standard Time),663580.5,A,n,O,n,529,1,551.0,663029.5,7032,WL,C,12.0
5,32.890000104904175,learn,60000.0,Tue Nov 12 2024 10:17:14 GMT-0600 (Central Standard Time),663780.0,A,na,O,a,160,1,750.5,663029.5,7032,WL,C,12.0
5,33.34100008010864,learn,60000.0,Tue Nov 12 2024 10:17:14 GMT-0600 (Central Standard Time),664230.2000000477,A,nai,O,i,417,1,1200.7000000476837,663029.5,7032,WL,C,12.0
5,33.60700011253357,learn,60000.0,Tue Nov 12 2024 10:17:14 GMT-0600 (Central Standard Time),664496.5,A,nail,O,l,229,1,1467.0,663029.5,7032,WL,C,12.0
5,34.63900017738342,learn,60000.0,Tue Nov 12 2024 10:17:14 GMT-0600 (Central Standard Time),665528.5,A,nailenter,O,enter,1003,1,2499.0,663029.5,7032,WL,C,12.0
5,35.040000200271606,learn,60000.0,Tue Nov 12 2024 10:17:14 GMT-0600 (Central Standard Time),665929.2000000477,A,c,O,c,390,1,400.40000009536743,665528.7999999523,7032,WL,C,13.0
5,35.35600018501282,learn,60000.0,Tue Nov 12 2024 10:17:14 GMT-0600 (Central Standard Time),666245.9000000954,A,ca,O,a,287,1,717.1000001430511,665528.7999999523,7032,WL,C,13.0
5,35.67300009727478,learn,60000.0,Tue Nov 12 2024 10:17:14 GMT-0600 (Central Standard Time),666562.5999999046,A,cat,O,t,276,1,1033.7999999523163,665528.7999999523,7032,WL,C,13.0
5,35.805999994277954,learn,60000.0,Tue Nov 12 2024 10:17:14 GMT-0600 (Central Standard Time),666695.7999999523,A,catt,O,t,106,1,1167.0,665528.7999999523,7032,WL,C,13.0
5,36.00600004196167,learn,60000.0,Tue Nov 12 2024 10:17:14 GMT-0600 (Central Standard Time),666895.7000000477,A,cattl,O,l,171,1,1366.9000000953674,665528.7999999523,7032,WL,C,13.0
5,36.32300019264221,learn,60000.0,Tue Nov 12 2024 10:17:14 GMT-0600 (Central Standard Time),667212.2999999523,A,cattle,O,e,283,1,1683.5,665528.7999999523,7032,WL,C,13.0
5,37.13800001144409,learn,60000.0,Tue Nov 12 2024 10:17:14 GMT-0600 (Central Standard Time),668027.7000000477,A,cattleenter,O,enter,783,1,2498.9000000953674,665528.7999999523,7032,WL,C,13.0
5,37.42200016975403,learn,60000.0,Tue Nov 12 2024 10:17:14 GMT-0600 (Central Standard Time),668311.9000000954,A,s,O,s,267,1,284.0,668027.9000000954,7032,WL,C,14.0
5,37.605000019073486,learn,60000.0,Tue Nov 12 2024 10:17:14 GMT-0600 (Central Standard Time),668495.0999999046,A,sh,O,h,149,1,467.19999980926514,668027.9000000954,7032,WL,C,14.0
5,37.82200002670288,learn,60000.0,Tue Nov 12 2024 10:17:14 GMT-0600 (Central Standard Time),668711.7000000477,A,sho,O,o,189,1,683.7999999523163,668027.9000000954,7032,WL,C,14.0
5,38.039000034332275,learn,60000.0,Tue Nov 12 2024 10:17:14 GMT-0600 (Central Standard Time),668928.2999999523,A,shor,O,r,189,1,900.3999998569489,668027.9000000954,7032,WL,C,14.0
5,38.15500020980835,learn,60000.0,Tue Nov 12 2024 10:17:14 GMT-0600 (Central Standard Time),669044.9000000954,A,shore,O,e,87,1,1017.0,668027.9000000954,7032,WL,C,14.0
5,38.67200016975403,learn,60000.0,Tue Nov 12 2024 10:17:14 GMT-0600 (Central Standard Time),669561.7000000477,A,shoreenter,O,enter,480,1,1533.7999999523163,668027.9000000954,7032,WL,C,14.0
5,39.73800015449524,learn,60000.0,Tue Nov 12 2024 10:17:14 GMT-0600 (Central Standard Time),670628.0,A,b,O,b,1053,1,1066.0999999046326,669561.9000000954,7032,WL,C,15.0
5,40.188000202178955,learn,60000.0,Tue Nov 12 2024 10:17:14 GMT-0600 (Central Standard Time),671077.4000000954,A,bo,O,o,424,1,1515.5,669561.9000000954,7032,WL,C,15.0
5,40.58800005912781,learn,60000.0,Tue Nov 12 2024 10:17:14 GMT-0600 (Central Standard Time),671477.4000000954,A,bod,O,d,375,1,1915.5,669561.9000000954,7032,WL,C,15.0
5,40.7039999961853,learn,60000.0,Tue Nov 12 2024 10:17:14 GMT-0600 (Central Standard Time),671594.0,A,body,O,y,90,1,2032.0999999046326,669561.9000000954,7032,WL,C,15.0
5,41.354000091552734,learn,60000.0,Tue Nov 12 2024 10:17:14 GMT-0600 (Central Standard Time),672243.2000000477,A,bodyenter,O,enter,626,1,2681.2999999523163,669561.9000000954,7032,WL,C,15.0
6,2.4650001525878906,distr,57534.99984741211,Tue Nov 12 2024 10:17:14 GMT-0600 (Central Standard Time),760780.7000000477,B,s,O,s,2441,1,2464.9000000953674,758315.7999999523,7032,WL,C,1.0
6,2.8329999446868896,distr,57167.00005531311,Tue Nov 12 2024 10:17:14 GMT-0600 (Central Standard Time),761148.2000000477,B,sk,O,k,345,1,2832.4000000953674,758315.7999999523,7032,WL,C,1.0
6,3.299999952316284,distr,56700.000047683716,Tue Nov 12 2024 10:17:14 GMT-0600 (Central Standard Time),761615.0999999046,B,sky,O,y,443,1,3299.2999999523163,758315.7999999523,7032,WL,C,1.0
6,4.230999946594238,distr,55769.00005340576,Tue Nov 12 2024 10:17:14 GMT-0600 (Central Standard Time),762546.5,B,skyenter,O,enter,893,1,4230.700000047684,758315.7999999523,7032,WL,C,1.0
6,4.64900016784668,distr,55350.99983215332,Tue Nov 12 2024 10:17:14 GMT-0600 (Central Standard Time),762964.7000000477,B,m,O,m,412,1,417.90000009536743,762546.7999999523,7032,WL,C,2.0
6,4.8480000495910645,distr,55151.999950408936,Tue Nov 12 2024 10:17:14 GMT-0600 (Central Standard Time),763164.0,B,mo,O,o,158,1,617.2000000476837,762546.7999999523,7032,WL,C,2.0
6,5.049000024795532,distr,54950.99997520447,Tue Nov 12 2024 10:17:14 GMT-0600 (Central Standard Time),763364.0999999046,B,mon,O,n,161,1,817.2999999523163,762546.7999999523,7032,WL,C,2.0
6,5.315000057220459,distr,54684.99994277954,Tue Nov 12 2024 10:17:14 GMT-0600 (Central Standard Time),763630.5999999046,B,mone,O,e,233,1,1083.7999999523163,762546.7999999523,7032,WL,C,2.0
6,5.498000144958496,distr,54501.999855041504,Tue Nov 12 2024 10:17:14 GMT-0600 (Central Standard Time),763813.9000000954,B,money,O,y,150,1,1267.1000001430511,762546.7999999523,7032,WL,C,2.0
6,6.014000177383423,distr,53985.99982261658,Tue Nov 12 2024 10:17:14 GMT-0600 (Central Standard Time),764329.4000000954,B,moneyenter,O,enter,486,1,1782.6000001430511,762546.7999999523,7032,WL,C,2.0
6,6.480999946594238,distr,53519.00005340576,Tue Nov 12 2024 10:17:14 GMT-0600 (Central Standard Time),764796.9000000954,B,v,O,v,445,1,467.30000019073486,764329.5999999046,7032,WL,C,3.0
6,6.71399998664856,distr,53286.00001335144,Tue Nov 12 2024 10:17:14 GMT-0600 (Central Standard Time),765030.0,B,va,O,a,199,1,700.4000000953674,764329.5999999046,7032,WL,C,3.0
6,7.114000082015991,distr,52885.99991798401,Tue Nov 12 2024 10:17:14 GMT-0600 (Central Standard Time),765429.7999999523,B,val,O,l,374,1,1100.2000000476837,764329.5999999046,7032,WL,C,3.0
6,7.265000104904175,distr,52734.999895095825,Tue Nov 12 2024 10:17:14 GMT-0600 (Central Standard Time),765580.0,B,vall,O,l,118,1,1250.4000000953674,764329.5999999046,7032,WL,C,3.0
6,7.531000137329102,distr,52468.9998626709,Tue Nov 12 2024 10:17:14 GMT-0600 (Central Standard Time),765846.4000000954,B,valle,O,e,232,1,1516.8000001907349,764329.5999999046,7032,WL,C,3.0
6,7.898000001907349,distr,52101.99999809265,Tue Nov 12 2024 10:17:14 GMT-0600 (Central Standard Time),766213.2000000477,B,valley,O,y,335,1,1883.6000001430511,764329.5999999046,7032,WL,C,3.0
6,8.663000106811523,distr,51336.99989318848,Tue Nov 12 2024 10:17:14 GMT-0600 (Central Standard Time),766978.4000000954,B,valleyenter,O,enter,726,1,2648.800000190735,764329.5999999046,7032,WL,C,3.0
6,9.080000162124634,distr,50919.999837875366,Tue Nov 12 2024 10:17:14 GMT-0600 (Central Standard Time),767396.0,B,b,O,b,396,1,417.40000009536743,766978.5999999046,7032,WL,C,4.0
6,9.314000129699707,distr,50685.99987030029,Tue Nov 12 2024 10:17:14 GMT-0600 (Central Standard Time),767629.2000000477,B,bu,O,u,201,1,650.6000001430511,766978.5999999046,7032,WL,C,4.0
6,9.630000114440918,distr,50369.99988555908,Tue Nov 12 2024 10:17:14 GMT-0600 (Central Standard Time),767945.7999999523,B,but,O,t,287,1,967.2000000476837,766978.5999999046,7032,WL,C,4.0
6,9.77999997138977,distr,50220.00002861023,Tue Nov 12 2024 10:17:14 GMT-0600 (Central Standard Time),768095.7000000477,B,butt,O,t,115,1,1117.1000001430511,766978.5999999046,7032,WL,C,4.0
6,9.980000019073486,distr,50019.999980926514,Tue Nov 12 2024 10:17:14 GMT-0600 (Central Standard Time),768295.7000000477,B,butte,O,e,172,1,1317.1000001430511,766978.5999999046,7032,WL,C,4.0
6,10.11300015449524,distr,49886.99984550476,Tue Nov 12 2024 10:17:14 GMT-0600 (Central Standard Time),768428.0999999046,B,butter,O,r,102,1,1449.5,766978.5999999046,7032,WL,C,4.0
6,10.712000131607056,distr,49287.999868392944,Tue Nov 12 2024 10:17:14 GMT-0600 (Central Standard Time),769027.7999999523,B,butterenter,O,enter,586,1,2049.2000000476837,766978.5999999046,7032,WL,C,4.0
6,11.246999979019165,distr,48753.000020980835,Tue Nov 12 2024 10:17:14 GMT-0600 (Central Standard Time),769562.0,B,h,O,h,515,1,534.0999999046326,769027.9000000954,7032,WL,C,5.0
6,11.463000059127808,distr,48536.99994087219,Tue Nov 12 2024 10:17:14 GMT-0600 (Central Standard Time),769778.5999999046,B,ha,O,a,185,1,750.6999998092651,769027.9000000954,7032,WL,C,5.0
6,11.878999948501587,distr,48121.00005149841,Tue Nov 12 2024 10:17:14 GMT-0600 (Central Standard Time),770194.9000000954,B,hal,O,l,376,1,1167.0,769027.9000000954,7032,WL,C,5.0
6,12.02999997138977,distr,47970.00002861023,Tue Nov 12 2024 10:17:14 GMT-0600 (Central Standard Time),770345.0999999046,B,hall,O,l,119,1,1317.1999998092651,769027.9000000954,7032,WL,C,5.0
6,12.528000116348267,distr,47471.99988365173,Tue Nov 12 2024 10:17:14 GMT-0600 (Central Standard Time),770843.9000000954,B,hallenter,O,enter,473,1,1816.0,769027.9000000954,7032,WL,C,5.0
6,13.296000003814697,distr,46703.9999961853,Tue Nov 12 2024 10:17:14 GMT-0600 (Central Standard Time),771611.2999999523,B,d,O,d,754,1,767.2000000476837,770844.0999999046,7032,WL,C,6.0
6,13.578999996185303,distr,46421.0000038147,Tue Nov 12 2024 10:17:14 GMT-0600 (Central Standard Time),771894.5,B,di,O,i,247,1,1050.4000000953674,770844.0999999046,7032,WL,C,6.0
6,13.696000099182129,distr,46303.99990081787,Tue Nov 12 2024 10:17:14 GMT-0600 (Central Standard Time),772011.4000000954,B,dia,O,a,85,1,1167.3000001907349,770844.0999999046,7032,WL,C,6.0
6,13.92900013923645,distr,46070.99986076355,Tue Nov 12 2024 10:17:14 GMT-0600 (Central Standard Time),772244.7000000477,B,diam,O,m,212,1,1400.6000001430511,770844.0999999046,7032,WL,C,6.0
6,14.161999940872192,distr,45838.00005912781,Tue Nov 12 2024 10:17:14 GMT-0600 (Central Standard Time),772477.5999999046,B,diamo,O,o,200,1,1633.5,770844.0999999046,7032,WL,C,6.0
6,14.394999980926514,distr,45605.000019073486,Tue Nov 12 2024 10:17:14 GMT-0600 (Central Standard Time),772710.9000000954,B,diamon,O,n,208,1,1866.8000001907349,770844.0999999046,7032,WL,C,6.0
6,14.995000123977661,distr,45004.99987602234,Tue Nov 12 2024 10:17:14 GMT-0600 (Central Standard Time),773310.7999999523,B,diamond,O,d,564,1,2466.7000000476837,770844.0999999046,7032,WL,C,6.0
6,16.14400005340576,distr,43855.99994659424,Tue Nov 12 2024 10:17:14 GMT-0600 (Central Standard Time),774459.4000000954,B,diamondenter,O,enter,1115,1,3615.300000190735,770844.0999999046,7032,WL,C,6.0
6,16.561000108718872,distr,43438.99989128113,Tue Nov 12 2024 10:17:14 GMT-0600 (Central Standard Time),774877.0,B,m,O,m,403,1,417.40000009536743,774459.5999999046,7032,WL,C,7.0
6,16.74500012397766,distr,43254.99987602234,Tue Nov 12 2024 10:17:14 GMT-0600 (Central Standard Time),775060.0999999046,B,mo,O,o,144,1,600.5,774459.5999999046,7032,WL,C,7.0
6,17.061000108718872,distr,42938.99989128113,Tue Nov 12 2024 10:17:14 GMT-0600 (Central Standard Time),775376.7000000477,B,mot,O,t,287,1,917.1000001430511,774459.5999999046,7032,WL,C,7.0
6,17.32800006866455,distr,42671.99993133545,Tue Nov 12 2024 10:17:14 GMT-0600 (Central Standard Time),775643.0,B,moth,O,h,235,1,1183.4000000953674,774459.5999999046,7032,WL,C,7.0
6,17.561000108718872,distr,42438.99989128113,Tue Nov 12 2024 10:17:14 GMT-0600 (Central Standard Time),775876.5999999046,B,mothe,O,e,188,1,1417.0,774459.5999999046,7032,WL,C,7.0
6,17.710999965667725,distr,42289.000034332275,Tue Nov 12 2024 10:17:14 GMT-0600 (Central Standard Time),776026.4000000954,B,mother,O,r,111,1,1566.8000001907349,774459.5999999046,7032,WL,C,7.0
6,18.694000005722046,distr,41305.999994277954,Tue Nov 12 2024 10:17:14 GMT-0600 (Central Standard Time),777008.5999999046,B,motherenter,O,enter,944,1,2549.0,774459.5999999046,7032,WL,C,7.0
6,19.07800006866455,distr,40921.99993133545,Tue Nov 12 2024 10:17:14 GMT-0600 (Central Standard Time),777392.5999999046,B,c,O,c,374,1,383.7999999523163,777008.7999999523,7032,WL,C,8.0
6,19.312000036239624,distr,40687.999963760376,Tue Nov 12 2024 10:17:14 GMT-0600 (Central Standard Time),777626.0,B,ch,O,h,196,1,617.2000000476837,777008.7999999523,7032,WL,C,8.0
6,19.5770001411438,distr,40422.9998588562,Tue Nov 12 2024 10:17:14 GMT-0600 (Central Standard Time),777891.7000000477,B,chr,O,r,239,1,882.9000000953674,777008.7999999523,7032,WL,C,8.0
6,19.811000108718872,distr,40188.99989128113,Tue Nov 12 2024 10:17:14 GMT-0600 (Central Standard Time),778125.5999999046,B,chri,O,i,219,1,1116.7999999523163,777008.7999999523,7032,WL,C,8.0
6,20.045000076293945,distr,39954.999923706055,Tue Nov 12 2024 10:17:14 GMT-0600 (Central Standard Time),778358.9000000954,B,chris,O,s,200,1,1350.1000001430511,777008.7999999523,7032,WL,C,8.0
6,20.261000156402588,distr,39738.99984359741,Tue Nov 12 2024 10:17:14 GMT-0600 (Central Standard Time),778575.7999999523,B,christ,O,t,181,1,1567.0,777008.7999999523,7032,WL,C,8.0
6,20.611000061035156,distr,39388.999938964844,Tue Nov 12 2024 10:17:14 GMT-0600 (Central Standard Time),778925.0999999046,B,christm,O,m,325,1,1916.2999999523163,777008.7999999523,7032,WL,C,8.0
6,20.761000156402588,distr,39238.99984359741,Tue Nov 12 2024 10:17:14 GMT-0600 (Central Standard Time),779075.0999999046,B,christma,O,a,119,1,2066.2999999523163,777008.7999999523,7032,WL,C,8.0
6,21.927000045776367,distr,38072.99995422363,Tue Nov 12 2024 10:17:14 GMT-0600 (Central Standard Time),780241.9000000954,B,christmas,O,s,1136,1,3233.100000143051,777008.7999999523,7032,WL,C,8.0
6,24.325999975204468,distr,35674.00002479553,Tue Nov 12 2024 10:17:14 GMT-0600 (Central Standard Time),782640.0999999046,B,christmasenter,O,enter,2361,1,5631.299999952316,777008.7999999523,7032,WL,C,8.0
6,26.4760000705719,distr,33523.9999294281,Tue Nov 12 2024 10:17:14 GMT-0600 (Central Standard Time),784790.2000000477,B,m,O,m,2134,1,2149.7999999523163,782640.4000000954,7032,WL,C,9.0
6,26.62600016593933,distr,33373.99983406067,Tue Nov 12 2024 10:17:14 GMT-0600 (Central Standard Time),784940.2999999523,B,me,O,e,110,1,2299.899999856949,782640.4000000954,7032,WL,C,9.0
6,26.926000118255615,distr,33073.999881744385,Tue Nov 12 2024 10:17:14 GMT-0600 (Central Standard Time),785240.0999999046,B,mea,O,a,276,1,2599.699999809265,782640.4000000954,7032,WL,C,9.0
6,27.442000150680542,distr,32557.999849319458,Tue Nov 12 2024 10:17:14 GMT-0600 (Central Standard Time),785756.5,B,meat,O,t,488,1,3116.0999999046326,782640.4000000954,7032,WL,C,9.0
6,28.05900001525879,distr,31940.99998474121,Tue Nov 12 2024 10:17:14 GMT-0600 (Central Standard Time),786373.2000000477,B,meatenter,O,enter,583,1,3732.7999999523163,782640.4000000954,7032,WL,C,9.0
6,28.35800004005432,distr,31641.99995994568,Tue Nov 12 2024 10:17:14 GMT-0600 (Central Standard Time),786672.9000000954,B,f,O,f,281,1,299.40000009536743,786373.5,7032,WL,C,10.0
6,28.575000047683716,distr,31424.999952316284,Tue Nov 12 2024 10:17:14 GMT-0600 (Central Standard Time),786889.5,B,fo,O,o,187,1,516.0,786373.5,7032,WL,C,10.0
6,28.725000143051147,distr,31274.999856948853,Tue Nov 12 2024 10:17:14 GMT-0600 (Central Standard Time),787039.4000000954,B,for,O,r,122,1,665.9000000953674,786373.5,7032,WL,C,10.0
6,28.924999952316284,distr,31075.000047683716,Tue Nov 12 2024 10:17:14 GMT-0600 (Central Standard Time),787239.2999999523,B,fore,O,e,172,1,865.7999999523163,786373.5,7032,WL,C,10.0
6,29.157999992370605,distr,30842.000007629395,Tue Nov 12 2024 10:17:14 GMT-0600 (Central Standard Time),787472.5,B,fores,O,s,197,1,1099.0,786373.5,7032,WL,C,10.0
6,29.407999992370605,distr,30592.000007629395,Tue Nov 12 2024 10:17:14 GMT-0600 (Central Standard Time),787722.5,B,forest,O,t,214,1,1349.0,786373.5,7032,WL,C,10.0
6,31.407000064849854,distr,28592.999935150146,Tue Nov 12 2024 10:17:14 GMT-0600 (Central Standard Time),789720.9000000954,B,forestenter,O,enter,1960,1,3347.4000000953674,786373.5,7032,WL,C,10.0
6,31.72699999809265,distr,28273.00000190735,Tue Nov 12 2024 10:17:14 GMT-0600 (Central Standard Time),790041.9000000954,B,t,O,t,315,1,320.7000000476837,789721.2000000477,7032,WL,C,11.0
6,32.074000120162964,distr,27925.999879837036,Tue Nov 12 2024 10:17:14 GMT-0600 (Central Standard Time),790388.7999999523,B,to,O,o,323,1,667.5999999046326,789721.2000000477,7032,WL,C,11.0
6,32.241000175476074,distr,27758.999824523926,Tue Nov 12 2024 10:17:14 GMT-0600 (Central Standard Time),790555.0,B,too,O,o,142,1,833.7999999523163,789721.2000000477,7032,WL,C,11.0
6,32.491000175476074,distr,27508.999824523926,Tue Nov 12 2024 10:17:14 GMT-0600 (Central Standard Time),790804.9000000954,B,tool,O,l,225,1,1083.7000000476837,789721.2000000477,7032,WL,C,11.0
6,34.539000034332275,distr,25460.999965667725,Tue Nov 12 2024 10:17:14 GMT-0600 (Central Standard Time),792853.2999999523,B,toolenter,O,enter,2015,1,3132.0999999046326,789721.2000000477,7032,WL,C,11.0
6,37.789000034332275,distr,22210.999965667725,Tue Nov 12 2024 10:17:14 GMT-0600 (Central Standard Time),796103.2999999523,B,h,O,h,3241,1,3249.7999999523163,792853.5,7032,WL,C,12.0
6,38.00600004196167,distr,21993.99995803833,Tue Nov 12 2024 10:17:14 GMT-0600 (Central Standard Time),796320.4000000954,B,ho,O,o,187,1,3466.9000000953674,792853.5,7032,WL,C,12.0
6,38.289000034332275,distr,21710.999965667725,Tue Nov 12 2024 10:17:14 GMT-0600 (Central Standard Time),796603.0,B,hot,O,t,244,1,3749.5,792853.5,7032,WL,C,12.0
6,38.50500011444092,distr,21494.999885559082,Tue Nov 12 2024 10:17:14 GMT-0600 (Central Standard Time),796819.5,B,hote,O,e,186,1,3966.0,792853.5,7032,WL,C,12.0
6,38.871999979019165,distr,21128.000020980835,Tue Nov 12 2024 10:17:14 GMT-0600 (Central Standard Time),797186.2000000477,B,hotel,O,l,329,1,4332.700000047684,792853.5,7032,WL,C,12.0
6,42.519999980926514,distr,17480.000019073486,Tue Nov 12 2024 10:17:14 GMT-0600 (Central Standard Time),800834.0,B,hotelenter,O,enter,3610,1,7980.5,792853.5,7032,WL,C,12.0
6,43.38700008392334,distr,16612.99991607666,Tue Nov 12 2024 10:17:14 GMT-0600 (Central Standard Time),801701.2999999523,B,m,O,m,852,1,866.8999998569489,800834.4000000954,7032,WL,C,13.0
6,43.57000017166138,distr,16429.999828338623,Tue Nov 12 2024 10:17:14 GMT-0600 (Central Standard Time),801884.7999999523,B,mo,O,o,150,1,1050.3999998569489,800834.4000000954,7032,WL,C,13.0
6,43.769999980926514,distr,16230.000019073486,Tue Nov 12 2024 10:17:14 GMT-0600 (Central Standard Time),802084.7000000477,B,mon,O,n,161,1,1250.2999999523163,800834.4000000954,7032,WL,C,13.0
6,44.16900014877319,distr,15830.999851226807,Tue Nov 12 2024 10:17:14 GMT-0600 (Central Standard Time),802483.4000000954,B,mone,O,e,374,1,1649.0,800834.4000000954,7032,WL,C,13.0
6,44.503000020980835,distr,15496.999979019165,Tue Nov 12 2024 10:17:14 GMT-0600 (Central Standard Time),802817.7999999523,B,money,O,y,322,1,1983.3999998569489,800834.4000000954,7032,WL,C,13.0
6,46.43499994277954,distr,13565.000057220459,Tue Nov 12 2024 10:17:14 GMT-0600 (Central Standard Time),804749.5,B,moneyenter,O,enter,1906,1,3915.0999999046326,800834.4000000954,7032,WL,C,13.0
6,52.91600012779236,distr,7083.999872207642,Tue Nov 12 2024 10:17:14 GMT-0600 (Central Standard Time),811230.5999999046,B,enter,O,enter,6472,1,6480.899999856949,804749.7000000477,7032,WL,C,14.0
6,53.83299994468689,distr,6167.00005531311,Tue Nov 12 2024 10:17:14 GMT-0600 (Central Standard Time),812146.9000000954,B,enter,O,enter,903,1,916.0,811230.9000000954,7032,WL,C,15.0
