acc_sum,block,block_c,condition,correct,correct_response,datetime,endtime,flanker,jitter,project,response,response_test_buffer_response,response_test_target_response,response_time,response_time_test_buffer_response,response_time_test_target_response,row_sel,session_number,start_end,starttime,subject_id,target,task,task_vers,time_test_buffer,time_test_buffer_response,time_test_constants,time_test_flanker,time_test_jitter,time_test_logger,time_test_target,time_test_target_response,time_test_variables,trial
1,prac,1,con,1,z,Wed Oct 02 2024 11:35:18 GMT-0500 (Central Daylight Time),86825.80000007153,love,1000,O,z,,,840,,,11,1,3142.9000000953674,83682.89999997616,7023,love,AF,A,,,,,,,,,,1
2,prac,1,con,1,m,Wed Oct 02 2024 11:35:18 GMT-0500 (Central Daylight Time),89641.10000002384,step,800,O,m,,,685,,,1,1,2791.600000023842,86849.5,7023,step,AF,A,,,,,,,,,,2
3,prac,1,inc,1,z,Wed Oct 02 2024 11:35:18 GMT-0500 (Central Daylight Time),93023.0,film,900,O,z,,,1161,,,14,1,3359.1999999284744,89663.80000007153,7023,hate,AF,A,,,,,,,,,,3
4,prac,1,con,1,m,Wed Oct 02 2024 11:35:18 GMT-0500 (Central Daylight Time),95772.10000002384,jacket,800,O,m,,,630,,,5,1,2726.7999999523163,93045.30000007153,7023,jacket,AF,A,,,,,,,,,,4
5,prac,1,con,1,m,Wed Oct 02 2024 11:35:18 GMT-0500 (Central Daylight Time),98903.80000007153,remote,1000,O,m,,,801,,,7,1,3109.4000000953674,95794.39999997616,7023,remote,AF,A,,,,,,,,,,5
6,prac,1,con,1,z,Wed Oct 02 2024 11:35:18 GMT-0500 (Central Daylight Time),101753.30000007153,elated,800,O,z,,,740,,,9,1,2843.4000000953674,98909.89999997616,7023,elated,AF,A,,,,,,,,,,6
7,prac,1,inc,1,z,Wed Oct 02 2024 11:35:18 GMT-0500 (Central Daylight Time),105187.5,window,1100,O,z,,,1008,,,16,1,3418.600000023842,101768.89999997616,7023,temper,AF,A,,,,,,,,,,7
8,prac,1,inc,1,m,Wed Oct 02 2024 11:35:18 GMT-0500 (Central Daylight Time),108051.60000002384,elated,900,O,m,,,664,,,6,1,2855.600000023842,105196.0,7023,napkin,AF,A,,,,,,,,,,8
9,prac,1,con,1,z,Wed Oct 02 2024 11:35:18 GMT-0500 (Central Daylight Time),110749.89999997616,brutal,800,O,z,,,570,,,13,1,2676.5,108073.39999997616,7023,brutal,AF,A,,,,,,,,,,9
10,prac,1,inc,1,z,Wed Oct 02 2024 11:35:18 GMT-0500 (Central Daylight Time),114016.10000002384,napkin,1100,O,z,,,859,,,12,1,3258.899999976158,110757.20000004768,7023,friend,AF,A,,,,,,,,,,10
11,prac,1,inc,1,m,Wed Oct 02 2024 11:35:18 GMT-0500 (Central Daylight Time),116915.30000007153,kind,900,O,m,,,674,,,2,1,2879.4000000953674,114035.89999997616,7023,rock,AF,A,,,,,,,,,,11
12,prac,1,inc,1,m,Wed Oct 02 2024 11:35:18 GMT-0500 (Central Daylight Time),120347.5,hate,1100,O,m,,,1014,,,4,1,3411.600000023842,116935.89999997616,7023,film,AF,A,,,,,,,,,,12
13,prac,1,con,1,m,Wed Oct 02 2024 11:35:18 GMT-0500 (Central Daylight Time),123546.39999997616,bell,1000,O,m,,,875,,,3,1,3180.899999976158,120365.5,7023,bell,AF,A,,,,,,,,,,13
14,prac,1,con,1,z,Wed Oct 02 2024 11:35:18 GMT-0500 (Central Daylight Time),126545.39999997616,rage,1000,O,z,,,667,,,15,1,2978.5,123566.89999997616,7023,rage,AF,A,,,,,,,,,,14
15,prac,1,inc,1,z,Wed Oct 02 2024 11:35:18 GMT-0500 (Central Daylight Time),129527.60000002384,rock,900,O,z,,,751,,,10,1,2960.2999999523163,126567.30000007153,7023,kind,AF,A,,,,,,,,,,15
16,prac,1,inc,1,m,Wed Oct 02 2024 11:35:18 GMT-0500 (Central Daylight Time),132659.89999997616,brutal,1100,O,m,,,705,,,8,1,3114.0,129545.89999997616,7023,window,AF,A,,,,,,,,,,16
1,test,1,inc,1,m,Wed Oct 02 2024 11:35:18 GMT-0500 (Central Daylight Time),138591.39999997616,hate,1100,O,m,m,None,678,479.0,199.0,80,1,2314.0,136277.39999997616,7023,rock,AF,A,132816,132816,130984,132099,130986,133299,132616,132616,133298,1
2,test,1,inc,1,m,Wed Oct 02 2024 11:35:18 GMT-0500 (Central Daylight Time),140973.80000007153,temper,1000,O,m,m,None,832,632.0,200.0,127,1,2361.4000000953674,138612.39999997616,7023,window,AF,A,135048,135048,133319,134332,133321,135681,134848,134848,135681,2
3,test,1,con,1,z,Wed Oct 02 2024 11:35:18 GMT-0500 (Central Daylight Time),143023.0,friend,800,O,z,z,None,687,488.0,199.0,25,1,2028.5,140994.5,7023,friend,AF,A,137231,137231,135702,136514,135703,137730,137031,137031,137730,3
4,test,1,con,1,z,Wed Oct 02 2024 11:35:18 GMT-0500 (Central Daylight Time),145322.20000004768,friend,1000,O,z,z,None,742,543.0,199.0,27,1,2278.3000000715256,143043.89999997616,7023,friend,AF,A,139480,139480,137751,138764,137752,140029,139280,139280,140029,4
5,test,1,inc,1,m,Wed Oct 02 2024 11:35:18 GMT-0500 (Central Daylight Time),147521.39999997616,brutal,900,O,m,m,None,742,543.0,199.0,126,1,2177.5999999046326,145343.80000007153,7023,window,AF,A,141680,141680,140051,140963,140052,142229,141479,141480,142228,5
6,test,1,inc,1,z,Wed Oct 02 2024 11:35:18 GMT-0500 (Central Daylight Time),149904.39999997616,film,1100,O,z,z,None,719,520.0,199.0,24,1,2363.5,147540.89999997616,7023,love,AF,A,144079,144079,142248,143362,142249,144611,143879,143879,144611,6
7,test,1,con,1,z,Wed Oct 02 2024 11:35:18 GMT-0500 (Central Daylight Time),152303.39999997616,elated,1100,O,z,z,None,738,538.0,200.0,4,1,2379.399999976158,149924.0,7023,elated,AF,A,146461,146461,144631,145745,144633,147010,146261,146261,147010,7
8,test,1,con,1,z,Wed Oct 02 2024 11:35:18 GMT-0500 (Central Daylight Time),154619.39999997616,hate,1000,O,z,z,None,757,558.0,199.0,43,1,2295.899999976158,152323.5,7023,hate,AF,A,148761,148761,147031,148044,147032,149327,148561,148561,149326,8
9,test,1,con,1,z,Wed Oct 02 2024 11:35:18 GMT-0500 (Central Daylight Time),156535.10000002384,friend,900,O,z,z,None,463,263.0,200.0,26,1,1894.1000000238419,154641.0,7023,friend,AF,A,150976,150976,149348,150260,149349,151242,150776,150776,151242,9
10,test,1,con,1,m,Wed Oct 02 2024 11:35:18 GMT-0500 (Central Daylight Time),158550.89999997616,film,1000,O,m,m,None,477,278.0,199.0,91,1,2005.2999999523163,156545.60000002384,7023,film,AF,A,152976,152976,151253,152259,151253,153258,152776,152776,153258,10
11,test,1,inc,1,m,Wed Oct 02 2024 11:35:18 GMT-0500 (Central Daylight Time),160900.70000004768,temper,1000,O,m,m,None,806,607.0,199.0,111,1,2341.8000000715256,158558.89999997616,7023,napkin,AF,A,154992,154992,153266,154275,153266,155608,154792,154792,155608,11
12,test,1,con,1,z,Wed Oct 02 2024 11:35:18 GMT-0500 (Central Daylight Time),163183.10000002384,elated,900,O,z,z,None,822,622.0,200.0,2,1,2260.899999976158,160922.20000004768,7023,elated,AF,A,157257,157257,155629,156541,155630,157890,157057,157057,157890,12
13,test,1,con,1,z,Wed Oct 02 2024 11:35:18 GMT-0500 (Central Daylight Time),165382.30000007153,temper,900,O,z,z,None,747,548.0,199.0,58,1,2179.8000000715256,163202.5,7023,temper,AF,A,159539,159539,157909,158824,157911,160089,159339,159340,160089,13
14,test,1,con,1,m,Wed Oct 02 2024 11:35:18 GMT-0500 (Central Daylight Time),167531.70000004768,jacket,800,O,m,m,None,790,591.0,199.0,97,1,2128.0,165403.70000004768,7023,jacket,AF,A,161639,161640,160111,160923,160112,162239,161440,161440,162239,14
15,test,1,inc,1,z,Wed Oct 02 2024 11:35:18 GMT-0500 (Central Daylight Time),169697.80000007153,rock,900,O,z,z,None,702,503.0,199.0,46,1,2146.100000023842,167551.70000004768,7023,hate,AF,A,163888,163888,162259,163172,162260,164405,163689,163689,164405,15
16,test,1,con,1,m,Wed Oct 02 2024 11:35:18 GMT-0500 (Central Daylight Time),171713.39999997616,napkin,800,O,m,m,None,660,460.0,200.0,105,1,1996.0,169717.39999997616,7023,napkin,AF,A,165954,165954,164424,165237,164426,166420,165754,165754,166420,16
17,test,1,inc,1,m,Wed Oct 02 2024 11:35:18 GMT-0500 (Central Daylight Time),174245.80000007153,friend,1100,O,m,m,None,889,690.0,199.0,104,1,2521.8000000715256,171724.0,7023,jacket,AF,A,168253,168253,166431,167538,166432,168953,168054,168054,168953,17
18,test,1,con,1,z,Wed Oct 02 2024 11:35:18 GMT-0500 (Central Daylight Time),176395.5,elated,1000,O,z,z,None,607,408.0,199.0,3,1,2142.6999999284744,174252.80000007153,7023,elated,AF,A,170687,170687,168960,169969,168960,171103,170487,170487,171102,18
19,test,1,inc,1,z,Wed Oct 02 2024 11:35:18 GMT-0500 (Central Daylight Time),178644.89999997616,bell,1000,O,z,z,None,689,490.0,199.0,47,1,2228.5,176416.39999997616,7023,hate,AF,A,172853,172853,171123,172136,171125,173352,172653,172653,173352,19
20,test,1,inc,1,m,Wed Oct 02 2024 11:35:18 GMT-0500 (Central Daylight Time),181260.60000002384,hate,1100,O,m,m,None,948,749.0,199.0,88,1,2595.7999999523163,178664.80000007153,7023,bell,AF,A,175202,175202,173372,174485,173373,175968,175002,175002,175968,20
21,test,1,inc,1,z,Wed Oct 02 2024 11:35:18 GMT-0500 (Central Daylight Time),183459.89999997616,bell,1000,O,z,z,None,632,433.0,199.0,23,1,2179.2999999523163,181280.60000002384,7023,love,AF,A,177718,177718,175988,177001,175989,178167,177518,177518,178167,21
22,test,1,con,1,z,Wed Oct 02 2024 11:35:18 GMT-0500 (Central Daylight Time),185659.20000004768,temper,1000,O,z,z,None,642,442.0,200.0,59,1,2174.899999976158,183484.30000007153,7023,temper,AF,A,179917,179917,178191,179200,178192,180366,179716,179716,180366,22
23,test,1,inc,1,m,Wed Oct 02 2024 11:35:18 GMT-0500 (Central Daylight Time),187791.89999997616,brutal,900,O,m,m,None,670,471.0,199.0,102,1,2111.0,185680.89999997616,7023,jacket,AF,A,182016,182016,180388,181300,180389,182499,181816,181816,182499,23
24,test,1,con,1,m,Wed Oct 02 2024 11:35:18 GMT-0500 (Central Daylight Time),189941.0,film,800,O,m,m,None,789,590.0,199.0,89,1,2128.5,187812.5,7023,film,AF,A,184049,184049,182520,183332,182521,184648,183849,183849,184648,24
25,test,1,con,1,z,Wed Oct 02 2024 11:35:18 GMT-0500 (Central Daylight Time),191956.89999997616,hate,800,O,z,z,None,665,465.0,200.0,41,1,1996.0,189960.89999997616,7023,hate,AF,A,186198,186198,184668,185482,184669,186664,185998,185998,186664,25
26,test,1,con,1,z,Wed Oct 02 2024 11:35:18 GMT-0500 (Central Daylight Time),194406.39999997616,hate,1100,O,z,z,None,788,589.0,199.0,44,1,2431.0,191975.39999997616,7023,hate,AF,A,188514,188514,186682,187797,186683,189113,188314,188314,189113,26
27,test,1,con,1,m,Wed Oct 02 2024 11:35:18 GMT-0500 (Central Daylight Time),196672.20000004768,napkin,1100,O,m,m,None,604,404.0,200.0,108,1,2247.0,194425.20000004768,7023,napkin,AF,A,190963,190964,189132,190249,189133,191379,190763,190763,191379,27
28,test,1,con,1,z,Wed Oct 02 2024 11:35:18 GMT-0500 (Central Daylight Time),199154.30000007153,love,900,O,z,z,None,1017,817.0,200.0,18,1,2461.600000023842,196692.70000004768,7023,love,AF,A,193029,193029,191400,192313,191401,193861,192829,192829,193861,28
29,test,1,inc,1,m,Wed Oct 02 2024 11:35:18 GMT-0500 (Central Daylight Time),201403.89999997616,temper,1000,O,m,m,None,699,500.0,199.0,103,1,2244.5,199159.39999997616,7023,jacket,AF,A,195595,195595,193866,194879,193867,196111,195395,195395,196111,29
30,test,1,con,1,m,Wed Oct 02 2024 11:35:18 GMT-0500 (Central Daylight Time),203586.70000004768,napkin,900,O,m,m,None,725,526.0,199.0,106,1,2164.100000023842,201422.60000002384,7023,napkin,AF,A,197761,197761,196130,197045,196131,198294,197561,197561,198294,30
31,test,1,con,1,z,Wed Oct 02 2024 11:35:18 GMT-0500 (Central Daylight Time),205769.0,love,1100,O,z,z,None,518,319.0,199.0,20,1,2163.899999976158,203605.10000002384,7023,love,AF,A,200143,200144,198312,199427,198313,200476,199944,199944,200476,31
32,test,1,inc,1,m,Wed Oct 02 2024 11:35:18 GMT-0500 (Central Daylight Time),208018.5,love,1000,O,m,m,None,709,510.0,199.0,95,1,2238.1999999284744,205780.30000007153,7023,film,AF,A,202210,202210,200487,201493,200488,202726,202009,202010,202726,32
33,test,1,con,1,m,Wed Oct 02 2024 11:35:18 GMT-0500 (Central Daylight Time),210134.0,remote,1000,O,m,m,None,554,339.0,215.0,115,1,2096.7999999523163,208037.20000004768,7023,remote,AF,A,204491,204491,202744,203759,202745,204841,204276,204276,204841,33
34,test,1,inc,1,m,Wed Oct 02 2024 11:35:18 GMT-0500 (Central Daylight Time),212250.5,kind,900,O,m,m,None,675,476.0,199.0,70,1,2109.7999999523163,210140.70000004768,7023,step,AF,A,206475,206475,204848,205758,204848,206958,206275,206275,206958,34
35,test,1,con,1,m,Wed Oct 02 2024 11:35:18 GMT-0500 (Central Daylight Time),214349.89999997616,window,1000,O,m,m,None,539,324.0,215.0,123,1,2080.0,212269.89999997616,7023,window,AF,A,208723,208723,206977,207991,206978,209057,208508,208508,209057,35
36,test,1,con,1,m,Wed Oct 02 2024 11:35:18 GMT-0500 (Central Daylight Time),216282.39999997616,bell,800,O,m,m,None,567,368.0,199.0,81,1,1913.3999999761581,214369.0,7023,bell,AF,A,210607,210607,209076,209890,209077,210990,210407,210407,210989,36
37,test,1,con,1,m,Wed Oct 02 2024 11:35:18 GMT-0500 (Central Daylight Time),218415.0,remote,900,O,m,m,None,680,480.0,200.0,114,1,2113.600000023842,216301.39999997616,7023,remote,AF,A,212640,212640,211008,211923,211009,213122,212439,212439,213122,37
38,test,1,inc,1,z,Wed Oct 02 2024 11:35:18 GMT-0500 (Central Daylight Time),220564.39999997616,rock,900,O,z,z,None,690,491.0,199.0,54,1,2130.899999976158,218433.5,7023,rage,AF,A,214772,214772,213140,214056,213141,215272,214572,214572,215271,38
39,test,1,con,1,m,Wed Oct 02 2024 11:35:18 GMT-0500 (Central Daylight Time),222563.39999997616,step,800,O,m,m,None,648,449.0,199.0,65,1,1980.6999999284744,220582.70000004768,7023,step,AF,A,216821,216821,215290,216105,215291,217271,216621,216622,217270,39
40,test,1,inc,1,m,Wed Oct 02 2024 11:35:18 GMT-0500 (Central Daylight Time),224812.5,love,1000,O,m,m,None,714,515.0,199.0,71,1,2241.7999999523163,222570.70000004768,7023,step,AF,A,219004,219004,217278,218287,217278,219520,218804,218804,219520,40
41,test,1,con,1,z,Wed Oct 02 2024 11:35:18 GMT-0500 (Central Daylight Time),227111.80000007153,temper,1100,O,z,z,None,653,453.0,200.0,60,1,2289.7000000476837,224822.10000002384,7023,temper,AF,A,221353,221353,219529,220637,219530,221819,221153,221153,221819,41
42,test,1,con,1,z,Wed Oct 02 2024 11:35:18 GMT-0500 (Central Daylight Time),229128.20000004768,temper,800,O,z,z,None,678,479.0,199.0,57,1,2011.3999999761581,227116.80000007153,7023,temper,AF,A,223353,223353,221824,222636,221824,223835,223153,223153,223835,42
43,test,1,con,1,z,Wed Oct 02 2024 11:35:18 GMT-0500 (Central Daylight Time),231244.70000004768,rage,900,O,z,z,None,665,466.0,199.0,50,1,2098.399999976158,229146.30000007153,7023,rage,AF,A,225485,225485,223853,224769,223854,225952,225285,225285,225952,43
44,test,1,con,1,m,Wed Oct 02 2024 11:35:18 GMT-0500 (Central Daylight Time),233876.60000002384,window,800,O,m,m,None,1266,1066.0,200.0,121,1,2613.7999999523163,231262.80000007153,7023,window,AF,A,227501,227501,225970,226784,225971,228584,227301,227301,228584,44
45,test,1,inc,1,z,Wed Oct 02 2024 11:35:18 GMT-0500 (Central Daylight Time),235858.89999997616,step,800,O,z,z,None,626,426.0,200.0,21,1,1963.2999999523163,233895.60000002384,7023,love,AF,A,230133,230133,228603,229417,228604,230566,229933,229933,230566,45
46,test,1,inc,1,z,Wed Oct 02 2024 11:35:18 GMT-0500 (Central Daylight Time),238158.10000002384,remote,1000,O,z,z,None,755,555.0,200.0,39,1,2290.5,235867.60000002384,7023,brutal,AF,A,232299,232299,230575,231583,230575,232865,232099,232099,232865,46
47,test,1,inc,1,m,Wed Oct 02 2024 11:35:18 GMT-0500 (Central Daylight Time),240374.60000002384,brutal,900,O,m,m,None,771,557.0,214.0,118,1,2208.2999999523163,238166.30000007153,7023,remote,AF,A,234515,234515,232873,233782,232874,235082,234300,234300,235081,47
48,test,1,inc,1,m,Wed Oct 02 2024 11:35:18 GMT-0500 (Central Daylight Time),242490.70000004768,kind,900,O,m,m,None,651,451.0,200.0,78,1,2097.100000023842,240393.60000002384,7023,rock,AF,A,236732,236732,235101,236015,235102,237198,236531,236531,237198,48
49,test,1,con,1,z,Wed Oct 02 2024 11:35:18 GMT-0500 (Central Daylight Time),244573.30000007153,kind,900,O,z,z,None,622,423.0,199.0,10,1,2063.100000023842,242510.20000004768,7023,kind,AF,A,238847,238848,237217,238131,237218,239280,238648,238648,239280,49
50,test,1,con,1,m,Wed Oct 02 2024 11:35:18 GMT-0500 (Central Daylight Time),246872.20000004768,film,1100,O,m,m,None,645,446.0,199.0,92,1,2280.8000000715256,244591.39999997616,7023,film,AF,A,241130,241130,239298,240413,239299,241579,240930,240930,241579,50
51,test,1,inc,1,z,Wed Oct 02 2024 11:35:18 GMT-0500 (Central Daylight Time),249005.10000002384,step,800,O,z,z,None,773,573.0,200.0,53,1,2114.399999976158,246890.70000004768,7023,rage,AF,A,243129,243130,241598,242413,241599,243712,242929,242929,243712,51
52,test,1,con,1,m,Wed Oct 02 2024 11:35:18 GMT-0500 (Central Daylight Time),251204.20000004768,bell,1000,O,m,m,None,641,442.0,199.0,83,1,2180.899999976158,249023.30000007153,7023,bell,AF,A,245462,245462,243730,244746,243731,245911,245262,245262,245911,52
53,test,1,con,1,m,Wed Oct 02 2024 11:35:18 GMT-0500 (Central Daylight Time),253437.0,step,1000,O,m,m,None,674,474.0,200.0,67,1,2214.899999976158,251222.10000002384,7023,step,AF,A,247661,247661,245929,246945,245930,248144,247461,247461,248144,53
54,test,1,inc,1,m,Wed Oct 02 2024 11:35:18 GMT-0500 (Central Daylight Time),255469.30000007153,rage,800,O,m,m,None,680,481.0,199.0,85,1,2014.1000000238419,253455.20000004768,7023,bell,AF,A,249694,249694,248162,248977,248163,250176,249494,249494,250176,54
55,test,1,inc,1,z,Wed Oct 02 2024 11:35:18 GMT-0500 (Central Daylight Time),257535.60000002384,jacket,800,O,z,z,None,712,512.0,200.0,61,1,2047.3999999761581,255488.20000004768,7023,temper,AF,A,251727,251727,250195,251010,250196,252243,251526,251526,252242,55
56,test,1,inc,1,m,Wed Oct 02 2024 11:35:18 GMT-0500 (Central Daylight Time),259868.20000004768,temper,1000,O,m,m,None,774,574.0,200.0,119,1,2314.899999976158,257553.30000007153,7023,remote,AF,A,253993,253993,252260,253276,252261,254575,253792,253792,254575,56
57,test,1,con,1,m,Wed Oct 02 2024 11:35:18 GMT-0500 (Central Daylight Time),262000.70000004768,jacket,900,O,m,m,None,679,479.0,200.0,98,1,2112.8000000715256,259887.89999997616,7023,jacket,AF,A,256225,256225,254595,255509,254596,256708,256025,256025,256708,57
58,test,1,inc,1,m,Wed Oct 02 2024 11:35:18 GMT-0500 (Central Daylight Time),264300.10000002384,hate,1100,O,m,m,None,632,433.0,199.0,72,1,2279.899999976158,262020.20000004768,7023,step,AF,A,258558,258558,256727,257841,256729,259007,258358,258358,259007,58
59,test,1,inc,1,m,Wed Oct 02 2024 11:35:18 GMT-0500 (Central Daylight Time),266466.0,friend,1100,O,m,m,None,509,310.0,199.0,128,1,2146.5,264319.5,7023,window,AF,A,260857,260857,259027,260141,259027,261173,260657,260657,261173,59
60,test,1,con,1,m,Wed Oct 02 2024 11:35:18 GMT-0500 (Central Daylight Time),268631.89999997616,window,1100,O,m,m,None,503,304.0,199.0,124,1,2147.7999999523163,266484.10000002384,7023,window,AF,A,263023,263023,261191,262306,261192,263339,262823,262823,263339,60
61,test,1,inc,1,z,Wed Oct 02 2024 11:35:18 GMT-0500 (Central Daylight Time),270747.8000000715,napkin,900,O,z,z,None,650,450.0,200.0,30,1,2097.600000023842,268650.2000000477,7023,friend,AF,A,264989,264989,263357,264272,263358,265455,264788,264788,265455,61
62,test,1,inc,1,z,Wed Oct 02 2024 11:35:18 GMT-0500 (Central Daylight Time),273263.5,napkin,900,O,z,z,None,1062,863.0,199.0,62,1,2497.1999999284744,270766.3000000715,7023,temper,AF,A,267105,267105,265473,266388,265474,267971,266905,266905,267970,62
63,test,1,inc,1,z,Wed Oct 02 2024 11:35:18 GMT-0500 (Central Daylight Time),275213.10000002384,jacket,800,O,z,z,None,598,399.0,199.0,29,1,1931.3999999761581,273281.7000000477,7023,friend,AF,A,269521,269521,267989,268804,267990,269920,269321,269321,269920,63
64,test,1,inc,1,z,Wed Oct 02 2024 11:35:18 GMT-0500 (Central Daylight Time),277529.0,window,1100,O,z,z,None,652,453.0,199.0,64,1,2297.2999999523163,275231.7000000477,7023,temper,AF,A,271770,271770,269939,271054,269940,272236,271570,271570,272236,64
65,test,1,inc,1,m,Wed Oct 02 2024 11:35:18 GMT-0500 (Central Daylight Time),279661.7000000477,elated,800,O,m,m,None,772,573.0,199.0,109,1,2114.3000000715256,277547.39999997616,7023,napkin,AF,A,273786,273786,272254,273069,272255,274369,273586,273586,274369,65
66,test,1,inc,1,m,Wed Oct 02 2024 11:35:18 GMT-0500 (Central Daylight Time),281877.7000000477,love,1000,O,m,m,None,655,456.0,199.0,87,1,2197.0,279680.7000000477,7023,bell,AF,A,276119,276119,274388,275402,274389,276585,275919,275919,276585,66
67,test,1,inc,1,z,Wed Oct 02 2024 11:35:18 GMT-0500 (Central Daylight Time),284160.10000002384,window,1100,O,z,z,None,620,421.0,199.0,40,1,2263.5,281896.60000002384,7023,brutal,AF,A,278434,278435,276604,277718,276605,278867,278235,278235,278867,67
68,test,1,inc,1,z,Wed Oct 02 2024 11:35:18 GMT-0500 (Central Daylight Time),286509.2000000477,film,1100,O,z,z,None,697,498.0,199.0,48,1,2330.7000000476837,284178.5,7023,hate,AF,A,280717,280717,278886,280001,278887,281216,280517,280517,281216,68
69,test,1,con,1,m,Wed Oct 02 2024 11:35:18 GMT-0500 (Central Daylight Time),288774.8000000715,step,1100,O,m,m,None,612,412.0,200.0,68,1,2246.5,286528.3000000715,7023,step,AF,A,283066,283066,281235,282350,281236,283482,282866,282866,283482,69
70,test,1,inc,1,z,Wed Oct 02 2024 11:35:18 GMT-0500 (Central Daylight Time),290991.2000000477,remote,1000,O,z,z,None,678,479.0,199.0,63,1,2210.5,288780.7000000477,7023,temper,AF,A,285216,285216,283488,284499,283488,285698,285016,285016,285698,70
71,test,1,con,1,z,Wed Oct 02 2024 11:35:18 GMT-0500 (Central Daylight Time),293173.89999997616,hate,900,O,z,z,None,723,523.0,200.0,42,1,2163.5,291010.39999997616,7023,hate,AF,A,287348,287348,285717,286632,285718,287881,287148,287148,287881,71
72,test,1,inc,1,z,Wed Oct 02 2024 11:35:18 GMT-0500 (Central Daylight Time),295523.2000000477,window,1100,O,z,z,None,683,484.0,199.0,32,1,2330.899999976158,293192.3000000715,7023,friend,AF,A,289731,289731,287899,289014,287900,290230,289531,289531,290230,72
73,test,1,con,1,m,Wed Oct 02 2024 11:35:18 GMT-0500 (Central Daylight Time),297722.39999997616,jacket,1000,O,m,m,None,642,443.0,199.0,99,1,2180.399999976158,295542.0,7023,jacket,AF,A,291980,291980,290249,291263,290250,292429,291780,291780,292429,73
74,test,1,con,1,m,Wed Oct 02 2024 11:35:18 GMT-0500 (Central Daylight Time),299721.8000000715,rock,800,O,m,m,None,635,436.0,199.0,73,1,1981.0,297740.8000000715,7023,rock,AF,A,293979,293979,292448,293263,292449,294429,293780,293780,294429,74
75,test,1,con,1,z,Wed Oct 02 2024 11:35:18 GMT-0500 (Central Daylight Time),302004.8000000715,rage,1100,O,z,z,None,632,433.0,199.0,52,1,2265.100000023842,299739.7000000477,7023,rage,AF,A,296278,296278,294447,295562,294448,296712,296078,296078,296712,75
76,test,1,inc,1,m,Wed Oct 02 2024 11:35:18 GMT-0500 (Central Daylight Time),304120.10000002384,elated,800,O,m,m,None,769,570.0,199.0,125,1,2101.600000023842,302018.5,7023,window,AF,A,298245,298245,296725,297528,296726,298827,298045,298045,298827,76
77,test,1,con,1,m,Wed Oct 02 2024 11:35:18 GMT-0500 (Central Daylight Time),306119.10000002384,remote,800,O,m,m,None,636,437.0,199.0,113,1,1979.7000000476837,304139.39999997616,7023,remote,AF,A,300377,300377,298846,299661,298847,300826,300177,300177,300826,77
78,test,1,con,1,z,Wed Oct 02 2024 11:35:18 GMT-0500 (Central Daylight Time),308185.0,rage,800,O,z,z,None,719,519.0,200.0,49,1,2060.2999999523163,306124.7000000477,7023,rage,AF,A,302359,302359,300832,301644,300832,302892,302159,302159,302892,78
79,test,1,inc,1,z,Wed Oct 02 2024 11:35:18 GMT-0500 (Central Daylight Time),310634.89999997616,bell,1000,O,z,z,None,900,701.0,199.0,15,1,2444.0999999046326,308190.8000000715,7023,kind,AF,A,304626,304626,302898,303909,302898,305342,304426,304426,305342,79
80,test,1,con,1,z,Wed Oct 02 2024 11:35:18 GMT-0500 (Central Daylight Time),312900.60000002384,brutal,1000,O,z,z,None,716,516.0,200.0,35,1,2247.100000023842,310653.5,7023,brutal,AF,A,307075,307075,305361,306367,305361,307608,306874,306874,307608,80
81,test,1,inc,1,m,Wed Oct 02 2024 11:35:18 GMT-0500 (Central Daylight Time),314866.8000000715,rage,800,O,m,m,None,609,409.0,200.0,77,1,1947.4000000953674,312919.39999997616,7023,rock,AF,A,309158,309158,307626,308441,307627,309574,308957,308957,309574,81
82,test,1,con,1,m,Wed Oct 02 2024 11:35:18 GMT-0500 (Central Daylight Time),317182.7000000477,jacket,1100,O,m,m,None,663,464.0,199.0,100,1,2297.2000000476837,314885.5,7023,jacket,AF,A,311424,311424,309593,310707,309593,311890,311224,311224,311890,82
83,test,1,inc,1,z,Wed Oct 02 2024 11:35:18 GMT-0500 (Central Daylight Time),319315.39999997616,rock,900,O,z,z,None,667,467.0,200.0,22,1,2114.899999976158,317200.5,7023,love,AF,A,313540,313540,311908,312823,311909,314022,313339,313339,314022,83
84,test,1,con,1,m,Wed Oct 02 2024 11:35:18 GMT-0500 (Central Daylight Time),321298.0,window,900,O,m,m,None,527,327.0,200.0,122,1,1964.1000000238419,319333.89999997616,7023,window,AF,A,315672,315672,314041,314956,314042,316005,315472,315472,316005,84
85,test,1,inc,1,m,Wed Oct 02 2024 11:35:18 GMT-0500 (Central Daylight Time),323397.2000000477,brutal,900,O,m,m,None,647,448.0,199.0,110,1,2080.8000000715256,321316.39999997616,7023,napkin,AF,A,317655,317655,316023,316938,316025,318104,317455,317455,318104,85
86,test,1,inc,1,m,Wed Oct 02 2024 11:35:18 GMT-0500 (Central Daylight Time),326146.39999997616,friend,1100,O,m,m,None,1093,893.0,200.0,120,1,2730.2999999523163,323416.10000002384,7023,remote,AF,A,319954,319954,318123,319238,318124,320853,319754,319754,320853,86
87,test,1,inc,1,z,Wed Oct 02 2024 11:35:18 GMT-0500 (Central Daylight Time),328428.89999997616,remote,1000,O,z,z,None,725,525.0,200.0,31,1,2265.1999999284744,326163.7000000477,7023,friend,AF,A,322603,322603,320871,321887,320871,323136,322403,322403,323136,87
88,test,1,con,1,z,Wed Oct 02 2024 11:35:18 GMT-0500 (Central Daylight Time),330878.0,brutal,1100,O,z,z,None,797,598.0,199.0,36,1,2430.6999999284744,328447.3000000715,7023,brutal,AF,A,324986,324986,323154,324269,323155,325585,324786,324786,325585,88
89,test,1,inc,1,z,Wed Oct 02 2024 11:35:18 GMT-0500 (Central Daylight Time),333127.3000000715,remote,1000,O,z,z,None,695,496.0,199.0,7,1,2231.2000000476837,330896.10000002384,7023,elated,AF,A,327335,327335,325603,326619,325604,327834,327135,327135,327834,89
90,test,1,con,1,z,Wed Oct 02 2024 11:35:18 GMT-0500 (Central Daylight Time),335576.10000002384,kind,800,O,z,z,None,1086,886.0,200.0,9,1,2430.7000000476837,333145.39999997616,7023,kind,AF,A,329384,329384,327852,328668,327853,330283,329184,329184,330283,90
91,test,1,con,1,m,Wed Oct 02 2024 11:35:18 GMT-0500 (Central Daylight Time),337842.60000002384,rock,1100,O,m,m,None,617,418.0,199.0,76,1,2261.100000023842,335581.5,7023,rock,AF,A,332117,332117,330289,331400,330289,332550,331917,331917,332550,91
92,test,1,inc,1,z,Wed Oct 02 2024 11:35:18 GMT-0500 (Central Daylight Time),339958.39999997616,rock,900,O,z,z,None,663,464.0,199.0,14,1,2097.399999976158,337861.0,7023,kind,AF,A,334200,334200,332568,333483,332569,334665,334000,334000,334665,92
93,test,1,con,1,m,Wed Oct 02 2024 11:35:18 GMT-0500 (Central Daylight Time),342191.10000002384,step,900,O,m,m,None,780,581.0,199.0,66,1,2213.600000023842,339977.5,7023,step,AF,A,336315,336315,334684,335599,334685,336898,336116,336116,336898,93
94,test,1,inc,1,m,Wed Oct 02 2024 11:35:18 GMT-0500 (Central Daylight Time),344557.0,friend,1100,O,m,m,None,706,507.0,199.0,112,1,2347.0,342210.0,7023,napkin,AF,A,338748,338748,336917,338032,336918,339264,338548,338548,339264,94
95,test,1,inc,1,m,Wed Oct 02 2024 11:35:18 GMT-0500 (Central Daylight Time),346656.3000000715,kind,900,O,m,m,None,637,438.0,199.0,94,1,2081.4000000953674,344574.89999997616,7023,film,AF,A,340913,340913,339282,340198,339283,341363,340714,340714,341363,95
96,test,1,con,1,z,Wed Oct 02 2024 11:35:18 GMT-0500 (Central Daylight Time),348755.7000000477,elated,800,O,z,z,None,734,534.0,200.0,1,1,2080.899999976158,346674.8000000715,7023,elated,AF,A,342913,342913,341382,342197,341383,343463,342713,342713,343463,96
97,test,1,con,1,m,Wed Oct 02 2024 11:35:18 GMT-0500 (Central Daylight Time),350738.10000002384,bell,900,O,m,m,None,526,326.0,200.0,82,1,1964.6000000238419,348773.5,7023,bell,AF,A,345113,345113,343481,344396,343481,345445,344912,344912,345445,97
98,test,1,inc,1,z,Wed Oct 02 2024 11:35:18 GMT-0500 (Central Daylight Time),352887.7000000477,napkin,900,O,z,z,None,689,488.0,201.0,38,1,2131.8000000715256,350755.89999997616,7023,brutal,AF,A,347095,347095,345463,346379,345464,347595,346894,346894,347595,98
99,test,1,inc,1,m,Wed Oct 02 2024 11:35:18 GMT-0500 (Central Daylight Time),355103.60000002384,love,1000,O,m,m,None,653,454.0,199.0,79,1,2197.5,352906.10000002384,7023,rock,AF,A,349345,349345,347613,348629,347614,349811,349145,349145,349811,99
100,test,1,con,1,z,Wed Oct 02 2024 11:35:18 GMT-0500 (Central Daylight Time),357469.39999997616,love,1000,O,z,z,None,806,607.0,199.0,19,1,2348.1999999284744,355121.2000000477,7023,love,AF,A,351560,351560,349828,350844,349829,352177,351361,351361,352176,100
101,test,1,con,1,z,Wed Oct 02 2024 11:35:18 GMT-0500 (Central Daylight Time),359868.10000002384,rage,1000,O,z,z,None,832,632.0,200.0,51,1,2380.7000000476837,357487.39999997616,7023,rage,AF,A,353926,353927,352194,353210,352195,354575,353726,353726,354575,101
102,test,1,inc,1,m,Wed Oct 02 2024 11:35:18 GMT-0500 (Central Daylight Time),361900.89999997616,kind,900,O,m,m,None,588,389.0,199.0,86,1,2024.3999999761581,359876.5,7023,bell,AF,A,356209,356209,354584,355492,354584,356608,356009,356009,356608,102
103,test,1,con,1,z,Wed Oct 02 2024 11:35:18 GMT-0500 (Central Daylight Time),364150.10000002384,brutal,900,O,z,z,None,805,606.0,199.0,34,1,2239.100000023842,361911.0,7023,brutal,AF,A,358241,358241,356618,357525,356619,358857,358041,358041,358857,103
104,test,1,con,1,m,Wed Oct 02 2024 11:35:18 GMT-0500 (Central Daylight Time),366533.10000002384,remote,1100,O,m,m,None,748,549.0,199.0,116,1,2372.7999999523163,364160.3000000715,7023,remote,AF,A,360690,360690,358867,359974,358868,361240,360491,360491,361240,104
105,test,1,inc,1,z,Wed Oct 02 2024 11:35:18 GMT-0500 (Central Daylight Time),368732.3000000715,step,800,O,z,z,None,832,633.0,199.0,13,1,2179.2000000476837,366553.10000002384,7023,kind,AF,A,362790,362790,361260,362074,361261,363439,362590,362590,363439,105
106,test,1,inc,1,z,Wed Oct 02 2024 11:35:18 GMT-0500 (Central Daylight Time),370765.3000000715,jacket,800,O,z,z,None,674,474.0,200.0,5,1,2014.8000000715256,368750.5,7023,elated,AF,A,364989,364989,363457,364273,363458,365472,364789,364789,365472,106
107,test,1,inc,1,z,Wed Oct 02 2024 11:35:18 GMT-0500 (Central Daylight Time),373131.0,film,1100,O,z,z,None,709,510.0,199.0,56,1,2347.7999999523163,370783.2000000477,7023,rage,AF,A,367322,367322,365490,366605,365491,367838,367122,367122,367838,107
108,test,1,inc,1,z,Wed Oct 02 2024 11:35:18 GMT-0500 (Central Daylight Time),375246.5,bell,1000,O,z,z,None,561,362.0,199.0,55,1,2095.7999999523163,373150.7000000477,7023,rage,AF,A,369588,369588,367858,368871,367859,369954,369388,369388,369954,108
109,test,1,con,1,m,Wed Oct 02 2024 11:35:18 GMT-0500 (Central Daylight Time),377296.2000000477,rock,900,O,m,m,None,612,412.0,200.0,74,1,2044.0,375252.2000000477,7023,rock,AF,A,371587,371587,369959,370870,369960,372003,371387,371387,372003,109
110,test,1,inc,1,m,Wed Oct 02 2024 11:35:18 GMT-0500 (Central Daylight Time),379311.8000000715,elated,800,O,m,m,None,661,461.0,200.0,117,1,1997.8000000715256,377314.0,7023,remote,AF,A,373553,373553,372021,372836,372022,374019,373353,373353,374019,110
111,test,1,inc,1,z,Wed Oct 02 2024 11:35:18 GMT-0500 (Central Daylight Time),381644.3000000715,napkin,900,O,z,z,None,898,698.0,200.0,6,1,2322.9000000953674,379321.39999997616,7023,elated,AF,A,375653,375653,374028,374935,374029,376352,375452,375452,376351,111
112,test,1,inc,1,m,Wed Oct 02 2024 11:35:18 GMT-0500 (Central Daylight Time),383660.7000000477,rage,800,O,m,m,None,674,475.0,199.0,69,1,2003.8000000715256,381656.89999997616,7023,step,AF,A,377885,377885,376364,377168,376365,378368,377685,377685,378368,112
113,test,1,inc,1,z,Wed Oct 02 2024 11:35:18 GMT-0500 (Central Daylight Time),386060.10000002384,film,1100,O,z,z,None,733,534.0,199.0,16,1,2380.0,383680.10000002384,7023,kind,AF,A,380218,380218,378387,379501,378388,380767,380018,380018,380767,113
114,test,1,con,1,m,Wed Oct 02 2024 11:35:18 GMT-0500 (Central Daylight Time),388575.89999997616,bell,1100,O,m,m,None,853,654.0,199.0,84,1,2496.899999976158,386079.0,7023,bell,AF,A,382617,382617,380786,381901,380787,383283,382417,382417,383283,114
115,test,1,inc,1,z,Wed Oct 02 2024 11:35:18 GMT-0500 (Central Daylight Time),390675.2000000477,step,800,O,z,z,None,734,534.0,200.0,45,1,2081.0,388594.2000000477,7023,hate,AF,A,384833,384833,383301,384116,383302,385382,384632,384632,385382,115
116,test,1,inc,1,m,Wed Oct 02 2024 11:35:18 GMT-0500 (Central Daylight Time),392824.10000002384,elated,800,O,m,m,None,795,595.0,200.0,101,1,2130.600000023842,390693.5,7023,jacket,AF,A,386932,386932,385400,386216,385401,387531,386732,386732,387531,116
117,test,1,con,1,z,Wed Oct 02 2024 11:35:18 GMT-0500 (Central Daylight Time),395073.8000000715,brutal,800,O,z,z,None,910,711.0,199.0,33,1,2241.100000023842,392832.7000000477,7023,brutal,AF,A,389065,389065,387540,388348,387540,389781,388865,388865,389781,117
118,test,1,con,1,z,Wed Oct 02 2024 11:35:18 GMT-0500 (Central Daylight Time),398172.8000000715,kind,1100,O,z,z,None,1451,1240.0,211.0,12,1,3082.2000000476837,395090.60000002384,7023,kind,AF,A,391631,391631,389798,390913,389798,392880,391417,391419,392880,118
119,test,1,inc,1,z,Wed Oct 02 2024 11:35:18 GMT-0500 (Central Daylight Time),400571.89999997616,window,1100,O,z,z,None,732,533.0,199.0,8,1,2380.7999999523163,398191.10000002384,7023,elated,AF,A,394730,394730,392898,394013,392899,395279,394530,394530,395279,119
120,test,1,con,1,z,Wed Oct 02 2024 11:35:18 GMT-0500 (Central Daylight Time),402437.89999997616,love,800,O,z,z,None,514,315.0,199.0,17,1,1848.0,400589.89999997616,7023,love,AF,A,396828,396828,395297,396112,395298,397145,396629,396629,397145,120
121,test,1,inc,1,m,Wed Oct 02 2024 11:35:18 GMT-0500 (Central Daylight Time),404353.89999997616,rage,800,O,m,m,None,553,353.0,200.0,93,1,1897.7999999523163,402456.10000002384,7023,film,AF,A,398694,398694,397163,397978,397164,399061,398494,398494,399061,121
122,test,1,con,1,z,Wed Oct 02 2024 11:35:18 GMT-0500 (Central Daylight Time),406803.10000002384,friend,1100,O,z,z,None,801,601.0,200.0,28,1,2437.7000000476837,404365.39999997616,7023,friend,AF,A,400894,400894,399072,400178,399073,401510,400694,400694,401510,122
123,test,1,inc,1,z,Wed Oct 02 2024 11:35:18 GMT-0500 (Central Daylight Time),408852.7000000477,jacket,800,O,z,z,None,691,491.0,200.0,37,1,2031.2000000476837,406821.5,7023,brutal,AF,A,403060,403060,401529,402344,401530,403560,402860,402860,403560,123
124,test,1,con,1,z,Wed Oct 02 2024 11:35:18 GMT-0500 (Central Daylight Time),411451.8000000715,kind,1000,O,z,z,None,1033,833.0,200.0,11,1,2579.4000000953674,408872.39999997616,7023,kind,AF,A,405309,405310,403579,404593,403580,406159,405109,405109,406159,124
125,test,1,inc,1,m,Wed Oct 02 2024 11:35:18 GMT-0500 (Central Daylight Time),413734.3000000715,hate,1100,O,m,m,None,631,432.0,199.0,96,1,2264.600000023842,411469.7000000477,7023,film,AF,A,408008,408008,406177,407292,406177,408441,407809,407809,408441,125
126,test,1,con,1,m,Wed Oct 02 2024 11:35:18 GMT-0500 (Central Daylight Time),415866.89999997616,napkin,1000,O,m,m,None,568,368.0,200.0,107,1,2116.2999999523163,413750.60000002384,7023,napkin,AF,A,410191,410191,408458,409474,408458,410574,409991,409991,410574,126
127,test,1,con,1,m,Wed Oct 02 2024 11:35:18 GMT-0500 (Central Daylight Time),417966.2000000477,rock,1000,O,m,m,None,540,341.0,199.0,75,1,2081.3000000715256,415884.89999997616,7023,rock,AF,A,412323,412323,410592,411607,410593,412673,412124,412124,412673,127
128,test,1,con,1,m,Wed Oct 02 2024 11:35:18 GMT-0500 (Central Daylight Time),419915.60000002384,film,900,O,m,m,None,492,292.0,200.0,90,1,1930.0,417985.60000002384,7023,film,AF,A,414323,414323,412693,413607,412694,414623,414123,414123,414623,128
