acc_sum,block,block_c,change,condition,correct,correct_response,datetime,endtime,face,project,response,response_time,row_sel,session_number,start_end,starttime,subject_id,task,task_vers,trial
0,prac,1,,1-Back,,,Tue Nov 12 2024 14:23:33 GMT-0500 (Eastern Standard Time),,050_m_f_n_a.png,I,space,14105,1,1,,,9003,NNB,A,0
1,prac,1,0.0,1-Back,1,m,Tue Nov 12 2024 14:23:33 GMT-0500 (Eastern Standard Time),146318.5,063_y_f_n_a.png,I,m,853,2,1,1684.3000001907349,144634.19999980927,9003,NNB,A,1
2,prac,1,1.0,1-Back,1,z,Tue Nov 12 2024 14:23:33 GMT-0500 (Eastern Standard Time),147901.90000009537,063_y_f_n_a.png,I,z,794,3,1,1569.9000000953674,146332.0,9003,NNB,A,2
3,prac,1,0.0,1-Back,1,m,Tue Nov 12 2024 14:23:33 GMT-0500 (Eastern Standard Time),149485.19999980927,053_o_m_n_a.png,I,m,749,4,1,1568.7999997138977,147916.40000009537,9003,NNB,A,3
4,prac,1,0.0,1-Back,1,m,Tue Nov 12 2024 14:23:33 GMT-0500 (Eastern Standard Time),151134.69999980927,058_m_m_n_a.png,I,m,765,5,1,1593.2999997138977,149541.40000009537,9003,NNB,A,4
5,prac,1,1.0,1-Back,1,z,Tue Nov 12 2024 14:23:33 GMT-0500 (Eastern Standard Time),152535.0,058_m_m_n_a.png,I,z,617,6,1,1386.9000000953674,151148.09999990463,9003,NNB,A,5
6,prac,1,0.0,1-Back,1,m,Tue Nov 12 2024 14:23:33 GMT-0500 (Eastern Standard Time),154085.09999990463,047_o_f_n_a.png,I,m,678,7,1,1536.0999999046326,152549.0,9003,NNB,A,6
7,prac,1,0.0,1-Back,1,m,Tue Nov 12 2024 14:23:33 GMT-0500 (Eastern Standard Time),155618.5,045_m_m_n_a.png,I,m,698,8,1,1519.8000001907349,154098.69999980927,9003,NNB,A,7
8,prac,1,0.0,1-Back,1,m,Tue Nov 12 2024 14:23:33 GMT-0500 (Eastern Standard Time),157151.40000009537,050_m_f_n_a.png,I,m,740,9,1,1518.7000002861023,155632.69999980927,9003,NNB,A,8
9,prac,1,1.0,1-Back,1,z,Tue Nov 12 2024 14:23:33 GMT-0500 (Eastern Standard Time),158534.90000009537,050_m_f_n_a.png,I,z,601,10,1,1370.2000002861023,157164.69999980927,9003,NNB,A,9
10,prac,1,0.0,1-Back,1,m,Tue Nov 12 2024 14:23:33 GMT-0500 (Eastern Standard Time),160001.5,053_o_m_n_a.png,I,m,672,11,1,1451.5,158550.0,9003,NNB,A,10
11,prac,1,0.0,1-Back,1,m,Tue Nov 12 2024 14:23:33 GMT-0500 (Eastern Standard Time),161584.90000009537,010_y_f_n_a.png,I,m,700,12,1,1566.5999999046326,160018.30000019073,9003,NNB,A,11
0,test,1,0.0,1-Back,,,Tue Nov 12 2024 14:23:33 GMT-0500 (Eastern Standard Time),161584.90000009537,063_y_f_n_a.png,I,space,17730,1,1,1566.5999999046326,160018.30000019073,9003,NNB,A,0
1,test,1,0.0,1-Back,1,m,Tue Nov 12 2024 14:23:33 GMT-0500 (Eastern Standard Time),189268.40000009537,043_m_f_n_a.png,I,m,652,2,1,1671.5,187596.90000009537,9003,NNB,A,1
2,test,1,0.0,1-Back,1,m,Tue Nov 12 2024 14:23:33 GMT-0500 (Eastern Standard Time),190918.5,010_y_f_n_a.png,I,m,632,3,1,1638.0999999046326,189280.40000009537,9003,NNB,A,2
3,test,1,1.0,1-Back,1,z,Tue Nov 12 2024 14:23:33 GMT-0500 (Eastern Standard Time),192435.0,010_y_f_n_a.png,I,z,470,4,1,1499.5999999046326,190935.40000009537,9003,NNB,A,3
4,test,1,0.0,1-Back,1,m,Tue Nov 12 2024 14:23:33 GMT-0500 (Eastern Standard Time),194018.5,043_m_f_n_a.png,I,m,554,5,1,1571.9000000953674,192446.59999990463,9003,NNB,A,4
5,test,1,0.0,1-Back,1,m,Tue Nov 12 2024 14:23:33 GMT-0500 (Eastern Standard Time),195751.30000019073,053_o_m_n_a.png,I,m,714,6,1,1720.7000002861023,194030.59999990463,9003,NNB,A,5
6,test,1,1.0,1-Back,1,z,Tue Nov 12 2024 14:23:33 GMT-0500 (Eastern Standard Time),197418.40000009537,053_o_m_n_a.png,I,z,645,7,1,1654.8000001907349,195763.59999990463,9003,NNB,A,6
7,test,1,0.0,1-Back,1,m,Tue Nov 12 2024 14:23:33 GMT-0500 (Eastern Standard Time),199001.69999980927,058_m_m_n_a.png,I,m,562,8,1,1571.0999999046326,197430.59999990463,9003,NNB,A,7
8,test,1,0.0,1-Back,1,m,Tue Nov 12 2024 14:23:33 GMT-0500 (Eastern Standard Time),200718.30000019073,047_o_f_n_a.png,I,m,674,9,1,1700.8000001907349,199017.5,9003,NNB,A,8
9,test,1,0.0,1-Back,1,m,Tue Nov 12 2024 14:23:33 GMT-0500 (Eastern Standard Time),202367.90000009537,058_m_m_n_a.png,I,m,621,10,1,1638.3000001907349,200729.59999990463,9003,NNB,A,9
10,test,1,0.0,1-Back,1,m,Tue Nov 12 2024 14:23:33 GMT-0500 (Eastern Standard Time),203968.40000009537,041_y_m_n_a.png,I,m,573,11,1,1589.8000001907349,202378.59999990463,9003,NNB,A,10
11,test,1,1.0,1-Back,1,z,Tue Nov 12 2024 14:23:33 GMT-0500 (Eastern Standard Time),205684.59999990463,041_y_m_n_a.png,I,z,683,12,1,1703.5999999046326,203981.0,9003,NNB,A,11
12,test,1,0.0,1-Back,1,m,Tue Nov 12 2024 14:23:33 GMT-0500 (Eastern Standard Time),207318.09999990463,044_o_f_n_a.png,I,m,601,13,1,1624.0,205694.09999990463,9003,NNB,A,12
13,test,1,1.0,1-Back,1,z,Tue Nov 12 2024 14:23:33 GMT-0500 (Eastern Standard Time),209501.69999980927,044_o_f_n_a.png,I,z,1158,14,1,2172.0,207329.69999980927,9003,NNB,A,13
14,test,1,0.0,1-Back,1,m,Tue Nov 12 2024 14:23:33 GMT-0500 (Eastern Standard Time),211185.09999990463,008_y_m_n_a.png,I,m,655,15,1,1671.2999997138977,209513.80000019073,9003,NNB,A,14
15,test,1,0.0,1-Back,1,m,Tue Nov 12 2024 14:23:33 GMT-0500 (Eastern Standard Time),212951.40000009537,050_m_f_n_a.png,I,m,748,16,1,1754.3000001907349,211197.09999990463,9003,NNB,A,15
16,test,1,0.0,1-Back,1,m,Tue Nov 12 2024 14:23:33 GMT-0500 (Eastern Standard Time),214501.19999980927,046_o_m_n_a.png,I,m,517,17,1,1535.0,212966.19999980927,9003,NNB,A,16
17,test,1,0.0,1-Back,1,m,Tue Nov 12 2024 14:23:33 GMT-0500 (Eastern Standard Time),216051.59999990463,050_m_f_n_a.png,I,m,519,18,1,1541.7999997138977,214509.80000019073,9003,NNB,A,17
0,test,2,0.0,1-Back,,,Tue Nov 12 2024 14:23:33 GMT-0500 (Eastern Standard Time),216051.59999990463,058_m_m_n_a.png,I,space,4033,1,1,1541.7999997138977,214509.80000019073,9003,NNB,A,0
1,test,2,0.0,1-Back,1,m,Tue Nov 12 2024 14:23:33 GMT-0500 (Eastern Standard Time),223751.59999990463,043_m_f_n_a.png,I,m,615,2,1,1621.5,222130.09999990463,9003,NNB,A,1
2,test,2,1.0,1-Back,1,z,Tue Nov 12 2024 14:23:33 GMT-0500 (Eastern Standard Time),225568.40000009537,043_m_f_n_a.png,I,z,789,3,1,1804.4000000953674,223764.0,9003,NNB,A,2
3,test,2,0.0,1-Back,1,m,Tue Nov 12 2024 14:23:33 GMT-0500 (Eastern Standard Time),227201.59999990463,058_m_m_n_a.png,I,m,603,4,1,1619.6999998092651,225581.90000009537,9003,NNB,A,3
4,test,2,0.0,1-Back,1,m,Tue Nov 12 2024 14:23:33 GMT-0500 (Eastern Standard Time),228801.69999980927,041_y_m_n_a.png,I,m,555,5,1,1583.8999996185303,227217.80000019073,9003,NNB,A,4
5,test,2,0.0,1-Back,1,m,Tue Nov 12 2024 14:23:33 GMT-0500 (Eastern Standard Time),230368.19999980927,063_y_f_n_a.png,I,m,539,6,1,1553.5999999046326,228814.59999990463,9003,NNB,A,5
6,test,2,1.0,1-Back,1,z,Tue Nov 12 2024 14:23:33 GMT-0500 (Eastern Standard Time),231985.80000019073,063_y_f_n_a.png,I,z,589,7,1,1604.7000002861023,230381.09999990463,9003,NNB,A,6
7,test,2,0.0,1-Back,1,m,Tue Nov 12 2024 14:23:33 GMT-0500 (Eastern Standard Time),233618.30000019073,041_y_m_n_a.png,I,m,604,8,1,1620.4000000953674,231997.90000009537,9003,NNB,A,7
8,test,2,0.0,1-Back,1,m,Tue Nov 12 2024 14:23:33 GMT-0500 (Eastern Standard Time),235268.40000009537,044_o_f_n_a.png,I,m,618,9,1,1637.8000001907349,233630.59999990463,9003,NNB,A,8
9,test,2,0.0,1-Back,1,m,Tue Nov 12 2024 14:23:33 GMT-0500 (Eastern Standard Time),236818.40000009537,045_m_m_n_a.png,I,m,520,10,1,1536.3000001907349,235282.09999990463,9003,NNB,A,9
10,test,2,1.0,1-Back,1,z,Tue Nov 12 2024 14:23:33 GMT-0500 (Eastern Standard Time),238418.30000019073,045_m_m_n_a.png,I,z,570,11,1,1587.6000003814697,236830.69999980927,9003,NNB,A,10
11,test,2,0.0,1-Back,1,m,Tue Nov 12 2024 14:23:33 GMT-0500 (Eastern Standard Time),239984.80000019073,044_o_f_n_a.png,I,m,538,12,1,1554.4000000953674,238430.40000009537,9003,NNB,A,11
12,test,2,0.0,1-Back,1,m,Tue Nov 12 2024 14:23:33 GMT-0500 (Eastern Standard Time),241568.19999980927,047_o_f_n_a.png,I,m,556,13,1,1571.5999999046326,239996.59999990463,9003,NNB,A,12
13,test,2,0.0,1-Back,1,m,Tue Nov 12 2024 14:23:33 GMT-0500 (Eastern Standard Time),243118.5,053_o_m_n_a.png,I,m,524,14,1,1537.1999998092651,241581.30000019073,9003,NNB,A,13
14,test,2,0.0,1-Back,1,m,Tue Nov 12 2024 14:23:33 GMT-0500 (Eastern Standard Time),244768.0,046_o_m_n_a.png,I,m,622,15,1,1637.5,243130.5,9003,NNB,A,14
15,test,2,1.0,1-Back,1,z,Tue Nov 12 2024 14:23:33 GMT-0500 (Eastern Standard Time),246401.80000019073,046_o_m_n_a.png,I,z,605,16,1,1623.9000000953674,244777.90000009537,9003,NNB,A,15
16,test,2,0.0,1-Back,1,m,Tue Nov 12 2024 14:23:33 GMT-0500 (Eastern Standard Time),248051.69999980927,008_y_m_n_a.png,I,m,619,17,1,1637.8999996185303,246413.80000019073,9003,NNB,A,16
17,test,2,1.0,1-Back,1,z,Tue Nov 12 2024 14:23:33 GMT-0500 (Eastern Standard Time),250118.59999990463,008_y_m_n_a.png,I,z,1049,18,1,2052.2999997138977,248066.30000019073,9003,NNB,A,17
0,test,3,1.0,1-Back,,,Tue Nov 12 2024 14:23:33 GMT-0500 (Eastern Standard Time),250118.59999990463,010_y_f_n_a.png,I,space,2478,1,1,2052.2999997138977,248066.30000019073,9003,NNB,A,0
1,test,3,0.0,1-Back,1,m,Tue Nov 12 2024 14:23:33 GMT-0500 (Eastern Standard Time),256334.90000009537,046_o_m_n_a.png,I,m,607,2,1,1620.9000000953674,254714.0,9003,NNB,A,1
2,test,3,1.0,1-Back,1,z,Tue Nov 12 2024 14:23:33 GMT-0500 (Eastern Standard Time),258151.30000019073,046_o_m_n_a.png,I,z,797,3,1,1803.3000001907349,256348.0,9003,NNB,A,2
3,test,3,0.0,1-Back,1,m,Tue Nov 12 2024 14:23:33 GMT-0500 (Eastern Standard Time),259768.19999980927,050_m_f_n_a.png,I,m,597,4,1,1608.2999997138977,258159.90000009537,9003,NNB,A,3
4,test,3,1.0,1-Back,1,z,Tue Nov 12 2024 14:23:33 GMT-0500 (Eastern Standard Time),261435.09999990463,050_m_f_n_a.png,I,z,644,5,1,1654.5,259780.59999990463,9003,NNB,A,4
5,test,3,0.0,1-Back,1,m,Tue Nov 12 2024 14:23:33 GMT-0500 (Eastern Standard Time),262968.19999980927,044_o_f_n_a.png,I,m,497,6,1,1517.0,261451.19999980927,9003,NNB,A,5
6,test,3,0.0,1-Back,1,m,Tue Nov 12 2024 14:23:33 GMT-0500 (Eastern Standard Time),264534.69999980927,041_y_m_n_a.png,I,m,548,7,1,1553.2999997138977,262981.40000009537,9003,NNB,A,6
7,test,3,0.0,1-Back,1,m,Tue Nov 12 2024 14:23:33 GMT-0500 (Eastern Standard Time),266051.69999980927,044_o_f_n_a.png,I,m,486,8,1,1505.3999996185303,264546.30000019073,9003,NNB,A,7
8,test,3,0.0,1-Back,1,m,Tue Nov 12 2024 14:23:33 GMT-0500 (Eastern Standard Time),267618.40000009537,008_y_m_n_a.png,I,m,537,9,1,1553.5999999046326,266064.80000019073,9003,NNB,A,8
9,test,3,1.0,1-Back,1,z,Tue Nov 12 2024 14:23:33 GMT-0500 (Eastern Standard Time),269384.90000009537,008_y_m_n_a.png,I,z,746,10,1,1752.0,267632.90000009537,9003,NNB,A,9
10,test,3,0.0,1-Back,1,m,Tue Nov 12 2024 14:23:33 GMT-0500 (Eastern Standard Time),270934.90000009537,043_m_f_n_a.png,I,m,532,11,1,1537.5,269397.40000009537,9003,NNB,A,10
11,test,3,0.0,1-Back,1,m,Tue Nov 12 2024 14:23:33 GMT-0500 (Eastern Standard Time),272485.09999990463,063_y_f_n_a.png,I,m,518,12,1,1538.0999999046326,270947.0,9003,NNB,A,11
12,test,3,1.0,1-Back,1,z,Tue Nov 12 2024 14:23:33 GMT-0500 (Eastern Standard Time),274068.30000019073,063_y_f_n_a.png,I,z,552,13,1,1569.2000002861023,272499.09999990463,9003,NNB,A,12
13,test,3,0.0,1-Back,1,m,Tue Nov 12 2024 14:23:33 GMT-0500 (Eastern Standard Time),275618.0,043_m_f_n_a.png,I,m,520,14,1,1537.0,274081.0,9003,NNB,A,13
14,test,3,0.0,1-Back,1,m,Tue Nov 12 2024 14:23:33 GMT-0500 (Eastern Standard Time),277218.40000009537,058_m_m_n_a.png,I,m,570,15,1,1590.8000001907349,275627.59999990463,9003,NNB,A,14
15,test,3,1.0,1-Back,1,z,Tue Nov 12 2024 14:23:33 GMT-0500 (Eastern Standard Time),278901.59999990463,058_m_m_n_a.png,I,z,650,16,1,1670.7999997138977,277230.80000019073,9003,NNB,A,15
16,test,3,0.0,1-Back,1,m,Tue Nov 12 2024 14:23:33 GMT-0500 (Eastern Standard Time),280485.09999990463,047_o_f_n_a.png,I,m,552,17,1,1570.9000000953674,278914.19999980927,9003,NNB,A,16
17,test,3,1.0,1-Back,1,z,Tue Nov 12 2024 14:23:33 GMT-0500 (Eastern Standard Time),282101.5,047_o_f_n_a.png,I,z,584,18,1,1604.5,280497.0,9003,NNB,A,17
0,test,4,1.0,1-Back,,,Tue Nov 12 2024 14:23:33 GMT-0500 (Eastern Standard Time),282101.5,050_m_f_n_a.png,I,space,2599,1,1,1604.5,280497.0,9003,NNB,A,0
1,test,4,0.0,1-Back,1,m,Tue Nov 12 2024 14:23:33 GMT-0500 (Eastern Standard Time),288368.09999990463,046_o_m_n_a.png,I,m,606,2,1,1621.2999997138977,286746.80000019073,9003,NNB,A,1
2,test,4,0.0,1-Back,1,m,Tue Nov 12 2024 14:23:33 GMT-0500 (Eastern Standard Time),289968.5,050_m_f_n_a.png,I,m,572,3,1,1588.6999998092651,288379.80000019073,9003,NNB,A,2
3,test,4,0.0,1-Back,1,m,Tue Nov 12 2024 14:23:33 GMT-0500 (Eastern Standard Time),291518.40000009537,044_o_f_n_a.png,I,m,524,4,1,1537.2000002861023,289981.19999980927,9003,NNB,A,3
4,test,4,1.0,1-Back,1,z,Tue Nov 12 2024 14:23:33 GMT-0500 (Eastern Standard Time),293051.69999980927,044_o_f_n_a.png,I,z,510,5,1,1519.6999998092651,291532.0,9003,NNB,A,4
5,test,4,0.0,1-Back,1,m,Tue Nov 12 2024 14:23:33 GMT-0500 (Eastern Standard Time),294635.09999990463,063_y_f_n_a.png,I,m,561,6,1,1570.5,293064.59999990463,9003,NNB,A,5
6,test,4,0.0,1-Back,1,m,Tue Nov 12 2024 14:23:33 GMT-0500 (Eastern Standard Time),296201.80000019073,041_y_m_n_a.png,I,m,546,7,1,1554.3000001907349,294647.5,9003,NNB,A,6
7,test,4,1.0,1-Back,1,z,Tue Nov 12 2024 14:23:33 GMT-0500 (Eastern Standard Time),297751.40000009537,041_y_m_n_a.png,I,z,531,8,1,1537.7000002861023,296213.69999980927,9003,NNB,A,7
8,test,4,0.0,1-Back,1,m,Tue Nov 12 2024 14:23:33 GMT-0500 (Eastern Standard Time),299385.0,063_y_f_n_a.png,I,m,612,9,1,1621.5999999046326,297763.40000009537,9003,NNB,A,8
9,test,4,0.0,1-Back,1,m,Tue Nov 12 2024 14:23:33 GMT-0500 (Eastern Standard Time),300968.5,045_m_m_n_a.png,I,m,564,10,1,1571.5,299397.0,9003,NNB,A,9
10,test,4,1.0,1-Back,1,z,Tue Nov 12 2024 14:23:33 GMT-0500 (Eastern Standard Time),302485.0,045_m_m_n_a.png,I,z,484,11,1,1503.8000001907349,300981.19999980927,9003,NNB,A,10
11,test,4,0.0,1-Back,1,m,Tue Nov 12 2024 14:23:33 GMT-0500 (Eastern Standard Time),304068.40000009537,047_o_f_n_a.png,I,m,552,12,1,1570.8000001907349,302497.59999990463,9003,NNB,A,11
12,test,4,0.0,1-Back,1,m,Tue Nov 12 2024 14:23:33 GMT-0500 (Eastern Standard Time),305718.5,053_o_m_n_a.png,I,m,616,13,1,1637.0999999046326,304081.40000009537,9003,NNB,A,12
13,test,4,0.0,1-Back,1,m,Tue Nov 12 2024 14:23:33 GMT-0500 (Eastern Standard Time),307334.69999980927,047_o_f_n_a.png,I,m,583,14,1,1603.6999998092651,305731.0,9003,NNB,A,13
14,test,4,0.0,1-Back,1,m,Tue Nov 12 2024 14:23:33 GMT-0500 (Eastern Standard Time),308884.80000019073,010_y_f_n_a.png,I,m,518,15,1,1540.7000002861023,307344.09999990463,9003,NNB,A,14
15,test,4,1.0,1-Back,1,z,Tue Nov 12 2024 14:23:33 GMT-0500 (Eastern Standard Time),310401.90000009537,010_y_f_n_a.png,I,z,488,16,1,1508.2000002861023,308893.69999980927,9003,NNB,A,15
16,test,4,0.0,1-Back,1,m,Tue Nov 12 2024 14:23:33 GMT-0500 (Eastern Standard Time),311918.40000009537,043_m_f_n_a.png,I,m,491,17,1,1503.9000000953674,310414.5,9003,NNB,A,16
17,test,4,1.0,1-Back,1,z,Tue Nov 12 2024 14:23:33 GMT-0500 (Eastern Standard Time),313635.19999980927,043_m_f_n_a.png,I,z,688,18,1,1704.5999999046326,311930.59999990463,9003,NNB,A,17
0,test,5,1.0,1-Back,,,Tue Nov 12 2024 14:23:33 GMT-0500 (Eastern Standard Time),313635.19999980927,053_o_m_n_a.png,I,space,2417,1,1,1704.5999999046326,311930.59999990463,9003,NNB,A,0
1,test,5,1.0,1-Back,1,z,Tue Nov 12 2024 14:23:33 GMT-0500 (Eastern Standard Time),319935.09999990463,053_o_m_n_a.png,I,z,825,2,1,1836.0999999046326,318099.0,9003,NNB,A,1
2,test,5,0.0,1-Back,1,m,Tue Nov 12 2024 14:23:33 GMT-0500 (Eastern Standard Time),321418.69999980927,063_y_f_n_a.png,I,m,462,3,1,1471.5,319947.19999980927,9003,NNB,A,2
3,test,5,0.0,1-Back,1,m,Tue Nov 12 2024 14:23:33 GMT-0500 (Eastern Standard Time),322984.80000019073,041_y_m_n_a.png,I,m,547,4,1,1553.5,321431.30000019073,9003,NNB,A,3
4,test,5,0.0,1-Back,1,m,Tue Nov 12 2024 14:23:33 GMT-0500 (Eastern Standard Time),324518.5,063_y_f_n_a.png,I,m,516,5,1,1518.4000000953674,323000.09999990463,9003,NNB,A,4
5,test,5,0.0,1-Back,1,m,Tue Nov 12 2024 14:23:33 GMT-0500 (Eastern Standard Time),326118.5,058_m_m_n_a.png,I,m,582,6,1,1587.0999999046326,324531.40000009537,9003,NNB,A,5
6,test,5,1.0,1-Back,1,z,Tue Nov 12 2024 14:23:33 GMT-0500 (Eastern Standard Time),327718.59999990463,058_m_m_n_a.png,I,z,566,7,1,1588.5999999046326,326130.0,9003,NNB,A,6
7,test,5,0.0,1-Back,1,m,Tue Nov 12 2024 14:23:33 GMT-0500 (Eastern Standard Time),329235.0,010_y_f_n_a.png,I,m,486,8,1,1503.8000001907349,327731.19999980927,9003,NNB,A,7
8,test,5,0.0,1-Back,1,m,Tue Nov 12 2024 14:23:33 GMT-0500 (Eastern Standard Time),331035.09999990463,008_y_m_n_a.png,I,m,778,9,1,1788.4000000953674,329246.69999980927,9003,NNB,A,8
9,test,5,0.0,1-Back,1,m,Tue Nov 12 2024 14:23:33 GMT-0500 (Eastern Standard Time),332584.5,010_y_f_n_a.png,I,m,529,10,1,1536.0999999046326,331048.40000009537,9003,NNB,A,9
10,test,5,0.0,1-Back,1,m,Tue Nov 12 2024 14:23:33 GMT-0500 (Eastern Standard Time),334134.69999980927,047_o_f_n_a.png,I,m,532,11,1,1539.5,332595.19999980927,9003,NNB,A,10
11,test,5,1.0,1-Back,1,z,Tue Nov 12 2024 14:23:33 GMT-0500 (Eastern Standard Time),335668.40000009537,047_o_f_n_a.png,I,z,502,12,1,1521.3000001907349,334147.09999990463,9003,NNB,A,11
12,test,5,0.0,1-Back,1,m,Tue Nov 12 2024 14:23:33 GMT-0500 (Eastern Standard Time),337301.40000009537,046_o_m_n_a.png,I,m,600,13,1,1620.7000002861023,335680.69999980927,9003,NNB,A,12
13,test,5,0.0,1-Back,1,m,Tue Nov 12 2024 14:23:33 GMT-0500 (Eastern Standard Time),338851.40000009537,050_m_f_n_a.png,I,m,518,14,1,1541.0,337310.40000009537,9003,NNB,A,13
14,test,5,1.0,1-Back,1,z,Tue Nov 12 2024 14:23:33 GMT-0500 (Eastern Standard Time),340568.40000009537,050_m_f_n_a.png,I,z,697,15,1,1708.0999999046326,338860.30000019073,9003,NNB,A,14
15,test,5,0.0,1-Back,1,m,Tue Nov 12 2024 14:23:33 GMT-0500 (Eastern Standard Time),342034.69999980927,046_o_m_n_a.png,I,m,436,16,1,1452.5,340582.19999980927,9003,NNB,A,15
15,test,5,0.0,1-Back,0,m,Tue Nov 12 2024 14:23:33 GMT-0500 (Eastern Standard Time),343585.09999990463,043_m_f_n_a.png,I,z,522,17,1,1541.0999999046326,342044.0,9003,NNB,A,16
16,test,5,0.0,1-Back,1,m,Tue Nov 12 2024 14:23:33 GMT-0500 (Eastern Standard Time),345135.09999990463,045_m_m_n_a.png,I,m,524,18,1,1538.0,343597.09999990463,9003,NNB,A,17
0,prac,1,0.0,2-Back,,,Tue Nov 12 2024 14:23:33 GMT-0500 (Eastern Standard Time),345135.09999990463,008_y_m_n_a.png,I,space,10472,1,1,1538.0,343597.09999990463,9003,NNB,A,0
0,prac,1,0.0,2-Back,,,Tue Nov 12 2024 14:23:33 GMT-0500 (Eastern Standard Time),345135.09999990463,043_m_f_n_a.png,I,space,10472,2,1,1538.0,343597.09999990463,9003,NNB,A,0
1,prac,1,1.0,2-Back,1,m,Tue Nov 12 2024 14:23:33 GMT-0500 (Eastern Standard Time),504635.40000009537,046_o_m_n_a.png,I,m,1198,3,1,2013.0999999046326,502622.30000019073,9003,NNB,A,1
2,prac,1,0.0,2-Back,1,m,Tue Nov 12 2024 14:23:33 GMT-0500 (Eastern Standard Time),507235.69999980927,047_o_f_n_a.png,I,m,1708,4,1,2584.8999996185303,504650.80000019073,9003,NNB,A,2
3,prac,1,0.0,2-Back,1,z,Tue Nov 12 2024 14:23:33 GMT-0500 (Eastern Standard Time),509485.19999980927,046_o_m_n_a.png,I,z,1458,5,1,2232.3999996185303,507252.80000019073,9003,NNB,A,3
4,prac,1,1.0,2-Back,1,z,Tue Nov 12 2024 14:23:33 GMT-0500 (Eastern Standard Time),511518.69999980927,047_o_f_n_a.png,I,z,1242,6,1,2018.8999996185303,509499.80000019073,9003,NNB,A,4
5,prac,1,0.0,2-Back,1,m,Tue Nov 12 2024 14:23:33 GMT-0500 (Eastern Standard Time),513518.09999990463,045_m_m_n_a.png,I,m,1149,7,1,1984.1999998092651,511533.90000009537,9003,NNB,A,5
6,prac,1,0.0,2-Back,1,m,Tue Nov 12 2024 14:23:33 GMT-0500 (Eastern Standard Time),515284.90000009537,053_o_m_n_a.png,I,m,912,8,1,1754.5999999046326,513530.30000019073,9003,NNB,A,6
7,prac,1,0.0,2-Back,1,m,Tue Nov 12 2024 14:23:33 GMT-0500 (Eastern Standard Time),517368.69999980927,010_y_f_n_a.png,I,m,1209,9,1,2066.2999997138977,515302.40000009537,9003,NNB,A,7
8,prac,1,1.0,2-Back,1,z,Tue Nov 12 2024 14:23:33 GMT-0500 (Eastern Standard Time),519234.59999990463,053_o_m_n_a.png,I,z,1071,10,1,1851.6999998092651,517382.90000009537,9003,NNB,A,8
9,prac,1,0.0,2-Back,1,m,Tue Nov 12 2024 14:23:33 GMT-0500 (Eastern Standard Time),521118.80000019073,063_y_f_n_a.png,I,m,966,11,1,1868.8000001907349,519250.0,9003,NNB,A,9
9,prac,1,0.0,2-Back,0,m,Tue Nov 12 2024 14:23:33 GMT-0500 (Eastern Standard Time),523168.80000019073,045_m_m_n_a.png,I,z,1254,12,1,2033.1000003814697,521135.69999980927,9003,NNB,A,10
0,test,1,0.0,2-Back,,,Tue Nov 12 2024 14:23:33 GMT-0500 (Eastern Standard Time),523168.80000019073,041_y_m_n_a.png,I,space,9117,1,1,2033.1000003814697,521135.69999980927,9003,NNB,A,0
0,test,1,0.0,2-Back,,,Tue Nov 12 2024 14:23:33 GMT-0500 (Eastern Standard Time),523168.80000019073,041_y_m_n_a.png,I,space,9117,2,1,2033.1000003814697,521135.69999980927,9003,NNB,A,0
1,test,1,0.0,2-Back,1,m,Tue Nov 12 2024 14:23:33 GMT-0500 (Eastern Standard Time),554718.5999999046,047_o_f_n_a.png,I,m,1459,3,1,2471.0999999046326,552247.5,9003,NNB,A,1
2,test,1,0.0,2-Back,1,m,Tue Nov 12 2024 14:23:33 GMT-0500 (Eastern Standard Time),556518.8000001907,058_m_m_n_a.png,I,m,767,4,1,1786.5,554732.3000001907,9003,NNB,A,2
3,test,1,1.0,2-Back,1,z,Tue Nov 12 2024 14:23:33 GMT-0500 (Eastern Standard Time),558802.0999999046,047_o_f_n_a.png,I,z,1254,5,1,2270.5,556531.5999999046,9003,NNB,A,3
4,test,1,0.0,2-Back,1,m,Tue Nov 12 2024 14:23:33 GMT-0500 (Eastern Standard Time),560585.4000000954,063_y_f_n_a.png,I,m,763,6,1,1770.3000001907349,558815.0999999046,9003,NNB,A,4
4,test,1,0.0,2-Back,0,m,Tue Nov 12 2024 14:23:33 GMT-0500 (Eastern Standard Time),563035.0,058_m_m_n_a.png,I,z,1429,7,1,2436.199999809265,560598.8000001907,9003,NNB,A,5
5,test,1,1.0,2-Back,1,z,Tue Nov 12 2024 14:23:33 GMT-0500 (Eastern Standard Time),565418.5999999046,063_y_f_n_a.png,I,z,1363,8,1,2373.5999999046326,563045.0,9003,NNB,A,6
6,test,1,0.0,2-Back,1,m,Tue Nov 12 2024 14:23:33 GMT-0500 (Eastern Standard Time),567618.8000001907,008_y_m_n_a.png,I,m,1170,9,1,2187.7000002861023,565431.0999999046,9003,NNB,A,7
7,test,1,0.0,2-Back,1,m,Tue Nov 12 2024 14:23:33 GMT-0500 (Eastern Standard Time),569418.6999998093,044_o_f_n_a.png,I,m,778,10,1,1787.0,567631.6999998093,9003,NNB,A,8
8,test,1,1.0,2-Back,1,z,Tue Nov 12 2024 14:23:33 GMT-0500 (Eastern Standard Time),571868.6999998093,008_y_m_n_a.png,I,z,1427,11,1,2436.8999996185303,569431.8000001907,9003,NNB,A,9
9,test,1,0.0,2-Back,1,m,Tue Nov 12 2024 14:23:33 GMT-0500 (Eastern Standard Time),573735.0,043_m_f_n_a.png,I,m,848,12,1,1853.5,571881.5,9003,NNB,A,10
10,test,1,0.0,2-Back,1,m,Tue Nov 12 2024 14:23:33 GMT-0500 (Eastern Standard Time),575901.9000000954,043_m_f_n_a.png,I,m,1143,13,1,2153.800000190735,573748.0999999046,9003,NNB,A,11
11,test,1,0.0,2-Back,1,m,Tue Nov 12 2024 14:23:33 GMT-0500 (Eastern Standard Time),577652.0999999046,046_o_m_n_a.png,I,m,719,14,1,1737.0999999046326,575915.0,9003,NNB,A,12
12,test,1,0.0,2-Back,1,m,Tue Nov 12 2024 14:23:33 GMT-0500 (Eastern Standard Time),579335.0,044_o_f_n_a.png,I,m,665,15,1,1670.5999999046326,577664.4000000954,9003,NNB,A,13
13,test,1,1.0,2-Back,1,z,Tue Nov 12 2024 14:23:33 GMT-0500 (Eastern Standard Time),581351.6999998093,046_o_m_n_a.png,I,z,998,16,1,2003.8999996185303,579347.8000001907,9003,NNB,A,14
14,test,1,0.0,2-Back,1,m,Tue Nov 12 2024 14:23:33 GMT-0500 (Eastern Standard Time),583201.5,050_m_f_n_a.png,I,m,821,17,1,1837.5,581364.0,9003,NNB,A,15
15,test,1,0.0,2-Back,1,m,Tue Nov 12 2024 14:23:33 GMT-0500 (Eastern Standard Time),585052.0999999046,045_m_m_n_a.png,I,m,827,18,1,1840.2999997138977,583211.8000001907,9003,NNB,A,16
0,test,2,0.0,2-Back,,,Tue Nov 12 2024 14:23:33 GMT-0500 (Eastern Standard Time),585052.0999999046,045_m_m_n_a.png,I,space,2841,1,1,1840.2999997138977,583211.8000001907,9003,NNB,A,0
0,test,2,0.0,2-Back,,,Tue Nov 12 2024 14:23:33 GMT-0500 (Eastern Standard Time),585052.0999999046,010_y_f_n_a.png,I,space,2841,2,1,1840.2999997138977,583211.8000001907,9003,NNB,A,0
1,test,2,1.0,2-Back,1,z,Tue Nov 12 2024 14:23:33 GMT-0500 (Eastern Standard Time),595069.1999998093,045_m_m_n_a.png,I,z,1010,3,1,2023.0,593046.1999998093,9003,NNB,A,1
2,test,2,0.0,2-Back,1,m,Tue Nov 12 2024 14:23:33 GMT-0500 (Eastern Standard Time),596885.4000000954,050_m_f_n_a.png,I,m,784,4,1,1805.0999999046326,595080.3000001907,9003,NNB,A,2
2,test,2,0.0,2-Back,0,m,Tue Nov 12 2024 14:23:33 GMT-0500 (Eastern Standard Time),599118.6999998093,010_y_f_n_a.png,I,z,1208,5,1,2220.0999999046326,596898.5999999046,9003,NNB,A,3
3,test,2,0.0,2-Back,1,m,Tue Nov 12 2024 14:23:33 GMT-0500 (Eastern Standard Time),601351.9000000954,046_o_m_n_a.png,I,m,1214,6,1,2220.0999999046326,599131.8000001907,9003,NNB,A,4
4,test,2,0.0,2-Back,1,m,Tue Nov 12 2024 14:23:33 GMT-0500 (Eastern Standard Time),603535.1999998093,063_y_f_n_a.png,I,m,1157,7,1,2170.0999999046326,601365.0999999046,9003,NNB,A,5
5,test,2,1.0,2-Back,1,z,Tue Nov 12 2024 14:23:33 GMT-0500 (Eastern Standard Time),605585.3000001907,046_o_m_n_a.png,I,z,1021,8,1,2037.8000001907349,603547.5,9003,NNB,A,6
6,test,2,0.0,2-Back,1,m,Tue Nov 12 2024 14:23:33 GMT-0500 (Eastern Standard Time),607702.0999999046,008_y_m_n_a.png,I,m,1083,9,1,2104.199999809265,605597.9000000954,9003,NNB,A,7
7,test,2,0.0,2-Back,1,m,Tue Nov 12 2024 14:23:33 GMT-0500 (Eastern Standard Time),609668.8000001907,008_y_m_n_a.png,I,m,936,10,1,1952.9000000953674,607715.9000000954,9003,NNB,A,8
8,test,2,0.0,2-Back,1,m,Tue Nov 12 2024 14:23:33 GMT-0500 (Eastern Standard Time),611335.0999999046,043_m_f_n_a.png,I,m,648,11,1,1653.2999997138977,609681.8000001907,9003,NNB,A,9
9,test,2,0.0,2-Back,1,m,Tue Nov 12 2024 14:23:33 GMT-0500 (Eastern Standard Time),613335.0,010_y_f_n_a.png,I,m,981,12,1,1988.0,611347.0,9003,NNB,A,10
10,test,2,1.0,2-Back,1,z,Tue Nov 12 2024 14:23:33 GMT-0500 (Eastern Standard Time),615618.6999998093,043_m_f_n_a.png,I,z,1254,13,1,2270.5,613348.1999998093,9003,NNB,A,11
11,test,2,0.0,2-Back,1,m,Tue Nov 12 2024 14:23:33 GMT-0500 (Eastern Standard Time),617235.3000001907,053_o_m_n_a.png,I,m,586,14,1,1603.2000002861023,615632.0999999046,9003,NNB,A,12
12,test,2,0.0,2-Back,1,m,Tue Nov 12 2024 14:23:33 GMT-0500 (Eastern Standard Time),619185.3000001907,053_o_m_n_a.png,I,m,921,15,1,1936.7000002861023,617248.5999999046,9003,NNB,A,13
13,test,2,0.0,2-Back,1,m,Tue Nov 12 2024 14:23:33 GMT-0500 (Eastern Standard Time),621002.0999999046,044_o_f_n_a.png,I,m,796,16,1,1803.6999998092651,619198.4000000954,9003,NNB,A,14
14,test,2,0.0,2-Back,1,m,Tue Nov 12 2024 14:23:33 GMT-0500 (Eastern Standard Time),622769.0,058_m_m_n_a.png,I,m,739,17,1,1752.3000001907349,621016.6999998093,9003,NNB,A,15
15,test,2,1.0,2-Back,1,z,Tue Nov 12 2024 14:23:33 GMT-0500 (Eastern Standard Time),624602.0999999046,044_o_f_n_a.png,I,z,812,18,1,1820.1999998092651,622781.9000000954,9003,NNB,A,16
0,test,3,1.0,2-Back,,,Tue Nov 12 2024 14:23:33 GMT-0500 (Eastern Standard Time),624602.0999999046,041_y_m_n_a.png,I,space,8924,1,1,1820.1999998092651,622781.9000000954,9003,NNB,A,0
0,test,3,1.0,2-Back,,,Tue Nov 12 2024 14:23:33 GMT-0500 (Eastern Standard Time),624602.0999999046,041_y_m_n_a.png,I,space,8924,2,1,1820.1999998092651,622781.9000000954,9003,NNB,A,0
1,test,3,0.0,2-Back,1,m,Tue Nov 12 2024 14:23:33 GMT-0500 (Eastern Standard Time),640519.0,044_o_f_n_a.png,I,m,849,3,1,1854.9000000953674,638664.0999999046,9003,NNB,A,1
2,test,3,0.0,2-Back,1,m,Tue Nov 12 2024 14:23:33 GMT-0500 (Eastern Standard Time),642818.8000001907,045_m_m_n_a.png,I,m,1270,4,1,2288.0,640530.8000001907,9003,NNB,A,2
3,test,3,1.0,2-Back,1,z,Tue Nov 12 2024 14:23:33 GMT-0500 (Eastern Standard Time),644602.1999998093,044_o_f_n_a.png,I,z,763,5,1,1771.0,642831.1999998093,9003,NNB,A,3
4,test,3,0.0,2-Back,1,m,Tue Nov 12 2024 14:23:33 GMT-0500 (Eastern Standard Time),646635.4000000954,008_y_m_n_a.png,I,m,1012,6,1,2018.7000002861023,644616.6999998093,9003,NNB,A,4
5,test,3,0.0,2-Back,1,m,Tue Nov 12 2024 14:23:33 GMT-0500 (Eastern Standard Time),648685.4000000954,045_m_m_n_a.png,I,m,1025,7,1,2037.3000001907349,646648.0999999046,9003,NNB,A,5
6,test,3,1.0,2-Back,1,z,Tue Nov 12 2024 14:23:33 GMT-0500 (Eastern Standard Time),650951.9000000954,008_y_m_n_a.png,I,z,1248,8,1,2253.800000190735,648698.0999999046,9003,NNB,A,6
7,test,3,0.0,2-Back,1,m,Tue Nov 12 2024 14:23:33 GMT-0500 (Eastern Standard Time),652985.0999999046,010_y_f_n_a.png,I,m,1013,9,1,2019.5999999046326,650965.5,9003,NNB,A,7
8,test,3,0.0,2-Back,1,m,Tue Nov 12 2024 14:23:33 GMT-0500 (Eastern Standard Time),654735.4000000954,058_m_m_n_a.png,I,m,725,10,1,1738.5999999046326,652996.8000001907,9003,NNB,A,8
9,test,3,1.0,2-Back,1,z,Tue Nov 12 2024 14:23:33 GMT-0500 (Eastern Standard Time),656469.0,010_y_f_n_a.png,I,z,701,11,1,1720.0,654749.0,9003,NNB,A,9
10,test,3,1.0,2-Back,1,z,Tue Nov 12 2024 14:23:33 GMT-0500 (Eastern Standard Time),658352.1999998093,058_m_m_n_a.png,I,z,857,12,1,1869.3999996185303,656482.8000001907,9003,NNB,A,10
11,test,3,0.0,2-Back,1,m,Tue Nov 12 2024 14:23:33 GMT-0500 (Eastern Standard Time),660002.0999999046,044_o_f_n_a.png,I,m,622,13,1,1637.4000000953674,658364.6999998093,9003,NNB,A,11
12,test,3,0.0,2-Back,1,m,Tue Nov 12 2024 14:23:33 GMT-0500 (Eastern Standard Time),661618.9000000954,050_m_f_n_a.png,I,m,588,14,1,1603.5999999046326,660015.3000001907,9003,NNB,A,12
13,test,3,0.0,2-Back,1,m,Tue Nov 12 2024 14:23:33 GMT-0500 (Eastern Standard Time),663585.3000001907,046_o_m_n_a.png,I,m,938,15,1,1953.8000001907349,661631.5,9003,NNB,A,13
14,test,3,1.0,2-Back,1,z,Tue Nov 12 2024 14:23:33 GMT-0500 (Eastern Standard Time),666118.8000001907,050_m_f_n_a.png,I,z,1500,16,1,2520.0,663598.8000001907,9003,NNB,A,14
15,test,3,0.0,2-Back,1,m,Tue Nov 12 2024 14:23:33 GMT-0500 (Eastern Standard Time),667785.4000000954,047_o_f_n_a.png,I,m,647,17,1,1653.5,666131.9000000954,9003,NNB,A,15
16,test,3,0.0,2-Back,1,m,Tue Nov 12 2024 14:23:33 GMT-0500 (Eastern Standard Time),669985.0999999046,047_o_f_n_a.png,I,m,1121,18,1,2135.0999999046326,667850.0,9003,NNB,A,16
0,test,4,0.0,2-Back,,,Tue Nov 12 2024 14:23:33 GMT-0500 (Eastern Standard Time),669985.0999999046,053_o_m_n_a.png,I,space,2525,1,1,2135.0999999046326,667850.0,9003,NNB,A,0
0,test,4,0.0,2-Back,,,Tue Nov 12 2024 14:23:33 GMT-0500 (Eastern Standard Time),669985.0999999046,063_y_f_n_a.png,I,space,2525,2,1,2135.0999999046326,667850.0,9003,NNB,A,0
1,test,4,1.0,2-Back,1,z,Tue Nov 12 2024 14:23:33 GMT-0500 (Eastern Standard Time),680102.0,053_o_m_n_a.png,I,z,1418,3,1,2438.5999999046326,677663.4000000954,9003,NNB,A,1
2,test,4,1.0,2-Back,1,z,Tue Nov 12 2024 14:23:33 GMT-0500 (Eastern Standard Time),681851.9000000954,063_y_f_n_a.png,I,z,727,4,1,1736.0,680115.9000000954,9003,NNB,A,2
3,test,4,0.0,2-Back,1,m,Tue Nov 12 2024 14:23:33 GMT-0500 (Eastern Standard Time),683719.4000000954,044_o_f_n_a.png,I,m,849,5,1,1857.8000001907349,681861.5999999046,9003,NNB,A,3
4,test,4,0.0,2-Back,1,m,Tue Nov 12 2024 14:23:33 GMT-0500 (Eastern Standard Time),685719.0,044_o_f_n_a.png,I,m,983,6,1,1989.0,683730.0,9003,NNB,A,4
5,test,4,0.0,2-Back,1,m,Tue Nov 12 2024 14:23:33 GMT-0500 (Eastern Standard Time),688252.1999998093,043_m_f_n_a.png,I,m,1511,7,1,2521.2999997138977,685730.9000000954,9003,NNB,A,5
6,test,4,0.0,2-Back,1,m,Tue Nov 12 2024 14:23:33 GMT-0500 (Eastern Standard Time),690002.1999998093,008_y_m_n_a.png,I,m,722,8,1,1737.0,688265.1999998093,9003,NNB,A,6
7,test,4,1.0,2-Back,1,z,Tue Nov 12 2024 14:23:33 GMT-0500 (Eastern Standard Time),692018.5999999046,043_m_f_n_a.png,I,z,988,9,1,2003.1999998092651,690015.4000000954,9003,NNB,A,7
8,test,4,0.0,2-Back,1,m,Tue Nov 12 2024 14:23:33 GMT-0500 (Eastern Standard Time),693652.0999999046,058_m_m_n_a.png,I,m,603,10,1,1621.0,692031.0999999046,9003,NNB,A,8
8,test,4,0.0,2-Back,0,m,Tue Nov 12 2024 14:23:33 GMT-0500 (Eastern Standard Time),695718.6999998093,008_y_m_n_a.png,I,z,1034,11,1,2053.5999999046326,693665.0999999046,9003,NNB,A,9
9,test,4,0.0,2-Back,1,m,Tue Nov 12 2024 14:23:33 GMT-0500 (Eastern Standard Time),697418.4000000954,047_o_f_n_a.png,I,m,678,12,1,1686.8000001907349,695731.5999999046,9003,NNB,A,10
10,test,4,0.0,2-Back,1,m,Tue Nov 12 2024 14:23:33 GMT-0500 (Eastern Standard Time),699302.0999999046,041_y_m_n_a.png,I,m,851,13,1,1871.5,697430.5999999046,9003,NNB,A,11
11,test,4,1.0,2-Back,1,z,Tue Nov 12 2024 14:23:33 GMT-0500 (Eastern Standard Time),700935.0999999046,047_o_f_n_a.png,I,z,599,14,1,1617.6999998092651,699317.4000000954,9003,NNB,A,12
12,test,4,1.0,2-Back,1,z,Tue Nov 12 2024 14:23:33 GMT-0500 (Eastern Standard Time),702485.5,041_y_m_n_a.png,I,z,518,15,1,1538.1999998092651,700947.3000001907,9003,NNB,A,13
13,test,4,0.0,2-Back,1,m,Tue Nov 12 2024 14:23:33 GMT-0500 (Eastern Standard Time),704268.9000000954,045_m_m_n_a.png,I,m,760,16,1,1770.5,702498.4000000954,9003,NNB,A,14
14,test,4,0.0,2-Back,1,m,Tue Nov 12 2024 14:23:33 GMT-0500 (Eastern Standard Time),705935.6999998093,050_m_f_n_a.png,I,m,641,17,1,1654.1999998092651,704281.5,9003,NNB,A,15
14,test,4,1.0,2-Back,0,z,Tue Nov 12 2024 14:23:33 GMT-0500 (Eastern Standard Time),707818.8000001907,045_m_m_n_a.png,I,m,863,18,1,1869.8000001907349,705949.0,9003,NNB,A,16
0,test,5,1.0,2-Back,,,Tue Nov 12 2024 14:23:33 GMT-0500 (Eastern Standard Time),707818.8000001907,041_y_m_n_a.png,I,space,2811,1,1,1869.8000001907349,705949.0,9003,NNB,A,0
0,test,5,1.0,2-Back,,,Tue Nov 12 2024 14:23:33 GMT-0500 (Eastern Standard Time),707818.8000001907,050_m_f_n_a.png,I,space,2811,2,1,1869.8000001907349,705949.0,9003,NNB,A,0
1,test,5,1.0,2-Back,1,z,Tue Nov 12 2024 14:23:33 GMT-0500 (Eastern Standard Time),717452.3000001907,041_y_m_n_a.png,I,z,711,3,1,1720.9000000953674,715731.4000000954,9003,NNB,A,1
2,test,5,1.0,2-Back,1,z,Tue Nov 12 2024 14:23:33 GMT-0500 (Eastern Standard Time),719235.3000001907,050_m_f_n_a.png,I,z,754,4,1,1769.2000002861023,717466.0999999046,9003,NNB,A,2
3,test,5,0.0,2-Back,1,m,Tue Nov 12 2024 14:23:33 GMT-0500 (Eastern Standard Time),720902.3000001907,047_o_f_n_a.png,I,m,633,5,1,1653.2000002861023,719249.0999999046,9003,NNB,A,3
4,test,5,0.0,2-Back,1,m,Tue Nov 12 2024 14:23:33 GMT-0500 (Eastern Standard Time),723101.5,041_y_m_n_a.png,I,m,1174,6,1,2183.699999809265,720917.8000001907,9003,NNB,A,4
5,test,5,0.0,2-Back,1,m,Tue Nov 12 2024 14:23:33 GMT-0500 (Eastern Standard Time),724985.5,010_y_f_n_a.png,I,m,847,7,1,1862.0,723123.5,9003,NNB,A,5
6,test,5,0.0,2-Back,1,m,Tue Nov 12 2024 14:23:33 GMT-0500 (Eastern Standard Time),726718.9000000954,047_o_f_n_a.png,I,m,708,8,1,1720.8000001907349,724998.0999999046,9003,NNB,A,6
7,test,5,1.0,2-Back,1,z,Tue Nov 12 2024 14:23:33 GMT-0500 (Eastern Standard Time),728752.1999998093,010_y_f_n_a.png,I,z,1007,9,1,2021.0999999046326,726731.0999999046,9003,NNB,A,7
8,test,5,0.0,2-Back,1,m,Tue Nov 12 2024 14:23:33 GMT-0500 (Eastern Standard Time),730518.8000001907,046_o_m_n_a.png,I,m,749,10,1,1753.5,728765.3000001907,9003,NNB,A,8
9,test,5,0.0,2-Back,1,m,Tue Nov 12 2024 14:23:33 GMT-0500 (Eastern Standard Time),732335.4000000954,043_m_f_n_a.png,I,m,792,11,1,1803.5999999046326,730531.8000001907,9003,NNB,A,9
10,test,5,0.0,2-Back,1,m,Tue Nov 12 2024 14:23:33 GMT-0500 (Eastern Standard Time),734019.0999999046,058_m_m_n_a.png,I,m,654,12,1,1671.5,732347.5999999046,9003,NNB,A,10
11,test,5,0.0,2-Back,1,m,Tue Nov 12 2024 14:23:33 GMT-0500 (Eastern Standard Time),736402.1999998093,046_o_m_n_a.png,I,m,1338,13,1,2356.3999996185303,734045.8000001907,9003,NNB,A,11
11,test,5,1.0,2-Back,0,z,Tue Nov 12 2024 14:23:33 GMT-0500 (Eastern Standard Time),738935.5999999046,058_m_m_n_a.png,I,m,1500,14,1,2520.0999999046326,736415.5,9003,NNB,A,12
12,test,5,0.0,2-Back,1,m,Tue Nov 12 2024 14:23:33 GMT-0500 (Eastern Standard Time),740735.5,063_y_f_n_a.png,I,m,774,15,1,1787.0,738948.5,9003,NNB,A,13
13,test,5,0.0,2-Back,1,m,Tue Nov 12 2024 14:23:33 GMT-0500 (Eastern Standard Time),742502.0,053_o_m_n_a.png,I,m,733,16,1,1753.9000000953674,740748.0999999046,9003,NNB,A,14
14,test,5,0.0,2-Back,1,m,Tue Nov 12 2024 14:23:33 GMT-0500 (Eastern Standard Time),744368.8000001907,043_m_f_n_a.png,I,m,839,17,1,1854.4000000953674,742514.4000000954,9003,NNB,A,15
15,test,5,1.0,2-Back,1,z,Tue Nov 12 2024 14:23:33 GMT-0500 (Eastern Standard Time),745885.4000000954,053_o_m_n_a.png,I,z,493,18,1,1503.4000000953674,744382.0,9003,NNB,A,16
