acc_sum,block,block_c,block_cond,con_img,correct,correct_response,datetime,endtime,face,jitter,line,project,response,response_time,row_sel,session_number,start_end,starttime,subject_id,task,task_vers,trial
0,prac,1,A,haborder.png,0,z,Fri Apr 11 2025 15:38:47 GMT-0500 (Central Daylight Time),41427.89999997616,CFD-BF-039-039-A.jpg,1200,solid,O,None,1514,6,1,3532.1999999284744,37895.700000047684,7017,ATS,A,1
1,prac,1,A,haborder.png,1,m,Fri Apr 11 2025 15:38:47 GMT-0500 (Central Daylight Time),44993.39999997616,CFD-WM-006-013-HC.jpg,1700,solid,O,m,1035,9,1,7097.699999928474,37895.700000047684,7017,ATS,A,2
2,prac,1,A,haborder.png,1,z,Fri Apr 11 2025 15:38:47 GMT-0500 (Central Daylight Time),47642.5,CFD-BF-023-013-A.jpg,1000,solid,O,z,831,4,1,9746.799999952316,37895.700000047684,7017,ATS,A,3
3,prac,1,A,haborder.png,1,z,Fri Apr 11 2025 15:38:47 GMT-0500 (Central Daylight Time),50758.10000002384,CFD-WF-003-014-A.jpg,1600,solid,O,z,693,10,1,12862.399999976158,37895.700000047684,7017,ATS,A,4
4,prac,1,A,haborder.png,1,m,Fri Apr 11 2025 15:38:47 GMT-0500 (Central Daylight Time),53773.89999997616,CFD-WF-017-016-HC.jpg,1500,solid,O,m,694,11,1,15878.199999928474,37895.700000047684,7017,ATS,A,5
4,prac,1,A,haborder.png,0,z,Fri Apr 11 2025 15:38:47 GMT-0500 (Central Daylight Time),57206.10000002384,CFD-BM-005-010-A.jpg,1600,solid,O,m,1003,2,1,19310.399999976158,37895.700000047684,7017,ATS,A,6
5,prac,1,A,haborder.png,1,m,Fri Apr 11 2025 15:38:47 GMT-0500 (Central Daylight Time),60571.5,CFD-BM-029-026-HC.jpg,1500,solid,O,m,1047,3,1,22675.799999952316,37895.700000047684,7017,ATS,A,7
6,prac,1,A,haborder.png,1,z,Fri Apr 11 2025 15:38:47 GMT-0500 (Central Daylight Time),63620.5,CFD-WF-019-015-A.jpg,1000,solid,O,z,1213,12,1,25724.799999952316,37895.700000047684,7017,ATS,A,8
7,prac,1,A,haborder.png,1,z,Fri Apr 11 2025 15:38:47 GMT-0500 (Central Daylight Time),67252.89999997616,CFD-WM-013-015-A.jpg,1900,solid,O,z,905,8,1,29357.199999928474,37895.700000047684,7017,ATS,A,9
8,prac,1,A,haborder.png,1,m,Fri Apr 11 2025 15:38:47 GMT-0500 (Central Daylight Time),70151.80000007153,CFD-WM-004-005-HC.jpg,1400,solid,O,m,668,7,1,32256.100000023842,37895.700000047684,7017,ATS,A,10
9,prac,1,A,haborder.png,1,m,Fri Apr 11 2025 15:38:47 GMT-0500 (Central Daylight Time),73733.89999997616,CFD-BF-028-020-HC.jpg,2000,solid,O,m,761,5,1,35838.199999928474,37895.700000047684,7017,ATS,A,11
10,prac,1,A,haborder.png,1,m,Fri Apr 11 2025 15:38:47 GMT-0500 (Central Daylight Time),76849.80000007153,CFD-BM-017-052-HC.jpg,1700,solid,O,m,591,1,1,38954.10000002384,37895.700000047684,7017,ATS,A,12
1,prac,1,B,mfborder.png,1,m,Fri Apr 11 2025 15:38:47 GMT-0500 (Central Daylight Time),91944.39999997616,CFD-BM-029-026-HC.jpg,1700,dash,O,m,1108,1,1,3648.7999999523163,88295.60000002384,7017,ATS,A,1
2,prac,1,B,mfborder.png,1,z,Fri Apr 11 2025 15:38:47 GMT-0500 (Central Daylight Time),95342.60000002384,CFD-WF-002-008-HC.jpg,1900,dash,O,z,666,8,1,7047.0,88295.60000002384,7017,ATS,A,2
3,prac,1,B,mfborder.png,1,m,Fri Apr 11 2025 15:38:47 GMT-0500 (Central Daylight Time),99041.39999997616,CFD-WM-013-015-A.jpg,1700,dash,O,m,1199,9,1,10745.799999952316,88295.60000002384,7017,ATS,A,3
4,prac,1,B,mfborder.png,1,m,Fri Apr 11 2025 15:38:47 GMT-0500 (Central Daylight Time),102857.60000002384,CFD-WM-006-013-HC.jpg,1600,dash,O,m,1398,10,1,14562.0,88295.60000002384,7017,ATS,A,4
5,prac,1,B,mfborder.png,1,z,Fri Apr 11 2025 15:38:47 GMT-0500 (Central Daylight Time),106006.60000002384,CFD-BF-028-020-HC.jpg,1400,dash,O,z,919,7,1,17711.0,88295.60000002384,7017,ATS,A,5
6,prac,1,B,mfborder.png,1,z,Fri Apr 11 2025 15:38:47 GMT-0500 (Central Daylight Time),108572.39999997616,CFD-WF-017-016-HC.jpg,1000,dash,O,z,746,12,1,20276.799999952316,88295.60000002384,7017,ATS,A,6
7,prac,1,B,mfborder.png,1,z,Fri Apr 11 2025 15:38:47 GMT-0500 (Central Daylight Time),112154.60000002384,CFD-WF-003-014-A.jpg,1500,dash,O,z,1247,11,1,23859.0,88295.60000002384,7017,ATS,A,7
8,prac,1,B,mfborder.png,1,m,Fri Apr 11 2025 15:38:47 GMT-0500 (Central Daylight Time),115253.0,CFD-WM-019-013-A.jpg,1200,dash,O,m,1069,6,1,26957.399999976158,88295.60000002384,7017,ATS,A,8
9,prac,1,B,mfborder.png,1,m,Fri Apr 11 2025 15:38:47 GMT-0500 (Central Daylight Time),118602.60000002384,CFD-BM-010-019-A.jpg,1600,dash,O,m,939,2,1,30307.0,88295.60000002384,7017,ATS,A,9
10,prac,1,B,mfborder.png,1,m,Fri Apr 11 2025 15:38:47 GMT-0500 (Central Daylight Time),122200.70000004768,CFD-BM-005-010-A.jpg,2000,dash,O,m,775,5,1,33905.10000002384,88295.60000002384,7017,ATS,A,10
11,prac,1,B,mfborder.png,1,z,Fri Apr 11 2025 15:38:47 GMT-0500 (Central Daylight Time),124666.70000004768,CFD-BF-023-013-A.jpg,1000,dash,O,z,648,4,1,36371.10000002384,88295.60000002384,7017,ATS,A,11
12,prac,1,B,mfborder.png,1,z,Fri Apr 11 2025 15:38:47 GMT-0500 (Central Daylight Time),127566.20000004768,CFD-BF-010-005-HC.jpg,1500,dash,O,z,593,3,1,39270.60000002384,88295.60000002384,7017,ATS,A,12
0,test,1,A,haborder.png,0,z,Fri Apr 11 2025 15:38:47 GMT-0500 (Central Daylight Time),139645.10000002384,CFD-WF-003-014-A.jpg,1600,solid,O,None,1514,10,1,3132.600000023842,136512.5,7017,ATS,A,1
1,test,1,A,haborder.png,1,m,Fri Apr 11 2025 15:38:47 GMT-0500 (Central Daylight Time),142494.39999997616,CFD-BF-028-020-HC.jpg,2000,solid,O,m,830,5,1,5981.899999976158,136512.5,7017,ATS,A,2
2,test,1,A,haborder.png,1,z,Fri Apr 11 2025 15:38:47 GMT-0500 (Central Daylight Time),144643.70000004768,CFD-BF-023-013-A.jpg,1000,solid,O,z,1123,4,1,8131.200000047684,136512.5,7017,ATS,A,3
3,test,1,A,haborder.png,1,z,Fri Apr 11 2025 15:38:47 GMT-0500 (Central Daylight Time),147009.60000002384,CFD-BM-005-010-A.jpg,1600,solid,O,z,693,2,1,10497.100000023842,136512.5,7017,ATS,A,4
4,test,1,A,haborder.png,1,z,Fri Apr 11 2025 15:38:47 GMT-0500 (Central Daylight Time),149758.70000004768,CFD-WM-013-015-A.jpg,1900,solid,O,z,803,8,1,13246.200000047684,136512.5,7017,ATS,A,5
5,test,1,A,haborder.png,1,m,Fri Apr 11 2025 15:38:47 GMT-0500 (Central Daylight Time),151891.30000007153,CFD-WF-017-016-HC.jpg,1500,solid,O,m,582,11,1,15378.800000071526,136512.5,7017,ATS,A,6
6,test,1,A,haborder.png,1,m,Fri Apr 11 2025 15:38:47 GMT-0500 (Central Daylight Time),154257.10000002384,CFD-BM-017-052-HC.jpg,1700,solid,O,m,618,1,1,17744.600000023842,136512.5,7017,ATS,A,7
7,test,1,A,haborder.png,1,m,Fri Apr 11 2025 15:38:47 GMT-0500 (Central Daylight Time),156539.89999997616,CFD-BM-017-052-HC.jpg,1700,solid,O,m,532,1,1,20027.399999976158,136512.5,7017,ATS,A,8
8,test,1,A,haborder.png,1,m,Fri Apr 11 2025 15:38:47 GMT-0500 (Central Daylight Time),158622.30000007153,CFD-WM-004-005-HC.jpg,1400,solid,O,m,647,7,1,22109.800000071526,136512.5,7017,ATS,A,9
9,test,1,A,haborder.png,1,m,Fri Apr 11 2025 15:38:47 GMT-0500 (Central Daylight Time),160787.80000007153,CFD-BM-029-026-HC.jpg,1500,solid,O,m,630,3,1,24275.300000071526,136512.5,7017,ATS,A,10
10,test,1,A,haborder.png,1,m,Fri Apr 11 2025 15:38:47 GMT-0500 (Central Daylight Time),163170.89999997616,CFD-WM-006-013-HC.jpg,1700,solid,O,m,657,9,1,26658.399999976158,136512.5,7017,ATS,A,11
11,test,1,A,haborder.png,1,z,Fri Apr 11 2025 15:38:47 GMT-0500 (Central Daylight Time),165452.89999997616,CFD-BM-005-010-A.jpg,1600,solid,O,z,636,2,1,28940.399999976158,136512.5,7017,ATS,A,12
12,test,1,A,haborder.png,1,z,Fri Apr 11 2025 15:38:47 GMT-0500 (Central Daylight Time),167019.60000002384,CFD-WF-019-015-A.jpg,1000,solid,O,z,540,12,1,30507.100000023842,136512.5,7017,ATS,A,13
13,test,1,A,haborder.png,1,m,Fri Apr 11 2025 15:38:47 GMT-0500 (Central Daylight Time),169069.0,CFD-WM-004-005-HC.jpg,1400,solid,O,m,614,7,1,32556.5,136512.5,7017,ATS,A,14
14,test,1,A,haborder.png,1,m,Fri Apr 11 2025 15:38:47 GMT-0500 (Central Daylight Time),171285.0,CFD-BM-029-026-HC.jpg,1500,solid,O,m,674,3,1,34772.5,136512.5,7017,ATS,A,15
15,test,1,A,haborder.png,1,m,Fri Apr 11 2025 15:38:47 GMT-0500 (Central Daylight Time),173867.5,CFD-BF-028-020-HC.jpg,2000,solid,O,m,531,5,1,37355.0,136512.5,7017,ATS,A,16
16,test,1,A,haborder.png,1,z,Fri Apr 11 2025 15:38:47 GMT-0500 (Central Daylight Time),176533.20000004768,CFD-BF-039-039-A.jpg,1200,solid,O,z,1432,6,1,40020.700000047684,136512.5,7017,ATS,A,17
17,test,1,A,haborder.png,1,m,Fri Apr 11 2025 15:38:47 GMT-0500 (Central Daylight Time),178899.0,CFD-WM-006-013-HC.jpg,1700,solid,O,m,624,9,1,42386.5,136512.5,7017,ATS,A,18
18,test,1,A,haborder.png,1,z,Fri Apr 11 2025 15:38:47 GMT-0500 (Central Daylight Time),180598.70000004768,CFD-WF-019-015-A.jpg,1000,solid,O,z,638,12,1,44086.200000047684,136512.5,7017,ATS,A,19
19,test,1,A,haborder.png,1,z,Fri Apr 11 2025 15:38:47 GMT-0500 (Central Daylight Time),182281.5,CFD-BF-023-013-A.jpg,1000,solid,O,z,626,4,1,45769.0,136512.5,7017,ATS,A,20
20,test,1,A,haborder.png,1,z,Fri Apr 11 2025 15:38:47 GMT-0500 (Central Daylight Time),184264.10000002384,CFD-BF-039-039-A.jpg,1200,solid,O,z,744,6,1,47751.60000002384,136512.5,7017,ATS,A,21
21,test,1,A,haborder.png,1,z,Fri Apr 11 2025 15:38:47 GMT-0500 (Central Daylight Time),187129.89999997616,CFD-WF-003-014-A.jpg,1600,solid,O,z,1225,10,1,50617.39999997616,136512.5,7017,ATS,A,22
22,test,1,A,haborder.png,1,m,Fri Apr 11 2025 15:38:47 GMT-0500 (Central Daylight Time),189578.89999997616,CFD-WF-017-016-HC.jpg,1500,solid,O,m,907,11,1,53066.39999997616,136512.5,7017,ATS,A,23
23,test,1,A,haborder.png,1,z,Fri Apr 11 2025 15:38:47 GMT-0500 (Central Daylight Time),192378.20000004768,CFD-WM-013-015-A.jpg,1900,solid,O,z,850,8,1,55865.700000047684,136512.5,7017,ATS,A,24
1,test,1,B,mfborder.png,1,z,Fri Apr 11 2025 15:38:47 GMT-0500 (Central Daylight Time),216370.30000007153,CFD-BF-028-020-HC.jpg,1400,dash,O,z,980,7,1,2449.100000023842,213921.20000004768,7017,ATS,A,1
2,test,1,B,mfborder.png,1,m,Fri Apr 11 2025 15:38:47 GMT-0500 (Central Daylight Time),218702.60000002384,CFD-BM-029-026-HC.jpg,1700,dash,O,m,595,1,1,4781.399999976158,213921.20000004768,7017,ATS,A,2
3,test,1,B,mfborder.png,1,m,Fri Apr 11 2025 15:38:47 GMT-0500 (Central Daylight Time),220935.30000007153,CFD-WM-006-013-HC.jpg,1600,dash,O,m,587,10,1,7014.100000023842,213921.20000004768,7017,ATS,A,3
4,test,1,B,mfborder.png,1,z,Fri Apr 11 2025 15:38:47 GMT-0500 (Central Daylight Time),223084.70000004768,CFD-WF-003-014-A.jpg,1500,dash,O,z,589,11,1,9163.5,213921.20000004768,7017,ATS,A,4
5,test,1,B,mfborder.png,1,m,Fri Apr 11 2025 15:38:47 GMT-0500 (Central Daylight Time),226033.70000004768,CFD-BM-005-010-A.jpg,2000,dash,O,m,909,5,1,12112.5,213921.20000004768,7017,ATS,A,5
6,test,1,B,mfborder.png,1,z,Fri Apr 11 2025 15:38:47 GMT-0500 (Central Daylight Time),228116.89999997616,CFD-BF-023-013-A.jpg,1000,dash,O,z,1047,4,1,14195.699999928474,213921.20000004768,7017,ATS,A,6
7,test,1,B,mfborder.png,1,z,Fri Apr 11 2025 15:38:47 GMT-0500 (Central Daylight Time),230981.20000004768,CFD-WF-002-008-HC.jpg,1900,dash,O,z,911,8,1,17060.0,213921.20000004768,7017,ATS,A,7
8,test,1,B,mfborder.png,1,z,Fri Apr 11 2025 15:38:47 GMT-0500 (Central Daylight Time),233448.0,CFD-WF-002-008-HC.jpg,1900,dash,O,z,544,8,1,19526.799999952316,213921.20000004768,7017,ATS,A,8
9,test,1,B,mfborder.png,1,z,Fri Apr 11 2025 15:38:47 GMT-0500 (Central Daylight Time),235663.89999997616,CFD-BF-010-005-HC.jpg,1500,dash,O,z,669,3,1,21742.699999928474,213921.20000004768,7017,ATS,A,9
10,test,1,B,mfborder.png,1,m,Fri Apr 11 2025 15:38:47 GMT-0500 (Central Daylight Time),238063.20000004768,CFD-WM-013-015-A.jpg,1700,dash,O,m,644,9,1,24142.0,213921.20000004768,7017,ATS,A,10
11,test,1,B,mfborder.png,1,z,Fri Apr 11 2025 15:38:47 GMT-0500 (Central Daylight Time),240145.80000007153,CFD-BF-028-020-HC.jpg,1400,dash,O,z,642,7,1,26224.600000023842,213921.20000004768,7017,ATS,A,11
12,test,1,B,mfborder.png,1,z,Fri Apr 11 2025 15:38:47 GMT-0500 (Central Daylight Time),242029.0,CFD-BF-023-013-A.jpg,1000,dash,O,z,847,4,1,28107.799999952316,213921.20000004768,7017,ATS,A,12
13,test,1,B,mfborder.png,1,m,Fri Apr 11 2025 15:38:47 GMT-0500 (Central Daylight Time),244094.39999997616,CFD-WM-019-013-A.jpg,1200,dash,O,m,803,6,1,30173.199999928474,213921.20000004768,7017,ATS,A,13
14,test,1,B,mfborder.png,1,m,Fri Apr 11 2025 15:38:47 GMT-0500 (Central Daylight Time),246693.5,CFD-WM-013-015-A.jpg,1700,dash,O,m,846,9,1,32772.299999952316,213921.20000004768,7017,ATS,A,14
15,test,1,B,mfborder.png,1,m,Fri Apr 11 2025 15:38:47 GMT-0500 (Central Daylight Time),249109.39999997616,CFD-BM-029-026-HC.jpg,1700,dash,O,m,655,1,1,35188.199999928474,213921.20000004768,7017,ATS,A,15
16,test,1,B,mfborder.png,1,m,Fri Apr 11 2025 15:38:47 GMT-0500 (Central Daylight Time),251458.80000007153,CFD-BM-010-019-A.jpg,1600,dash,O,m,708,2,1,37537.60000002384,213921.20000004768,7017,ATS,A,16
17,test,1,B,mfborder.png,1,m,Fri Apr 11 2025 15:38:47 GMT-0500 (Central Daylight Time),254091.20000004768,CFD-BM-005-010-A.jpg,2000,dash,O,m,582,5,1,40170.0,213921.20000004768,7017,ATS,A,17
18,test,1,B,mfborder.png,1,m,Fri Apr 11 2025 15:38:47 GMT-0500 (Central Daylight Time),255973.20000004768,CFD-WM-019-013-A.jpg,1200,dash,O,m,637,6,1,42052.0,213921.20000004768,7017,ATS,A,18
19,test,1,B,mfborder.png,1,z,Fri Apr 11 2025 15:38:47 GMT-0500 (Central Daylight Time),257723.39999997616,CFD-WF-017-016-HC.jpg,1000,dash,O,z,708,12,1,43802.199999928474,213921.20000004768,7017,ATS,A,19
20,test,1,B,mfborder.png,1,m,Fri Apr 11 2025 15:38:47 GMT-0500 (Central Daylight Time),260022.5,CFD-BM-010-019-A.jpg,1600,dash,O,m,661,2,1,46101.299999952316,213921.20000004768,7017,ATS,A,20
21,test,1,B,mfborder.png,1,z,Fri Apr 11 2025 15:38:47 GMT-0500 (Central Daylight Time),261955.30000007153,CFD-WF-017-016-HC.jpg,1000,dash,O,z,866,12,1,48034.10000002384,213921.20000004768,7017,ATS,A,21
22,test,1,B,mfborder.png,1,z,Fri Apr 11 2025 15:38:47 GMT-0500 (Central Daylight Time),264170.8000000715,CFD-BF-010-005-HC.jpg,1500,dash,O,z,665,3,1,50249.60000002384,213921.20000004768,7017,ATS,A,22
23,test,1,B,mfborder.png,1,m,Fri Apr 11 2025 15:38:47 GMT-0500 (Central Daylight Time),266537.0,CFD-WM-006-013-HC.jpg,1600,dash,O,m,718,10,1,52615.799999952316,213921.20000004768,7017,ATS,A,23
24,test,1,B,mfborder.png,1,z,Fri Apr 11 2025 15:38:47 GMT-0500 (Central Daylight Time),268772.2000000477,CFD-WF-003-014-A.jpg,1500,dash,O,z,676,11,1,54851.0,213921.20000004768,7017,ATS,A,24
1,prac,1,C,haborder.png,1,m,Fri Apr 11 2025 15:38:47 GMT-0500 (Central Daylight Time),293695.3000000715,CFD-BM-029-026-HC.jpg,1500,solid,O,m,1126,10,1,3465.600000023842,290229.7000000477,7017,ATS,A,1
2,prac,1,C,mfborder.png,1,m,Fri Apr 11 2025 15:38:47 GMT-0500 (Central Daylight Time),297827.10000002384,CFD-BM-017-052-HC.jpg,2000,solid,O,m,1322,4,1,7597.399999976158,290229.7000000477,7017,ATS,A,2
2,prac,1,C,mfborder.png,0,m,Fri Apr 11 2025 15:38:47 GMT-0500 (Central Daylight Time),300992.7000000477,CFD-BM-005-010-A.jpg,1200,dash,O,z,1158,5,1,10763.0,290229.7000000477,7017,ATS,A,3
2,prac,1,C,haborder.png,0,z,Fri Apr 11 2025 15:38:47 GMT-0500 (Central Daylight Time),305241.0,CFD-BF-023-013-A.jpg,1900,dash,O,None,1515,7,1,15011.299999952316,290229.7000000477,7017,ATS,A,4
2,prac,1,C,haborder.png,0,z,Fri Apr 11 2025 15:38:47 GMT-0500 (Central Daylight Time),309156.10000002384,CFD-WF-003-014-A.jpg,1600,dash,O,None,1515,9,1,18926.399999976158,290229.7000000477,7017,ATS,A,5
3,prac,1,C,haborder.png,1,m,Fri Apr 11 2025 15:38:47 GMT-0500 (Central Daylight Time),312072.39999997616,CFD-WM-004-005-HC.jpg,1400,solid,O,m,693,12,1,21842.699999928474,290229.7000000477,7017,ATS,A,6
4,prac,1,C,haborder.png,1,m,Fri Apr 11 2025 15:38:47 GMT-0500 (Central Daylight Time),314504.89999997616,CFD-WM-004-005-HC.jpg,1000,dash,O,m,601,11,1,24275.199999928474,290229.7000000477,7017,ATS,A,7
4,prac,1,C,mfborder.png,0,z,Fri Apr 11 2025 15:38:47 GMT-0500 (Central Daylight Time),318203.0,CFD-WF-017-016-HC.jpg,1600,dash,O,m,1280,1,1,27973.299999952316,290229.7000000477,7017,ATS,A,8
4,prac,1,C,mfborder.png,0,z,Fri Apr 11 2025 15:38:47 GMT-0500 (Central Daylight Time),321518.89999997616,CFD-BF-028-020-HC.jpg,1000,dash,O,None,1515,3,1,31289.199999928474,290229.7000000477,7017,ATS,A,9
4,prac,1,C,mfborder.png,0,m,Fri Apr 11 2025 15:38:47 GMT-0500 (Central Daylight Time),324901.3000000715,CFD-WM-013-015-A.jpg,1700,solid,O,z,862,6,1,34671.60000002384,290229.7000000477,7017,ATS,A,10
4,prac,1,C,haborder.png,0,z,Fri Apr 11 2025 15:38:47 GMT-0500 (Central Daylight Time),328933.2000000477,CFD-BF-039-039-A.jpg,1700,solid,O,None,1515,8,1,38703.5,290229.7000000477,7017,ATS,A,11
4,prac,1,C,mfborder.png,0,z,Fri Apr 11 2025 15:38:47 GMT-0500 (Central Daylight Time),332765.39999997616,CFD-WF-019-015-A.jpg,1500,solid,O,None,1514,2,1,42535.699999928474,290229.7000000477,7017,ATS,A,12
0,prac,2,C,haborder.png,0,m,Fri Apr 11 2025 15:38:47 GMT-0500 (Central Daylight Time),341062.5,CFD-BM-029-026-HC.jpg,1500,solid,O,None,1514,10,1,50832.799999952316,290229.7000000477,7017,ATS,A,1
0,prac,2,C,haborder.png,0,z,Fri Apr 11 2025 15:38:47 GMT-0500 (Central Daylight Time),344994.0,CFD-WF-003-014-A.jpg,1600,dash,O,None,1514,9,1,54764.299999952316,290229.7000000477,7017,ATS,A,2
1,prac,2,C,mfborder.png,1,m,Fri Apr 11 2025 15:38:47 GMT-0500 (Central Daylight Time),348277.3000000715,CFD-WM-013-015-A.jpg,1700,solid,O,m,787,6,1,58047.60000002384,290229.7000000477,7017,ATS,A,3
1,prac,2,C,haborder.png,0,m,Fri Apr 11 2025 15:38:47 GMT-0500 (Central Daylight Time),352009.10000002384,CFD-WM-004-005-HC.jpg,1400,solid,O,None,1515,12,1,61779.39999997616,290229.7000000477,7017,ATS,A,4
2,prac,2,C,mfborder.png,1,z,Fri Apr 11 2025 15:38:47 GMT-0500 (Central Daylight Time),354491.7000000477,CFD-BF-028-020-HC.jpg,1000,dash,O,z,663,3,1,64262.0,290229.7000000477,7017,ATS,A,5
2,prac,2,C,haborder.png,0,z,Fri Apr 11 2025 15:38:47 GMT-0500 (Central Daylight Time),358140.39999997616,CFD-BF-023-013-A.jpg,1900,dash,O,m,929,7,1,67910.69999992847,290229.7000000477,7017,ATS,A,6
3,prac,2,C,haborder.png,1,m,Fri Apr 11 2025 15:38:47 GMT-0500 (Central Daylight Time),361306.10000002384,CFD-WM-004-005-HC.jpg,1000,dash,O,m,1357,11,1,71076.39999997616,290229.7000000477,7017,ATS,A,7
3,prac,2,C,mfborder.png,0,m,Fri Apr 11 2025 15:38:47 GMT-0500 (Central Daylight Time),365637.8000000715,CFD-BM-017-052-HC.jpg,2000,solid,O,None,1513,4,1,75408.10000002384,290229.7000000477,7017,ATS,A,8
4,prac,2,C,mfborder.png,1,z,Fri Apr 11 2025 15:38:47 GMT-0500 (Central Daylight Time),368920.0,CFD-WF-019-015-A.jpg,1500,solid,O,z,959,2,1,78690.29999995232,290229.7000000477,7017,ATS,A,9
4,prac,2,C,haborder.png,0,z,Fri Apr 11 2025 15:38:47 GMT-0500 (Central Daylight Time),372968.8000000715,CFD-BF-039-039-A.jpg,1700,solid,O,None,1514,8,1,82739.10000002384,290229.7000000477,7017,ATS,A,10
4,prac,2,C,mfborder.png,0,z,Fri Apr 11 2025 15:38:47 GMT-0500 (Central Daylight Time),376884.2000000477,CFD-WF-017-016-HC.jpg,1600,dash,O,None,1515,1,1,86654.5,290229.7000000477,7017,ATS,A,11
5,prac,2,C,mfborder.png,1,m,Fri Apr 11 2025 15:38:47 GMT-0500 (Central Daylight Time),379633.39999997616,CFD-BM-005-010-A.jpg,1200,dash,O,m,741,5,1,89403.69999992847,290229.7000000477,7017,ATS,A,12
0,test,1,C,mfborder.png,0,m,Fri Apr 11 2025 15:38:47 GMT-0500 (Central Daylight Time),395395.10000002384,CFD-WM-006-013-HC.jpg,1000,dash,O,None,1514,4,1,2549.5,392845.60000002384,7017,ATS,A,1
1,test,1,C,mfborder.png,1,m,Fri Apr 11 2025 15:38:47 GMT-0500 (Central Daylight Time),398960.5,CFD-WM-019-013-A.jpg,2000,dash,O,m,1495,5,1,6114.899999976158,392845.60000002384,7017,ATS,A,2
2,test,1,C,haborder.png,1,m,Fri Apr 11 2025 15:38:47 GMT-0500 (Central Daylight Time),401692.8000000715,CFD-BF-028-020-HC.jpg,1600,solid,O,m,1089,10,1,8847.200000047684,392845.60000002384,7017,ATS,A,3
2,test,1,C,mfborder.png,0,z,Fri Apr 11 2025 15:38:47 GMT-0500 (Central Daylight Time),404858.39999997616,CFD-BF-023-013-A.jpg,1600,dash,O,None,1514,2,1,12012.799999952316,392845.60000002384,7017,ATS,A,4
2,test,1,C,mfborder.png,0,z,Fri Apr 11 2025 15:38:47 GMT-0500 (Central Daylight Time),407907.39999997616,CFD-WF-003-014-A.jpg,1500,dash,O,None,1514,3,1,15061.799999952316,392845.60000002384,7017,ATS,A,5
2,test,1,C,haborder.png,0,z,Fri Apr 11 2025 15:38:47 GMT-0500 (Central Daylight Time),410640.10000002384,CFD-BM-010-019-A.jpg,1700,solid,O,m,959,9,1,17794.5,392845.60000002384,7017,ATS,A,6
2,test,1,C,haborder.png,0,z,Fri Apr 11 2025 15:38:47 GMT-0500 (Central Daylight Time),413589.10000002384,CFD-WM-013-015-A.jpg,1400,solid,O,None,1516,7,1,20743.5,392845.60000002384,7017,ATS,A,7
2,test,1,C,haborder.png,0,z,Fri Apr 11 2025 15:38:47 GMT-0500 (Central Daylight Time),417037.7000000477,CFD-BM-005-010-A.jpg,1900,solid,O,None,1513,8,1,24192.100000023842,392845.60000002384,7017,ATS,A,8
3,test,1,C,haborder.png,1,m,Fri Apr 11 2025 15:38:47 GMT-0500 (Central Daylight Time),419703.0,CFD-WF-002-008-HC.jpg,1500,solid,O,m,1120,11,1,26857.399999976158,392845.60000002384,7017,ATS,A,9
4,test,1,C,haborder.png,1,m,Fri Apr 11 2025 15:38:47 GMT-0500 (Central Daylight Time),422135.89999997616,CFD-WF-017-016-HC.jpg,1000,solid,O,m,1394,12,1,29290.299999952316,392845.60000002384,7017,ATS,A,10
5,test,1,C,mfborder.png,1,z,Fri Apr 11 2025 15:38:47 GMT-0500 (Central Daylight Time),425135.10000002384,CFD-BF-010-005-HC.jpg,1700,dash,O,z,1261,1,1,32289.5,392845.60000002384,7017,ATS,A,11
5,test,1,C,haborder.png,0,z,Fri Apr 11 2025 15:38:47 GMT-0500 (Central Daylight Time),428084.39999997616,CFD-WM-013-015-A.jpg,1400,solid,O,None,1514,7,1,35238.799999952316,392845.60000002384,7017,ATS,A,12
6,test,1,C,haborder.png,1,m,Fri Apr 11 2025 15:38:47 GMT-0500 (Central Daylight Time),430349.89999997616,CFD-WF-017-016-HC.jpg,1000,solid,O,m,1229,12,1,37504.299999952316,392845.60000002384,7017,ATS,A,13
7,test,1,C,mfborder.png,1,m,Fri Apr 11 2025 15:38:47 GMT-0500 (Central Daylight Time),432216.10000002384,CFD-WM-006-013-HC.jpg,1000,dash,O,m,791,4,1,39370.5,392845.60000002384,7017,ATS,A,14
7,test,1,C,mfborder.png,0,z,Fri Apr 11 2025 15:38:47 GMT-0500 (Central Daylight Time),435381.0,CFD-BF-023-013-A.jpg,1600,dash,O,None,1514,2,1,42535.39999997616,392845.60000002384,7017,ATS,A,15
7,test,1,C,haborder.png,0,z,Fri Apr 11 2025 15:38:47 GMT-0500 (Central Daylight Time),438614.10000002384,CFD-BM-010-019-A.jpg,1700,solid,O,None,1516,9,1,45768.5,392845.60000002384,7017,ATS,A,16
8,test,1,C,mfborder.png,1,m,Fri Apr 11 2025 15:38:47 GMT-0500 (Central Daylight Time),440880.10000002384,CFD-BM-029-026-HC.jpg,1200,dash,O,m,1003,6,1,48034.5,392845.60000002384,7017,ATS,A,17
9,test,1,C,mfborder.png,1,z,Fri Apr 11 2025 15:38:47 GMT-0500 (Central Daylight Time),443695.7000000477,CFD-BF-010-005-HC.jpg,1700,dash,O,z,1079,1,1,50850.10000002384,392845.60000002384,7017,ATS,A,18
10,test,1,C,haborder.png,1,z,Fri Apr 11 2025 15:38:47 GMT-0500 (Central Daylight Time),446560.60000002384,CFD-BM-005-010-A.jpg,1900,solid,O,z,917,8,1,53715.0,392845.60000002384,7017,ATS,A,19
10,test,1,C,haborder.png,0,m,Fri Apr 11 2025 15:38:47 GMT-0500 (Central Daylight Time),449693.5,CFD-BF-028-020-HC.jpg,1600,solid,O,None,1514,10,1,56847.89999997616,392845.60000002384,7017,ATS,A,20
11,test,1,C,mfborder.png,1,z,Fri Apr 11 2025 15:38:47 GMT-0500 (Central Daylight Time),452242.10000002384,CFD-WF-003-014-A.jpg,1500,dash,O,z,1008,3,1,59396.5,392845.60000002384,7017,ATS,A,21
11,test,1,C,mfborder.png,0,m,Fri Apr 11 2025 15:38:47 GMT-0500 (Central Daylight Time),454975.39999997616,CFD-BM-029-026-HC.jpg,1200,dash,O,None,1515,6,1,62129.799999952316,392845.60000002384,7017,ATS,A,22
11,test,1,C,mfborder.png,0,m,Fri Apr 11 2025 15:38:47 GMT-0500 (Central Daylight Time),458524.2000000477,CFD-WM-019-013-A.jpg,2000,dash,O,None,1516,5,1,65678.60000002384,392845.60000002384,7017,ATS,A,23
11,test,1,C,haborder.png,0,m,Fri Apr 11 2025 15:38:47 GMT-0500 (Central Daylight Time),461589.89999997616,CFD-WF-002-008-HC.jpg,1500,solid,O,None,1515,11,1,68744.29999995232,392845.60000002384,7017,ATS,A,24
1,test,2,C,haborder.png,1,z,Fri Apr 11 2025 15:38:47 GMT-0500 (Central Daylight Time),478850.10000002384,CFD-BF-039-039-A.jpg,1900,solid,O,z,1015,8,1,2965.100000023842,475885.0,7017,ATS,A,1
2,test,2,C,haborder.png,1,m,Fri Apr 11 2025 15:38:47 GMT-0500 (Central Daylight Time),481350.0,CFD-BM-029-026-HC.jpg,1600,solid,O,m,860,10,1,5465.0,475885.0,7017,ATS,A,2
3,test,2,C,haborder.png,1,m,Fri Apr 11 2025 15:38:47 GMT-0500 (Central Daylight Time),483915.8000000715,CFD-WM-004-005-HC.jpg,1500,solid,O,m,993,11,1,8030.800000071526,475885.0,7017,ATS,A,3
4,test,2,C,mfborder.png,1,z,Fri Apr 11 2025 15:38:47 GMT-0500 (Central Daylight Time),486814.60000002384,CFD-WF-017-016-HC.jpg,1700,dash,O,z,1145,1,1,10929.600000023842,475885.0,7017,ATS,A,4
5,test,2,C,mfborder.png,1,z,Fri Apr 11 2025 15:38:47 GMT-0500 (Central Daylight Time),489763.8000000715,CFD-WF-019-015-A.jpg,1600,dash,O,z,1301,2,1,13878.800000071526,475885.0,7017,ATS,A,5
6,test,2,C,haborder.png,1,m,Fri Apr 11 2025 15:38:47 GMT-0500 (Central Daylight Time),492479.60000002384,CFD-WM-004-005-HC.jpg,1500,solid,O,m,1170,11,1,16594.600000023842,475885.0,7017,ATS,A,6
7,test,2,C,mfborder.png,1,m,Fri Apr 11 2025 15:38:47 GMT-0500 (Central Daylight Time),494662.10000002384,CFD-BM-017-052-HC.jpg,1000,dash,O,m,1119,4,1,18777.100000023842,475885.0,7017,ATS,A,7
7,test,2,C,mfborder.png,0,z,Fri Apr 11 2025 15:38:47 GMT-0500 (Central Daylight Time),497711.5,CFD-BF-028-020-HC.jpg,1500,dash,O,None,1514,3,1,21826.5,475885.0,7017,ATS,A,8
8,test,2,C,haborder.png,1,z,Fri Apr 11 2025 15:38:47 GMT-0500 (Central Daylight Time),501143.39999997616,CFD-BF-039-039-A.jpg,1900,solid,O,z,1486,8,1,25258.399999976158,475885.0,7017,ATS,A,9
9,test,2,C,mfborder.png,1,m,Fri Apr 11 2025 15:38:47 GMT-0500 (Central Daylight Time),503225.60000002384,CFD-BM-017-052-HC.jpg,1000,dash,O,m,1041,4,1,27340.600000023842,475885.0,7017,ATS,A,10
10,test,2,C,haborder.png,1,z,Fri Apr 11 2025 15:38:47 GMT-0500 (Central Daylight Time),505541.89999997616,CFD-BF-023-013-A.jpg,1400,solid,O,z,879,7,1,29656.899999976158,475885.0,7017,ATS,A,11
10,test,2,C,mfborder.png,0,m,Fri Apr 11 2025 15:38:47 GMT-0500 (Central Daylight Time),508291.2000000477,CFD-WM-013-015-A.jpg,1200,dash,O,None,1515,6,1,32406.200000047684,475885.0,7017,ATS,A,12
11,test,2,C,mfborder.png,1,m,Fri Apr 11 2025 15:38:47 GMT-0500 (Central Daylight Time),511006.10000002384,CFD-WM-013-015-A.jpg,1200,dash,O,m,1445,6,1,35121.10000002384,475885.0,7017,ATS,A,13
12,test,2,C,haborder.png,1,z,Fri Apr 11 2025 15:38:47 GMT-0500 (Central Daylight Time),513505.3000000715,CFD-BF-023-013-A.jpg,1400,solid,O,z,1066,7,1,37620.300000071526,475885.0,7017,ATS,A,14
13,test,2,C,haborder.png,1,z,Fri Apr 11 2025 15:38:47 GMT-0500 (Central Daylight Time),516072.0,CFD-WF-003-014-A.jpg,1700,solid,O,z,820,9,1,40187.0,475885.0,7017,ATS,A,15
13,test,2,C,mfborder.png,0,z,Fri Apr 11 2025 15:38:47 GMT-0500 (Central Daylight Time),519321.10000002384,CFD-WF-017-016-HC.jpg,1700,dash,O,None,1516,1,1,43436.10000002384,475885.0,7017,ATS,A,16
13,test,2,C,mfborder.png,0,m,Fri Apr 11 2025 15:38:47 GMT-0500 (Central Daylight Time),522869.8000000715,CFD-BM-005-010-A.jpg,2000,dash,O,None,1514,5,1,46984.800000071526,475885.0,7017,ATS,A,17
14,test,2,C,haborder.png,1,m,Fri Apr 11 2025 15:38:47 GMT-0500 (Central Daylight Time),524806.0,CFD-WM-004-005-HC.jpg,1000,solid,O,m,877,12,1,48921.0,475885.0,7017,ATS,A,18
15,test,2,C,haborder.png,1,z,Fri Apr 11 2025 15:38:47 GMT-0500 (Central Daylight Time),527501.3999999762,CFD-WF-003-014-A.jpg,1700,solid,O,z,955,9,1,51616.39999997616,475885.0,7017,ATS,A,19
15,test,2,C,mfborder.png,0,m,Fri Apr 11 2025 15:38:47 GMT-0500 (Central Daylight Time),531050.3999999762,CFD-BM-005-010-A.jpg,2000,dash,O,None,1514,5,1,55165.39999997616,475885.0,7017,ATS,A,20
15,test,2,C,mfborder.png,0,z,Fri Apr 11 2025 15:38:47 GMT-0500 (Central Daylight Time),534115.8000000715,CFD-BF-028-020-HC.jpg,1500,dash,O,None,1516,3,1,58230.800000071526,475885.0,7017,ATS,A,21
16,test,2,C,haborder.png,1,m,Fri Apr 11 2025 15:38:47 GMT-0500 (Central Daylight Time),537081.3999999762,CFD-BM-029-026-HC.jpg,1600,solid,O,m,1333,10,1,61196.39999997616,475885.0,7017,ATS,A,22
17,test,2,C,haborder.png,1,m,Fri Apr 11 2025 15:38:47 GMT-0500 (Central Daylight Time),538864.3000000715,CFD-WM-004-005-HC.jpg,1000,solid,O,m,721,12,1,62979.300000071526,475885.0,7017,ATS,A,23
18,test,2,C,mfborder.png,1,z,Fri Apr 11 2025 15:38:47 GMT-0500 (Central Daylight Time),541981.3000000715,CFD-WF-019-015-A.jpg,1600,dash,O,z,1481,2,1,66096.30000007153,475885.0,7017,ATS,A,24
0,test,3,C,haborder.png,0,m,Fri Apr 11 2025 15:38:47 GMT-0500 (Central Daylight Time),546195.5,CFD-BF-028-020-HC.jpg,1600,solid,O,None,1507,10,1,3165.600000023842,543029.8999999762,7017,ATS,A,1
1,test,3,C,haborder.png,1,m,Fri Apr 11 2025 15:38:47 GMT-0500 (Central Daylight Time),547911.7000000477,CFD-WF-017-016-HC.jpg,1000,solid,O,m,678,12,1,4881.800000071526,543029.8999999762,7017,ATS,A,2
1,test,3,C,mfborder.png,0,m,Fri Apr 11 2025 15:38:47 GMT-0500 (Central Daylight Time),551460.3000000715,CFD-WM-019-013-A.jpg,2000,dash,O,None,1515,5,1,8430.400000095367,543029.8999999762,7017,ATS,A,3
2,test,3,C,haborder.png,1,z,Fri Apr 11 2025 15:38:47 GMT-0500 (Central Daylight Time),554342.6000000238,CFD-BM-005-010-A.jpg,1900,solid,O,z,946,8,1,11312.700000047684,543029.8999999762,7017,ATS,A,4
2,test,3,C,mfborder.png,0,z,Fri Apr 11 2025 15:38:47 GMT-0500 (Central Daylight Time),557491.7000000477,CFD-BF-023-013-A.jpg,1600,dash,O,None,1515,2,1,14461.800000071526,543029.8999999762,7017,ATS,A,5
3,test,3,C,haborder.png,1,z,Fri Apr 11 2025 15:38:47 GMT-0500 (Central Daylight Time),559807.6000000238,CFD-WM-013-015-A.jpg,1400,solid,O,z,870,7,1,16777.700000047684,543029.8999999762,7017,ATS,A,6
3,test,3,C,haborder.png,0,z,Fri Apr 11 2025 15:38:47 GMT-0500 (Central Daylight Time),563056.6000000238,CFD-BM-010-019-A.jpg,1700,solid,O,None,1514,9,1,20026.700000047684,543029.8999999762,7017,ATS,A,7
4,test,3,C,mfborder.png,1,z,Fri Apr 11 2025 15:38:47 GMT-0500 (Central Daylight Time),566121.3999999762,CFD-BF-023-013-A.jpg,1600,dash,O,z,1399,2,1,23091.5,543029.8999999762,7017,ATS,A,8
5,test,3,C,haborder.png,1,z,Fri Apr 11 2025 15:38:47 GMT-0500 (Central Daylight Time),568704.6000000238,CFD-WM-013-015-A.jpg,1400,solid,O,z,1153,7,1,25674.700000047684,543029.8999999762,7017,ATS,A,9
6,test,3,C,mfborder.png,1,m,Fri Apr 11 2025 15:38:47 GMT-0500 (Central Daylight Time),570654.2000000477,CFD-WM-006-013-HC.jpg,1000,dash,O,m,905,4,1,27624.300000071526,543029.8999999762,7017,ATS,A,10
7,test,3,C,haborder.png,1,z,Fri Apr 11 2025 15:38:47 GMT-0500 (Central Daylight Time),573320.0,CFD-BM-010-019-A.jpg,1700,solid,O,z,903,9,1,30290.100000023842,543029.8999999762,7017,ATS,A,11
7,test,3,C,mfborder.png,0,z,Fri Apr 11 2025 15:38:47 GMT-0500 (Central Daylight Time),576368.8000000715,CFD-WF-003-014-A.jpg,1500,dash,O,None,1515,3,1,33338.90000009537,543029.8999999762,7017,ATS,A,12
8,test,3,C,haborder.png,1,m,Fri Apr 11 2025 15:38:47 GMT-0500 (Central Daylight Time),579201.2000000477,CFD-WF-002-008-HC.jpg,1500,solid,O,m,1258,11,1,36171.300000071526,543029.8999999762,7017,ATS,A,13
8,test,3,C,mfborder.png,0,m,Fri Apr 11 2025 15:38:47 GMT-0500 (Central Daylight Time),581750.3000000715,CFD-WM-006-013-HC.jpg,1000,dash,O,None,1514,4,1,38720.40000009537,543029.8999999762,7017,ATS,A,14
9,test,3,C,haborder.png,1,m,Fri Apr 11 2025 15:38:47 GMT-0500 (Central Daylight Time),584466.2000000477,CFD-BF-028-020-HC.jpg,1600,solid,O,m,1055,10,1,41436.300000071526,543029.8999999762,7017,ATS,A,15
9,test,3,C,mfborder.png,0,z,Fri Apr 11 2025 15:38:47 GMT-0500 (Central Daylight Time),587515.3000000715,CFD-WF-003-014-A.jpg,1500,dash,O,None,1514,3,1,44485.40000009537,543029.8999999762,7017,ATS,A,16
10,test,3,C,haborder.png,1,z,Fri Apr 11 2025 15:38:47 GMT-0500 (Central Daylight Time),590664.1000000238,CFD-BM-005-010-A.jpg,1900,solid,O,z,1211,8,1,47634.200000047684,543029.8999999762,7017,ATS,A,17
11,test,3,C,haborder.png,1,m,Fri Apr 11 2025 15:38:47 GMT-0500 (Central Daylight Time),592613.2000000477,CFD-WF-017-016-HC.jpg,1000,solid,O,m,905,12,1,49583.300000071526,543029.8999999762,7017,ATS,A,18
12,test,3,C,mfborder.png,1,z,Fri Apr 11 2025 15:38:47 GMT-0500 (Central Daylight Time),595662.7000000477,CFD-BF-010-005-HC.jpg,1700,dash,O,z,1287,1,1,52632.800000071526,543029.8999999762,7017,ATS,A,19
13,test,3,C,mfborder.png,1,m,Fri Apr 11 2025 15:38:47 GMT-0500 (Central Daylight Time),599028.0,CFD-WM-019-013-A.jpg,2000,dash,O,m,1315,5,1,55998.10000002384,543029.8999999762,7017,ATS,A,20
14,test,3,C,haborder.png,1,m,Fri Apr 11 2025 15:38:47 GMT-0500 (Central Daylight Time),601843.7000000477,CFD-WF-002-008-HC.jpg,1500,solid,O,m,1266,11,1,58813.800000071526,543029.8999999762,7017,ATS,A,21
14,test,3,C,mfborder.png,0,m,Fri Apr 11 2025 15:38:47 GMT-0500 (Central Daylight Time),604593.3999999762,CFD-BM-029-026-HC.jpg,1200,dash,O,None,1514,6,1,61563.5,543029.8999999762,7017,ATS,A,22
15,test,3,C,mfborder.png,1,z,Fri Apr 11 2025 15:38:47 GMT-0500 (Central Daylight Time),607825.3000000715,CFD-BF-010-005-HC.jpg,1700,dash,O,z,1493,1,1,64795.40000009537,543029.8999999762,7017,ATS,A,23
16,test,3,C,mfborder.png,1,m,Fri Apr 11 2025 15:38:47 GMT-0500 (Central Daylight Time),610057.8000000715,CFD-BM-029-026-HC.jpg,1200,dash,O,m,973,6,1,67027.90000009537,543029.8999999762,7017,ATS,A,24
0,test,4,C,mfborder.png,0,m,Fri Apr 11 2025 15:38:47 GMT-0500 (Central Daylight Time),614589.5,CFD-WM-013-015-A.jpg,1200,dash,O,None,1516,6,1,2749.7999999523163,611839.7000000477,7017,ATS,A,1
0,test,4,C,mfborder.png,0,z,Fri Apr 11 2025 15:38:47 GMT-0500 (Central Daylight Time),617638.8000000715,CFD-BF-028-020-HC.jpg,1500,dash,O,None,1509,3,1,5799.100000023842,611839.7000000477,7017,ATS,A,2
1,test,4,C,mfborder.png,1,m,Fri Apr 11 2025 15:38:47 GMT-0500 (Central Daylight Time),620071.2000000477,CFD-BM-017-052-HC.jpg,1000,dash,O,m,1387,4,1,8231.5,611839.7000000477,7017,ATS,A,3
2,test,4,C,mfborder.png,1,z,Fri Apr 11 2025 15:38:47 GMT-0500 (Central Daylight Time),622569.5,CFD-WF-019-015-A.jpg,1600,dash,O,z,859,2,1,10729.799999952316,611839.7000000477,7017,ATS,A,4
3,test,4,C,haborder.png,1,m,Fri Apr 11 2025 15:38:47 GMT-0500 (Central Daylight Time),625301.8999999762,CFD-BM-029-026-HC.jpg,1600,solid,O,m,1105,10,1,13462.199999928474,611839.7000000477,7017,ATS,A,5
4,test,4,C,haborder.png,1,z,Fri Apr 11 2025 15:38:47 GMT-0500 (Central Daylight Time),628101.5,CFD-BF-039-039-A.jpg,1900,solid,O,z,882,8,1,16261.799999952316,611839.7000000477,7017,ATS,A,6
5,test,4,C,mfborder.png,1,m,Fri Apr 11 2025 15:38:47 GMT-0500 (Central Daylight Time),631617.2000000477,CFD-BM-005-010-A.jpg,2000,dash,O,m,1476,5,1,19777.5,611839.7000000477,7017,ATS,A,7
6,test,4,C,haborder.png,1,m,Fri Apr 11 2025 15:38:47 GMT-0500 (Central Daylight Time),634299.8000000715,CFD-WM-004-005-HC.jpg,1500,solid,O,m,1140,11,1,22460.100000023842,611839.7000000477,7017,ATS,A,8
7,test,4,C,mfborder.png,1,z,Fri Apr 11 2025 15:38:47 GMT-0500 (Central Daylight Time),636632.3999999762,CFD-WF-017-016-HC.jpg,1700,dash,O,z,594,1,1,24792.699999928474,611839.7000000477,7017,ATS,A,9
8,test,4,C,haborder.png,1,m,Fri Apr 11 2025 15:38:47 GMT-0500 (Central Daylight Time),638631.7000000477,CFD-WM-004-005-HC.jpg,1000,solid,O,m,961,12,1,26792.0,611839.7000000477,7017,ATS,A,10
9,test,4,C,mfborder.png,1,m,Fri Apr 11 2025 15:38:47 GMT-0500 (Central Daylight Time),641314.1000000238,CFD-WM-013-015-A.jpg,1200,dash,O,m,1418,6,1,29474.399999976158,611839.7000000477,7017,ATS,A,11
10,test,4,C,mfborder.png,1,m,Fri Apr 11 2025 15:38:47 GMT-0500 (Central Daylight Time),644613.1000000238,CFD-BM-005-010-A.jpg,2000,dash,O,m,1257,5,1,32773.39999997616,611839.7000000477,7017,ATS,A,12
11,test,4,C,haborder.png,1,m,Fri Apr 11 2025 15:38:47 GMT-0500 (Central Daylight Time),646545.0,CFD-WM-004-005-HC.jpg,1000,solid,O,m,891,12,1,34705.299999952316,611839.7000000477,7017,ATS,A,13
12,test,4,C,haborder.png,1,z,Fri Apr 11 2025 15:38:47 GMT-0500 (Central Daylight Time),649361.3999999762,CFD-BF-023-013-A.jpg,1400,solid,O,z,1385,7,1,37521.699999928474,611839.7000000477,7017,ATS,A,14
13,test,4,C,haborder.png,1,m,Fri Apr 11 2025 15:38:47 GMT-0500 (Central Daylight Time),651843.8999999762,CFD-BM-029-026-HC.jpg,1600,solid,O,m,816,10,1,40004.199999928474,611839.7000000477,7017,ATS,A,15
14,test,4,C,haborder.png,1,z,Fri Apr 11 2025 15:38:47 GMT-0500 (Central Daylight Time),654543.1000000238,CFD-BF-023-013-A.jpg,1400,solid,O,z,1270,7,1,42703.39999997616,611839.7000000477,7017,ATS,A,16
15,test,4,C,mfborder.png,1,z,Fri Apr 11 2025 15:38:47 GMT-0500 (Central Daylight Time),657375.6000000238,CFD-WF-017-016-HC.jpg,1700,dash,O,z,1095,1,1,45535.89999997616,611839.7000000477,7017,ATS,A,17
16,test,4,C,mfborder.png,1,z,Fri Apr 11 2025 15:38:47 GMT-0500 (Central Daylight Time),659958.1000000238,CFD-BF-028-020-HC.jpg,1500,dash,O,z,1010,3,1,48118.39999997616,611839.7000000477,7017,ATS,A,18
17,test,4,C,haborder.png,1,z,Fri Apr 11 2025 15:38:47 GMT-0500 (Central Daylight Time),663023.7000000477,CFD-WF-003-014-A.jpg,1700,solid,O,z,1328,9,1,51184.0,611839.7000000477,7017,ATS,A,19
18,test,4,C,haborder.png,1,m,Fri Apr 11 2025 15:38:47 GMT-0500 (Central Daylight Time),665722.8000000715,CFD-WM-004-005-HC.jpg,1500,solid,O,m,1150,11,1,53883.10000002384,611839.7000000477,7017,ATS,A,20
19,test,4,C,mfborder.png,1,m,Fri Apr 11 2025 15:38:47 GMT-0500 (Central Daylight Time),668122.0,CFD-BM-017-052-HC.jpg,1000,dash,O,m,1359,4,1,56282.299999952316,611839.7000000477,7017,ATS,A,21
20,test,4,C,haborder.png,1,z,Fri Apr 11 2025 15:38:47 GMT-0500 (Central Daylight Time),670771.3999999762,CFD-WF-003-014-A.jpg,1700,solid,O,z,883,9,1,58931.699999928474,611839.7000000477,7017,ATS,A,22
21,test,4,C,mfborder.png,1,z,Fri Apr 11 2025 15:38:47 GMT-0500 (Central Daylight Time),673720.0,CFD-WF-019-015-A.jpg,1600,dash,O,z,1310,2,1,61880.299999952316,611839.7000000477,7017,ATS,A,23
22,test,4,C,haborder.png,1,z,Fri Apr 11 2025 15:38:47 GMT-0500 (Central Daylight Time),677118.3000000715,CFD-BF-039-039-A.jpg,1900,solid,O,z,1453,8,1,65278.60000002384,611839.7000000477,7017,ATS,A,24
