Q,Q1,Q2,Q3,Q4,acc_sum,block,block_c,correct,correct_response,datetime,endtime,project,response,response_time,row_sel,session_number,squiggle1,squiggle1x,squiggle1y,squiggle2,squiggle2x,squiggle2y,squiggle3,squiggle3x,squiggle3y,squiggle4,squiggle4x,squiggle4y,start_end,starttime,subject_id,target_congruent,task,task_vers,testsquiggle,testsquigglex,testsquiggley,time_practice_delay,time_practice_fixation,time_practice_stimuli,time_practice_study,time_test_delay,time_test_fixation,time_test_stimuli,time_test_study,trial
1,1,0,0,0,1,prac,1,1,z,Wed Apr 02 2025 09:59:48 GMT-0500 (Central Daylight Time),121469.5,O,z,1446,1,1,116.bmp,-120,-120,117.bmp,120,-120,118.bmp,-120,120,119.bmp,120,120,10259.799999952316,111209.70000004768,7088,yes,SM,A,116.bmp,-120,-120,115185,109160,117201,111171,,,,,1
3,0,0,1,0,1,prac,1,0,m,Wed Apr 02 2025 09:59:48 GMT-0500 (Central Daylight Time),132115.20000004768,O,z,1834,2,1,120.bmp,-120,-120,121.bmp,120,-120,122.bmp,-120,120,123.bmp,120,120,10640.5,121474.70000004768,7088,no,SM,A,123.bmp,-120,120,125450,119425,127453,121436,,,,,2
4,0,0,0,1,1,prac,1,0,m,Wed Apr 02 2025 09:59:48 GMT-0500 (Central Daylight Time),142912.10000002384,O,z,1967,3,1,124.bmp,-120,-120,125.bmp,120,-120,126.bmp,-120,120,127.bmp,120,120,10791.399999976158,132120.70000004768,7088,no,SM,A,124.bmp,120,120,136098,130071,138113,132082,,,,,3
2,0,1,0,0,1,prac,1,0,z,Wed Apr 02 2025 09:59:48 GMT-0500 (Central Daylight Time),153740.89999997616,O,None,2015,4,1,128.bmp,-120,-120,129.bmp,120,-120,130.bmp,-120,120,131.bmp,120,120,10824.600000023842,142916.29999995232,7088,yes,SM,A,129.bmp,120,-120,146894,140867,148910,142880,,,,,4
3,0,0,1,0,2,prac,1,1,z,Wed Apr 02 2025 09:59:48 GMT-0500 (Central Daylight Time),163772.0,O,z,1226,5,1,132.bmp,-120,-120,133.bmp,120,-120,134.bmp,-120,120,135.bmp,120,120,10025.299999952316,153746.70000004768,7088,yes,SM,A,134.bmp,-120,120,157724,151697,159726,153708,,,,,5
1,1,0,0,0,2,prac,1,0,m,Wed Apr 02 2025 09:59:48 GMT-0500 (Central Daylight Time),173786.89999997616,O,z,1189,6,1,136.bmp,-120,-120,137.bmp,120,-120,138.bmp,-120,120,139.bmp,120,120,10009.399999976158,163777.5,7088,no,SM,A,139.bmp,-120,-120,167756,161728,169771,163741,,,,,6
2,0,1,0,0,3,prac,1,1,m,Wed Apr 02 2025 09:59:48 GMT-0500 (Central Daylight Time),183965.89999997616,O,m,1360,7,1,140.bmp,-120,-120,141.bmp,120,-120,142.bmp,-120,120,143.bmp,120,120,10173.399999976158,173792.5,7088,no,SM,A,140.bmp,120,-120,177767,171743,179784,173752,,,,,7
4,0,0,0,1,4,prac,1,1,z,Wed Apr 02 2025 09:59:48 GMT-0500 (Central Daylight Time),194195.5,O,z,1414,8,1,144.bmp,-120,-120,145.bmp,120,-120,146.bmp,-120,120,147.bmp,120,120,10221.100000023842,183974.39999997616,7088,yes,SM,A,147.bmp,120,120,187948,181925,189964,183933,,,,,8
1,1,0,0,0,1,prac,2,1,z,Wed Apr 02 2025 09:59:48 GMT-0500 (Central Daylight Time),209206.10000002384,O,z,1581,1,1,116.bmp,-120,-120,117.bmp,120,-120,118.bmp,-120,120,119.bmp,120,120,10373.399999976158,198832.70000004768,7088,yes,SM,A,116.bmp,-120,-120,202793,196783,204810,198792,,,,,1
3,0,0,1,0,1,prac,2,0,m,Wed Apr 02 2025 09:59:48 GMT-0500 (Central Daylight Time),219405.20000004768,O,z,1377,2,1,120.bmp,-120,-120,121.bmp,120,-120,122.bmp,-120,120,123.bmp,120,120,10192.800000071526,209212.39999997616,7088,no,SM,A,123.bmp,-120,120,213190,207162,215206,209174,,,,,2
4,0,0,0,1,2,prac,2,1,m,Wed Apr 02 2025 09:59:48 GMT-0500 (Central Daylight Time),229585.0,O,m,1366,3,1,124.bmp,-120,-120,125.bmp,120,-120,126.bmp,-120,120,127.bmp,120,120,10175.299999952316,219409.70000004768,7088,no,SM,A,124.bmp,120,120,223386,217360,225403,219371,,,,,3
2,0,1,0,0,3,prac,2,1,z,Wed Apr 02 2025 09:59:48 GMT-0500 (Central Daylight Time),239664.79999995232,O,z,1267,4,1,128.bmp,-120,-120,129.bmp,120,-120,130.bmp,-120,120,131.bmp,120,120,10076.5,229588.29999995232,7088,yes,SM,A,129.bmp,120,-120,233566,227539,235582,229552,,,,,4
3,0,0,1,0,3,prac,2,0,z,Wed Apr 02 2025 09:59:48 GMT-0500 (Central Daylight Time),250495.60000002384,O,None,2014,5,1,132.bmp,-120,-120,133.bmp,120,-120,134.bmp,-120,120,135.bmp,120,120,10827.100000023842,239668.5,7088,yes,SM,A,134.bmp,-120,120,243647,237619,245663,239631,,,,,5
1,1,0,0,0,4,prac,2,1,m,Wed Apr 02 2025 09:59:48 GMT-0500 (Central Daylight Time),260660.5,O,m,1354,6,1,136.bmp,-120,-120,137.bmp,120,-120,138.bmp,-120,120,139.bmp,120,120,10160.399999976158,250500.10000002384,7088,no,SM,A,139.bmp,-120,-120,254475,248450,256477,250461,,,,,6
2,0,1,0,0,5,prac,2,1,m,Wed Apr 02 2025 09:59:48 GMT-0500 (Central Daylight Time),270604.5,O,m,1128,7,1,140.bmp,-120,-120,141.bmp,120,-120,142.bmp,-120,120,143.bmp,120,120,9939.600000023842,260664.89999997616,7088,no,SM,A,140.bmp,120,-120,264640,258615,266656,260624,,,,,7
4,0,0,0,1,6,prac,2,1,z,Wed Apr 02 2025 09:59:48 GMT-0500 (Central Daylight Time),280968.10000002384,O,z,1549,8,1,144.bmp,-120,-120,145.bmp,120,-120,146.bmp,-120,120,147.bmp,120,120,10359.300000071526,270608.7999999523,7088,yes,SM,A,147.bmp,120,120,274587,268559,276602,270571,,,,,8
4,0,0,0,1,1,test,1,1,m,Wed Apr 02 2025 09:59:48 GMT-0500 (Central Daylight Time),298112.7999999523,O,m,1025,1,1,148.bmp,-120,-120,149.bmp,120,-120,150.bmp,-120,120,143.bmp,120,120,9070.799999952316,289042.0,7088,no,SM,A,150.bmp,120,120,274587,268559,276602,270571,293014.0,286992.0,295031.0,288999.0,1
2,0,1,0,0,2,test,1,1,m,Wed Apr 02 2025 09:59:48 GMT-0500 (Central Daylight Time),307593.7000000477,O,m,1432,2,1,101.bmp,-120,-120,102.bmp,120,-120,103.bmp,-120,120,104.bmp,120,120,9477.700000047684,298116.0,7088,no,SM,A,103.bmp,120,-120,274587,268559,276602,270571,302095.0,296066.0,304111.0,298078.0,2
1,1,0,0,0,3,test,1,1,z,Wed Apr 02 2025 09:59:48 GMT-0500 (Central Daylight Time),317556.2000000477,O,z,1913,3,1,105.bmp,-120,-120,106.bmp,120,-120,107.bmp,-120,120,108.bmp,120,120,9958.0,307598.2000000477,7088,yes,SM,A,105.bmp,-120,-120,274587,268559,276602,270571,311576.0,305548.0,313591.0,307561.0,3
3,0,0,1,0,4,test,1,1,m,Wed Apr 02 2025 09:59:48 GMT-0500 (Central Daylight Time),326819.39999997616,O,m,1204,4,1,109.bmp,-120,-120,110.bmp,120,-120,111.bmp,-120,120,112.bmp,120,120,9258.0,317561.39999997616,7088,no,SM,A,109.bmp,-120,120,274587,268559,276602,270571,321537.0,315512.0,323555.0,317522.0,4
2,0,1,0,0,5,test,1,1,z,Wed Apr 02 2025 09:59:48 GMT-0500 (Central Daylight Time),336699.7000000477,O,z,1837,5,1,113.bmp,-120,-120,114.bmp,120,-120,115.bmp,-120,120,116.bmp,120,120,9876.700000047684,326823.0,7088,yes,SM,A,114.bmp,120,-120,274587,268559,276602,270571,330801.0,324773.0,332802.0,326786.0,5
3,0,0,1,0,6,test,1,1,z,Wed Apr 02 2025 09:59:48 GMT-0500 (Central Daylight Time),346314.2999999523,O,z,1565,6,1,117.bmp,-120,-120,118.bmp,120,-120,119.bmp,-120,120,120.bmp,120,120,9611.199999928474,336703.10000002384,7088,yes,SM,A,119.bmp,-120,120,274587,268559,276602,270571,340683.0,334653.0,342699.0,336666.0,6
4,0,0,0,1,6,test,1,0,z,Wed Apr 02 2025 09:59:48 GMT-0500 (Central Daylight Time),356377.2999999523,O,None,2015,7,1,121.bmp,-120,-120,122.bmp,120,-120,123.bmp,-120,120,124.bmp,120,120,10059.099999904633,346318.2000000477,7088,yes,SM,A,124.bmp,120,120,274587,268559,276602,270571,350297.0,344268.0,352312.0,346281.0,7
2,0,1,0,0,7,test,1,1,m,Wed Apr 02 2025 09:59:48 GMT-0500 (Central Daylight Time),365340.89999997616,O,m,915,8,1,125.bmp,-120,-120,126.bmp,120,-120,127.bmp,-120,120,128.bmp,120,120,8959.299999952316,356381.60000002384,7088,no,SM,A,125.bmp,120,-120,274587,268559,276602,270571,360360.0,354332.0,362375.0,356344.0,8
3,0,0,1,0,8,test,1,1,m,Wed Apr 02 2025 09:59:48 GMT-0500 (Central Daylight Time),374538.7999999523,O,m,1139,9,1,129.bmp,-120,-120,130.bmp,120,-120,131.bmp,-120,120,132.bmp,120,120,9194.899999976158,365343.89999997616,7088,no,SM,A,130.bmp,-120,120,274587,268559,276602,270571,369324.0,363294.0,371340.0,365308.0,9
4,0,0,0,1,9,test,1,1,z,Wed Apr 02 2025 09:59:48 GMT-0500 (Central Daylight Time),383935.60000002384,O,z,1342,10,1,137.bmp,-120,-120,138.bmp,120,-120,139.bmp,-120,120,140.bmp,120,120,9393.100000023842,374542.5,7088,yes,SM,A,140.bmp,120,120,274587,268559,276602,270571,378520.0,372493.0,380538.0,374505.0,10
3,0,0,1,0,9,test,1,0,z,Wed Apr 02 2025 09:59:48 GMT-0500 (Central Daylight Time),393548.0,O,m,1565,11,1,133.bmp,-120,-120,134.bmp,120,-120,135.bmp,-120,120,136.bmp,120,120,9608.299999952316,383939.7000000477,7088,yes,SM,A,135.bmp,-120,120,274587,268559,276602,270571,387915.0,381890.0,389918.0,383902.0,11
2,0,1,0,0,10,test,1,1,m,Wed Apr 02 2025 09:59:48 GMT-0500 (Central Daylight Time),403096.7000000477,O,m,1492,12,1,141.bmp,-120,-120,142.bmp,120,-120,143.bmp,-120,120,144.bmp,120,120,9545.700000047684,393551.0,7088,no,SM,A,141.bmp,120,-120,274587,268559,276602,270571,397532.0,391501.0,399548.0,393519.0,12
3,0,0,1,0,10,test,1,0,m,Wed Apr 02 2025 09:59:48 GMT-0500 (Central Daylight Time),412976.2999999523,O,z,1842,13,1,145.bmp,-120,-120,146.bmp,120,-120,147.bmp,-120,120,148.bmp,120,120,9875.899999976158,403100.39999997616,7088,no,SM,A,146.bmp,-120,120,274587,268559,276602,270571,407064.0,401051.0,409078.0,403062.0,13
1,1,0,0,0,11,test,1,1,z,Wed Apr 02 2025 09:59:48 GMT-0500 (Central Daylight Time),422722.89999997616,O,z,1698,14,1,149.bmp,-120,-120,150.bmp,120,-120,104.bmp,-120,120,101.bmp,120,120,9743.399999976158,412979.5,7088,yes,SM,A,149.bmp,-120,-120,274587,268559,276602,270571,416958.0,410930.0,418975.0,412944.0,14
4,0,0,0,1,11,test,1,0,m,Wed Apr 02 2025 09:59:48 GMT-0500 (Central Daylight Time),432001.39999997616,O,z,1220,15,1,110.bmp,-120,-120,111.bmp,120,-120,112.bmp,-120,120,113.bmp,120,120,9275.199999928474,422726.2000000477,7088,no,SM,A,111.bmp,120,120,274587,268559,276602,270571,426705.0,420676.0,428722.0,422690.0,15
1,1,0,0,0,12,test,1,1,m,Wed Apr 02 2025 09:59:48 GMT-0500 (Central Daylight Time),441317.39999997616,O,m,1254,16,1,102.bmp,-120,-120,103.bmp,120,-120,104.bmp,-120,120,105.bmp,120,120,9312.0,432005.39999997616,7088,no,SM,A,105.bmp,-120,-120,274587,268559,276602,270571,435985.0,429956.0,438001.0,431969.0,16
3,0,0,1,0,13,test,1,1,m,Wed Apr 02 2025 09:59:48 GMT-0500 (Central Daylight Time),450780.89999997616,O,m,1399,17,1,122.bmp,-120,-120,123.bmp,120,-120,124.bmp,-120,120,125.bmp,120,120,9459.799999952316,441321.10000002384,7088,no,SM,A,122.bmp,-120,120,274587,268559,276602,270571,445298.0,439271.0,447316.0,441284.0,17
1,1,0,0,0,14,test,1,1,z,Wed Apr 02 2025 09:59:48 GMT-0500 (Central Daylight Time),460410.39999997616,O,z,1580,18,1,106.bmp,-120,-120,107.bmp,120,-120,108.bmp,-120,120,109.bmp,120,120,9625.0,450785.39999997616,7088,yes,SM,A,106.bmp,-120,-120,274587,268559,276602,270571,454762.0,448736.0,456780.0,450747.0,18
2,0,1,0,0,14,test,1,0,z,Wed Apr 02 2025 09:59:48 GMT-0500 (Central Daylight Time),469958.2999999523,O,m,1486,19,1,126.bmp,-120,-120,127.bmp,120,-120,128.bmp,-120,120,129.bmp,120,120,9544.399999976158,460413.89999997616,7088,yes,SM,A,127.bmp,120,-120,274587,268559,276602,270571,464393.0,458364.0,466409.0,460378.0,19
3,0,0,1,0,15,test,1,1,z,Wed Apr 02 2025 09:59:48 GMT-0500 (Central Daylight Time),479123.10000002384,O,z,1135,20,1,130.bmp,-120,-120,131.bmp,120,-120,132.bmp,-120,120,133.bmp,120,120,9161.399999976158,469961.7000000477,7088,yes,SM,A,132.bmp,-120,120,274587,268559,276602,270571,473926.0,467912.0,475938.0,469925.0,20
1,1,0,0,0,15,test,1,0,m,Wed Apr 02 2025 09:59:48 GMT-0500 (Central Daylight Time),488752.0,O,z,1575,21,1,114.bmp,-120,-120,115.bmp,120,-120,116.bmp,-120,120,117.bmp,120,120,9625.899999976158,479126.10000002384,7088,no,SM,A,116.bmp,-120,-120,274587,268559,276602,270571,483104.0,477076.0,485120.0,479089.0,21
4,0,0,0,1,15,test,1,0,z,Wed Apr 02 2025 09:59:48 GMT-0500 (Central Daylight Time),498182.10000002384,O,m,1377,22,1,118.bmp,-120,-120,119.bmp,120,-120,120.bmp,-120,120,121.bmp,120,120,9427.100000023842,488755.0,7088,yes,SM,A,121.bmp,120,120,274587,268559,276602,270571,492734.0,486705.0,494750.0,488719.0,22
1,1,0,0,0,16,test,1,1,m,Wed Apr 02 2025 09:59:48 GMT-0500 (Central Daylight Time),507228.2000000477,O,m,995,23,1,134.bmp,-120,-120,135.bmp,120,-120,136.bmp,-120,120,137.bmp,120,120,9041.900000095367,498186.2999999523,7088,no,SM,A,137.bmp,-120,-120,274587,268559,276602,270571,502164.0,496136.0,504180.0,498150.0,23
2,0,1,0,0,16,test,1,0,z,Wed Apr 02 2025 09:59:48 GMT-0500 (Central Daylight Time),516542.5,O,m,1260,24,1,142.bmp,-120,-120,143.bmp,120,-120,144.bmp,-120,120,145.bmp,120,120,9309.600000023842,507232.89999997616,7088,yes,SM,A,143.bmp,120,-120,274587,268559,276602,270571,511211.0,505183.0,513228.0,507196.0,24
4,0,0,0,1,16,test,1,0,m,Wed Apr 02 2025 09:59:48 GMT-0500 (Central Daylight Time),526589.1000000238,O,z,1985,25,1,146.bmp,-120,-120,147.bmp,120,-120,148.bmp,-120,120,149.bmp,120,120,10043.600000023842,516545.5,7088,no,SM,A,148.bmp,120,120,274587,268559,276602,270571,520526.0,514496.0,522542.0,516510.0,25
1,1,0,0,0,16,test,1,0,z,Wed Apr 02 2025 09:59:48 GMT-0500 (Central Daylight Time),536253.7000000477,O,m,1603,26,1,138.bmp,-120,-120,139.bmp,120,-120,140.bmp,-120,120,141.bmp,120,120,9659.700000047684,526594.0,7088,yes,SM,A,138.bmp,-120,-120,274587,268559,276602,270571,530572.0,524544.0,532588.0,526557.0,26
4,0,0,0,1,16,test,1,0,z,Wed Apr 02 2025 09:59:48 GMT-0500 (Central Daylight Time),546315.7000000477,O,None,2014,27,1,150.bmp,-120,-120,111.bmp,120,-120,101.bmp,-120,120,102.bmp,120,120,10057.0,536258.7000000477,7088,yes,SM,A,102.bmp,120,120,274587,268559,276602,270571,540234.0,534209.0,542251.0,536221.0,27
3,0,0,1,0,17,test,1,1,m,Wed Apr 02 2025 09:59:48 GMT-0500 (Central Daylight Time),555613.7999999523,O,m,1242,28,1,103.bmp,-120,-120,104.bmp,120,-120,105.bmp,-120,120,106.bmp,120,120,9292.899999976158,546320.8999999762,7088,no,SM,A,103.bmp,-120,120,274587,268559,276602,270571,550297.0,544271.0,552317.0,546283.0,28
2,0,1,0,0,18,test,1,1,z,Wed Apr 02 2025 09:59:48 GMT-0500 (Central Daylight Time),565076.8999999762,O,z,1415,29,1,107.bmp,-120,-120,108.bmp,120,-120,109.bmp,-120,120,110.bmp,120,120,9458.899999976158,555618.0,7088,yes,SM,A,108.bmp,120,-120,274587,268559,276602,270571,559596.0,553568.0,561611.0,555581.0,29
3,0,0,1,0,19,test,1,1,z,Wed Apr 02 2025 09:59:48 GMT-0500 (Central Daylight Time),574291.5,O,z,1154,30,1,111.bmp,-120,-120,112.bmp,120,-120,113.bmp,-120,120,114.bmp,120,120,9210.600000023842,565080.8999999762,7088,yes,SM,A,113.bmp,-120,120,274587,268559,276602,270571,569060.0,563031.0,571077.0,565048.0,30
1,1,0,0,0,20,test,1,1,z,Wed Apr 02 2025 09:59:48 GMT-0500 (Central Daylight Time),584039.3999999762,O,z,1686,31,1,115.bmp,-120,-120,116.bmp,120,-120,117.bmp,-120,120,118.bmp,120,120,9744.0,574295.3999999762,7088,yes,SM,A,115.bmp,-120,-120,274587,268559,276602,270571,578273.0,572246.0,580289.0,574258.0,31
2,0,1,0,0,21,test,1,1,m,Wed Apr 02 2025 09:59:48 GMT-0500 (Central Daylight Time),593602.3999999762,O,m,1506,32,1,119.bmp,-120,-120,120.bmp,120,-120,121.bmp,-120,120,122.bmp,120,120,9559.0,584043.3999999762,7088,no,SM,A,119.bmp,120,-120,274587,268559,276602,270571,588020.0,581994.0,590037.0,584004.0,32
4,0,0,0,1,22,test,1,1,z,Wed Apr 02 2025 09:59:48 GMT-0500 (Central Daylight Time),603497.5,O,z,1832,33,1,131.bmp,-120,-120,132.bmp,120,-120,133.bmp,-120,120,134.bmp,120,120,9891.600000023842,593605.8999999762,7088,yes,SM,A,134.bmp,120,120,274587,268559,276602,270571,597584.0,591556.0,599600.0,593567.0,33
2,0,1,0,0,23,test,1,1,z,Wed Apr 02 2025 09:59:48 GMT-0500 (Central Daylight Time),612546.8999999762,O,z,1001,34,1,123.bmp,-120,-120,124.bmp,120,-120,125.bmp,-120,120,126.bmp,120,120,9045.799999952316,603501.1000000238,7088,yes,SM,A,124.bmp,120,-120,274587,268559,276602,270571,607481.0,601451.0,609496.0,603467.0,34
4,0,0,0,1,24,test,1,1,m,Wed Apr 02 2025 09:59:48 GMT-0500 (Central Daylight Time),622292.6000000238,O,m,1711,35,1,127.bmp,-120,-120,128.bmp,120,-120,129.bmp,-120,120,130.bmp,120,120,9742.5,612550.1000000238,7088,no,SM,A,129.bmp,120,120,274587,268559,276602,270571,616527.0,610500.0,618529.0,612513.0,35
3,0,0,1,0,24,test,1,0,m,Wed Apr 02 2025 09:59:48 GMT-0500 (Central Daylight Time),632272.2000000477,O,z,1917,36,1,135.bmp,-120,-120,136.bmp,120,-120,137.bmp,-120,120,138.bmp,120,120,9971.900000095367,622300.2999999523,7088,no,SM,A,135.bmp,-120,120,274587,268559,276602,270571,626275.0,620251.0,628290.0,622260.0,36
1,1,0,0,0,24,test,1,0,m,Wed Apr 02 2025 09:59:48 GMT-0500 (Central Daylight Time),642336.7000000477,O,None,2016,37,1,139.bmp,-120,-120,140.bmp,120,-120,141.bmp,-120,120,142.bmp,120,120,10060.200000047684,632276.5,7088,no,SM,A,140.bmp,-120,-120,274587,268559,276602,270571,636255.0,630227.0,638271.0,632239.0,37
2,0,1,0,0,24,test,1,0,m,Wed Apr 02 2025 09:59:48 GMT-0500 (Central Daylight Time),652400.3999999762,O,None,2015,38,1,143.bmp,-120,-120,144.bmp,120,-120,145.bmp,-120,120,146.bmp,120,120,10058.699999928474,642341.7000000477,7088,no,SM,A,145.bmp,120,-120,274587,268559,276602,270571,646318.0,640292.0,648335.0,642303.0,38
4,0,0,0,1,25,test,1,1,z,Wed Apr 02 2025 09:59:48 GMT-0500 (Central Daylight Time),661263.8999999762,O,z,797,39,1,147.bmp,-120,-120,148.bmp,120,-120,149.bmp,-120,120,150.bmp,120,120,8860.0,652403.8999999762,7088,yes,SM,A,150.bmp,120,120,274587,268559,276602,270571,656383.0,650354.0,658401.0,652367.0,39
3,0,0,1,0,26,test,1,1,m,Wed Apr 02 2025 09:59:48 GMT-0500 (Central Daylight Time),670493.8999999762,O,m,1167,40,1,104.bmp,-120,-120,105.bmp,120,-120,106.bmp,-120,120,107.bmp,120,120,9228.100000023842,661265.7999999523,7088,no,SM,A,105.bmp,-120,120,274587,268559,276602,270571,665245.0,659216.0,667263.0,661231.0,40
1,1,0,0,0,26,test,1,0,z,Wed Apr 02 2025 09:59:48 GMT-0500 (Central Daylight Time),679808.2000000477,O,m,1258,41,1,108.bmp,-120,-120,109.bmp,120,-120,110.bmp,-120,120,111.bmp,120,120,9310.800000071526,670497.3999999762,7088,yes,SM,A,108.bmp,-120,-120,274587,268559,276602,270571,674476.0,668447.0,676493.0,670462.0,41
4,0,0,0,1,26,test,1,0,z,Wed Apr 02 2025 09:59:48 GMT-0500 (Central Daylight Time),689873.7000000477,O,None,2019,42,1,112.bmp,-120,-120,113.bmp,120,-120,114.bmp,-120,120,115.bmp,120,120,10059.300000071526,679814.3999999762,7088,yes,SM,A,115.bmp,120,120,274587,268559,276602,270571,683789.0,677765.0,685805.0,679775.0,42
1,1,0,0,0,27,test,1,1,z,Wed Apr 02 2025 09:59:48 GMT-0500 (Central Daylight Time),699284.2999999523,O,z,1361,43,1,116.bmp,-120,-120,117.bmp,120,-120,118.bmp,-120,120,119.bmp,120,120,9408.199999928474,689876.1000000238,7088,yes,SM,A,116.bmp,-120,-120,274587,268559,276602,270571,693853.0,687826.0,695870.0,689837.0,43
4,0,0,0,1,27,test,1,0,m,Wed Apr 02 2025 09:59:48 GMT-0500 (Central Daylight Time),709348.2999999523,O,None,2014,44,1,104.bmp,-120,-120,101.bmp,120,-120,102.bmp,-120,120,103.bmp,120,120,10058.699999928474,699289.6000000238,7088,no,SM,A,104.bmp,120,120,274587,268559,276602,270571,703266.0,697240.0,705284.0,699252.0,44
1,1,0,0,0,28,test,1,1,m,Wed Apr 02 2025 09:59:48 GMT-0500 (Central Daylight Time),718462.0,O,m,1053,45,1,128.bmp,-120,-120,129.bmp,120,-120,130.bmp,-120,120,131.bmp,120,120,9109.200000047684,709352.7999999523,7088,no,SM,A,131.bmp,-120,-120,274587,268559,276602,270571,713330.0,707303.0,715346.0,709315.0,45
1,1,0,0,0,29,test,1,1,m,Wed Apr 02 2025 09:59:48 GMT-0500 (Central Daylight Time),727643.3999999762,O,m,1134,46,1,120.bmp,-120,-120,121.bmp,120,-120,122.bmp,-120,120,123.bmp,120,120,9177.799999952316,718465.6000000238,7088,no,SM,A,121.bmp,-120,-120,274587,268559,276602,270571,722444.0,716416.0,724459.0,718428.0,46
3,0,0,1,0,30,test,1,1,z,Wed Apr 02 2025 09:59:48 GMT-0500 (Central Daylight Time),737123.2000000477,O,z,1433,47,1,124.bmp,-120,-120,125.bmp,120,-120,126.bmp,-120,120,127.bmp,120,120,9475.900000095367,727647.2999999523,7088,yes,SM,A,126.bmp,-120,120,274587,268559,276602,270571,731625.0,725597.0,733640.0,727610.0,47
3,0,0,1,0,31,test,1,1,z,Wed Apr 02 2025 09:59:48 GMT-0500 (Central Daylight Time),746420.0,O,z,1247,48,1,140.bmp,-120,-120,141.bmp,120,-120,142.bmp,-120,120,143.bmp,120,120,9292.399999976158,737127.6000000238,7088,yes,SM,A,142.bmp,-120,120,274587,268559,276602,270571,741105.0,735078.0,743122.0,737089.0,48
2,0,1,0,0,31,test,1,0,z,Wed Apr 02 2025 09:59:48 GMT-0500 (Central Daylight Time),756483.8999999762,O,None,2015,49,1,136.bmp,-120,-120,137.bmp,120,-120,138.bmp,-120,120,139.bmp,120,120,10060.600000023842,746423.2999999523,7088,yes,SM,A,137.bmp,120,-120,274587,268559,276602,270571,750401.0,744374.0,752418.0,746387.0,49
3,0,0,1,0,32,test,1,1,m,Wed Apr 02 2025 09:59:48 GMT-0500 (Central Daylight Time),765365.3999999762,O,m,838,50,1,132.bmp,-120,-120,133.bmp,120,-120,134.bmp,-120,120,135.bmp,120,120,8876.199999928474,756489.2000000477,7088,no,SM,A,132.bmp,-120,120,274587,268559,276602,270571,760464.0,754439.0,762465.0,756449.0,50
2,0,1,0,0,33,test,1,1,z,Wed Apr 02 2025 09:59:48 GMT-0500 (Central Daylight Time),774994.5,O,z,1573,51,1,144.bmp,-120,-120,145.bmp,120,-120,146.bmp,-120,120,147.bmp,120,120,9625.399999976158,765369.1000000238,7088,yes,SM,A,145.bmp,120,-120,274587,268559,276602,270571,769346.0,763319.0,771362.0,765330.0,51
4,0,0,0,1,34,test,1,1,m,Wed Apr 02 2025 09:59:48 GMT-0500 (Central Daylight Time),784274.3999999762,O,m,1216,52,1,148.bmp,-120,-120,149.bmp,120,-120,150.bmp,-120,120,131.bmp,120,120,9276.5,774997.8999999762,7088,no,SM,A,148.bmp,120,120,274587,268559,276602,270571,778976.0,772948.0,780992.0,774961.0,52
3,0,0,1,0,35,test,1,1,z,Wed Apr 02 2025 09:59:48 GMT-0500 (Central Daylight Time),793271.8999999762,O,z,943,53,1,101.bmp,-120,-120,102.bmp,120,-120,103.bmp,-120,120,104.bmp,120,120,8992.600000023842,784279.2999999523,7088,yes,SM,A,103.bmp,-120,120,274587,268559,276602,270571,788256.0,782230.0,790272.0,784241.0,53
1,1,0,0,0,36,test,1,1,m,Wed Apr 02 2025 09:59:48 GMT-0500 (Central Daylight Time),802618.2999999523,O,m,1287,54,1,105.bmp,-120,-120,106.bmp,120,-120,107.bmp,-120,120,108.bmp,120,120,9343.799999952316,793274.5,7088,no,SM,A,107.bmp,-120,-120,274587,268559,276602,270571,797254.0,791225.0,799272.0,793238.0,54
4,0,0,0,1,36,test,1,0,z,Wed Apr 02 2025 09:59:48 GMT-0500 (Central Daylight Time),812033.7000000477,O,m,1349,55,1,109.bmp,-120,-120,110.bmp,120,-120,111.bmp,-120,120,112.bmp,120,120,9411.700000047684,802622.0,7088,yes,SM,A,112.bmp,120,120,274587,268559,276602,270571,806601.0,800572.0,808617.0,802585.0,55
2,0,1,0,0,36,test,1,0,m,Wed Apr 02 2025 09:59:48 GMT-0500 (Central Daylight Time),822047.3999999762,O,z,1969,56,1,113.bmp,-120,-120,114.bmp,120,-120,115.bmp,-120,120,116.bmp,120,120,10009.299999952316,812038.1000000238,7088,no,SM,A,113.bmp,120,-120,274587,268559,276602,270571,816013.0,809988.0,818014.0,812000.0,56
4,0,0,0,1,37,test,1,1,m,Wed Apr 02 2025 09:59:48 GMT-0500 (Central Daylight Time),830942.7000000477,O,m,842,57,1,117.bmp,-120,-120,118.bmp,120,-120,119.bmp,-120,120,120.bmp,120,120,8892.200000047684,822050.5,7088,no,SM,A,118.bmp,120,120,274587,268559,276602,270571,826028.0,820001.0,828044.0,822013.0,57
3,0,0,1,0,37,test,1,0,z,Wed Apr 02 2025 09:59:48 GMT-0500 (Central Daylight Time),840522.1000000238,O,m,1520,58,1,121.bmp,-120,-120,122.bmp,120,-120,123.bmp,-120,120,124.bmp,120,120,9576.0,830946.1000000238,7088,yes,SM,A,123.bmp,-120,120,274587,268559,276602,270571,834925.0,828896.0,836942.0,830909.0,58
2,0,1,0,0,38,test,1,1,m,Wed Apr 02 2025 09:59:48 GMT-0500 (Central Daylight Time),849852.8999999762,O,m,1268,59,1,125.bmp,-120,-120,126.bmp,120,-120,127.bmp,-120,120,128.bmp,120,120,9327.799999952316,840525.1000000238,7088,no,SM,A,128.bmp,120,-120,274587,268559,276602,270571,844505.0,838475.0,846522.0,840491.0,59
1,1,0,0,0,38,test,1,0,z,Wed Apr 02 2025 09:59:48 GMT-0500 (Central Daylight Time),859050.8999999762,O,m,1140,60,1,129.bmp,-120,-120,130.bmp,120,-120,131.bmp,-120,120,132.bmp,120,120,9195.0,849855.8999999762,7088,yes,SM,A,129.bmp,-120,-120,274587,268559,276602,270571,853836.0,847806.0,855851.0,849820.0,60
2,0,1,0,0,38,test,1,0,z,Wed Apr 02 2025 09:59:48 GMT-0500 (Central Daylight Time),869116.7999999523,O,None,2018,61,1,133.bmp,-120,-120,134.bmp,120,-120,135.bmp,-120,120,136.bmp,120,120,10061.899999976158,859054.8999999762,7088,yes,SM,A,134.bmp,120,-120,274587,268559,276602,270571,863033.0,857005.0,865049.0,859017.0,61
4,0,0,0,1,38,test,1,0,z,Wed Apr 02 2025 09:59:48 GMT-0500 (Central Daylight Time),878162.2999999523,O,m,999,62,1,141.bmp,-120,-120,142.bmp,120,-120,143.bmp,-120,120,144.bmp,120,120,9042.599999904633,869119.7000000477,7088,yes,SM,A,144.bmp,120,120,274587,268559,276602,270571,873096.0,867070.0,875113.0,869082.0,62
1,1,0,0,0,38,test,1,0,m,Wed Apr 02 2025 09:59:48 GMT-0500 (Central Daylight Time),888226.2999999523,O,None,2016,63,1,145.bmp,-120,-120,146.bmp,120,-120,147.bmp,-120,120,148.bmp,120,120,10059.0,878167.2999999523,7088,no,SM,A,145.bmp,-120,120,274587,268559,276602,270571,882144.0,876117.0,884160.0,878129.0,63
2,0,1,0,0,39,test,1,1,z,Wed Apr 02 2025 09:59:48 GMT-0500 (Central Daylight Time),897522.2000000477,O,z,1243,64,1,149.bmp,-120,-120,150.bmp,120,-120,112.bmp,-120,120,101.bmp,120,120,9290.600000023842,888231.6000000238,7088,yes,SM,A,150.bmp,120,-120,274587,268559,276602,270571,892207.0,886182.0,894220.0,888193.0,64
4,0,0,0,1,40,test,1,1,m,Wed Apr 02 2025 09:59:48 GMT-0500 (Central Daylight Time),907003.3999999762,O,m,1433,65,1,102.bmp,-120,-120,103.bmp,120,-120,104.bmp,-120,120,105.bmp,120,120,9477.5,897525.8999999762,7088,no,SM,A,104.bmp,120,120,274587,268559,276602,270571,901505.0,895476.0,903520.0,897488.0,65
3,0,0,1,0,40,test,1,0,m,Wed Apr 02 2025 09:59:48 GMT-0500 (Central Daylight Time),917065.3999999762,O,None,2015,66,1,106.bmp,-120,-120,107.bmp,120,-120,108.bmp,-120,120,109.bmp,120,120,10056.299999952316,907009.1000000238,7088,no,SM,A,109.bmp,-120,120,274587,268559,276602,270571,910984.0,904959.0,913000.0,906969.0,66
2,0,1,0,0,41,test,1,1,m,Wed Apr 02 2025 09:59:48 GMT-0500 (Central Daylight Time),926329.7000000477,O,m,1207,67,1,137.bmp,-120,-120,138.bmp,120,-120,139.bmp,-120,120,140.bmp,120,120,9254.5,917075.2000000477,7088,no,SM,A,139.bmp,120,-120,274587,268559,276602,270571,921048.0,915025.0,923064.0,917033.0,67
3,0,0,1,0,41,test,1,0,z,Wed Apr 02 2025 09:59:48 GMT-0500 (Central Daylight Time),935393.7000000477,O,m,1007,68,1,110.bmp,-120,-120,111.bmp,120,-120,112.bmp,-120,120,113.bmp,120,120,9059.400000095367,926334.2999999523,7088,yes,SM,A,112.bmp,-120,120,274587,268559,276602,270571,930311.0,924284.0,932328.0,926295.0,68
1,1,0,0,0,42,test,1,1,m,Wed Apr 02 2025 09:59:48 GMT-0500 (Central Daylight Time),945239.8999999762,O,m,1792,69,1,114.bmp,-120,-120,115.bmp,120,-120,116.bmp,-120,120,117.bmp,120,120,9840.799999952316,935399.1000000238,7088,no,SM,A,115.bmp,-120,-120,274587,268559,276602,270571,939375.0,933349.0,941391.0,935360.0,69
2,0,1,0,0,43,test,1,1,m,Wed Apr 02 2025 09:59:48 GMT-0500 (Central Daylight Time),954569.6000000238,O,m,1270,70,1,118.bmp,-120,-120,119.bmp,120,-120,120.bmp,-120,120,121.bmp,120,120,9326.5,945243.1000000238,7088,no,SM,A,120.bmp,120,-120,274587,268559,276602,270571,949222.0,943193.0,951240.0,945206.0,70
4,0,0,0,1,44,test,1,1,z,Wed Apr 02 2025 09:59:48 GMT-0500 (Central Daylight Time),964252.1000000238,O,z,1634,71,1,122.bmp,-120,-120,123.bmp,120,-120,124.bmp,-120,120,125.bmp,120,120,9678.800000071526,954573.2999999523,7088,yes,SM,A,125.bmp,120,120,274587,268559,276602,270571,958551.0,952524.0,960567.0,954537.0,71
1,1,0,0,0,45,test,1,1,z,Wed Apr 02 2025 09:59:48 GMT-0500 (Central Daylight Time),973780.5,O,z,1470,72,1,126.bmp,-120,-120,127.bmp,120,-120,128.bmp,-120,120,129.bmp,120,120,9524.600000023842,964255.8999999762,7088,yes,SM,A,126.bmp,-120,-120,274587,268559,276602,270571,968233.0,962206.0,970249.0,964217.0,72
2,0,1,0,0,45,test,1,0,z,Wed Apr 02 2025 09:59:48 GMT-0500 (Central Daylight Time),983127.7999999523,O,m,1283,73,1,130.bmp,-120,-120,131.bmp,120,-120,132.bmp,-120,120,133.bmp,120,120,9344.5,973783.2999999523,7088,yes,SM,A,131.bmp,120,-120,274587,268559,276602,270571,977763.0,971734.0,979779.0,973747.0,73
4,0,0,0,1,46,test,1,1,m,Wed Apr 02 2025 09:59:48 GMT-0500 (Central Daylight Time),992506.5,O,m,1328,74,1,134.bmp,-120,-120,135.bmp,120,-120,136.bmp,-120,120,137.bmp,120,120,9375.0,983131.5,7088,no,SM,A,136.bmp,120,120,274587,268559,276602,270571,987110.0,981082.0,989127.0,983095.0,74
2,0,1,0,0,47,test,1,1,m,Wed Apr 02 2025 09:59:48 GMT-0500 (Central Daylight Time),1001972.1000000238,O,m,1415,75,1,138.bmp,-120,-120,139.bmp,120,-120,140.bmp,-120,120,141.bmp,120,120,9461.800000071526,992510.2999999523,7088,no,SM,A,141.bmp,120,-120,274587,268559,276602,270571,996489.0,990460.0,998505.0,992474.0,75
1,1,0,0,0,48,test,1,1,z,Wed Apr 02 2025 09:59:48 GMT-0500 (Central Daylight Time),1011336.1000000238,O,z,1309,76,1,142.bmp,-120,-120,143.bmp,120,-120,144.bmp,-120,120,145.bmp,120,120,9359.700000047684,1001976.3999999762,7088,yes,SM,A,142.bmp,-120,-120,274587,268559,276602,270571,1005954.0,999927.0,1007970.0,1001938.0,76
3,0,0,1,0,48,test,1,0,z,Wed Apr 02 2025 09:59:48 GMT-0500 (Central Daylight Time),1021249.0,O,m,1860,77,1,150.bmp,-120,-120,111.bmp,120,-120,101.bmp,-120,120,102.bmp,120,120,9908.700000047684,1011340.2999999523,7088,yes,SM,A,101.bmp,-120,120,274587,268559,276602,270571,1015316.0,1009291.0,1017331.0,1011302.0,77
1,1,0,0,0,48,test,1,0,m,Wed Apr 02 2025 09:59:48 GMT-0500 (Central Daylight Time),1030712.8999999762,O,z,1407,78,1,146.bmp,-120,-120,147.bmp,120,-120,148.bmp,-120,120,149.bmp,120,120,9460.899999976158,1021252.0,7088,no,SM,A,147.bmp,-120,-120,274587,268559,276602,270571,1025232.0,1019202.0,1027247.0,1021216.0,78
4,0,0,0,1,49,test,1,1,m,Wed Apr 02 2025 09:59:48 GMT-0500 (Central Daylight Time),1039743.2999999523,O,m,976,79,1,107.bmp,-120,-120,108.bmp,120,-120,109.bmp,-120,120,110.bmp,120,120,9028.0,1030715.2999999523,7088,no,SM,A,107.bmp,120,120,274587,268559,276602,270571,1034694.0,1028665.0,1036711.0,1030681.0,79
3,0,0,1,0,49,test,1,0,m,Wed Apr 02 2025 09:59:48 GMT-0500 (Central Daylight Time),1049304.0,O,z,1503,80,1,103.bmp,-120,-120,104.bmp,120,-120,105.bmp,-120,120,106.bmp,120,120,9556.299999952316,1039747.7000000477,7088,no,SM,A,106.bmp,-120,120,274587,268559,276602,270571,1043725.0,1037698.0,1045741.0,1039710.0,80
