Q,Q1,Q2,Q3,Q4,acc_sum,block,block_c,correct,correct_response,datetime,endtime,project,response,response_time,row_sel,session_number,squiggle1,squiggle1x,squiggle1y,squiggle2,squiggle2x,squiggle2y,squiggle3,squiggle3x,squiggle3y,squiggle4,squiggle4x,squiggle4y,start_end,starttime,subject_id,target_congruent,task,task_vers,testsquiggle,testsquigglex,testsquiggley,time_practice_delay,time_practice_fixation,time_practice_stimuli,time_practice_study,time_test_delay,time_test_fixation,time_test_stimuli,time_test_study,trial
1,1,0,0,0,0,prac,1,0,z,Fri Feb 28 2025 11:01:48 GMT-0600 (Central Standard Time),184202.39999997616,O,None,2014,1,1,16.bmp,-120,-120,17.bmp,120,-120,18.bmp,-120,120,19.bmp,120,120,10824.800000011921,173377.59999996424,7069,yes,SM,B,16.bmp,-120,-120,177280,171252,179297,173264,,,,,1
3,0,0,1,0,0,prac,1,0,m,Fri Feb 28 2025 11:01:48 GMT-0600 (Central Standard Time),194519.69999998808,O,z,1497,2,1,20.bmp,-120,-120,21.bmp,120,-120,22.bmp,-120,120,23.bmp,120,120,10313.399999976158,184206.30000001192,7069,no,SM,B,23.bmp,-120,120,188110,182081,190125,184095,,,,,2
4,0,0,0,1,1,prac,1,1,m,Fri Feb 28 2025 11:01:48 GMT-0600 (Central Standard Time),204846.80000001192,O,m,1503,3,1,24.bmp,-120,-120,25.bmp,120,-120,26.bmp,-120,120,27.bmp,120,120,10323.0,194523.80000001192,7069,no,SM,B,24.bmp,120,120,198423,192398,200440,194408,,,,,3
2,0,1,0,0,2,prac,1,1,z,Fri Feb 28 2025 11:01:48 GMT-0600 (Central Standard Time),215411.5,O,z,1734,4,1,28.bmp,-120,-120,29.bmp,120,-120,30.bmp,-120,120,31.bmp,120,120,10554.900000035763,204856.59999996424,7069,yes,SM,B,29.bmp,120,-120,208754,202731,210770,204739,,,,,4
3,0,0,1,0,3,prac,1,1,z,Fri Feb 28 2025 11:01:48 GMT-0600 (Central Standard Time),226042.0,O,z,1801,5,1,32.bmp,-120,-120,33.bmp,120,-120,34.bmp,-120,120,35.bmp,120,120,10621.699999988079,215420.30000001192,7069,yes,SM,B,34.bmp,-120,120,219316,213295,221334,215302,,,,,5
1,1,0,0,0,4,prac,1,1,m,Fri Feb 28 2025 11:01:48 GMT-0600 (Central Standard Time),236520.39999997616,O,m,1653,6,1,36.bmp,-120,-120,37.bmp,120,-120,38.bmp,-120,120,39.bmp,120,120,10474.399999976158,226046.0,7069,no,SM,B,39.bmp,-120,-120,229946,223920,231962,225931,,,,,6
2,0,1,0,0,5,prac,1,1,m,Fri Feb 28 2025 11:01:48 GMT-0600 (Central Standard Time),247016.0,O,m,1668,7,1,40.bmp,-120,-120,41.bmp,120,-120,42.bmp,-120,120,43.bmp,120,120,10491.199999988079,236524.80000001192,7069,no,SM,B,40.bmp,120,-120,240425,234399,242443,236411,,,,,7
4,0,0,0,1,6,prac,1,1,z,Fri Feb 28 2025 11:01:48 GMT-0600 (Central Standard Time),257365.09999996424,O,z,1522,8,1,44.bmp,-120,-120,45.bmp,120,-120,46.bmp,-120,120,47.bmp,120,120,10345.599999964237,247019.5,7069,yes,SM,B,47.bmp,120,120,250923,244894,252940,246907,,,,,8
4,0,0,0,1,1,test,1,1,m,Fri Feb 28 2025 11:01:48 GMT-0600 (Central Standard Time),287603.8000000119,O,m,1599,1,1,48.bmp,-120,-120,49.bmp,120,-120,50.bmp,-120,120,43.bmp,120,120,9658.0,277945.8000000119,7069,yes,SM,B,50.bmp,120,120,250923,244894,252940,246907,281845.0,275820.0,283863.0,277833.0,1
2,0,1,0,0,1,test,1,0,m,Fri Feb 28 2025 11:01:48 GMT-0600 (Central Standard Time),297401.59999996424,O,z,1743,2,1,1.bmp,-120,-120,2.bmp,120,-120,3.bmp,-120,120,4.bmp,120,120,9788.799999952316,287612.8000000119,7069,yes,SM,B,3.bmp,120,-120,250923,244894,252940,246907,291511.0,285487.0,293528.0,287495.0,2
1,1,0,0,0,2,test,1,1,z,Fri Feb 28 2025 11:01:48 GMT-0600 (Central Standard Time),307280.09999996424,O,z,1842,3,1,5.bmp,-120,-120,6.bmp,120,-120,7.bmp,-120,120,8.bmp,120,120,9873.399999976158,297406.6999999881,7069,yes,SM,B,5.bmp,-120,-120,250923,244894,252940,246907,301306.0,295281.0,303308.0,297291.0,3
3,0,0,1,0,2,test,1,0,m,Fri Feb 28 2025 11:01:48 GMT-0600 (Central Standard Time),317344.89999997616,O,None,2017,4,1,9.bmp,-120,-120,10.bmp,120,-120,11.bmp,-120,120,12.bmp,120,120,10062.699999988079,307282.1999999881,7069,yes,SM,B,9.bmp,-120,120,250923,244894,252940,246907,311189.0,305156.0,313202.0,307173.0,4
2,0,1,0,0,2,test,1,0,z,Fri Feb 28 2025 11:01:48 GMT-0600 (Central Standard Time),326925.1999999881,O,m,1531,5,1,13.bmp,-120,-120,14.bmp,120,-120,15.bmp,-120,120,16.bmp,120,120,9576.600000023842,317348.59999996424,7069,yes,SM,B,14.bmp,120,-120,250923,244894,252940,246907,321251.0,315223.0,323268.0,317236.0,5
3,0,0,1,0,3,test,1,1,z,Fri Feb 28 2025 11:01:48 GMT-0600 (Central Standard Time),336253.59999996424,O,z,1270,6,1,17.bmp,-120,-120,18.bmp,120,-120,19.bmp,-120,120,20.bmp,120,120,9325.099999964237,326928.5,7069,yes,SM,B,19.bmp,-120,120,250923,244894,252940,246907,330831.0,324803.0,332848.0,326817.0,6
4,0,0,0,1,4,test,1,1,z,Fri Feb 28 2025 11:01:48 GMT-0600 (Central Standard Time),345718.6999999881,O,z,1405,7,1,21.bmp,-120,-120,22.bmp,120,-120,23.bmp,-120,120,24.bmp,120,120,9463.100000023842,336255.59999996424,7069,yes,SM,B,24.bmp,120,120,250923,244894,252940,246907,340161.0,334130.0,342178.0,336146.0,7
2,0,1,0,0,4,test,1,0,m,Fri Feb 28 2025 11:01:48 GMT-0600 (Central Standard Time),355782.39999997616,O,None,2015,8,1,25.bmp,-120,-120,26.bmp,120,-120,27.bmp,-120,120,28.bmp,120,120,10060.699999988079,345721.6999999881,7069,yes,SM,B,25.bmp,120,-120,250923,244894,252940,246907,349625.0,343596.0,351641.0,345612.0,8
3,0,0,1,0,5,test,1,1,m,Fri Feb 28 2025 11:01:48 GMT-0600 (Central Standard Time),365263.0,O,m,1422,9,1,29.bmp,-120,-120,30.bmp,120,-120,31.bmp,-120,120,32.bmp,120,120,9474.400000035763,355788.59999996424,7069,yes,SM,B,30.bmp,-120,120,250923,244894,252940,246907,359690.0,353663.0,361705.0,355674.0,9
4,0,0,0,1,5,test,1,0,z,Fri Feb 28 2025 11:01:48 GMT-0600 (Central Standard Time),375326.8000000119,O,None,2015,10,1,37.bmp,-120,-120,38.bmp,120,-120,39.bmp,-120,120,40.bmp,120,120,10060.300000011921,365266.5,7069,yes,SM,B,40.bmp,120,120,250923,244894,252940,246907,369169.0,363141.0,371186.0,365153.0,10
3,0,0,1,0,6,test,1,1,z,Fri Feb 28 2025 11:01:48 GMT-0600 (Central Standard Time),385071.8000000119,O,z,1685,11,1,33.bmp,-120,-120,34.bmp,120,-120,35.bmp,-120,120,36.bmp,120,120,9739.300000011921,375332.5,7069,yes,SM,B,35.bmp,-120,120,250923,244894,252940,246907,379231.0,373207.0,381249.0,375218.0,11
2,0,1,0,0,7,test,1,1,m,Fri Feb 28 2025 11:01:48 GMT-0600 (Central Standard Time),394503.39999997616,O,m,1381,12,1,41.bmp,-120,-120,42.bmp,120,-120,43.bmp,-120,120,44.bmp,120,120,9429.199999988079,385074.1999999881,7069,yes,SM,B,41.bmp,120,-120,250923,244894,252940,246907,388979.0,382948.0,390996.0,384965.0,12
3,0,0,1,0,8,test,1,1,m,Fri Feb 28 2025 11:01:48 GMT-0600 (Central Standard Time),404150.39999997616,O,m,1613,13,1,45.bmp,-120,-120,46.bmp,120,-120,47.bmp,-120,120,48.bmp,120,120,9644.300000011921,394506.09999996424,7069,yes,SM,B,46.bmp,-120,120,250923,244894,252940,246907,398394.0,392380.0,400411.0,394393.0,13
1,1,0,0,0,9,test,1,1,z,Fri Feb 28 2025 11:01:48 GMT-0600 (Central Standard Time),414195.5,O,z,1989,14,1,49.bmp,-120,-120,50.bmp,120,-120,4.bmp,-120,120,1.bmp,120,120,10042.100000023842,404153.39999997616,7069,yes,SM,B,49.bmp,-120,-120,250923,244894,252940,246907,408056.0,402028.0,410073.0,404039.0,14
4,0,0,0,1,9,test,1,0,m,Fri Feb 28 2025 11:01:48 GMT-0600 (Central Standard Time),423976.89999997616,O,z,1726,15,1,10.bmp,-120,-120,11.bmp,120,-120,12.bmp,-120,120,13.bmp,120,120,9778.699999988079,414198.1999999881,7069,yes,SM,B,11.bmp,120,120,250923,244894,252940,246907,418104.0,412073.0,420121.0,414087.0,15
1,1,0,0,0,10,test,1,1,m,Fri Feb 28 2025 11:01:48 GMT-0600 (Central Standard Time),433706.09999996424,O,m,1690,16,1,2.bmp,-120,-120,3.bmp,120,-120,4.bmp,-120,120,5.bmp,120,120,9725.799999952316,423980.3000000119,7069,yes,SM,B,5.bmp,-120,-120,250923,244894,252940,246907,427882.0,421854.0,429884.0,423870.0,16
3,0,0,1,0,11,test,1,1,m,Fri Feb 28 2025 11:01:48 GMT-0600 (Central Standard Time),443038.09999996424,O,m,1281,17,1,22.bmp,-120,-120,23.bmp,120,-120,24.bmp,-120,120,25.bmp,120,120,9329.299999952316,433708.8000000119,7069,yes,SM,B,22.bmp,-120,120,250923,244894,252940,246907,437615.0,431583.0,439631.0,433599.0,17
1,1,0,0,0,11,test,1,0,z,Fri Feb 28 2025 11:01:48 GMT-0600 (Central Standard Time),452952.59999996424,O,m,1863,18,1,6.bmp,-120,-120,7.bmp,120,-120,8.bmp,-120,120,9.bmp,120,120,9910.199999988079,443042.39999997616,7069,yes,SM,B,6.bmp,-120,-120,250923,244894,252940,246907,446944.0,440917.0,448961.0,442929.0,18
2,0,1,0,0,11,test,1,0,z,Fri Feb 28 2025 11:01:48 GMT-0600 (Central Standard Time),463015.8000000119,O,None,2016,19,1,26.bmp,-120,-120,27.bmp,120,-120,28.bmp,-120,120,29.bmp,120,120,10056.900000035763,452958.89999997616,7069,yes,SM,B,27.bmp,120,-120,250923,244894,252940,246907,456858.0,450833.0,458874.0,452843.0,19
3,0,0,1,0,11,test,1,0,z,Fri Feb 28 2025 11:01:48 GMT-0600 (Central Standard Time),472829.6999999881,O,m,1765,20,1,30.bmp,-120,-120,31.bmp,120,-120,32.bmp,-120,120,33.bmp,120,120,9808.899999976158,463020.8000000119,7069,yes,SM,B,32.bmp,-120,120,250923,244894,252940,246907,466922.0,460895.0,468937.0,462905.0,20
1,1,0,0,0,12,test,1,1,m,Fri Feb 28 2025 11:01:48 GMT-0600 (Central Standard Time),482591.1999999881,O,m,1711,21,1,14.bmp,-120,-120,15.bmp,120,-120,16.bmp,-120,120,17.bmp,120,120,9756.199999988079,472835.0,7069,yes,SM,B,16.bmp,-120,-120,250923,244894,252940,246907,476735.0,470709.0,478752.0,472721.0,21
4,0,0,0,1,12,test,1,0,z,Fri Feb 28 2025 11:01:48 GMT-0600 (Central Standard Time),492656.3000000119,O,None,2013,22,1,18.bmp,-120,-120,19.bmp,120,-120,20.bmp,-120,120,21.bmp,120,120,10060.900000035763,482595.39999997616,7069,yes,SM,B,21.bmp,120,120,250923,244894,252940,246907,486498.0,480470.0,488516.0,482484.0,22
1,1,0,0,0,13,test,1,1,m,Fri Feb 28 2025 11:01:48 GMT-0600 (Central Standard Time),501586.5,O,m,868,23,1,34.bmp,-120,-120,35.bmp,120,-120,36.bmp,-120,120,37.bmp,120,120,8925.699999988079,492660.8000000119,7069,yes,SM,B,37.bmp,-120,-120,250923,244894,252940,246907,496561.0,490535.0,498578.0,492546.0,23
2,0,1,0,0,13,test,1,0,z,Fri Feb 28 2025 11:01:48 GMT-0600 (Central Standard Time),511182.1999999881,O,m,1538,24,1,42.bmp,-120,-120,43.bmp,120,-120,44.bmp,-120,120,45.bmp,120,120,9591.800000011921,501590.39999997616,7069,yes,SM,B,43.bmp,120,-120,250923,244894,252940,246907,505491.0,499465.0,507509.0,501478.0,24
4,0,0,0,1,13,test,1,0,m,Fri Feb 28 2025 11:01:48 GMT-0600 (Central Standard Time),521030.39999997616,O,z,1789,25,1,46.bmp,-120,-120,47.bmp,120,-120,48.bmp,-120,120,49.bmp,120,120,9844.599999964237,511185.8000000119,7069,yes,SM,B,48.bmp,120,120,250923,244894,252940,246907,515089.0,509060.0,517106.0,511075.0,25
1,1,0,0,0,14,test,1,1,z,Fri Feb 28 2025 11:01:48 GMT-0600 (Central Standard Time),530911.3999999762,O,z,1844,26,1,38.bmp,-120,-120,39.bmp,120,-120,40.bmp,-120,120,41.bmp,120,120,9876.599999964237,521034.8000000119,7069,yes,SM,B,38.bmp,-120,-120,250923,244894,252940,246907,524935.0,518909.0,526939.0,520921.0,26
4,0,0,0,1,14,test,1,0,z,Fri Feb 28 2025 11:01:48 GMT-0600 (Central Standard Time),540141.1999999881,O,m,1167,27,1,50.bmp,-120,-120,11.bmp,120,-120,1.bmp,-120,120,2.bmp,120,120,9226.5,530914.6999999881,7069,yes,SM,B,2.bmp,120,120,250923,244894,252940,246907,534816.0,528789.0,536832.0,530803.0,27
3,0,0,1,0,15,test,1,1,m,Fri Feb 28 2025 11:01:48 GMT-0600 (Central Standard Time),550037.6999999881,O,m,1841,28,1,3.bmp,-120,-120,4.bmp,120,-120,5.bmp,-120,120,6.bmp,120,120,9890.5,540147.1999999881,7069,yes,SM,B,3.bmp,-120,120,250923,244894,252940,246907,544047.0,538021.0,546062.0,540031.0,28
2,0,1,0,0,16,test,1,1,z,Fri Feb 28 2025 11:01:48 GMT-0600 (Central Standard Time),559869.3000000119,O,z,1792,29,1,7.bmp,-120,-120,8.bmp,120,-120,9.bmp,-120,120,10.bmp,120,120,9827.800000011921,550041.5,7069,yes,SM,B,8.bmp,120,-120,250923,244894,252940,246907,553928.0,547916.0,555943.0,549927.0,29
3,0,0,1,0,17,test,1,1,z,Fri Feb 28 2025 11:01:48 GMT-0600 (Central Standard Time),569597.5999999642,O,z,1672,30,1,11.bmp,-120,-120,12.bmp,120,-120,13.bmp,-120,120,14.bmp,120,120,9725.0,559872.5999999642,7069,yes,SM,B,13.bmp,-120,120,250923,244894,252940,246907,563774.0,557747.0,565791.0,559759.0,30
1,1,0,0,0,18,test,1,1,z,Fri Feb 28 2025 11:01:48 GMT-0600 (Central Standard Time),579144.8999999762,O,z,1486,31,1,15.bmp,-120,-120,16.bmp,120,-120,17.bmp,-120,120,18.bmp,120,120,9543.0,569601.8999999762,7069,yes,SM,B,15.bmp,-120,-120,250923,244894,252940,246907,573504.0,567476.0,575520.0,569490.0,31
2,0,1,0,0,19,test,1,1,m,Fri Feb 28 2025 11:01:48 GMT-0600 (Central Standard Time),588790.5999999642,O,m,1588,32,1,19.bmp,-120,-120,20.bmp,120,-120,21.bmp,-120,120,22.bmp,120,120,9641.799999952316,579148.8000000119,7069,yes,SM,B,19.bmp,120,-120,250923,244894,252940,246907,583051.0,577023.0,585067.0,579037.0,32
4,0,0,0,1,20,test,1,1,z,Fri Feb 28 2025 11:01:48 GMT-0600 (Central Standard Time),598688.0999999642,O,z,1845,33,1,31.bmp,-120,-120,32.bmp,120,-120,33.bmp,-120,120,34.bmp,120,120,9894.5,588793.5999999642,7069,yes,SM,B,34.bmp,120,120,250923,244894,252940,246907,592698.0,586668.0,594714.0,588683.0,33
2,0,1,0,0,21,test,1,1,z,Fri Feb 28 2025 11:01:48 GMT-0600 (Central Standard Time),608036.5999999642,O,z,1284,34,1,23.bmp,-120,-120,24.bmp,120,-120,25.bmp,-120,120,26.bmp,120,120,9345.199999988079,598691.3999999762,7069,yes,SM,B,24.bmp,120,-120,250923,244894,252940,246907,602595.0,596566.0,604611.0,598579.0,34
4,0,0,0,1,22,test,1,1,m,Fri Feb 28 2025 11:01:48 GMT-0600 (Central Standard Time),617784.3999999762,O,m,1699,35,1,27.bmp,-120,-120,28.bmp,120,-120,29.bmp,-120,120,30.bmp,120,120,9743.0,608041.3999999762,7069,yes,SM,B,29.bmp,120,120,250923,244894,252940,246907,611941.0,605916.0,613959.0,607926.0,35
3,0,0,1,0,23,test,1,1,m,Fri Feb 28 2025 11:01:48 GMT-0600 (Central Standard Time),626962.8000000119,O,m,1133,36,1,35.bmp,-120,-120,36.bmp,120,-120,37.bmp,-120,120,38.bmp,120,120,9174.800000011921,617788.0,7069,yes,SM,B,35.bmp,-120,120,250923,244894,252940,246907,621687.0,615662.0,623689.0,617673.0,36
1,1,0,0,0,24,test,1,1,m,Fri Feb 28 2025 11:01:48 GMT-0600 (Central Standard Time),636159.0999999642,O,m,1133,37,1,39.bmp,-120,-120,40.bmp,120,-120,41.bmp,-120,120,42.bmp,120,120,9192.399999976158,626966.6999999881,7069,yes,SM,B,40.bmp,-120,-120,250923,244894,252940,246907,630869.0,624841.0,632885.0,626855.0,37
2,0,1,0,0,25,test,1,1,m,Fri Feb 28 2025 11:01:48 GMT-0600 (Central Standard Time),645508.0,O,m,1281,38,1,43.bmp,-120,-120,44.bmp,120,-120,45.bmp,-120,120,46.bmp,120,120,9344.199999988079,636163.8000000119,7069,yes,SM,B,45.bmp,120,-120,250923,244894,252940,246907,640067.0,634038.0,642085.0,636051.0,38
4,0,0,0,1,26,test,1,1,z,Fri Feb 28 2025 11:01:48 GMT-0600 (Central Standard Time),654787.8000000119,O,z,1226,39,1,47.bmp,-120,-120,48.bmp,120,-120,49.bmp,-120,120,50.bmp,120,120,9273.400000035763,645514.3999999762,7069,yes,SM,B,50.bmp,120,120,250923,244894,252940,246907,649412.0,643389.0,651429.0,645399.0,39
3,0,0,1,0,27,test,1,1,m,Fri Feb 28 2025 11:01:48 GMT-0600 (Central Standard Time),664133.6999999881,O,m,1283,40,1,4.bmp,-120,-120,5.bmp,120,-120,6.bmp,-120,120,7.bmp,120,120,9343.0,654790.6999999881,7069,yes,SM,B,5.bmp,-120,120,250923,244894,252940,246907,658693.0,652665.0,660710.0,654679.0,40
1,1,0,0,0,28,test,1,1,z,Fri Feb 28 2025 11:01:48 GMT-0600 (Central Standard Time),673697.3000000119,O,z,1517,41,1,8.bmp,-120,-120,9.bmp,120,-120,10.bmp,-120,120,11.bmp,120,120,9559.700000047684,664137.5999999642,7069,yes,SM,B,8.bmp,-120,-120,250923,244894,252940,246907,668027.0,662012.0,670041.0,664026.0,41
4,0,0,0,1,28,test,1,0,z,Fri Feb 28 2025 11:01:48 GMT-0600 (Central Standard Time),683627.5999999642,O,m,1875,42,1,12.bmp,-120,-120,13.bmp,120,-120,14.bmp,-120,120,15.bmp,120,120,9925.799999952316,673701.8000000119,7069,yes,SM,B,15.bmp,120,120,250923,244894,252940,246907,677605.0,671576.0,679620.0,673589.0,42
1,1,0,0,0,29,test,1,1,z,Fri Feb 28 2025 11:01:48 GMT-0600 (Central Standard Time),693276.3000000119,O,z,1600,43,1,16.bmp,-120,-120,17.bmp,120,-120,18.bmp,-120,120,19.bmp,120,120,9643.900000035763,683632.3999999762,7069,yes,SM,B,16.bmp,-120,-120,250923,244894,252940,246907,687532.0,681507.0,689535.0,683520.0,43
4,0,0,0,1,29,test,1,0,m,Fri Feb 28 2025 11:01:48 GMT-0600 (Central Standard Time),703322.8000000119,O,None,2014,44,1,4.bmp,-120,-120,1.bmp,120,-120,2.bmp,-120,120,3.bmp,120,120,10041.400000035763,693281.3999999762,7069,yes,SM,B,4.bmp,120,120,250923,244894,252940,246907,697180.0,691156.0,699183.0,693166.0,44
1,1,0,0,0,30,test,1,1,m,Fri Feb 28 2025 11:01:48 GMT-0600 (Central Standard Time),712736.0,O,m,1350,45,1,28.bmp,-120,-120,29.bmp,120,-120,30.bmp,-120,120,31.bmp,120,120,9408.100000023842,703327.8999999762,7069,yes,SM,B,31.bmp,-120,-120,250923,244894,252940,246907,707229.0,701202.0,709245.0,703213.0,45
1,1,0,0,0,31,test,1,1,m,Fri Feb 28 2025 11:01:48 GMT-0600 (Central Standard Time),721866.5,O,m,1068,46,1,20.bmp,-120,-120,21.bmp,120,-120,22.bmp,-120,120,23.bmp,120,120,9127.900000035763,712738.5999999642,7069,yes,SM,B,21.bmp,-120,-120,250923,244894,252940,246907,716641.0,710613.0,718658.0,712626.0,46
3,0,0,1,0,31,test,1,0,z,Fri Feb 28 2025 11:01:48 GMT-0600 (Central Standard Time),731930.0999999642,O,None,2016,47,1,24.bmp,-120,-120,25.bmp,120,-120,26.bmp,-120,120,27.bmp,120,120,10059.399999976158,721870.6999999881,7069,yes,SM,B,26.bmp,-120,120,250923,244894,252940,246907,725773.0,719745.0,727788.0,721757.0,47
3,0,0,1,0,32,test,1,1,z,Fri Feb 28 2025 11:01:48 GMT-0600 (Central Standard Time),741559.8000000119,O,z,1566,48,1,40.bmp,-120,-120,41.bmp,120,-120,42.bmp,-120,120,43.bmp,120,120,9625.800000011921,731934.0,7069,yes,SM,B,42.bmp,-120,120,250923,244894,252940,246907,735836.0,729808.0,737852.0,731821.0,48
2,0,1,0,0,33,test,1,1,z,Fri Feb 28 2025 11:01:48 GMT-0600 (Central Standard Time),751106.1999999881,O,z,1507,49,1,36.bmp,-120,-120,37.bmp,120,-120,38.bmp,-120,120,39.bmp,120,120,9542.600000023842,741563.5999999642,7069,yes,SM,B,37.bmp,120,-120,250923,244894,252940,246907,745466.0,739438.0,747467.0,741450.0,49
3,0,0,1,0,33,test,1,0,m,Fri Feb 28 2025 11:01:48 GMT-0600 (Central Standard Time),761137.6999999881,O,None,2001,50,1,32.bmp,-120,-120,33.bmp,120,-120,34.bmp,-120,120,35.bmp,120,120,10028.5,751109.1999999881,7069,yes,SM,B,32.bmp,-120,120,250923,244894,252940,246907,754998.0,748983.0,757011.0,750997.0,50
2,0,1,0,0,34,test,1,1,z,Fri Feb 28 2025 11:01:48 GMT-0600 (Central Standard Time),770833.6999999881,O,z,1645,51,1,44.bmp,-120,-120,45.bmp,120,-120,46.bmp,-120,120,47.bmp,120,120,9692.899999976158,761140.8000000119,7069,yes,SM,B,45.bmp,120,-120,250923,244894,252940,246907,765043.0,759015.0,767058.0,761028.0,51
4,0,0,0,1,35,test,1,1,m,Fri Feb 28 2025 11:01:48 GMT-0600 (Central Standard Time),780181.3000000119,O,m,1291,52,1,48.bmp,-120,-120,49.bmp,120,-120,50.bmp,-120,120,31.bmp,120,120,9344.5,770836.8000000119,7069,yes,SM,B,48.bmp,120,120,250923,244894,252940,246907,774739.0,768711.0,776756.0,770726.0,52
3,0,0,1,0,36,test,1,1,z,Fri Feb 28 2025 11:01:48 GMT-0600 (Central Standard Time),790227.5,O,z,1992,53,1,1.bmp,-120,-120,2.bmp,120,-120,3.bmp,-120,120,4.bmp,120,120,10042.800000011921,780184.6999999881,7069,yes,SM,B,3.bmp,-120,120,250923,244894,252940,246907,784087.0,778059.0,786103.0,780072.0,53
1,1,0,0,0,37,test,1,1,m,Fri Feb 28 2025 11:01:48 GMT-0600 (Central Standard Time),800240.5999999642,O,m,1977,54,1,5.bmp,-120,-120,6.bmp,120,-120,7.bmp,-120,120,8.bmp,120,120,10010.099999964237,790230.5,7069,yes,SM,B,7.bmp,-120,-120,250923,244894,252940,246907,794119.0,788105.0,796134.0,790118.0,54
4,0,0,0,1,37,test,1,0,z,Fri Feb 28 2025 11:01:48 GMT-0600 (Central Standard Time),810071.0999999642,O,m,1771,55,1,9.bmp,-120,-120,10.bmp,120,-120,11.bmp,-120,120,12.bmp,120,120,9827.0,800244.0999999642,7069,yes,SM,B,12.bmp,120,120,250923,244894,252940,246907,804147.0,798118.0,806164.0,800132.0,55
2,0,1,0,0,38,test,1,1,m,Fri Feb 28 2025 11:01:48 GMT-0600 (Central Standard Time),819135.1999999881,O,m,1005,56,1,13.bmp,-120,-120,14.bmp,120,-120,15.bmp,-120,120,16.bmp,120,120,9057.5,810077.6999999881,7069,yes,SM,B,13.bmp,120,-120,250923,244894,252940,246907,813977.0,807952.0,815994.0,809963.0,56
4,0,0,0,1,39,test,1,1,m,Fri Feb 28 2025 11:01:48 GMT-0600 (Central Standard Time),828880.8999999762,O,m,1708,57,1,17.bmp,-120,-120,18.bmp,120,-120,19.bmp,-120,120,20.bmp,120,120,9742.0,819138.8999999762,7069,yes,SM,B,18.bmp,120,120,250923,244894,252940,246907,823040.0,817013.0,825042.0,819026.0,57
3,0,0,1,0,39,test,1,0,z,Fri Feb 28 2025 11:01:48 GMT-0600 (Central Standard Time),838445.5,O,m,1505,58,1,21.bmp,-120,-120,22.bmp,120,-120,23.bmp,-120,120,24.bmp,120,120,9560.600000023842,828884.8999999762,7069,yes,SM,B,23.bmp,-120,120,250923,244894,252940,246907,832788.0,826759.0,834805.0,828774.0,58
2,0,1,0,0,40,test,1,1,m,Fri Feb 28 2025 11:01:48 GMT-0600 (Central Standard Time),847543.0,O,m,1039,59,1,25.bmp,-120,-120,26.bmp,120,-120,27.bmp,-120,120,28.bmp,120,120,9093.900000035763,838449.0999999642,7069,yes,SM,B,28.bmp,120,-120,250923,244894,252940,246907,842351.0,836323.0,844368.0,838337.0,59
1,1,0,0,0,40,test,1,0,z,Fri Feb 28 2025 11:01:48 GMT-0600 (Central Standard Time),857521.8000000119,O,m,1925,60,1,29.bmp,-120,-120,30.bmp,120,-120,31.bmp,-120,120,32.bmp,120,120,9975.400000035763,847546.3999999762,7069,yes,SM,B,29.bmp,-120,-120,250923,244894,252940,246907,851448.0,845421.0,853466.0,847433.0,60
2,0,1,0,0,41,test,1,1,z,Fri Feb 28 2025 11:01:48 GMT-0600 (Central Standard Time),867302.8999999762,O,z,1719,61,1,33.bmp,-120,-120,34.bmp,120,-120,35.bmp,-120,120,36.bmp,120,120,9776.5,857526.3999999762,7069,yes,SM,B,34.bmp,120,-120,250923,244894,252940,246907,861429.0,855401.0,863448.0,857414.0,61
4,0,0,0,1,41,test,1,0,z,Fri Feb 28 2025 11:01:48 GMT-0600 (Central Standard Time),877284.1999999881,O,m,1918,62,1,41.bmp,-120,-120,42.bmp,120,-120,43.bmp,-120,120,44.bmp,120,120,9977.699999988079,867306.5,7069,yes,SM,B,44.bmp,120,120,250923,244894,252940,246907,871209.0,865181.0,873225.0,867193.0,62
1,1,0,0,0,42,test,1,1,m,Fri Feb 28 2025 11:01:48 GMT-0600 (Central Standard Time),886463.5999999642,O,m,1129,63,1,45.bmp,-120,-120,46.bmp,120,-120,47.bmp,-120,120,48.bmp,120,120,9175.799999952316,877287.8000000119,7069,yes,SM,B,45.bmp,-120,120,250923,244894,252940,246907,881190.0,875162.0,883206.0,877175.0,63
2,0,1,0,0,43,test,1,1,z,Fri Feb 28 2025 11:01:48 GMT-0600 (Central Standard Time),896077.5999999642,O,z,1551,64,1,49.bmp,-120,-120,50.bmp,120,-120,12.bmp,-120,120,1.bmp,120,120,9608.799999952316,886468.8000000119,7069,yes,SM,B,50.bmp,120,-120,250923,244894,252940,246907,890369.0,884343.0,892385.0,886356.0,64
4,0,0,0,1,44,test,1,1,m,Fri Feb 28 2025 11:01:48 GMT-0600 (Central Standard Time),905308.3999999762,O,m,1167,65,1,2.bmp,-120,-120,3.bmp,120,-120,4.bmp,-120,120,5.bmp,120,120,9227.0,896081.3999999762,7069,yes,SM,B,4.bmp,120,120,250923,244894,252940,246907,899984.0,893956.0,902000.0,895968.0,65
3,0,0,1,0,45,test,1,1,m,Fri Feb 28 2025 11:01:48 GMT-0600 (Central Standard Time),914687.0999999642,O,m,1319,66,1,6.bmp,-120,-120,7.bmp,120,-120,8.bmp,-120,120,9.bmp,120,120,9374.799999952316,905312.3000000119,7069,yes,SM,B,9.bmp,-120,120,250923,244894,252940,246907,909213.0,903187.0,911231.0,905199.0,66
2,0,1,0,0,45,test,1,0,m,Fri Feb 28 2025 11:01:48 GMT-0600 (Central Standard Time),924518.0999999642,O,z,1772,67,1,37.bmp,-120,-120,38.bmp,120,-120,39.bmp,-120,120,40.bmp,120,120,9828.5,914689.5999999642,7069,yes,SM,B,39.bmp,120,-120,250923,244894,252940,246907,918594.0,912564.0,920611.0,914580.0,67
3,0,0,1,0,45,test,1,0,z,Fri Feb 28 2025 11:01:48 GMT-0600 (Central Standard Time),934099.0999999642,O,m,1516,68,1,10.bmp,-120,-120,11.bmp,120,-120,12.bmp,-120,120,13.bmp,120,120,9578.0,924521.0999999642,7069,yes,SM,B,12.bmp,-120,120,250923,244894,252940,246907,928425.0,922395.0,930442.0,924409.0,68
1,1,0,0,0,45,test,1,0,m,Fri Feb 28 2025 11:01:48 GMT-0600 (Central Standard Time),943894.6999999881,O,z,1746,69,1,14.bmp,-120,-120,15.bmp,120,-120,16.bmp,-120,120,17.bmp,120,120,9791.0,934103.6999999881,7069,yes,SM,B,15.bmp,-120,-120,250923,244894,252940,246907,938006.0,931978.0,940021.0,933989.0,69
2,0,1,0,0,46,test,1,1,m,Fri Feb 28 2025 11:01:48 GMT-0600 (Central Standard Time),953043.3999999762,O,m,1107,70,1,18.bmp,-120,-120,19.bmp,120,-120,20.bmp,-120,120,21.bmp,120,120,9143.899999976158,943899.5,7069,yes,SM,B,20.bmp,120,-120,250923,244894,252940,246907,947801.0,941774.0,949804.0,943787.0,70
4,0,0,0,1,47,test,1,1,z,Fri Feb 28 2025 11:01:48 GMT-0600 (Central Standard Time),962539.1999999881,O,z,1432,71,1,22.bmp,-120,-120,23.bmp,120,-120,24.bmp,-120,120,25.bmp,120,120,9492.300000011921,953046.8999999762,7069,yes,SM,B,25.bmp,120,120,250923,244894,252940,246907,956949.0,950921.0,958966.0,952933.0,71
1,1,0,0,0,47,test,1,0,z,Fri Feb 28 2025 11:01:48 GMT-0600 (Central Standard Time),971903.3000000119,O,m,1304,72,1,26.bmp,-120,-120,27.bmp,120,-120,28.bmp,-120,120,29.bmp,120,120,9359.5,962543.8000000119,7069,yes,SM,B,26.bmp,-120,-120,250923,244894,252940,246907,966445.0,960418.0,968463.0,962431.0,72
2,0,1,0,0,48,test,1,1,z,Fri Feb 28 2025 11:01:48 GMT-0600 (Central Standard Time),981533.8000000119,O,z,1589,73,1,30.bmp,-120,-120,31.bmp,120,-120,32.bmp,-120,120,33.bmp,120,120,9627.300000011921,971906.5,7069,yes,SM,B,31.bmp,120,-120,250923,244894,252940,246907,975808.0,969781.0,977810.0,971794.0,73
4,0,0,0,1,49,test,1,1,m,Fri Feb 28 2025 11:01:48 GMT-0600 (Central Standard Time),991198.8999999762,O,m,1616,74,1,34.bmp,-120,-120,35.bmp,120,-120,36.bmp,-120,120,37.bmp,120,120,9661.699999988079,981537.1999999881,7069,yes,SM,B,36.bmp,120,120,250923,244894,252940,246907,985439.0,979411.0,987456.0,981424.0,74
2,0,1,0,0,50,test,1,1,m,Fri Feb 28 2025 11:01:48 GMT-0600 (Central Standard Time),1000429.0,O,m,1183,75,1,38.bmp,-120,-120,39.bmp,120,-120,40.bmp,-120,120,41.bmp,120,120,9226.800000011921,991202.1999999881,7069,yes,SM,B,41.bmp,120,-120,250923,244894,252940,246907,995104.0,989076.0,997120.0,991088.0,75
1,1,0,0,0,51,test,1,1,z,Fri Feb 28 2025 11:01:48 GMT-0600 (Central Standard Time),1009891.6999999881,O,z,1407,76,1,42.bmp,-120,-120,43.bmp,120,-120,44.bmp,-120,120,45.bmp,120,120,9459.100000023842,1000432.5999999642,7069,yes,SM,B,42.bmp,-120,-120,250923,244894,252940,246907,1004334.0,998307.0,1006351.0,1000319.0,76
3,0,0,1,0,51,test,1,0,z,Fri Feb 28 2025 11:01:48 GMT-0600 (Central Standard Time),1019956.3999999762,O,None,2016,77,1,50.bmp,-120,-120,11.bmp,120,-120,1.bmp,-120,120,2.bmp,120,120,10061.099999964237,1009895.3000000119,7069,yes,SM,B,1.bmp,-120,120,250923,244894,252940,246907,1013796.0,1007770.0,1015814.0,1009782.0,77
1,1,0,0,0,51,test,1,0,m,Fri Feb 28 2025 11:01:48 GMT-0600 (Central Standard Time),1030018.1999999881,O,None,2015,78,1,46.bmp,-120,-120,47.bmp,120,-120,48.bmp,-120,120,49.bmp,120,120,10056.800000011921,1019961.3999999762,7069,yes,SM,B,47.bmp,-120,-120,250923,244894,252940,246907,1023861.0,1017836.0,1025877.0,1019846.0,78
4,0,0,0,1,52,test,1,1,m,Fri Feb 28 2025 11:01:48 GMT-0600 (Central Standard Time),1039448.5,O,m,1370,79,1,7.bmp,-120,-120,8.bmp,120,-120,9.bmp,-120,120,10.bmp,120,120,9425.600000023842,1030022.8999999762,7069,yes,SM,B,7.bmp,120,120,250923,244894,252940,246907,1033924.0,1027897.0,1035941.0,1029909.0,79
3,0,0,1,0,53,test,1,1,m,Fri Feb 28 2025 11:01:48 GMT-0600 (Central Standard Time),1049296.5,O,m,1786,80,1,3.bmp,-120,-120,4.bmp,120,-120,5.bmp,-120,120,6.bmp,120,120,9844.100000023842,1039452.3999999762,7069,yes,SM,B,6.bmp,-120,120,250923,244894,252940,246907,1043354.0,1037327.0,1045372.0,1039339.0,80
