Number,acc_sum,block,block_c,block_cond,con_img,correct,correct_response,datetime,endtime,jitter,project,response,response_time,row_sel,session_number,start_end,starttime,subject_id,task,task_vers,trial
1,0,prac,1,A,circle.png,0,z,Thu Jan 23 2025 14:12:39 GMT-0600 (Central Standard Time),65319.0,1000,I,None,1514,1,1,3293.60000000149,62025.39999999851,8017,NTS,A,1
2,0,prac,1,A,circle.png,0,z,Thu Jan 23 2025 14:12:39 GMT-0600 (Central Standard Time),69617.60000000149,2000,I,None,1514,2,1,4293.0,65324.60000000149,8017,NTS,A,2
6,0,prac,1,A,circle.png,0,m,Thu Jan 23 2025 14:12:39 GMT-0600 (Central Standard Time),73815.89999999851,1900,I,None,1514,5,1,4192.60000000149,69623.29999999702,8017,NTS,A,3
3,1,prac,1,A,circle.png,1,z,Thu Jan 23 2025 14:12:39 GMT-0600 (Central Standard Time),76365.29999999702,1200,I,z,552,3,1,2543.5,73821.79999999702,8017,NTS,A,4
6,2,prac,1,A,circle.png,1,m,Thu Jan 23 2025 14:12:39 GMT-0600 (Central Standard Time),79897.39999999851,1900,I,m,840,5,1,3526.7000000029802,76370.69999999553,8017,NTS,A,5
8,3,prac,1,A,circle.png,1,m,Thu Jan 23 2025 14:12:39 GMT-0600 (Central Standard Time),82896.60000000149,1600,I,m,592,7,1,2993.5,79903.10000000149,8017,NTS,A,6
3,4,prac,1,A,circle.png,1,z,Thu Jan 23 2025 14:12:39 GMT-0600 (Central Standard Time),85446.0,1200,I,z,552,3,1,2544.3000000044703,82901.69999999553,8017,NTS,A,7
4,5,prac,1,A,circle.png,1,z,Thu Jan 23 2025 14:12:39 GMT-0600 (Central Standard Time),88278.10000000149,1400,I,z,635,4,1,2827.3000000044703,85450.79999999702,8017,NTS,A,8
8,6,prac,1,A,circle.png,1,m,Thu Jan 23 2025 14:12:39 GMT-0600 (Central Standard Time),91310.79999999702,1600,I,m,643,7,1,3027.39999999851,88283.39999999851,8017,NTS,A,9
2,7,prac,1,A,circle.png,1,z,Thu Jan 23 2025 14:12:39 GMT-0600 (Central Standard Time),94642.79999999702,2000,I,z,546,2,1,3327.10000000149,91315.69999999553,8017,NTS,A,10
9,8,prac,1,A,circle.png,1,m,Thu Jan 23 2025 14:12:39 GMT-0600 (Central Standard Time),97508.69999999553,1500,I,m,578,8,1,2860.6999999955297,94648.0,8017,NTS,A,11
7,9,prac,1,A,circle.png,1,m,Thu Jan 23 2025 14:12:39 GMT-0600 (Central Standard Time),101140.89999999851,1700,I,m,1136,6,1,3626.89999999851,97514.0,8017,NTS,A,12
1,1,prac,1,B,triangle.png,1,z,Thu Jan 23 2025 14:12:39 GMT-0600 (Central Standard Time),128182.29999999702,1900,I,z,668,1,1,3361.5,124820.79999999702,8017,NTS,A,1
1,2,prac,1,B,triangle.png,1,z,Thu Jan 23 2025 14:12:39 GMT-0600 (Central Standard Time),131347.69999999553,1900,I,z,479,1,1,3159.7999999970198,128187.89999999851,8017,NTS,A,2
6,3,prac,1,B,triangle.png,1,m,Thu Jan 23 2025 14:12:39 GMT-0600 (Central Standard Time),133864.1000000015,1000,I,m,724,5,1,2511.4000000059605,131352.69999999553,8017,NTS,A,3
3,4,prac,1,B,triangle.png,1,z,Thu Jan 23 2025 14:12:39 GMT-0600 (Central Standard Time),136796.5,1600,I,z,537,3,1,2927.7000000029802,133868.79999999702,8017,NTS,A,4
8,5,prac,1,B,triangle.png,1,m,Thu Jan 23 2025 14:12:39 GMT-0600 (Central Standard Time),139278.69999999553,1200,I,m,484,7,1,2477.1999999955297,136801.5,8017,NTS,A,5
7,6,prac,1,B,triangle.png,1,z,Thu Jan 23 2025 14:12:39 GMT-0600 (Central Standard Time),142611.0,2000,I,z,545,6,1,3327.39999999851,139283.6000000015,8017,NTS,A,6
4,7,prac,1,B,triangle.png,1,m,Thu Jan 23 2025 14:12:39 GMT-0600 (Central Standard Time),146143.3999999985,1500,I,m,1234,4,1,3527.10000000149,142616.29999999702,8017,NTS,A,7
9,8,prac,1,B,triangle.png,1,z,Thu Jan 23 2025 14:12:39 GMT-0600 (Central Standard Time),149109.1000000015,1400,I,z,777,8,1,2961.0,146148.1000000015,8017,NTS,A,8
8,9,prac,1,B,triangle.png,1,m,Thu Jan 23 2025 14:12:39 GMT-0600 (Central Standard Time),151708.3999999985,1200,I,m,603,7,1,2594.60000000149,149113.79999999702,8017,NTS,A,9
4,10,prac,1,B,triangle.png,1,m,Thu Jan 23 2025 14:12:39 GMT-0600 (Central Standard Time),154590.6000000015,1500,I,m,585,4,1,2877.5,151713.1000000015,8017,NTS,A,10
2,11,prac,1,B,triangle.png,1,m,Thu Jan 23 2025 14:12:39 GMT-0600 (Central Standard Time),157955.8999999985,1700,I,m,878,2,1,3360.10000000149,154595.79999999702,8017,NTS,A,11
2,12,prac,1,B,triangle.png,1,m,Thu Jan 23 2025 14:12:39 GMT-0600 (Central Standard Time),160971.8999999985,1700,I,m,521,2,1,3010.2000000029802,157961.69999999553,8017,NTS,A,12
6,1,test,1,A,circle.png,1,m,Thu Jan 23 2025 14:12:39 GMT-0600 (Central Standard Time),181065.6000000015,1900,I,m,565,5,1,2494.0,178571.6000000015,8017,NTS,A,1
9,2,test,1,A,circle.png,1,m,Thu Jan 23 2025 14:12:39 GMT-0600 (Central Standard Time),183148.5,1500,I,m,554,8,1,2078.60000000149,181069.8999999985,8017,NTS,A,2
4,3,test,1,A,circle.png,1,z,Thu Jan 23 2025 14:12:39 GMT-0600 (Central Standard Time),184981.0,1400,I,z,412,4,1,1828.7000000029802,183152.29999999702,8017,NTS,A,3
6,4,test,1,A,circle.png,1,m,Thu Jan 23 2025 14:12:39 GMT-0600 (Central Standard Time),187446.79999999702,1900,I,m,536,5,1,2461.89999999851,184984.8999999985,8017,NTS,A,4
4,5,test,1,A,circle.png,1,z,Thu Jan 23 2025 14:12:39 GMT-0600 (Central Standard Time),189579.29999999702,1400,I,z,714,4,1,2129.10000000149,187450.19999999553,8017,NTS,A,5
1,6,test,1,A,circle.png,1,z,Thu Jan 23 2025 14:12:39 GMT-0600 (Central Standard Time),191112.5,1000,I,z,501,1,1,1529.3999999985099,189583.1000000015,8017,NTS,A,6
6,7,test,1,A,circle.png,1,m,Thu Jan 23 2025 14:12:39 GMT-0600 (Central Standard Time),193594.79999999702,1900,I,m,548,5,1,2478.6999999955297,191116.1000000015,8017,NTS,A,7
1,8,test,1,A,circle.png,1,z,Thu Jan 23 2025 14:12:39 GMT-0600 (Central Standard Time),195194.5,1000,I,z,573,1,1,1596.0,193598.5,8017,NTS,A,8
2,9,test,1,A,circle.png,1,z,Thu Jan 23 2025 14:12:39 GMT-0600 (Central Standard Time),197827.0,2000,I,z,615,2,1,2628.8000000044703,195198.19999999553,8017,NTS,A,9
2,10,test,1,A,circle.png,1,z,Thu Jan 23 2025 14:12:39 GMT-0600 (Central Standard Time),200359.6000000015,2000,I,z,502,2,1,2528.9000000059605,197830.69999999553,8017,NTS,A,10
9,11,test,1,A,circle.png,1,m,Thu Jan 23 2025 14:12:39 GMT-0600 (Central Standard Time),202475.6000000015,1500,I,m,589,8,1,2112.3000000044703,200363.29999999702,8017,NTS,A,11
2,12,test,1,A,circle.png,1,z,Thu Jan 23 2025 14:12:39 GMT-0600 (Central Standard Time),205141.3999999985,2000,I,z,636,2,1,2661.89999999851,202479.5,8017,NTS,A,12
8,13,test,1,A,circle.png,1,m,Thu Jan 23 2025 14:12:39 GMT-0600 (Central Standard Time),207190.69999999553,1600,I,m,427,7,1,2045.5999999940395,205145.1000000015,8017,NTS,A,13
4,14,test,1,A,circle.png,1,z,Thu Jan 23 2025 14:12:39 GMT-0600 (Central Standard Time),209340.0,1400,I,z,722,4,1,2145.60000000149,207194.3999999985,8017,NTS,A,14
7,15,test,1,A,circle.png,1,m,Thu Jan 23 2025 14:12:39 GMT-0600 (Central Standard Time),211689.6000000015,1700,I,m,616,6,1,2345.9000000059605,209343.69999999553,8017,NTS,A,15
8,16,test,1,A,circle.png,1,m,Thu Jan 23 2025 14:12:39 GMT-0600 (Central Standard Time),214071.69999999553,1600,I,m,759,7,1,2378.5999999940395,211693.1000000015,8017,NTS,A,16
3,17,test,1,A,circle.png,1,z,Thu Jan 23 2025 14:12:39 GMT-0600 (Central Standard Time),215871.3999999985,1200,I,z,569,3,1,1796.0,214075.3999999985,8017,NTS,A,17
7,18,test,1,A,circle.png,1,m,Thu Jan 23 2025 14:12:39 GMT-0600 (Central Standard Time),218170.3999999985,1700,I,m,572,6,1,2295.2999999970198,215875.1000000015,8017,NTS,A,18
7,19,test,1,A,circle.png,1,m,Thu Jan 23 2025 14:12:39 GMT-0600 (Central Standard Time),220353.29999999702,1700,I,m,458,6,1,2179.0,218174.29999999702,8017,NTS,A,19
6,20,test,1,A,circle.png,1,m,Thu Jan 23 2025 14:12:39 GMT-0600 (Central Standard Time),222946.29999999702,1900,I,m,658,5,1,2589.6999999955297,220356.6000000015,8017,NTS,A,20
3,21,test,1,A,circle.png,1,z,Thu Jan 23 2025 14:12:39 GMT-0600 (Central Standard Time),224635.19999999553,1200,I,z,481,3,1,1685.0999999940395,222950.1000000015,8017,NTS,A,21
9,22,test,1,A,circle.png,1,m,Thu Jan 23 2025 14:12:39 GMT-0600 (Central Standard Time),226617.8999999985,1500,I,m,457,8,1,1979.2999999970198,224638.6000000015,8017,NTS,A,22
1,23,test,1,A,circle.png,1,z,Thu Jan 23 2025 14:12:39 GMT-0600 (Central Standard Time),228250.79999999702,1000,I,z,599,1,1,1629.5,226621.29999999702,8017,NTS,A,23
8,24,test,1,A,circle.png,1,m,Thu Jan 23 2025 14:12:39 GMT-0600 (Central Standard Time),230383.6000000015,1600,I,m,510,7,1,2129.2000000029802,228254.3999999985,8017,NTS,A,24
9,0,test,1,B,triangle.png,0,z,Thu Jan 23 2025 14:12:39 GMT-0600 (Central Standard Time),250210.69999999553,1900,I,m,540,16,1,2463.0,247747.69999999553,8017,NTS,A,1
6,1,test,1,B,triangle.png,1,m,Thu Jan 23 2025 14:12:39 GMT-0600 (Central Standard Time),252626.6000000015,1500,I,m,889,13,1,2412.0,250214.6000000015,8017,NTS,A,2
7,2,test,1,B,triangle.png,1,z,Thu Jan 23 2025 14:12:39 GMT-0600 (Central Standard Time),254959.0,1600,I,z,703,14,1,2329.0,252630.0,8017,NTS,A,3
4,3,test,1,B,triangle.png,1,m,Thu Jan 23 2025 14:12:39 GMT-0600 (Central Standard Time),257241.69999999553,1500,I,m,758,4,1,2278.6999999955297,254963.0,8017,NTS,A,4
3,4,test,1,B,triangle.png,1,z,Thu Jan 23 2025 14:12:39 GMT-0600 (Central Standard Time),259940.5,2000,I,z,680,11,1,2695.0,257245.5,8017,NTS,A,5
8,5,test,1,B,triangle.png,1,m,Thu Jan 23 2025 14:12:39 GMT-0600 (Central Standard Time),261756.8999999985,1200,I,m,587,7,1,1813.1000000014901,259943.79999999702,8017,NTS,A,6
7,6,test,1,B,triangle.png,1,z,Thu Jan 23 2025 14:12:39 GMT-0600 (Central Standard Time),264522.8999999985,2000,I,z,732,6,1,2762.5,261760.3999999985,8017,NTS,A,7
1,7,test,1,B,triangle.png,1,z,Thu Jan 23 2025 14:12:39 GMT-0600 (Central Standard Time),266739.19999999553,1400,I,z,798,9,1,2212.5999999940395,264526.6000000015,8017,NTS,A,8
8,8,test,1,B,triangle.png,1,m,Thu Jan 23 2025 14:12:39 GMT-0600 (Central Standard Time),268671.5,1200,I,m,710,7,1,1928.7000000029802,266742.799999997,8017,NTS,A,9
1,9,test,1,B,triangle.png,1,z,Thu Jan 23 2025 14:12:39 GMT-0600 (Central Standard Time),270653.8999999985,1400,I,z,562,9,1,1978.5,268675.3999999985,8017,NTS,A,10
9,10,test,1,B,triangle.png,1,z,Thu Jan 23 2025 14:12:39 GMT-0600 (Central Standard Time),273386.8999999985,1900,I,z,798,16,1,2729.39999999851,270657.5,8017,NTS,A,11
4,11,test,1,B,triangle.png,1,m,Thu Jan 23 2025 14:12:39 GMT-0600 (Central Standard Time),274936.19999999553,1000,I,m,526,12,1,1545.5999999940395,273390.6000000015,8017,NTS,A,12
6,12,test,1,B,triangle.png,1,m,Thu Jan 23 2025 14:12:39 GMT-0600 (Central Standard Time),276619.0,1000,I,m,649,5,1,1679.0,274940.0,8017,NTS,A,13
9,13,test,1,B,triangle.png,1,z,Thu Jan 23 2025 14:12:39 GMT-0600 (Central Standard Time),278634.799999997,1400,I,z,590,8,1,2012.2999999970198,276622.5,8017,NTS,A,14
8,14,test,1,B,triangle.png,1,m,Thu Jan 23 2025 14:12:39 GMT-0600 (Central Standard Time),281000.799999997,1700,I,m,634,15,1,2362.39999999851,278638.3999999985,8017,NTS,A,15
1,15,test,1,B,triangle.png,1,z,Thu Jan 23 2025 14:12:39 GMT-0600 (Central Standard Time),283450.1000000015,1900,I,z,523,1,1,2445.8000000044703,281004.299999997,8017,NTS,A,16
4,16,test,1,B,triangle.png,1,m,Thu Jan 23 2025 14:12:39 GMT-0600 (Central Standard Time),285132.799999997,1000,I,m,663,12,1,1679.1999999955297,283453.6000000015,8017,NTS,A,17
2,17,test,1,B,triangle.png,1,m,Thu Jan 23 2025 14:12:39 GMT-0600 (Central Standard Time),287382.299999997,1700,I,m,520,2,1,2245.7999999970198,285136.5,8017,NTS,A,18
6,18,test,1,B,triangle.png,1,m,Thu Jan 23 2025 14:12:39 GMT-0600 (Central Standard Time),289331.3999999985,1500,I,m,431,13,1,1945.5,287385.8999999985,8017,NTS,A,19
4,19,test,1,B,triangle.png,1,m,Thu Jan 23 2025 14:12:39 GMT-0600 (Central Standard Time),291347.6000000015,1500,I,m,490,4,1,2012.9000000059605,289334.69999999553,8017,NTS,A,20
6,20,test,1,B,triangle.png,1,m,Thu Jan 23 2025 14:12:39 GMT-0600 (Central Standard Time),292880.6000000015,1000,I,m,500,5,1,1529.3000000044703,291351.299999997,8017,NTS,A,21
2,21,test,1,B,triangle.png,1,m,Thu Jan 23 2025 14:12:39 GMT-0600 (Central Standard Time),294679.8999999985,1200,I,m,569,10,1,1795.7999999970198,292884.1000000015,8017,NTS,A,22
3,22,test,1,B,triangle.png,1,z,Thu Jan 23 2025 14:12:39 GMT-0600 (Central Standard Time),297045.5,1600,I,z,744,3,1,2361.89999999851,294683.6000000015,8017,NTS,A,23
1,23,test,1,B,triangle.png,1,z,Thu Jan 23 2025 14:12:39 GMT-0600 (Central Standard Time),300411.3999999985,1900,I,z,1447,1,1,3360.39999999851,297051.0,8017,NTS,A,24
9,0,prac,1,C,circle.png,0,m,Thu Jan 23 2025 14:12:39 GMT-0600 (Central Standard Time),340611.19999999553,1900,I,None,1514,8,1,4190.0,336421.19999999553,8017,NTS,A,1
6,1,prac,1,C,circle.png,1,m,Thu Jan 23 2025 14:12:39 GMT-0600 (Central Standard Time),343948.8999999985,2000,I,m,545,5,1,3331.39999999851,340617.5,8017,NTS,A,2
1,1,prac,1,C,circle.png,0,z,Thu Jan 23 2025 14:12:39 GMT-0600 (Central Standard Time),347098.1000000015,1700,I,m,656,1,1,3144.4000000059605,343953.69999999553,8017,NTS,A,3
9,2,prac,1,C,circle.png,1,m,Thu Jan 23 2025 14:12:39 GMT-0600 (Central Standard Time),350462.6000000015,1900,I,m,676,8,1,3359.0,347103.6000000015,8017,NTS,A,4
1,3,prac,1,C,circle.png,1,z,Thu Jan 23 2025 14:12:39 GMT-0600 (Central Standard Time),354311.3999999985,1700,I,z,1350,1,1,3844.0,350467.3999999985,8017,NTS,A,5
4,3,prac,1,C,circle.png,0,z,Thu Jan 23 2025 14:12:39 GMT-0600 (Central Standard Time),356710.6000000015,1000,I,m,610,4,1,2394.0,354316.6000000015,8017,NTS,A,6
2,3,prac,1,C,triangle.png,0,m,Thu Jan 23 2025 14:12:39 GMT-0600 (Central Standard Time),360059.5,1600,I,z,955,2,1,3344.2000000029802,356715.299999997,8017,NTS,A,7
3,4,prac,1,C,triangle.png,1,z,Thu Jan 23 2025 14:12:39 GMT-0600 (Central Standard Time),363075.19999999553,1500,I,z,728,3,1,3010.5999999940395,360064.6000000015,8017,NTS,A,8
8,5,prac,1,C,triangle.png,1,m,Thu Jan 23 2025 14:12:39 GMT-0600 (Central Standard Time),366491.0,1400,I,m,1222,7,1,3411.0,363080.0,8017,NTS,A,9
2,5,prac,1,C,triangle.png,0,m,Thu Jan 23 2025 14:12:39 GMT-0600 (Central Standard Time),370056.3999999985,1600,I,z,1165,2,1,3560.5,366495.8999999985,8017,NTS,A,10
7,6,prac,1,C,triangle.png,1,z,Thu Jan 23 2025 14:12:39 GMT-0600 (Central Standard Time),373288.69999999553,1200,I,z,1240,6,1,3227.39999999851,370061.299999997,8017,NTS,A,11
3,6,prac,1,C,triangle.png,0,z,Thu Jan 23 2025 14:12:39 GMT-0600 (Central Standard Time),377087.299999997,1500,I,None,1514,3,1,3794.0,373293.299999997,8017,NTS,A,12
1,1,prac,2,C,circle.png,1,z,Thu Jan 23 2025 14:12:39 GMT-0600 (Central Standard Time),401113.5,1700,I,z,782,1,1,3278.5,397835.0,8017,NTS,A,1
3,1,prac,2,C,triangle.png,0,z,Thu Jan 23 2025 14:12:39 GMT-0600 (Central Standard Time),404228.8999999985,1500,I,m,818,3,1,3110.2000000029802,401118.69999999553,8017,NTS,A,2
2,2,prac,2,C,triangle.png,1,m,Thu Jan 23 2025 14:12:39 GMT-0600 (Central Standard Time),407994.5,1600,I,m,1380,2,1,3760.8000000044703,404233.69999999553,8017,NTS,A,3
4,2,prac,2,C,circle.png,0,z,Thu Jan 23 2025 14:12:39 GMT-0600 (Central Standard Time),410693.69999999553,1000,I,m,910,4,1,2692.89999999851,408000.799999997,8017,NTS,A,4
7,3,prac,2,C,triangle.png,1,z,Thu Jan 23 2025 14:12:39 GMT-0600 (Central Standard Time),413559.5,1200,I,z,867,6,1,2860.89999999851,410698.6000000015,8017,NTS,A,5
6,4,prac,2,C,circle.png,1,m,Thu Jan 23 2025 14:12:39 GMT-0600 (Central Standard Time),417274.799999997,2000,I,m,922,5,1,3710.7999999970198,413564.0,8017,NTS,A,6
8,5,prac,2,C,triangle.png,1,m,Thu Jan 23 2025 14:12:39 GMT-0600 (Central Standard Time),420157.19999999553,1400,I,m,693,7,1,2877.6999999955297,417279.5,8017,NTS,A,7
9,6,prac,2,C,circle.png,1,m,Thu Jan 23 2025 14:12:39 GMT-0600 (Central Standard Time),424139.19999999553,1900,I,m,1296,8,1,3977.1999999955297,420162.0,8017,NTS,A,8
2,7,prac,2,C,triangle.png,1,m,Thu Jan 23 2025 14:12:39 GMT-0600 (Central Standard Time),427621.3999999985,1600,I,m,1086,2,1,3477.2999999970198,424144.1000000015,8017,NTS,A,9
7,8,prac,2,C,triangle.png,1,z,Thu Jan 23 2025 14:12:39 GMT-0600 (Central Standard Time),430287.5,1200,I,z,674,6,1,2661.3000000044703,427626.19999999553,8017,NTS,A,10
4,9,prac,2,C,circle.png,1,z,Thu Jan 23 2025 14:12:39 GMT-0600 (Central Standard Time),433469.5,1000,I,z,1383,4,1,3176.89999999851,430292.6000000015,8017,NTS,A,11
6,10,prac,2,C,circle.png,1,m,Thu Jan 23 2025 14:12:39 GMT-0600 (Central Standard Time),437302.0,2000,I,m,1035,5,1,3828.0,433474.0,8017,NTS,A,12
6,1,test,1,C,circle.png,1,m,Thu Jan 23 2025 14:12:39 GMT-0600 (Central Standard Time),454463.0,1900,I,m,902,5,1,2829.0,451634.0,8017,NTS,A,1
4,2,test,1,C,triangle.png,1,m,Thu Jan 23 2025 14:12:39 GMT-0600 (Central Standard Time),456828.8999999985,1500,I,m,838,20,1,2362.0,454466.8999999985,8017,NTS,A,2
7,2,test,1,C,circle.png,0,m,Thu Jan 23 2025 14:12:39 GMT-0600 (Central Standard Time),460361.19999999553,2000,I,None,1514,14,1,3528.5,456832.69999999553,8017,NTS,A,3
9,3,test,1,C,circle.png,1,m,Thu Jan 23 2025 14:12:39 GMT-0600 (Central Standard Time),462510.69999999553,1500,I,m,627,24,1,2145.5999999940395,460365.1000000015,8017,NTS,A,4
7,4,test,1,C,triangle.png,1,z,Thu Jan 23 2025 14:12:39 GMT-0600 (Central Standard Time),465076.5,1700,I,z,838,22,1,2561.5,462515.0,8017,NTS,A,5
6,4,test,1,C,triangle.png,0,m,Thu Jan 23 2025 14:12:39 GMT-0600 (Central Standard Time),467609.0,1000,I,None,1514,13,1,2528.5,465080.5,8017,NTS,A,6
7,5,test,1,C,triangle.png,1,z,Thu Jan 23 2025 14:12:39 GMT-0600 (Central Standard Time),470108.1000000015,1700,I,z,771,6,1,2495.4000000059605,467612.69999999553,8017,NTS,A,7
1,6,test,1,C,triangle.png,1,z,Thu Jan 23 2025 14:12:39 GMT-0600 (Central Standard Time),473290.799999997,1900,I,z,1249,9,1,3179.10000000149,470111.69999999553,8017,NTS,A,8
9,7,test,1,C,circle.png,1,m,Thu Jan 23 2025 14:12:39 GMT-0600 (Central Standard Time),475839.799999997,1500,I,m,1026,8,1,2545.39999999851,473294.3999999985,8017,NTS,A,9
9,8,test,1,C,triangle.png,1,z,Thu Jan 23 2025 14:12:39 GMT-0600 (Central Standard Time),477922.5,1400,I,z,657,16,1,2078.89999999851,475843.6000000015,8017,NTS,A,10
2,8,test,1,C,circle.png,0,z,Thu Jan 23 2025 14:12:39 GMT-0600 (Central Standard Time),480788.1000000015,1700,I,m,1138,18,1,2861.9000000059605,477926.19999999553,8017,NTS,A,11
4,9,test,1,C,circle.png,1,z,Thu Jan 23 2025 14:12:39 GMT-0600 (Central Standard Time),483054.1000000015,1400,I,z,844,4,1,2262.2000000029802,480791.8999999985,8017,NTS,A,12
2,10,test,1,C,circle.png,1,z,Thu Jan 23 2025 14:12:39 GMT-0600 (Central Standard Time),485886.6000000015,1700,I,z,1111,10,1,2828.9000000059605,483057.69999999553,8017,NTS,A,13
1,11,test,1,C,circle.png,1,z,Thu Jan 23 2025 14:12:39 GMT-0600 (Central Standard Time),487969.19999999553,1000,I,z,1050,1,1,2079.0,485890.19999999553,8017,NTS,A,14
3,11,test,1,C,triangle.png,0,z,Thu Jan 23 2025 14:12:39 GMT-0600 (Central Standard Time),490386.19999999553,1200,I,m,1184,3,1,2413.5999999940395,487972.6000000015,8017,NTS,A,15
8,12,test,1,C,triangle.png,1,m,Thu Jan 23 2025 14:12:39 GMT-0600 (Central Standard Time),492834.299999997,1600,I,m,824,23,1,2444.39999999851,490389.8999999985,8017,NTS,A,16
8,13,test,1,C,circle.png,1,m,Thu Jan 23 2025 14:12:39 GMT-0600 (Central Standard Time),494667.299999997,1200,I,m,599,15,1,1829.1999999955297,492838.1000000015,8017,NTS,A,17
3,13,test,1,C,circle.png,0,z,Thu Jan 23 2025 14:12:39 GMT-0600 (Central Standard Time),497799.799999997,1600,I,None,1515,11,1,3128.60000000149,494671.19999999553,8017,NTS,A,18
4,14,test,1,C,triangle.png,1,m,Thu Jan 23 2025 14:12:39 GMT-0600 (Central Standard Time),500615.299999997,1500,I,m,1294,12,1,2811.7999999970198,497803.5,8017,NTS,A,19
1,14,test,1,C,triangle.png,0,z,Thu Jan 23 2025 14:12:39 GMT-0600 (Central Standard Time),504047.799999997,1900,I,None,1515,17,1,3429.10000000149,500618.69999999553,8017,NTS,A,20
6,15,test,1,C,circle.png,1,m,Thu Jan 23 2025 14:12:39 GMT-0600 (Central Standard Time),506913.299999997,1900,I,m,933,21,1,2861.89999999851,504051.3999999985,8017,NTS,A,21
8,15,test,1,C,triangle.png,0,m,Thu Jan 23 2025 14:12:39 GMT-0600 (Central Standard Time),509413.1000000015,1600,I,z,880,7,1,2496.10000000149,506917.0,8017,NTS,A,22
2,15,test,1,C,triangle.png,0,m,Thu Jan 23 2025 14:12:39 GMT-0600 (Central Standard Time),512944.8999999985,2000,I,None,1514,2,1,3527.39999999851,509417.5,8017,NTS,A,23
3,15,test,1,C,circle.png,0,z,Thu Jan 23 2025 14:12:39 GMT-0600 (Central Standard Time),515960.6000000015,1600,I,m,1391,19,1,3012.0,512948.6000000015,8017,NTS,A,24
1,0,test,2,C,triangle.png,0,z,Thu Jan 23 2025 14:12:39 GMT-0600 (Central Standard Time),540286.3999999985,1900,I,None,1514,9,1,3429.7000000029802,536856.6999999955,8017,NTS,A,1
8,1,test,2,C,circle.png,1,m,Thu Jan 23 2025 14:12:39 GMT-0600 (Central Standard Time),542302.1999999955,1200,I,m,795,23,1,2011.6999999955297,540290.5,8017,NTS,A,2
1,2,test,2,C,triangle.png,1,z,Thu Jan 23 2025 14:12:39 GMT-0600 (Central Standard Time),544784.6000000015,1900,I,z,551,17,1,2478.7000000029802,542305.8999999985,8017,NTS,A,3
7,3,test,2,C,circle.png,1,m,Thu Jan 23 2025 14:12:39 GMT-0600 (Central Standard Time),547467.1000000015,2000,I,m,664,22,1,2678.9000000059605,544788.1999999955,8017,NTS,A,4
3,4,test,2,C,circle.png,1,z,Thu Jan 23 2025 14:12:39 GMT-0600 (Central Standard Time),549866.6000000015,1600,I,z,766,11,1,2396.0,547470.6000000015,8017,NTS,A,5
6,5,test,2,C,circle.png,1,m,Thu Jan 23 2025 14:12:39 GMT-0600 (Central Standard Time),552732.0,1900,I,m,945,5,1,2861.89999999851,549870.1000000015,8017,NTS,A,6
2,6,test,2,C,triangle.png,1,m,Thu Jan 23 2025 14:12:39 GMT-0600 (Central Standard Time),555764.6999999955,2000,I,m,1012,2,1,3029.1999999955297,552735.5,8017,NTS,A,7
9,7,test,2,C,triangle.png,1,z,Thu Jan 23 2025 14:12:39 GMT-0600 (Central Standard Time),558647.1000000015,1400,I,z,1451,16,1,2878.60000000149,555768.5,8017,NTS,A,8
6,8,test,2,C,triangle.png,1,m,Thu Jan 23 2025 14:12:39 GMT-0600 (Central Standard Time),560930.0,1000,I,m,1258,21,1,2279.2000000029802,558650.799999997,8017,NTS,A,9
2,8,test,2,C,circle.png,0,z,Thu Jan 23 2025 14:12:39 GMT-0600 (Central Standard Time),563911.8999999985,1700,I,m,1259,18,1,2978.5,560933.3999999985,8017,NTS,A,10
2,9,test,2,C,circle.png,1,z,Thu Jan 23 2025 14:12:39 GMT-0600 (Central Standard Time),566178.1000000015,1700,I,z,541,10,1,2262.60000000149,563915.5,8017,NTS,A,11
8,10,test,2,C,circle.png,1,m,Thu Jan 23 2025 14:12:39 GMT-0600 (Central Standard Time),568560.6999999955,1200,I,m,1159,15,1,2379.1999999955297,566181.5,8017,NTS,A,12
9,11,test,2,C,triangle.png,1,z,Thu Jan 23 2025 14:12:39 GMT-0600 (Central Standard Time),571226.6999999955,1400,I,z,1232,24,1,2662.39999999851,568564.299999997,8017,NTS,A,13
1,11,test,2,C,circle.png,0,z,Thu Jan 23 2025 14:12:39 GMT-0600 (Central Standard Time),573459.1000000015,1000,I,m,1205,1,1,2228.8000000044703,571230.299999997,8017,NTS,A,14
3,11,test,2,C,triangle.png,0,z,Thu Jan 23 2025 14:12:39 GMT-0600 (Central Standard Time),576191.299999997,1200,I,None,1513,3,1,2728.10000000149,573463.1999999955,8017,NTS,A,15
4,12,test,2,C,circle.png,1,z,Thu Jan 23 2025 14:12:39 GMT-0600 (Central Standard Time),578723.799999997,1400,I,z,1112,4,1,2528.7999999970198,576195.0,8017,NTS,A,16
8,12,test,2,C,triangle.png,0,m,Thu Jan 23 2025 14:12:39 GMT-0600 (Central Standard Time),581423.299999997,1600,I,z,1077,7,1,2696.10000000149,578727.1999999955,8017,NTS,A,17
7,13,test,2,C,triangle.png,1,z,Thu Jan 23 2025 14:12:39 GMT-0600 (Central Standard Time),583772.5,1700,I,z,630,6,1,2345.5,581427.0,8017,NTS,A,18
7,14,test,2,C,circle.png,1,m,Thu Jan 23 2025 14:12:39 GMT-0600 (Central Standard Time),586605.0,2000,I,m,811,14,1,2828.89999999851,583776.1000000015,8017,NTS,A,19
4,14,test,2,C,triangle.png,0,m,Thu Jan 23 2025 14:12:39 GMT-0600 (Central Standard Time),589637.6000000015,1500,I,None,1515,12,1,3028.9000000059605,586608.6999999955,8017,NTS,A,20
9,15,test,2,C,circle.png,1,m,Thu Jan 23 2025 14:12:39 GMT-0600 (Central Standard Time),592453.0,1500,I,m,1296,8,1,2811.5,589641.5,8017,NTS,A,21
3,16,test,2,C,circle.png,1,z,Thu Jan 23 2025 14:12:39 GMT-0600 (Central Standard Time),595385.6000000015,1600,I,z,1308,19,1,2928.9000000059605,592456.6999999955,8017,NTS,A,22
4,17,test,2,C,triangle.png,1,m,Thu Jan 23 2025 14:12:39 GMT-0600 (Central Standard Time),598234.6000000015,1500,I,m,1323,20,1,2845.5,595389.1000000015,8017,NTS,A,23
6,18,test,2,C,triangle.png,1,m,Thu Jan 23 2025 14:12:39 GMT-0600 (Central Standard Time),600067.5,1000,I,m,806,13,1,1829.2000000029802,598238.299999997,8017,NTS,A,24
7,1,test,3,C,circle.png,1,m,Thu Jan 23 2025 14:12:39 GMT-0600 (Central Standard Time),607048.6000000015,2000,I,m,992,14,1,3012.7000000029802,604035.8999999985,8017,NTS,A,1
9,2,test,3,C,circle.png,1,m,Thu Jan 23 2025 14:12:39 GMT-0600 (Central Standard Time),609331.1000000015,1500,I,m,748,8,1,2278.8000000044703,607052.299999997,8017,NTS,A,2
1,3,test,3,C,triangle.png,1,z,Thu Jan 23 2025 14:12:39 GMT-0600 (Central Standard Time),611780.299999997,1900,I,z,522,9,1,2445.5,609334.799999997,8017,NTS,A,3
8,4,test,3,C,circle.png,1,m,Thu Jan 23 2025 14:12:39 GMT-0600 (Central Standard Time),613779.5,1200,I,m,780,15,1,1995.3999999985099,611784.1000000015,8017,NTS,A,4
1,5,test,3,C,circle.png,1,z,Thu Jan 23 2025 14:12:39 GMT-0600 (Central Standard Time),615462.5,1000,I,z,661,1,1,1679.3999999985099,613783.1000000015,8017,NTS,A,5
1,6,test,3,C,circle.png,1,z,Thu Jan 23 2025 14:12:39 GMT-0600 (Central Standard Time),617029.8999999985,1000,I,z,538,17,1,1563.7999999970198,615466.1000000015,8017,NTS,A,6
3,7,test,3,C,triangle.png,1,z,Thu Jan 23 2025 14:12:39 GMT-0600 (Central Standard Time),619427.799999997,1200,I,z,1180,3,1,2394.0,617033.799999997,8017,NTS,A,7
6,8,test,3,C,circle.png,1,m,Thu Jan 23 2025 14:12:39 GMT-0600 (Central Standard Time),622277.1999999955,1900,I,m,929,21,1,2845.5999999940395,619431.6000000015,8017,NTS,A,8
2,8,test,3,C,circle.png,0,z,Thu Jan 23 2025 14:12:39 GMT-0600 (Central Standard Time),625009.5,1700,I,m,1007,10,1,2728.7000000029802,622280.799999997,8017,NTS,A,9
7,8,test,3,C,triangle.png,0,z,Thu Jan 23 2025 14:12:39 GMT-0600 (Central Standard Time),628242.0,1700,I,None,1514,6,1,3228.89999999851,625013.1000000015,8017,NTS,A,10
2,9,test,3,C,triangle.png,1,m,Thu Jan 23 2025 14:12:39 GMT-0600 (Central Standard Time),631390.799999997,2000,I,m,1119,18,1,3145.10000000149,628245.6999999955,8017,NTS,A,11
8,10,test,3,C,triangle.png,1,m,Thu Jan 23 2025 14:12:39 GMT-0600 (Central Standard Time),634106.6999999955,1600,I,m,1082,23,1,2712.1999999955297,631394.5,8017,NTS,A,12
9,11,test,3,C,circle.png,1,m,Thu Jan 23 2025 14:12:39 GMT-0600 (Central Standard Time),636972.6999999955,1500,I,m,1345,24,1,2862.1999999955297,634110.5,8017,NTS,A,13
3,12,test,3,C,triangle.png,1,z,Thu Jan 23 2025 14:12:39 GMT-0600 (Central Standard Time),639073.1000000015,1200,I,z,876,19,1,2095.7000000029802,636977.3999999985,8017,NTS,A,14
6,13,test,3,C,triangle.png,1,m,Thu Jan 23 2025 14:12:39 GMT-0600 (Central Standard Time),641187.8999999985,1000,I,m,1089,13,1,2110.89999999851,639077.0,8017,NTS,A,15
4,13,test,3,C,triangle.png,0,m,Thu Jan 23 2025 14:12:39 GMT-0600 (Central Standard Time),643653.6000000015,1500,I,z,936,12,1,2462.2000000029802,641191.3999999985,8017,NTS,A,16
6,14,test,3,C,circle.png,1,m,Thu Jan 23 2025 14:12:39 GMT-0600 (Central Standard Time),646386.299999997,1900,I,m,798,5,1,2728.89999999851,643657.3999999985,8017,NTS,A,17
2,15,test,3,C,triangle.png,1,m,Thu Jan 23 2025 14:12:39 GMT-0600 (Central Standard Time),649451.6999999955,2000,I,m,1047,2,1,3061.6999999955297,646390.0,8017,NTS,A,18
4,16,test,3,C,circle.png,1,z,Thu Jan 23 2025 14:12:39 GMT-0600 (Central Standard Time),652251.1000000015,1400,I,z,1381,20,1,2795.60000000149,649455.5,8017,NTS,A,19
9,16,test,3,C,triangle.png,0,z,Thu Jan 23 2025 14:12:39 GMT-0600 (Central Standard Time),654766.8999999985,1400,I,m,1084,16,1,2512.60000000149,652254.299999997,8017,NTS,A,20
8,17,test,3,C,triangle.png,1,m,Thu Jan 23 2025 14:12:39 GMT-0600 (Central Standard Time),657466.1999999955,1600,I,m,1073,7,1,2695.39999999851,654770.799999997,8017,NTS,A,21
3,18,test,3,C,circle.png,1,z,Thu Jan 23 2025 14:12:39 GMT-0600 (Central Standard Time),660065.1999999955,1600,I,z,967,11,1,2595.5,657469.6999999955,8017,NTS,A,22
7,18,test,3,C,triangle.png,0,z,Thu Jan 23 2025 14:12:39 GMT-0600 (Central Standard Time),663297.799999997,1700,I,None,1515,22,1,3229.0,660068.799999997,8017,NTS,A,23
4,19,test,3,C,circle.png,1,z,Thu Jan 23 2025 14:12:39 GMT-0600 (Central Standard Time),665780.299999997,1400,I,z,1055,4,1,2479.0,663301.299999997,8017,NTS,A,24
4,1,test,4,C,triangle.png,1,m,Thu Jan 23 2025 14:12:39 GMT-0600 (Central Standard Time),669645.6999999955,1500,I,m,1012,12,1,2529.2999999970198,667116.3999999985,8017,NTS,A,1
6,2,test,4,C,circle.png,1,m,Thu Jan 23 2025 14:12:39 GMT-0600 (Central Standard Time),672578.0,1900,I,m,1007,21,1,2926.8000000044703,669651.1999999955,8017,NTS,A,2
8,3,test,4,C,triangle.png,1,m,Thu Jan 23 2025 14:12:39 GMT-0600 (Central Standard Time),674812.5,1600,I,m,599,7,1,2230.8000000044703,672581.6999999955,8017,NTS,A,3
8,4,test,4,C,circle.png,1,m,Thu Jan 23 2025 14:12:39 GMT-0600 (Central Standard Time),676943.299999997,1200,I,m,910,15,1,2126.6999999955297,674816.6000000015,8017,NTS,A,4
2,5,test,4,C,triangle.png,1,m,Thu Jan 23 2025 14:12:39 GMT-0600 (Central Standard Time),680075.6999999955,2000,I,m,1106,2,1,3128.2999999970198,676947.3999999985,8017,NTS,A,5
6,6,test,4,C,triangle.png,1,m,Thu Jan 23 2025 14:12:39 GMT-0600 (Central Standard Time),681642.0,1000,I,m,532,13,1,1562.6000000014901,680079.3999999985,8017,NTS,A,6
1,7,test,4,C,circle.png,1,z,Thu Jan 23 2025 14:12:39 GMT-0600 (Central Standard Time),683241.3999999985,1000,I,z,575,1,1,1595.3999999985099,681646.0,8017,NTS,A,7
1,8,test,4,C,triangle.png,1,z,Thu Jan 23 2025 14:12:39 GMT-0600 (Central Standard Time),685957.0,1900,I,z,788,9,1,2712.2000000029802,683244.799999997,8017,NTS,A,8
2,9,test,4,C,circle.png,1,z,Thu Jan 23 2025 14:12:39 GMT-0600 (Central Standard Time),688622.8999999985,1700,I,z,943,10,1,2662.60000000149,685960.299999997,8017,NTS,A,9
1,10,test,4,C,circle.png,1,z,Thu Jan 23 2025 14:12:39 GMT-0600 (Central Standard Time),690255.8999999985,1000,I,z,602,17,1,1629.1000000014901,688626.799999997,8017,NTS,A,10
7,11,test,4,C,triangle.png,1,z,Thu Jan 23 2025 14:12:39 GMT-0600 (Central Standard Time),692821.8999999985,1700,I,z,845,22,1,2562.5,690259.3999999985,8017,NTS,A,11
3,12,test,4,C,triangle.png,1,z,Thu Jan 23 2025 14:12:39 GMT-0600 (Central Standard Time),694754.799999997,1200,I,z,715,3,1,1929.6000000014901,692825.1999999955,8017,NTS,A,12
8,13,test,4,C,triangle.png,1,m,Thu Jan 23 2025 14:12:39 GMT-0600 (Central Standard Time),697320.5,1600,I,m,941,23,1,2561.60000000149,694758.8999999985,8017,NTS,A,13
4,14,test,4,C,circle.png,1,z,Thu Jan 23 2025 14:12:39 GMT-0600 (Central Standard Time),700202.6000000015,1400,I,z,1457,20,1,2878.8000000044703,697323.799999997,8017,NTS,A,14
2,15,test,4,C,triangle.png,1,m,Thu Jan 23 2025 14:12:39 GMT-0600 (Central Standard Time),703401.5,2000,I,m,1173,18,1,3193.89999999851,700207.6000000015,8017,NTS,A,15
9,16,test,4,C,circle.png,1,m,Thu Jan 23 2025 14:12:39 GMT-0600 (Central Standard Time),706100.799999997,1500,I,m,1179,24,1,2695.89999999851,703404.8999999985,8017,NTS,A,16
3,16,test,4,C,triangle.png,0,z,Thu Jan 23 2025 14:12:39 GMT-0600 (Central Standard Time),708833.299999997,1200,I,None,1514,19,1,2728.6999999955297,706104.6000000015,8017,NTS,A,17
3,16,test,4,C,circle.png,0,z,Thu Jan 23 2025 14:12:39 GMT-0600 (Central Standard Time),711965.6999999955,1600,I,None,1515,11,1,3129.0,708836.6999999955,8017,NTS,A,18
7,17,test,4,C,triangle.png,1,z,Thu Jan 23 2025 14:12:39 GMT-0600 (Central Standard Time),714764.799999997,1700,I,z,1079,6,1,2795.2999999970198,711969.5,8017,NTS,A,19
6,18,test,4,C,circle.png,1,m,Thu Jan 23 2025 14:12:39 GMT-0600 (Central Standard Time),717497.1000000015,1900,I,m,800,5,1,2728.8000000044703,714768.299999997,8017,NTS,A,20
9,19,test,4,C,circle.png,1,m,Thu Jan 23 2025 14:12:39 GMT-0600 (Central Standard Time),719596.299999997,1500,I,m,580,8,1,2095.6999999955297,717500.6000000015,8017,NTS,A,21
9,20,test,4,C,triangle.png,1,z,Thu Jan 23 2025 14:12:39 GMT-0600 (Central Standard Time),722245.6999999955,1400,I,z,1220,16,1,2646.1999999955297,719599.5,8017,NTS,A,22
7,20,test,4,C,circle.png,0,m,Thu Jan 23 2025 14:12:39 GMT-0600 (Central Standard Time),725778.0,2000,I,None,1514,14,1,3528.5,722249.5,8017,NTS,A,23
4,21,test,4,C,circle.png,1,z,Thu Jan 23 2025 14:12:39 GMT-0600 (Central Standard Time),728043.6000000015,1400,I,z,847,4,1,2261.7000000029802,725781.8999999985,8017,NTS,A,24
