acc_sum,block,block_c,change,condition,correct,correct_response,datetime,endtime,face,project,response,response_time,row_sel,session_number,start_end,starttime,subject_id,task,task_vers,trial
0,prac,1,,1-Back,,,Tue Feb 18 2025 13:47:41 GMT-0500 (Eastern Standard Time),,097_m_f_n_a.png,I,space,16203,1,1,,,9009,NNB,B,0
1,prac,1,0.0,1-Back,1,m,Tue Feb 18 2025 13:47:41 GMT-0500 (Eastern Standard Time),161786.10000002384,152_y_f_n_a.png,I,m,636,2,1,1551.699999988079,160234.40000003576,9009,NNB,B,1
2,prac,1,1.0,1-Back,1,z,Tue Feb 18 2025 13:47:41 GMT-0500 (Eastern Standard Time),163486.10000002384,152_y_f_n_a.png,I,z,918,3,1,1687.800000011921,161798.30000001192,9009,NNB,B,2
3,prac,1,0.0,1-Back,1,m,Tue Feb 18 2025 13:47:41 GMT-0500 (Eastern Standard Time),165335.40000003576,176_o_m_n_a.png,I,m,911,4,1,1837.7000000476837,163497.69999998808,9009,NNB,B,3
4,prac,1,0.0,1-Back,1,m,Tue Feb 18 2025 13:47:41 GMT-0500 (Eastern Standard Time),167252.30000001192,126_m_m_n_a.png,I,m,992,5,1,1906.199999988079,165346.10000002384,9009,NNB,B,4
5,prac,1,1.0,1-Back,1,z,Tue Feb 18 2025 13:47:41 GMT-0500 (Eastern Standard Time),168785.60000002384,126_m_m_n_a.png,I,z,749,6,1,1522.1000000238419,167263.5,9009,NNB,B,5
6,prac,1,0.0,1-Back,1,m,Tue Feb 18 2025 13:47:41 GMT-0500 (Eastern Standard Time),170652.40000003576,086_o_f_n_a.png,I,m,1073,7,1,1857.0,168795.40000003576,9009,NNB,B,6
7,prac,1,0.0,1-Back,1,m,Tue Feb 18 2025 13:47:41 GMT-0500 (Eastern Standard Time),172352.0,178_m_m_n_a.png,I,m,766,8,1,1684.0,170668.0,9009,NNB,B,7
8,prac,1,0.0,1-Back,1,m,Tue Feb 18 2025 13:47:41 GMT-0500 (Eastern Standard Time),174252.60000002384,097_m_f_n_a.png,I,m,1109,9,1,1893.0,172359.60000002384,9009,NNB,B,8
9,prac,1,1.0,1-Back,1,z,Tue Feb 18 2025 13:47:41 GMT-0500 (Eastern Standard Time),175752.60000002384,097_m_f_n_a.png,I,z,708,10,1,1488.300000011921,174264.30000001192,9009,NNB,B,9
10,prac,1,0.0,1-Back,1,m,Tue Feb 18 2025 13:47:41 GMT-0500 (Eastern Standard Time),177252.69999998808,176_o_m_n_a.png,I,m,711,11,1,1488.0999999642372,175764.60000002384,9009,NNB,B,10
11,prac,1,0.0,1-Back,1,m,Tue Feb 18 2025 13:47:41 GMT-0500 (Eastern Standard Time),179085.30000001192,173_y_f_n_a.png,I,m,863,12,1,1821.1000000238419,177264.19999998808,9009,NNB,B,11
0,test,1,0.0,1-Back,,,Tue Feb 18 2025 13:47:41 GMT-0500 (Eastern Standard Time),179085.30000001192,152_y_f_n_a.png,I,space,14170,1,1,1821.1000000238419,177264.19999998808,9009,NNB,B,0
1,test,1,0.0,1-Back,1,m,Tue Feb 18 2025 13:47:41 GMT-0500 (Eastern Standard Time),205735.69999998808,029_m_f_n_a.png,I,m,538,2,1,1557.5,204178.19999998808,9009,NNB,B,1
2,test,1,0.0,1-Back,1,m,Tue Feb 18 2025 13:47:41 GMT-0500 (Eastern Standard Time),207435.69999998808,173_y_f_n_a.png,I,m,667,3,1,1688.8999999761581,205746.80000001192,9009,NNB,B,2
3,test,1,1.0,1-Back,1,z,Tue Feb 18 2025 13:47:41 GMT-0500 (Eastern Standard Time),209235.69999998808,173_y_f_n_a.png,I,z,775,4,1,1791.5999999642372,207444.10000002384,9009,NNB,B,3
4,test,1,0.0,1-Back,1,m,Tue Feb 18 2025 13:47:41 GMT-0500 (Eastern Standard Time),211035.80000001192,029_m_f_n_a.png,I,m,767,5,1,1789.699999988079,209246.10000002384,9009,NNB,B,4
5,test,1,0.0,1-Back,1,m,Tue Feb 18 2025 13:47:41 GMT-0500 (Eastern Standard Time),212718.5,176_o_m_n_a.png,I,m,664,6,1,1673.8999999761581,211044.60000002384,9009,NNB,B,5
6,test,1,1.0,1-Back,1,z,Tue Feb 18 2025 13:47:41 GMT-0500 (Eastern Standard Time),214402.19999998808,176_o_m_n_a.png,I,z,661,7,1,1676.8999999761581,212725.30000001192,9009,NNB,B,6
7,test,1,0.0,1-Back,1,m,Tue Feb 18 2025 13:47:41 GMT-0500 (Eastern Standard Time),216085.69999998808,126_m_m_n_a.png,I,m,657,8,1,1674.5,214411.19999998808,9009,NNB,B,7
8,test,1,0.0,1-Back,1,m,Tue Feb 18 2025 13:47:41 GMT-0500 (Eastern Standard Time),217885.19999998808,086_o_f_n_a.png,I,m,781,9,1,1790.699999988079,216094.5,9009,NNB,B,8
9,test,1,0.0,1-Back,1,m,Tue Feb 18 2025 13:47:41 GMT-0500 (Eastern Standard Time),219585.5,126_m_m_n_a.png,I,m,679,10,1,1693.8999999761581,217891.60000002384,9009,NNB,B,9
10,test,1,0.0,1-Back,1,m,Tue Feb 18 2025 13:47:41 GMT-0500 (Eastern Standard Time),221219.19999998808,153_y_m_n_a.png,I,m,609,11,1,1625.199999988079,219594.0,9009,NNB,B,10
11,test,1,1.0,1-Back,1,z,Tue Feb 18 2025 13:47:41 GMT-0500 (Eastern Standard Time),222969.0,153_y_m_n_a.png,I,z,721,12,1,1741.0,221228.0,9009,NNB,B,11
12,test,1,0.0,1-Back,1,m,Tue Feb 18 2025 13:47:41 GMT-0500 (Eastern Standard Time),224852.10000002384,110_o_f_n_a.png,I,m,859,13,1,1874.6000000238419,222977.5,9009,NNB,B,12
13,test,1,1.0,1-Back,1,z,Tue Feb 18 2025 13:47:41 GMT-0500 (Eastern Standard Time),226685.19999998808,110_o_f_n_a.png,I,z,799,14,1,1824.5,224860.69999998808,9009,NNB,B,13
14,test,1,0.0,1-Back,1,m,Tue Feb 18 2025 13:47:41 GMT-0500 (Eastern Standard Time),228668.80000001192,013_y_m_n_a.png,I,m,950,15,1,1977.6000000238419,226691.19999998808,9009,NNB,B,14
15,test,1,0.0,1-Back,1,m,Tue Feb 18 2025 13:47:41 GMT-0500 (Eastern Standard Time),230569.10000002384,097_m_f_n_a.png,I,m,870,16,1,1891.800000011921,228677.30000001192,9009,NNB,B,15
16,test,1,0.0,1-Back,1,m,Tue Feb 18 2025 13:47:41 GMT-0500 (Eastern Standard Time),232302.0,065_o_m_n_a.png,I,m,714,17,1,1724.0,230578.0,9009,NNB,B,16
17,test,1,0.0,1-Back,1,m,Tue Feb 18 2025 13:47:41 GMT-0500 (Eastern Standard Time),234318.80000001192,097_m_f_n_a.png,I,m,997,18,1,2008.1000000238419,232310.69999998808,9009,NNB,B,17
0,test,2,0.0,1-Back,,,Tue Feb 18 2025 13:47:41 GMT-0500 (Eastern Standard Time),234318.80000001192,126_m_m_n_a.png,I,space,5020,1,1,2008.1000000238419,232310.69999998808,9009,NNB,B,0
1,test,2,0.0,1-Back,1,m,Tue Feb 18 2025 13:47:41 GMT-0500 (Eastern Standard Time),243385.90000003576,029_m_f_n_a.png,I,m,986,2,1,2010.800000011921,241375.10000002384,9009,NNB,B,1
2,test,2,1.0,1-Back,1,z,Tue Feb 18 2025 13:47:41 GMT-0500 (Eastern Standard Time),245185.5,029_m_f_n_a.png,I,z,777,3,1,1792.0999999642372,243393.40000003576,9009,NNB,B,2
3,test,2,0.0,1-Back,1,m,Tue Feb 18 2025 13:47:41 GMT-0500 (Eastern Standard Time),246835.5,126_m_m_n_a.png,I,m,625,4,1,1642.0999999642372,245193.40000003576,9009,NNB,B,3
4,test,2,0.0,1-Back,1,m,Tue Feb 18 2025 13:47:41 GMT-0500 (Eastern Standard Time),248602.19999998808,153_y_m_n_a.png,I,m,736,5,1,1758.5999999642372,246843.60000002384,9009,NNB,B,4
5,test,2,0.0,1-Back,1,m,Tue Feb 18 2025 13:47:41 GMT-0500 (Eastern Standard Time),250252.30000001192,152_y_f_n_a.png,I,m,617,6,1,1642.5,248609.80000001192,9009,NNB,B,5
6,test,2,1.0,1-Back,1,z,Tue Feb 18 2025 13:47:41 GMT-0500 (Eastern Standard Time),252019.0,152_y_f_n_a.png,I,z,743,7,1,1758.5,250260.5,9009,NNB,B,6
7,test,2,0.0,1-Back,1,m,Tue Feb 18 2025 13:47:41 GMT-0500 (Eastern Standard Time),253685.80000001192,153_y_m_n_a.png,I,m,640,8,1,1658.199999988079,252027.60000002384,9009,NNB,B,7
8,test,2,0.0,1-Back,1,m,Tue Feb 18 2025 13:47:41 GMT-0500 (Eastern Standard Time),255402.30000001192,110_o_f_n_a.png,I,m,686,9,1,1707.8999999761581,253694.40000003576,9009,NNB,B,8
9,test,2,0.0,1-Back,1,m,Tue Feb 18 2025 13:47:41 GMT-0500 (Eastern Standard Time),257002.10000002384,178_m_m_n_a.png,I,m,569,10,1,1592.0,255410.10000002384,9009,NNB,B,9
10,test,2,1.0,1-Back,1,z,Tue Feb 18 2025 13:47:41 GMT-0500 (Eastern Standard Time),258701.80000001192,178_m_m_n_a.png,I,z,681,11,1,1693.199999988079,257008.60000002384,9009,NNB,B,10
11,test,2,0.0,1-Back,1,m,Tue Feb 18 2025 13:47:41 GMT-0500 (Eastern Standard Time),260335.60000002384,110_o_f_n_a.png,I,m,613,12,1,1626.6000000238419,258709.0,9009,NNB,B,11
12,test,2,0.0,1-Back,1,m,Tue Feb 18 2025 13:47:41 GMT-0500 (Eastern Standard Time),261918.80000001192,086_o_f_n_a.png,I,m,564,13,1,1574.800000011921,260344.0,9009,NNB,B,12
13,test,2,0.0,1-Back,1,m,Tue Feb 18 2025 13:47:41 GMT-0500 (Eastern Standard Time),263568.90000003576,176_o_m_n_a.png,I,m,628,14,1,1641.4000000357628,261927.5,9009,NNB,B,13
14,test,2,0.0,1-Back,1,m,Tue Feb 18 2025 13:47:41 GMT-0500 (Eastern Standard Time),265118.6999999881,065_o_m_n_a.png,I,m,530,15,1,1541.0,263577.6999999881,9009,NNB,B,14
15,test,2,1.0,1-Back,1,z,Tue Feb 18 2025 13:47:41 GMT-0500 (Eastern Standard Time),266852.40000003576,065_o_m_n_a.png,I,z,709,16,1,1726.1000000238419,265126.3000000119,9009,NNB,B,15
16,test,2,0.0,1-Back,1,m,Tue Feb 18 2025 13:47:41 GMT-0500 (Eastern Standard Time),268768.90000003576,013_y_m_n_a.png,I,m,895,17,1,1909.1000000238419,266859.8000000119,9009,NNB,B,16
17,test,2,1.0,1-Back,1,z,Tue Feb 18 2025 13:47:41 GMT-0500 (Eastern Standard Time),270435.60000002384,013_y_m_n_a.png,I,z,642,18,1,1658.199999988079,268777.40000003576,9009,NNB,B,17
0,test,3,1.0,1-Back,,,Tue Feb 18 2025 13:47:41 GMT-0500 (Eastern Standard Time),270435.60000002384,173_y_f_n_a.png,I,space,3392,1,1,1658.199999988079,268777.40000003576,9009,NNB,B,0
1,test,3,0.0,1-Back,1,m,Tue Feb 18 2025 13:47:41 GMT-0500 (Eastern Standard Time),277552.0,065_o_m_n_a.png,I,m,547,1,1,1557.800000011921,275994.1999999881,9009,NNB,B,1
2,test,3,1.0,1-Back,1,z,Tue Feb 18 2025 13:47:41 GMT-0500 (Eastern Standard Time),279268.8000000119,065_o_m_n_a.png,I,z,691,1,1,1709.3999999761581,277559.40000003576,9009,NNB,B,2
3,test,3,0.0,1-Back,1,m,Tue Feb 18 2025 13:47:41 GMT-0500 (Eastern Standard Time),280885.10000002384,097_m_f_n_a.png,I,m,589,1,1,1608.5,279276.60000002384,9009,NNB,B,3
4,test,3,1.0,1-Back,1,z,Tue Feb 18 2025 13:47:41 GMT-0500 (Eastern Standard Time),282635.40000003576,097_m_f_n_a.png,I,z,718,1,1,1745.9000000357628,280889.5,9009,NNB,B,4
5,test,3,0.0,1-Back,1,m,Tue Feb 18 2025 13:47:41 GMT-0500 (Eastern Standard Time),284602.3000000119,110_o_f_n_a.png,I,m,936,1,1,1958.3999999761581,282643.90000003576,9009,NNB,B,5
6,test,3,0.0,1-Back,1,m,Tue Feb 18 2025 13:47:41 GMT-0500 (Eastern Standard Time),286252.40000003576,153_y_m_n_a.png,I,m,617,1,1,1642.4000000357628,284610.0,9009,NNB,B,6
7,test,3,0.0,1-Back,1,m,Tue Feb 18 2025 13:47:41 GMT-0500 (Eastern Standard Time),288185.5,110_o_f_n_a.png,I,m,903,1,1,1924.5,286261.0,9009,NNB,B,7
8,test,3,0.0,1-Back,1,m,Tue Feb 18 2025 13:47:41 GMT-0500 (Eastern Standard Time),289752.10000002384,013_y_m_n_a.png,I,m,538,1,1,1558.199999988079,288193.90000003576,9009,NNB,B,8
9,test,3,1.0,1-Back,1,z,Tue Feb 18 2025 13:47:41 GMT-0500 (Eastern Standard Time),291518.8000000119,013_y_m_n_a.png,I,z,747,1,1,1758.5,289760.3000000119,9009,NNB,B,9
10,test,3,0.0,1-Back,1,m,Tue Feb 18 2025 13:47:41 GMT-0500 (Eastern Standard Time),293135.60000002384,029_m_f_n_a.png,I,m,596,1,1,1606.1000000238419,291529.5,9009,NNB,B,10
11,test,3,0.0,1-Back,1,m,Tue Feb 18 2025 13:47:41 GMT-0500 (Eastern Standard Time),294819.0,152_y_f_n_a.png,I,m,660,1,1,1672.0999999642372,293146.90000003576,9009,NNB,B,11
12,test,3,1.0,1-Back,1,z,Tue Feb 18 2025 13:47:41 GMT-0500 (Eastern Standard Time),296535.60000002384,152_y_f_n_a.png,I,z,688,1,1,1705.5,294830.10000002384,9009,NNB,B,12
13,test,3,0.0,1-Back,1,m,Tue Feb 18 2025 13:47:41 GMT-0500 (Eastern Standard Time),298119.0,029_m_f_n_a.png,I,m,556,1,1,1573.8999999761581,296545.10000002384,9009,NNB,B,13
14,test,3,0.0,1-Back,1,m,Tue Feb 18 2025 13:47:41 GMT-0500 (Eastern Standard Time),299685.5,126_m_m_n_a.png,I,m,541,1,1,1558.5,298127.0,9009,NNB,B,14
15,test,3,1.0,1-Back,1,z,Tue Feb 18 2025 13:47:41 GMT-0500 (Eastern Standard Time),301402.0,126_m_m_n_a.png,I,z,686,1,1,1709.0,299693.0,9009,NNB,B,15
16,test,3,0.0,1-Back,1,m,Tue Feb 18 2025 13:47:41 GMT-0500 (Eastern Standard Time),303002.10000002384,086_o_f_n_a.png,I,m,569,1,1,1591.6000000238419,301410.5,9009,NNB,B,16
17,test,3,1.0,1-Back,1,z,Tue Feb 18 2025 13:47:41 GMT-0500 (Eastern Standard Time),304685.0,086_o_f_n_a.png,I,z,665,1,1,1674.8999999761581,303010.10000002384,9009,NNB,B,17
0,test,4,1.0,1-Back,,,Tue Feb 18 2025 13:47:41 GMT-0500 (Eastern Standard Time),304685.0,097_m_f_n_a.png,I,space,3047,1,1,1674.8999999761581,303010.10000002384,9009,NNB,B,0
1,test,4,0.0,1-Back,1,m,Tue Feb 18 2025 13:47:41 GMT-0500 (Eastern Standard Time),311418.60000002384,065_o_m_n_a.png,I,m,503,2,1,1526.800000011921,309891.8000000119,9009,NNB,B,1
2,test,4,0.0,1-Back,1,m,Tue Feb 18 2025 13:47:41 GMT-0500 (Eastern Standard Time),313085.6999999881,097_m_f_n_a.png,I,m,649,3,1,1659.199999988079,311426.5,9009,NNB,B,2
3,test,4,0.0,1-Back,1,m,Tue Feb 18 2025 13:47:41 GMT-0500 (Eastern Standard Time),314669.0,110_o_f_n_a.png,I,m,550,4,1,1574.0999999642372,313094.90000003576,9009,NNB,B,3
4,test,4,1.0,1-Back,1,z,Tue Feb 18 2025 13:47:41 GMT-0500 (Eastern Standard Time),316318.60000002384,110_o_f_n_a.png,I,z,630,5,1,1638.699999988079,314679.90000003576,9009,NNB,B,4
5,test,4,0.0,1-Back,1,m,Tue Feb 18 2025 13:47:41 GMT-0500 (Eastern Standard Time),317968.8000000119,152_y_f_n_a.png,I,m,628,6,1,1640.8999999761581,316327.90000003576,9009,NNB,B,5
6,test,4,0.0,1-Back,1,m,Tue Feb 18 2025 13:47:41 GMT-0500 (Eastern Standard Time),319485.60000002384,153_y_m_n_a.png,I,m,498,7,1,1508.300000011921,317977.3000000119,9009,NNB,B,6
7,test,4,1.0,1-Back,1,z,Tue Feb 18 2025 13:47:41 GMT-0500 (Eastern Standard Time),321052.10000002384,153_y_m_n_a.png,I,z,534,8,1,1559.800000011921,319492.3000000119,9009,NNB,B,7
8,test,4,0.0,1-Back,1,m,Tue Feb 18 2025 13:47:41 GMT-0500 (Eastern Standard Time),322685.3000000119,152_y_f_n_a.png,I,m,599,9,1,1624.800000011921,321060.5,9009,NNB,B,8
9,test,4,0.0,1-Back,1,m,Tue Feb 18 2025 13:47:41 GMT-0500 (Eastern Standard Time),324185.5,178_m_m_n_a.png,I,m,470,10,1,1491.5999999642372,322693.90000003576,9009,NNB,B,9
10,test,4,1.0,1-Back,1,z,Tue Feb 18 2025 13:47:41 GMT-0500 (Eastern Standard Time),325935.40000003576,178_m_m_n_a.png,I,z,729,11,1,1741.7000000476837,324193.6999999881,9009,NNB,B,10
11,test,4,0.0,1-Back,1,m,Tue Feb 18 2025 13:47:41 GMT-0500 (Eastern Standard Time),327501.60000002384,086_o_f_n_a.png,I,m,549,12,1,1558.1000000238419,325943.5,9009,NNB,B,11
12,test,4,0.0,1-Back,1,m,Tue Feb 18 2025 13:47:41 GMT-0500 (Eastern Standard Time),329035.1999999881,176_o_m_n_a.png,I,m,502,13,1,1525.3999999761581,327509.8000000119,9009,NNB,B,12
13,test,4,0.0,1-Back,1,m,Tue Feb 18 2025 13:47:41 GMT-0500 (Eastern Standard Time),330802.1999999881,086_o_f_n_a.png,I,m,745,14,1,1758.5,329043.6999999881,9009,NNB,B,13
14,test,4,0.0,1-Back,1,m,Tue Feb 18 2025 13:47:41 GMT-0500 (Eastern Standard Time),332351.90000003576,173_y_f_n_a.png,I,m,529,15,1,1541.0,330810.90000003576,9009,NNB,B,14
15,test,4,1.0,1-Back,1,z,Tue Feb 18 2025 13:47:41 GMT-0500 (Eastern Standard Time),334102.10000002384,173_y_f_n_a.png,I,z,723,16,1,1741.9000000357628,332360.1999999881,9009,NNB,B,15
16,test,4,0.0,1-Back,1,m,Tue Feb 18 2025 13:47:41 GMT-0500 (Eastern Standard Time),335668.8000000119,029_m_f_n_a.png,I,m,541,17,1,1558.5,334110.3000000119,9009,NNB,B,16
17,test,4,1.0,1-Back,1,z,Tue Feb 18 2025 13:47:41 GMT-0500 (Eastern Standard Time),337368.90000003576,029_m_f_n_a.png,I,z,671,18,1,1691.7000000476837,335677.1999999881,9009,NNB,B,17
0,test,5,1.0,1-Back,,,Tue Feb 18 2025 13:47:41 GMT-0500 (Eastern Standard Time),337368.90000003576,176_o_m_n_a.png,I,space,3258,1,1,1691.7000000476837,335677.1999999881,9009,NNB,B,0
1,test,5,1.0,1-Back,1,z,Tue Feb 18 2025 13:47:41 GMT-0500 (Eastern Standard Time),344418.6999999881,176_o_m_n_a.png,I,z,743,2,1,1758.0999999642372,342660.60000002384,9009,NNB,B,1
2,test,5,0.0,1-Back,1,m,Tue Feb 18 2025 13:47:41 GMT-0500 (Eastern Standard Time),345985.5,152_y_f_n_a.png,I,m,545,3,1,1558.0999999642372,344427.40000003576,9009,NNB,B,2
3,test,5,0.0,1-Back,1,m,Tue Feb 18 2025 13:47:41 GMT-0500 (Eastern Standard Time),347501.60000002384,153_y_m_n_a.png,I,m,498,4,1,1508.6000000238419,345993.0,9009,NNB,B,3
4,test,5,0.0,1-Back,1,m,Tue Feb 18 2025 13:47:41 GMT-0500 (Eastern Standard Time),349318.6999999881,152_y_f_n_a.png,I,m,789,5,1,1809.199999988079,347509.5,9009,NNB,B,4
5,test,5,0.0,1-Back,1,m,Tue Feb 18 2025 13:47:41 GMT-0500 (Eastern Standard Time),350884.60000002384,126_m_m_n_a.png,I,m,540,6,1,1557.800000011921,349326.8000000119,9009,NNB,B,5
6,test,5,1.0,1-Back,1,z,Tue Feb 18 2025 13:47:41 GMT-0500 (Eastern Standard Time),352635.5,126_m_m_n_a.png,I,z,718,7,1,1746.8999999761581,350888.60000002384,9009,NNB,B,6
7,test,5,0.0,1-Back,1,m,Tue Feb 18 2025 13:47:41 GMT-0500 (Eastern Standard Time),354552.1999999881,173_y_f_n_a.png,I,m,888,8,1,1908.5,352643.6999999881,9009,NNB,B,7
8,test,5,0.0,1-Back,1,m,Tue Feb 18 2025 13:47:41 GMT-0500 (Eastern Standard Time),356118.90000003576,013_y_m_n_a.png,I,m,539,9,1,1559.0,354559.90000003576,9009,NNB,B,8
9,test,5,0.0,1-Back,1,m,Tue Feb 18 2025 13:47:41 GMT-0500 (Eastern Standard Time),357785.5,173_y_f_n_a.png,I,m,637,10,1,1658.800000011921,356126.6999999881,9009,NNB,B,9
10,test,5,0.0,1-Back,1,m,Tue Feb 18 2025 13:47:41 GMT-0500 (Eastern Standard Time),359468.40000003576,086_o_f_n_a.png,I,m,649,11,1,1674.0,357794.40000003576,9009,NNB,B,10
11,test,5,1.0,1-Back,1,z,Tue Feb 18 2025 13:47:41 GMT-0500 (Eastern Standard Time),361218.8000000119,086_o_f_n_a.png,I,z,728,12,1,1745.800000011921,359473.0,9009,NNB,B,11
12,test,5,0.0,1-Back,1,m,Tue Feb 18 2025 13:47:41 GMT-0500 (Eastern Standard Time),362768.8000000119,065_o_m_n_a.png,I,m,529,13,1,1541.8999999761581,361226.90000003576,9009,NNB,B,12
13,test,5,0.0,1-Back,1,m,Tue Feb 18 2025 13:47:41 GMT-0500 (Eastern Standard Time),364401.90000003576,097_m_f_n_a.png,I,m,611,14,1,1625.0,362776.90000003576,9009,NNB,B,13
14,test,5,1.0,1-Back,1,z,Tue Feb 18 2025 13:47:41 GMT-0500 (Eastern Standard Time),365985.1999999881,097_m_f_n_a.png,I,z,561,15,1,1575.199999988079,364410.0,9009,NNB,B,14
15,test,5,0.0,1-Back,1,m,Tue Feb 18 2025 13:47:41 GMT-0500 (Eastern Standard Time),367718.3000000119,065_o_m_n_a.png,I,m,705,16,1,1724.800000011921,365993.5,9009,NNB,B,15
16,test,5,0.0,1-Back,1,m,Tue Feb 18 2025 13:47:41 GMT-0500 (Eastern Standard Time),369285.0,029_m_f_n_a.png,I,m,540,17,1,1562.5999999642372,367722.40000003576,9009,NNB,B,16
17,test,5,0.0,1-Back,1,m,Tue Feb 18 2025 13:47:41 GMT-0500 (Eastern Standard Time),370918.6999999881,178_m_m_n_a.png,I,m,607,18,1,1629.2999999523163,369289.40000003576,9009,NNB,B,17
0,prac,1,0.0,2-Back,,,Tue Feb 18 2025 13:47:41 GMT-0500 (Eastern Standard Time),370918.6999999881,013_y_m_n_a.png,I,space,19004,1,1,1629.2999999523163,369289.40000003576,9009,NNB,B,0
0,prac,1,0.0,2-Back,,,Tue Feb 18 2025 13:47:41 GMT-0500 (Eastern Standard Time),370918.6999999881,029_m_f_n_a.png,I,space,19004,2,1,1629.2999999523163,369289.40000003576,9009,NNB,B,0
1,prac,1,1.0,2-Back,1,m,Tue Feb 18 2025 13:47:41 GMT-0500 (Eastern Standard Time),521052.10000002384,065_o_m_n_a.png,I,m,866,3,1,1774.4000000357628,519277.6999999881,9009,NNB,B,1
1,prac,1,0.0,2-Back,0,m,Tue Feb 18 2025 13:47:41 GMT-0500 (Eastern Standard Time),524218.40000003576,086_o_f_n_a.png,I,None,2013,4,1,3155.0,521063.40000003576,9009,NNB,B,2
1,prac,1,0.0,2-Back,0,z,Tue Feb 18 2025 13:47:41 GMT-0500 (Eastern Standard Time),526618.4000000358,065_o_m_n_a.png,I,m,1622,5,1,2388.400000035763,524230.0,9009,NNB,B,3
2,prac,1,1.0,2-Back,1,z,Tue Feb 18 2025 13:47:41 GMT-0500 (Eastern Standard Time),529085.3000000119,086_o_f_n_a.png,I,z,1686,6,1,2455.300000011921,526630.0,9009,NNB,B,4
3,prac,1,0.0,2-Back,1,m,Tue Feb 18 2025 13:47:41 GMT-0500 (Eastern Standard Time),531534.8000000119,178_m_m_n_a.png,I,m,1451,7,1,2438.699999988079,529096.1000000238,9009,NNB,B,5
4,prac,1,0.0,2-Back,1,m,Tue Feb 18 2025 13:47:41 GMT-0500 (Eastern Standard Time),533634.8000000119,176_o_m_n_a.png,I,m,1105,8,1,2093.0,531541.8000000119,9009,NNB,B,6
5,prac,1,0.0,2-Back,1,m,Tue Feb 18 2025 13:47:41 GMT-0500 (Eastern Standard Time),535452.1999999881,173_y_f_n_a.png,I,m,793,9,1,1805.5999999642372,533646.6000000238,9009,NNB,B,7
6,prac,1,1.0,2-Back,1,z,Tue Feb 18 2025 13:47:41 GMT-0500 (Eastern Standard Time),536985.3000000119,176_o_m_n_a.png,I,z,740,10,1,1521.199999988079,535464.1000000238,9009,NNB,B,8
6,prac,1,0.0,2-Back,0,m,Tue Feb 18 2025 13:47:41 GMT-0500 (Eastern Standard Time),539051.9000000358,152_y_f_n_a.png,I,z,1041,11,1,2057.2000000476837,536994.6999999881,9009,NNB,B,9
7,prac,1,0.0,2-Back,1,m,Tue Feb 18 2025 13:47:41 GMT-0500 (Eastern Standard Time),541318.1999999881,178_m_m_n_a.png,I,m,1479,12,1,2256.5,539061.6999999881,9009,NNB,B,10
0,test,1,0.0,2-Back,,,Tue Feb 18 2025 13:47:41 GMT-0500 (Eastern Standard Time),541318.1999999881,153_y_m_n_a.png,I,space,14724,1,1,2256.5,539061.6999999881,9009,NNB,B,0
0,test,1,0.0,2-Back,,,Tue Feb 18 2025 13:47:41 GMT-0500 (Eastern Standard Time),541318.1999999881,153_y_m_n_a.png,I,space,14724,2,1,2256.5,539061.6999999881,9009,NNB,B,0
1,test,1,0.0,2-Back,1,m,Tue Feb 18 2025 13:47:41 GMT-0500 (Eastern Standard Time),587485.1000000238,086_o_f_n_a.png,I,m,650,3,1,1674.800000011921,585810.3000000119,9009,NNB,B,1
2,test,1,0.0,2-Back,1,m,Tue Feb 18 2025 13:47:41 GMT-0500 (Eastern Standard Time),589401.6000000238,126_m_m_n_a.png,I,m,885,4,1,1909.0,587492.6000000238,9009,NNB,B,2
3,test,1,1.0,2-Back,1,z,Tue Feb 18 2025 13:47:41 GMT-0500 (Eastern Standard Time),591335.1000000238,086_o_f_n_a.png,I,z,906,5,1,1926.6000000238419,589408.5,9009,NNB,B,3
4,test,1,0.0,2-Back,1,m,Tue Feb 18 2025 13:47:41 GMT-0500 (Eastern Standard Time),593685.1000000238,152_y_f_n_a.png,I,m,1324,6,1,2341.900000035763,591343.1999999881,9009,NNB,B,4
4,test,1,0.0,2-Back,0,m,Tue Feb 18 2025 13:47:41 GMT-0500 (Eastern Standard Time),596235.1999999881,126_m_m_n_a.png,I,z,1518,7,1,2542.599999964237,593692.6000000238,9009,NNB,B,5
5,test,1,1.0,2-Back,1,z,Tue Feb 18 2025 13:47:41 GMT-0500 (Eastern Standard Time),598134.6999999881,152_y_f_n_a.png,I,z,871,8,1,1892.0,596242.6999999881,9009,NNB,B,6
6,test,1,0.0,2-Back,1,m,Tue Feb 18 2025 13:47:41 GMT-0500 (Eastern Standard Time),600251.5,013_y_m_n_a.png,I,m,1084,9,1,2111.5,598140.0,9009,NNB,B,7
7,test,1,0.0,2-Back,1,m,Tue Feb 18 2025 13:47:41 GMT-0500 (Eastern Standard Time),602101.6999999881,110_o_f_n_a.png,I,m,824,10,1,1841.8999999761581,600259.8000000119,9009,NNB,B,8
8,test,1,1.0,2-Back,1,z,Tue Feb 18 2025 13:47:41 GMT-0500 (Eastern Standard Time),603952.1999999881,013_y_m_n_a.png,I,z,829,11,1,1843.199999988079,602109.0,9009,NNB,B,9
9,test,1,0.0,2-Back,1,m,Tue Feb 18 2025 13:47:41 GMT-0500 (Eastern Standard Time),606185.1999999881,029_m_f_n_a.png,I,m,1204,12,1,2229.0,603956.1999999881,9009,NNB,B,10
10,test,1,0.0,2-Back,1,m,Tue Feb 18 2025 13:47:41 GMT-0500 (Eastern Standard Time),607885.1000000238,029_m_f_n_a.png,I,m,682,13,1,1691.300000011921,606193.8000000119,9009,NNB,B,11
11,test,1,0.0,2-Back,1,m,Tue Feb 18 2025 13:47:41 GMT-0500 (Eastern Standard Time),610001.4000000358,065_o_m_n_a.png,I,m,1093,14,1,2108.300000011921,607893.1000000238,9009,NNB,B,12
12,test,1,0.0,2-Back,1,m,Tue Feb 18 2025 13:47:41 GMT-0500 (Eastern Standard Time),611701.6999999881,110_o_f_n_a.png,I,m,674,15,1,1696.2999999523163,610005.4000000358,9009,NNB,B,13
13,test,1,1.0,2-Back,1,z,Tue Feb 18 2025 13:47:41 GMT-0500 (Eastern Standard Time),613501.6999999881,065_o_m_n_a.png,I,z,766,16,1,1791.5999999642372,611710.1000000238,9009,NNB,B,14
14,test,1,0.0,2-Back,1,m,Tue Feb 18 2025 13:47:41 GMT-0500 (Eastern Standard Time),615585.1000000238,097_m_f_n_a.png,I,m,1062,17,1,2075.400000035763,613509.6999999881,9009,NNB,B,15
15,test,1,0.0,2-Back,1,m,Tue Feb 18 2025 13:47:41 GMT-0500 (Eastern Standard Time),617535.1000000238,178_m_m_n_a.png,I,m,930,18,1,1942.300000011921,615592.8000000119,9009,NNB,B,16
0,test,2,0.0,2-Back,,,Tue Feb 18 2025 13:47:41 GMT-0500 (Eastern Standard Time),617535.1000000238,178_m_m_n_a.png,I,space,4787,1,1,1942.300000011921,615592.8000000119,9009,NNB,B,0
0,test,2,0.0,2-Back,,,Tue Feb 18 2025 13:47:41 GMT-0500 (Eastern Standard Time),617535.1000000238,173_y_f_n_a.png,I,space,4787,2,1,1942.300000011921,615592.8000000119,9009,NNB,B,0
0,test,2,1.0,2-Back,0,z,Tue Feb 18 2025 13:47:41 GMT-0500 (Eastern Standard Time),629218.4000000358,178_m_m_n_a.png,I,m,677,3,1,1691.9000000357628,627526.5,9009,NNB,B,1
1,test,2,0.0,2-Back,1,m,Tue Feb 18 2025 13:47:41 GMT-0500 (Eastern Standard Time),631435.1000000238,097_m_f_n_a.png,I,m,1185,4,1,2208.900000035763,629226.1999999881,9009,NNB,B,2
2,test,2,0.0,2-Back,1,m,Tue Feb 18 2025 13:47:41 GMT-0500 (Eastern Standard Time),633718.4000000358,173_y_f_n_a.png,I,m,1256,5,1,2275.100000023842,631443.3000000119,9009,NNB,B,3
3,test,2,0.0,2-Back,1,m,Tue Feb 18 2025 13:47:41 GMT-0500 (Eastern Standard Time),635801.6999999881,065_o_m_n_a.png,I,m,1053,6,1,2075.5,633726.1999999881,9009,NNB,B,4
3,test,2,0.0,2-Back,0,m,Tue Feb 18 2025 13:47:41 GMT-0500 (Eastern Standard Time),637751.8000000119,152_y_f_n_a.png,I,z,922,7,1,1942.3999999761581,635809.4000000358,9009,NNB,B,5
3,test,2,1.0,2-Back,0,z,Tue Feb 18 2025 13:47:41 GMT-0500 (Eastern Standard Time),639517.9000000358,065_o_m_n_a.png,I,m,746,8,1,1758.800000011921,637759.1000000238,9009,NNB,B,6
4,test,2,0.0,2-Back,1,m,Tue Feb 18 2025 13:47:41 GMT-0500 (Eastern Standard Time),641668.5,013_y_m_n_a.png,I,m,1125,9,1,2144.599999964237,639523.9000000358,9009,NNB,B,7
5,test,2,0.0,2-Back,1,m,Tue Feb 18 2025 13:47:41 GMT-0500 (Eastern Standard Time),643934.9000000358,013_y_m_n_a.png,I,m,1247,10,1,2257.5,641677.4000000358,9009,NNB,B,8
6,test,2,0.0,2-Back,1,m,Tue Feb 18 2025 13:47:41 GMT-0500 (Eastern Standard Time),646401.6999999881,029_m_f_n_a.png,I,m,1444,11,1,2458.699999988079,643943.0,9009,NNB,B,9
7,test,2,0.0,2-Back,1,m,Tue Feb 18 2025 13:47:41 GMT-0500 (Eastern Standard Time),648568.4000000358,173_y_f_n_a.png,I,m,1137,12,1,2157.300000011921,646411.1000000238,9009,NNB,B,10
8,test,2,1.0,2-Back,1,z,Tue Feb 18 2025 13:47:41 GMT-0500 (Eastern Standard Time),650668.4000000358,029_m_f_n_a.png,I,z,1067,13,1,2092.5,648575.9000000358,9009,NNB,B,11
9,test,2,0.0,2-Back,1,m,Tue Feb 18 2025 13:47:41 GMT-0500 (Eastern Standard Time),652785.0,176_o_m_n_a.png,I,m,1095,14,1,2108.099999964237,650676.9000000358,9009,NNB,B,12
10,test,2,0.0,2-Back,1,m,Tue Feb 18 2025 13:47:41 GMT-0500 (Eastern Standard Time),654768.4000000358,176_o_m_n_a.png,I,m,962,15,1,1975.4000000357628,652793.0,9009,NNB,B,13
11,test,2,0.0,2-Back,1,m,Tue Feb 18 2025 13:47:41 GMT-0500 (Eastern Standard Time),656534.5,110_o_f_n_a.png,I,m,738,16,1,1758.199999988079,654776.3000000119,9009,NNB,B,14
12,test,2,0.0,2-Back,1,m,Tue Feb 18 2025 13:47:41 GMT-0500 (Eastern Standard Time),658368.4000000358,126_m_m_n_a.png,I,m,813,17,1,1828.9000000357628,656539.5,9009,NNB,B,15
13,test,2,1.0,2-Back,1,z,Tue Feb 18 2025 13:47:41 GMT-0500 (Eastern Standard Time),660368.1999999881,110_o_f_n_a.png,I,z,979,18,1,1992.0999999642372,658376.1000000238,9009,NNB,B,16
0,test,3,1.0,2-Back,,,Tue Feb 18 2025 13:47:41 GMT-0500 (Eastern Standard Time),660368.1999999881,153_y_m_n_a.png,I,space,3378,1,1,1992.0999999642372,658376.1000000238,9009,NNB,B,0
0,test,3,1.0,2-Back,,,Tue Feb 18 2025 13:47:41 GMT-0500 (Eastern Standard Time),660368.1999999881,153_y_m_n_a.png,I,space,3378,2,1,1992.0999999642372,658376.1000000238,9009,NNB,B,0
1,test,3,0.0,2-Back,1,m,Tue Feb 18 2025 13:47:41 GMT-0500 (Eastern Standard Time),670635.1000000238,110_o_f_n_a.png,I,m,669,3,1,1694.5,668940.6000000238,9009,NNB,B,1
2,test,3,0.0,2-Back,1,m,Tue Feb 18 2025 13:47:41 GMT-0500 (Eastern Standard Time),672501.6000000238,178_m_m_n_a.png,I,m,840,4,1,1858.4000000357628,670643.1999999881,9009,NNB,B,2
3,test,3,1.0,2-Back,1,z,Tue Feb 18 2025 13:47:41 GMT-0500 (Eastern Standard Time),673984.9000000358,110_o_f_n_a.png,I,z,462,5,1,1474.7000000476837,672510.1999999881,9009,NNB,B,3
4,test,3,0.0,2-Back,1,m,Tue Feb 18 2025 13:47:41 GMT-0500 (Eastern Standard Time),675985.0,013_y_m_n_a.png,I,m,979,6,1,1991.5999999642372,673993.4000000358,9009,NNB,B,4
5,test,3,0.0,2-Back,1,m,Tue Feb 18 2025 13:47:41 GMT-0500 (Eastern Standard Time),677818.5,178_m_m_n_a.png,I,m,803,7,1,1825.300000011921,675993.1999999881,9009,NNB,B,5
6,test,3,1.0,2-Back,1,z,Tue Feb 18 2025 13:47:41 GMT-0500 (Eastern Standard Time),680101.6000000238,013_y_m_n_a.png,I,z,1257,8,1,2275.199999988079,677826.4000000358,9009,NNB,B,6
6,test,3,0.0,2-Back,0,m,Tue Feb 18 2025 13:47:41 GMT-0500 (Eastern Standard Time),682034.8000000119,173_y_f_n_a.png,I,z,910,9,1,1924.1000000238419,680110.6999999881,9009,NNB,B,7
7,test,3,0.0,2-Back,1,m,Tue Feb 18 2025 13:47:41 GMT-0500 (Eastern Standard Time),684384.9000000358,126_m_m_n_a.png,I,m,1328,10,1,2341.800000011921,682043.1000000238,9009,NNB,B,8
8,test,3,1.0,2-Back,1,z,Tue Feb 18 2025 13:47:41 GMT-0500 (Eastern Standard Time),686534.8000000119,173_y_f_n_a.png,I,z,1121,11,1,2141.399999976158,684393.4000000358,9009,NNB,B,9
9,test,3,1.0,2-Back,1,z,Tue Feb 18 2025 13:47:41 GMT-0500 (Eastern Standard Time),689134.8000000119,126_m_m_n_a.png,I,z,1580,12,1,2592.0,686542.8000000119,9009,NNB,B,10
10,test,3,0.0,2-Back,1,m,Tue Feb 18 2025 13:47:41 GMT-0500 (Eastern Standard Time),691251.4000000358,110_o_f_n_a.png,I,m,1093,13,1,2108.400000035763,689143.0,9009,NNB,B,11
11,test,3,0.0,2-Back,1,m,Tue Feb 18 2025 13:47:41 GMT-0500 (Eastern Standard Time),693051.6999999881,097_m_f_n_a.png,I,m,767,14,1,1793.0,691258.6999999881,9009,NNB,B,12
12,test,3,0.0,2-Back,1,m,Tue Feb 18 2025 13:47:41 GMT-0500 (Eastern Standard Time),694835.0,065_o_m_n_a.png,I,m,760,15,1,1775.5,693059.5,9009,NNB,B,13
13,test,3,1.0,2-Back,1,z,Tue Feb 18 2025 13:47:41 GMT-0500 (Eastern Standard Time),697268.3000000119,097_m_f_n_a.png,I,z,1408,16,1,2426.300000011921,694842.0,9009,NNB,B,14
14,test,3,0.0,2-Back,1,m,Tue Feb 18 2025 13:47:41 GMT-0500 (Eastern Standard Time),699451.6000000238,086_o_f_n_a.png,I,m,1151,17,1,2175.699999988079,697275.9000000358,9009,NNB,B,15
14,test,3,0.0,2-Back,0,m,Tue Feb 18 2025 13:47:41 GMT-0500 (Eastern Standard Time),702068.1999999881,086_o_f_n_a.png,I,z,1593,18,1,2608.699999988079,699459.5,9009,NNB,B,16
0,test,4,0.0,2-Back,,,Tue Feb 18 2025 13:47:41 GMT-0500 (Eastern Standard Time),702068.1999999881,176_o_m_n_a.png,I,space,3111,1,1,2608.699999988079,699459.5,9009,NNB,B,0
0,test,4,0.0,2-Back,,,Tue Feb 18 2025 13:47:41 GMT-0500 (Eastern Standard Time),702068.1999999881,152_y_f_n_a.png,I,space,3111,2,1,2608.699999988079,699459.5,9009,NNB,B,0
1,test,4,1.0,2-Back,1,z,Tue Feb 18 2025 13:47:41 GMT-0500 (Eastern Standard Time),712118.4000000358,176_o_m_n_a.png,I,z,574,3,1,1591.9000000357628,710526.5,9009,NNB,B,1
2,test,4,1.0,2-Back,1,z,Tue Feb 18 2025 13:47:41 GMT-0500 (Eastern Standard Time),713701.9000000358,152_y_f_n_a.png,I,z,556,4,1,1575.5,712126.4000000358,9009,NNB,B,2
3,test,4,0.0,2-Back,1,m,Tue Feb 18 2025 13:47:41 GMT-0500 (Eastern Standard Time),715635.0,110_o_f_n_a.png,I,m,910,5,1,1929.0,713706.0,9009,NNB,B,3
4,test,4,0.0,2-Back,1,m,Tue Feb 18 2025 13:47:41 GMT-0500 (Eastern Standard Time),717968.1000000238,110_o_f_n_a.png,I,m,1311,6,1,2325.0,715643.1000000238,9009,NNB,B,4
5,test,4,0.0,2-Back,1,m,Tue Feb 18 2025 13:47:41 GMT-0500 (Eastern Standard Time),720251.6000000238,029_m_f_n_a.png,I,m,1250,7,1,2278.0,717973.6000000238,9009,NNB,B,5
6,test,4,0.0,2-Back,1,m,Tue Feb 18 2025 13:47:41 GMT-0500 (Eastern Standard Time),721984.9000000358,013_y_m_n_a.png,I,m,712,8,1,1724.6000000238419,720260.3000000119,9009,NNB,B,6
7,test,4,1.0,2-Back,1,z,Tue Feb 18 2025 13:47:41 GMT-0500 (Eastern Standard Time),723934.9000000358,029_m_f_n_a.png,I,z,930,9,1,1941.7000000476837,721993.1999999881,9009,NNB,B,7
8,test,4,0.0,2-Back,1,m,Tue Feb 18 2025 13:47:41 GMT-0500 (Eastern Standard Time),726034.6999999881,126_m_m_n_a.png,I,m,1076,10,1,2091.0,723943.6999999881,9009,NNB,B,8
9,test,4,0.0,2-Back,1,m,Tue Feb 18 2025 13:47:41 GMT-0500 (Eastern Standard Time),727834.5,013_y_m_n_a.png,I,m,767,11,1,1792.0999999642372,726042.4000000358,9009,NNB,B,9
10,test,4,0.0,2-Back,1,m,Tue Feb 18 2025 13:47:41 GMT-0500 (Eastern Standard Time),730185.0,086_o_f_n_a.png,I,m,1321,12,1,2346.300000011921,727838.6999999881,9009,NNB,B,10
11,test,4,0.0,2-Back,1,m,Tue Feb 18 2025 13:47:41 GMT-0500 (Eastern Standard Time),732001.1999999881,153_y_m_n_a.png,I,m,794,13,1,1807.8999999761581,730193.3000000119,9009,NNB,B,11
12,test,4,1.0,2-Back,1,z,Tue Feb 18 2025 13:47:41 GMT-0500 (Eastern Standard Time),733918.1000000238,086_o_f_n_a.png,I,z,898,14,1,1911.0,732007.1000000238,9009,NNB,B,12
12,test,4,1.0,2-Back,0,z,Tue Feb 18 2025 13:47:41 GMT-0500 (Eastern Standard Time),735567.8000000119,153_y_m_n_a.png,I,m,629,15,1,1637.800000011921,733930.0,9009,NNB,B,13
13,test,4,0.0,2-Back,1,m,Tue Feb 18 2025 13:47:41 GMT-0500 (Eastern Standard Time),737634.6999999881,178_m_m_n_a.png,I,m,1043,16,1,2058.899999976158,735575.8000000119,9009,NNB,B,14
14,test,4,0.0,2-Back,1,m,Tue Feb 18 2025 13:47:41 GMT-0500 (Eastern Standard Time),739668.3000000119,097_m_f_n_a.png,I,m,1008,17,1,2024.699999988079,737643.6000000238,9009,NNB,B,15
14,test,4,1.0,2-Back,0,z,Tue Feb 18 2025 13:47:41 GMT-0500 (Eastern Standard Time),741768.0,178_m_m_n_a.png,I,m,1071,18,1,2090.899999976158,739677.1000000238,9009,NNB,B,16
0,test,5,1.0,2-Back,,,Tue Feb 18 2025 13:47:41 GMT-0500 (Eastern Standard Time),741768.0,153_y_m_n_a.png,I,space,2019,1,1,2090.899999976158,739677.1000000238,9009,NNB,B,0
0,test,5,1.0,2-Back,,,Tue Feb 18 2025 13:47:41 GMT-0500 (Eastern Standard Time),741768.0,097_m_f_n_a.png,I,space,2019,2,1,2090.899999976158,739677.1000000238,9009,NNB,B,0
1,test,5,1.0,2-Back,1,z,Tue Feb 18 2025 13:47:41 GMT-0500 (Eastern Standard Time),750701.6000000238,153_y_m_n_a.png,I,z,565,3,1,1577.699999988079,749123.9000000358,9009,NNB,B,1
2,test,5,1.0,2-Back,1,z,Tue Feb 18 2025 13:47:41 GMT-0500 (Eastern Standard Time),752584.8000000119,097_m_f_n_a.png,I,z,854,4,1,1875.5,750709.3000000119,9009,NNB,B,2
3,test,5,0.0,2-Back,1,m,Tue Feb 18 2025 13:47:41 GMT-0500 (Eastern Standard Time),754484.8000000119,086_o_f_n_a.png,I,m,874,5,1,1892.6000000238419,752592.1999999881,9009,NNB,B,3
3,test,5,0.0,2-Back,0,m,Tue Feb 18 2025 13:47:41 GMT-0500 (Eastern Standard Time),756368.1000000238,153_y_m_n_a.png,I,z,862,6,1,1874.9000000357628,754493.1999999881,9009,NNB,B,4
4,test,5,0.0,2-Back,1,m,Tue Feb 18 2025 13:47:41 GMT-0500 (Eastern Standard Time),758684.8000000119,173_y_f_n_a.png,I,m,1284,7,1,2309.100000023842,756375.6999999881,9009,NNB,B,5
4,test,5,0.0,2-Back,0,m,Tue Feb 18 2025 13:47:41 GMT-0500 (Eastern Standard Time),760451.0,086_o_f_n_a.png,I,z,741,8,1,1757.300000011921,758693.6999999881,9009,NNB,B,6
5,test,5,1.0,2-Back,1,z,Tue Feb 18 2025 13:47:41 GMT-0500 (Eastern Standard Time),762301.5,173_y_f_n_a.png,I,z,833,9,1,1845.5999999642372,760455.9000000358,9009,NNB,B,7
6,test,5,0.0,2-Back,1,m,Tue Feb 18 2025 13:47:41 GMT-0500 (Eastern Standard Time),764151.4000000358,065_o_m_n_a.png,I,m,821,10,1,1842.7000000476837,762308.6999999881,9009,NNB,B,8
7,test,5,0.0,2-Back,1,m,Tue Feb 18 2025 13:47:41 GMT-0500 (Eastern Standard Time),766051.5,029_m_f_n_a.png,I,m,876,11,1,1889.300000011921,764162.1999999881,9009,NNB,B,9
8,test,5,0.0,2-Back,1,m,Tue Feb 18 2025 13:47:41 GMT-0500 (Eastern Standard Time),767801.5,126_m_m_n_a.png,I,m,720,12,1,1738.3999999761581,766063.1000000238,9009,NNB,B,10
8,test,5,0.0,2-Back,0,m,Tue Feb 18 2025 13:47:41 GMT-0500 (Eastern Standard Time),770068.5,065_o_m_n_a.png,I,z,1242,13,1,2256.0,767812.5,9009,NNB,B,11
9,test,5,1.0,2-Back,1,z,Tue Feb 18 2025 13:47:41 GMT-0500 (Eastern Standard Time),772234.3000000119,126_m_m_n_a.png,I,z,1134,14,1,2154.600000023842,770079.6999999881,9009,NNB,B,12
10,test,5,0.0,2-Back,1,m,Tue Feb 18 2025 13:47:41 GMT-0500 (Eastern Standard Time),774034.9000000358,152_y_f_n_a.png,I,m,776,15,1,1796.300000011921,772238.6000000238,9009,NNB,B,13
11,test,5,0.0,2-Back,1,m,Tue Feb 18 2025 13:47:41 GMT-0500 (Eastern Standard Time),776068.1000000238,176_o_m_n_a.png,I,m,1007,16,1,2024.0,774044.1000000238,9009,NNB,B,14
12,test,5,0.0,2-Back,1,m,Tue Feb 18 2025 13:47:41 GMT-0500 (Eastern Standard Time),777834.8000000119,029_m_f_n_a.png,I,m,735,17,1,1757.8999999761581,776076.9000000358,9009,NNB,B,15
13,test,5,1.0,2-Back,1,z,Tue Feb 18 2025 13:47:41 GMT-0500 (Eastern Standard Time),779484.8000000119,176_o_m_n_a.png,I,z,616,18,1,1641.699999988079,777843.1000000238,9009,NNB,B,16
