acc_sum,block,block_c,condition,correct,correct_response,datetime,endtime,flanker,jitter,project,response,response_test_buffer_response,response_test_target_response,response_time,response_time_test_buffer_response,response_time_test_target_response,row_sel,session_number,start_end,starttime,subject_id,target,task,task_vers,time_test_buffer,time_test_buffer_response,time_test_constants,time_test_flanker,time_test_jitter,time_test_logger,time_test_target,time_test_target_response,time_test_variables,trial
1,prac,1,con,1,z,Mon Mar 03 2025 12:56:27 GMT-0600 (Central Standard Time),142770.59999990463,banana,800,I,z,,,1774,,,1,1,3879.5,138891.09999990463,7075,banana,NF,C,,,,,,,,,,1
2,prac,1,con,1,m,Mon Mar 03 2025 12:56:27 GMT-0600 (Central Standard Time),145367.19999992847,gold,800,I,m,,,483,,,13,1,2591.6999999284744,142775.5,7075,gold,NF,C,,,,,,,,,,2
2,prac,1,inc,0,z,Mon Mar 03 2025 12:56:27 GMT-0600 (Central Standard Time),148250.5,lead,1100,I,m,,,488,,,8,1,2877.8000000715256,145372.69999992847,7075,plum,NF,C,,,,,,,,,,3
3,prac,1,con,1,z,Mon Mar 03 2025 12:56:27 GMT-0600 (Central Standard Time),151149.09999990463,kiwi,1000,I,z,,,587,,,7,1,2891.399999976158,148257.69999992847,7075,kiwi,NF,C,,,,,,,,,,4
4,prac,1,con,1,m,Mon Mar 03 2025 12:56:27 GMT-0600 (Central Standard Time),153998.69999992847,silver,1000,I,m,,,551,,,11,1,2841.899999976158,151156.79999995232,7075,silver,NF,C,,,,,,,,,,5
5,prac,1,inc,1,m,Mon Mar 03 2025 12:56:27 GMT-0600 (Central Standard Time),156931.79999995232,pear,900,I,m,,,722,,,14,1,2926.600000023842,154005.19999992847,7075,iron,NF,C,,,,,,,,,,6
6,prac,1,con,1,m,Mon Mar 03 2025 12:56:27 GMT-0600 (Central Standard Time),159582.0,bronze,800,I,m,,,547,,,9,1,2643.7000000476837,156938.29999995232,7075,bronze,NF,C,,,,,,,,,,7
7,prac,1,inc,1,m,Mon Mar 03 2025 12:56:27 GMT-0600 (Central Standard Time),162697.09999990463,raisin,1100,I,m,,,701,,,12,1,3109.399999976158,159587.69999992847,7075,cobalt,NF,C,,,,,,,,,,8
8,prac,1,inc,1,m,Mon Mar 03 2025 12:56:27 GMT-0600 (Central Standard Time),165846.29999995232,plum,1100,I,m,,,759,,,16,1,3143.2000000476837,162703.09999990463,7075,lead,NF,C,,,,,,,,,,9
9,prac,1,con,1,m,Mon Mar 03 2025 12:56:27 GMT-0600 (Central Standard Time),168711.79999995232,zinc,1000,I,m,,,551,,,15,1,2859.899999976158,165851.89999997616,7075,zinc,NF,C,,,,,,,,,,10
10,prac,1,inc,1,z,Mon Mar 03 2025 12:56:27 GMT-0600 (Central Standard Time),171543.79999995232,copper,900,I,z,,,628,,,2,1,2823.399999976158,168720.39999997616,7075,cherry,NF,C,,,,,,,,,,11
11,prac,1,inc,1,m,Mon Mar 03 2025 12:56:27 GMT-0600 (Central Standard Time),174342.29999995232,cherry,900,I,m,,,593,,,10,1,2792.2999999523163,171550.0,7075,copper,NF,C,,,,,,,,,,12
12,prac,1,con,1,z,Mon Mar 03 2025 12:56:27 GMT-0600 (Central Standard Time),177273.0,lime,800,I,z,,,828,,,5,1,2924.100000023842,174348.89999997616,7075,lime,NF,C,,,,,,,,,,13
13,prac,1,con,1,z,Mon Mar 03 2025 12:56:27 GMT-0600 (Central Standard Time),180292.79999995232,orange,1000,I,z,,,706,,,3,1,3012.2999999523163,177280.5,7075,orange,NF,C,,,,,,,,,,14
14,prac,1,inc,1,z,Mon Mar 03 2025 12:56:27 GMT-0600 (Central Standard Time),183691.0,cobalt,1100,I,z,,,983,,,4,1,3391.8000000715256,180299.19999992847,7075,raisin,NF,C,,,,,,,,,,15
15,prac,1,inc,1,z,Mon Mar 03 2025 12:56:27 GMT-0600 (Central Standard Time),186488.79999995232,iron,900,I,z,,,585,,,6,1,2790.100000023842,183698.69999992847,7075,pear,NF,C,,,,,,,,,,16
1,test,1,inc,1,z,Mon Mar 03 2025 12:56:27 GMT-0600 (Central Standard Time),202200.09999990463,iron,900,I,z,z,None,660,459.0,201.0,54,1,2091.2999999523163,200108.79999995232,7075,kiwi,NF,C,196427,196428,194800,195711,194800,196891,196226,196226,196891,1
2,test,1,con,1,m,Mon Mar 03 2025 12:56:27 GMT-0600 (Central Standard Time),204533.39999997616,zinc,1100,I,m,m,None,696,497.0,199.0,116,1,2327.2000000476837,202206.19999992847,7075,zinc,NF,C,198726,198726,196897,198008,196898,199224,198526,198526,199224,2
3,test,1,inc,1,z,Mon Mar 03 2025 12:56:27 GMT-0600 (Central Standard Time),206469.29999995232,gold,800,I,z,z,None,601,402.0,199.0,53,1,1930.3999999761581,204538.89999997616,7075,kiwi,NF,C,200758,200758,199230,200042,199230,201160,200558,200558,201160,3
4,test,1,con,1,z,Mon Mar 03 2025 12:56:27 GMT-0600 (Central Standard Time),209481.39999997616,raisin,1100,I,z,z,None,1376,1176.0,200.0,28,1,3006.600000023842,206474.79999995232,7075,raisin,NF,C,202991,202991,201166,202274,201166,204173,202791,202791,204172,4
5,test,1,con,1,z,Mon Mar 03 2025 12:56:27 GMT-0600 (Central Standard Time),211797.89999997616,kiwi,1100,I,z,z,None,673,473.0,200.0,52,1,2311.0,209486.89999997616,7075,kiwi,NF,C,206007,206007,204178,205290,204178,206489,205806,205806,206489,5
6,test,1,con,1,m,Mon Mar 03 2025 12:56:27 GMT-0600 (Central Standard Time),213629.59999990463,zinc,800,I,m,m,None,489,289.0,200.0,113,1,1826.5999999046326,211803.0,7075,zinc,NF,C,208022,208022,206494,207305,206494,208321,207822,207822,208321,6
7,test,1,con,1,m,Mon Mar 03 2025 12:56:27 GMT-0600 (Central Standard Time),215596.29999995232,cobalt,900,I,m,m,None,524,308.0,216.0,90,1,1961.6000000238419,213634.69999992847,7075,cobalt,NF,C,209972,209972,208326,209237,208326,210287,209755,209755,210287,7
8,test,1,inc,1,m,Mon Mar 03 2025 12:56:27 GMT-0600 (Central Standard Time),217712.19999992847,lime,800,I,m,m,None,776,577.0,199.0,125,1,2111.600000023842,215600.59999990463,7075,lead,NF,C,211822,211822,210292,211105,210292,212403,211622,211622,212403,8
9,test,1,inc,1,z,Mon Mar 03 2025 12:56:27 GMT-0600 (Central Standard Time),219796.39999997616,iron,900,I,z,z,None,665,451.0,214.0,62,1,2079.2000000476837,217717.19999992847,7075,plum,NF,C,214036,214036,212408,213320,212408,214487,213822,213822,214487,9
10,test,1,inc,1,m,Mon Mar 03 2025 12:56:27 GMT-0600 (Central Standard Time),222160.39999997616,kiwi,1000,I,m,m,None,821,621.0,200.0,103,1,2359.3000000715256,219801.09999990463,7075,gold,NF,C,216219,216219,214492,215503,214492,216851,216019,216019,216851,10
11,test,1,inc,1,m,Mon Mar 03 2025 12:56:27 GMT-0600 (Central Standard Time),224476.59999990463,plum,1100,I,m,m,None,681,482.0,199.0,128,1,2309.0999999046326,222167.5,7075,lead,NF,C,218685,218685,216859,217969,216859,219168,218485,218485,219168,11
12,test,1,con,1,m,Mon Mar 03 2025 12:56:27 GMT-0600 (Central Standard Time),226758.19999992847,cobalt,1000,I,m,m,None,750,533.0,217.0,91,1,2274.899999976158,224483.29999995232,7075,cobalt,NF,C,220902,220902,219174,220183,219175,221449,220685,220685,221449,12
13,test,1,inc,1,m,Mon Mar 03 2025 12:56:27 GMT-0600 (Central Standard Time),229126.09999990463,raisin,1100,I,m,m,None,733,534.0,199.0,72,1,2361.399999976158,226764.69999992847,7075,bronze,NF,C,223283,223283,221456,222568,221456,223817,223083,223083,223817,13
14,test,1,con,1,m,Mon Mar 03 2025 12:56:27 GMT-0600 (Central Standard Time),231424.5,iron,1100,I,m,m,None,660,445.0,215.0,108,1,2293.9000000953674,229130.59999990463,7075,iron,NF,C,225666,225666,223822,224933,223822,226116,225450,225450,226116,14
15,test,1,con,1,z,Mon Mar 03 2025 12:56:27 GMT-0600 (Central Standard Time),233557.29999995232,plum,900,I,z,z,None,689,490.0,199.0,58,1,2126.600000023842,231430.69999992847,7075,plum,NF,C,227749,227749,226122,227033,226122,228248,227549,227549,228248,15
16,test,1,con,1,z,Mon Mar 03 2025 12:56:27 GMT-0600 (Central Standard Time),235606.59999990463,raisin,1000,I,z,z,None,514,300.0,214.0,27,1,2044.5,233562.09999990463,7075,raisin,NF,C,229997,229997,228253,229265,228253,230298,229782,229782,230298,16
17,test,1,con,1,z,Mon Mar 03 2025 12:56:27 GMT-0600 (Central Standard Time),237756.09999990463,banana,900,I,z,z,None,714,500.0,214.0,2,1,2143.399999976158,235612.69999992847,7075,banana,NF,C,231947,231947,230304,231215,230304,232447,231733,231733,232447,17
18,test,1,con,1,z,Mon Mar 03 2025 12:56:27 GMT-0600 (Central Standard Time),239937.39999997616,orange,800,I,z,z,None,833,634.0,199.0,17,1,2175.600000023842,237761.79999995232,7075,orange,NF,C,233979,233980,232453,233265,232453,234628,233780,233780,234628,18
19,test,1,con,1,m,Mon Mar 03 2025 12:56:27 GMT-0600 (Central Standard Time),242404.19999992847,gold,1000,I,m,m,None,923,724.0,199.0,99,1,2461.1999999284744,239943.0,7075,gold,NF,C,236363,236363,234634,235646,234634,237095,236163,236163,237095,19
20,test,1,inc,1,m,Mon Mar 03 2025 12:56:27 GMT-0600 (Central Standard Time),244871.39999997616,pear,900,I,m,m,None,1031,816.0,215.0,102,1,2462.7000000476837,242408.69999992847,7075,gold,NF,C,238746,238746,237100,238013,237100,239562,238530,238530,239562,20
21,test,1,con,1,z,Mon Mar 03 2025 12:56:27 GMT-0600 (Central Standard Time),248002.89999997616,banana,1100,I,z,z,None,1482,1267.0,215.0,4,1,3127.2000000476837,244875.69999992847,7075,banana,NF,C,241411,241411,239567,240679,239567,242694,241196,241196,242694,21
22,test,1,con,1,m,Mon Mar 03 2025 12:56:27 GMT-0600 (Central Standard Time),250486.19999992847,bronze,800,I,m,m,None,1150,951.0,199.0,65,1,2477.399999976158,248008.79999995232,7075,bronze,NF,C,244226,244226,242700,243511,242700,245177,244026,244027,245177,22
23,test,1,inc,1,m,Mon Mar 03 2025 12:56:27 GMT-0600 (Central Standard Time),252817.09999990463,banana,800,I,m,m,None,1009,794.0,215.0,77,1,2325.2999999523163,250491.79999995232,7075,copper,NF,C,246709,246709,245183,245993,245183,247508,246494,246494,247508,23
24,test,1,con,1,m,Mon Mar 03 2025 12:56:27 GMT-0600 (Central Standard Time),254934.79999995232,gold,1100,I,m,m,None,483,283.0,200.0,100,1,2113.100000023842,252821.69999992847,7075,gold,NF,C,249342,249342,247513,248625,247513,249626,249142,249142,249626,24
25,test,1,inc,1,m,Mon Mar 03 2025 12:56:27 GMT-0600 (Central Standard Time),257133.29999995232,lime,800,I,m,m,None,866,665.0,201.0,117,1,2193.600000023842,254939.69999992847,7075,zinc,NF,C,251159,251159,249631,250442,249631,251824,250958,250958,251824,25
26,test,1,con,1,z,Mon Mar 03 2025 12:56:27 GMT-0600 (Central Standard Time),259465.29999995232,raisin,800,I,z,z,None,995,795.0,200.0,25,1,2326.2999999523163,257139.0,7075,raisin,NF,C,253357,253357,251830,252642,251830,254156,253157,253157,254156,26
27,test,1,inc,1,m,Mon Mar 03 2025 12:56:27 GMT-0600 (Central Standard Time),262363.5,raisin,1100,I,m,m,None,1256,1057.0,199.0,80,1,2894.4000000953674,259469.09999990463,7075,copper,NF,C,255990,255990,254160,255273,254161,257055,255791,255791,257055,27
28,test,1,con,1,m,Mon Mar 03 2025 12:56:27 GMT-0600 (Central Standard Time),264513.6999999285,lead,900,I,m,m,None,699,484.0,215.0,122,1,2144.5,262369.1999999285,7075,lead,NF,C,258706,258706,257060,257973,257061,259205,258491,258491,259205,28
29,test,1,inc,1,m,Mon Mar 03 2025 12:56:27 GMT-0600 (Central Standard Time),266998.2999999523,orange,1000,I,m,m,None,933,734.0,199.0,95,1,2480.2000000476837,264518.09999990463,7075,cobalt,NF,C,260939,260939,259209,260222,259209,261689,260739,260739,261689,29
30,test,1,inc,1,z,Mon Mar 03 2025 12:56:27 GMT-0600 (Central Standard Time),269128.39999997616,gold,800,I,z,z,None,793,593.0,200.0,37,1,2124.2000000476837,267004.1999999285,7075,lime,NF,C,263222,263222,261695,262504,261696,263819,263022,263022,263819,30
31,test,1,inc,1,z,Mon Mar 03 2025 12:56:27 GMT-0600 (Central Standard Time),271477.39999997616,copper,900,I,z,z,None,905,706.0,199.0,6,1,2344.100000023842,269133.2999999523,7075,banana,NF,C,265453,265453,263824,264737,263825,266169,265254,265254,266168,31
32,test,1,inc,1,z,Mon Mar 03 2025 12:56:27 GMT-0600 (Central Standard Time),273645.7999999523,silver,1000,I,z,z,None,616,417.0,199.0,23,1,2163.399999976158,271482.39999997616,7075,orange,NF,C,267903,267903,266173,267186,266174,268337,267703,267703,268337,32
33,test,1,inc,1,m,Mon Mar 03 2025 12:56:27 GMT-0600 (Central Standard Time),276110.5,plum,1100,I,m,m,None,830,615.0,215.0,104,1,2461.600000023842,273648.89999997616,7075,gold,NF,C,270186,270186,268340,269453,268340,270802,269970,269970,270802,33
34,test,1,con,1,z,Mon Mar 03 2025 12:56:27 GMT-0600 (Central Standard Time),279242.39999997616,orange,1000,I,z,z,None,1583,1383.0,200.0,19,1,3126.100000023842,276116.2999999523,7075,orange,NF,C,272536,272536,270807,271818,270808,273933,272335,272335,273933,34
35,test,1,con,1,z,Mon Mar 03 2025 12:56:27 GMT-0600 (Central Standard Time),281408.2999999523,plum,1000,I,z,z,None,626,427.0,199.0,59,1,2161.899999976158,279246.39999997616,7075,plum,NF,C,275668,275668,273937,274951,273938,276099,275468,275468,276099,35
36,test,1,inc,1,z,Mon Mar 03 2025 12:56:27 GMT-0600 (Central Standard Time),283791.09999990463,lead,1100,I,z,z,None,762,548.0,214.0,40,1,2377.1999999284744,281413.89999997616,7075,lime,NF,C,277932,277932,276105,277216,276105,278482,277718,277718,278482,36
37,test,1,con,1,m,Mon Mar 03 2025 12:56:27 GMT-0600 (Central Standard Time),286174.89999997616,zinc,1000,I,m,m,None,849,634.0,215.0,115,1,2377.899999976158,283797.0,7075,zinc,NF,C,280231,280231,278488,279499,278489,280866,280016,280016,280866,37
38,test,1,con,1,z,Mon Mar 03 2025 12:56:27 GMT-0600 (Central Standard Time),288288.59999990463,cherry,800,I,z,z,None,768,567.0,201.0,9,1,2108.5,286180.09999990463,7075,cherry,NF,C,282399,282399,280871,281683,280872,282980,282198,282198,282980,38
39,test,1,inc,1,z,Mon Mar 03 2025 12:56:27 GMT-0600 (Central Standard Time),290858.1999999285,cobalt,1100,I,z,z,None,918,717.0,201.0,16,1,2563.1999999284744,288295.0,7075,cherry,NF,C,284815,284815,282986,284097,282986,285549,284613,284613,285549,39
40,test,1,inc,1,m,Mon Mar 03 2025 12:56:27 GMT-0600 (Central Standard Time),293104.59999990463,banana,800,I,m,m,None,910,692.0,218.0,85,1,2240.1999999284744,290864.39999997616,7075,silver,NF,C,287099,287099,285555,286363,285556,287796,286881,286881,287796,40
41,test,1,inc,1,m,Mon Mar 03 2025 12:56:27 GMT-0600 (Central Standard Time),295753.2999999523,plum,1100,I,m,m,None,1010,810.0,200.0,112,1,2644.2000000476837,293109.09999990463,7075,iron,NF,C,289629,289629,287800,288915,287800,290444,289428,289428,290444,41
42,test,1,inc,1,z,Mon Mar 03 2025 12:56:27 GMT-0600 (Central Standard Time),298021.39999997616,zinc,1000,I,z,z,None,749,550.0,199.0,63,1,2264.0,295757.39999997616,7075,plum,NF,C,292161,292162,290448,291461,290449,292712,291962,291962,292712,42
43,test,1,inc,1,z,Mon Mar 03 2025 12:56:27 GMT-0600 (Central Standard Time),300303.59999990463,copper,900,I,z,z,None,837,638.0,199.0,22,1,2278.1999999284744,298025.39999997616,7075,orange,NF,C,294345,294345,292716,293629,292717,294995,294145,294145,294995,43
44,test,1,inc,1,z,Mon Mar 03 2025 12:56:27 GMT-0600 (Central Standard Time),303153.7999999523,silver,1000,I,z,z,None,1321,1121.0,200.0,15,1,2844.5,300309.2999999523,7075,cherry,NF,C,296710,296710,295000,296008,295001,297845,296510,296510,297845,44
45,test,1,con,1,m,Mon Mar 03 2025 12:56:27 GMT-0600 (Central Standard Time),305219.7999999523,iron,900,I,m,m,None,634,434.0,200.0,106,1,2061.2000000476837,303158.59999990463,7075,iron,NF,C,299476,299476,297850,298759,297850,299911,299276,299276,299911,45
46,test,1,inc,1,m,Mon Mar 03 2025 12:56:27 GMT-0600 (Central Standard Time),307783.6999999285,orange,1000,I,m,m,None,1020,804.0,216.0,87,1,2559.100000023842,305224.59999990463,7075,silver,NF,C,301659,301659,299916,300926,299916,302475,301443,301443,302475,46
47,test,1,con,1,m,Mon Mar 03 2025 12:56:27 GMT-0600 (Central Standard Time),310132.59999990463,gold,900,I,m,m,None,913,697.0,216.0,98,1,2343.5,307789.09999990463,7075,gold,NF,C,304126,304126,302480,303394,302480,304824,303910,303910,304824,47
48,test,1,con,1,m,Mon Mar 03 2025 12:56:27 GMT-0600 (Central Standard Time),312133.09999990463,gold,800,I,m,m,None,665,464.0,201.0,97,1,1995.8999999761581,310137.1999999285,7075,gold,NF,C,306360,306360,304828,305641,304829,306824,306158,306158,306824,48
49,test,1,con,1,m,Mon Mar 03 2025 12:56:27 GMT-0600 (Central Standard Time),314398.2999999523,lead,800,I,m,m,None,918,700.0,218.0,121,1,2256.899999976158,312141.39999997616,7075,lead,NF,C,308375,308375,306832,307640,306833,309089,308157,308157,309089,49
50,test,1,inc,1,z,Mon Mar 03 2025 12:56:27 GMT-0600 (Central Standard Time),316630.2999999523,zinc,1000,I,z,z,None,686,471.0,215.0,39,1,2225.5,314404.7999999523,7075,lime,NF,C,310840,310840,309096,310106,309096,311321,310624,310624,311321,50
51,test,1,con,1,m,Mon Mar 03 2025 12:56:27 GMT-0600 (Central Standard Time),318763.2999999523,cobalt,800,I,m,m,None,792,592.0,200.0,89,1,2125.2000000476837,316638.09999990463,7075,cobalt,NF,C,312856,312856,311329,312137,311329,313454,312656,312656,313454,51
52,test,1,inc,1,m,Mon Mar 03 2025 12:56:27 GMT-0600 (Central Standard Time),321078.39999997616,lime,800,I,m,m,None,979,778.0,201.0,109,1,2310.399999976158,318768.0,7075,iron,NF,C,314989,314989,313459,314272,313459,315769,314788,314788,315769,52
53,test,1,inc,1,z,Mon Mar 03 2025 12:56:27 GMT-0600 (Central Standard Time),323212.1999999285,zinc,1000,I,z,z,None,591,392.0,199.0,55,1,2127.6999999284744,321084.5,7075,kiwi,NF,C,317503,317503,315776,316788,315776,317903,317304,317304,317903,53
54,test,1,con,1,m,Mon Mar 03 2025 12:56:27 GMT-0600 (Central Standard Time),325443.6999999285,copper,900,I,m,m,None,792,591.0,201.0,74,1,2226.2999999523163,323217.39999997616,7075,copper,NF,C,319537,319537,317908,318820,317909,320135,319336,319336,320135,54
55,test,1,inc,1,z,Mon Mar 03 2025 12:56:27 GMT-0600 (Central Standard Time),327311.7999999523,bronze,800,I,z,z,None,532,333.0,199.0,29,1,1863.1000000238419,325448.6999999285,7075,raisin,NF,C,321669,321669,320140,320953,320140,322003,321469,321469,322003,55
56,test,1,con,1,z,Mon Mar 03 2025 12:56:27 GMT-0600 (Central Standard Time),330210.6999999285,banana,800,I,z,z,None,1576,1361.0,215.0,1,1,2893.0,327317.6999999285,7075,banana,NF,C,323536,323536,322009,322818,322009,324902,323320,323320,324902,56
57,test,1,con,1,z,Mon Mar 03 2025 12:56:27 GMT-0600 (Central Standard Time),332261.1999999285,pear,900,I,z,z,None,616,417.0,199.0,42,1,2046.3999999761581,330214.7999999523,7075,pear,NF,C,326535,326535,324906,325818,324906,326952,326335,326335,326952,57
58,test,1,inc,1,z,Mon Mar 03 2025 12:56:27 GMT-0600 (Central Standard Time),334375.5,zinc,1000,I,z,z,None,570,370.0,200.0,47,1,2110.2000000476837,332265.2999999523,7075,pear,NF,C,328685,328685,326956,327969,326957,329067,328484,328484,329067,58
59,test,1,con,1,m,Mon Mar 03 2025 12:56:27 GMT-0600 (Central Standard Time),336440.0,silver,1100,I,m,m,None,419,220.0,199.0,84,1,2059.100000023842,334380.89999997616,7075,silver,NF,C,330899,330899,329072,330184,329072,331131,330699,330700,331131,59
59,test,1,con,0,m,Mon Mar 03 2025 12:56:27 GMT-0600 (Central Standard Time),338857.5,iron,1000,I,z,z,None,878,678.0,200.0,107,1,2412.8000000715256,336444.6999999285,7075,iron,NF,C,332865,332865,331136,332149,331136,333549,332665,332665,333549,60
60,test,1,inc,1,m,Mon Mar 03 2025 12:56:27 GMT-0600 (Central Standard Time),341039.39999997616,kiwi,1000,I,m,m,None,636,437.0,199.0,111,1,2177.3000000715256,338862.09999990463,7075,iron,NF,C,335281,335281,333553,334566,333553,335730,335082,335082,335730,61
61,test,1,con,1,z,Mon Mar 03 2025 12:56:27 GMT-0600 (Central Standard Time),343455.5,pear,1100,I,z,z,None,779,579.0,200.0,44,1,2412.5,341043.0,7075,pear,NF,C,337564,337564,335734,336849,335734,338147,337364,337364,338147,62
62,test,1,inc,1,z,Mon Mar 03 2025 12:56:27 GMT-0600 (Central Standard Time),345903.09999990463,gold,800,I,z,z,None,1127,928.0,199.0,45,1,2443.2999999523163,343459.7999999523,7075,pear,NF,C,339663,339663,338151,338962,338151,340594,339464,339464,340594,63
63,test,1,inc,1,z,Mon Mar 03 2025 12:56:27 GMT-0600 (Central Standard Time),348421.0,copper,900,I,z,z,None,1081,882.0,199.0,30,1,2512.100000023842,345908.89999997616,7075,raisin,NF,C,342229,342229,340600,341513,340600,343112,342029,342029,343112,64
64,test,1,inc,1,m,Mon Mar 03 2025 12:56:27 GMT-0600 (Central Standard Time),350636.89999997616,kiwi,1000,I,m,m,None,699,499.0,200.0,127,1,2209.600000023842,348427.2999999523,7075,lead,NF,C,344829,344829,343118,344127,343119,345328,344628,344628,345328,65
65,test,1,inc,1,z,Mon Mar 03 2025 12:56:27 GMT-0600 (Central Standard Time),353118.09999990463,gold,800,I,z,z,None,1136,920.0,216.0,61,1,2477.5,350640.59999990463,7075,plum,NF,C,346878,346878,345332,346146,345332,347809,346662,346662,347809,66
66,test,1,con,1,m,Mon Mar 03 2025 12:56:27 GMT-0600 (Central Standard Time),355485.59999990463,cobalt,1100,I,m,m,None,732,533.0,199.0,92,1,2363.2999999523163,353122.2999999523,7075,cobalt,NF,C,349642,349643,347813,348928,347814,350177,349443,349443,350177,67
67,test,1,con,1,m,Mon Mar 03 2025 12:56:27 GMT-0600 (Central Standard Time),358000.5,silver,1000,I,m,m,None,977,762.0,215.0,83,1,2510.7000000476837,355489.7999999523,7075,silver,NF,C,351925,351925,350181,351193,350181,352692,351710,351710,352692,68
68,test,1,con,1,z,Mon Mar 03 2025 12:56:27 GMT-0600 (Central Standard Time),359982.89999997616,kiwi,800,I,z,z,None,640,439.0,201.0,49,1,1977.1000000238419,358005.7999999523,7075,kiwi,NF,C,354225,354225,352697,353509,352697,354674,354024,354024,354674,69
69,test,1,inc,1,z,Mon Mar 03 2025 12:56:27 GMT-0600 (Central Standard Time),362301.2999999523,silver,1000,I,z,z,None,765,566.0,199.0,31,1,2313.2000000476837,359988.09999990463,7075,raisin,NF,C,356409,356409,354679,355690,354679,356992,356209,356209,356992,70
70,test,1,inc,1,z,Mon Mar 03 2025 12:56:27 GMT-0600 (Central Standard Time),364566.59999990463,copper,900,I,z,z,None,831,615.0,216.0,14,1,2261.899999976158,362304.6999999285,7075,cherry,NF,C,358642,358642,356996,357909,356996,359258,358425,358425,359258,71
71,test,1,con,1,m,Mon Mar 03 2025 12:56:27 GMT-0600 (Central Standard Time),366749.5,silver,900,I,m,m,None,750,550.0,200.0,82,1,2178.0,364571.5,7075,silver,NF,C,360890,360890,359263,360173,359263,361441,360689,360689,361440,72
72,test,1,inc,1,z,Mon Mar 03 2025 12:56:27 GMT-0600 (Central Standard Time),368814.2999999523,iron,900,I,z,z,None,632,432.0,200.0,46,1,2060.7999999523163,366753.5,7075,pear,NF,C,363073,363073,361445,362359,361445,363505,362872,362872,363505,73
73,test,1,inc,1,m,Mon Mar 03 2025 12:56:27 GMT-0600 (Central Standard Time),371780.6999999285,raisin,1100,I,m,m,None,1333,1117.0,216.0,88,1,2961.899999976158,368818.7999999523,7075,silver,NF,C,365355,365355,363510,364623,363510,366472,365139,365139,366472,74
74,test,1,inc,1,m,Mon Mar 03 2025 12:56:27 GMT-0600 (Central Standard Time),373929.5,cherry,900,I,m,m,None,700,484.0,216.0,94,1,2144.600000023842,371784.89999997616,7075,cobalt,NF,C,368122,368122,366476,367389,366476,368621,367905,367905,368621,75
75,test,1,con,1,z,Mon Mar 03 2025 12:56:27 GMT-0600 (Central Standard Time),376311.39999997616,kiwi,1000,I,z,z,None,837,637.0,200.0,51,1,2376.399999976158,373935.0,7075,kiwi,NF,C,370354,370354,368626,369638,368626,371002,370154,370154,371002,76
76,test,1,inc,1,m,Mon Mar 03 2025 12:56:27 GMT-0600 (Central Standard Time),378444.2999999523,banana,800,I,m,m,None,813,598.0,215.0,69,1,2128.0,376316.2999999523,7075,bronze,NF,C,372537,372537,371007,371818,371008,373135,372321,372321,373135,77
77,test,1,inc,1,m,Mon Mar 03 2025 12:56:27 GMT-0600 (Central Standard Time),380510.59999990463,pear,900,I,m,m,None,645,446.0,199.0,110,1,2061.5999999046326,378449.0,7075,iron,NF,C,374753,374753,373140,374051,373140,375202,374553,374553,375202,78
78,test,1,con,1,m,Mon Mar 03 2025 12:56:27 GMT-0600 (Central Standard Time),383825.59999990463,copper,800,I,m,m,None,1975,1759.0,216.0,73,1,3309.7999999523163,380515.7999999523,7075,copper,NF,C,376753,376753,375207,376018,375207,378517,376537,376537,378517,79
79,test,1,con,1,m,Mon Mar 03 2025 12:56:27 GMT-0600 (Central Standard Time),386276.7999999523,lead,1100,I,m,m,None,817,617.0,200.0,124,1,2446.0,383830.7999999523,7075,lead,NF,C,380350,380350,378522,379634,378522,380968,380150,380150,380968,80
80,test,1,con,1,m,Mon Mar 03 2025 12:56:27 GMT-0600 (Central Standard Time),388574.5,copper,1100,I,m,m,None,656,454.0,202.0,76,1,2292.2000000476837,386282.2999999523,7075,copper,NF,C,382801,382801,380973,382082,380974,383266,382599,382599,383266,81
81,test,1,inc,1,m,Mon Mar 03 2025 12:56:27 GMT-0600 (Central Standard Time),390773.5,cherry,900,I,m,m,None,755,540.0,215.0,86,1,2194.7000000476837,388578.7999999523,7075,silver,NF,C,384915,384915,383270,384184,383270,385465,384699,384699,385465,82
82,test,1,inc,1,m,Mon Mar 03 2025 12:56:27 GMT-0600 (Central Standard Time),392805.7999999523,pear,900,I,m,m,None,588,389.0,199.0,126,1,2027.1000000238419,390778.6999999285,7075,lead,NF,C,387098,387098,385470,386381,385470,387497,386898,386898,387497,83
83,test,1,inc,1,z,Mon Mar 03 2025 12:56:27 GMT-0600 (Central Standard Time),394872.09999990463,iron,900,I,z,z,None,626,412.0,214.0,38,1,2062.0,392810.09999990463,7075,lime,NF,C,389147,389147,387501,388414,387501,389563,388932,388932,389563,84
84,test,1,inc,1,z,Mon Mar 03 2025 12:56:27 GMT-0600 (Central Standard Time),397338.5,cobalt,1100,I,z,z,None,832,616.0,216.0,24,1,2461.100000023842,394877.39999997616,7075,orange,NF,C,391398,391398,389568,390679,389569,392030,391181,391181,392030,85
85,test,1,inc,1,z,Mon Mar 03 2025 12:56:27 GMT-0600 (Central Standard Time),399470.2999999523,cobalt,1100,I,z,z,None,513,312.0,201.0,8,1,2126.100000023842,397344.1999999285,7075,banana,NF,C,393847,393848,392035,393145,392036,394161,393646,393646,394161,86
86,test,1,inc,1,m,Mon Mar 03 2025 12:56:27 GMT-0600 (Central Standard Time),401452.89999997616,lime,800,I,m,m,None,639,440.0,199.0,101,1,1977.0,399475.89999997616,7075,gold,NF,C,395695,395695,394167,394979,394167,396144,395496,395496,396144,87
87,test,1,con,1,m,Mon Mar 03 2025 12:56:27 GMT-0600 (Central Standard Time),403686.2999999523,copper,1000,I,m,m,None,699,498.0,201.0,75,1,2228.600000023842,401457.6999999285,7075,copper,NF,C,397879,397879,396149,397162,396149,398377,397677,397677,398377,88
88,test,1,inc,1,z,Mon Mar 03 2025 12:56:27 GMT-0600 (Central Standard Time),405986.59999990463,lead,1100,I,z,z,None,660,460.0,200.0,56,1,2294.0999999046326,403692.5,7075,kiwi,NF,C,400211,400211,398384,399495,398384,400678,400011,400011,400678,89
89,test,1,inc,1,z,Mon Mar 03 2025 12:56:27 GMT-0600 (Central Standard Time),408168.59999990463,bronze,800,I,z,z,None,846,645.0,201.0,21,1,2177.5999999046326,405991.0,7075,orange,NF,C,402210,402210,400682,401494,400682,402860,402009,402009,402860,90
90,test,1,con,1,z,Mon Mar 03 2025 12:56:27 GMT-0600 (Central Standard Time),410301.5,pear,1000,I,z,z,None,589,390.0,199.0,43,1,2128.100000023842,408173.39999997616,7075,pear,NF,C,404593,404593,402864,403878,402865,404993,404394,404394,404993,91
91,test,1,con,1,z,Mon Mar 03 2025 12:56:27 GMT-0600 (Central Standard Time),412366.6999999285,lime,900,I,z,z,None,619,420.0,199.0,34,1,2060.0,410306.6999999285,7075,lime,NF,C,406626,406626,404998,405910,404998,407058,406426,406426,407058,92
92,test,1,inc,1,m,Mon Mar 03 2025 12:56:27 GMT-0600 (Central Standard Time),414413.7999999523,pear,900,I,m,m,None,610,411.0,199.0,118,1,2038.2000000476837,412375.59999990463,7075,zinc,NF,C,408691,408691,407067,407976,407067,409105,408491,408491,409105,93
93,test,1,inc,1,m,Mon Mar 03 2025 12:56:27 GMT-0600 (Central Standard Time),416717.1999999285,orange,1000,I,m,m,None,758,543.0,215.0,71,1,2300.7999999523163,414416.39999997616,7075,bronze,NF,C,410857,410857,409107,410125,409108,411408,410641,410641,411408,94
94,test,1,inc,1,m,Mon Mar 03 2025 12:56:27 GMT-0600 (Central Standard Time),418965.59999990463,cherry,900,I,m,m,None,823,607.0,216.0,70,1,2240.2999999523163,416725.2999999523,7075,bronze,NF,C,413040,413040,411416,412323,411417,413657,412824,412824,413657,95
95,test,1,con,1,z,Mon Mar 03 2025 12:56:27 GMT-0600 (Central Standard Time),421214.7999999523,lime,1100,I,z,z,None,616,416.0,200.0,36,1,2239.2999999523163,418975.5,7075,lime,NF,C,415489,415489,413667,414772,413667,415906,415289,415289,415906,96
96,test,1,inc,1,m,Mon Mar 03 2025 12:56:27 GMT-0600 (Central Standard Time),423480.0,raisin,1100,I,m,m,None,628,429.0,199.0,96,1,2259.3000000715256,421220.6999999285,7075,cobalt,NF,C,417739,417739,415912,417022,415912,418171,417539,417539,418171,97
97,test,1,inc,1,z,Mon Mar 03 2025 12:56:27 GMT-0600 (Central Standard Time),425495.7999999523,bronze,800,I,z,z,None,678,478.0,200.0,5,1,2010.2000000476837,423485.59999990463,7075,banana,NF,C,419705,419706,418177,418989,418177,420187,419505,419505,420187,98
97,test,1,con,0,z,Mon Mar 03 2025 12:56:27 GMT-0600 (Central Standard Time),427577.5,plum,800,I,m,m,None,732,533.0,199.0,57,1,2072.9000000953674,425504.59999990463,7075,plum,NF,C,421721,421722,420196,421004,420196,422269,421521,421521,422269,99
98,test,1,inc,1,m,Mon Mar 03 2025 12:56:27 GMT-0600 (Central Standard Time),430012.1999999285,plum,1100,I,m,m,None,799,600.0,199.0,120,1,2429.600000023842,427582.59999990463,7075,zinc,NF,C,424103,424103,422274,423387,422274,424703,423904,423904,424703,100
99,test,1,con,1,z,Mon Mar 03 2025 12:56:27 GMT-0600 (Central Standard Time),432179.5,lime,1000,I,z,z,None,627,411.0,216.0,35,1,2161.7000000476837,430017.7999999523,7075,lime,NF,C,426452,426452,424709,425721,424709,426871,426236,426236,426870,101
100,test,1,con,1,z,Mon Mar 03 2025 12:56:27 GMT-0600 (Central Standard Time),434592.6999999285,plum,1100,I,z,z,None,768,569.0,199.0,60,1,2405.899999976158,432186.7999999523,7075,plum,NF,C,428702,428702,426878,427986,426878,429284,428502,428502,429284,102
101,test,1,con,1,m,Mon Mar 03 2025 12:56:27 GMT-0600 (Central Standard Time),437292.59999990463,bronze,1000,I,m,m,None,1166,966.0,200.0,67,1,2695.899999976158,434596.6999999285,7075,bronze,NF,C,431017,431017,429288,430302,429288,431984,430817,430817,431984,103
102,test,1,inc,1,m,Mon Mar 03 2025 12:56:27 GMT-0600 (Central Standard Time),440092.0,orange,1000,I,m,m,None,1249,1033.0,216.0,79,1,2789.4000000953674,437302.59999990463,7075,copper,NF,C,433734,433734,431994,433001,431994,434783,433518,433518,434783,104
103,test,1,con,1,z,Mon Mar 03 2025 12:56:27 GMT-0600 (Central Standard Time),442023.09999990463,pear,800,I,z,z,None,595,380.0,215.0,41,1,1925.5999999046326,440097.5,7075,pear,NF,C,436332,436332,434789,435600,434789,436714,436117,436117,436714,105
104,test,1,con,1,z,Mon Mar 03 2025 12:56:27 GMT-0600 (Central Standard Time),444490.89999997616,cherry,1100,I,z,z,None,816,601.0,215.0,12,1,2462.600000023842,442028.2999999523,7075,cherry,NF,C,438565,438565,436719,437833,436720,439182,438350,438350,439182,106
105,test,1,inc,1,m,Mon Mar 03 2025 12:56:27 GMT-0600 (Central Standard Time),446774.7999999523,kiwi,1000,I,m,m,None,750,550.0,200.0,119,1,2278.7999999523163,444496.0,7075,zinc,NF,C,440915,440915,439187,440200,439187,441466,440715,440715,441466,107
106,test,1,con,1,m,Mon Mar 03 2025 12:56:27 GMT-0600 (Central Standard Time),448805.39999997616,iron,800,I,m,m,None,690,489.0,201.0,105,1,2024.8000000715256,446780.59999990463,7075,iron,NF,C,442998,442998,441472,442281,441472,443497,442797,442797,443496,108
107,test,1,con,1,m,Mon Mar 03 2025 12:56:27 GMT-0600 (Central Standard Time),450920.39999997616,bronze,900,I,m,m,None,678,478.0,200.0,66,1,2109.399999976158,448811.0,7075,bronze,NF,C,445129,445129,443502,444414,443502,445612,444929,444929,445611,109
108,test,1,con,1,z,Mon Mar 03 2025 12:56:27 GMT-0600 (Central Standard Time),453004.0,cherry,900,I,z,z,None,640,441.0,199.0,10,1,2079.5,450924.5,7075,cherry,NF,C,447245,447246,445616,446530,445616,447695,447046,447046,447695,110
109,test,1,con,1,z,Mon Mar 03 2025 12:56:27 GMT-0600 (Central Standard Time),455420.09999990463,banana,1000,I,z,z,None,872,673.0,199.0,3,1,2411.0999999046326,453009.0,7075,banana,NF,C,449430,449430,447700,448712,447700,450111,449230,449230,450111,111
110,test,1,inc,1,z,Mon Mar 03 2025 12:56:27 GMT-0600 (Central Standard Time),457886.6999999285,silver,1000,I,z,z,None,922,723.0,199.0,7,1,2461.399999976158,455425.2999999523,7075,banana,NF,C,451844,451844,450116,451129,450117,452578,451643,451644,452578,112
111,test,1,inc,1,m,Mon Mar 03 2025 12:56:27 GMT-0600 (Central Standard Time),460118.6999999285,cherry,900,I,m,m,None,787,588.0,199.0,78,1,2227.0,457891.6999999285,7075,copper,NF,C,454211,454211,452583,453494,452583,454810,454010,454011,454810,113
112,test,1,con,1,z,Mon Mar 03 2025 12:56:27 GMT-0600 (Central Standard Time),462284.89999997616,cherry,1000,I,z,z,None,618,418.0,200.0,11,1,2159.8000000715256,460125.09999990463,7075,cherry,NF,C,456542,456542,454816,455825,454817,456976,456342,456342,456976,114
113,test,1,con,1,m,Mon Mar 03 2025 12:56:27 GMT-0600 (Central Standard Time),464299.5,silver,800,I,m,m,None,679,465.0,214.0,81,1,2009.4000000953674,462290.09999990463,7075,silver,NF,C,458525,458525,456981,457793,456982,458991,458310,458310,458990,115
114,test,1,con,1,z,Mon Mar 03 2025 12:56:27 GMT-0600 (Central Standard Time),466566.1999999285,orange,1100,I,z,z,None,621,422.0,199.0,20,1,2261.600000023842,464304.59999990463,7075,orange,NF,C,460825,460825,458996,460108,458996,461257,460625,460625,461257,116
115,test,1,inc,1,z,Mon Mar 03 2025 12:56:27 GMT-0600 (Central Standard Time),468632.5,bronze,800,I,z,z,None,745,545.0,200.0,13,1,2061.0,466571.5,7075,cherry,NF,C,462775,462775,461263,462073,461263,463324,462575,462575,463324,117
116,test,1,con,1,z,Mon Mar 03 2025 12:56:27 GMT-0600 (Central Standard Time),470598.89999997616,orange,900,I,z,z,None,530,330.0,200.0,18,1,1961.7000000476837,468637.1999999285,7075,orange,NF,C,464957,464957,463328,464241,463329,465290,464757,464757,465290,118
117,test,1,con,1,z,Mon Mar 03 2025 12:56:27 GMT-0600 (Central Standard Time),472680.09999990463,raisin,900,I,z,z,None,644,428.0,216.0,26,1,2075.0999999046326,470605.0,7075,raisin,NF,C,466939,466939,465296,466206,465297,467371,466723,466723,467371,119
118,test,1,con,1,m,Mon Mar 03 2025 12:56:27 GMT-0600 (Central Standard Time),474847.39999997616,lead,1000,I,m,m,None,622,422.0,200.0,123,1,2163.100000023842,472684.2999999523,7075,lead,NF,C,469105,469105,467375,468389,467376,469539,468905,468905,469538,120
119,test,1,con,1,m,Mon Mar 03 2025 12:56:27 GMT-0600 (Central Standard Time),476996.39999997616,zinc,900,I,m,m,None,707,507.0,200.0,114,1,2144.8000000715256,474851.59999990463,7075,zinc,NF,C,471172,471172,469543,470454,469543,471688,470971,470971,471687,121
120,test,1,inc,1,z,Mon Mar 03 2025 12:56:27 GMT-0600 (Central Standard Time),479328.6999999285,lead,1100,I,z,z,None,685,486.0,199.0,64,1,2328.100000023842,477000.59999990463,7075,plum,NF,C,473521,473521,471692,472806,471692,474020,473321,473321,474020,122
121,test,1,con,1,m,Mon Mar 03 2025 12:56:27 GMT-0600 (Central Standard Time),481729.2999999523,bronze,1100,I,m,m,None,754,555.0,199.0,68,1,2395.7999999523163,479333.5,7075,bronze,NF,C,475852,475852,474025,475137,474025,476420,475653,475653,476420,123
122,test,1,con,1,z,Mon Mar 03 2025 12:56:27 GMT-0600 (Central Standard Time),484077.09999990463,kiwi,900,I,z,z,None,904,690.0,214.0,50,1,2343.5,481733.59999990463,7075,kiwi,NF,C,478069,478069,476425,477336,476425,478768,477855,477855,478768,124
123,test,1,con,1,z,Mon Mar 03 2025 12:56:27 GMT-0600 (Central Standard Time),485993.6999999285,lime,800,I,z,z,None,568,369.0,199.0,33,1,1911.3999999761581,484082.2999999523,7075,lime,NF,C,480302,480302,478773,479587,478774,480685,480102,480102,480685,125
124,test,1,inc,1,z,Mon Mar 03 2025 12:56:27 GMT-0600 (Central Standard Time),488309.89999997616,cobalt,1100,I,z,z,None,689,473.0,216.0,32,1,2311.3000000715256,485998.59999990463,7075,raisin,NF,C,482518,482518,480690,481801,480690,483001,482302,482302,483001,126
125,test,1,inc,1,z,Mon Mar 03 2025 12:56:27 GMT-0600 (Central Standard Time),490591.5,lead,1100,I,z,z,None,632,433.0,199.0,48,1,2277.3000000715256,488314.1999999285,7075,pear,NF,C,484833,484833,483005,484117,483005,485283,484634,484634,485282,127
126,test,1,inc,1,m,Mon Mar 03 2025 12:56:27 GMT-0600 (Central Standard Time),492591.2999999523,banana,800,I,m,m,None,654,455.0,199.0,93,1,1994.3999999761581,490596.89999997616,7075,cobalt,NF,C,486816,486816,485288,486101,485288,487282,486616,486617,487282,128
