acc_sum,block,block_c,change,condition,correct,correct_response,datetime,endtime,face,project,response,response_time,row_sel,session_number,start_end,starttime,subject_id,task,task_vers,trial
0,prac,1,,1-Back,,,Fri Mar 28 2025 13:31:08 GMT-0500 (Central Daylight Time),,012_o_f_d_a.png,O,space,11684,1,1,,,7114,VNB,C,0
1,prac,1,0.0,1-Back,1,m,Fri Mar 28 2025 13:31:08 GMT-0500 (Central Daylight Time),148370.69999992847,022_y_f_n_a.png,O,m,1123,2,1,2058.0,146312.69999992847,7114,VNB,C,1
2,prac,1,0.0,1-Back,1,m,Fri Mar 28 2025 13:31:08 GMT-0500 (Central Daylight Time),151036.29999995232,014_m_m_h_a.png,O,m,1720,3,1,2625.100000023842,148411.19999992847,7114,VNB,C,2
3,prac,1,0.0,1-Back,1,m,Fri Mar 28 2025 13:31:08 GMT-0500 (Central Daylight Time),152951.60000002384,025_y_m_d_a.png,O,m,966,4,1,1870.1000000238419,151081.5,7114,VNB,C,3
4,prac,1,0.0,1-Back,1,m,Fri Mar 28 2025 13:31:08 GMT-0500 (Central Daylight Time),155301.10000002384,012_o_f_n_a.png,O,m,1421,5,1,2330.7000000476837,152970.39999997616,7114,VNB,C,4
5,prac,1,1.0,1-Back,1,z,Fri Mar 28 2025 13:31:08 GMT-0500 (Central Daylight Time),157067.5,025_y_m_n_a.png,O,z,828,6,1,1728.1000000238419,155339.39999997616,7114,VNB,C,5
6,prac,1,0.0,1-Back,1,m,Fri Mar 28 2025 13:31:08 GMT-0500 (Central Daylight Time),158765.69999992847,015_o_m_h_a.png,O,m,733,7,1,1659.1999999284744,157106.5,7114,VNB,C,6
7,prac,1,0.0,1-Back,1,m,Fri Mar 28 2025 13:31:08 GMT-0500 (Central Daylight Time),160582.89999997616,019_m_f_d_a.png,O,m,889,8,1,1808.0,158774.89999997616,7114,VNB,C,7
8,prac,1,1.0,1-Back,1,z,Fri Mar 28 2025 13:31:08 GMT-0500 (Central Daylight Time),162132.29999995232,022_y_f_d_a.png,O,z,590,9,1,1509.3999999761581,160622.89999997616,7114,VNB,C,8
9,prac,1,0.0,1-Back,1,m,Fri Mar 28 2025 13:31:08 GMT-0500 (Central Daylight Time),164148.19999992847,014_m_m_n_a.png,O,m,1077,10,1,1983.1999999284744,162165.0,7114,VNB,C,9
9,prac,1,0.0,1-Back,0,m,Fri Mar 28 2025 13:31:08 GMT-0500 (Central Daylight Time),165931.10000002384,012_o_f_h_a.png,O,z,823,11,1,1745.9000000953674,164185.19999992847,7114,VNB,C,10
9,prac,1,0.0,1-Back,0,m,Fri Mar 28 2025 13:31:08 GMT-0500 (Central Daylight Time),167946.89999997616,025_y_m_d_a.png,O,z,1082,12,1,1980.8999999761581,165966.0,7114,VNB,C,11
0,test,1,0.0,1-Back,,,Fri Mar 28 2025 13:31:08 GMT-0500 (Central Daylight Time),167946.89999997616,022_y_f_d_a.png,O,space,12197,1,1,1980.8999999761581,165966.0,7114,VNB,C,0
1,test,1,0.0,1-Back,1,m,Fri Mar 28 2025 13:31:08 GMT-0500 (Central Daylight Time),191523.0,019_m_f_n_a.png,O,m,785,2,1,1805.1000000238419,189717.89999997616,7114,VNB,C,1
2,test,1,0.0,1-Back,1,m,Fri Mar 28 2025 13:31:08 GMT-0500 (Central Daylight Time),193705.19999992847,015_o_m_h_a.png,O,m,1144,3,1,2155.399999976158,191549.79999995232,7114,VNB,C,2
3,test,1,1.0,1-Back,1,z,Fri Mar 28 2025 13:31:08 GMT-0500 (Central Daylight Time),195438.10000002384,014_m_m_h_a.png,O,z,681,4,1,1701.4000000953674,193736.69999992847,7114,VNB,C,3
4,test,1,0.0,1-Back,1,m,Fri Mar 28 2025 13:31:08 GMT-0500 (Central Daylight Time),197037.5,012_o_f_n_a.png,O,m,557,5,1,1578.8999999761581,195458.60000002384,7114,VNB,C,4
5,test,1,0.0,1-Back,1,m,Fri Mar 28 2025 13:31:08 GMT-0500 (Central Daylight Time),199036.89999997616,025_y_m_d_a.png,O,m,940,6,1,1967.0,197069.89999997616,7114,VNB,C,5
6,test,1,1.0,1-Back,1,z,Fri Mar 28 2025 13:31:08 GMT-0500 (Central Daylight Time),200769.29999995232,019_m_f_d_a.png,O,z,677,7,1,1705.7999999523163,199063.5,7114,VNB,C,6
7,test,1,0.0,1-Back,1,m,Fri Mar 28 2025 13:31:08 GMT-0500 (Central Daylight Time),202468.89999997616,022_y_f_h_a.png,O,m,657,8,1,1674.1000000238419,200794.79999995232,7114,VNB,C,7
8,test,1,0.0,1-Back,1,m,Fri Mar 28 2025 13:31:08 GMT-0500 (Central Daylight Time),204451.69999992847,015_o_m_n_a.png,O,m,940,9,1,1953.1999999284744,202498.5,7114,VNB,C,8
9,test,1,0.0,1-Back,1,m,Fri Mar 28 2025 13:31:08 GMT-0500 (Central Daylight Time),206269.60000002384,025_y_m_h_a.png,O,m,783,10,1,1789.8000000715256,204479.79999995232,7114,VNB,C,9
10,test,1,0.0,1-Back,1,m,Fri Mar 28 2025 13:31:08 GMT-0500 (Central Daylight Time),208083.89999997616,015_o_m_d_a.png,O,m,792,11,1,1803.2000000476837,206280.69999992847,7114,VNB,C,10
11,test,1,1.0,1-Back,1,z,Fri Mar 28 2025 13:31:08 GMT-0500 (Central Daylight Time),210549.89999997616,012_o_f_d_a.png,O,z,1431,12,1,2439.7000000476837,208110.19999992847,7114,VNB,C,11
12,test,1,0.0,1-Back,1,m,Fri Mar 28 2025 13:31:08 GMT-0500 (Central Daylight Time),212261.29999995232,014_m_m_n_a.png,O,m,677,13,1,1689.1999999284744,210572.10000002384,7114,VNB,C,12
13,test,1,1.0,1-Back,1,z,Fri Mar 28 2025 13:31:08 GMT-0500 (Central Daylight Time),214447.79999995232,022_y_f_n_a.png,O,z,1142,14,1,2165.0,212282.79999995232,7114,VNB,C,13
14,test,1,0.0,1-Back,1,m,Fri Mar 28 2025 13:31:08 GMT-0500 (Central Daylight Time),216431.0,019_m_f_h_a.png,O,m,948,15,1,1967.8999999761581,214463.10000002384,7114,VNB,C,14
15,test,1,0.0,1-Back,1,m,Fri Mar 28 2025 13:31:08 GMT-0500 (Central Daylight Time),218213.69999992847,014_m_m_d_a.png,O,m,746,16,1,1762.6999999284744,216451.0,7114,VNB,C,15
16,test,1,0.0,1-Back,1,m,Fri Mar 28 2025 13:31:08 GMT-0500 (Central Daylight Time),220063.19999992847,025_y_m_n_a.png,O,m,804,17,1,1819.2999999523163,218243.89999997616,7114,VNB,C,16
17,test,1,0.0,1-Back,1,m,Fri Mar 28 2025 13:31:08 GMT-0500 (Central Daylight Time),221945.89999997616,012_o_f_h_a.png,O,m,818,18,1,1849.0,220096.89999997616,7114,VNB,C,17
0,test,2,0.0,1-Back,,,Fri Mar 28 2025 13:31:08 GMT-0500 (Central Daylight Time),221945.89999997616,025_y_m_n_a.png,O,space,2231,1,1,1849.0,220096.89999997616,7114,VNB,C,0
1,test,2,0.0,1-Back,1,m,Fri Mar 28 2025 13:31:08 GMT-0500 (Central Daylight Time),228327.19999992847,022_y_f_h_a.png,O,m,1072,2,1,2094.1999999284744,226233.0,7114,VNB,C,1
2,test,2,1.0,1-Back,1,m,Fri Mar 28 2025 13:31:08 GMT-0500 (Central Daylight Time),230143.19999992847,015_o_m_n_a.png,O,m,754,3,1,1785.8999999761581,228357.29999995232,7114,VNB,C,2
3,test,2,0.0,1-Back,1,m,Fri Mar 28 2025 13:31:08 GMT-0500 (Central Daylight Time),231992.5,019_m_f_d_a.png,O,m,803,4,1,1818.5,230174.0,7114,VNB,C,3
4,test,2,0.0,1-Back,1,z,Fri Mar 28 2025 13:31:08 GMT-0500 (Central Daylight Time),233575.29999995232,014_m_m_d_a.png,O,z,546,5,1,1556.3999999761581,232018.89999997616,7114,VNB,C,4
5,test,2,0.0,1-Back,1,m,Fri Mar 28 2025 13:31:08 GMT-0500 (Central Daylight Time),235724.79999995232,025_y_m_h_a.png,O,m,1067,6,1,2096.899999976158,233627.89999997616,7114,VNB,C,5
6,test,2,1.0,1-Back,1,z,Fri Mar 28 2025 13:31:08 GMT-0500 (Central Daylight Time),237673.89999997616,012_o_f_h_a.png,O,z,901,7,1,1924.1000000238419,235749.79999995232,7114,VNB,C,6
7,test,2,0.0,1-Back,1,m,Fri Mar 28 2025 13:31:08 GMT-0500 (Central Daylight Time),239507.0,019_m_f_n_a.png,O,m,777,8,1,1799.6000000238419,237707.39999997616,7114,VNB,C,7
8,test,2,0.0,1-Back,1,m,Fri Mar 28 2025 13:31:08 GMT-0500 (Central Daylight Time),241706.0,022_y_f_d_a.png,O,m,1143,9,1,2171.0,239535.0,7114,VNB,C,8
9,test,2,0.0,1-Back,1,m,Fri Mar 28 2025 13:31:08 GMT-0500 (Central Daylight Time),243488.69999992847,014_m_m_n_a.png,O,m,728,10,1,1751.8999999761581,241736.79999995232,7114,VNB,C,9
10,test,2,1.0,1-Back,1,m,Fri Mar 28 2025 13:31:08 GMT-0500 (Central Daylight Time),245454.69999992847,019_m_f_h_a.png,O,m,930,11,1,1941.2999999523163,243513.39999997616,7114,VNB,C,10
11,test,2,0.0,1-Back,1,z,Fri Mar 28 2025 13:31:08 GMT-0500 (Central Daylight Time),247171.29999995232,015_o_m_h_a.png,O,z,650,12,1,1685.6999999284744,245485.60000002384,7114,VNB,C,11
12,test,2,0.0,1-Back,1,m,Fri Mar 28 2025 13:31:08 GMT-0500 (Central Daylight Time),248837.79999995232,025_y_m_d_a.png,O,m,631,13,1,1639.6000000238419,247198.19999992847,7114,VNB,C,12
13,test,2,0.0,1-Back,1,m,Fri Mar 28 2025 13:31:08 GMT-0500 (Central Daylight Time),250586.5,012_o_f_n_a.png,O,m,685,14,1,1716.2000000476837,248870.29999995232,7114,VNB,C,13
14,test,2,0.0,1-Back,1,z,Fri Mar 28 2025 13:31:08 GMT-0500 (Central Daylight Time),252435.89999997616,022_y_f_n_a.png,O,z,782,15,1,1817.3999999761581,250618.5,7114,VNB,C,14
15,test,2,1.0,1-Back,1,m,Fri Mar 28 2025 13:31:08 GMT-0500 (Central Daylight Time),254086.29999995232,014_m_m_h_a.png,O,m,598,16,1,1618.3999999761581,252467.89999997616,7114,VNB,C,15
15,test,2,0.0,1-Back,0,m,Fri Mar 28 2025 13:31:08 GMT-0500 (Central Daylight Time),255917.89999997616,012_o_f_d_a.png,O,z,782,17,1,1796.3999999761581,254121.5,7114,VNB,C,16
16,test,2,1.0,1-Back,1,z,Fri Mar 28 2025 13:31:08 GMT-0500 (Central Daylight Time),257784.0,015_o_m_d_a.png,O,z,819,18,1,1836.3999999761581,255947.60000002384,7114,VNB,C,17
0,test,3,1.0,1-Back,,,Fri Mar 28 2025 13:31:08 GMT-0500 (Central Daylight Time),257784.0,012_o_f_h_a.png,O,space,5195,1,1,1836.3999999761581,255947.60000002384,7114,VNB,C,0
1,test,3,0.0,1-Back,1,m,Fri Mar 28 2025 13:31:08 GMT-0500 (Central Daylight Time),266864.2999999523,019_m_f_d_a.png,O,m,644,2,1,1666.1999999284744,265198.10000002384,7114,VNB,C,1
2,test,3,1.0,1-Back,1,m,Fri Mar 28 2025 13:31:08 GMT-0500 (Central Daylight Time),268663.6999999285,014_m_m_n_a.png,O,m,761,3,1,1773.6999999284744,266890.0,7114,VNB,C,2
3,test,3,0.0,1-Back,1,z,Fri Mar 28 2025 13:31:08 GMT-0500 (Central Daylight Time),270479.7999999523,012_o_f_n_a.png,O,z,753,4,1,1774.6000000238419,268705.1999999285,7114,VNB,C,3
4,test,3,1.0,1-Back,1,m,Fri Mar 28 2025 13:31:08 GMT-0500 (Central Daylight Time),272162.6999999285,015_o_m_d_a.png,O,m,633,5,1,1658.5999999046326,270504.10000002384,7114,VNB,C,4
5,test,3,0.0,1-Back,1,m,Fri Mar 28 2025 13:31:08 GMT-0500 (Central Daylight Time),274195.60000002384,022_y_f_h_a.png,O,m,983,6,1,2005.7000000476837,272189.89999997616,7114,VNB,C,5
6,test,3,0.0,1-Back,1,z,Fri Mar 28 2025 13:31:08 GMT-0500 (Central Daylight Time),275778.2999999523,025_y_m_h_a.png,O,z,544,7,1,1553.7999999523163,274224.5,7114,VNB,C,6
7,test,3,0.0,1-Back,1,m,Fri Mar 28 2025 13:31:08 GMT-0500 (Central Daylight Time),277393.2999999523,019_m_f_n_a.png,O,m,560,8,1,1583.3999999761581,275809.89999997616,7114,VNB,C,7
8,test,3,0.0,1-Back,1,m,Fri Mar 28 2025 13:31:08 GMT-0500 (Central Daylight Time),279377.0,022_y_f_d_a.png,O,m,961,9,1,1977.8000000715256,277399.1999999285,7114,VNB,C,8
9,test,3,1.0,1-Back,1,m,Fri Mar 28 2025 13:31:08 GMT-0500 (Central Daylight Time),281192.89999997616,015_o_m_n_a.png,O,m,760,10,1,1785.6000000238419,279407.2999999523,7114,VNB,C,9
10,test,3,0.0,1-Back,1,m,Fri Mar 28 2025 13:31:08 GMT-0500 (Central Daylight Time),282893.5,014_m_m_h_a.png,O,m,665,11,1,1671.1000000238419,281222.39999997616,7114,VNB,C,10
11,test,3,0.0,1-Back,1,z,Fri Mar 28 2025 13:31:08 GMT-0500 (Central Daylight Time),284474.89999997616,019_m_f_h_a.png,O,z,516,12,1,1541.7000000476837,282933.1999999285,7114,VNB,C,11
12,test,3,1.0,1-Back,1,m,Fri Mar 28 2025 13:31:08 GMT-0500 (Central Daylight Time),286141.7999999523,012_o_f_d_a.png,O,m,631,13,1,1648.5,284493.2999999523,7114,VNB,C,12
13,test,3,0.0,1-Back,1,z,Fri Mar 28 2025 13:31:08 GMT-0500 (Central Daylight Time),288539.6999999285,014_m_m_d_a.png,O,z,1363,14,1,2369.7999999523163,286169.89999997616,7114,VNB,C,13
14,test,3,0.0,1-Back,1,m,Fri Mar 28 2025 13:31:08 GMT-0500 (Central Daylight Time),290306.6999999285,025_y_m_n_a.png,O,m,742,15,1,1762.1999999284744,288544.5,7114,VNB,C,14
15,test,3,1.0,1-Back,1,m,Fri Mar 28 2025 13:31:08 GMT-0500 (Central Daylight Time),292173.60000002384,015_o_m_h_a.png,O,m,815,16,1,1831.3000000715256,290342.2999999523,7114,VNB,C,15
16,test,3,0.0,1-Back,1,m,Fri Mar 28 2025 13:31:08 GMT-0500 (Central Daylight Time),293988.7999999523,025_y_m_d_a.png,O,m,774,17,1,1788.1999999284744,292200.60000002384,7114,VNB,C,16
17,test,3,1.0,1-Back,1,m,Fri Mar 28 2025 13:31:08 GMT-0500 (Central Daylight Time),296038.1999999285,022_y_f_n_a.png,O,m,1005,18,1,2018.8999999761581,294019.2999999523,7114,VNB,C,17
0,test,4,1.0,1-Back,,,Fri Mar 28 2025 13:31:08 GMT-0500 (Central Daylight Time),296038.1999999285,014_m_m_d_a.png,O,space,2165,1,1,2018.8999999761581,294019.2999999523,7114,VNB,C,0
0,test,4,0.0,1-Back,0,z,Fri Mar 28 2025 13:31:08 GMT-0500 (Central Daylight Time),302802.60000002384,015_o_m_d_a.png,O,m,1376,2,1,2384.600000023842,300418.0,7114,VNB,C,1
1,test,4,0.0,1-Back,1,m,Fri Mar 28 2025 13:31:08 GMT-0500 (Central Daylight Time),305102.0,025_y_m_h_a.png,O,m,1264,3,1,2275.8000000715256,302826.1999999285,7114,VNB,C,2
2,test,4,0.0,1-Back,1,m,Fri Mar 28 2025 13:31:08 GMT-0500 (Central Daylight Time),306968.1999999285,019_m_f_n_a.png,O,m,821,4,1,1837.8999999761581,305130.2999999523,7114,VNB,C,3
3,test,4,1.0,1-Back,1,m,Fri Mar 28 2025 13:31:08 GMT-0500 (Central Daylight Time),309183.89999997616,012_o_f_h_a.png,O,m,1179,5,1,2187.2999999523163,306996.60000002384,7114,VNB,C,4
4,test,4,0.0,1-Back,1,m,Fri Mar 28 2025 13:31:08 GMT-0500 (Central Daylight Time),311032.6999999285,014_m_m_n_a.png,O,m,810,6,1,1823.2999999523163,309209.39999997616,7114,VNB,C,5
5,test,4,0.0,1-Back,1,m,Fri Mar 28 2025 13:31:08 GMT-0500 (Central Daylight Time),313099.10000002384,025_y_m_d_a.png,O,m,1042,7,1,2054.100000023842,311045.0,7114,VNB,C,6
6,test,4,1.0,1-Back,1,z,Fri Mar 28 2025 13:31:08 GMT-0500 (Central Daylight Time),314731.89999997616,022_y_f_d_a.png,O,z,573,8,1,1600.6000000238419,313131.2999999523,7114,VNB,C,7
7,test,4,0.0,1-Back,1,m,Fri Mar 28 2025 13:31:08 GMT-0500 (Central Daylight Time),316431.39999997616,019_m_f_h_a.png,O,m,639,9,1,1671.7000000476837,314759.6999999285,7114,VNB,C,8
8,test,4,0.0,1-Back,1,z,Fri Mar 28 2025 13:31:08 GMT-0500 (Central Daylight Time),318081.10000002384,015_o_m_h_a.png,O,z,586,10,1,1611.9000000953674,316469.1999999285,7114,VNB,C,9
9,test,4,1.0,1-Back,1,m,Fri Mar 28 2025 13:31:08 GMT-0500 (Central Daylight Time),319913.7999999523,012_o_f_n_a.png,O,m,768,11,1,1801.1000000238419,318112.6999999285,7114,VNB,C,10
10,test,4,0.0,1-Back,1,m,Fri Mar 28 2025 13:31:08 GMT-0500 (Central Daylight Time),321563.10000002384,019_m_f_d_a.png,O,m,599,12,1,1624.1000000238419,319939.0,7114,VNB,C,11
11,test,4,0.0,1-Back,1,m,Fri Mar 28 2025 13:31:08 GMT-0500 (Central Daylight Time),323545.5,022_y_f_n_a.png,O,m,936,13,1,1953.2000000476837,321592.2999999523,7114,VNB,C,12
12,test,4,0.0,1-Back,1,m,Fri Mar 28 2025 13:31:08 GMT-0500 (Central Daylight Time),325294.7999999523,012_o_f_d_a.png,O,m,704,14,1,1719.1000000238419,323575.6999999285,7114,VNB,C,13
13,test,4,0.0,1-Back,1,m,Fri Mar 28 2025 13:31:08 GMT-0500 (Central Daylight Time),327128.0,022_y_f_h_a.png,O,m,787,15,1,1818.8000000715256,325309.1999999285,7114,VNB,C,14
14,test,4,1.0,1-Back,1,z,Fri Mar 28 2025 13:31:08 GMT-0500 (Central Daylight Time),328644.10000002384,014_m_m_h_a.png,O,z,475,16,1,1489.5,327154.60000002384,7114,VNB,C,15
15,test,4,0.0,1-Back,1,m,Fri Mar 28 2025 13:31:08 GMT-0500 (Central Daylight Time),330278.0,015_o_m_n_a.png,O,m,598,17,1,1604.6000000238419,328673.39999997616,7114,VNB,C,16
16,test,4,1.0,1-Back,1,z,Fri Mar 28 2025 13:31:08 GMT-0500 (Central Daylight Time),331909.7999999523,025_y_m_n_a.png,O,z,597,18,1,1608.5,330301.2999999523,7114,VNB,C,17
0,test,5,1.0,1-Back,,,Fri Mar 28 2025 13:31:08 GMT-0500 (Central Daylight Time),331909.7999999523,015_o_m_n_a.png,O,space,1436,1,1,1608.5,330301.2999999523,7114,VNB,C,0
1,test,5,1.0,1-Back,1,m,Fri Mar 28 2025 13:31:08 GMT-0500 (Central Daylight Time),337241.2999999523,012_o_f_h_a.png,O,m,820,2,1,1839.7999999523163,335401.5,7114,VNB,C,1
2,test,5,0.0,1-Back,1,m,Fri Mar 28 2025 13:31:08 GMT-0500 (Central Daylight Time),339556.39999997616,025_y_m_d_a.png,O,m,1264,3,1,2284.7000000476837,337271.6999999285,7114,VNB,C,2
3,test,5,0.0,1-Back,1,z,Fri Mar 28 2025 13:31:08 GMT-0500 (Central Daylight Time),341156.6999999285,015_o_m_d_a.png,O,z,574,4,1,1594.6999999284744,339562.0,7114,VNB,C,3
4,test,5,0.0,1-Back,1,m,Fri Mar 28 2025 13:31:08 GMT-0500 (Central Daylight Time),342906.10000002384,019_m_f_h_a.png,O,m,710,5,1,1719.4000000953674,341186.6999999285,7114,VNB,C,4
5,test,5,0.0,1-Back,1,m,Fri Mar 28 2025 13:31:08 GMT-0500 (Central Daylight Time),344588.89999997616,022_y_f_n_a.png,O,m,640,6,1,1655.7000000476837,342933.1999999285,7114,VNB,C,5
6,test,5,1.0,1-Back,1,z,Fri Mar 28 2025 13:31:08 GMT-0500 (Central Daylight Time),346271.60000002384,012_o_f_n_a.png,O,z,639,7,1,1659.1000000238419,344612.5,7114,VNB,C,6
7,test,5,0.0,1-Back,1,m,Fri Mar 28 2025 13:31:08 GMT-0500 (Central Daylight Time),348053.6999999285,019_m_f_d_a.png,O,m,737,8,1,1756.6999999284744,346297.0,7114,VNB,C,7
8,test,5,0.0,1-Back,1,m,Fri Mar 28 2025 13:31:08 GMT-0500 (Central Daylight Time),350136.2999999523,025_y_m_h_a.png,O,m,1051,9,1,2077.5,348058.7999999523,7114,VNB,C,8
9,test,5,0.0,1-Back,1,m,Fri Mar 28 2025 13:31:08 GMT-0500 (Central Daylight Time),352536.2999999523,022_y_f_d_a.png,O,m,1378,10,1,2395.2999999523163,350141.0,7114,VNB,C,9
10,test,5,0.0,1-Back,1,m,Fri Mar 28 2025 13:31:08 GMT-0500 (Central Daylight Time),354335.60000002384,014_m_m_n_a.png,O,m,762,11,1,1776.6000000238419,352559.0,7114,VNB,C,10
11,test,5,1.0,1-Back,1,z,Fri Mar 28 2025 13:31:08 GMT-0500 (Central Daylight Time),356018.5,019_m_f_n_a.png,O,z,634,12,1,1657.1000000238419,354361.39999997616,7114,VNB,C,11
12,test,5,0.0,1-Back,1,m,Fri Mar 28 2025 13:31:08 GMT-0500 (Central Daylight Time),357984.5,015_o_m_h_a.png,O,m,920,13,1,1943.3000000715256,356041.1999999285,7114,VNB,C,12
13,test,5,0.0,1-Back,1,z,Fri Mar 28 2025 13:31:08 GMT-0500 (Central Daylight Time),359584.0,014_m_m_h_a.png,O,z,546,14,1,1569.8000000715256,358014.1999999285,7114,VNB,C,13
14,test,5,1.0,1-Back,1,m,Fri Mar 28 2025 13:31:08 GMT-0500 (Central Daylight Time),361383.39999997616,012_o_f_d_a.png,O,m,754,15,1,1775.5,359607.89999997616,7114,VNB,C,14
15,test,5,0.0,1-Back,1,m,Fri Mar 28 2025 13:31:08 GMT-0500 (Central Daylight Time),363132.7999999523,025_y_m_n_a.png,O,m,707,16,1,1723.6999999284744,361409.10000002384,7114,VNB,C,15
16,test,5,0.0,1-Back,1,m,Fri Mar 28 2025 13:31:08 GMT-0500 (Central Daylight Time),364832.39999997616,022_y_f_h_a.png,O,m,637,17,1,1668.5,363163.89999997616,7114,VNB,C,16
17,test,5,0.0,1-Back,1,m,Fri Mar 28 2025 13:31:08 GMT-0500 (Central Daylight Time),366848.5,014_m_m_d_a.png,O,m,970,18,1,1988.7000000476837,364859.7999999523,7114,VNB,C,17
0,prac,1,0.0,2-Back,,,Fri Mar 28 2025 13:31:08 GMT-0500 (Central Daylight Time),366848.5,019_m_f_n_a.png,O,space,11171,1,1,1988.7000000476837,364859.7999999523,7114,VNB,C,0
0,prac,1,0.0,2-Back,,,Fri Mar 28 2025 13:31:08 GMT-0500 (Central Daylight Time),366848.5,012_o_f_h_a.png,O,space,11171,2,1,1988.7000000476837,364859.7999999523,7114,VNB,C,0
1,prac,1,0.0,2-Back,1,m,Fri Mar 28 2025 13:31:08 GMT-0500 (Central Daylight Time),472946.10000002384,015_o_m_d_a.png,O,m,1035,3,1,2003.3000000715256,470942.7999999523,7114,VNB,C,1
2,prac,1,1.0,2-Back,1,z,Fri Mar 28 2025 13:31:08 GMT-0500 (Central Daylight Time),474612.89999997616,014_m_m_h_a.png,O,z,740,4,1,1655.7999999523163,472957.10000002384,7114,VNB,C,2
3,prac,1,0.0,2-Back,1,m,Fri Mar 28 2025 13:31:08 GMT-0500 (Central Daylight Time),476595.5,022_y_f_n_a.png,O,m,967,5,1,1938.5,474657.0,7114,VNB,C,3
3,prac,1,1.0,2-Back,0,z,Fri Mar 28 2025 13:31:08 GMT-0500 (Central Daylight Time),478710.5,015_o_m_h_a.png,O,m,1119,6,1,2072.3000000715256,476638.1999999285,7114,VNB,C,4
4,prac,1,1.0,2-Back,1,z,Fri Mar 28 2025 13:31:08 GMT-0500 (Central Daylight Time),481176.5,025_y_m_n_a.png,O,z,1543,7,1,2458.5,478718.0,7114,VNB,C,5
5,prac,1,0.0,2-Back,1,m,Fri Mar 28 2025 13:31:08 GMT-0500 (Central Daylight Time),483010.39999997616,019_m_f_d_a.png,O,m,873,8,1,1825.2000000476837,481185.1999999285,7114,VNB,C,6
5,prac,1,0.0,2-Back,0,m,Fri Mar 28 2025 13:31:08 GMT-0500 (Central Daylight Time),485010.39999997616,012_o_f_d_a.png,O,z,1035,9,1,1972.0,483038.39999997616,7114,VNB,C,7
6,prac,1,0.0,2-Back,1,m,Fri Mar 28 2025 13:31:08 GMT-0500 (Central Daylight Time),487758.5,014_m_m_h_a.png,O,m,1808,10,1,2714.899999976158,485043.60000002384,7114,VNB,C,8
6,prac,1,1.0,2-Back,0,z,Fri Mar 28 2025 13:31:08 GMT-0500 (Central Daylight Time),490157.7999999523,022_y_f_d_a.png,O,m,1419,11,1,2363.399999976158,487794.39999997616,7114,VNB,C,9
7,prac,1,0.0,2-Back,1,m,Fri Mar 28 2025 13:31:08 GMT-0500 (Central Daylight Time),492140.5,015_o_m_n_a.png,O,m,996,12,1,1945.1000000238419,490195.39999997616,7114,VNB,C,10
0,prac,2,0.0,2-Back,,,Fri Mar 28 2025 13:31:08 GMT-0500 (Central Daylight Time),492140.5,019_m_f_n_a.png,O,a,8376,1,1,1945.1000000238419,490195.39999997616,7114,VNB,C,0
0,prac,2,0.0,2-Back,,,Fri Mar 28 2025 13:31:08 GMT-0500 (Central Daylight Time),492140.5,012_o_f_h_a.png,O,a,8376,2,1,1945.1000000238419,490195.39999997616,7114,VNB,C,0
1,prac,2,0.0,2-Back,1,m,Fri Mar 28 2025 13:31:08 GMT-0500 (Central Daylight Time),508268.5,015_o_m_d_a.png,O,m,1365,3,1,2291.899999976158,505976.60000002384,7114,VNB,C,1
2,prac,2,1.0,2-Back,1,z,Fri Mar 28 2025 13:31:08 GMT-0500 (Central Daylight Time),510267.60000002384,014_m_m_h_a.png,O,z,1075,4,1,1969.8000000715256,508297.7999999523,7114,VNB,C,2
3,prac,2,0.0,2-Back,1,m,Fri Mar 28 2025 13:31:08 GMT-0500 (Central Daylight Time),512417.1999999285,022_y_f_n_a.png,O,m,1188,5,1,2110.0,510307.1999999285,7114,VNB,C,3
4,prac,2,1.0,2-Back,1,z,Fri Mar 28 2025 13:31:08 GMT-0500 (Central Daylight Time),514799.60000002384,015_o_m_h_a.png,O,z,1414,6,1,2343.5,512456.10000002384,7114,VNB,C,4
4,prac,2,1.0,2-Back,0,z,Fri Mar 28 2025 13:31:08 GMT-0500 (Central Daylight Time),516515.6999999285,025_y_m_n_a.png,O,m,784,7,1,1683.8999999761581,514831.7999999523,7114,VNB,C,5
5,prac,2,0.0,2-Back,1,m,Fri Mar 28 2025 13:31:08 GMT-0500 (Central Daylight Time),518398.39999997616,019_m_f_d_a.png,O,m,933,8,1,1856.0,516542.39999997616,7114,VNB,C,6
5,prac,2,0.0,2-Back,0,m,Fri Mar 28 2025 13:31:08 GMT-0500 (Central Daylight Time),521363.39999997616,012_o_f_d_a.png,O,None,2016,9,1,2929.7000000476837,518433.6999999285,7114,VNB,C,7
6,prac,2,0.0,2-Back,1,m,Fri Mar 28 2025 13:31:08 GMT-0500 (Central Daylight Time),523663.5,014_m_m_h_a.png,O,m,1395,10,1,2291.5,521372.0,7114,VNB,C,8
7,prac,2,1.0,2-Back,1,z,Fri Mar 28 2025 13:31:08 GMT-0500 (Central Daylight Time),525812.6999999285,022_y_f_d_a.png,O,z,1191,11,1,2117.7999999523163,523694.89999997616,7114,VNB,C,9
8,prac,2,0.0,2-Back,1,m,Fri Mar 28 2025 13:31:08 GMT-0500 (Central Daylight Time),528078.6999999285,015_o_m_n_a.png,O,m,1306,12,1,2235.0,525843.6999999285,7114,VNB,C,10
0,test,1,0.0,2-Back,,,Fri Mar 28 2025 13:31:08 GMT-0500 (Central Daylight Time),528078.6999999285,025_y_m_h_a.png,O,space,10127,1,1,2235.0,525843.6999999285,7114,VNB,C,0
0,test,1,0.0,2-Back,,,Fri Mar 28 2025 13:31:08 GMT-0500 (Central Daylight Time),528078.6999999285,012_o_f_n_a.png,O,space,10127,2,1,2235.0,525843.6999999285,7114,VNB,C,0
1,test,1,0.0,2-Back,1,z,Fri Mar 28 2025 13:31:08 GMT-0500 (Central Daylight Time),552804.0,015_o_m_h_a.png,O,z,1217,3,1,2247.600000023842,550556.3999999762,7114,VNB,C,1
2,test,1,0.0,2-Back,1,m,Fri Mar 28 2025 13:31:08 GMT-0500 (Central Daylight Time),554819.7999999523,019_m_f_d_a.png,O,m,949,4,1,1987.1999999284744,552832.6000000238,7114,VNB,C,2
2,test,1,1.0,2-Back,0,m,Fri Mar 28 2025 13:31:08 GMT-0500 (Central Daylight Time),556935.3999999762,025_y_m_n_a.png,O,z,1070,5,1,2089.100000023842,554846.2999999523,7114,VNB,C,3
3,test,1,0.0,2-Back,1,z,Fri Mar 28 2025 13:31:08 GMT-0500 (Central Daylight Time),558885.0,022_y_f_d_a.png,O,z,901,6,1,1935.3999999761581,556949.6000000238,7114,VNB,C,4
4,test,1,0.0,2-Back,1,m,Fri Mar 28 2025 13:31:08 GMT-0500 (Central Daylight Time),561084.5,014_m_m_h_a.png,O,m,1133,7,1,2166.100000023842,558918.3999999762,7114,VNB,C,5
4,test,1,1.0,2-Back,0,m,Fri Mar 28 2025 13:31:08 GMT-0500 (Central Daylight Time),563817.0,022_y_f_n_a.png,O,z,1694,8,1,2702.7000000476837,561114.2999999523,7114,VNB,C,6
5,test,1,0.0,2-Back,1,z,Fri Mar 28 2025 13:31:08 GMT-0500 (Central Daylight Time),566499.1000000238,012_o_f_h_a.png,O,z,1641,9,1,2651.4000000953674,563847.6999999285,7114,VNB,C,7
5,test,1,0.0,2-Back,0,m,Fri Mar 28 2025 13:31:08 GMT-0500 (Central Daylight Time),569248.5,015_o_m_d_a.png,O,z,1703,10,1,2725.399999976158,566523.1000000238,7114,VNB,C,8
6,test,1,1.0,2-Back,1,m,Fri Mar 28 2025 13:31:08 GMT-0500 (Central Daylight Time),571781.0,014_m_m_d_a.png,O,m,1490,11,1,2503.8000000715256,569277.1999999285,7114,VNB,C,9
7,test,1,0.0,2-Back,1,m,Fri Mar 28 2025 13:31:08 GMT-0500 (Central Daylight Time),574363.5,019_m_f_n_a.png,O,m,1533,12,1,2557.7000000476837,571805.7999999523,7114,VNB,C,10
8,test,1,0.0,2-Back,1,m,Fri Mar 28 2025 13:31:08 GMT-0500 (Central Daylight Time),576912.5,022_y_f_h_a.png,O,m,1495,13,1,2514.5,574398.0,7114,VNB,C,11
9,test,1,0.0,2-Back,1,z,Fri Mar 28 2025 13:31:08 GMT-0500 (Central Daylight Time),578512.0,014_m_m_n_a.png,O,z,563,14,1,1569.5,576942.5,7114,VNB,C,12
10,test,1,0.0,2-Back,1,m,Fri Mar 28 2025 13:31:08 GMT-0500 (Central Daylight Time),580911.1000000238,025_y_m_d_a.png,O,m,1362,15,1,2368.7000000476837,578542.3999999762,7114,VNB,C,13
11,test,1,1.0,2-Back,1,m,Fri Mar 28 2025 13:31:08 GMT-0500 (Central Daylight Time),583427.1999999285,019_m_f_h_a.png,O,m,1466,16,1,2487.6999999284744,580939.5,7114,VNB,C,14
12,test,1,0.0,2-Back,1,z,Fri Mar 28 2025 13:31:08 GMT-0500 (Central Daylight Time),585693.6999999285,012_o_f_d_a.png,O,z,1215,17,1,2231.399999976158,583462.2999999523,7114,VNB,C,15
13,test,1,0.0,2-Back,1,m,Fri Mar 28 2025 13:31:08 GMT-0500 (Central Daylight Time),588658.6000000238,015_o_m_n_a.png,O,m,1926,18,1,2939.100000023842,585719.5,7114,VNB,C,16
0,test,2,0.0,2-Back,,,Fri Mar 28 2025 13:31:08 GMT-0500 (Central Daylight Time),588658.6000000238,014_m_m_h_a.png,O,space,1967,1,1,2939.100000023842,585719.5,7114,VNB,C,0
0,test,2,0.0,2-Back,,,Fri Mar 28 2025 13:31:08 GMT-0500 (Central Daylight Time),588658.6000000238,022_y_f_n_a.png,O,space,1967,2,1,2939.100000023842,585719.5,7114,VNB,C,0
1,test,2,1.0,2-Back,1,z,Fri Mar 28 2025 13:31:08 GMT-0500 (Central Daylight Time),598081.6000000238,012_o_f_h_a.png,O,z,1023,3,1,2042.6000000238419,596039.0,7114,VNB,C,1
2,test,2,0.0,2-Back,1,m,Fri Mar 28 2025 13:31:08 GMT-0500 (Central Daylight Time),600121.5,015_o_m_d_a.png,O,m,1010,4,1,2031.8000000715256,598089.6999999285,7114,VNB,C,2
2,test,2,0.0,2-Back,0,m,Fri Mar 28 2025 13:31:08 GMT-0500 (Central Daylight Time),602903.8999999762,019_m_f_d_a.png,O,z,1745,5,1,2753.2999999523163,600150.6000000238,7114,VNB,C,3
2,test,2,0.0,2-Back,0,m,Fri Mar 28 2025 13:31:08 GMT-0500 (Central Daylight Time),605036.6000000238,025_y_m_h_a.png,O,z,1091,6,1,2114.600000023842,602922.0,7114,VNB,C,4
3,test,2,0.0,2-Back,1,m,Fri Mar 28 2025 13:31:08 GMT-0500 (Central Daylight Time),607585.6000000238,012_o_f_n_a.png,O,m,1485,7,1,2517.5,605068.1000000238,7114,VNB,C,5
4,test,2,1.0,2-Back,1,z,Fri Mar 28 2025 13:31:08 GMT-0500 (Central Daylight Time),609918.1999999285,015_o_m_h_a.png,O,z,1272,8,1,2300.7999999523163,607617.3999999762,7114,VNB,C,6
5,test,2,0.0,2-Back,1,m,Fri Mar 28 2025 13:31:08 GMT-0500 (Central Daylight Time),612217.2999999523,022_y_f_d_a.png,O,m,1260,9,1,2270.2999999523163,609947.0,7114,VNB,C,7
6,test,2,0.0,2-Back,1,m,Fri Mar 28 2025 13:31:08 GMT-0500 (Central Daylight Time),614699.8999999762,025_y_m_d_a.png,O,m,1441,10,1,2460.399999976158,612239.5,7114,VNB,C,8
7,test,2,0.0,2-Back,1,m,Fri Mar 28 2025 13:31:08 GMT-0500 (Central Daylight Time),616765.8999999762,014_m_m_n_a.png,O,m,1023,11,1,2037.2999999523163,614728.6000000238,7114,VNB,C,9
7,test,2,0.0,2-Back,0,m,Fri Mar 28 2025 13:31:08 GMT-0500 (Central Daylight Time),619431.7999999523,019_m_f_h_a.png,O,z,1612,12,1,2634.899999976158,616796.8999999762,7114,VNB,C,10
7,test,2,1.0,2-Back,0,z,Fri Mar 28 2025 13:31:08 GMT-0500 (Central Daylight Time),621498.1000000238,015_o_m_n_a.png,O,m,1015,13,1,2037.8000000715256,619460.2999999523,7114,VNB,C,11
8,test,2,0.0,2-Back,1,m,Fri Mar 28 2025 13:31:08 GMT-0500 (Central Daylight Time),623963.6999999285,012_o_f_d_a.png,O,m,1408,14,1,2432.7999999523163,621530.8999999762,7114,VNB,C,12
9,test,2,0.0,2-Back,1,m,Fri Mar 28 2025 13:31:08 GMT-0500 (Central Daylight Time),625763.5,022_y_f_h_a.png,O,m,750,15,1,1773.8999999761581,623989.6000000238,7114,VNB,C,13
10,test,2,0.0,2-Back,1,z,Fri Mar 28 2025 13:31:08 GMT-0500 (Central Daylight Time),627545.3999999762,014_m_m_d_a.png,O,z,718,16,1,1748.7000000476837,625796.6999999285,7114,VNB,C,14
11,test,2,0.0,2-Back,1,m,Fri Mar 28 2025 13:31:08 GMT-0500 (Central Daylight Time),629778.5,025_y_m_n_a.png,O,m,1209,17,1,2220.600000023842,627557.8999999762,7114,VNB,C,15
12,test,2,1.0,2-Back,1,m,Fri Mar 28 2025 13:31:08 GMT-0500 (Central Daylight Time),632377.6000000238,019_m_f_n_a.png,O,m,1544,18,1,2568.3000000715256,629809.2999999523,7114,VNB,C,16
0,test,3,1.0,2-Back,,,Fri Mar 28 2025 13:31:08 GMT-0500 (Central Daylight Time),632377.6000000238,015_o_m_n_a.png,O,space,3225,1,1,2568.3000000715256,629809.2999999523,7114,VNB,C,0
0,test,3,1.0,2-Back,,,Fri Mar 28 2025 13:31:08 GMT-0500 (Central Daylight Time),632377.6000000238,012_o_f_d_a.png,O,space,3225,2,1,2568.3000000715256,629809.2999999523,7114,VNB,C,0
1,test,3,0.0,2-Back,1,m,Fri Mar 28 2025 13:31:08 GMT-0500 (Central Daylight Time),642857.5,022_y_f_h_a.png,O,m,846,3,1,1854.0,641003.5,7114,VNB,C,1
2,test,3,0.0,2-Back,1,z,Fri Mar 28 2025 13:31:08 GMT-0500 (Central Daylight Time),644940.3999999762,019_m_f_d_a.png,O,z,1024,4,1,2046.7000000476837,642893.6999999285,7114,VNB,C,2
3,test,3,1.0,2-Back,1,m,Fri Mar 28 2025 13:31:08 GMT-0500 (Central Daylight Time),647105.8999999762,025_y_m_n_a.png,O,m,1126,5,1,2136.399999976158,644969.5,7114,VNB,C,3
3,test,3,0.0,2-Back,0,m,Fri Mar 28 2025 13:31:08 GMT-0500 (Central Daylight Time),649589.6999999285,015_o_m_h_a.png,O,z,1448,6,1,2455.0,647134.6999999285,7114,VNB,C,4
4,test,3,0.0,2-Back,1,z,Fri Mar 28 2025 13:31:08 GMT-0500 (Central Daylight Time),652321.1999999285,022_y_f_n_a.png,O,z,1695,7,1,2711.5,649609.6999999285,7114,VNB,C,5
5,test,3,1.0,2-Back,1,m,Fri Mar 28 2025 13:31:08 GMT-0500 (Central Daylight Time),654303.5,014_m_m_d_a.png,O,m,929,8,1,1951.0,652352.5,7114,VNB,C,6
6,test,3,0.0,2-Back,1,m,Fri Mar 28 2025 13:31:08 GMT-0500 (Central Daylight Time),656753.0,025_y_m_d_a.png,O,m,1402,9,1,2421.3000000715256,654331.6999999285,7114,VNB,C,7
7,test,3,0.0,2-Back,1,m,Fri Mar 28 2025 13:31:08 GMT-0500 (Central Daylight Time),659118.7999999523,012_o_f_h_a.png,O,m,1306,10,1,2331.399999976158,656787.3999999762,7114,VNB,C,8
7,test,3,1.0,2-Back,0,m,Fri Mar 28 2025 13:31:08 GMT-0500 (Central Daylight Time),662184.6999999285,019_m_f_n_a.png,O,None,2014,11,1,3033.0,659151.6999999285,7114,VNB,C,9
8,test,3,1.0,2-Back,1,z,Fri Mar 28 2025 13:31:08 GMT-0500 (Central Daylight Time),663967.1999999285,014_m_m_h_a.png,O,z,722,12,1,1749.3999999761581,662217.7999999523,7114,VNB,C,10
9,test,3,0.0,2-Back,1,m,Fri Mar 28 2025 13:31:08 GMT-0500 (Central Daylight Time),665899.7999999523,022_y_f_d_a.png,O,m,891,13,1,1904.6999999284744,663995.1000000238,7114,VNB,C,11
9,test,3,0.0,2-Back,0,m,Fri Mar 28 2025 13:31:08 GMT-0500 (Central Daylight Time),668065.8999999762,012_o_f_n_a.png,O,z,1126,14,1,2142.2000000476837,665923.6999999285,7114,VNB,C,12
9,test,3,0.0,2-Back,0,z,Fri Mar 28 2025 13:31:08 GMT-0500 (Central Daylight Time),670765.6000000238,015_o_m_d_a.png,O,m,1648,15,1,2666.2000000476837,668099.3999999762,7114,VNB,C,13
10,test,3,1.0,2-Back,1,m,Fri Mar 28 2025 13:31:08 GMT-0500 (Central Daylight Time),673180.1999999285,019_m_f_h_a.png,O,m,1372,16,1,2386.6999999284744,670793.5,7114,VNB,C,14
10,test,3,0.0,2-Back,0,m,Fri Mar 28 2025 13:31:08 GMT-0500 (Central Daylight Time),675030.6999999285,014_m_m_n_a.png,O,z,821,17,1,1838.3999999761581,673192.2999999523,7114,VNB,C,15
11,test,3,0.0,2-Back,1,z,Fri Mar 28 2025 13:31:08 GMT-0500 (Central Daylight Time),677712.5,025_y_m_h_a.png,O,z,1653,18,1,2671.100000023842,675041.3999999762,7114,VNB,C,16
0,test,4,0.0,2-Back,,,Fri Mar 28 2025 13:31:08 GMT-0500 (Central Daylight Time),677712.5,019_m_f_n_a.png,O,space,2402,1,1,2671.100000023842,675041.3999999762,7114,VNB,C,0
0,test,4,0.0,2-Back,,,Fri Mar 28 2025 13:31:08 GMT-0500 (Central Daylight Time),677712.5,015_o_m_n_a.png,O,space,2402,2,1,2671.100000023842,675041.3999999762,7114,VNB,C,0
1,test,4,1.0,2-Back,1,m,Fri Mar 28 2025 13:31:08 GMT-0500 (Central Daylight Time),688392.6999999285,025_y_m_h_a.png,O,m,1786,3,1,2818.1999999284744,685574.5,7114,VNB,C,1
2,test,4,1.0,2-Back,1,m,Fri Mar 28 2025 13:31:08 GMT-0500 (Central Daylight Time),690858.5,012_o_f_d_a.png,O,m,1408,4,1,2432.100000023842,688426.3999999762,7114,VNB,C,2
3,test,4,0.0,2-Back,1,z,Fri Mar 28 2025 13:31:08 GMT-0500 (Central Daylight Time),692807.3999999762,015_o_m_h_a.png,O,z,914,5,1,1921.1000000238419,690886.2999999523,7114,VNB,C,3
4,test,4,0.0,2-Back,1,m,Fri Mar 28 2025 13:31:08 GMT-0500 (Central Daylight Time),694689.7999999523,014_m_m_n_a.png,O,m,820,6,1,1851.6000000238419,692838.1999999285,7114,VNB,C,4
5,test,4,0.0,2-Back,1,m,Fri Mar 28 2025 13:31:08 GMT-0500 (Central Daylight Time),697306.1999999285,019_m_f_d_a.png,O,m,1593,7,1,2606.0,694700.1999999285,7114,VNB,C,5
6,test,4,0.0,2-Back,1,z,Fri Mar 28 2025 13:31:08 GMT-0500 (Central Daylight Time),699738.6999999285,022_y_f_n_a.png,O,z,1368,8,1,2397.5,697341.1999999285,7114,VNB,C,6
7,test,4,1.0,2-Back,1,m,Fri Mar 28 2025 13:31:08 GMT-0500 (Central Daylight Time),702537.7999999523,012_o_f_h_a.png,O,m,1760,9,1,2771.0,699766.7999999523,7114,VNB,C,7
7,test,4,0.0,2-Back,0,m,Fri Mar 28 2025 13:31:08 GMT-0500 (Central Daylight Time),704736.3999999762,014_m_m_h_a.png,O,z,1160,10,1,2177.7999999523163,702558.6000000238,7114,VNB,C,8
8,test,4,0.0,2-Back,1,m,Fri Mar 28 2025 13:31:08 GMT-0500 (Central Daylight Time),707169.7999999523,022_y_f_d_a.png,O,m,1400,11,1,2423.2999999523163,704746.5,7114,VNB,C,9
9,test,4,0.0,2-Back,1,m,Fri Mar 28 2025 13:31:08 GMT-0500 (Central Daylight Time),709135.6999999285,025_y_m_n_a.png,O,m,929,12,1,1942.0,707193.6999999285,7114,VNB,C,10
10,test,4,0.0,2-Back,1,z,Fri Mar 28 2025 13:31:08 GMT-0500 (Central Daylight Time),711417.6000000238,015_o_m_d_a.png,O,z,1243,13,1,2258.100000023842,709159.5,7114,VNB,C,11
11,test,4,1.0,2-Back,1,m,Fri Mar 28 2025 13:31:08 GMT-0500 (Central Daylight Time),713800.6999999285,019_m_f_h_a.png,O,m,1344,14,1,2366.399999976158,711434.2999999523,7114,VNB,C,12
12,test,4,1.0,2-Back,1,m,Fri Mar 28 2025 13:31:08 GMT-0500 (Central Daylight Time),716150.1000000238,022_y_f_h_a.png,O,m,1301,15,1,2325.8000000715256,713824.2999999523,7114,VNB,C,13
12,test,4,0.0,2-Back,0,m,Fri Mar 28 2025 13:31:08 GMT-0500 (Central Daylight Time),718416.0,012_o_f_n_a.png,O,z,1228,16,1,2236.399999976158,716179.6000000238,7114,VNB,C,14
13,test,4,0.0,2-Back,1,m,Fri Mar 28 2025 13:31:08 GMT-0500 (Central Daylight Time),720915.1999999285,025_y_m_d_a.png,O,m,1458,17,1,2473.899999976158,718441.2999999523,7114,VNB,C,15
14,test,4,1.0,2-Back,1,m,Fri Mar 28 2025 13:31:08 GMT-0500 (Central Daylight Time),723031.1999999285,014_m_m_d_a.png,O,m,1071,18,1,2087.5999999046326,720943.6000000238,7114,VNB,C,16
0,test,5,1.0,2-Back,,,Fri Mar 28 2025 13:31:08 GMT-0500 (Central Daylight Time),723031.1999999285,022_y_f_d_a.png,O,space,3684,1,1,2087.5999999046326,720943.6000000238,7114,VNB,C,0
0,test,5,1.0,2-Back,,,Fri Mar 28 2025 13:31:08 GMT-0500 (Central Daylight Time),723031.1999999285,012_o_f_h_a.png,O,space,3684,2,1,2087.5999999046326,720943.6000000238,7114,VNB,C,0
1,test,5,1.0,2-Back,1,z,Fri Mar 28 2025 13:31:08 GMT-0500 (Central Daylight Time),733961.1000000238,015_o_m_d_a.png,O,z,786,3,1,1808.3000000715256,732152.7999999523,7114,VNB,C,1
2,test,5,1.0,2-Back,1,m,Fri Mar 28 2025 13:31:08 GMT-0500 (Central Daylight Time),735893.6999999285,019_m_f_n_a.png,O,m,881,4,1,1900.0999999046326,733993.6000000238,7114,VNB,C,2
2,test,5,0.0,2-Back,0,m,Fri Mar 28 2025 13:31:08 GMT-0500 (Central Daylight Time),738226.2999999523,014_m_m_h_a.png,O,z,1266,5,1,2301.2999999523163,735925.0,7114,VNB,C,3
3,test,5,0.0,2-Back,1,z,Fri Mar 28 2025 13:31:08 GMT-0500 (Central Daylight Time),741075.2999999523,022_y_f_n_a.png,O,z,1793,6,1,2806.100000023842,738269.1999999285,7114,VNB,C,4
4,test,5,0.0,2-Back,1,m,Fri Mar 28 2025 13:31:08 GMT-0500 (Central Daylight Time),743674.5,012_o_f_d_a.png,O,m,1534,7,1,2557.2000000476837,741117.2999999523,7114,VNB,C,5
5,test,5,0.0,2-Back,1,m,Fri Mar 28 2025 13:31:08 GMT-0500 (Central Daylight Time),745690.1999999285,015_o_m_h_a.png,O,m,968,8,1,1992.1999999284744,743698.0,7114,VNB,C,6
6,test,5,1.0,2-Back,1,z,Fri Mar 28 2025 13:31:08 GMT-0500 (Central Daylight Time),747773.7999999523,019_m_f_d_a.png,O,z,1032,9,1,2053.1999999284744,745720.6000000238,7114,VNB,C,7
7,test,5,0.0,2-Back,1,m,Fri Mar 28 2025 13:31:08 GMT-0500 (Central Daylight Time),749689.2999999523,025_y_m_n_a.png,O,m,853,10,1,1882.1000000238419,747807.1999999285,7114,VNB,C,8
8,test,5,0.0,2-Back,1,m,Fri Mar 28 2025 13:31:08 GMT-0500 (Central Daylight Time),752388.2999999523,014_m_m_n_a.png,O,m,1632,11,1,2665.7999999523163,749722.5,7114,VNB,C,9
9,test,5,0.0,2-Back,1,m,Fri Mar 28 2025 13:31:08 GMT-0500 (Central Daylight Time),754937.2999999523,022_y_f_h_a.png,O,m,1502,12,1,2519.1999999284744,752418.1000000238,7114,VNB,C,10
10,test,5,0.0,2-Back,1,m,Fri Mar 28 2025 13:31:08 GMT-0500 (Central Daylight Time),757503.0,025_y_m_d_a.png,O,m,1512,13,1,2534.5,754968.5,7114,VNB,C,11
11,test,5,1.0,2-Back,1,z,Fri Mar 28 2025 13:31:08 GMT-0500 (Central Daylight Time),760285.7999999523,019_m_f_h_a.png,O,z,1747,14,1,2756.399999976158,757529.3999999762,7114,VNB,C,12
12,test,5,0.0,2-Back,1,m,Fri Mar 28 2025 13:31:08 GMT-0500 (Central Daylight Time),762068.5,015_o_m_n_a.png,O,m,733,15,1,1752.5,760316.0,7114,VNB,C,13
13,test,5,0.0,2-Back,1,m,Fri Mar 28 2025 13:31:08 GMT-0500 (Central Daylight Time),764301.7999999523,014_m_m_d_a.png,O,m,1198,16,1,2208.5,762093.2999999523,7114,VNB,C,14
13,test,5,0.0,2-Back,0,z,Fri Mar 28 2025 13:31:08 GMT-0500 (Central Daylight Time),767366.6000000238,012_o_f_n_a.png,O,None,2014,17,1,3029.0,764337.6000000238,7114,VNB,C,15
14,test,5,1.0,2-Back,1,m,Fri Mar 28 2025 13:31:08 GMT-0500 (Central Daylight Time),769682.5,025_y_m_h_a.png,O,m,1276,18,1,2292.100000023842,767390.3999999762,7114,VNB,C,16
