acc_sum,block,block_c,condition,correct,correct_response,datetime,endtime,flanker,jitter,project,response,response_test_buffer_response,response_test_target_response,response_time,response_time_test_buffer_response,response_time_test_target_response,row_sel,session_number,start_end,starttime,subject_id,target,task,task_vers,time_test_buffer,time_test_buffer_response,time_test_constants,time_test_flanker,time_test_jitter,time_test_logger,time_test_target,time_test_target_response,time_test_variables,trial
1,prac,1,con,1,z,Fri Feb 21 2025 15:28:43 GMT-0600 (Central Standard Time),152245.1000000015,orange,1000,I,z,,,1819,,,3,1,4239.400000002235,148005.69999999925,7062,orange,NF,C,,,,,,,,,,1
2,prac,1,inc,1,m,Fri Feb 21 2025 15:28:43 GMT-0600 (Central Standard Time),155548.69999999925,raisin,1100,I,m,,,885,,,12,1,3298.099999997765,152250.6000000015,7062,cobalt,NF,C,,,,,,,,,,2
3,prac,1,con,1,z,Fri Feb 21 2025 15:28:43 GMT-0600 (Central Standard Time),158348.0,banana,800,I,z,,,687,,,1,1,2793.099999997765,155554.90000000224,7062,banana,NF,C,,,,,,,,,,3
4,prac,1,con,1,m,Fri Feb 21 2025 15:28:43 GMT-0600 (Central Standard Time),161280.30000000075,zinc,1000,I,m,,,623,,,15,1,2927.89999999851,158352.40000000224,7062,zinc,NF,C,,,,,,,,,,4
5,prac,1,inc,1,z,Fri Feb 21 2025 15:28:43 GMT-0600 (Central Standard Time),164529.30000000075,lead,1100,I,z,,,840,,,8,1,3243.89999999851,161285.40000000224,7062,plum,NF,C,,,,,,,,,,5
6,prac,1,inc,1,z,Fri Feb 21 2025 15:28:43 GMT-0600 (Central Standard Time),167644.90000000224,iron,900,I,z,,,902,,,6,1,3111.10000000149,164533.80000000075,7062,pear,NF,C,,,,,,,,,,6
7,prac,1,inc,1,m,Fri Feb 21 2025 15:28:43 GMT-0600 (Central Standard Time),170510.90000000224,cherry,900,I,m,,,651,,,10,1,2861.60000000149,167649.30000000075,7062,copper,NF,C,,,,,,,,,,7
8,prac,1,inc,1,m,Fri Feb 21 2025 15:28:43 GMT-0600 (Central Standard Time),173359.69999999925,pear,900,I,m,,,640,,,14,1,2844.39999999851,170515.30000000075,7062,iron,NF,C,,,,,,,,,,8
9,prac,1,con,1,z,Fri Feb 21 2025 15:28:43 GMT-0600 (Central Standard Time),176292.30000000075,lime,800,I,z,,,829,,,5,1,2928.10000000149,173364.19999999925,7062,lime,NF,C,,,,,,,,,,9
10,prac,1,inc,1,z,Fri Feb 21 2025 15:28:43 GMT-0600 (Central Standard Time),179541.30000000075,cobalt,1100,I,z,,,835,,,4,1,3244.39999999851,176296.90000000224,7062,raisin,NF,C,,,,,,,,,,10
11,prac,1,con,1,m,Fri Feb 21 2025 15:28:43 GMT-0600 (Central Standard Time),182273.69999999925,bronze,800,I,m,,,630,,,9,1,2726.5,179547.19999999925,7062,bronze,NF,C,,,,,,,,,,11
12,prac,1,con,1,m,Fri Feb 21 2025 15:28:43 GMT-0600 (Central Standard Time),185156.30000000075,silver,1000,I,m,,,577,,,11,1,2877.800000000745,182278.5,7062,silver,NF,C,,,,,,,,,,12
13,prac,1,con,1,m,Fri Feb 21 2025 15:28:43 GMT-0600 (Central Standard Time),187905.30000000075,gold,800,I,m,,,648,,,13,1,2744.699999999255,185160.6000000015,7062,gold,NF,C,,,,,,,,,,13
14,prac,1,con,1,z,Fri Feb 21 2025 15:28:43 GMT-0600 (Central Standard Time),190904.19999999925,kiwi,1000,I,z,,,698,,,7,1,2994.5,187909.69999999925,7062,kiwi,NF,C,,,,,,,,,,14
15,prac,1,inc,1,m,Fri Feb 21 2025 15:28:43 GMT-0600 (Central Standard Time),193953.30000000075,plum,1100,I,m,,,647,,,16,1,3044.699999999255,190908.6000000015,7062,lead,NF,C,,,,,,,,,,15
16,prac,1,inc,1,z,Fri Feb 21 2025 15:28:43 GMT-0600 (Central Standard Time),196919.19999999925,copper,900,I,z,,,749,,,2,1,2961.599999997765,193957.6000000015,7062,cherry,NF,C,,,,,,,,,,16
1,test,1,inc,1,m,Fri Feb 21 2025 15:28:43 GMT-0600 (Central Standard Time),216762.90000000224,kiwi,1000,I,m,m,None,705,506.0,199.0,111,1,2245.7000000029802,214517.19999999925,7062,iron,NF,C,208044,208044,206314,207327,206315,208560,207844,207844,208560,1
2,test,1,con,1,m,Fri Feb 21 2025 15:28:43 GMT-0600 (Central Standard Time),219078.80000000075,cobalt,1100,I,m,m,None,669,469.0,200.0,92,1,2311.300000000745,216767.5,7062,cobalt,NF,C,210393,210393,208565,209676,208565,210876,210193,210193,210876,2
3,test,1,con,1,z,Fri Feb 21 2025 15:28:43 GMT-0600 (Central Standard Time),221344.90000000224,plum,900,I,z,z,None,824,625.0,199.0,58,1,2261.5,219083.40000000224,7062,plum,NF,C,212509,212509,210880,211793,210881,213142,212309,212309,213142,3
4,test,1,con,1,m,Fri Feb 21 2025 15:28:43 GMT-0600 (Central Standard Time),223394.19999999925,gold,800,I,m,m,None,700,438.0,262.0,97,1,2045.2999999970198,221348.90000000224,7062,gold,NF,C,214737,214737,213146,213959,213146,215191,214475,214475,215191,4
5,test,1,con,1,m,Fri Feb 21 2025 15:28:43 GMT-0600 (Central Standard Time),225843.5,zinc,1100,I,m,m,None,814,614.0,200.0,116,1,2445.099999997765,223398.40000000224,7062,zinc,NF,C,217024,217024,215195,216308,215196,217641,216824,216824,217641,5
6,test,1,con,1,m,Fri Feb 21 2025 15:28:43 GMT-0600 (Central Standard Time),228176.0,silver,1000,I,m,m,None,791,592.0,199.0,83,1,2328.599999997765,225847.40000000224,7062,silver,NF,C,219374,219374,217644,218657,217645,219973,219174,219174,219973,6
7,test,1,con,1,m,Fri Feb 21 2025 15:28:43 GMT-0600 (Central Standard Time),230342.1000000015,copper,900,I,m,m,None,727,528.0,199.0,74,1,2162.10000000149,228180.0,7062,copper,NF,C,221606,221606,219977,220890,219977,222139,221406,221407,222139,7
8,test,1,con,1,m,Fri Feb 21 2025 15:28:43 GMT-0600 (Central Standard Time),232724.40000000224,gold,1100,I,m,m,None,738,538.0,200.0,100,1,2378.2000000029802,230346.19999999925,7062,gold,NF,C,223972,223972,222143,223256,222144,224521,223772,223772,224521,8
9,test,1,con,1,m,Fri Feb 21 2025 15:28:43 GMT-0600 (Central Standard Time),234757.30000000075,bronze,800,I,m,m,None,694,495.0,199.0,65,1,2028.800000000745,232728.5,7062,bronze,NF,C,226055,226055,224526,225339,224526,226554,225855,225855,226554,9
10,test,1,con,1,m,Fri Feb 21 2025 15:28:43 GMT-0600 (Central Standard Time),236856.69999999925,zinc,900,I,m,m,None,659,459.0,200.0,114,1,2095.5,234761.19999999925,7062,zinc,NF,C,228187,228187,226558,227471,226559,228654,227987,227987,228654,10
11,test,1,inc,1,z,Fri Feb 21 2025 15:28:43 GMT-0600 (Central Standard Time),239205.90000000224,lead,1100,I,z,z,None,703,503.0,200.0,56,1,2345.0,236860.90000000224,7062,kiwi,NF,C,230487,230487,228658,229770,228658,231003,230287,230287,231003,11
12,test,1,inc,1,m,Fri Feb 21 2025 15:28:43 GMT-0600 (Central Standard Time),241388.6000000015,kiwi,1000,I,m,m,None,638,438.0,200.0,103,1,2178.300000000745,239210.30000000075,7062,gold,NF,C,232736,232736,231007,232019,231008,233186,232536,232536,233186,12
13,test,1,inc,1,z,Fri Feb 21 2025 15:28:43 GMT-0600 (Central Standard Time),243804.5,lead,1100,I,z,z,None,778,579.0,199.0,48,1,2412.099999997765,241392.40000000224,7062,pear,NF,C,235019,235019,233189,234302,233190,235602,234819,234819,235601,13
14,test,1,con,1,m,Fri Feb 21 2025 15:28:43 GMT-0600 (Central Standard Time),245953.90000000224,bronze,900,I,m,m,None,699,500.0,199.0,66,1,2144.800000000745,243809.1000000015,7062,bronze,NF,C,237235,237235,235606,236518,235607,237751,237035,237035,237751,14
15,test,1,con,1,z,Fri Feb 21 2025 15:28:43 GMT-0600 (Central Standard Time),248436.5,pear,1000,I,z,z,None,937,738.0,199.0,43,1,2478.39999999851,245958.1000000015,7062,pear,NF,C,239484,239484,237755,238768,237756,240234,239284,239284,240234,15
16,test,1,con,1,z,Fri Feb 21 2025 15:28:43 GMT-0600 (Central Standard Time),250802.1000000015,kiwi,1000,I,z,z,None,822,607.0,215.0,51,1,2361.699999999255,248440.40000000224,7062,kiwi,NF,C,241983,241983,240237,241250,240238,242599,241768,241768,242599,16
17,test,1,inc,1,m,Fri Feb 21 2025 15:28:43 GMT-0600 (Central Standard Time),253168.1000000015,kiwi,1000,I,m,m,None,825,626.0,199.0,119,1,2361.699999999255,250806.40000000224,7062,zinc,NF,C,244332,244332,242603,243616,242604,244965,244133,244133,244965,17
18,test,1,inc,1,m,Fri Feb 21 2025 15:28:43 GMT-0600 (Central Standard Time),255433.90000000224,banana,800,I,m,m,None,930,715.0,215.0,93,1,2261.60000000149,253172.30000000075,7062,cobalt,NF,C,246515,246515,244969,245783,244970,247231,246300,246300,247231,18
19,test,1,con,1,m,Fri Feb 21 2025 15:28:43 GMT-0600 (Central Standard Time),257733.40000000224,zinc,1000,I,m,m,None,754,554.0,200.0,115,1,2295.60000000149,255437.80000000075,7062,zinc,NF,C,248964,248964,247235,248248,247235,249530,248764,248764,249530,19
20,test,1,inc,1,m,Fri Feb 21 2025 15:28:43 GMT-0600 (Central Standard Time),260032.69999999925,plum,1100,I,m,m,None,659,458.0,201.0,120,1,2295.39999999851,257737.30000000075,7062,zinc,NF,C,251365,251365,249534,250647,249535,251830,251163,251163,251830,20
21,test,1,con,1,z,Fri Feb 21 2025 15:28:43 GMT-0600 (Central Standard Time),262116.40000000224,lime,900,I,z,z,None,646,447.0,199.0,34,1,2079.2000000029802,260037.19999999925,7062,lime,NF,C,253463,253463,251834,252747,251835,253913,253263,253263,253913,21
22,test,1,con,1,z,Fri Feb 21 2025 15:28:43 GMT-0600 (Central Standard Time),264364.69999999925,kiwi,900,I,z,z,None,803,604.0,199.0,50,1,2241.89999999851,262122.80000000075,7062,kiwi,NF,C,255546,255546,253920,254829,253920,256162,255346,255346,256162,22
23,test,1,inc,1,z,Fri Feb 21 2025 15:28:43 GMT-0600 (Central Standard Time),266597.30000000075,zinc,1000,I,z,z,None,686,487.0,199.0,39,1,2228.199999999255,264369.1000000015,7062,lime,NF,C,257895,257895,256166,257179,256167,258394,257695,257695,258394,23
24,test,1,con,1,m,Fri Feb 21 2025 15:28:43 GMT-0600 (Central Standard Time),268763.30000000075,iron,1000,I,m,m,None,623,423.0,200.0,107,1,2162.0,266601.30000000075,7062,iron,NF,C,260127,260127,258398,259411,258399,260560,259927,259927,260560,24
25,test,1,con,1,z,Fri Feb 21 2025 15:28:43 GMT-0600 (Central Standard Time),271112.5,cherry,900,I,z,z,None,899,700.0,199.0,10,1,2345.39999999851,268767.1000000015,7062,cherry,NF,C,262194,262194,260564,261477,260564,262910,261994,261994,262910,25
26,test,1,con,1,m,Fri Feb 21 2025 15:28:43 GMT-0600 (Central Standard Time),273461.80000000075,iron,1100,I,m,m,None,702,503.0,199.0,108,1,2345.0,271116.80000000075,7062,iron,NF,C,264743,264743,262914,264026,262914,265259,264543,264543,265259,26
27,test,1,con,1,z,Fri Feb 21 2025 15:28:43 GMT-0600 (Central Standard Time),275411.19999999925,orange,800,I,z,z,None,606,406.0,200.0,17,1,1945.0999999977648,273466.1000000015,7062,orange,NF,C,266792,266792,265263,266076,265263,267208,266592,266592,267208,27
28,test,1,con,1,m,Fri Feb 21 2025 15:28:43 GMT-0600 (Central Standard Time),277460.5,iron,900,I,m,m,None,605,405.0,200.0,106,1,2045.0999999977648,275415.40000000224,7062,iron,NF,C,268841,268841,267212,268125,267213,269258,268641,268641,269258,28
29,test,1,con,1,z,Fri Feb 21 2025 15:28:43 GMT-0600 (Central Standard Time),279509.90000000224,plum,800,I,z,z,None,711,512.0,199.0,57,1,2045.5,277464.40000000224,7062,plum,NF,C,270791,270791,269261,270074,269262,271307,270591,270591,271307,29
30,test,1,inc,1,m,Fri Feb 21 2025 15:28:43 GMT-0600 (Central Standard Time),281759.40000000224,orange,1000,I,m,m,None,711,511.0,200.0,95,1,2245.7000000029802,279513.69999999925,7062,cobalt,NF,C,273040,273040,271311,272324,271311,273556,272840,272840,273556,30
31,test,1,con,1,m,Fri Feb 21 2025 15:28:43 GMT-0600 (Central Standard Time),284291.80000000075,copper,1100,I,m,m,None,888,689.0,199.0,76,1,2528.60000000149,281763.19999999925,7062,copper,NF,C,275389,275389,273560,274673,273561,276089,275190,275190,276089,31
32,test,1,con,1,z,Fri Feb 21 2025 15:28:43 GMT-0600 (Central Standard Time),286557.69999999925,lime,1100,I,z,z,None,627,427.0,200.0,36,1,2261.699999999255,284296.0,7062,lime,NF,C,277923,277923,276093,277206,276093,278355,277722,277722,278355,32
33,test,1,con,1,m,Fri Feb 21 2025 15:28:43 GMT-0600 (Central Standard Time),288673.6000000015,lead,800,I,m,m,None,781,582.0,199.0,121,1,2111.800000000745,286561.80000000075,7062,lead,NF,C,279888,279888,278359,279172,278359,280471,279688,279688,280471,33
34,test,1,inc,1,m,Fri Feb 21 2025 15:28:43 GMT-0600 (Central Standard Time),291073.1000000015,raisin,1100,I,m,m,None,758,559.0,199.0,80,1,2395.900000002235,288677.19999999925,7062,copper,NF,C,282304,282304,280474,281587,280475,282870,282104,282104,282870,34
35,test,1,con,1,z,Fri Feb 21 2025 15:28:43 GMT-0600 (Central Standard Time),293155.80000000075,banana,800,I,z,z,None,748,548.0,200.0,1,1,2078.800000000745,291077.0,7062,banana,NF,C,284403,284403,282874,283687,282874,284953,284203,284203,284953,35
36,test,1,inc,1,z,Fri Feb 21 2025 15:28:43 GMT-0600 (Central Standard Time),295471.40000000224,cobalt,1100,I,z,z,None,668,468.0,200.0,8,1,2311.7000000029802,293159.69999999925,7062,banana,NF,C,286786,286786,284957,286069,284957,287269,286586,286586,287268,36
37,test,1,con,1,z,Fri Feb 21 2025 15:28:43 GMT-0600 (Central Standard Time),297737.6000000015,orange,1100,I,z,z,None,632,432.0,200.0,20,1,2262.10000000149,295475.5,7062,orange,NF,C,289102,289102,287273,288385,287273,289535,288902,288902,289535,37
38,test,1,inc,1,m,Fri Feb 21 2025 15:28:43 GMT-0600 (Central Standard Time),299986.69999999925,raisin,1100,I,m,m,None,606,407.0,199.0,72,1,2245.5,297741.19999999925,7062,bronze,NF,C,291368,291368,289538,290651,289539,291784,291168,291168,291784,38
39,test,1,inc,1,z,Fri Feb 21 2025 15:28:43 GMT-0600 (Central Standard Time),302136.19999999925,iron,900,I,z,z,None,710,510.0,200.0,62,1,2145.5,299990.69999999925,7062,plum,NF,C,293417,293417,291788,292700,291788,293933,293217,293217,293933,39
40,test,1,inc,1,z,Fri Feb 21 2025 15:28:43 GMT-0600 (Central Standard Time),304385.6000000015,silver,1000,I,z,z,None,701,501.0,200.0,31,1,2245.199999999255,302140.40000000224,7062,raisin,NF,C,295666,295666,293937,294950,293938,296183,295466,295466,296183,40
41,test,1,inc,1,z,Fri Feb 21 2025 15:28:43 GMT-0600 (Central Standard Time),306418.0,gold,800,I,z,z,None,697,498.0,199.0,53,1,2028.5999999977648,304389.40000000224,7062,kiwi,NF,C,297716,297716,296186,296999,296187,298215,297516,297516,298215,41
42,test,1,inc,1,m,Fri Feb 21 2025 15:28:43 GMT-0600 (Central Standard Time),308534.19999999925,banana,800,I,m,m,None,777,578.0,199.0,77,1,2112.599999997765,306421.6000000015,7062,copper,NF,C,299748,299748,298219,299032,298219,300331,299549,299549,300331,42
43,test,1,con,1,z,Fri Feb 21 2025 15:28:43 GMT-0600 (Central Standard Time),310733.5,cherry,800,I,z,z,None,862,662.0,200.0,9,1,2195.099999997765,308538.40000000224,7062,cherry,NF,C,301864,301864,300335,301148,300336,302531,301664,301664,302530,43
44,test,1,con,1,z,Fri Feb 21 2025 15:28:43 GMT-0600 (Central Standard Time),313249.6000000015,kiwi,1100,I,z,z,None,867,668.0,199.0,52,1,2512.400000002235,310737.19999999925,7062,kiwi,NF,C,304363,304363,302534,303647,302535,305047,304164,304164,305047,44
45,test,1,inc,1,m,Fri Feb 21 2025 15:28:43 GMT-0600 (Central Standard Time),315532.0,plum,1100,I,m,m,None,646,447.0,199.0,112,1,2278.300000000745,313253.69999999925,7062,iron,NF,C,306879,306879,305051,306163,305051,307329,306680,306680,307329,45
46,test,1,con,1,m,Fri Feb 21 2025 15:28:43 GMT-0600 (Central Standard Time),318064.69999999925,lead,1100,I,m,m,None,846,642.0,204.0,124,1,2528.7999999970198,315535.90000000224,7062,lead,NF,C,309212,309212,307333,308446,307333,309862,309008,309008,309862,46
47,test,1,inc,1,m,Fri Feb 21 2025 15:28:43 GMT-0600 (Central Standard Time),320497.19999999925,orange,1000,I,m,m,None,890,691.0,199.0,79,1,2428.199999999255,318069.0,7062,copper,NF,C,311595,311595,309866,310878,309866,312294,311395,311395,312294,47
48,test,1,inc,1,z,Fri Feb 21 2025 15:28:43 GMT-0600 (Central Standard Time),322829.80000000075,cobalt,1100,I,z,z,None,696,496.0,200.0,32,1,2329.0,320500.80000000075,7062,raisin,NF,C,314127,314127,312298,313411,312298,314627,313927,313927,314627,48
49,test,1,inc,1,z,Fri Feb 21 2025 15:28:43 GMT-0600 (Central Standard Time),325295.6000000015,zinc,1000,I,z,z,None,926,726.0,200.0,47,1,2462.10000000149,322833.5,7062,pear,NF,C,316360,316360,314631,315644,314631,317093,316160,316160,317093,49
50,test,1,con,1,m,Fri Feb 21 2025 15:28:43 GMT-0600 (Central Standard Time),327361.69999999925,cobalt,900,I,m,m,None,616,417.0,199.0,90,1,2062.199999999255,325299.5,7062,cobalt,NF,C,318726,318726,317097,318010,317097,319159,318526,318526,319159,50
51,test,1,con,1,z,Fri Feb 21 2025 15:28:43 GMT-0600 (Central Standard Time),329461.1000000015,orange,900,I,z,z,None,653,454.0,199.0,18,1,2095.400000002235,327365.69999999925,7062,orange,NF,C,320792,320792,319163,320075,319163,321258,320592,320592,321258,51
52,test,1,inc,1,m,Fri Feb 21 2025 15:28:43 GMT-0600 (Central Standard Time),331527.0,pear,900,I,m,m,None,619,419.0,200.0,118,1,2062.199999999255,329464.80000000075,7062,zinc,NF,C,322891,322891,321262,322175,321262,323324,322691,322691,323324,52
53,test,1,con,1,m,Fri Feb 21 2025 15:28:43 GMT-0600 (Central Standard Time),333960.69999999925,bronze,1100,I,m,m,None,793,593.0,200.0,68,1,2430.099999997765,331530.6000000015,7062,bronze,NF,C,325157,325157,323328,324441,323328,325758,324957,324957,325758,53
54,test,1,con,1,m,Fri Feb 21 2025 15:28:43 GMT-0600 (Central Standard Time),335975.90000000224,cobalt,800,I,m,m,None,668,469.0,199.0,89,1,2011.1000000014901,333964.80000000075,7062,cobalt,NF,C,327290,327290,325762,326573,325762,327773,327090,327090,327773,54
55,test,1,con,1,z,Fri Feb 21 2025 15:28:43 GMT-0600 (Central Standard Time),338241.69999999925,banana,900,I,z,z,None,832,633.0,199.0,2,1,2262.0,335979.69999999925,7062,banana,NF,C,329406,329406,327777,328690,327777,330039,329206,329206,330039,55
56,test,1,inc,1,z,Fri Feb 21 2025 15:28:43 GMT-0600 (Central Standard Time),340324.30000000075,gold,800,I,z,z,None,738,538.0,200.0,45,1,2078.699999999255,338245.6000000015,7062,pear,NF,C,331572,331572,330043,330856,330043,332121,331372,331372,332121,56
57,test,1,con,1,z,Fri Feb 21 2025 15:28:43 GMT-0600 (Central Standard Time),342523.5,kiwi,800,I,z,z,None,863,664.0,199.0,49,1,2195.199999999255,340328.30000000075,7062,kiwi,NF,C,333654,333654,332125,332938,332126,334321,333454,333455,334321,57
58,test,1,inc,1,z,Fri Feb 21 2025 15:28:43 GMT-0600 (Central Standard Time),344689.80000000075,copper,900,I,z,z,None,733,533.0,200.0,14,1,2162.300000000745,342527.5,7062,cherry,NF,C,335954,335954,334325,335237,334325,336487,335754,335754,336487,58
59,test,1,con,1,z,Fri Feb 21 2025 15:28:43 GMT-0600 (Central Standard Time),346805.5,banana,1000,I,z,z,None,578,379.0,199.0,3,1,2112.199999999255,344693.30000000075,7062,banana,NF,C,338220,338220,336490,337503,336491,338603,338020,338020,338603,59
60,test,1,con,1,z,Fri Feb 21 2025 15:28:43 GMT-0600 (Central Standard Time),349038.19999999925,pear,900,I,z,z,None,794,595.0,199.0,42,1,2228.7999999970198,346809.40000000224,7062,pear,NF,C,340236,340236,338606,339519,338607,340835,340036,340036,340835,60
61,test,1,inc,1,m,Fri Feb 21 2025 15:28:43 GMT-0600 (Central Standard Time),351137.80000000075,pear,900,I,m,m,None,665,466.0,199.0,110,1,2095.60000000149,349042.19999999925,7062,iron,NF,C,342468,342468,340839,341752,340840,342935,342269,342269,342935,61
62,test,1,inc,1,z,Fri Feb 21 2025 15:28:43 GMT-0600 (Central Standard Time),353170.5,bronze,800,I,z,z,None,690,491.0,199.0,13,1,2028.800000000745,351141.69999999925,7062,cherry,NF,C,344468,344468,342939,343751,342939,344968,344268,344268,344967,62
63,test,1,con,1,m,Fri Feb 21 2025 15:28:43 GMT-0600 (Central Standard Time),355352.90000000224,gold,900,I,m,m,None,732,533.0,199.0,98,1,2178.60000000149,353174.30000000075,7062,gold,NF,C,346601,346601,344971,345884,344972,347150,346400,346401,347150,63
64,test,1,inc,1,z,Fri Feb 21 2025 15:28:43 GMT-0600 (Central Standard Time),357618.80000000075,silver,1000,I,z,z,None,731,531.0,200.0,23,1,2262.0,355356.80000000075,7062,orange,NF,C,348883,348883,347154,348167,347154,349416,348683,348683,349416,64
65,test,1,con,1,z,Fri Feb 21 2025 15:28:43 GMT-0600 (Central Standard Time),359835.0,orange,1000,I,z,z,None,673,473.0,200.0,19,1,2212.300000000745,357622.69999999925,7062,orange,NF,C,351149,351149,349420,350433,349420,351632,350949,350949,351632,65
66,test,1,inc,1,z,Fri Feb 21 2025 15:28:43 GMT-0600 (Central Standard Time),361884.19999999925,gold,800,I,z,z,None,705,505.0,200.0,61,1,2045.0999999977648,359839.1000000015,7062,plum,NF,C,353165,353165,351636,352449,351636,353681,352965,352965,353681,66
67,test,1,con,1,z,Fri Feb 21 2025 15:28:43 GMT-0600 (Central Standard Time),363900.30000000075,raisin,900,I,z,z,None,580,380.0,200.0,26,1,2012.1000000014901,361888.19999999925,7062,raisin,NF,C,355314,355314,353685,354598,353686,355697,355114,355114,355697,67
68,test,1,inc,1,m,Fri Feb 21 2025 15:28:43 GMT-0600 (Central Standard Time),365982.90000000224,cherry,900,I,m,m,None,644,444.0,200.0,70,1,2078.7000000029802,363904.19999999925,7062,bronze,NF,C,357330,357330,355701,356614,355702,357780,357130,357130,357780,68
69,test,1,inc,1,m,Fri Feb 21 2025 15:28:43 GMT-0600 (Central Standard Time),367982.19999999925,lime,800,I,m,m,None,654,454.0,200.0,117,1,1995.2999999970198,365986.90000000224,7062,zinc,NF,C,359313,359313,357784,358596,357784,359779,359113,359113,359779,69
70,test,1,inc,1,z,Fri Feb 21 2025 15:28:43 GMT-0600 (Central Standard Time),370114.90000000224,copper,900,I,z,z,None,689,490.0,199.0,22,1,2128.900000002235,367986.0,7062,orange,NF,C,361412,361412,359783,360696,359783,361912,361213,361213,361912,70
71,test,1,inc,1,m,Fri Feb 21 2025 15:28:43 GMT-0600 (Central Standard Time),372147.69999999925,lime,800,I,m,m,None,697,497.0,200.0,101,1,2028.5,370119.19999999925,7062,gold,NF,C,363445,363445,361916,362729,361917,363945,363245,363245,363945,71
72,test,1,inc,1,z,Fri Feb 21 2025 15:28:43 GMT-0600 (Central Standard Time),374363.6000000015,iron,900,I,z,z,None,779,580.0,199.0,46,1,2211.60000000149,372152.0,7062,pear,NF,C,365578,365578,363949,364861,363949,366161,365378,365378,366161,72
73,test,1,con,1,m,Fri Feb 21 2025 15:28:43 GMT-0600 (Central Standard Time),376562.80000000075,copper,1000,I,m,m,None,655,456.0,199.0,75,1,2195.5,374367.30000000075,7062,copper,NF,C,367894,367894,366164,367177,366165,368360,367694,367694,368360,73
74,test,1,inc,1,z,Fri Feb 21 2025 15:28:43 GMT-0600 (Central Standard Time),378745.40000000224,zinc,1000,I,z,z,None,639,424.0,215.0,63,1,2178.800000000745,376566.6000000015,7062,plum,NF,C,370110,370110,368364,369377,368364,370542,369893,369894,370542,74
75,test,1,con,1,z,Fri Feb 21 2025 15:28:43 GMT-0600 (Central Standard Time),381078.40000000224,plum,1000,I,z,z,None,785,586.0,199.0,59,1,2328.800000000745,378749.6000000015,7062,plum,NF,C,372276,372276,370547,371559,370547,372875,372076,372076,372875,75
76,test,1,con,1,m,Fri Feb 21 2025 15:28:43 GMT-0600 (Central Standard Time),383060.90000000224,lead,900,I,m,m,None,546,346.0,200.0,122,1,1978.7000000029802,381082.19999999925,7062,lead,NF,C,374508,374508,372879,373792,372880,374858,374308,374308,374858,76
77,test,1,con,1,z,Fri Feb 21 2025 15:28:43 GMT-0600 (Central Standard Time),385443.1000000015,raisin,1000,I,z,z,None,847,647.0,200.0,27,1,2378.199999999255,383064.90000000224,7062,raisin,NF,C,376591,376591,374862,375875,374862,377240,376391,376391,377240,77
78,test,1,inc,1,z,Fri Feb 21 2025 15:28:43 GMT-0600 (Central Standard Time),387492.69999999925,gold,800,I,z,z,None,711,512.0,199.0,37,1,2045.7999999970198,385446.90000000224,7062,lime,NF,C,378774,378774,377244,378058,377244,379290,378574,378574,379290,78
79,test,1,inc,1,z,Fri Feb 21 2025 15:28:43 GMT-0600 (Central Standard Time),389725.5,iron,900,I,z,z,None,787,587.0,200.0,54,1,2228.599999997765,387496.90000000224,7062,kiwi,NF,C,380923,380923,379294,380207,379294,381523,380723,380723,381522,79
80,test,1,inc,1,m,Fri Feb 21 2025 15:28:43 GMT-0600 (Central Standard Time),391774.6000000015,lime,800,I,m,m,None,711,512.0,199.0,109,1,2045.300000000745,389729.30000000075,7062,iron,NF,C,383055,383055,381526,382339,381527,383572,382856,382856,383572,80
81,test,1,con,1,m,Fri Feb 21 2025 15:28:43 GMT-0600 (Central Standard Time),394057.6000000015,silver,900,I,m,m,None,841,640.0,201.0,82,1,2279.10000000149,391778.5,7062,silver,NF,C,385206,385206,383576,384489,383576,385855,385005,385005,385855,81
82,test,1,con,1,m,Fri Feb 21 2025 15:28:43 GMT-0600 (Central Standard Time),396173.5,lead,1000,I,m,m,None,578,379.0,199.0,123,1,2112.099999997765,394061.40000000224,7062,lead,NF,C,387587,387587,385858,386871,385859,387971,387388,387388,387971,82
83,test,1,inc,1,z,Fri Feb 21 2025 15:28:43 GMT-0600 (Central Standard Time),398289.69999999925,iron,900,I,z,z,None,673,474.0,199.0,38,1,2112.39999999851,396177.30000000075,7062,lime,NF,C,389604,389604,387974,388887,387975,390087,389404,389404,390087,83
84,test,1,con,1,z,Fri Feb 21 2025 15:28:43 GMT-0600 (Central Standard Time),400638.90000000224,banana,1100,I,z,z,None,701,502.0,199.0,4,1,2345.300000000745,398293.6000000015,7062,banana,NF,C,391920,391920,390091,391203,390091,392436,391720,391720,392436,84
85,test,1,inc,1,m,Fri Feb 21 2025 15:28:43 GMT-0600 (Central Standard Time),402738.1000000015,pear,900,I,m,m,None,656,457.0,199.0,126,1,2095.10000000149,400643.0,7062,lead,NF,C,394069,394069,392440,393352,392440,394535,393869,393869,394535,85
86,test,1,con,1,m,Fri Feb 21 2025 15:28:43 GMT-0600 (Central Standard Time),404721.0,copper,800,I,m,m,None,634,434.0,200.0,73,1,1979.0999999977648,402741.90000000224,7062,copper,NF,C,396068,396068,394539,395352,394539,396518,395868,395868,396518,86
87,test,1,con,1,z,Fri Feb 21 2025 15:28:43 GMT-0600 (Central Standard Time),407053.40000000224,cherry,1100,I,z,z,None,695,495.0,200.0,12,1,2328.60000000149,404724.80000000075,7062,cherry,NF,C,398351,398351,396522,397635,396522,398851,398151,398151,398850,87
88,test,1,inc,1,m,Fri Feb 21 2025 15:28:43 GMT-0600 (Central Standard Time),409302.5,orange,1000,I,m,m,None,710,511.0,199.0,71,1,2245.300000000745,407057.19999999925,7062,bronze,NF,C,400583,400583,398854,399867,398854,401100,400384,400384,401100,88
89,test,1,inc,1,m,Fri Feb 21 2025 15:28:43 GMT-0600 (Central Standard Time),411462.0,banana,800,I,m,m,None,826,626.0,200.0,69,1,2155.800000000745,409306.19999999925,7062,bronze,NF,C,402633,402633,401103,401917,401104,403259,402433,402433,403259,89
90,test,1,inc,1,m,Fri Feb 21 2025 15:28:43 GMT-0600 (Central Standard Time),413834.80000000075,plum,1100,I,m,m,None,740,540.0,200.0,128,1,2368.10000000149,411466.69999999925,7062,lead,NF,C,405082,405082,403264,404366,403264,405632,404882,404882,405632,90
91,test,1,con,1,z,Fri Feb 21 2025 15:28:43 GMT-0600 (Central Standard Time),416367.30000000075,pear,1100,I,z,z,None,884,685.0,199.0,44,1,2528.699999999255,413838.6000000015,7062,pear,NF,C,407465,407465,405636,406748,405636,408164,407265,407265,408164,91
92,test,1,con,1,z,Fri Feb 21 2025 15:28:43 GMT-0600 (Central Standard Time),418433.1000000015,pear,800,I,z,z,None,716,517.0,199.0,41,1,2061.900000002235,416371.19999999925,7062,pear,NF,C,409697,409697,408168,408981,408169,410230,409498,409498,410230,92
93,test,1,inc,1,z,Fri Feb 21 2025 15:28:43 GMT-0600 (Central Standard Time),420632.5,silver,1000,I,z,z,None,658,459.0,199.0,15,1,2195.599999997765,418436.90000000224,7062,cherry,NF,C,411963,411963,410234,411247,410234,412430,411764,411764,412430,93
94,test,1,inc,1,m,Fri Feb 21 2025 15:28:43 GMT-0600 (Central Standard Time),422831.69999999925,kiwi,1000,I,m,m,None,650,451.0,199.0,127,1,2195.39999999851,420636.30000000075,7062,lead,NF,C,414163,414163,412433,413446,412434,414629,413963,413963,414629,94
95,test,1,inc,1,z,Fri Feb 21 2025 15:28:43 GMT-0600 (Central Standard Time),424931.0,copper,900,I,z,z,None,656,456.0,200.0,30,1,2095.599999997765,422835.40000000224,7062,raisin,NF,C,416262,416262,414632,415546,414633,416728,416062,416062,416728,95
96,test,1,inc,1,m,Fri Feb 21 2025 15:28:43 GMT-0600 (Central Standard Time),427163.90000000224,cherry,900,I,m,m,None,788,589.0,199.0,86,1,2229.2000000029802,424934.69999999925,7062,silver,NF,C,418361,418361,416732,417645,416732,418961,418162,418162,418961,96
97,test,1,inc,1,m,Fri Feb 21 2025 15:28:43 GMT-0600 (Central Standard Time),429479.6000000015,orange,1000,I,m,m,None,768,568.0,200.0,87,1,2311.60000000149,427168.0,7062,silver,NF,C,420694,420694,418965,419977,418965,421277,420494,420494,421277,97
98,test,1,inc,1,z,Fri Feb 21 2025 15:28:43 GMT-0600 (Central Standard Time),431579.40000000224,bronze,800,I,z,z,None,756,556.0,200.0,21,1,2096.300000000745,429483.1000000015,7062,orange,NF,C,422810,422810,421280,422093,421280,423376,422610,422610,423376,98
99,test,1,inc,1,m,Fri Feb 21 2025 15:28:43 GMT-0600 (Central Standard Time),433845.1000000015,raisin,1100,I,m,m,None,619,420.0,199.0,88,1,2262.0,431583.1000000015,7062,silver,NF,C,425209,425210,423380,424493,423380,425642,425010,425010,425642,99
100,test,1,con,1,z,Fri Feb 21 2025 15:28:43 GMT-0600 (Central Standard Time),436044.6000000015,lime,800,I,z,z,None,856,656.0,200.0,33,1,2195.699999999255,433848.90000000224,7062,lime,NF,C,427175,427175,425646,426459,425646,427842,426975,426975,427842,100
101,test,1,inc,1,z,Fri Feb 21 2025 15:28:43 GMT-0600 (Central Standard Time),438027.30000000075,bronze,800,I,z,z,None,638,439.0,199.0,5,1,1979.0,436048.30000000075,7062,banana,NF,C,429375,429375,427845,428658,427846,429824,429175,429175,429824,101
102,test,1,con,1,m,Fri Feb 21 2025 15:28:43 GMT-0600 (Central Standard Time),440226.5,cobalt,1000,I,m,m,None,657,457.0,200.0,91,1,2195.39999999851,438031.1000000015,7062,cobalt,NF,C,431558,431558,429828,430840,429829,432024,431357,431357,432023,102
103,test,1,inc,1,z,Fri Feb 21 2025 15:28:43 GMT-0600 (Central Standard Time),442625.69999999925,zinc,1000,I,z,z,None,850,651.0,199.0,55,1,2395.5,440230.19999999925,7062,kiwi,NF,C,433756,433756,432027,433040,432027,434423,433557,433557,434423,103
104,test,1,inc,1,m,Fri Feb 21 2025 15:28:43 GMT-0600 (Central Standard Time),444941.5,plum,1100,I,m,m,None,678,478.0,200.0,104,1,2311.800000000745,442629.69999999925,7062,gold,NF,C,436256,436256,434427,435539,434427,436739,436056,436056,436739,104
105,test,1,inc,1,m,Fri Feb 21 2025 15:28:43 GMT-0600 (Central Standard Time),447007.6000000015,lime,800,I,m,m,None,726,527.0,199.0,125,1,2061.900000002235,444945.69999999925,7062,lead,NF,C,438272,438272,436743,437555,436743,438805,438072,438072,438805,105
106,test,1,inc,1,z,Fri Feb 21 2025 15:28:43 GMT-0600 (Central Standard Time),449273.69999999925,cobalt,1100,I,z,z,None,632,432.0,200.0,16,1,2262.5,447011.19999999925,7062,cherry,NF,C,440638,440638,438808,439921,438809,441071,440438,440438,441071,106
107,test,1,con,1,z,Fri Feb 21 2025 15:28:43 GMT-0600 (Central Standard Time),451756.0,lime,1000,I,z,z,None,945,746.0,199.0,35,1,2478.5,449277.5,7062,lime,NF,C,442804,442804,441075,442087,441075,443553,442604,442604,443553,107
108,test,1,con,1,m,Fri Feb 21 2025 15:28:43 GMT-0600 (Central Standard Time),454105.6000000015,silver,1100,I,m,m,None,709,509.0,200.0,84,1,2345.60000000149,451760.0,7062,silver,NF,C,445386,445386,443557,444670,443557,445903,445186,445186,445903,108
109,test,1,con,1,m,Fri Feb 21 2025 15:28:43 GMT-0600 (Central Standard Time),456404.69999999925,bronze,1000,I,m,m,None,755,556.0,199.0,67,1,2294.39999999851,454110.30000000075,7062,bronze,NF,C,447635,447635,445907,446919,445908,448202,447436,447436,448202,109
110,test,1,inc,1,z,Fri Feb 21 2025 15:28:43 GMT-0600 (Central Standard Time),458404.0,bronze,800,I,z,z,None,663,463.0,200.0,29,1,1995.300000000745,456408.69999999925,7062,raisin,NF,C,449735,449735,448206,449018,448206,450201,449535,449535,450201,110
111,test,1,inc,1,m,Fri Feb 21 2025 15:28:43 GMT-0600 (Central Standard Time),460603.40000000224,cherry,900,I,m,m,None,756,556.0,200.0,94,1,2195.2000000029802,458408.19999999925,7062,cobalt,NF,C,451834,451834,450205,451118,450206,452400,451634,451634,452400,111
112,test,1,con,1,m,Fri Feb 21 2025 15:28:43 GMT-0600 (Central Standard Time),462969.40000000224,gold,1000,I,m,m,None,816,617.0,199.0,99,1,2360.5,460608.90000000224,7062,gold,NF,C,454133,454133,452406,453417,452406,454766,453934,453934,454766,112
113,test,1,inc,1,z,Fri Feb 21 2025 15:28:43 GMT-0600 (Central Standard Time),465368.6000000015,lead,1100,I,z,z,None,759,560.0,199.0,40,1,2395.300000000745,462973.30000000075,7062,lime,NF,C,456599,456599,454770,455883,454771,457166,456400,456400,457166,113
114,test,1,con,1,z,Fri Feb 21 2025 15:28:43 GMT-0600 (Central Standard Time),467935.5,raisin,1100,I,z,z,None,927,728.0,199.0,28,1,2563.099999997765,465372.40000000224,7062,raisin,NF,C,458998,458998,457169,458282,457170,459733,458799,458799,459733,114
115,test,1,con,1,z,Fri Feb 21 2025 15:28:43 GMT-0600 (Central Standard Time),470300.40000000224,plum,1100,I,z,z,None,720,521.0,199.0,60,1,2360.900000002235,467939.5,7062,plum,NF,C,461565,461565,459737,460848,459737,462097,461365,461365,462097,115
116,test,1,inc,1,z,Fri Feb 21 2025 15:28:43 GMT-0600 (Central Standard Time),472849.69999999925,cobalt,1100,I,z,z,None,916,717.0,199.0,24,1,2545.5,470304.19999999925,7062,orange,NF,C,463930,463930,462101,463214,462102,464647,463731,463731,464647,116
117,test,1,con,1,m,Fri Feb 21 2025 15:28:43 GMT-0600 (Central Standard Time),474932.40000000224,iron,800,I,m,m,None,738,539.0,199.0,105,1,2079.10000000149,472853.30000000075,7062,iron,NF,C,466180,466180,464650,465463,464651,466730,465980,465980,466729,117
118,test,1,con,1,m,Fri Feb 21 2025 15:28:43 GMT-0600 (Central Standard Time),476831.5,zinc,800,I,m,m,None,560,360.0,200.0,113,1,1895.5,474936.0,7062,zinc,NF,C,468262,468262,466733,467546,466733,468629,468062,468062,468629,118
119,test,1,con,1,z,Fri Feb 21 2025 15:28:43 GMT-0600 (Central Standard Time),478797.6000000015,raisin,800,I,z,z,None,628,428.0,200.0,25,1,1962.6000000014901,476835.0,7062,raisin,NF,C,470162,470162,468632,469445,468632,470595,469962,469962,470595,119
120,test,1,inc,1,m,Fri Feb 21 2025 15:28:43 GMT-0600 (Central Standard Time),480913.69999999925,cherry,900,I,m,m,None,683,483.0,200.0,78,1,2112.199999999255,478801.5,7062,copper,NF,C,472228,472228,470599,471512,470599,472711,472028,472028,472711,120
121,test,1,inc,1,m,Fri Feb 21 2025 15:28:43 GMT-0600 (Central Standard Time),483196.40000000224,pear,900,I,m,m,None,721,522.0,199.0,102,1,2279.0,480917.40000000224,7062,gold,NF,C,474460,474460,472714,473750,472715,474993,474261,474261,474993,121
122,test,1,inc,1,z,Fri Feb 21 2025 15:28:43 GMT-0600 (Central Standard Time),485528.90000000224,lead,1100,I,z,z,None,692,493.0,199.0,64,1,2328.7000000029802,483200.19999999925,7062,plum,NF,C,476826,476826,474997,476110,474998,477326,476627,476627,477326,122
123,test,1,inc,1,z,Fri Feb 21 2025 15:28:43 GMT-0600 (Central Standard Time),487778.19999999925,copper,900,I,z,z,None,807,606.0,201.0,6,1,2245.5,485532.69999999925,7062,banana,NF,C,478960,478960,477330,478243,477330,479575,478759,478759,479575,123
124,test,1,con,1,m,Fri Feb 21 2025 15:28:43 GMT-0600 (Central Standard Time),489910.90000000224,silver,800,I,m,m,None,794,594.0,200.0,81,1,2128.900000002235,487782.0,7062,silver,NF,C,481109,481109,479579,480392,479579,481708,480909,480909,481708,124
125,test,1,inc,1,m,Fri Feb 21 2025 15:28:43 GMT-0600 (Central Standard Time),491993.80000000075,banana,800,I,m,m,None,742,542.0,200.0,85,1,2079.10000000149,489914.69999999925,7062,silver,NF,C,483241,483241,481712,482525,481712,483791,483041,483041,483791,125
126,test,1,inc,1,z,Fri Feb 21 2025 15:28:43 GMT-0600 (Central Standard Time),494226.0,silver,1000,I,z,z,None,697,498.0,199.0,7,1,2228.5,491997.5,7062,banana,NF,C,485524,485524,483795,484807,483795,486023,485324,485324,486023,126
127,test,1,inc,1,m,Fri Feb 21 2025 15:28:43 GMT-0600 (Central Standard Time),496558.69999999925,raisin,1100,I,m,m,None,685,486.0,199.0,96,1,2328.89999999851,494229.80000000075,7062,cobalt,NF,C,487856,487856,486027,487140,486027,488356,487656,487657,488356,127
128,test,1,con,1,z,Fri Feb 21 2025 15:28:43 GMT-0600 (Central Standard Time),498808.19999999925,cherry,1000,I,z,z,None,701,501.0,200.0,11,1,2245.599999997765,496562.6000000015,7062,cherry,NF,C,490089,490089,488360,489373,488360,490605,489889,489889,490605,128
