acc_sum,block,block_c,change,condition,correct,correct_response,datetime,endtime,face,project,response,response_time,row_sel,session_number,start_end,starttime,subject_id,task,task_vers,trial
0,prac,1,,1-Back,,,Wed Feb 26 2025 10:23:56 GMT-0600 (Central Standard Time),,097_m_f_n_a.png,O,space,9014,1,1,,,7068,NNB,B,0
1,prac,1,0.0,1-Back,1,m,Wed Feb 26 2025 10:23:56 GMT-0600 (Central Standard Time),178409.19999998808,152_y_f_n_a.png,O,m,717,2,1,1573.199999988079,176836.0,7068,NNB,B,1
2,prac,1,1.0,1-Back,1,z,Wed Feb 26 2025 10:23:56 GMT-0600 (Central Standard Time),180524.90000000596,152_y_f_n_a.png,O,z,1330,3,1,2110.0,178414.90000000596,7068,NNB,B,2
3,prac,1,0.0,1-Back,1,m,Wed Feb 26 2025 10:23:56 GMT-0600 (Central Standard Time),182657.40000000596,176_o_m_n_a.png,O,m,1259,4,1,2124.9000000059605,180532.5,7068,NNB,B,3
4,prac,1,0.0,1-Back,1,m,Wed Feb 26 2025 10:23:56 GMT-0600 (Central Standard Time),184706.80000001192,126_m_m_n_a.png,O,m,1165,5,1,2043.7000000178814,182663.09999999404,7068,NNB,B,4
5,prac,1,1.0,1-Back,1,z,Wed Feb 26 2025 10:23:56 GMT-0600 (Central Standard Time),186356.40000000596,126_m_m_n_a.png,O,z,863,6,1,1642.300000011921,184714.09999999404,7068,NNB,B,5
6,prac,1,0.0,1-Back,1,m,Wed Feb 26 2025 10:23:56 GMT-0600 (Central Standard Time),188455.80000001192,086_o_f_n_a.png,O,m,1208,7,1,2093.100000023842,186362.69999998808,7068,NNB,B,6
7,prac,1,0.0,1-Back,1,m,Wed Feb 26 2025 10:23:56 GMT-0600 (Central Standard Time),190205.19999998808,178_m_m_n_a.png,O,m,877,8,1,1742.0999999940395,188463.09999999404,7068,NNB,B,7
8,prac,1,0.0,1-Back,1,m,Wed Feb 26 2025 10:23:56 GMT-0600 (Central Standard Time),192021.19999998808,097_m_f_n_a.png,O,m,1037,9,1,1808.3999999761581,190212.80000001192,7068,NNB,B,8
9,prac,1,1.0,1-Back,1,z,Wed Feb 26 2025 10:23:56 GMT-0600 (Central Standard Time),193371.0,097_m_f_n_a.png,O,z,574,10,1,1343.5999999940395,192027.40000000596,7068,NNB,B,9
10,prac,1,0.0,1-Back,1,m,Wed Feb 26 2025 10:23:56 GMT-0600 (Central Standard Time),195003.69999998808,176_o_m_n_a.png,O,m,849,11,1,1626.8999999761581,193376.80000001192,7068,NNB,B,10
10,prac,1,0.0,1-Back,0,m,Wed Feb 26 2025 10:23:56 GMT-0600 (Central Standard Time),196586.19999998808,173_y_f_n_a.png,O,z,711,12,1,1575.3999999761581,195010.80000001192,7068,NNB,B,11
0,test,1,0.0,1-Back,,,Wed Feb 26 2025 10:23:56 GMT-0600 (Central Standard Time),196586.19999998808,152_y_f_n_a.png,O,space,11097,1,1,1575.3999999761581,195010.80000001192,7068,NNB,B,0
1,test,1,0.0,1-Back,1,m,Wed Feb 26 2025 10:23:56 GMT-0600 (Central Standard Time),221679.80000001192,029_m_f_n_a.png,O,m,987,2,1,2010.800000011921,219669.0,7068,NNB,B,1
2,test,1,0.0,1-Back,1,m,Wed Feb 26 2025 10:23:56 GMT-0600 (Central Standard Time),223760.90000000596,173_y_f_n_a.png,O,m,1050,3,1,2076.0999999940395,221684.80000001192,7068,NNB,B,2
3,test,1,1.0,1-Back,1,z,Wed Feb 26 2025 10:23:56 GMT-0600 (Central Standard Time),225493.80000001192,173_y_f_n_a.png,O,z,711,4,1,1727.4000000059605,223766.40000000596,7068,NNB,B,3
4,test,1,0.0,1-Back,1,m,Wed Feb 26 2025 10:23:56 GMT-0600 (Central Standard Time),227276.90000000596,029_m_f_n_a.png,O,m,754,5,1,1778.2000000178814,225498.69999998808,7068,NNB,B,4
5,test,1,0.0,1-Back,1,m,Wed Feb 26 2025 10:23:56 GMT-0600 (Central Standard Time),229159.40000000596,176_o_m_n_a.png,O,m,861,6,1,1876.9000000059605,227282.5,7068,NNB,B,5
6,test,1,1.0,1-Back,1,z,Wed Feb 26 2025 10:23:56 GMT-0600 (Central Standard Time),231125.5,176_o_m_n_a.png,O,z,946,7,1,1961.300000011921,229164.19999998808,7068,NNB,B,6
7,test,1,0.0,1-Back,1,m,Wed Feb 26 2025 10:23:56 GMT-0600 (Central Standard Time),233074.69999998808,126_m_m_n_a.png,O,m,931,8,1,1943.7999999821186,231130.90000000596,7068,NNB,B,7
8,test,1,0.0,1-Back,1,m,Wed Feb 26 2025 10:23:56 GMT-0600 (Central Standard Time),234990.80000001192,086_o_f_n_a.png,O,m,892,9,1,1911.300000011921,233079.5,7068,NNB,B,8
9,test,1,0.0,1-Back,1,m,Wed Feb 26 2025 10:23:56 GMT-0600 (Central Standard Time),237007.0,126_m_m_n_a.png,O,m,993,10,1,2010.5999999940395,234996.40000000596,7068,NNB,B,9
10,test,1,0.0,1-Back,1,m,Wed Feb 26 2025 10:23:56 GMT-0600 (Central Standard Time),238873.0,153_y_m_n_a.png,O,m,833,11,1,1861.4000000059605,237011.59999999404,7068,NNB,B,10
11,test,1,1.0,1-Back,1,z,Wed Feb 26 2025 10:23:56 GMT-0600 (Central Standard Time),240472.5,153_y_m_n_a.png,O,z,576,12,1,1594.5999999940395,238877.90000000596,7068,NNB,B,11
12,test,1,0.0,1-Back,1,m,Wed Feb 26 2025 10:23:56 GMT-0600 (Central Standard Time),242322.0,110_o_f_n_a.png,O,m,816,13,1,1845.0,240477.0,7068,NNB,B,12
13,test,1,1.0,1-Back,1,z,Wed Feb 26 2025 10:23:56 GMT-0600 (Central Standard Time),244121.40000000596,110_o_f_n_a.png,O,z,774,14,1,1795.0,242326.40000000596,7068,NNB,B,13
14,test,1,0.0,1-Back,1,m,Wed Feb 26 2025 10:23:56 GMT-0600 (Central Standard Time),245870.69999998808,013_y_m_n_a.png,O,m,727,15,1,1745.0,244125.69999998808,7068,NNB,B,14
15,test,1,0.0,1-Back,1,m,Wed Feb 26 2025 10:23:56 GMT-0600 (Central Standard Time),247587.19999998808,097_m_f_n_a.png,O,m,698,16,1,1712.3999999761581,245874.80000001192,7068,NNB,B,15
16,test,1,0.0,1-Back,1,m,Wed Feb 26 2025 10:23:56 GMT-0600 (Central Standard Time),249477.69999998808,065_o_m_n_a.png,O,m,873,17,1,1886.0,247591.69999998808,7068,NNB,B,16
17,test,1,0.0,1-Back,1,m,Wed Feb 26 2025 10:23:56 GMT-0600 (Central Standard Time),251369.09999999404,097_m_f_n_a.png,O,m,866,18,1,1885.699999988079,249483.40000000596,7068,NNB,B,17
0,test,2,0.0,1-Back,,,Wed Feb 26 2025 10:23:56 GMT-0600 (Central Standard Time),251369.09999999404,126_m_m_n_a.png,O,space,9120,1,1,1885.699999988079,249483.40000000596,7068,NNB,B,0
1,test,2,0.0,1-Back,1,m,Wed Feb 26 2025 10:23:56 GMT-0600 (Central Standard Time),265131.5,029_m_f_n_a.png,O,m,1588,2,1,2611.199999988079,262520.3000000119,7068,NNB,B,1
2,test,2,1.0,1-Back,1,z,Wed Feb 26 2025 10:23:56 GMT-0600 (Central Standard Time),266847.59999999404,029_m_f_n_a.png,O,z,685,3,1,1711.699999988079,265135.90000000596,7068,NNB,B,2
3,test,2,0.0,1-Back,1,m,Wed Feb 26 2025 10:23:56 GMT-0600 (Central Standard Time),268830.3000000119,126_m_m_n_a.png,O,m,962,4,1,1978.6000000238419,266851.6999999881,7068,NNB,B,3
4,test,2,0.0,1-Back,1,m,Wed Feb 26 2025 10:23:56 GMT-0600 (Central Standard Time),270663.1999999881,153_y_m_n_a.png,O,m,802,5,1,1828.0999999940395,268835.09999999404,7068,NNB,B,4
5,test,2,0.0,1-Back,1,m,Wed Feb 26 2025 10:23:56 GMT-0600 (Central Standard Time),272512.5,152_y_f_n_a.png,O,m,826,6,1,1844.300000011921,270668.1999999881,7068,NNB,B,5
6,test,2,1.0,1-Back,1,z,Wed Feb 26 2025 10:23:56 GMT-0600 (Central Standard Time),274229.0,152_y_f_n_a.png,O,z,697,7,1,1712.5,272516.5,7068,NNB,B,6
7,test,2,0.0,1-Back,1,m,Wed Feb 26 2025 10:23:56 GMT-0600 (Central Standard Time),276011.59999999404,153_y_m_n_a.png,O,m,757,8,1,1778.0999999940395,274233.5,7068,NNB,B,7
8,test,2,0.0,1-Back,1,m,Wed Feb 26 2025 10:23:56 GMT-0600 (Central Standard Time),277827.90000000596,110_o_f_n_a.png,O,m,797,9,1,1812.2000000178814,276015.6999999881,7068,NNB,B,8
9,test,2,0.0,1-Back,1,m,Wed Feb 26 2025 10:23:56 GMT-0600 (Central Standard Time),279577.0,178_m_m_n_a.png,O,m,725,10,1,1745.0999999940395,277831.90000000596,7068,NNB,B,9
10,test,2,1.0,1-Back,1,z,Wed Feb 26 2025 10:23:56 GMT-0600 (Central Standard Time),281327.90000000596,178_m_m_n_a.png,O,z,720,11,1,1746.4000000059605,279581.5,7068,NNB,B,10
11,test,2,0.0,1-Back,1,m,Wed Feb 26 2025 10:23:56 GMT-0600 (Central Standard Time),283142.8000000119,110_o_f_n_a.png,O,m,787,12,1,1810.4000000059605,281332.40000000596,7068,NNB,B,11
12,test,2,0.0,1-Back,1,m,Wed Feb 26 2025 10:23:56 GMT-0600 (Central Standard Time),284909.0,086_o_f_n_a.png,O,m,738,13,1,1762.0,283147.0,7068,NNB,B,12
13,test,2,0.0,1-Back,1,m,Wed Feb 26 2025 10:23:56 GMT-0600 (Central Standard Time),286741.6999999881,176_o_m_n_a.png,O,m,804,14,1,1827.699999988079,284914.0,7068,NNB,B,13
14,test,2,0.0,1-Back,1,m,Wed Feb 26 2025 10:23:56 GMT-0600 (Central Standard Time),288657.90000000596,065_o_m_n_a.png,O,m,884,15,1,1912.0999999940395,286745.8000000119,7068,NNB,B,14
15,test,2,1.0,1-Back,1,z,Wed Feb 26 2025 10:23:56 GMT-0600 (Central Standard Time),290323.6999999881,065_o_m_n_a.png,O,z,648,16,1,1661.2999999821186,288662.40000000596,7068,NNB,B,15
16,test,2,0.0,1-Back,1,m,Wed Feb 26 2025 10:23:56 GMT-0600 (Central Standard Time),292090.09999999404,013_y_m_n_a.png,O,m,733,17,1,1762.4000000059605,290327.6999999881,7068,NNB,B,16
17,test,2,1.0,1-Back,1,z,Wed Feb 26 2025 10:23:56 GMT-0600 (Central Standard Time),293873.09999999404,013_y_m_n_a.png,O,z,759,18,1,1778.5999999940395,292094.5,7068,NNB,B,17
0,test,3,1.0,1-Back,,,Wed Feb 26 2025 10:23:56 GMT-0600 (Central Standard Time),293873.09999999404,173_y_f_n_a.png,O,space,3576,1,1,1778.5999999940395,292094.5,7068,NNB,B,0
1,test,3,0.0,1-Back,1,m,Wed Feb 26 2025 10:23:56 GMT-0600 (Central Standard Time),301353.8000000119,065_o_m_n_a.png,O,m,775,1,1,1795.1000000238419,299558.6999999881,7068,NNB,B,1
2,test,3,1.0,1-Back,1,z,Wed Feb 26 2025 10:23:56 GMT-0600 (Central Standard Time),303086.6999999881,065_o_m_n_a.png,O,z,704,1,1,1728.5,301358.1999999881,7068,NNB,B,2
3,test,3,0.0,1-Back,1,m,Wed Feb 26 2025 10:23:56 GMT-0600 (Central Standard Time),304786.3000000119,097_m_f_n_a.png,O,m,683,1,1,1695.5,303090.8000000119,7068,NNB,B,3
4,test,3,1.0,1-Back,1,z,Wed Feb 26 2025 10:23:56 GMT-0600 (Central Standard Time),306435.40000000596,097_m_f_n_a.png,O,z,631,1,1,1645.800000011921,304789.59999999404,7068,NNB,B,4
5,test,3,0.0,1-Back,1,m,Wed Feb 26 2025 10:23:56 GMT-0600 (Central Standard Time),308301.5,110_o_f_n_a.png,O,m,838,1,1,1861.5,306440.0,7068,NNB,B,5
6,test,3,0.0,1-Back,1,m,Wed Feb 26 2025 10:23:56 GMT-0600 (Central Standard Time),309951.09999999404,153_y_m_n_a.png,O,m,628,1,1,1645.4000000059605,308305.6999999881,7068,NNB,B,6
7,test,3,0.0,1-Back,1,m,Wed Feb 26 2025 10:23:56 GMT-0600 (Central Standard Time),311717.09999999404,110_o_f_n_a.png,O,m,746,1,1,1761.5,309955.59999999404,7068,NNB,B,7
8,test,3,0.0,1-Back,1,m,Wed Feb 26 2025 10:23:56 GMT-0600 (Central Standard Time),313466.3000000119,013_y_m_n_a.png,O,m,732,1,1,1744.7000000178814,311721.59999999404,7068,NNB,B,8
9,test,3,1.0,1-Back,1,z,Wed Feb 26 2025 10:23:56 GMT-0600 (Central Standard Time),315099.5,013_y_m_n_a.png,O,z,615,1,1,1629.0,313470.5,7068,NNB,B,9
10,test,3,0.0,1-Back,1,m,Wed Feb 26 2025 10:23:56 GMT-0600 (Central Standard Time),316882.3000000119,029_m_f_n_a.png,O,m,758,1,1,1778.7000000178814,315103.59999999404,7068,NNB,B,10
11,test,3,0.0,1-Back,1,m,Wed Feb 26 2025 10:23:56 GMT-0600 (Central Standard Time),318514.8000000119,152_y_f_n_a.png,O,m,615,1,1,1628.0,316886.8000000119,7068,NNB,B,11
12,test,3,1.0,1-Back,1,z,Wed Feb 26 2025 10:23:56 GMT-0600 (Central Standard Time),320186.3000000119,152_y_f_n_a.png,O,z,654,1,1,1666.7000000178814,318519.59999999404,7068,NNB,B,12
13,test,3,0.0,1-Back,1,m,Wed Feb 26 2025 10:23:56 GMT-0600 (Central Standard Time),321830.6999999881,029_m_f_n_a.png,O,m,620,1,1,1639.5,320191.1999999881,7068,NNB,B,13
14,test,3,0.0,1-Back,1,m,Wed Feb 26 2025 10:23:56 GMT-0600 (Central Standard Time),323530.09999999404,126_m_m_n_a.png,O,m,666,1,1,1695.699999988079,321834.40000000596,7068,NNB,B,14
15,test,3,1.0,1-Back,1,z,Wed Feb 26 2025 10:23:56 GMT-0600 (Central Standard Time),325179.8000000119,126_m_m_n_a.png,O,z,631,1,1,1645.2000000178814,323534.59999999404,7068,NNB,B,15
16,test,3,0.0,1-Back,1,m,Wed Feb 26 2025 10:23:56 GMT-0600 (Central Standard Time),327029.09999999404,086_o_f_n_a.png,O,m,829,1,1,1845.199999988079,325183.90000000596,7068,NNB,B,16
17,test,3,1.0,1-Back,1,z,Wed Feb 26 2025 10:23:56 GMT-0600 (Central Standard Time),328711.90000000596,086_o_f_n_a.png,O,z,652,1,1,1678.800000011921,327033.09999999404,7068,NNB,B,17
0,test,4,1.0,1-Back,,,Wed Feb 26 2025 10:23:56 GMT-0600 (Central Standard Time),328711.90000000596,097_m_f_n_a.png,O,space,4105,1,1,1678.800000011921,327033.09999999404,7068,NNB,B,0
1,test,4,0.0,1-Back,1,m,Wed Feb 26 2025 10:23:56 GMT-0600 (Central Standard Time),336592.8000000119,065_o_m_n_a.png,O,m,642,2,1,1661.6000000238419,334931.1999999881,7068,NNB,B,1
2,test,4,0.0,1-Back,1,m,Wed Feb 26 2025 10:23:56 GMT-0600 (Central Standard Time),338342.1999999881,097_m_f_n_a.png,O,m,728,3,1,1744.8999999761581,336597.3000000119,7068,NNB,B,2
3,test,4,0.0,1-Back,1,m,Wed Feb 26 2025 10:23:56 GMT-0600 (Central Standard Time),340124.8000000119,110_o_f_n_a.png,O,m,763,4,1,1778.4000000059605,338346.40000000596,7068,NNB,B,3
4,test,4,1.0,1-Back,1,z,Wed Feb 26 2025 10:23:56 GMT-0600 (Central Standard Time),341857.90000000596,110_o_f_n_a.png,O,z,716,5,1,1729.0,340128.90000000596,7068,NNB,B,4
5,test,4,0.0,1-Back,1,m,Wed Feb 26 2025 10:23:56 GMT-0600 (Central Standard Time),343701.09999999404,152_y_f_n_a.png,O,m,826,6,1,1838.5999999940395,341862.5,7068,NNB,B,5
6,test,4,0.0,1-Back,1,m,Wed Feb 26 2025 10:23:56 GMT-0600 (Central Standard Time),345356.59999999404,153_y_m_n_a.png,O,m,630,7,1,1650.5,343706.09999999404,7068,NNB,B,6
7,test,4,1.0,1-Back,1,z,Wed Feb 26 2025 10:23:56 GMT-0600 (Central Standard Time),346989.40000000596,153_y_m_n_a.png,O,z,604,8,1,1628.300000011921,345361.09999999404,7068,NNB,B,7
8,test,4,0.0,1-Back,1,m,Wed Feb 26 2025 10:23:56 GMT-0600 (Central Standard Time),348788.8000000119,152_y_f_n_a.png,O,m,772,9,1,1795.300000011921,346993.5,7068,NNB,B,8
9,test,4,0.0,1-Back,1,m,Wed Feb 26 2025 10:23:56 GMT-0600 (Central Standard Time),350455.0,178_m_m_n_a.png,O,m,636,10,1,1662.4000000059605,348792.59999999404,7068,NNB,B,9
10,test,4,1.0,1-Back,1,z,Wed Feb 26 2025 10:23:56 GMT-0600 (Central Standard Time),351904.6999999881,178_m_m_n_a.png,O,z,418,11,1,1445.0,350459.6999999881,7068,NNB,B,10
11,test,4,0.0,1-Back,1,m,Wed Feb 26 2025 10:23:56 GMT-0600 (Central Standard Time),353637.1999999881,086_o_f_n_a.png,O,m,712,12,1,1728.2999999821186,351908.90000000596,7068,NNB,B,11
12,test,4,0.0,1-Back,1,m,Wed Feb 26 2025 10:23:56 GMT-0600 (Central Standard Time),355453.5,176_o_m_n_a.png,O,m,796,13,1,1811.300000011921,353642.1999999881,7068,NNB,B,12
13,test,4,0.0,1-Back,1,m,Wed Feb 26 2025 10:23:56 GMT-0600 (Central Standard Time),357236.09999999404,086_o_f_n_a.png,O,m,756,14,1,1776.199999988079,355459.90000000596,7068,NNB,B,13
14,test,4,0.0,1-Back,1,m,Wed Feb 26 2025 10:23:56 GMT-0600 (Central Standard Time),359118.90000000596,173_y_f_n_a.png,O,m,861,15,1,1878.0999999940395,357240.8000000119,7068,NNB,B,14
15,test,4,1.0,1-Back,1,z,Wed Feb 26 2025 10:23:56 GMT-0600 (Central Standard Time),360868.3000000119,173_y_f_n_a.png,O,z,730,16,1,1745.9000000059605,359122.40000000596,7068,NNB,B,15
16,test,4,0.0,1-Back,1,m,Wed Feb 26 2025 10:23:56 GMT-0600 (Central Standard Time),362834.6999999881,029_m_f_n_a.png,O,m,940,17,1,1961.8999999761581,360872.8000000119,7068,NNB,B,16
17,test,4,1.0,1-Back,1,z,Wed Feb 26 2025 10:23:56 GMT-0600 (Central Standard Time),364467.3000000119,029_m_f_n_a.png,O,z,614,18,1,1628.2000000178814,362839.09999999404,7068,NNB,B,17
0,test,5,1.0,1-Back,,,Wed Feb 26 2025 10:23:56 GMT-0600 (Central Standard Time),364467.3000000119,176_o_m_n_a.png,O,space,5214,1,1,1628.2000000178814,362839.09999999404,7068,NNB,B,0
1,test,5,1.0,1-Back,1,z,Wed Feb 26 2025 10:23:56 GMT-0600 (Central Standard Time),373614.5,176_o_m_n_a.png,O,z,886,2,1,1911.0,371703.5,7068,NNB,B,1
2,test,5,0.0,1-Back,1,m,Wed Feb 26 2025 10:23:56 GMT-0600 (Central Standard Time),375497.1999999881,152_y_f_n_a.png,O,m,859,3,1,1879.0,373618.1999999881,7068,NNB,B,2
3,test,5,0.0,1-Back,1,m,Wed Feb 26 2025 10:23:56 GMT-0600 (Central Standard Time),377213.40000000596,153_y_m_n_a.png,O,m,696,4,1,1712.300000011921,375501.09999999404,7068,NNB,B,3
4,test,5,0.0,1-Back,1,m,Wed Feb 26 2025 10:23:56 GMT-0600 (Central Standard Time),379129.59999999404,152_y_f_n_a.png,O,m,892,5,1,1912.199999988079,377217.40000000596,7068,NNB,B,4
5,test,5,0.0,1-Back,1,m,Wed Feb 26 2025 10:23:56 GMT-0600 (Central Standard Time),380895.59999999404,126_m_m_n_a.png,O,m,744,6,1,1761.5999999940395,379134.0,7068,NNB,B,5
6,test,5,1.0,1-Back,1,z,Wed Feb 26 2025 10:23:56 GMT-0600 (Central Standard Time),382561.6999999881,126_m_m_n_a.png,O,z,642,7,1,1661.7999999821186,380899.90000000596,7068,NNB,B,6
7,test,5,0.0,1-Back,1,m,Wed Feb 26 2025 10:23:56 GMT-0600 (Central Standard Time),384427.8000000119,173_y_f_n_a.png,O,m,848,8,1,1861.6000000238419,382566.1999999881,7068,NNB,B,7
8,test,5,0.0,1-Back,1,m,Wed Feb 26 2025 10:23:56 GMT-0600 (Central Standard Time),386094.0,013_y_m_n_a.png,O,m,645,9,1,1662.0,384432.0,7068,NNB,B,8
9,test,5,0.0,1-Back,1,m,Wed Feb 26 2025 10:23:56 GMT-0600 (Central Standard Time),388026.40000000596,173_y_f_n_a.png,O,m,899,10,1,1929.0,386097.40000000596,7068,NNB,B,9
10,test,5,0.0,1-Back,1,m,Wed Feb 26 2025 10:23:56 GMT-0600 (Central Standard Time),389876.09999999404,086_o_f_n_a.png,O,m,829,11,1,1845.0,388031.09999999404,7068,NNB,B,10
11,test,5,1.0,1-Back,1,z,Wed Feb 26 2025 10:23:56 GMT-0600 (Central Standard Time),391575.59999999404,086_o_f_n_a.png,O,z,665,12,1,1695.0,389880.59999999404,7068,NNB,B,11
12,test,5,0.0,1-Back,1,m,Wed Feb 26 2025 10:23:56 GMT-0600 (Central Standard Time),393358.1999999881,065_o_m_n_a.png,O,m,762,13,1,1778.5999999940395,391579.59999999404,7068,NNB,B,12
13,test,5,0.0,1-Back,1,m,Wed Feb 26 2025 10:23:56 GMT-0600 (Central Standard Time),395057.8000000119,097_m_f_n_a.png,O,m,667,14,1,1695.300000011921,393362.5,7068,NNB,B,13
14,test,5,1.0,1-Back,1,z,Wed Feb 26 2025 10:23:56 GMT-0600 (Central Standard Time),396740.40000000596,097_m_f_n_a.png,O,z,663,15,1,1678.5,395061.90000000596,7068,NNB,B,14
15,test,5,0.0,1-Back,1,m,Wed Feb 26 2025 10:23:56 GMT-0600 (Central Standard Time),398456.59999999404,065_o_m_n_a.png,O,m,685,16,1,1712.7999999821186,396743.8000000119,7068,NNB,B,15
16,test,5,0.0,1-Back,1,m,Wed Feb 26 2025 10:23:56 GMT-0600 (Central Standard Time),400372.8000000119,029_m_f_n_a.png,O,m,896,17,1,1912.1000000238419,398460.6999999881,7068,NNB,B,16
17,test,5,0.0,1-Back,1,m,Wed Feb 26 2025 10:23:56 GMT-0600 (Central Standard Time),402372.0,178_m_m_n_a.png,O,m,980,18,1,1995.0999999940395,400376.90000000596,7068,NNB,B,17
0,prac,1,0.0,2-Back,,,Wed Feb 26 2025 10:23:56 GMT-0600 (Central Standard Time),402372.0,013_y_m_n_a.png,O,space,8121,1,1,1995.0999999940395,400376.90000000596,7068,NNB,B,0
0,prac,1,0.0,2-Back,,,Wed Feb 26 2025 10:23:56 GMT-0600 (Central Standard Time),402372.0,029_m_f_n_a.png,O,space,8121,2,1,1995.0999999940395,400376.90000000596,7068,NNB,B,0
1,prac,1,1.0,2-Back,1,m,Wed Feb 26 2025 10:23:56 GMT-0600 (Central Standard Time),541162.1999999881,065_o_m_n_a.png,O,m,1213,3,1,2076.2999999821186,539085.900000006,7068,NNB,B,1
1,prac,1,0.0,2-Back,0,m,Wed Feb 26 2025 10:23:56 GMT-0600 (Central Standard Time),544061.099999994,086_o_f_n_a.png,O,None,2003,4,1,2891.7999999821186,541169.3000000119,7068,NNB,B,2
1,prac,1,0.0,2-Back,0,z,Wed Feb 26 2025 10:23:56 GMT-0600 (Central Standard Time),546843.6999999881,065_o_m_n_a.png,O,None,2009,5,1,2776.2999999821186,544067.400000006,7068,NNB,B,3
1,prac,1,1.0,2-Back,0,z,Wed Feb 26 2025 10:23:56 GMT-0600 (Central Standard Time),549625.900000006,086_o_f_n_a.png,O,None,2009,6,1,2775.5999999940395,546850.3000000119,7068,NNB,B,4
1,prac,1,0.0,2-Back,0,m,Wed Feb 26 2025 10:23:56 GMT-0600 (Central Standard Time),552508.400000006,178_m_m_n_a.png,O,None,2016,7,1,2876.0999999940395,549632.3000000119,7068,NNB,B,5
1,prac,1,0.0,2-Back,0,m,Wed Feb 26 2025 10:23:56 GMT-0600 (Central Standard Time),555471.900000006,176_o_m_n_a.png,O,None,2013,8,1,2957.800000011921,552514.099999994,7068,NNB,B,6
1,prac,1,0.0,2-Back,0,m,Wed Feb 26 2025 10:23:56 GMT-0600 (Central Standard Time),558340.099999994,173_y_f_n_a.png,O,None,2006,9,1,2861.5,555478.599999994,7068,NNB,B,7
1,prac,1,1.0,2-Back,0,z,Wed Feb 26 2025 10:23:56 GMT-0600 (Central Standard Time),561122.5,176_o_m_n_a.png,O,None,2009,10,1,2775.9000000059605,558346.599999994,7068,NNB,B,8
1,prac,1,0.0,2-Back,0,m,Wed Feb 26 2025 10:23:56 GMT-0600 (Central Standard Time),563988.3000000119,152_y_f_n_a.png,O,None,2005,11,1,2858.800000011921,561129.5,7068,NNB,B,9
1,prac,1,0.0,2-Back,0,m,Wed Feb 26 2025 10:23:56 GMT-0600 (Central Standard Time),566770.900000006,178_m_m_n_a.png,O,None,2009,12,1,2776.300000011921,563994.599999994,7068,NNB,B,10
0,prac,2,0.0,2-Back,,,Wed Feb 26 2025 10:23:56 GMT-0600 (Central Standard Time),566770.900000006,013_y_m_n_a.png,O,a,31820,1,1,2776.300000011921,563994.599999994,7068,NNB,B,0
0,prac,2,0.0,2-Back,,,Wed Feb 26 2025 10:23:56 GMT-0600 (Central Standard Time),566770.900000006,029_m_f_n_a.png,O,a,31820,2,1,2776.300000011921,563994.599999994,7068,NNB,B,0
1,prac,2,1.0,2-Back,1,m,Wed Feb 26 2025 10:23:56 GMT-0600 (Central Standard Time),606525.0,065_o_m_n_a.png,O,m,1793,3,1,2660.5,603864.5,7068,NNB,B,1
1,prac,2,0.0,2-Back,0,m,Wed Feb 26 2025 10:23:56 GMT-0600 (Central Standard Time),609424.3000000119,086_o_f_n_a.png,O,None,2011,4,1,2892.600000023842,606531.6999999881,7068,NNB,B,2
1,prac,2,0.0,2-Back,0,z,Wed Feb 26 2025 10:23:56 GMT-0600 (Central Standard Time),612206.5,065_o_m_n_a.png,O,None,2010,5,1,2776.9000000059605,609429.599999994,7068,NNB,B,3
2,prac,2,1.0,2-Back,1,z,Wed Feb 26 2025 10:23:56 GMT-0600 (Central Standard Time),614605.900000006,086_o_f_n_a.png,O,z,1612,6,1,2393.0,612212.900000006,7068,NNB,B,4
3,prac,2,0.0,2-Back,1,m,Wed Feb 26 2025 10:23:56 GMT-0600 (Central Standard Time),616788.5,178_m_m_n_a.png,O,m,1312,7,1,2176.199999988079,614612.3000000119,7068,NNB,B,5
4,prac,2,0.0,2-Back,1,m,Wed Feb 26 2025 10:23:56 GMT-0600 (Central Standard Time),618754.6999999881,176_o_m_n_a.png,O,m,1095,8,1,1960.699999988079,616794.0,7068,NNB,B,6
5,prac,2,0.0,2-Back,1,m,Wed Feb 26 2025 10:23:56 GMT-0600 (Central Standard Time),620504.0,173_y_f_n_a.png,O,m,881,9,1,1743.300000011921,618760.6999999881,7068,NNB,B,7
5,prac,2,1.0,2-Back,0,z,Wed Feb 26 2025 10:23:56 GMT-0600 (Central Standard Time),622403.3000000119,176_o_m_n_a.png,O,m,1122,10,1,1892.2000000178814,620511.099999994,7068,NNB,B,8
6,prac,2,0.0,2-Back,1,m,Wed Feb 26 2025 10:23:56 GMT-0600 (Central Standard Time),624852.6999999881,152_y_f_n_a.png,O,m,1576,11,1,2442.899999976158,622409.8000000119,7068,NNB,B,9
6,prac,2,0.0,2-Back,0,m,Wed Feb 26 2025 10:23:56 GMT-0600 (Central Standard Time),627035.400000006,178_m_m_n_a.png,O,z,1421,12,1,2177.0999999940395,624858.3000000119,7068,NNB,B,10
0,test,1,0.0,2-Back,,,Wed Feb 26 2025 10:23:56 GMT-0600 (Central Standard Time),627035.400000006,153_y_m_n_a.png,O,space,13620,1,1,2177.0999999940395,624858.3000000119,7068,NNB,B,0
0,test,1,0.0,2-Back,,,Wed Feb 26 2025 10:23:56 GMT-0600 (Central Standard Time),627035.400000006,153_y_m_n_a.png,O,space,13620,2,1,2177.0999999940395,624858.3000000119,7068,NNB,B,0
1,test,1,0.0,2-Back,1,m,Wed Feb 26 2025 10:23:56 GMT-0600 (Central Standard Time),660408.1999999881,086_o_f_n_a.png,O,m,1018,3,1,2045.199999988079,658363.0,7068,NNB,B,1
2,test,1,0.0,2-Back,1,m,Wed Feb 26 2025 10:23:56 GMT-0600 (Central Standard Time),662957.1999999881,126_m_m_n_a.png,O,m,1529,4,1,2544.699999988079,660412.5,7068,NNB,B,2
3,test,1,1.0,2-Back,1,z,Wed Feb 26 2025 10:23:56 GMT-0600 (Central Standard Time),664656.8000000119,086_o_f_n_a.png,O,z,676,5,1,1695.6000000238419,662961.1999999881,7068,NNB,B,3
4,test,1,0.0,2-Back,1,m,Wed Feb 26 2025 10:23:56 GMT-0600 (Central Standard Time),666722.6999999881,152_y_f_n_a.png,O,m,1040,6,1,2062.5,664660.1999999881,7068,NNB,B,4
4,test,1,0.0,2-Back,0,m,Wed Feb 26 2025 10:23:56 GMT-0600 (Central Standard Time),669005.3000000119,126_m_m_n_a.png,O,z,1262,7,1,2278.600000023842,666726.6999999881,7068,NNB,B,5
5,test,1,1.0,2-Back,1,z,Wed Feb 26 2025 10:23:56 GMT-0600 (Central Standard Time),670988.099999994,152_y_f_n_a.png,O,z,956,8,1,1979.0,669009.099999994,7068,NNB,B,6
6,test,1,0.0,2-Back,1,m,Wed Feb 26 2025 10:23:56 GMT-0600 (Central Standard Time),673121.6999999881,013_y_m_n_a.png,O,m,1109,9,1,2129.699999988079,670992.0,7068,NNB,B,7
7,test,1,0.0,2-Back,1,m,Wed Feb 26 2025 10:23:56 GMT-0600 (Central Standard Time),675536.599999994,110_o_f_n_a.png,O,m,1384,10,1,2410.9000000059605,673125.6999999881,7068,NNB,B,8
8,test,1,1.0,2-Back,1,z,Wed Feb 26 2025 10:23:56 GMT-0600 (Central Standard Time),677386.1999999881,013_y_m_n_a.png,O,z,824,11,1,1845.8999999761581,675540.3000000119,7068,NNB,B,9
9,test,1,0.0,2-Back,1,m,Wed Feb 26 2025 10:23:56 GMT-0600 (Central Standard Time),679368.8000000119,029_m_f_n_a.png,O,m,951,12,1,1978.2000000178814,677390.599999994,7068,NNB,B,10
9,test,1,0.0,2-Back,0,m,Wed Feb 26 2025 10:23:56 GMT-0600 (Central Standard Time),681834.6999999881,029_m_f_n_a.png,O,z,1440,13,1,2461.899999976158,679372.8000000119,7068,NNB,B,11
10,test,1,0.0,2-Back,1,m,Wed Feb 26 2025 10:23:56 GMT-0600 (Central Standard Time),684167.3000000119,065_o_m_n_a.png,O,m,1310,14,1,2329.100000023842,681838.1999999881,7068,NNB,B,12
11,test,1,0.0,2-Back,1,m,Wed Feb 26 2025 10:23:56 GMT-0600 (Central Standard Time),686250.099999994,110_o_f_n_a.png,O,m,1050,15,1,2078.5999999940395,684171.5,7068,NNB,B,13
12,test,1,1.0,2-Back,1,z,Wed Feb 26 2025 10:23:56 GMT-0600 (Central Standard Time),688066.1999999881,065_o_m_n_a.png,O,z,783,16,1,1812.0999999940395,686254.099999994,7068,NNB,B,14
13,test,1,0.0,2-Back,1,m,Wed Feb 26 2025 10:23:56 GMT-0600 (Central Standard Time),689932.3000000119,097_m_f_n_a.png,O,m,839,17,1,1861.7000000178814,688070.599999994,7068,NNB,B,15
14,test,1,0.0,2-Back,1,m,Wed Feb 26 2025 10:23:56 GMT-0600 (Central Standard Time),692098.0,178_m_m_n_a.png,O,m,1133,18,1,2162.5,689935.5,7068,NNB,B,16
0,test,2,0.0,2-Back,,,Wed Feb 26 2025 10:23:56 GMT-0600 (Central Standard Time),692098.0,178_m_m_n_a.png,O,space,10271,1,1,2162.5,689935.5,7068,NNB,B,0
0,test,2,0.0,2-Back,,,Wed Feb 26 2025 10:23:56 GMT-0600 (Central Standard Time),692098.0,173_y_f_n_a.png,O,space,10271,2,1,2162.5,689935.5,7068,NNB,B,0
1,test,2,1.0,2-Back,1,z,Wed Feb 26 2025 10:23:56 GMT-0600 (Central Standard Time),709592.6999999881,178_m_m_n_a.png,O,z,1051,3,1,2078.399999976158,707514.3000000119,7068,NNB,B,1
2,test,2,0.0,2-Back,1,m,Wed Feb 26 2025 10:23:56 GMT-0600 (Central Standard Time),711642.099999994,097_m_f_n_a.png,O,m,1016,4,1,2045.4000000059605,709596.6999999881,7068,NNB,B,2
2,test,2,0.0,2-Back,0,m,Wed Feb 26 2025 10:23:56 GMT-0600 (Central Standard Time),714324.6999999881,173_y_f_n_a.png,O,z,1655,5,1,2678.699999988079,711646.0,7068,NNB,B,3
3,test,2,0.0,2-Back,1,m,Wed Feb 26 2025 10:23:56 GMT-0600 (Central Standard Time),716190.599999994,065_o_m_n_a.png,O,m,837,6,1,1861.5,714329.099999994,7068,NNB,B,4
4,test,2,0.0,2-Back,1,m,Wed Feb 26 2025 10:23:56 GMT-0600 (Central Standard Time),718290.0,152_y_f_n_a.png,O,m,1075,7,1,2095.5,716194.5,7068,NNB,B,5
5,test,2,1.0,2-Back,1,z,Wed Feb 26 2025 10:23:56 GMT-0600 (Central Standard Time),720572.3000000119,065_o_m_n_a.png,O,z,1255,8,1,2279.0,718293.3000000119,7068,NNB,B,6
6,test,2,0.0,2-Back,1,m,Wed Feb 26 2025 10:23:56 GMT-0600 (Central Standard Time),723071.599999994,013_y_m_n_a.png,O,m,1476,9,1,2495.0999999940395,720576.5,7068,NNB,B,7
6,test,2,0.0,2-Back,0,m,Wed Feb 26 2025 10:23:56 GMT-0600 (Central Standard Time),725437.6999999881,013_y_m_n_a.png,O,z,1337,10,1,2362.5,723075.1999999881,7068,NNB,B,8
7,test,2,0.0,2-Back,1,m,Wed Feb 26 2025 10:23:56 GMT-0600 (Central Standard Time),727737.099999994,029_m_f_n_a.png,O,m,1275,11,1,2295.2999999821186,725441.8000000119,7068,NNB,B,9
7,test,2,0.0,2-Back,0,m,Wed Feb 26 2025 10:23:56 GMT-0600 (Central Standard Time),730769.5,173_y_f_n_a.png,O,None,2015,12,1,3028.5999999940395,727740.900000006,7068,NNB,B,10
7,test,2,1.0,2-Back,0,z,Wed Feb 26 2025 10:23:56 GMT-0600 (Central Standard Time),733768.5,029_m_f_n_a.png,O,m,1976,13,1,2995.0,730773.5,7068,NNB,B,11
8,test,2,0.0,2-Back,1,m,Wed Feb 26 2025 10:23:56 GMT-0600 (Central Standard Time),736351.099999994,176_o_m_n_a.png,O,m,1560,14,1,2579.2999999821186,733771.8000000119,7068,NNB,B,12
8,test,2,0.0,2-Back,0,m,Wed Feb 26 2025 10:23:56 GMT-0600 (Central Standard Time),738800.3000000119,176_o_m_n_a.png,O,z,1427,15,1,2444.4000000059605,736355.900000006,7068,NNB,B,13
9,test,2,0.0,2-Back,1,m,Wed Feb 26 2025 10:23:56 GMT-0600 (Central Standard Time),741632.6999999881,110_o_f_n_a.png,O,m,1809,16,1,2828.7999999821186,738803.900000006,7068,NNB,B,14
9,test,2,0.0,2-Back,0,m,Wed Feb 26 2025 10:23:56 GMT-0600 (Central Standard Time),744665.1999999881,126_m_m_n_a.png,O,None,2016,17,1,3028.199999988079,741637.0,7068,NNB,B,15
10,test,2,1.0,2-Back,1,z,Wed Feb 26 2025 10:23:56 GMT-0600 (Central Standard Time),746614.5,110_o_f_n_a.png,O,z,920,18,1,1945.5,744669.0,7068,NNB,B,16
0,test,3,1.0,2-Back,,,Wed Feb 26 2025 10:23:56 GMT-0600 (Central Standard Time),746614.5,153_y_m_n_a.png,O,space,6403,1,1,1945.5,744669.0,7068,NNB,B,0
0,test,3,1.0,2-Back,,,Wed Feb 26 2025 10:23:56 GMT-0600 (Central Standard Time),746614.5,153_y_m_n_a.png,O,space,6403,2,1,1945.5,744669.0,7068,NNB,B,0
1,test,3,0.0,2-Back,1,m,Wed Feb 26 2025 10:23:56 GMT-0600 (Central Standard Time),760443.599999994,110_o_f_n_a.png,O,m,1256,3,1,2278.7999999821186,758164.8000000119,7068,NNB,B,1
2,test,3,0.0,2-Back,1,m,Wed Feb 26 2025 10:23:56 GMT-0600 (Central Standard Time),762892.8000000119,178_m_m_n_a.png,O,m,1422,4,1,2445.100000023842,760447.6999999881,7068,NNB,B,2
3,test,3,1.0,2-Back,1,z,Wed Feb 26 2025 10:23:56 GMT-0600 (Central Standard Time),764692.3000000119,110_o_f_n_a.png,O,z,772,5,1,1795.9000000059605,762896.400000006,7068,NNB,B,3
4,test,3,0.0,2-Back,1,m,Wed Feb 26 2025 10:23:56 GMT-0600 (Central Standard Time),766858.400000006,013_y_m_n_a.png,O,m,1141,6,1,2162.2000000178814,764696.1999999881,7068,NNB,B,4
4,test,3,0.0,2-Back,0,m,Wed Feb 26 2025 10:23:56 GMT-0600 (Central Standard Time),768807.6999999881,178_m_m_n_a.png,O,z,919,7,1,1945.2999999821186,766862.400000006,7068,NNB,B,5
4,test,3,1.0,2-Back,0,z,Wed Feb 26 2025 10:23:56 GMT-0600 (Central Standard Time),771073.400000006,013_y_m_n_a.png,O,m,1241,8,1,2261.9000000059605,768811.5,7068,NNB,B,6
4,test,3,0.0,2-Back,0,m,Wed Feb 26 2025 10:23:56 GMT-0600 (Central Standard Time),774072.400000006,173_y_f_n_a.png,O,z,1968,9,1,2995.0,771077.400000006,7068,NNB,B,7
5,test,3,0.0,2-Back,1,m,Wed Feb 26 2025 10:23:56 GMT-0600 (Central Standard Time),776438.5,126_m_m_n_a.png,O,m,1337,10,1,2362.300000011921,774076.1999999881,7068,NNB,B,8
6,test,3,1.0,2-Back,1,z,Wed Feb 26 2025 10:23:56 GMT-0600 (Central Standard Time),778737.8000000119,173_y_f_n_a.png,O,z,1267,11,1,2295.2000000178814,776442.599999994,7068,NNB,B,9
7,test,3,1.0,2-Back,1,z,Wed Feb 26 2025 10:23:56 GMT-0600 (Central Standard Time),780853.900000006,126_m_m_n_a.png,O,z,1088,12,1,2111.800000011921,778742.099999994,7068,NNB,B,10
8,test,3,0.0,2-Back,1,m,Wed Feb 26 2025 10:23:56 GMT-0600 (Central Standard Time),783086.3000000119,110_o_f_n_a.png,O,m,1211,13,1,2228.2000000178814,780858.099999994,7068,NNB,B,11
8,test,3,0.0,2-Back,0,m,Wed Feb 26 2025 10:23:56 GMT-0600 (Central Standard Time),786119.0,097_m_f_n_a.png,O,None,2016,14,1,3029.4000000059605,783089.599999994,7068,NNB,B,12
9,test,3,0.0,2-Back,1,m,Wed Feb 26 2025 10:23:56 GMT-0600 (Central Standard Time),788135.0,065_o_m_n_a.png,O,m,994,15,1,2012.199999988079,786122.8000000119,7068,NNB,B,13
10,test,3,1.0,2-Back,1,z,Wed Feb 26 2025 10:23:56 GMT-0600 (Central Standard Time),789767.599999994,097_m_f_n_a.png,O,z,602,16,1,1629.0,788138.599999994,7068,NNB,B,14
11,test,3,0.0,2-Back,1,m,Wed Feb 26 2025 10:23:56 GMT-0600 (Central Standard Time),791750.5,086_o_f_n_a.png,O,m,962,17,1,1978.800000011921,789771.6999999881,7068,NNB,B,15
11,test,3,0.0,2-Back,0,m,Wed Feb 26 2025 10:23:56 GMT-0600 (Central Standard Time),794066.5,086_o_f_n_a.png,O,z,1299,18,1,2312.199999988079,791754.3000000119,7068,NNB,B,16
0,test,4,0.0,2-Back,,,Wed Feb 26 2025 10:23:56 GMT-0600 (Central Standard Time),794066.5,176_o_m_n_a.png,O,space,6767,1,1,2312.199999988079,791754.3000000119,7068,NNB,B,0
0,test,4,0.0,2-Back,,,Wed Feb 26 2025 10:23:56 GMT-0600 (Central Standard Time),794066.5,152_y_f_n_a.png,O,space,6767,2,1,2312.199999988079,791754.3000000119,7068,NNB,B,0
1,test,4,1.0,2-Back,1,z,Wed Feb 26 2025 10:23:56 GMT-0600 (Central Standard Time),808012.3000000119,176_o_m_n_a.png,O,z,922,3,1,1945.2000000178814,806067.099999994,7068,NNB,B,1
2,test,4,1.0,2-Back,1,z,Wed Feb 26 2025 10:23:56 GMT-0600 (Central Standard Time),809944.6999999881,152_y_f_n_a.png,O,z,909,4,1,1928.3999999761581,808016.3000000119,7068,NNB,B,2
3,test,4,0.0,2-Back,1,m,Wed Feb 26 2025 10:23:56 GMT-0600 (Central Standard Time),812628.400000006,110_o_f_n_a.png,O,m,1664,5,1,2679.800000011921,809948.599999994,7068,NNB,B,3
3,test,4,0.0,2-Back,0,m,Wed Feb 26 2025 10:23:56 GMT-0600 (Central Standard Time),814749.3000000119,110_o_f_n_a.png,O,z,1089,6,1,2116.800000011921,812632.5,7068,NNB,B,4
4,test,4,0.0,2-Back,1,m,Wed Feb 26 2025 10:23:56 GMT-0600 (Central Standard Time),816992.400000006,029_m_f_n_a.png,O,m,1218,7,1,2239.5999999940395,814752.8000000119,7068,NNB,B,5
5,test,4,0.0,2-Back,1,m,Wed Feb 26 2025 10:23:56 GMT-0600 (Central Standard Time),818941.900000006,013_y_m_n_a.png,O,m,929,8,1,1946.2000000178814,816995.6999999881,7068,NNB,B,6
6,test,4,1.0,2-Back,1,z,Wed Feb 26 2025 10:23:56 GMT-0600 (Central Standard Time),821457.5,029_m_f_n_a.png,O,z,1492,9,1,2512.4000000059605,818945.099999994,7068,NNB,B,7
7,test,4,0.0,2-Back,1,m,Wed Feb 26 2025 10:23:56 GMT-0600 (Central Standard Time),823790.400000006,126_m_m_n_a.png,O,m,1312,10,1,2328.800000011921,821461.599999994,7068,NNB,B,8
7,test,4,0.0,2-Back,0,m,Wed Feb 26 2025 10:23:56 GMT-0600 (Central Standard Time),826073.099999994,013_y_m_n_a.png,O,z,1259,11,1,2278.7999999821186,823794.3000000119,7068,NNB,B,9
8,test,4,0.0,2-Back,1,m,Wed Feb 26 2025 10:23:56 GMT-0600 (Central Standard Time),828289.0,086_o_f_n_a.png,O,m,1192,12,1,2212.0,826077.0,7068,NNB,B,10
9,test,4,0.0,2-Back,1,m,Wed Feb 26 2025 10:23:56 GMT-0600 (Central Standard Time),830304.8000000119,153_y_m_n_a.png,O,m,993,13,1,2011.6000000238419,828293.1999999881,7068,NNB,B,11
10,test,4,1.0,2-Back,1,z,Wed Feb 26 2025 10:23:56 GMT-0600 (Central Standard Time),831987.8000000119,086_o_f_n_a.png,O,z,657,14,1,1678.4000000059605,830309.400000006,7068,NNB,B,12
11,test,4,1.0,2-Back,1,z,Wed Feb 26 2025 10:23:56 GMT-0600 (Central Standard Time),833770.599999994,153_y_m_n_a.png,O,z,758,15,1,1779.0999999940395,831991.5,7068,NNB,B,13
12,test,4,0.0,2-Back,1,m,Wed Feb 26 2025 10:23:56 GMT-0600 (Central Standard Time),836403.099999994,178_m_m_n_a.png,O,m,1608,16,1,2628.199999988079,833774.900000006,7068,NNB,B,14
13,test,4,0.0,2-Back,1,m,Wed Feb 26 2025 10:23:56 GMT-0600 (Central Standard Time),838719.099999994,097_m_f_n_a.png,O,m,1286,17,1,2311.9000000059605,836407.1999999881,7068,NNB,B,15
14,test,4,1.0,2-Back,1,z,Wed Feb 26 2025 10:23:56 GMT-0600 (Central Standard Time),840518.400000006,178_m_m_n_a.png,O,z,779,18,1,1795.4000000059605,838723.0,7068,NNB,B,16
0,test,5,1.0,2-Back,,,Wed Feb 26 2025 10:23:56 GMT-0600 (Central Standard Time),840518.400000006,153_y_m_n_a.png,O,space,8804,1,1,1795.4000000059605,838723.0,7068,NNB,B,0
0,test,5,1.0,2-Back,,,Wed Feb 26 2025 10:23:56 GMT-0600 (Central Standard Time),840518.400000006,097_m_f_n_a.png,O,space,8804,2,1,1795.4000000059605,838723.0,7068,NNB,B,0
1,test,5,1.0,2-Back,1,z,Wed Feb 26 2025 10:23:56 GMT-0600 (Central Standard Time),856196.8000000119,153_y_m_n_a.png,O,z,797,3,1,1812.2000000178814,854384.599999994,7068,NNB,B,1
2,test,5,1.0,2-Back,1,z,Wed Feb 26 2025 10:23:56 GMT-0600 (Central Standard Time),858012.900000006,097_m_f_n_a.png,O,z,797,4,1,1812.2000000178814,856200.6999999881,7068,NNB,B,2
3,test,5,0.0,2-Back,1,m,Wed Feb 26 2025 10:23:56 GMT-0600 (Central Standard Time),860095.6999999881,086_o_f_n_a.png,O,m,1060,5,1,2079.0,858016.6999999881,7068,NNB,B,3
4,test,5,0.0,2-Back,1,m,Wed Feb 26 2025 10:23:56 GMT-0600 (Central Standard Time),862444.900000006,153_y_m_n_a.png,O,m,1321,6,1,2345.300000011921,860099.599999994,7068,NNB,B,4
5,test,5,0.0,2-Back,1,m,Wed Feb 26 2025 10:23:56 GMT-0600 (Central Standard Time),864794.400000006,173_y_f_n_a.png,O,m,1316,7,1,2345.2000000178814,862449.1999999881,7068,NNB,B,5
5,test,5,0.0,2-Back,0,m,Wed Feb 26 2025 10:23:56 GMT-0600 (Central Standard Time),866560.5,086_o_f_n_a.png,O,z,743,8,1,1762.199999988079,864798.3000000119,7068,NNB,B,6
6,test,5,1.0,2-Back,1,z,Wed Feb 26 2025 10:23:56 GMT-0600 (Central Standard Time),868593.099999994,173_y_f_n_a.png,O,z,1001,9,1,2028.7999999821186,866564.3000000119,7068,NNB,B,7
7,test,5,0.0,2-Back,1,m,Wed Feb 26 2025 10:23:56 GMT-0600 (Central Standard Time),870542.400000006,065_o_m_n_a.png,O,m,928,10,1,1945.7000000178814,868596.6999999881,7068,NNB,B,8
8,test,5,0.0,2-Back,1,m,Wed Feb 26 2025 10:23:56 GMT-0600 (Central Standard Time),872591.6999999881,029_m_f_n_a.png,O,m,1028,11,1,2045.2999999821186,870546.400000006,7068,NNB,B,9
9,test,5,0.0,2-Back,1,m,Wed Feb 26 2025 10:23:56 GMT-0600 (Central Standard Time),875374.400000006,126_m_m_n_a.png,O,m,1761,12,1,2778.7000000178814,872595.6999999881,7068,NNB,B,10
9,test,5,0.0,2-Back,0,m,Wed Feb 26 2025 10:23:56 GMT-0600 (Central Standard Time),878406.6999999881,065_o_m_n_a.png,O,None,2016,13,1,3028.2999999821186,875378.400000006,7068,NNB,B,11
10,test,5,1.0,2-Back,1,z,Wed Feb 26 2025 10:23:56 GMT-0600 (Central Standard Time),880322.599999994,126_m_m_n_a.png,O,z,898,14,1,1912.0999999940395,878410.5,7068,NNB,B,12
11,test,5,0.0,2-Back,1,m,Wed Feb 26 2025 10:23:56 GMT-0600 (Central Standard Time),882305.400000006,152_y_f_n_a.png,O,m,950,15,1,1979.0,880326.400000006,7068,NNB,B,13
12,test,5,0.0,2-Back,1,m,Wed Feb 26 2025 10:23:56 GMT-0600 (Central Standard Time),884371.1999999881,176_o_m_n_a.png,O,m,1048,16,1,2062.0999999940395,882309.099999994,7068,NNB,B,14
13,test,5,0.0,2-Back,1,m,Wed Feb 26 2025 10:23:56 GMT-0600 (Central Standard Time),886803.900000006,029_m_f_n_a.png,O,m,1411,17,1,2428.9000000059605,884375.0,7068,NNB,B,15
14,test,5,1.0,2-Back,1,z,Wed Feb 26 2025 10:23:56 GMT-0600 (Central Standard Time),888670.3000000119,176_o_m_n_a.png,O,z,838,18,1,1862.4000000059605,886807.900000006,7068,NNB,B,16
