acc_sum,block,block_c,change,condition,correct,correct_response,datetime,endtime,face,project,response,response_time,row_sel,session_number,start_end,starttime,subject_id,task,task_vers,trial
0,prac,1,,1-Back,,,Wed Apr 09 2025 12:42:36 GMT-0500 (Central Daylight Time),,124_o_f_d_a.png,O,space,7197,1,1,,,7125,VNB,A,0
1,prac,1,0.0,1-Back,1,m,Wed Apr 09 2025 12:42:36 GMT-0500 (Central Daylight Time),140883.0,071_y_f_n_a.png,O,m,1705,2,1,2504.399999976158,138378.60000002384,7125,VNB,A,1
1,prac,1,0.0,1-Back,0,m,Wed Apr 09 2025 12:42:36 GMT-0500 (Central Daylight Time),143698.80000001192,165_m_m_h_a.png,O,None,2015,3,1,2806.0,140892.80000001192,7125,VNB,A,2
2,prac,1,0.0,1-Back,1,m,Wed Apr 09 2025 12:42:36 GMT-0500 (Central Daylight Time),145997.10000002384,109_y_m_d_a.png,O,m,1493,4,1,2287.5,143709.60000002384,7125,VNB,A,3
2,prac,1,0.0,1-Back,0,m,Wed Apr 09 2025 12:42:36 GMT-0500 (Central Daylight Time),147795.90000003576,124_o_f_n_a.png,O,z,971,5,1,1788.6000000238419,146007.30000001192,7125,VNB,A,4
2,prac,1,1.0,1-Back,0,z,Wed Apr 09 2025 12:42:36 GMT-0500 (Central Daylight Time),149996.0,109_y_m_n_a.png,O,m,1407,6,1,2187.599999964237,147808.40000003576,7125,VNB,A,5
2,prac,1,0.0,1-Back,0,m,Wed Apr 09 2025 12:42:36 GMT-0500 (Central Daylight Time),152795.10000002384,039_o_m_h_a.png,O,None,2015,7,1,2787.5,150007.60000002384,7125,VNB,A,6
3,prac,1,0.0,1-Back,1,m,Wed Apr 09 2025 12:42:36 GMT-0500 (Central Daylight Time),155227.90000003576,139_m_f_d_a.png,O,m,1623,8,1,2422.300000011921,152805.60000002384,7125,VNB,A,7
4,prac,1,1.0,1-Back,1,z,Wed Apr 09 2025 12:42:36 GMT-0500 (Central Daylight Time),157576.80000001192,071_y_f_d_a.png,O,z,1553,9,1,2334.899999976158,155241.90000003576,7125,VNB,A,8
5,prac,1,0.0,1-Back,1,m,Wed Apr 09 2025 12:42:36 GMT-0500 (Central Daylight Time),160059.80000001192,165_m_m_n_a.png,O,m,1674,10,1,2473.0,157586.80000001192,7125,VNB,A,9
5,prac,1,0.0,1-Back,0,m,Wed Apr 09 2025 12:42:36 GMT-0500 (Central Daylight Time),162359.10000002384,124_o_f_h_a.png,O,z,1479,11,1,2288.600000023842,160070.5,7125,VNB,A,10
5,prac,1,0.0,1-Back,0,m,Wed Apr 09 2025 12:42:36 GMT-0500 (Central Daylight Time),165141.30000001192,109_y_m_d_a.png,O,None,2002,12,1,2770.5,162370.80000001192,7125,VNB,A,11
0,prac,2,0.0,1-Back,,,Wed Apr 09 2025 12:42:36 GMT-0500 (Central Daylight Time),165141.30000001192,124_o_f_d_a.png,O,a,8489,1,1,2770.5,162370.80000001192,7125,VNB,A,0
1,prac,2,0.0,1-Back,1,m,Wed Apr 09 2025 12:42:36 GMT-0500 (Central Daylight Time),178519.19999998808,071_y_f_n_a.png,O,m,1042,2,1,1837.8999999761581,176681.30000001192,7125,VNB,A,1
2,prac,2,0.0,1-Back,1,m,Wed Apr 09 2025 12:42:36 GMT-0500 (Central Daylight Time),180917.90000003576,165_m_m_h_a.png,O,m,1583,3,1,2385.900000035763,178532.0,7125,VNB,A,2
2,prac,2,0.0,1-Back,0,m,Wed Apr 09 2025 12:42:36 GMT-0500 (Central Daylight Time),182902.5,109_y_m_d_a.png,O,z,1191,4,1,1973.300000011921,180929.19999998808,7125,VNB,A,3
3,prac,2,0.0,1-Back,1,m,Wed Apr 09 2025 12:42:36 GMT-0500 (Central Daylight Time),185667.90000003576,124_o_f_n_a.png,O,m,1926,5,1,2754.7000000476837,182913.19999998808,7125,VNB,A,4
4,prac,2,1.0,1-Back,1,z,Wed Apr 09 2025 12:42:36 GMT-0500 (Central Daylight Time),187683.10000002384,109_y_m_n_a.png,O,z,1199,6,1,2003.6000000238419,185679.5,7125,VNB,A,5
5,prac,2,0.0,1-Back,1,m,Wed Apr 09 2025 12:42:36 GMT-0500 (Central Daylight Time),189666.40000003576,039_o_m_h_a.png,O,m,1182,7,1,1970.800000011921,187695.60000002384,7125,VNB,A,6
5,prac,2,0.0,1-Back,0,m,Wed Apr 09 2025 12:42:36 GMT-0500 (Central Daylight Time),191366.10000002384,139_m_f_d_a.png,O,z,896,8,1,1690.0,189676.10000002384,7125,VNB,A,7
5,prac,2,1.0,1-Back,0,z,Wed Apr 09 2025 12:42:36 GMT-0500 (Central Daylight Time),194182.19999998808,071_y_f_d_a.png,O,None,2018,9,1,2804.599999964237,191377.60000002384,7125,VNB,A,8
5,prac,2,0.0,1-Back,0,m,Wed Apr 09 2025 12:42:36 GMT-0500 (Central Daylight Time),196996.90000003576,165_m_m_n_a.png,O,None,2017,10,1,2804.100000023842,194192.80000001192,7125,VNB,A,9
5,prac,2,0.0,1-Back,0,m,Wed Apr 09 2025 12:42:36 GMT-0500 (Central Daylight Time),199829.69999998808,124_o_f_h_a.png,O,None,2012,11,1,2822.199999988079,197007.5,7125,VNB,A,10
5,prac,2,0.0,1-Back,0,m,Wed Apr 09 2025 12:42:36 GMT-0500 (Central Daylight Time),202612.69999998808,109_y_m_d_a.png,O,None,2005,12,1,2772.599999964237,199840.10000002384,7125,VNB,A,11
0,test,1,0.0,1-Back,,,Wed Apr 09 2025 12:42:36 GMT-0500 (Central Daylight Time),202612.69999998808,071_y_f_d_a.png,O,space,19808,1,1,2772.599999964237,199840.10000002384,7125,VNB,A,0
1,test,1,0.0,1-Back,1,m,Wed Apr 09 2025 12:42:36 GMT-0500 (Central Daylight Time),235285.40000003576,139_m_f_n_a.png,O,m,1187,2,1,2206.0,233079.40000003576,7125,VNB,A,1
2,test,1,0.0,1-Back,1,m,Wed Apr 09 2025 12:42:36 GMT-0500 (Central Daylight Time),237767.30000001192,039_o_m_h_a.png,O,m,1461,3,1,2473.100000023842,235294.19999998808,7125,VNB,A,2
3,test,1,1.0,1-Back,1,z,Wed Apr 09 2025 12:42:36 GMT-0500 (Central Daylight Time),239868.0,165_m_m_h_a.png,O,z,1084,4,1,2090.099999964237,237777.90000003576,7125,VNB,A,3
4,test,1,0.0,1-Back,1,m,Wed Apr 09 2025 12:42:36 GMT-0500 (Central Daylight Time),241699.90000003576,124_o_f_n_a.png,O,m,806,5,1,1821.4000000357628,239878.5,7125,VNB,A,4
5,test,1,0.0,1-Back,1,m,Wed Apr 09 2025 12:42:36 GMT-0500 (Central Daylight Time),243881.80000001192,109_y_m_d_a.png,O,m,1152,6,1,2174.399999976158,241707.40000003576,7125,VNB,A,5
6,test,1,1.0,1-Back,1,z,Wed Apr 09 2025 12:42:36 GMT-0500 (Central Daylight Time),246082.0,139_m_f_d_a.png,O,z,1166,7,1,2190.800000011921,243891.19999998808,7125,VNB,A,6
7,test,1,0.0,1-Back,1,m,Wed Apr 09 2025 12:42:36 GMT-0500 (Central Daylight Time),248179.69999998808,071_y_f_h_a.png,O,m,1079,8,1,2088.5,246091.19999998808,7125,VNB,A,7
8,test,1,0.0,1-Back,1,m,Wed Apr 09 2025 12:42:36 GMT-0500 (Central Daylight Time),250730.69999998808,039_o_m_n_a.png,O,m,1523,9,1,2541.699999988079,248189.0,7125,VNB,A,8
8,test,1,0.0,1-Back,0,m,Wed Apr 09 2025 12:42:36 GMT-0500 (Central Daylight Time),253762.0,109_y_m_h_a.png,O,None,2014,10,1,3021.599999964237,250740.40000003576,7125,VNB,A,9
9,test,1,0.0,1-Back,1,m,Wed Apr 09 2025 12:42:36 GMT-0500 (Central Daylight Time),256244.5,039_o_m_d_a.png,O,m,1463,11,1,2474.300000011921,253770.19999998808,7125,VNB,A,10
9,test,1,1.0,1-Back,0,z,Wed Apr 09 2025 12:42:36 GMT-0500 (Central Daylight Time),258027.90000003576,124_o_f_d_a.png,O,m,754,12,1,1772.5,256255.40000003576,7125,VNB,A,11
9,test,1,0.0,1-Back,0,m,Wed Apr 09 2025 12:42:36 GMT-0500 (Central Daylight Time),260493.40000003576,165_m_m_n_a.png,O,z,1446,13,1,2456.100000023842,258037.30000001192,7125,VNB,A,12
9,test,1,1.0,1-Back,0,z,Wed Apr 09 2025 12:42:36 GMT-0500 (Central Daylight Time),262893.3000000119,071_y_f_n_a.png,O,m,1383,14,1,2389.699999988079,260503.60000002384,7125,VNB,A,13
9,test,1,0.0,1-Back,0,m,Wed Apr 09 2025 12:42:36 GMT-0500 (Central Daylight Time),265924.10000002384,139_m_f_h_a.png,O,None,2013,15,1,3020.400000035763,262903.6999999881,7125,VNB,A,14
10,test,1,0.0,1-Back,1,m,Wed Apr 09 2025 12:42:36 GMT-0500 (Central Daylight Time),268574.0,165_m_m_d_a.png,O,m,1619,16,1,2639.099999964237,265934.90000003576,7125,VNB,A,15
11,test,1,0.0,1-Back,1,m,Wed Apr 09 2025 12:42:36 GMT-0500 (Central Daylight Time),270440.0,109_y_m_n_a.png,O,m,831,17,1,1855.199999988079,268584.8000000119,7125,VNB,A,16
11,test,1,0.0,1-Back,0,m,Wed Apr 09 2025 12:42:36 GMT-0500 (Central Daylight Time),272389.0,124_o_f_h_a.png,O,z,920,18,1,1939.300000011921,270449.6999999881,7125,VNB,A,17
0,test,2,0.0,1-Back,,,Wed Apr 09 2025 12:42:36 GMT-0500 (Central Daylight Time),272389.0,109_y_m_n_a.png,O,space,2949,1,1,1939.300000011921,270449.6999999881,7125,VNB,A,0
1,test,2,0.0,1-Back,1,m,Wed Apr 09 2025 12:42:36 GMT-0500 (Central Daylight Time),280172.10000002384,071_y_f_h_a.png,O,m,1784,2,1,2806.5,277365.60000002384,7125,VNB,A,1
1,test,2,1.0,1-Back,0,m,Wed Apr 09 2025 12:42:36 GMT-0500 (Central Daylight Time),282586.60000002384,039_o_m_n_a.png,O,z,1391,3,1,2403.800000011921,280182.8000000119,7125,VNB,A,2
2,test,2,0.0,1-Back,1,m,Wed Apr 09 2025 12:42:36 GMT-0500 (Central Daylight Time),284718.90000003576,139_m_f_d_a.png,O,m,1102,4,1,2122.400000035763,282596.5,7125,VNB,A,3
3,test,2,0.0,1-Back,1,z,Wed Apr 09 2025 12:42:36 GMT-0500 (Central Daylight Time),286835.3000000119,165_m_m_d_a.png,O,z,1089,5,1,2106.399999976158,284728.90000003576,7125,VNB,A,4
3,test,2,0.0,1-Back,0,m,Wed Apr 09 2025 12:42:36 GMT-0500 (Central Daylight Time),289867.3000000119,109_y_m_h_a.png,O,None,2014,6,1,3021.899999976158,286845.40000003576,7125,VNB,A,5
4,test,2,1.0,1-Back,1,z,Wed Apr 09 2025 12:42:36 GMT-0500 (Central Daylight Time),292298.40000003576,124_o_f_h_a.png,O,z,1413,7,1,2421.900000035763,289876.5,7125,VNB,A,6
5,test,2,0.0,1-Back,1,m,Wed Apr 09 2025 12:42:36 GMT-0500 (Central Daylight Time),294749.6999999881,139_m_f_n_a.png,O,m,1415,8,1,2443.099999964237,292306.60000002384,7125,VNB,A,7
5,test,2,0.0,1-Back,0,m,Wed Apr 09 2025 12:42:36 GMT-0500 (Central Daylight Time),297781.8000000119,071_y_f_d_a.png,O,None,2016,9,1,3023.100000023842,294758.6999999881,7125,VNB,A,8
6,test,2,0.0,1-Back,1,m,Wed Apr 09 2025 12:42:36 GMT-0500 (Central Daylight Time),300198.0,165_m_m_n_a.png,O,m,1394,10,1,2405.800000011921,297792.1999999881,7125,VNB,A,9
7,test,2,1.0,1-Back,1,m,Wed Apr 09 2025 12:42:36 GMT-0500 (Central Daylight Time),302828.8000000119,139_m_f_h_a.png,O,m,1610,11,1,2620.800000011921,300208.0,7125,VNB,A,10
7,test,2,0.0,1-Back,0,z,Wed Apr 09 2025 12:42:36 GMT-0500 (Central Daylight Time),305396.1999999881,039_o_m_h_a.png,O,m,1549,12,1,2557.899999976158,302838.3000000119,7125,VNB,A,11
8,test,2,0.0,1-Back,1,m,Wed Apr 09 2025 12:42:36 GMT-0500 (Central Daylight Time),307644.8000000119,109_y_m_d_a.png,O,m,1219,13,1,2240.399999976158,305404.40000003576,7125,VNB,A,12
8,test,2,0.0,1-Back,0,m,Wed Apr 09 2025 12:42:36 GMT-0500 (Central Daylight Time),310678.3000000119,124_o_f_n_a.png,O,None,2012,14,1,3023.0,307655.3000000119,7125,VNB,A,13
9,test,2,0.0,1-Back,1,z,Wed Apr 09 2025 12:42:36 GMT-0500 (Central Daylight Time),313393.1999999881,071_y_f_n_a.png,O,z,1693,15,1,2704.599999964237,310688.60000002384,7125,VNB,A,14
9,test,2,1.0,1-Back,0,m,Wed Apr 09 2025 12:42:36 GMT-0500 (Central Daylight Time),316425.90000003576,165_m_m_h_a.png,O,None,2015,16,1,3022.900000035763,313403.0,7125,VNB,A,15
10,test,2,0.0,1-Back,1,m,Wed Apr 09 2025 12:42:36 GMT-0500 (Central Daylight Time),318624.8000000119,124_o_f_d_a.png,O,m,1175,17,1,2187.800000011921,316437.0,7125,VNB,A,16
11,test,2,1.0,1-Back,1,z,Wed Apr 09 2025 12:42:36 GMT-0500 (Central Daylight Time),321058.60000002384,039_o_m_d_a.png,O,z,1400,18,1,2426.100000023842,318632.5,7125,VNB,A,17
0,test,3,1.0,1-Back,,,Wed Apr 09 2025 12:42:36 GMT-0500 (Central Daylight Time),321058.60000002384,124_o_f_h_a.png,O,space,2278,1,1,2426.100000023842,318632.5,7125,VNB,A,0
1,test,3,0.0,1-Back,1,m,Wed Apr 09 2025 12:42:36 GMT-0500 (Central Daylight Time),328304.60000002384,139_m_f_d_a.png,O,m,1882,2,1,2903.900000035763,325400.6999999881,7125,VNB,A,1
2,test,3,1.0,1-Back,1,m,Wed Apr 09 2025 12:42:36 GMT-0500 (Central Daylight Time),330820.5,165_m_m_n_a.png,O,m,1493,3,1,2506.199999988079,328314.3000000119,7125,VNB,A,2
2,test,3,0.0,1-Back,0,z,Wed Apr 09 2025 12:42:36 GMT-0500 (Central Daylight Time),332653.6999999881,124_o_f_n_a.png,O,m,803,4,1,1821.699999988079,330832.0,7125,VNB,A,3
3,test,3,1.0,1-Back,1,m,Wed Apr 09 2025 12:42:36 GMT-0500 (Central Daylight Time),334886.8000000119,039_o_m_d_a.png,O,m,1203,5,1,2223.300000011921,332663.5,7125,VNB,A,4
4,test,3,0.0,1-Back,1,m,Wed Apr 09 2025 12:42:36 GMT-0500 (Central Daylight Time),337070.60000002384,071_y_f_h_a.png,O,m,1149,6,1,2173.100000023842,334897.5,7125,VNB,A,5
5,test,3,0.0,1-Back,1,z,Wed Apr 09 2025 12:42:36 GMT-0500 (Central Daylight Time),339218.5,109_y_m_h_a.png,O,z,1131,7,1,2136.699999988079,337081.8000000119,7125,VNB,A,6
6,test,3,0.0,1-Back,1,m,Wed Apr 09 2025 12:42:36 GMT-0500 (Central Daylight Time),341402.5,139_m_f_n_a.png,O,m,1166,8,1,2174.199999988079,339228.3000000119,7125,VNB,A,7
7,test,3,0.0,1-Back,1,m,Wed Apr 09 2025 12:42:36 GMT-0500 (Central Daylight Time),343566.1999999881,071_y_f_d_a.png,O,m,1144,9,1,2152.5,341413.6999999881,7125,VNB,A,8
8,test,3,1.0,1-Back,1,m,Wed Apr 09 2025 12:42:36 GMT-0500 (Central Daylight Time),346100.3000000119,039_o_m_n_a.png,O,m,1515,10,1,2524.199999988079,343576.10000002384,7125,VNB,A,9
9,test,3,0.0,1-Back,1,m,Wed Apr 09 2025 12:42:36 GMT-0500 (Central Daylight Time),348432.10000002384,165_m_m_h_a.png,O,m,1300,11,1,2322.0,346110.10000002384,7125,VNB,A,10
10,test,3,0.0,1-Back,1,z,Wed Apr 09 2025 12:42:36 GMT-0500 (Central Daylight Time),350482.10000002384,139_m_f_h_a.png,O,z,1024,12,1,2039.6000000238419,348442.5,7125,VNB,A,11
11,test,3,1.0,1-Back,1,m,Wed Apr 09 2025 12:42:36 GMT-0500 (Central Daylight Time),352646.90000003576,124_o_f_d_a.png,O,m,1134,13,1,2154.900000035763,350492.0,7125,VNB,A,12
12,test,3,0.0,1-Back,1,z,Wed Apr 09 2025 12:42:36 GMT-0500 (Central Daylight Time),354730.60000002384,165_m_m_d_a.png,O,z,1065,14,1,2073.600000023842,352657.0,7125,VNB,A,13
13,test,3,0.0,1-Back,1,m,Wed Apr 09 2025 12:42:36 GMT-0500 (Central Daylight Time),356714.6999999881,109_y_m_n_a.png,O,m,951,15,1,1975.3999999761581,354739.3000000119,7125,VNB,A,14
14,test,3,1.0,1-Back,1,m,Wed Apr 09 2025 12:42:36 GMT-0500 (Central Daylight Time),358962.90000003576,039_o_m_h_a.png,O,m,1232,16,1,2238.400000035763,356724.5,7125,VNB,A,15
15,test,3,0.0,1-Back,1,m,Wed Apr 09 2025 12:42:36 GMT-0500 (Central Daylight Time),361245.5,109_y_m_d_a.png,O,m,1249,17,1,2274.0,358971.5,7125,VNB,A,16
16,test,3,1.0,1-Back,1,m,Wed Apr 09 2025 12:42:36 GMT-0500 (Central Daylight Time),363909.6999999881,071_y_f_n_a.png,O,m,1634,18,1,2654.199999988079,361255.5,7125,VNB,A,17
0,test,4,1.0,1-Back,,,Wed Apr 09 2025 12:42:36 GMT-0500 (Central Daylight Time),363909.6999999881,165_m_m_d_a.png,O,space,1651,1,1,2654.199999988079,361255.5,7125,VNB,A,0
1,test,4,0.0,1-Back,1,z,Wed Apr 09 2025 12:42:36 GMT-0500 (Central Daylight Time),370126.0,039_o_m_d_a.png,O,z,1500,2,1,2523.199999988079,367602.8000000119,7125,VNB,A,1
2,test,4,0.0,1-Back,1,m,Wed Apr 09 2025 12:42:36 GMT-0500 (Central Daylight Time),372190.1999999881,109_y_m_h_a.png,O,m,1036,3,1,2054.7999999523163,370135.40000003576,7125,VNB,A,2
3,test,4,0.0,1-Back,1,m,Wed Apr 09 2025 12:42:36 GMT-0500 (Central Daylight Time),374091.60000002384,139_m_f_n_a.png,O,m,873,4,1,1892.300000011921,372199.3000000119,7125,VNB,A,3
4,test,4,1.0,1-Back,1,m,Wed Apr 09 2025 12:42:36 GMT-0500 (Central Daylight Time),376022.90000003576,124_o_f_h_a.png,O,m,900,5,1,1922.4000000357628,374100.5,7125,VNB,A,4
4,test,4,0.0,1-Back,0,m,Wed Apr 09 2025 12:42:36 GMT-0500 (Central Daylight Time),377923.8000000119,165_m_m_n_a.png,O,z,872,6,1,1890.199999988079,376033.60000002384,7125,VNB,A,5
5,test,4,0.0,1-Back,1,m,Wed Apr 09 2025 12:42:36 GMT-0500 (Central Daylight Time),380022.10000002384,109_y_m_d_a.png,O,m,1078,7,1,2088.199999988079,377933.90000003576,7125,VNB,A,6
6,test,4,1.0,1-Back,1,z,Wed Apr 09 2025 12:42:36 GMT-0500 (Central Daylight Time),382004.1999999881,071_y_f_d_a.png,O,z,952,8,1,1972.3999999761581,380031.8000000119,7125,VNB,A,7
7,test,4,0.0,1-Back,1,m,Wed Apr 09 2025 12:42:36 GMT-0500 (Central Daylight Time),384252.90000003576,139_m_f_h_a.png,O,m,1220,9,1,2239.900000035763,382013.0,7125,VNB,A,8
8,test,4,0.0,1-Back,1,z,Wed Apr 09 2025 12:42:36 GMT-0500 (Central Daylight Time),386354.40000003576,039_o_m_h_a.png,O,z,1082,10,1,2091.0,384263.40000003576,7125,VNB,A,9
9,test,4,1.0,1-Back,1,m,Wed Apr 09 2025 12:42:36 GMT-0500 (Central Daylight Time),388370.10000002384,124_o_f_n_a.png,O,m,983,11,1,2007.300000011921,386362.8000000119,7125,VNB,A,10
9,test,4,0.0,1-Back,0,m,Wed Apr 09 2025 12:42:36 GMT-0500 (Central Daylight Time),391002.6999999881,139_m_f_d_a.png,O,z,1599,12,1,2622.699999988079,388380.0,7125,VNB,A,11
10,test,4,0.0,1-Back,1,m,Wed Apr 09 2025 12:42:36 GMT-0500 (Central Daylight Time),393303.10000002384,071_y_f_n_a.png,O,m,1268,13,1,2289.400000035763,391013.6999999881,7125,VNB,A,12
11,test,4,0.0,1-Back,1,m,Wed Apr 09 2025 12:42:36 GMT-0500 (Central Daylight Time),396267.6999999881,124_o_f_d_a.png,O,m,1941,14,1,2954.7999999523163,393312.90000003576,7125,VNB,A,13
11,test,4,0.0,1-Back,0,m,Wed Apr 09 2025 12:42:36 GMT-0500 (Central Daylight Time),398798.60000002384,071_y_f_h_a.png,O,z,1509,15,1,2520.0,396278.60000002384,7125,VNB,A,14
12,test,4,1.0,1-Back,1,z,Wed Apr 09 2025 12:42:36 GMT-0500 (Central Daylight Time),400965.5,165_m_m_h_a.png,O,z,1145,16,1,2158.199999988079,398807.3000000119,7125,VNB,A,15
13,test,4,0.0,1-Back,1,m,Wed Apr 09 2025 12:42:36 GMT-0500 (Central Daylight Time),403030.90000003576,039_o_m_n_a.png,O,m,1035,17,1,2055.800000011921,400975.10000002384,7125,VNB,A,16
14,test,4,1.0,1-Back,1,z,Wed Apr 09 2025 12:42:36 GMT-0500 (Central Daylight Time),405181.3000000119,109_y_m_n_a.png,O,z,1116,18,1,2138.800000011921,403042.5,7125,VNB,A,17
0,test,5,1.0,1-Back,,,Wed Apr 09 2025 12:42:36 GMT-0500 (Central Daylight Time),405181.3000000119,039_o_m_n_a.png,O,space,1782,1,1,2138.800000011921,403042.5,7125,VNB,A,0
1,test,5,1.0,1-Back,1,m,Wed Apr 09 2025 12:42:36 GMT-0500 (Central Daylight Time),410895.60000002384,124_o_f_h_a.png,O,m,893,2,1,1904.699999988079,408990.90000003576,7125,VNB,A,1
2,test,5,0.0,1-Back,1,m,Wed Apr 09 2025 12:42:36 GMT-0500 (Central Daylight Time),413543.3000000119,109_y_m_d_a.png,O,m,1617,3,1,2637.600000023842,410905.6999999881,7125,VNB,A,2
3,test,5,0.0,1-Back,1,z,Wed Apr 09 2025 12:42:36 GMT-0500 (Central Daylight Time),415579.3000000119,039_o_m_d_a.png,O,z,1016,4,1,2025.199999988079,413554.10000002384,7125,VNB,A,3
4,test,5,0.0,1-Back,1,m,Wed Apr 09 2025 12:42:36 GMT-0500 (Central Daylight Time),417476.1999999881,139_m_f_h_a.png,O,m,880,5,1,1887.699999988079,415588.5,7125,VNB,A,4
5,test,5,0.0,1-Back,1,m,Wed Apr 09 2025 12:42:36 GMT-0500 (Central Daylight Time),420126.0,071_y_f_n_a.png,O,m,1619,6,1,2639.800000011921,417486.1999999881,7125,VNB,A,5
5,test,5,1.0,1-Back,0,z,Wed Apr 09 2025 12:42:36 GMT-0500 (Central Daylight Time),423158.60000002384,124_o_f_n_a.png,O,None,2014,7,1,3022.100000023842,420136.5,7125,VNB,A,6
6,test,5,0.0,1-Back,1,m,Wed Apr 09 2025 12:42:36 GMT-0500 (Central Daylight Time),425075.1999999881,139_m_f_d_a.png,O,m,891,8,1,1907.0999999642372,423168.10000002384,7125,VNB,A,7
7,test,5,0.0,1-Back,1,m,Wed Apr 09 2025 12:42:36 GMT-0500 (Central Daylight Time),427172.90000003576,109_y_m_h_a.png,O,m,1078,9,1,2089.5,425083.40000003576,7125,VNB,A,8
8,test,5,0.0,1-Back,1,m,Wed Apr 09 2025 12:42:36 GMT-0500 (Central Daylight Time),429123.6999999881,071_y_f_d_a.png,O,m,923,10,1,1940.8999999761581,427182.8000000119,7125,VNB,A,9
9,test,5,0.0,1-Back,1,m,Wed Apr 09 2025 12:42:36 GMT-0500 (Central Daylight Time),431225.5,165_m_m_n_a.png,O,m,1084,11,1,2093.800000011921,429131.6999999881,7125,VNB,A,10
10,test,5,1.0,1-Back,1,z,Wed Apr 09 2025 12:42:36 GMT-0500 (Central Daylight Time),432905.60000002384,139_m_f_n_a.png,O,z,657,12,1,1671.6000000238419,431234.0,7125,VNB,A,11
11,test,5,0.0,1-Back,1,m,Wed Apr 09 2025 12:42:36 GMT-0500 (Central Daylight Time),434688.5,039_o_m_h_a.png,O,m,760,13,1,1774.699999988079,432913.8000000119,7125,VNB,A,12
11,test,5,0.0,1-Back,0,z,Wed Apr 09 2025 12:42:36 GMT-0500 (Central Daylight Time),436521.1999999881,165_m_m_h_a.png,O,m,801,14,1,1823.8999999761581,434697.3000000119,7125,VNB,A,13
12,test,5,1.0,1-Back,1,m,Wed Apr 09 2025 12:42:36 GMT-0500 (Central Daylight Time),439470.10000002384,124_o_f_d_a.png,O,m,1920,15,1,2939.900000035763,436530.1999999881,7125,VNB,A,14
13,test,5,0.0,1-Back,1,m,Wed Apr 09 2025 12:42:36 GMT-0500 (Central Daylight Time),442153.10000002384,109_y_m_n_a.png,O,m,1649,16,1,2673.699999988079,439479.40000003576,7125,VNB,A,15
14,test,5,0.0,1-Back,1,m,Wed Apr 09 2025 12:42:36 GMT-0500 (Central Daylight Time),444334.40000003576,071_y_f_h_a.png,O,m,1152,17,1,2172.100000023842,442162.3000000119,7125,VNB,A,16
15,test,5,0.0,1-Back,1,m,Wed Apr 09 2025 12:42:36 GMT-0500 (Central Daylight Time),446668.10000002384,165_m_m_d_a.png,O,m,1315,18,1,2325.699999988079,444342.40000003576,7125,VNB,A,17
0,prac,1,0.0,2-Back,,,Wed Apr 09 2025 12:42:36 GMT-0500 (Central Daylight Time),446668.10000002384,139_m_f_n_a.png,O,space,24194,1,1,2325.699999988079,444342.40000003576,7125,VNB,A,0
0,prac,1,0.0,2-Back,,,Wed Apr 09 2025 12:42:36 GMT-0500 (Central Daylight Time),446668.10000002384,124_o_f_h_a.png,O,space,24194,2,1,2325.699999988079,444342.40000003576,7125,VNB,A,0
1,prac,1,0.0,2-Back,1,m,Wed Apr 09 2025 12:42:36 GMT-0500 (Central Daylight Time),650870.3000000119,039_o_m_d_a.png,O,m,1259,3,1,2055.5,648814.8000000119,7125,VNB,A,1
1,prac,1,1.0,2-Back,0,z,Wed Apr 09 2025 12:42:36 GMT-0500 (Central Daylight Time),653685.3000000119,165_m_m_h_a.png,O,None,2017,4,1,2805.399999976158,650879.9000000358,7125,VNB,A,2
2,prac,1,0.0,2-Back,1,m,Wed Apr 09 2025 12:42:36 GMT-0500 (Central Daylight Time),655935.5,071_y_f_n_a.png,O,m,1449,5,1,2236.699999988079,653698.8000000119,7125,VNB,A,3
2,prac,1,1.0,2-Back,0,z,Wed Apr 09 2025 12:42:36 GMT-0500 (Central Daylight Time),657767.3000000119,039_o_m_h_a.png,O,m,1037,6,1,1821.699999988079,655945.6000000238,7125,VNB,A,4
2,prac,1,1.0,2-Back,0,z,Wed Apr 09 2025 12:42:36 GMT-0500 (Central Daylight Time),660583.1000000238,109_y_m_n_a.png,O,None,2013,7,1,2805.100000023842,657778.0,7125,VNB,A,5
2,prac,1,0.0,2-Back,0,m,Wed Apr 09 2025 12:42:36 GMT-0500 (Central Daylight Time),663400.1999999881,139_m_f_d_a.png,O,None,2017,8,1,2808.199999988079,660592.0,7125,VNB,A,6
3,prac,1,0.0,2-Back,1,m,Wed Apr 09 2025 12:42:36 GMT-0500 (Central Daylight Time),664232.6000000238,124_o_f_d_a.png,O,m,0,9,1,820.8000000119209,663411.8000000119,7125,VNB,A,7
4,prac,1,0.0,2-Back,1,m,Wed Apr 09 2025 12:42:36 GMT-0500 (Central Daylight Time),666815.0,165_m_m_h_a.png,O,m,1816,10,1,2572.699999988079,664242.3000000119,7125,VNB,A,8
4,prac,1,1.0,2-Back,0,z,Wed Apr 09 2025 12:42:36 GMT-0500 (Central Daylight Time),669280.9000000358,071_y_f_d_a.png,O,m,1668,11,1,2454.400000035763,666826.5,7125,VNB,A,9
5,prac,1,0.0,2-Back,1,m,Wed Apr 09 2025 12:42:36 GMT-0500 (Central Daylight Time),671513.0,039_o_m_n_a.png,O,m,1430,12,1,2217.699999988079,669295.3000000119,7125,VNB,A,10
0,prac,2,0.0,2-Back,,,Wed Apr 09 2025 12:42:36 GMT-0500 (Central Daylight Time),671513.0,139_m_f_n_a.png,O,a,3846,1,1,2217.699999988079,669295.3000000119,7125,VNB,A,0
0,prac,2,0.0,2-Back,,,Wed Apr 09 2025 12:42:36 GMT-0500 (Central Daylight Time),671513.0,124_o_f_h_a.png,O,a,3846,2,1,2217.699999988079,669295.3000000119,7125,VNB,A,0
1,prac,2,0.0,2-Back,1,m,Wed Apr 09 2025 12:42:36 GMT-0500 (Central Daylight Time),682875.1000000238,039_o_m_d_a.png,O,m,1624,3,1,2421.0,680454.1000000238,7125,VNB,A,1
1,prac,2,1.0,2-Back,0,z,Wed Apr 09 2025 12:42:36 GMT-0500 (Central Daylight Time),685059.9000000358,165_m_m_h_a.png,O,m,1395,4,1,2173.2000000476837,682886.6999999881,7125,VNB,A,2
1,prac,2,0.0,2-Back,0,m,Wed Apr 09 2025 12:42:36 GMT-0500 (Central Daylight Time),687874.9000000358,071_y_f_n_a.png,O,None,2016,5,1,2803.7000000476837,685071.1999999881,7125,VNB,A,3
1,prac,2,1.0,2-Back,0,z,Wed Apr 09 2025 12:42:36 GMT-0500 (Central Daylight Time),690690.1999999881,039_o_m_h_a.png,O,None,2016,6,1,2803.7999999523163,687886.4000000358,7125,VNB,A,4
1,prac,2,1.0,2-Back,0,z,Wed Apr 09 2025 12:42:36 GMT-0500 (Central Daylight Time),693506.4000000358,109_y_m_n_a.png,O,None,2012,7,1,2804.100000023842,690702.3000000119,7125,VNB,A,5
1,prac,2,0.0,2-Back,0,m,Wed Apr 09 2025 12:42:36 GMT-0500 (Central Daylight Time),696322.0,139_m_f_d_a.png,O,None,2014,8,1,2804.199999988079,693517.8000000119,7125,VNB,A,6
1,prac,2,0.0,2-Back,0,m,Wed Apr 09 2025 12:42:36 GMT-0500 (Central Daylight Time),699155.3000000119,124_o_f_d_a.png,O,None,2005,9,1,2822.199999988079,696333.1000000238,7125,VNB,A,7
1,prac,2,0.0,2-Back,0,m,Wed Apr 09 2025 12:42:36 GMT-0500 (Central Daylight Time),701953.6000000238,165_m_m_h_a.png,O,None,2016,10,1,2783.800000011921,699169.8000000119,7125,VNB,A,8
1,prac,2,1.0,2-Back,0,z,Wed Apr 09 2025 12:42:36 GMT-0500 (Central Daylight Time),704752.8000000119,071_y_f_d_a.png,O,None,2002,11,1,2788.5,701964.3000000119,7125,VNB,A,9
1,prac,2,0.0,2-Back,0,m,Wed Apr 09 2025 12:42:36 GMT-0500 (Central Daylight Time),707569.3000000119,039_o_m_n_a.png,O,None,2011,12,1,2805.5,704763.8000000119,7125,VNB,A,10
0,test,1,0.0,2-Back,,,Wed Apr 09 2025 12:42:36 GMT-0500 (Central Daylight Time),707569.3000000119,109_y_m_h_a.png,O,space,3492,1,1,2805.5,704763.8000000119,7125,VNB,A,0
0,test,1,0.0,2-Back,,,Wed Apr 09 2025 12:42:36 GMT-0500 (Central Daylight Time),707569.3000000119,124_o_f_n_a.png,O,space,3492,2,1,2805.5,704763.8000000119,7125,VNB,A,0
1,test,1,0.0,2-Back,1,z,Wed Apr 09 2025 12:42:36 GMT-0500 (Central Daylight Time),793974.0,039_o_m_h_a.png,O,z,1044,3,1,2057.899999976158,791916.1000000238,7125,VNB,A,1
2,test,1,0.0,2-Back,1,m,Wed Apr 09 2025 12:42:36 GMT-0500 (Central Daylight Time),796372.5,139_m_f_d_a.png,O,m,1377,4,1,2389.599999964237,793982.9000000358,7125,VNB,A,2
2,test,1,1.0,2-Back,0,m,Wed Apr 09 2025 12:42:36 GMT-0500 (Central Daylight Time),799221.5,109_y_m_n_a.png,O,z,1828,5,1,2839.599999964237,796381.9000000358,7125,VNB,A,3
2,test,1,0.0,2-Back,0,z,Wed Apr 09 2025 12:42:36 GMT-0500 (Central Daylight Time),801970.4000000358,071_y_f_d_a.png,O,m,1713,6,1,2739.400000035763,799231.0,7125,VNB,A,4
2,test,1,0.0,2-Back,0,m,Wed Apr 09 2025 12:42:36 GMT-0500 (Central Daylight Time),805004.1999999881,165_m_m_h_a.png,O,None,2015,7,1,3028.099999964237,801976.1000000238,7125,VNB,A,5
2,test,1,1.0,2-Back,0,m,Wed Apr 09 2025 12:42:36 GMT-0500 (Central Daylight Time),808036.8000000119,071_y_f_n_a.png,O,None,2016,8,1,3022.600000023842,805014.1999999881,7125,VNB,A,6
2,test,1,0.0,2-Back,0,z,Wed Apr 09 2025 12:42:36 GMT-0500 (Central Daylight Time),811003.0,124_o_f_h_a.png,O,m,1934,9,1,2955.5,808047.5,7125,VNB,A,7
3,test,1,0.0,2-Back,1,m,Wed Apr 09 2025 12:42:36 GMT-0500 (Central Daylight Time),813800.4000000358,039_o_m_d_a.png,O,m,1775,10,1,2787.2000000476837,811013.1999999881,7125,VNB,A,8
4,test,1,1.0,2-Back,1,m,Wed Apr 09 2025 12:42:36 GMT-0500 (Central Daylight Time),816366.1000000238,165_m_m_d_a.png,O,m,1542,11,1,2555.600000023842,813810.5,7125,VNB,A,9
5,test,1,0.0,2-Back,1,m,Wed Apr 09 2025 12:42:36 GMT-0500 (Central Daylight Time),819100.1000000238,139_m_f_n_a.png,O,m,1707,12,1,2722.900000035763,816377.1999999881,7125,VNB,A,10
6,test,1,0.0,2-Back,1,m,Wed Apr 09 2025 12:42:36 GMT-0500 (Central Daylight Time),821933.9000000358,071_y_f_h_a.png,O,m,1818,13,1,2823.300000011921,819110.6000000238,7125,VNB,A,11
7,test,1,0.0,2-Back,1,z,Wed Apr 09 2025 12:42:36 GMT-0500 (Central Daylight Time),823433.1000000238,165_m_m_n_a.png,O,z,470,14,1,1491.6000000238419,821941.5,7125,VNB,A,12
7,test,1,0.0,2-Back,0,m,Wed Apr 09 2025 12:42:36 GMT-0500 (Central Daylight Time),826463.4000000358,109_y_m_d_a.png,O,None,2015,15,1,3021.400000035763,823442.0,7125,VNB,A,13
8,test,1,1.0,2-Back,1,m,Wed Apr 09 2025 12:42:36 GMT-0500 (Central Daylight Time),829261.6999999881,139_m_f_h_a.png,O,m,1777,16,1,2787.7999999523163,826473.9000000358,7125,VNB,A,14
9,test,1,0.0,2-Back,1,z,Wed Apr 09 2025 12:42:36 GMT-0500 (Central Daylight Time),831763.4000000358,124_o_f_d_a.png,O,z,1469,17,1,2493.600000023842,829269.8000000119,7125,VNB,A,15
10,test,1,0.0,2-Back,1,m,Wed Apr 09 2025 12:42:36 GMT-0500 (Central Daylight Time),833861.6000000238,039_o_m_n_a.png,O,m,1070,18,1,2088.400000035763,831773.1999999881,7125,VNB,A,16
0,test,2,0.0,2-Back,,,Wed Apr 09 2025 12:42:36 GMT-0500 (Central Daylight Time),833861.6000000238,165_m_m_h_a.png,O,space,2123,1,1,2088.400000035763,831773.1999999881,7125,VNB,A,0
0,test,2,0.0,2-Back,,,Wed Apr 09 2025 12:42:36 GMT-0500 (Central Daylight Time),833861.6000000238,071_y_f_n_a.png,O,space,2123,2,1,2088.400000035763,831773.1999999881,7125,VNB,A,0
1,test,2,1.0,2-Back,1,z,Wed Apr 09 2025 12:42:36 GMT-0500 (Central Daylight Time),843108.4000000358,124_o_f_h_a.png,O,z,988,3,1,2007.2000000476837,841101.1999999881,7125,VNB,A,1
1,test,2,0.0,2-Back,0,m,Wed Apr 09 2025 12:42:36 GMT-0500 (Central Daylight Time),845875.0,039_o_m_d_a.png,O,z,1740,4,1,2754.599999964237,843120.4000000358,7125,VNB,A,2
1,test,2,0.0,2-Back,0,m,Wed Apr 09 2025 12:42:36 GMT-0500 (Central Daylight Time),848873.9000000358,139_m_f_d_a.png,O,z,1972,5,1,2987.5,845886.4000000358,7125,VNB,A,3
2,test,2,0.0,2-Back,1,m,Wed Apr 09 2025 12:42:36 GMT-0500 (Central Daylight Time),851788.9000000358,109_y_m_h_a.png,O,m,1898,6,1,2903.800000011921,848885.1000000238,7125,VNB,A,4
2,test,2,0.0,2-Back,0,m,Wed Apr 09 2025 12:42:36 GMT-0500 (Central Daylight Time),853804.5,124_o_f_n_a.png,O,z,988,7,1,2007.3999999761581,851797.1000000238,7125,VNB,A,5
2,test,2,1.0,2-Back,0,z,Wed Apr 09 2025 12:42:36 GMT-0500 (Central Daylight Time),856204.4000000358,039_o_m_h_a.png,O,m,1379,8,1,2389.300000011921,853815.1000000238,7125,VNB,A,6
2,test,2,0.0,2-Back,0,m,Wed Apr 09 2025 12:42:36 GMT-0500 (Central Daylight Time),859237.9000000358,071_y_f_d_a.png,O,None,2015,9,1,3023.2000000476837,856214.6999999881,7125,VNB,A,7
3,test,2,0.0,2-Back,1,m,Wed Apr 09 2025 12:42:36 GMT-0500 (Central Daylight Time),861405.0,109_y_m_d_a.png,O,m,1151,10,1,2156.5,859248.5,7125,VNB,A,8
4,test,2,0.0,2-Back,1,m,Wed Apr 09 2025 12:42:36 GMT-0500 (Central Daylight Time),863985.6999999881,165_m_m_n_a.png,O,m,1552,11,1,2570.399999976158,861415.3000000119,7125,VNB,A,9
5,test,2,0.0,2-Back,1,m,Wed Apr 09 2025 12:42:36 GMT-0500 (Central Daylight Time),867003.4000000358,139_m_f_h_a.png,O,m,2000,12,1,3008.0,863995.4000000358,7125,VNB,A,10
5,test,2,1.0,2-Back,0,z,Wed Apr 09 2025 12:42:36 GMT-0500 (Central Daylight Time),869467.0,039_o_m_n_a.png,O,m,1439,13,1,2453.099999964237,867013.9000000358,7125,VNB,A,11
6,test,2,0.0,2-Back,1,m,Wed Apr 09 2025 12:42:36 GMT-0500 (Central Daylight Time),871216.4000000358,124_o_f_d_a.png,O,m,719,14,1,1738.7000000476837,869477.6999999881,7125,VNB,A,12
6,test,2,0.0,2-Back,0,m,Wed Apr 09 2025 12:42:36 GMT-0500 (Central Daylight Time),873064.9000000358,071_y_f_h_a.png,O,z,823,15,1,1839.800000011921,871225.1000000238,7125,VNB,A,13
6,test,2,0.0,2-Back,0,z,Wed Apr 09 2025 12:42:36 GMT-0500 (Central Daylight Time),876099.4000000358,165_m_m_d_a.png,O,None,2015,16,1,3025.800000011921,873073.6000000238,7125,VNB,A,14
7,test,2,0.0,2-Back,1,m,Wed Apr 09 2025 12:42:36 GMT-0500 (Central Daylight Time),879013.3000000119,109_y_m_n_a.png,O,m,1887,17,1,2904.0,876109.3000000119,7125,VNB,A,15
7,test,2,1.0,2-Back,0,m,Wed Apr 09 2025 12:42:36 GMT-0500 (Central Daylight Time),881811.3000000119,139_m_f_n_a.png,O,z,1770,18,1,2787.899999976158,879023.4000000358,7125,VNB,A,16
0,test,3,1.0,2-Back,,,Wed Apr 09 2025 12:42:36 GMT-0500 (Central Daylight Time),881811.3000000119,039_o_m_n_a.png,O,space,1983,1,1,2787.899999976158,879023.4000000358,7125,VNB,A,0
0,test,3,1.0,2-Back,,,Wed Apr 09 2025 12:42:36 GMT-0500 (Central Daylight Time),881811.3000000119,124_o_f_d_a.png,O,space,1983,2,1,2787.899999976158,879023.4000000358,7125,VNB,A,0
1,test,3,0.0,2-Back,1,m,Wed Apr 09 2025 12:42:36 GMT-0500 (Central Daylight Time),891807.5,071_y_f_h_a.png,O,m,1939,3,1,2954.199999988079,888853.3000000119,7125,VNB,A,1
1,test,3,0.0,2-Back,0,z,Wed Apr 09 2025 12:42:36 GMT-0500 (Central Daylight Time),894826.0,139_m_f_d_a.png,O,None,2001,4,1,3012.5,891813.5,7125,VNB,A,2
2,test,3,1.0,2-Back,1,m,Wed Apr 09 2025 12:42:36 GMT-0500 (Central Daylight Time),897075.0,109_y_m_n_a.png,O,m,1223,5,1,2238.099999964237,894836.9000000358,7125,VNB,A,3
3,test,3,0.0,2-Back,1,m,Wed Apr 09 2025 12:42:36 GMT-0500 (Central Daylight Time),899857.0,039_o_m_h_a.png,O,m,1749,6,1,2771.199999988079,897085.8000000119,7125,VNB,A,4
4,test,3,0.0,2-Back,1,z,Wed Apr 09 2025 12:42:36 GMT-0500 (Central Daylight Time),901557.8000000119,071_y_f_n_a.png,O,z,682,7,1,1691.300000011921,899866.5,7125,VNB,A,5
5,test,3,1.0,2-Back,1,m,Wed Apr 09 2025 12:42:36 GMT-0500 (Central Daylight Time),904042.3000000119,165_m_m_d_a.png,O,m,1460,8,1,2473.100000023842,901569.1999999881,7125,VNB,A,6
5,test,3,0.0,2-Back,0,m,Wed Apr 09 2025 12:42:36 GMT-0500 (Central Daylight Time),906405.3000000119,109_y_m_d_a.png,O,z,1347,9,1,2352.800000011921,904052.5,7125,VNB,A,7
6,test,3,0.0,2-Back,1,m,Wed Apr 09 2025 12:42:36 GMT-0500 (Central Daylight Time),909370.6999999881,124_o_f_h_a.png,O,m,1940,10,1,2955.5,906415.1999999881,7125,VNB,A,8
6,test,3,1.0,2-Back,0,m,Wed Apr 09 2025 12:42:36 GMT-0500 (Central Daylight Time),911903.6999999881,139_m_f_n_a.png,O,z,1501,11,1,2522.599999964237,909381.1000000238,7125,VNB,A,9
6,test,3,1.0,2-Back,0,z,Wed Apr 09 2025 12:42:36 GMT-0500 (Central Daylight Time),914869.6999999881,165_m_m_h_a.png,O,m,1938,12,1,2955.599999964237,911914.1000000238,7125,VNB,A,10
6,test,3,0.0,2-Back,0,m,Wed Apr 09 2025 12:42:36 GMT-0500 (Central Daylight Time),917902.6000000238,071_y_f_d_a.png,O,None,2016,13,1,3023.199999988079,914879.4000000358,7125,VNB,A,11
6,test,3,0.0,2-Back,0,m,Wed Apr 09 2025 12:42:36 GMT-0500 (Central Daylight Time),920933.8000000119,124_o_f_n_a.png,O,None,2015,14,1,3021.300000011921,917912.5,7125,VNB,A,12
6,test,3,0.0,2-Back,0,z,Wed Apr 09 2025 12:42:36 GMT-0500 (Central Daylight Time),922983.4000000358,039_o_m_d_a.png,O,m,1019,15,1,2040.0,920943.4000000358,7125,VNB,A,13
7,test,3,1.0,2-Back,1,m,Wed Apr 09 2025 12:42:36 GMT-0500 (Central Daylight Time),925198.4000000358,139_m_f_h_a.png,O,m,1185,16,1,2205.0,922993.4000000358,7125,VNB,A,14
7,test,3,0.0,2-Back,0,m,Wed Apr 09 2025 12:42:36 GMT-0500 (Central Daylight Time),926832.3000000119,165_m_m_n_a.png,O,z,601,17,1,1623.8999999761581,925208.4000000358,7125,VNB,A,15
7,test,3,0.0,2-Back,0,z,Wed Apr 09 2025 12:42:36 GMT-0500 (Central Daylight Time),929865.3000000119,109_y_m_h_a.png,O,None,2015,18,1,3022.399999976158,926842.9000000358,7125,VNB,A,16
0,test,4,0.0,2-Back,,,Wed Apr 09 2025 12:42:36 GMT-0500 (Central Daylight Time),929865.3000000119,139_m_f_n_a.png,O,space,1873,1,1,3022.399999976158,926842.9000000358,7125,VNB,A,0
0,test,4,0.0,2-Back,,,Wed Apr 09 2025 12:42:36 GMT-0500 (Central Daylight Time),929865.3000000119,039_o_m_n_a.png,O,space,1873,2,1,3022.399999976158,926842.9000000358,7125,VNB,A,0
1,test,4,1.0,2-Back,1,m,Wed Apr 09 2025 12:42:36 GMT-0500 (Central Daylight Time),938813.1000000238,109_y_m_h_a.png,O,m,966,3,1,1976.4000000357628,936836.6999999881,7125,VNB,A,1
2,test,4,1.0,2-Back,1,m,Wed Apr 09 2025 12:42:36 GMT-0500 (Central Daylight Time),940961.0,124_o_f_d_a.png,O,m,1126,4,1,2138.199999988079,938822.8000000119,7125,VNB,A,2
3,test,4,0.0,2-Back,1,z,Wed Apr 09 2025 12:42:36 GMT-0500 (Central Daylight Time),943247.0,039_o_m_h_a.png,O,z,1251,5,1,2277.099999964237,940969.9000000358,7125,VNB,A,3
4,test,4,0.0,2-Back,1,m,Wed Apr 09 2025 12:42:36 GMT-0500 (Central Daylight Time),945627.0,165_m_m_n_a.png,O,m,1348,6,1,2372.599999964237,943254.4000000358,7125,VNB,A,4
4,test,4,0.0,2-Back,0,m,Wed Apr 09 2025 12:42:36 GMT-0500 (Central Daylight Time),948175.0,139_m_f_d_a.png,O,z,1520,7,1,2537.800000011921,945637.1999999881,7125,VNB,A,5
4,test,4,0.0,2-Back,0,z,Wed Apr 09 2025 12:42:36 GMT-0500 (Central Daylight Time),950525.1999999881,071_y_f_n_a.png,O,m,1331,8,1,2340.7999999523163,948184.4000000358,7125,VNB,A,6
4,test,4,1.0,2-Back,0,m,Wed Apr 09 2025 12:42:36 GMT-0500 (Central Daylight Time),953557.1999999881,124_o_f_h_a.png,O,None,2015,9,1,3024.5,950532.6999999881,7125,VNB,A,7
5,test,4,0.0,2-Back,1,m,Wed Apr 09 2025 12:42:36 GMT-0500 (Central Daylight Time),956090.1000000238,165_m_m_h_a.png,O,m,1509,10,1,2522.300000011921,953567.8000000119,7125,VNB,A,8
6,test,4,0.0,2-Back,1,m,Wed Apr 09 2025 12:42:36 GMT-0500 (Central Daylight Time),958855.0,071_y_f_d_a.png,O,m,1743,11,1,2755.0,956100.0,7125,VNB,A,9
6,test,4,0.0,2-Back,0,m,Wed Apr 09 2025 12:42:36 GMT-0500 (Central Daylight Time),961889.3000000119,109_y_m_n_a.png,O,None,2015,12,1,3026.0,958863.3000000119,7125,VNB,A,10
6,test,4,0.0,2-Back,0,z,Wed Apr 09 2025 12:42:36 GMT-0500 (Central Daylight Time),964920.5,039_o_m_d_a.png,O,None,2016,13,1,3022.699999988079,961897.8000000119,7125,VNB,A,11
7,test,4,1.0,2-Back,1,m,Wed Apr 09 2025 12:42:36 GMT-0500 (Central Daylight Time),967086.6999999881,139_m_f_h_a.png,O,m,1138,14,1,2157.2999999523163,964929.4000000358,7125,VNB,A,12
7,test,4,1.0,2-Back,0,m,Wed Apr 09 2025 12:42:36 GMT-0500 (Central Daylight Time),969487.1999999881,071_y_f_h_a.png,O,z,1370,15,1,2389.699999988079,967097.5,7125,VNB,A,13
8,test,4,0.0,2-Back,1,m,Wed Apr 09 2025 12:42:36 GMT-0500 (Central Daylight Time),972219.8000000119,124_o_f_n_a.png,O,m,1709,16,1,2721.600000023842,969498.1999999881,7125,VNB,A,14
8,test,4,0.0,2-Back,0,m,Wed Apr 09 2025 12:42:36 GMT-0500 (Central Daylight Time),975251.3000000119,109_y_m_d_a.png,O,None,2017,17,1,3021.199999988079,972230.1000000238,7125,VNB,A,15
9,test,4,1.0,2-Back,1,m,Wed Apr 09 2025 12:42:36 GMT-0500 (Central Daylight Time),977515.6000000238,165_m_m_d_a.png,O,m,1238,18,1,2255.199999988079,975260.4000000358,7125,VNB,A,16
0,test,5,1.0,2-Back,,,Wed Apr 09 2025 12:42:36 GMT-0500 (Central Daylight Time),977515.6000000238,071_y_f_d_a.png,O,space,1646,1,1,2255.199999988079,975260.4000000358,7125,VNB,A,0
0,test,5,1.0,2-Back,,,Wed Apr 09 2025 12:42:36 GMT-0500 (Central Daylight Time),977515.6000000238,124_o_f_h_a.png,O,space,1646,2,1,2255.199999988079,975260.4000000358,7125,VNB,A,0
1,test,5,1.0,2-Back,1,z,Wed Apr 09 2025 12:42:36 GMT-0500 (Central Daylight Time),986662.5,039_o_m_d_a.png,O,z,1385,3,1,2404.199999988079,984258.3000000119,7125,VNB,A,1
2,test,5,1.0,2-Back,1,m,Wed Apr 09 2025 12:42:36 GMT-0500 (Central Daylight Time),988912.3000000119,139_m_f_n_a.png,O,m,1228,4,1,2241.100000023842,986671.1999999881,7125,VNB,A,2
2,test,5,0.0,2-Back,0,m,Wed Apr 09 2025 12:42:36 GMT-0500 (Central Daylight Time),991945.6999999881,165_m_m_h_a.png,O,None,2016,5,1,3023.199999988079,988922.5,7125,VNB,A,3
2,test,5,0.0,2-Back,0,z,Wed Apr 09 2025 12:42:36 GMT-0500 (Central Daylight Time),994744.9000000358,071_y_f_n_a.png,O,m,1774,6,1,2790.900000035763,991954.0,7125,VNB,A,4
3,test,5,0.0,2-Back,1,m,Wed Apr 09 2025 12:42:36 GMT-0500 (Central Daylight Time),997076.5,124_o_f_d_a.png,O,m,1315,7,1,2321.300000011921,994755.1999999881,7125,VNB,A,5
4,test,5,0.0,2-Back,1,m,Wed Apr 09 2025 12:42:36 GMT-0500 (Central Daylight Time),998958.9000000358,039_o_m_h_a.png,O,m,861,8,1,1873.800000011921,997085.1000000238,7125,VNB,A,6
4,test,5,1.0,2-Back,0,z,Wed Apr 09 2025 12:42:36 GMT-0500 (Central Daylight Time),1001524.3000000119,139_m_f_d_a.png,O,m,1538,9,1,2555.399999976158,998968.9000000358,7125,VNB,A,7
5,test,5,0.0,2-Back,1,m,Wed Apr 09 2025 12:42:36 GMT-0500 (Central Daylight Time),1004323.9000000358,109_y_m_n_a.png,O,m,1780,10,1,2789.0,1001534.9000000358,7125,VNB,A,8
6,test,5,0.0,2-Back,1,m,Wed Apr 09 2025 12:42:36 GMT-0500 (Central Daylight Time),1006806.4000000358,165_m_m_n_a.png,O,m,1452,11,1,2471.0,1004335.4000000358,7125,VNB,A,9
6,test,5,0.0,2-Back,0,m,Wed Apr 09 2025 12:42:36 GMT-0500 (Central Daylight Time),1009838.3000000119,071_y_f_h_a.png,O,None,2015,12,1,3021.800000011921,1006816.5,7125,VNB,A,10
7,test,5,0.0,2-Back,1,m,Wed Apr 09 2025 12:42:36 GMT-0500 (Central Daylight Time),1011856.4000000358,109_y_m_d_a.png,O,m,985,13,1,2007.800000011921,1009848.6000000238,7125,VNB,A,11
8,test,5,1.0,2-Back,1,z,Wed Apr 09 2025 12:42:36 GMT-0500 (Central Daylight Time),1014153.4000000358,139_m_f_h_a.png,O,z,1274,14,1,2286.100000023842,1011867.3000000119,7125,VNB,A,12
9,test,5,0.0,2-Back,1,m,Wed Apr 09 2025 12:42:36 GMT-0500 (Central Daylight Time),1016753.1000000238,039_o_m_n_a.png,O,m,1566,15,1,2589.400000035763,1014163.6999999881,7125,VNB,A,13
10,test,5,0.0,2-Back,1,m,Wed Apr 09 2025 12:42:36 GMT-0500 (Central Daylight Time),1018969.8000000119,165_m_m_d_a.png,O,m,1193,16,1,2205.800000011921,1016764.0,7125,VNB,A,14
11,test,5,0.0,2-Back,1,z,Wed Apr 09 2025 12:42:36 GMT-0500 (Central Daylight Time),1021268.6000000238,124_o_f_n_a.png,O,z,1270,17,1,2288.900000035763,1018979.6999999881,7125,VNB,A,15
11,test,5,1.0,2-Back,0,m,Wed Apr 09 2025 12:42:36 GMT-0500 (Central Daylight Time),1024300.5,109_y_m_h_a.png,O,None,2013,18,1,3022.300000011921,1021278.1999999881,7125,VNB,A,16
