acc_sum,block,block_c,condition,correct,correct_response,datetime,endtime,flanker,jitter,project,response,response_test_buffer_response,response_test_target_response,response_time,response_time_test_buffer_response,response_time_test_target_response,row_sel,session_number,start_end,starttime,subject_id,target,task,task_vers,time_test_buffer,time_test_buffer_response,time_test_constants,time_test_flanker,time_test_jitter,time_test_logger,time_test_target,time_test_target_response,time_test_variables,trial
1,prac,1,con,1,m,Mon Mar 10 2025 14:54:59 GMT-0500 (Central Daylight Time),106456.30000001192,step,800,O,m,,,890,,,1,1,2993.5,103462.80000001192,7076,step,AF,C,,,,,,,,,,1
2,prac,1,inc,1,m,Mon Mar 10 2025 14:54:59 GMT-0500 (Central Daylight Time),109522.20000004768,brutal,1100,O,m,,,665,,,8,1,3060.300000011921,106461.90000003576,7076,window,AF,C,,,,,,,,,,2
3,prac,1,inc,1,m,Mon Mar 10 2025 14:54:59 GMT-0500 (Central Daylight Time),112554.70000004768,hate,1100,O,m,,,633,,,4,1,3026.600000023842,109528.10000002384,7076,film,AF,C,,,,,,,,,,3
4,prac,1,con,1,z,Mon Mar 10 2025 14:54:59 GMT-0500 (Central Daylight Time),115388.70000004768,brutal,800,O,z,,,723,,,13,1,2826.2000000476837,112562.5,7076,brutal,AF,C,,,,,,,,,,4
5,prac,1,inc,1,m,Mon Mar 10 2025 14:54:59 GMT-0500 (Central Daylight Time),118267.40000003576,elated,900,O,m,,,695,,,6,1,2871.300000011921,115396.10000002384,7076,napkin,AF,C,,,,,,,,,,5
6,prac,1,con,1,z,Mon Mar 10 2025 14:54:59 GMT-0500 (Central Daylight Time),121834.5,rage,1000,O,z,,,1256,,,15,1,3554.599999964237,118279.90000003576,7076,rage,AF,C,,,,,,,,,,6
7,prac,1,con,1,m,Mon Mar 10 2025 14:54:59 GMT-0500 (Central Daylight Time),124634.40000003576,jacket,800,O,m,,,682,,,5,1,2795.100000023842,121839.30000001192,7076,jacket,AF,C,,,,,,,,,,7
8,prac,1,inc,1,z,Mon Mar 10 2025 14:54:59 GMT-0500 (Central Daylight Time),127600.40000003576,film,900,O,z,,,751,,,14,1,2958.400000035763,124642.0,7076,hate,AF,C,,,,,,,,,,8
9,prac,1,con,1,m,Mon Mar 10 2025 14:54:59 GMT-0500 (Central Daylight Time),130498.70000004768,remote,1000,O,m,,,582,,,7,1,2892.100000023842,127606.60000002384,7076,remote,AF,C,,,,,,,,,,9
10,prac,1,inc,1,z,Mon Mar 10 2025 14:54:59 GMT-0500 (Central Daylight Time),133615.20000004768,napkin,1100,O,z,,,727,,,12,1,3112.600000023842,130502.60000002384,7076,friend,AF,C,,,,,,,,,,10
11,prac,1,con,1,z,Mon Mar 10 2025 14:54:59 GMT-0500 (Central Daylight Time),136315.0,elated,800,O,z,,,588,,,9,1,2694.0,133621.0,7076,elated,AF,C,,,,,,,,,,11
12,prac,1,inc,1,m,Mon Mar 10 2025 14:54:59 GMT-0500 (Central Daylight Time),139097.60000002384,kind,900,O,m,,,576,,,2,1,2777.0,136320.60000002384,7076,rock,AF,C,,,,,,,,,,12
13,prac,1,inc,1,z,Mon Mar 10 2025 14:54:59 GMT-0500 (Central Daylight Time),142330.70000004768,window,1100,O,z,,,841,,,16,1,3228.2000000476837,139102.5,7076,temper,AF,C,,,,,,,,,,13
14,prac,1,con,1,z,Mon Mar 10 2025 14:54:59 GMT-0500 (Central Daylight Time),145245.40000003576,love,1000,O,z,,,612,,,11,1,2906.0,142339.40000003576,7076,love,AF,C,,,,,,,,,,14
15,prac,1,inc,1,z,Mon Mar 10 2025 14:54:59 GMT-0500 (Central Daylight Time),148476.5,rock,900,O,z,,,1032,,,10,1,3221.099999964237,145255.40000003576,7076,kind,AF,C,,,,,,,,,,15
16,prac,1,con,1,m,Mon Mar 10 2025 14:54:59 GMT-0500 (Central Daylight Time),151476.20000004768,bell,1000,O,m,,,690,,,3,1,2985.600000023842,148490.60000002384,7076,bell,AF,C,,,,,,,,,,16
1,test,1,inc,1,z,Mon Mar 10 2025 14:54:59 GMT-0500 (Central Daylight Time),177086.5,rock,900,O,z,z,None,666,467.0,199.0,46,1,2094.599999964237,174991.90000003576,7076,hate,AF,C,173878,173878,172251,173162,172252,174346,173678,173678,174345,1
2,test,1,inc,1,m,Mon Mar 10 2025 14:54:59 GMT-0500 (Central Daylight Time),179199.70000004768,temper,1000,O,m,m,None,568,351.0,217.0,111,1,2107.600000023842,177092.10000002384,7076,napkin,AF,C,176095,176095,174351,175360,174352,176459,175877,175877,176459,2
3,test,1,inc,1,m,Mon Mar 10 2025 14:54:59 GMT-0500 (Central Daylight Time),181366.80000001192,love,1000,O,m,m,None,622,407.0,215.0,71,1,2160.899999976158,179205.90000003576,7076,step,AF,C,178208,178208,176465,177478,176465,178626,177993,177993,178626,3
4,test,1,con,1,m,Mon Mar 10 2025 14:54:59 GMT-0500 (Central Daylight Time),183599.20000004768,window,1000,O,m,m,None,687,488.0,199.0,123,1,2226.2000000476837,181373.0,7076,window,AF,C,180358,180358,178632,179642,178632,180858,180159,180159,180858,4
5,test,1,con,1,m,Mon Mar 10 2025 14:54:59 GMT-0500 (Central Daylight Time),185647.80000001192,jacket,1000,O,m,m,None,501,302.0,199.0,99,1,2043.5,183604.30000001192,7076,jacket,AF,C,182592,182592,180863,181878,180864,182907,182392,182392,182907,5
6,test,1,con,1,z,Mon Mar 10 2025 14:54:59 GMT-0500 (Central Daylight Time),187764.10000002384,temper,1000,O,z,z,None,571,356.0,215.0,59,1,2109.899999976158,185654.20000004768,7076,temper,AF,C,184658,184658,182913,183925,182914,185023,184442,184442,185023,6
7,test,1,inc,1,z,Mon Mar 10 2025 14:54:59 GMT-0500 (Central Daylight Time),190181.20000004768,remote,1000,O,z,z,None,883,684.0,199.0,31,1,2412.400000035763,187768.80000001192,7076,friend,AF,C,186756,186756,185028,186040,185028,187440,186556,186556,187440,7
8,test,1,con,1,m,Mon Mar 10 2025 14:54:59 GMT-0500 (Central Daylight Time),192130.10000002384,jacket,800,O,m,m,None,614,400.0,214.0,97,1,1943.6000000238419,190186.5,7076,jacket,AF,C,188973,188974,187446,188257,187446,189389,188759,188759,189389,8
9,test,1,inc,1,z,Mon Mar 10 2025 14:54:59 GMT-0500 (Central Daylight Time),194196.60000002384,napkin,900,O,z,z,None,617,415.0,202.0,62,1,2060.800000011921,192135.80000001192,7076,temper,AF,C,191024,191024,189395,190306,189395,191456,190822,190822,191456,9
10,test,1,con,1,z,Mon Mar 10 2025 14:54:59 GMT-0500 (Central Daylight Time),196462.0,hate,1100,O,z,z,None,632,433.0,199.0,44,1,2259.7999999523163,194202.20000004768,7076,hate,AF,C,193287,193288,191461,192572,191461,193721,193088,193088,193721,10
11,test,1,inc,1,m,Mon Mar 10 2025 14:54:59 GMT-0500 (Central Daylight Time),198460.30000001192,kind,900,O,m,m,None,557,357.0,200.0,78,1,1991.699999988079,196468.60000002384,7076,rock,AF,C,195354,195354,193728,194637,193728,195719,195154,195154,195719,11
12,test,1,inc,1,z,Mon Mar 10 2025 14:54:59 GMT-0500 (Central Daylight Time),200727.30000001192,bell,1000,O,z,z,None,721,521.0,200.0,55,1,2262.199999988079,198465.10000002384,7076,rage,AF,C,197454,197454,195724,196735,195724,197986,197253,197253,197986,12
13,test,1,inc,1,z,Mon Mar 10 2025 14:54:59 GMT-0500 (Central Daylight Time),203009.60000002384,film,1100,O,z,z,None,643,426.0,217.0,16,1,2276.5,200733.10000002384,7076,kind,AF,C,199837,199837,197992,199105,197993,200269,199620,199620,200269,13
14,test,1,inc,1,z,Mon Mar 10 2025 14:54:59 GMT-0500 (Central Daylight Time),205077.0,rock,900,O,z,z,None,632,416.0,216.0,22,1,2062.199999988079,203014.80000001192,7076,love,AF,C,201920,201920,200274,201185,200274,202336,201703,201703,202336,14
15,test,1,con,1,z,Mon Mar 10 2025 14:54:59 GMT-0500 (Central Daylight Time),206958.10000002384,brutal,800,O,z,z,None,538,322.0,216.0,33,1,1875.800000011921,205082.30000001192,7076,brutal,AF,C,203886,203886,202341,203152,202342,204217,203669,203669,204217,15
16,test,1,inc,1,m,Mon Mar 10 2025 14:54:59 GMT-0500 (Central Daylight Time),209057.20000004768,kind,900,O,m,m,None,660,461.0,199.0,86,1,2094.900000035763,206962.30000001192,7076,bell,AF,C,205851,205851,204221,205136,204222,206316,205651,205651,206316,16
17,test,1,con,1,z,Mon Mar 10 2025 14:54:59 GMT-0500 (Central Daylight Time),211022.60000002384,friend,900,O,z,z,None,518,319.0,199.0,26,1,1961.199999988079,209061.40000003576,7076,friend,AF,C,207951,207951,206320,207233,206321,208282,207751,207751,208282,17
18,test,1,inc,1,z,Mon Mar 10 2025 14:54:59 GMT-0500 (Central Daylight Time),213072.5,step,800,O,z,z,None,710,510.0,200.0,21,1,2044.8999999761581,211027.60000002384,7076,love,AF,C,209817,209817,208287,209101,208287,210332,209616,209616,210332,18
19,test,1,inc,1,m,Mon Mar 10 2025 14:54:59 GMT-0500 (Central Daylight Time),215054.5,elated,800,O,m,m,None,645,445.0,200.0,117,1,1977.0,213077.5,7076,remote,AF,C,211866,211866,210337,211151,210337,212314,211666,211666,212314,19
19,test,1,inc,0,m,Mon Mar 10 2025 14:54:59 GMT-0500 (Central Daylight Time),217337.80000001192,hate,1100,O,z,z,None,642,425.0,217.0,72,1,2278.5,215059.30000001192,7076,step,AF,C,214166,214166,212318,213433,212319,214597,213949,213949,214597,20
20,test,1,con,1,z,Mon Mar 10 2025 14:54:59 GMT-0500 (Central Daylight Time),219504.70000004768,kind,1100,O,z,z,None,520,321.0,199.0,12,1,2162.0,217342.70000004768,7076,kind,AF,C,216430,216430,214602,215715,214602,216764,216231,216231,216764,21
21,test,1,con,1,z,Mon Mar 10 2025 14:54:59 GMT-0500 (Central Daylight Time),221420.10000002384,elated,900,O,z,z,None,488,274.0,214.0,2,1,1910.199999988079,219509.90000003576,7076,elated,AF,C,218395,218396,216769,217678,216769,218679,218181,218181,218679,22
22,test,1,con,1,z,Mon Mar 10 2025 14:54:59 GMT-0500 (Central Daylight Time),223588.10000002384,love,1100,O,z,z,None,530,317.0,213.0,20,1,2163.199999988079,221424.90000003576,7076,love,AF,C,220513,220513,218684,219796,218684,220847,220299,220299,220847,23
23,test,1,con,1,z,Mon Mar 10 2025 14:54:59 GMT-0500 (Central Daylight Time),225603.0,love,900,O,z,z,None,575,376.0,199.0,18,1,2009.8999999761581,223593.10000002384,7076,love,AF,C,222479,222479,220852,221762,220852,222862,222280,222280,222862,24
24,test,1,inc,1,z,Mon Mar 10 2025 14:54:59 GMT-0500 (Central Daylight Time),227669.80000001192,step,800,O,z,z,None,731,517.0,214.0,13,1,2061.399999976158,225608.40000003576,7076,kind,AF,C,224411,224411,222867,223679,222868,224929,224196,224196,224929,25
25,test,1,con,1,m,Mon Mar 10 2025 14:54:59 GMT-0500 (Central Daylight Time),229701.10000002384,napkin,1000,O,m,m,None,490,291.0,199.0,107,1,2027.1000000238419,227674.0,7076,napkin,AF,C,226660,226660,224933,225945,224934,226960,226461,226461,226960,26
26,test,1,con,1,m,Mon Mar 10 2025 14:54:59 GMT-0500 (Central Daylight Time),231817.90000003576,jacket,1100,O,m,m,None,477,278.0,199.0,100,1,2112.199999988079,229705.70000004768,7076,jacket,AF,C,228793,228793,226965,228077,226965,229077,228594,228594,229077,27
27,test,1,con,1,z,Mon Mar 10 2025 14:54:59 GMT-0500 (Central Daylight Time),233782.0,hate,900,O,z,z,None,517,317.0,200.0,42,1,1959.8999999761581,231822.10000002384,7076,hate,AF,C,230710,230710,229081,229995,229081,231041,230509,230509,231041,28
28,test,1,con,1,m,Mon Mar 10 2025 14:54:59 GMT-0500 (Central Daylight Time),235798.20000004768,remote,900,O,m,m,None,567,366.0,201.0,114,1,2010.1000000238419,233788.10000002384,7076,remote,AF,C,232676,232676,231047,231960,231048,233057,232475,232475,233057,29
29,test,1,con,1,m,Mon Mar 10 2025 14:54:59 GMT-0500 (Central Daylight Time),237614.40000003576,bell,800,O,m,m,None,478,262.0,216.0,81,1,1810.9000000357628,235803.5,7076,bell,AF,C,234609,234609,233063,233876,233063,234874,234393,234393,234873,30
30,test,1,con,1,z,Mon Mar 10 2025 14:54:59 GMT-0500 (Central Daylight Time),239731.10000002384,hate,1000,O,z,z,None,566,367.0,199.0,43,1,2111.300000011921,237619.80000001192,7076,hate,AF,C,236608,236608,234879,235892,234879,236990,236409,236409,236990,31
31,test,1,inc,1,z,Mon Mar 10 2025 14:54:59 GMT-0500 (Central Daylight Time),242131.90000003576,window,1100,O,z,z,None,751,551.0,200.0,32,1,2395.0,239736.90000003576,7076,friend,AF,C,238823,238823,236996,238108,236996,239391,238623,238623,239391,32
32,test,1,con,1,z,Mon Mar 10 2025 14:54:59 GMT-0500 (Central Daylight Time),244312.20000004768,brutal,1100,O,z,z,None,550,351.0,199.0,36,1,2174.100000023842,242138.10000002384,7076,brutal,AF,C,241207,241207,239397,240506,239397,241571,241008,241008,241571,33
33,test,1,con,1,m,Mon Mar 10 2025 14:54:59 GMT-0500 (Central Daylight Time),246678.30000001192,remote,1000,O,m,m,None,828,629.0,199.0,115,1,2359.5,244318.80000001192,7076,remote,AF,C,243305,243305,241578,242588,241578,243937,243105,243105,243937,34
34,test,1,inc,1,z,Mon Mar 10 2025 14:54:59 GMT-0500 (Central Daylight Time),248780.20000004768,rock,900,O,z,z,None,650,451.0,199.0,54,1,2096.2000000476837,246684.0,7076,rage,AF,C,245572,245572,243943,244855,243944,246039,245372,245372,246039,35
35,test,1,inc,1,z,Mon Mar 10 2025 14:54:59 GMT-0500 (Central Daylight Time),250994.0,film,1100,O,z,z,None,567,367.0,200.0,48,1,2208.5,248785.5,7076,hate,AF,C,247871,247871,246045,247154,246045,248253,247671,247671,248253,36
36,test,1,con,1,z,Mon Mar 10 2025 14:54:59 GMT-0500 (Central Daylight Time),253176.40000003576,rage,1000,O,z,z,None,643,444.0,199.0,51,1,2176.800000011921,250999.60000002384,7076,rage,AF,C,249987,249987,248259,249270,248259,250435,249786,249787,250435,37
37,test,1,con,1,z,Mon Mar 10 2025 14:54:59 GMT-0500 (Central Daylight Time),255325.80000001192,brutal,1000,O,z,z,None,605,389.0,216.0,35,1,2144.399999976158,253181.40000003576,7076,brutal,AF,C,252186,252186,250440,251453,250441,252585,251970,251970,252585,38
38,test,1,con,1,m,Mon Mar 10 2025 14:54:59 GMT-0500 (Central Daylight Time),257224.60000002384,remote,800,O,m,m,None,550,335.0,215.0,113,1,1894.300000011921,255330.30000001192,7076,remote,AF,C,254135,254135,252589,253403,252590,254484,253920,253920,254484,39
39,test,1,inc,1,m,Mon Mar 10 2025 14:54:59 GMT-0500 (Central Daylight Time),259390.0,temper,1000,O,m,m,None,629,429.0,200.0,103,1,2160.899999976158,257229.10000002384,7076,jacket,AF,C,256218,256218,254488,255501,254489,256649,256017,256017,256649,40
40,test,1,inc,1,m,Mon Mar 10 2025 14:54:59 GMT-0500 (Central Daylight Time),261422.70000004768,kind,900,O,m,m,None,586,385.0,201.0,94,1,2028.300000011921,259394.40000003576,7076,film,AF,C,258285,258285,256653,257567,256654,258682,258084,258084,258682,41
41,test,1,con,1,m,Mon Mar 10 2025 14:54:59 GMT-0500 (Central Daylight Time),263291.2000000477,window,800,O,m,m,None,532,333.0,199.0,121,1,1864.800000011921,261426.40000003576,7076,window,AF,C,260217,260217,258685,259501,258686,260550,260017,260017,260550,42
42,test,1,inc,1,z,Mon Mar 10 2025 14:54:59 GMT-0500 (Central Daylight Time),265471.90000003576,bell,1000,O,z,z,None,634,435.0,199.0,23,1,2174.800000011921,263297.10000002384,7076,love,AF,C,262283,262283,260556,261566,260557,262731,262083,262083,262731,43
43,test,1,inc,1,m,Mon Mar 10 2025 14:54:59 GMT-0500 (Central Daylight Time),267371.8000000119,rage,800,O,m,m,None,548,349.0,199.0,85,1,1892.5999999642372,265479.2000000477,7076,bell,AF,C,264265,264265,262738,263549,262738,264631,264066,264066,264631,44
44,test,1,con,1,z,Mon Mar 10 2025 14:54:59 GMT-0500 (Central Daylight Time),269406.40000003576,temper,900,O,z,z,None,599,385.0,214.0,58,1,2026.5,267379.90000003576,7076,temper,AF,C,266280,266280,264639,265548,264639,266665,266066,266066,266665,45
45,test,1,con,1,z,Mon Mar 10 2025 14:54:59 GMT-0500 (Central Daylight Time),271521.40000003576,kind,1000,O,z,z,None,584,385.0,199.0,11,1,2109.5,269411.90000003576,7076,kind,AF,C,268382,268382,266671,267681,266671,268781,268182,268182,268780,46
46,test,1,inc,1,m,Mon Mar 10 2025 14:54:59 GMT-0500 (Central Daylight Time),273604.10000002384,love,1000,O,m,m,None,549,349.0,200.0,95,1,2077.5,271526.60000002384,7076,film,AF,C,270513,270514,268786,269799,268786,270863,270313,270313,270863,47
47,test,1,con,1,m,Mon Mar 10 2025 14:54:59 GMT-0500 (Central Daylight Time),275653.7000000477,bell,900,O,m,m,None,607,406.0,201.0,82,1,2045.2000000476837,273608.5,7076,bell,AF,C,272497,272497,270868,271782,270868,272913,272296,272296,272913,48
48,test,1,inc,1,z,Mon Mar 10 2025 14:54:59 GMT-0500 (Central Daylight Time),277701.60000002384,bell,1000,O,z,z,None,513,297.0,216.0,15,1,2042.3999999761581,275659.2000000477,7076,kind,AF,C,274663,274663,272918,273929,272919,274961,274447,274447,274961,49
49,test,1,inc,1,z,Mon Mar 10 2025 14:54:59 GMT-0500 (Central Daylight Time),279752.8000000119,jacket,800,O,z,z,None,728,528.0,200.0,37,1,2044.199999988079,277708.60000002384,7076,brutal,AF,C,276479,276479,274968,275778,274968,277012,276279,276279,277012,50
50,test,1,inc,1,z,Mon Mar 10 2025 14:54:59 GMT-0500 (Central Daylight Time),282099.60000002384,film,1100,O,z,z,None,712,512.0,200.0,56,1,2338.5,279761.10000002384,7076,rage,AF,C,278846,278846,277020,278128,277021,279359,278645,278645,279359,51
51,test,1,inc,1,m,Mon Mar 10 2025 14:54:59 GMT-0500 (Central Daylight Time),284284.5,hate,1100,O,m,m,None,540,340.0,200.0,80,1,2182.199999988079,282102.3000000119,7076,rock,AF,C,281194,281194,279361,280479,279362,281544,280993,280993,281544,52
52,test,1,inc,1,z,Mon Mar 10 2025 14:54:59 GMT-0500 (Central Daylight Time),286517.40000003576,remote,1000,O,z,z,None,705,492.0,213.0,63,1,2226.199999988079,284291.2000000477,7076,temper,AF,C,283275,283275,281550,282560,281551,283776,283062,283062,283776,53
53,test,1,inc,1,m,Mon Mar 10 2025 14:54:59 GMT-0500 (Central Daylight Time),288702.2000000477,temper,1000,O,m,m,None,668,468.0,200.0,119,1,2180.2000000476837,286522.0,7076,remote,AF,C,285493,285493,283781,284792,283781,285961,285293,285293,285961,54
54,test,1,con,1,z,Mon Mar 10 2025 14:54:59 GMT-0500 (Central Daylight Time),291133.60000002384,friend,1100,O,z,z,None,789,589.0,200.0,28,1,2426.0,288707.60000002384,7076,friend,AF,C,287792,287792,285967,287075,285967,288393,287591,287591,288393,55
55,test,1,con,1,m,Mon Mar 10 2025 14:54:59 GMT-0500 (Central Daylight Time),293481.2000000477,window,1100,O,m,m,None,715,502.0,213.0,124,1,2344.100000023842,291137.10000002384,7076,window,AF,C,290224,290224,288396,289507,288396,290740,290010,290010,290740,56
56,test,1,inc,1,m,Mon Mar 10 2025 14:54:59 GMT-0500 (Central Daylight Time),295746.5,love,1000,O,m,m,None,726,527.0,199.0,87,1,2261.399999976158,293485.10000002384,7076,bell,AF,C,292472,292472,290744,291758,290744,293006,292273,292273,293006,57
57,test,1,inc,1,m,Mon Mar 10 2025 14:54:59 GMT-0500 (Central Daylight Time),297612.90000003576,elated,800,O,m,m,None,524,324.0,200.0,101,1,1861.9000000357628,295751.0,7076,jacket,AF,C,294539,294539,293010,293822,293010,294872,294339,294339,294872,58
58,test,1,con,1,z,Mon Mar 10 2025 14:54:59 GMT-0500 (Central Daylight Time),299927.60000002384,rage,1100,O,z,z,None,669,469.0,200.0,52,1,2310.899999976158,297616.7000000477,7076,rage,AF,C,296705,296705,294876,295989,294876,297187,296505,296505,297187,59
59,test,1,con,1,z,Mon Mar 10 2025 14:54:59 GMT-0500 (Central Daylight Time),302046.5,temper,1100,O,z,z,None,483,268.0,215.0,60,1,2114.7999999523163,299931.7000000477,7076,temper,AF,C,299037,299037,297191,298304,297191,299306,298822,298822,299306,60
60,test,1,inc,1,z,Mon Mar 10 2025 14:54:59 GMT-0500 (Central Daylight Time),304027.7000000477,step,800,O,z,z,None,640,441.0,199.0,53,1,1975.300000011921,302052.40000003576,7076,rage,AF,C,300837,300837,299311,300120,299312,301287,300638,300638,301287,61
61,test,1,inc,1,z,Mon Mar 10 2025 14:54:59 GMT-0500 (Central Daylight Time),306243.3000000119,window,1100,O,z,z,None,575,376.0,199.0,8,1,2209.899999976158,304033.40000003576,7076,elated,AF,C,303119,303119,301292,302403,301293,303502,302920,302920,303502,62
62,test,1,inc,1,z,Mon Mar 10 2025 14:54:59 GMT-0500 (Central Daylight Time),308142.8000000119,step,800,O,z,z,None,565,366.0,199.0,45,1,1895.0999999642372,306247.7000000477,7076,hate,AF,C,305035,305036,303507,304320,303507,305402,304836,304836,305402,63
63,test,1,inc,1,m,Mon Mar 10 2025 14:54:59 GMT-0500 (Central Daylight Time),310075.3000000119,rage,800,O,m,m,None,604,405.0,199.0,69,1,1928.300000011921,308147.0,7076,step,AF,C,306920,306920,305406,306218,305406,307334,306720,306720,307334,64
63,test,1,inc,0,z,Mon Mar 10 2025 14:54:59 GMT-0500 (Central Daylight Time),312041.60000002384,napkin,900,O,m,m,None,518,319.0,199.0,6,1,1960.800000011921,310080.8000000119,7076,elated,AF,C,308967,308967,307340,308252,307340,309301,308768,308768,309301,65
64,test,1,con,1,m,Mon Mar 10 2025 14:54:59 GMT-0500 (Central Daylight Time),314510.40000003576,step,1000,O,m,m,None,922,706.0,216.0,67,1,2463.699999988079,312046.7000000477,7076,step,AF,C,311051,311051,309306,310318,309306,311769,310835,310835,311769,66
65,test,1,inc,1,m,Mon Mar 10 2025 14:54:59 GMT-0500 (Central Daylight Time),316439.5,elated,800,O,m,m,None,593,394.0,199.0,125,1,1926.2999999523163,314513.2000000477,7076,window,AF,C,313300,313300,311772,312584,311772,313699,313101,313101,313699,67
65,test,1,inc,0,z,Mon Mar 10 2025 14:54:59 GMT-0500 (Central Daylight Time),318555.40000003576,napkin,900,O,m,m,None,674,474.0,200.0,30,1,2111.600000023842,316443.8000000119,7076,friend,AF,C,315333,315333,313703,314616,313703,315815,315133,315133,315814,68
66,test,1,con,1,z,Mon Mar 10 2025 14:54:59 GMT-0500 (Central Daylight Time),320572.40000003576,kind,900,O,z,z,None,582,381.0,201.0,10,1,2009.699999988079,318562.7000000477,7076,kind,AF,C,317450,317450,315822,316732,315822,317831,317248,317248,317831,69
67,test,1,con,1,m,Mon Mar 10 2025 14:54:59 GMT-0500 (Central Daylight Time),322855.2000000477,film,1000,O,m,m,None,736,521.0,215.0,91,1,2277.0,320578.2000000477,7076,film,AF,C,319582,319582,317837,318848,317838,320114,319366,319366,320114,70
68,test,1,con,1,z,Mon Mar 10 2025 14:54:59 GMT-0500 (Central Daylight Time),325087.5,temper,800,O,z,z,None,895,696.0,199.0,57,1,2228.0,322859.5,7076,temper,AF,C,321647,321647,320119,320931,320119,322347,321448,321448,322347,71
69,test,1,con,1,z,Mon Mar 10 2025 14:54:59 GMT-0500 (Central Daylight Time),327003.8000000119,love,800,O,z,z,None,574,375.0,199.0,17,1,1911.5999999642372,325092.2000000477,7076,love,AF,C,323880,323880,322351,323164,322352,324263,323680,323680,324263,72
70,test,1,inc,1,z,Mon Mar 10 2025 14:54:59 GMT-0500 (Central Daylight Time),329203.0,remote,1000,O,z,z,None,650,451.0,199.0,39,1,2195.099999964237,327007.90000003576,7076,brutal,AF,C,325996,325996,324267,325279,324267,326462,325797,325797,326462,73
71,test,1,inc,1,z,Mon Mar 10 2025 14:54:59 GMT-0500 (Central Daylight Time),331301.2000000477,rock,900,O,z,z,None,648,449.0,199.0,14,1,2092.0,329209.2000000477,7076,kind,AF,C,328095,328095,326468,327379,326469,328560,327896,327896,328560,74
72,test,1,inc,1,z,Mon Mar 10 2025 14:54:59 GMT-0500 (Central Daylight Time),333534.2000000477,remote,1000,O,z,z,None,696,496.0,200.0,7,1,2225.0,331309.2000000477,7076,elated,AF,C,330295,330295,328568,329578,328569,330793,330094,330094,330793,75
73,test,1,inc,1,m,Mon Mar 10 2025 14:54:59 GMT-0500 (Central Daylight Time),335751.2000000477,hate,1100,O,m,m,None,581,367.0,214.0,96,1,2212.2000000476837,333539.0,7076,film,AF,C,332643,332643,330798,331912,330798,333010,332428,332428,333010,76
74,test,1,inc,1,m,Mon Mar 10 2025 14:54:59 GMT-0500 (Central Daylight Time),337933.8000000119,temper,1000,O,m,m,None,649,449.0,200.0,127,1,2177.899999976158,335755.90000003576,7076,window,AF,C,334743,334743,333015,334026,333015,335193,334543,334543,335193,77
75,test,1,inc,1,m,Mon Mar 10 2025 14:54:59 GMT-0500 (Central Daylight Time),340133.60000002384,brutal,900,O,m,m,None,749,550.0,199.0,102,1,2193.399999976158,337940.2000000477,7076,jacket,AF,C,336825,336825,335199,336109,335200,337393,336625,336625,337393,78
76,test,1,inc,1,z,Mon Mar 10 2025 14:54:59 GMT-0500 (Central Daylight Time),342014.5,jacket,800,O,z,z,None,543,328.0,215.0,29,1,1875.5999999642372,340138.90000003576,7076,friend,AF,C,338942,338942,337398,338210,337398,339274,338726,338726,339274,79
77,test,1,con,1,z,Mon Mar 10 2025 14:54:59 GMT-0500 (Central Daylight Time),344214.3000000119,elated,1100,O,z,z,None,554,355.0,199.0,4,1,2195.899999976158,342018.40000003576,7076,elated,AF,C,341107,341108,339277,340392,339278,341473,340908,340908,341473,80
78,test,1,inc,1,m,Mon Mar 10 2025 14:54:59 GMT-0500 (Central Daylight Time),346548.5,friend,1100,O,m,m,None,684,485.0,199.0,120,1,2329.699999988079,344218.8000000119,7076,remote,AF,C,343307,343307,341478,342591,341478,343808,343108,343108,343808,81
79,test,1,inc,1,m,Mon Mar 10 2025 14:54:59 GMT-0500 (Central Daylight Time),349197.3000000119,friend,1100,O,m,m,None,1016,817.0,199.0,104,1,2644.0,346553.3000000119,7076,jacket,AF,C,345639,345639,343812,344924,343813,346456,345440,345440,346456,82
80,test,1,con,1,z,Mon Mar 10 2025 14:54:59 GMT-0500 (Central Daylight Time),351129.5,friend,800,O,z,z,None,585,385.0,200.0,25,1,1926.699999988079,349202.8000000119,7076,friend,AF,C,347989,347989,346462,347272,346462,348389,347789,347789,348389,83
81,test,1,inc,1,m,Mon Mar 10 2025 14:54:59 GMT-0500 (Central Daylight Time),353411.7000000477,friend,1100,O,m,m,None,639,440.0,199.0,128,1,2277.5,351134.2000000477,7076,window,AF,C,350222,350222,348393,349505,348393,350671,350021,350022,350671,84
82,test,1,con,1,m,Mon Mar 10 2025 14:54:59 GMT-0500 (Central Daylight Time),355710.0,bell,1100,O,m,m,None,647,448.0,199.0,84,1,2292.899999976158,353417.10000002384,7076,bell,AF,C,352505,352505,350676,351788,350676,352969,352305,352305,352969,85
83,test,1,con,1,m,Mon Mar 10 2025 14:54:59 GMT-0500 (Central Daylight Time),358143.90000003576,step,1100,O,m,m,None,787,587.0,200.0,68,1,2427.100000023842,355716.8000000119,7076,step,AF,C,354804,354804,352976,354088,352976,355403,354604,354604,355403,86
84,test,1,inc,1,z,Mon Mar 10 2025 14:54:59 GMT-0500 (Central Daylight Time),360275.5,bell,1000,O,z,z,None,596,381.0,215.0,47,1,2126.5,358149.0,7076,hate,AF,C,357153,357153,355408,356419,355408,357535,356937,356937,357535,87
85,test,1,con,1,z,Mon Mar 10 2025 14:54:59 GMT-0500 (Central Daylight Time),362273.10000002384,elated,800,O,z,z,None,670,471.0,199.0,1,1,1993.8999999761581,360279.2000000477,7076,elated,AF,C,359053,359054,357538,358353,357539,359532,358854,358854,359532,88
86,test,1,con,1,z,Mon Mar 10 2025 14:54:59 GMT-0500 (Central Daylight Time),364092.60000002384,hate,800,O,z,z,None,492,291.0,201.0,41,1,1816.1000000238419,362276.5,7076,hate,AF,C,361052,361052,359536,360350,359536,361352,360851,360851,361352,89
87,test,1,con,1,m,Mon Mar 10 2025 14:54:59 GMT-0500 (Central Daylight Time),366541.8000000119,bell,1000,O,m,m,None,930,715.0,215.0,83,1,2443.5,364098.3000000119,7076,bell,AF,C,363084,363084,361357,362367,361358,363801,362868,362868,363801,90
88,test,1,con,1,m,Mon Mar 10 2025 14:54:59 GMT-0500 (Central Daylight Time),368656.7000000477,remote,1100,O,m,m,None,477,277.0,200.0,116,1,2111.0,366545.7000000477,7076,remote,AF,C,365633,365634,363805,364918,363805,365916,365433,365433,365916,91
89,test,1,inc,1,m,Mon Mar 10 2025 14:54:59 GMT-0500 (Central Daylight Time),370889.40000003576,friend,1100,O,m,m,None,593,394.0,199.0,112,1,2228.300000011921,368661.10000002384,7076,napkin,AF,C,367749,367749,365920,367033,365921,368148,367550,367550,368148,92
90,test,1,con,1,m,Mon Mar 10 2025 14:54:59 GMT-0500 (Central Daylight Time),373021.90000003576,step,900,O,m,m,None,696,497.0,199.0,66,1,2128.300000011921,370893.60000002384,7076,step,AF,C,369782,369782,368153,369065,368153,370281,369583,369583,370281,93
91,test,1,con,1,m,Mon Mar 10 2025 14:54:59 GMT-0500 (Central Daylight Time),374973.0,napkin,900,O,m,m,None,517,302.0,215.0,106,1,1944.2999999523163,373028.7000000477,7076,napkin,AF,C,371930,371930,370288,371198,370288,372232,371715,371715,372232,94
92,test,1,con,1,z,Mon Mar 10 2025 14:54:59 GMT-0500 (Central Daylight Time),377087.8000000119,rage,800,O,z,z,None,794,595.0,199.0,49,1,2108.699999988079,374979.10000002384,7076,rage,AF,C,373748,373748,372238,373047,372238,374347,373548,373548,374347,95
93,test,1,inc,1,z,Mon Mar 10 2025 14:54:59 GMT-0500 (Central Daylight Time),379352.60000002384,window,1100,O,z,z,None,618,419.0,199.0,40,1,2260.300000011921,377092.3000000119,7076,brutal,AF,C,376179,376179,374351,375466,374352,376612,375980,375980,376612,96
94,test,1,con,1,m,Mon Mar 10 2025 14:54:59 GMT-0500 (Central Daylight Time),381786.3000000119,film,900,O,m,m,None,1000,785.0,215.0,90,1,2428.0,379358.3000000119,7076,film,AF,C,378245,378245,376617,377529,376618,379045,378030,378030,379045,97
95,test,1,con,1,m,Mon Mar 10 2025 14:54:59 GMT-0500 (Central Daylight Time),383751.7000000477,jacket,900,O,m,m,None,518,317.0,201.0,98,1,1960.1000000238419,381791.60000002384,7076,jacket,AF,C,380680,380680,379051,379963,379051,381011,380479,380479,381011,98
96,test,1,con,1,m,Mon Mar 10 2025 14:54:59 GMT-0500 (Central Daylight Time),385735.7000000477,rock,1000,O,m,m,None,432,214.0,218.0,75,1,1980.0,383755.7000000477,7076,rock,AF,C,382763,382763,381015,382028,381015,382995,382545,382545,382995,99
97,test,1,inc,1,m,Mon Mar 10 2025 14:54:59 GMT-0500 (Central Daylight Time),387633.2000000477,rage,800,O,m,m,None,558,358.0,200.0,93,1,1890.6000000238419,385742.60000002384,7076,film,AF,C,384528,384528,383002,383811,383002,384892,384328,384328,384892,100
98,test,1,inc,1,m,Mon Mar 10 2025 14:54:59 GMT-0500 (Central Daylight Time),389783.90000003576,brutal,900,O,m,m,None,712,495.0,217.0,118,1,2146.400000035763,387637.5,7076,remote,AF,C,386544,386544,384897,385810,384897,387043,386327,386327,387043,101
99,test,1,inc,1,m,Mon Mar 10 2025 14:54:59 GMT-0500 (Central Daylight Time),391965.2000000477,hate,1100,O,m,m,None,538,338.0,200.0,88,1,2176.7000000476837,389788.5,7076,bell,AF,C,388877,388877,387048,388160,387048,389224,388676,388676,389224,102
100,test,1,con,1,m,Mon Mar 10 2025 14:54:59 GMT-0500 (Central Daylight Time),393898.90000003576,window,900,O,m,m,None,492,292.0,200.0,122,1,1926.800000011921,391972.10000002384,7076,window,AF,C,390859,390859,389231,390142,389232,391158,390659,390659,391158,103
101,test,1,con,1,m,Mon Mar 10 2025 14:54:59 GMT-0500 (Central Daylight Time),395848.90000003576,rock,900,O,m,m,None,502,303.0,199.0,74,1,1942.4000000357628,393906.5,7076,rock,AF,C,392791,392791,391166,392076,391166,393108,392592,392592,393108,104
102,test,1,inc,1,m,Mon Mar 10 2025 14:54:59 GMT-0500 (Central Daylight Time),397964.8000000119,love,1000,O,m,m,None,566,366.0,200.0,79,1,2111.199999988079,395853.60000002384,7076,rock,AF,C,394841,394841,393113,394124,393113,395224,394641,394641,395224,105
103,test,1,con,1,z,Mon Mar 10 2025 14:54:59 GMT-0500 (Central Daylight Time),400046.90000003576,brutal,900,O,z,z,None,648,449.0,199.0,34,1,2076.0,397970.90000003576,7076,brutal,AF,C,396857,396857,395230,396140,395230,397306,396657,396657,397306,106
104,test,1,inc,1,m,Mon Mar 10 2025 14:54:59 GMT-0500 (Central Daylight Time),401945.5,elated,800,O,m,m,None,559,360.0,199.0,109,1,1894.699999988079,400050.8000000119,7076,napkin,AF,C,398838,398838,397310,398123,397310,399205,398639,398639,399205,107
105,test,1,inc,1,z,Mon Mar 10 2025 14:54:59 GMT-0500 (Central Daylight Time),404161.7000000477,napkin,900,O,z,z,None,792,593.0,199.0,38,1,2211.900000035763,401949.8000000119,7076,brutal,AF,C,400822,400822,399209,400121,399209,401421,400622,400622,401421,108
106,test,1,inc,1,z,Mon Mar 10 2025 14:54:59 GMT-0500 (Central Daylight Time),406478.60000002384,film,1100,O,z,z,None,682,482.0,200.0,24,1,2311.399999976158,404167.2000000477,7076,love,AF,C,403255,403255,401426,402539,401427,403738,403055,403055,403738,109
107,test,1,inc,1,z,Mon Mar 10 2025 14:54:59 GMT-0500 (Central Daylight Time),408477.40000003576,jacket,800,O,z,z,None,663,464.0,199.0,5,1,1991.800000011921,406485.60000002384,7076,elated,AF,C,405271,405271,403745,404555,403745,405737,405071,405071,405736,110
108,test,1,con,1,z,Mon Mar 10 2025 14:54:59 GMT-0500 (Central Daylight Time),410243.3000000119,kind,800,O,z,z,None,424,208.0,216.0,9,1,1761.0999999642372,408482.2000000477,7076,kind,AF,C,407287,407287,405741,406553,405742,407502,407071,407071,407502,111
109,test,1,con,1,m,Mon Mar 10 2025 14:54:59 GMT-0500 (Central Daylight Time),412059.2000000477,napkin,800,O,m,m,None,470,257.0,213.0,105,1,1810.4000000357628,410248.8000000119,7076,napkin,AF,C,409053,409053,407508,408318,407508,409318,408839,408839,409318,112
110,test,1,inc,1,m,Mon Mar 10 2025 14:54:59 GMT-0500 (Central Daylight Time),414258.40000003576,brutal,900,O,m,m,None,758,558.0,200.0,126,1,2195.600000023842,412062.8000000119,7076,window,AF,C,410953,410953,409322,410235,409322,411517,410753,410753,411517,113
111,test,1,inc,1,m,Mon Mar 10 2025 14:54:59 GMT-0500 (Central Daylight Time),416740.40000003576,rage,800,O,m,m,None,1138,938.0,200.0,77,1,2477.100000023842,414263.3000000119,7076,rock,AF,C,413052,413052,411522,412335,411523,414000,412852,412852,413999,114
112,test,1,con,1,m,Mon Mar 10 2025 14:54:59 GMT-0500 (Central Daylight Time),418908.2000000477,rock,1100,O,m,m,None,532,333.0,199.0,76,1,2164.7000000476837,416743.5,7076,rock,AF,C,415834,415834,414003,415117,414003,416167,415635,415635,416167,115
112,test,1,con,0,z,Mon Mar 10 2025 14:54:59 GMT-0500 (Central Daylight Time),420940.7000000477,friend,1000,O,m,m,None,499,286.0,213.0,27,1,2026.7000000476837,418914.0,7076,friend,AF,C,417899,417899,416173,417183,416173,418200,417686,417686,418200,116
113,test,1,con,1,m,Mon Mar 10 2025 14:54:59 GMT-0500 (Central Daylight Time),422740.10000002384,rock,800,O,m,m,None,450,251.0,199.0,73,1,1792.199999988079,420947.90000003576,7076,rock,AF,C,419733,419733,418207,419017,418207,419999,419533,419533,419999,117
114,test,1,inc,1,m,Mon Mar 10 2025 14:54:59 GMT-0500 (Central Daylight Time),424774.90000003576,kind,900,O,m,m,None,600,401.0,199.0,70,1,2027.6000000238419,422747.3000000119,7076,step,AF,C,421633,421633,420006,420916,420007,422034,421433,421433,422034,118
115,test,1,con,1,z,Mon Mar 10 2025 14:54:59 GMT-0500 (Central Daylight Time),426754.8000000119,elated,1000,O,z,z,None,443,243.0,200.0,3,1,1973.800000011921,424781.0,7076,elated,AF,C,423764,423764,422040,423047,422040,424014,423564,423564,424014,119
116,test,1,con,1,z,Mon Mar 10 2025 14:54:59 GMT-0500 (Central Daylight Time),428790.5,love,1000,O,z,z,None,505,290.0,215.0,19,1,2031.0,426759.5,7076,love,AF,C,425748,425748,424019,425030,424019,426050,425532,425532,426049,120
117,test,1,con,1,m,Mon Mar 10 2025 14:54:59 GMT-0500 (Central Daylight Time),431336.3000000119,film,1100,O,m,m,None,902,701.0,201.0,92,1,2538.699999988079,428797.60000002384,7076,film,AF,C,427881,427881,426057,427166,426057,428595,427680,427680,428595,121
118,test,1,inc,1,m,Mon Mar 10 2025 14:54:59 GMT-0500 (Central Daylight Time),433302.3000000119,brutal,900,O,m,m,None,532,332.0,200.0,110,1,1960.300000011921,431342.0,7076,napkin,AF,C,430229,430229,428601,429515,428601,430561,430029,430029,430561,122
119,test,1,inc,1,z,Mon Mar 10 2025 14:54:59 GMT-0500 (Central Daylight Time),435669.60000002384,window,1100,O,z,z,None,730,515.0,215.0,64,1,2361.800000011921,433307.8000000119,7076,temper,AF,C,432412,432413,430567,431679,430567,432929,432197,432197,432929,123
120,test,1,con,1,m,Mon Mar 10 2025 14:54:59 GMT-0500 (Central Daylight Time),437700.90000003576,step,800,O,m,m,None,688,488.0,200.0,65,1,2026.1000000238419,435674.8000000119,7076,step,AF,C,434462,434462,432934,433745,432934,434960,434261,434261,434960,124
121,test,1,con,1,z,Mon Mar 10 2025 14:54:59 GMT-0500 (Central Daylight Time),439651.5,rage,900,O,z,z,None,515,300.0,215.0,50,1,1945.2999999523163,437706.2000000477,7076,rage,AF,C,436610,436610,434965,435878,434966,436911,436395,436395,436911,125
122,test,1,con,1,m,Mon Mar 10 2025 14:54:59 GMT-0500 (Central Daylight Time),441583.40000003576,film,800,O,m,m,None,587,370.0,217.0,89,1,1927.300000011921,439656.10000002384,7076,film,AF,C,438461,438461,436915,437727,436915,438842,438244,438244,438842,126
123,test,1,con,1,m,Mon Mar 10 2025 14:54:59 GMT-0500 (Central Daylight Time),443682.3000000119,napkin,1100,O,m,m,None,473,257.0,216.0,108,1,2093.5,441588.8000000119,7076,napkin,AF,C,440677,440677,438848,439959,438848,440942,440460,440460,440941,127
124,test,1,inc,1,z,Mon Mar 10 2025 14:54:59 GMT-0500 (Central Daylight Time),445748.2000000477,jacket,800,O,z,z,None,730,530.0,200.0,61,1,2060.600000023842,443687.60000002384,7076,temper,AF,C,442476,442476,440947,441759,440947,443007,442275,442275,443007,128
