block_c,block_dur,condition,countdown,datetime,endtime,list,multichar_response,project,response,response_time,session_number,start_end,starttime,subject_id,task,task_vers,trial
,,,,Fri Apr 04 2025 14:03:17 GMT-0500 (Central Daylight Time),,,,O,space,732,1,,,7098,WL,B,
prac,,0,,Fri Apr 04 2025 14:03:17 GMT-0500 (Central Daylight Time),,NA,b,O,b,1905,1,,,7098,WL,B,1.0
prac,,0,,Fri Apr 04 2025 14:03:17 GMT-0500 (Central Daylight Time),,NA,bo,O,o,408,1,,,7098,WL,B,1.0
prac,,0,,Fri Apr 04 2025 14:03:17 GMT-0500 (Central Daylight Time),,NA,bos,O,s,176,1,,,7098,WL,B,1.0
prac,,0,,Fri Apr 04 2025 14:03:17 GMT-0500 (Central Daylight Time),,NA,bost,O,t,153,1,,,7098,WL,B,1.0
prac,,0,,Fri Apr 04 2025 14:03:17 GMT-0500 (Central Daylight Time),,NA,bos,O,backspace,2275,1,,,7098,WL,B,1.0
prac,,0,,Fri Apr 04 2025 14:03:17 GMT-0500 (Central Daylight Time),,NA,bo,O,backspace,304,1,,,7098,WL,B,1.0
prac,,0,,Fri Apr 04 2025 14:03:17 GMT-0500 (Central Daylight Time),,NA,boo,O,o,923,1,,,7098,WL,B,1.0
prac,,0,,Fri Apr 04 2025 14:03:17 GMT-0500 (Central Daylight Time),,NA,boos,O,s,542,1,,,7098,WL,B,1.0
prac,,0,,Fri Apr 04 2025 14:03:17 GMT-0500 (Central Daylight Time),,NA,boost,O,t,232,1,,,7098,WL,B,1.0
prac,,0,,Fri Apr 04 2025 14:03:17 GMT-0500 (Central Daylight Time),,NA,boostenter,O,enter,975,1,,,7098,WL,B,1.0
1,1.3999998569488525,learn,58600.00014305115,Fri Apr 04 2025 14:03:17 GMT-0500 (Central Daylight Time),148904.29999999702,A,s,O,s,1380,1,1399.2999999970198,147505.0,7098,WL,B,1.0
1,1.6999998092651367,learn,58300.00019073486,Fri Apr 04 2025 14:03:17 GMT-0500 (Central Daylight Time),149204.1000000015,A,st,O,t,284,1,1699.1000000014901,147505.0,7098,WL,B,1.0
1,2.0829999446868896,learn,57917.00005531311,Fri Apr 04 2025 14:03:17 GMT-0500 (Central Daylight Time),149587.19999999553,A,str,O,r,369,1,2082.1999999955297,147505.0,7098,WL,B,1.0
1,2.365999937057495,learn,57634.000062942505,Fri Apr 04 2025 14:03:17 GMT-0500 (Central Daylight Time),149870.69999999553,A,stre,O,e,266,1,2365.6999999955297,147505.0,7098,WL,B,1.0
1,2.682999849319458,learn,57317.00015068054,Fri Apr 04 2025 14:03:17 GMT-0500 (Central Daylight Time),150186.8999999985,A,stree,O,e,310,1,2681.89999999851,147505.0,7098,WL,B,1.0
1,3.5490000247955322,learn,56450.99997520447,Fri Apr 04 2025 14:03:17 GMT-0500 (Central Daylight Time),151053.6000000015,A,street,O,t,850,1,3548.60000000149,147505.0,7098,WL,B,1.0
1,6.014999866485596,learn,53985.000133514404,Fri Apr 04 2025 14:03:17 GMT-0500 (Central Daylight Time),153519.19999999553,A,streetenter,O,enter,2455,1,6014.19999999553,147505.0,7098,WL,B,1.0
1,7.497999906539917,learn,52502.00009346008,Fri Apr 04 2025 14:03:17 GMT-0500 (Central Daylight Time),155002.19999999553,A,g,O,g,1468,1,1482.6999999955297,153519.5,7098,WL,B,2.0
1,7.730999946594238,learn,52269.00005340576,Fri Apr 04 2025 14:03:17 GMT-0500 (Central Daylight Time),155235.6000000015,A,gr,O,r,218,1,1716.1000000014901,153519.5,7098,WL,B,2.0
1,8.113999843597412,learn,51886.00015640259,Fri Apr 04 2025 14:03:17 GMT-0500 (Central Daylight Time),155618.6000000015,A,gra,O,a,377,1,2099.10000000149,153519.5,7098,WL,B,2.0
1,8.396999835968018,learn,51603.00016403198,Fri Apr 04 2025 14:03:17 GMT-0500 (Central Daylight Time),155901.8999999985,A,gras,O,s,266,1,2382.39999999851,153519.5,7098,WL,B,2.0
1,8.563999891281128,learn,51436.00010871887,Fri Apr 04 2025 14:03:17 GMT-0500 (Central Daylight Time),156068.5,A,grass,O,s,150,1,2549.0,153519.5,7098,WL,B,2.0
1,12.595999956130981,learn,47404.00004386902,Fri Apr 04 2025 14:03:17 GMT-0500 (Central Daylight Time),160100.6000000015,A,grassenter,O,enter,4016,1,6581.10000000149,153519.5,7098,WL,B,2.0
1,16.211999893188477,learn,43788.00010681152,Fri Apr 04 2025 14:03:17 GMT-0500 (Central Daylight Time),163716.1000000015,A,d,O,d,3600,1,3615.0,160101.1000000015,7098,WL,B,3.0
1,16.796000003814697,learn,43203.9999961853,Fri Apr 04 2025 14:03:17 GMT-0500 (Central Daylight Time),164300.29999999702,A,do,O,o,576,1,4199.19999999553,160101.1000000015,7098,WL,B,3.0
1,16.977999925613403,learn,43022.0000743866,Fri Apr 04 2025 14:03:17 GMT-0500 (Central Daylight Time),164482.3999999985,A,doo,O,o,168,1,4381.29999999702,160101.1000000015,7098,WL,B,3.0
1,17.793999910354614,learn,42206.000089645386,Fri Apr 04 2025 14:03:17 GMT-0500 (Central Daylight Time),165298.69999999553,A,door,O,r,803,1,5197.5999999940395,160101.1000000015,7098,WL,B,3.0
1,18.227999925613403,learn,41772.0000743866,Fri Apr 04 2025 14:03:17 GMT-0500 (Central Daylight Time),165732.29999999702,A,doorenter,O,enter,426,1,5631.19999999553,160101.1000000015,7098,WL,B,3.0
1,19.210999965667725,learn,40789.000034332275,Fri Apr 04 2025 14:03:17 GMT-0500 (Central Daylight Time),166715.1000000015,A,a,O,a,977,1,982.5,165732.6000000015,7098,WL,B,4.0
1,19.76099991798401,learn,40239.00008201599,Fri Apr 04 2025 14:03:17 GMT-0500 (Central Daylight Time),167265.0,A,ar,O,r,538,1,1532.3999999985099,165732.6000000015,7098,WL,B,4.0
1,20.194000005722046,learn,39805.999994277954,Fri Apr 04 2025 14:03:17 GMT-0500 (Central Daylight Time),167698.29999999702,A,arm,O,m,420,1,1965.6999999955297,165732.6000000015,7098,WL,B,4.0
1,20.626999855041504,learn,39373.000144958496,Fri Apr 04 2025 14:03:17 GMT-0500 (Central Daylight Time),168131.19999999553,A,armenter,O,enter,426,1,2398.5999999940395,165732.6000000015,7098,WL,B,4.0
1,21.376999855041504,learn,38623.000144958496,Fri Apr 04 2025 14:03:17 GMT-0500 (Central Daylight Time),168881.19999999553,A,s,O,s,728,1,749.5999999940395,168131.6000000015,7098,WL,B,5.0
1,21.625999927520752,learn,38374.00007247925,Fri Apr 04 2025 14:03:17 GMT-0500 (Central Daylight Time),169130.8999999985,A,st,O,t,243,1,999.2999999970198,168131.6000000015,7098,WL,B,5.0
1,21.89299988746643,learn,38107.00011253357,Fri Apr 04 2025 14:03:17 GMT-0500 (Central Daylight Time),169397.6000000015,A,sta,O,a,250,1,1266.0,168131.6000000015,7098,WL,B,5.0
1,22.209999799728394,learn,37790.00020027161,Fri Apr 04 2025 14:03:17 GMT-0500 (Central Daylight Time),169714.29999999702,A,star,O,r,311,1,1582.6999999955297,168131.6000000015,7098,WL,B,5.0
1,22.825999975204468,learn,37174.00002479553,Fri Apr 04 2025 14:03:17 GMT-0500 (Central Daylight Time),170330.5,A,starenter,O,enter,611,1,2198.89999999851,168131.6000000015,7098,WL,B,5.0
1,23.72599983215332,learn,36274.00016784668,Fri Apr 04 2025 14:03:17 GMT-0500 (Central Daylight Time),171230.3999999985,A,w,O,w,883,1,899.6000000014901,170330.79999999702,7098,WL,B,6.0
1,24.175999879837036,learn,35824.000120162964,Fri Apr 04 2025 14:03:17 GMT-0500 (Central Daylight Time),171680.0,A,wi,O,i,438,1,1349.2000000029802,170330.79999999702,7098,WL,B,6.0
1,24.769999980926514,learn,35230.000019073486,Fri Apr 04 2025 14:03:17 GMT-0500 (Central Daylight Time),172274.6000000015,A,wif,O,f,589,1,1943.8000000044703,170330.79999999702,7098,WL,B,6.0
1,24.95899987220764,learn,35041.00012779236,Fri Apr 04 2025 14:03:17 GMT-0500 (Central Daylight Time),172463.3999999985,A,wife,O,e,178,1,2132.60000000149,170330.79999999702,7098,WL,B,6.0
1,25.358999967575073,learn,34641.00003242493,Fri Apr 04 2025 14:03:17 GMT-0500 (Central Daylight Time),172863.3999999985,A,wifeenter,O,enter,390,1,2532.60000000149,170330.79999999702,7098,WL,B,6.0
1,26.241999864578247,learn,33758.00013542175,Fri Apr 04 2025 14:03:17 GMT-0500 (Central Daylight Time),173746.3999999985,A,p,O,p,862,1,882.7000000029802,172863.69999999553,7098,WL,B,7.0
1,26.625,learn,33375.0,Fri Apr 04 2025 14:03:17 GMT-0500 (Central Daylight Time),174129.5,A,pu,O,u,363,1,1265.8000000044703,172863.69999999553,7098,WL,B,7.0
1,26.991999864578247,learn,33008.00013542175,Fri Apr 04 2025 14:03:17 GMT-0500 (Central Daylight Time),174496.1000000015,A,pup,O,p,356,1,1632.4000000059605,172863.69999999553,7098,WL,B,7.0
1,27.257999897003174,learn,32742.000102996826,Fri Apr 04 2025 14:03:17 GMT-0500 (Central Daylight Time),174762.6000000015,A,pupi,O,i,253,1,1898.9000000059605,172863.69999999553,7098,WL,B,7.0
1,27.45799994468689,learn,32542.00005531311,Fri Apr 04 2025 14:03:17 GMT-0500 (Central Daylight Time),174962.5,A,pupil,O,l,187,1,2098.8000000044703,172863.69999999553,7098,WL,B,7.0
1,27.94099998474121,learn,32059.00001525879,Fri Apr 04 2025 14:03:17 GMT-0500 (Central Daylight Time),175445.6000000015,A,pupilenter,O,enter,466,1,2581.9000000059605,172863.69999999553,7098,WL,B,7.0
1,29.04099988937378,learn,30959.00011062622,Fri Apr 04 2025 14:03:17 GMT-0500 (Central Daylight Time),176545.19999999553,A,l,O,l,1087,1,1099.1999999955297,175446.0,7098,WL,B,8.0
1,29.590999841690063,learn,30409.000158309937,Fri Apr 04 2025 14:03:17 GMT-0500 (Central Daylight Time),177095.1000000015,A,la,O,a,540,1,1649.1000000014901,175446.0,7098,WL,B,8.0
1,30.073999881744385,learn,29926.000118255615,Fri Apr 04 2025 14:03:17 GMT-0500 (Central Daylight Time),177578.3999999985,A,lak,O,k,478,1,2132.39999999851,175446.0,7098,WL,B,8.0
1,30.60699987411499,learn,29393.00012588501,Fri Apr 04 2025 14:03:17 GMT-0500 (Central Daylight Time),178111.5,A,lake,O,e,523,1,2665.5,175446.0,7098,WL,B,8.0
1,31.006999969482422,learn,28993.000030517578,Fri Apr 04 2025 14:03:17 GMT-0500 (Central Daylight Time),178511.29999999702,A,lakeenter,O,enter,390,1,3065.2999999970198,175446.0,7098,WL,B,8.0
1,31.906999826431274,learn,28093.000173568726,Fri Apr 04 2025 14:03:17 GMT-0500 (Central Daylight Time),179411.29999999702,A,c,O,c,886,1,899.6999999955297,178511.6000000015,7098,WL,B,9.0
1,32.20700001716614,learn,27792.999982833862,Fri Apr 04 2025 14:03:17 GMT-0500 (Central Daylight Time),179711.19999999553,A,ca,O,a,290,1,1199.5999999940395,178511.6000000015,7098,WL,B,9.0
1,32.556999921798706,learn,27443.000078201294,Fri Apr 04 2025 14:03:17 GMT-0500 (Central Daylight Time),180061.8999999985,A,cab,O,b,334,1,1550.2999999970198,178511.6000000015,7098,WL,B,9.0
1,32.90599989891052,learn,27094.000101089478,Fri Apr 04 2025 14:03:17 GMT-0500 (Central Daylight Time),180410.8999999985,A,cabi,O,i,328,1,1899.2999999970198,178511.6000000015,7098,WL,B,9.0
1,33.18899989128113,learn,26811.000108718872,Fri Apr 04 2025 14:03:17 GMT-0500 (Central Daylight Time),180694.1000000015,A,cabin,O,n,274,1,2182.5,178511.6000000015,7098,WL,B,9.0
1,33.65599989891052,learn,26344.000101089478,Fri Apr 04 2025 14:03:17 GMT-0500 (Central Daylight Time),181160.69999999553,A,cabinenter,O,enter,455,1,2649.0999999940395,178511.6000000015,7098,WL,B,9.0
1,35.121999979019165,learn,24878.000020980835,Fri Apr 04 2025 14:03:17 GMT-0500 (Central Daylight Time),182627.0,A,p,O,p,1452,1,1465.8999999985099,181161.1000000015,7098,WL,B,10.0
1,35.43899989128113,learn,24561.000108718872,Fri Apr 04 2025 14:03:17 GMT-0500 (Central Daylight Time),182943.3999999985,A,pu,O,u,306,1,1782.2999999970198,181161.1000000015,7098,WL,B,10.0
1,35.787999868392944,learn,24212.000131607056,Fri Apr 04 2025 14:03:17 GMT-0500 (Central Daylight Time),183292.8999999985,A,pup,O,p,334,1,2131.7999999970198,181161.1000000015,7098,WL,B,10.0
1,36.02199983596802,learn,23978.000164031982,Fri Apr 04 2025 14:03:17 GMT-0500 (Central Daylight Time),183526.69999999553,A,pupi,O,i,216,1,2365.5999999940395,181161.1000000015,7098,WL,B,10.0
1,36.22199988365173,learn,23778.000116348267,Fri Apr 04 2025 14:03:17 GMT-0500 (Central Daylight Time),183726.6000000015,A,pupil,O,l,190,1,2565.5,181161.1000000015,7098,WL,B,10.0
1,36.72099995613098,learn,23279.00004386902,Fri Apr 04 2025 14:03:17 GMT-0500 (Central Daylight Time),184225.8999999985,A,pupilenter,O,enter,486,1,3064.7999999970198,181161.1000000015,7098,WL,B,10.0
1,44.86899995803833,learn,15131.00004196167,Fri Apr 04 2025 14:03:17 GMT-0500 (Central Daylight Time),192373.8999999985,A,enter,O,enter,8132,1,8147.70000000298,184226.19999999553,7098,WL,B,11.0
1,45.36899995803833,learn,14631.00004196167,Fri Apr 04 2025 14:03:17 GMT-0500 (Central Daylight Time),192873.6000000015,A,enter,O,enter,479,1,499.30000000447035,192374.29999999702,7098,WL,B,12.0
1,46.01899981498718,learn,13981.000185012817,Fri Apr 04 2025 14:03:17 GMT-0500 (Central Daylight Time),193523.29999999702,A,enter,O,enter,643,1,649.1000000014901,192874.19999999553,7098,WL,B,13.0
1,46.484999895095825,learn,13515.000104904175,Fri Apr 04 2025 14:03:17 GMT-0500 (Central Daylight Time),193989.8999999985,A,enter,O,enter,458,1,466.29999999701977,193523.6000000015,7098,WL,B,14.0
1,46.95199990272522,learn,13048.00009727478,Fri Apr 04 2025 14:03:17 GMT-0500 (Central Daylight Time),194456.3999999985,A,enter,O,enter,455,1,466.1000000014901,193990.29999999702,7098,WL,B,15.0
2,2.0,learn,58000.0,Fri Apr 04 2025 14:03:17 GMT-0500 (Central Daylight Time),271032.5,A,s,O,s,1989,1,1999.2000000029802,269033.299999997,7098,WL,B,1.0
2,2.2829999923706055,learn,57717.000007629395,Fri Apr 04 2025 14:03:17 GMT-0500 (Central Daylight Time),271315.6000000015,A,st,O,t,268,1,2282.3000000044703,269033.299999997,7098,WL,B,1.0
2,2.699000120162964,learn,57300.999879837036,Fri Apr 04 2025 14:03:17 GMT-0500 (Central Daylight Time),271732.299999997,A,str,O,r,410,1,2699.0,269033.299999997,7098,WL,B,1.0
2,2.8989999294281006,learn,57101.0000705719,Fri Apr 04 2025 14:03:17 GMT-0500 (Central Daylight Time),271932.19999999553,A,stre,O,e,185,1,2898.89999999851,269033.299999997,7098,WL,B,1.0
2,3.0989999771118164,learn,56901.00002288818,Fri Apr 04 2025 14:03:17 GMT-0500 (Central Daylight Time),272132.19999999553,A,stree,O,e,186,1,3098.89999999851,269033.299999997,7098,WL,B,1.0
2,3.3329999446868896,learn,56667.00005531311,Fri Apr 04 2025 14:03:17 GMT-0500 (Central Daylight Time),272365.3999999985,A,street,O,t,217,1,3332.10000000149,269033.299999997,7098,WL,B,1.0
2,4.699000120162964,learn,55300.999879837036,Fri Apr 04 2025 14:03:17 GMT-0500 (Central Daylight Time),273731.6000000015,A,streetenter,O,enter,1351,1,4698.30000000447,269033.299999997,7098,WL,B,1.0
2,5.898000001907349,learn,54101.99999809265,Fri Apr 04 2025 14:03:17 GMT-0500 (Central Daylight Time),274931.1000000015,A,g,O,g,1194,1,1199.1000000014901,273732.0,7098,WL,B,2.0
2,6.082000017166138,learn,53917.99998283386,Fri Apr 04 2025 14:03:17 GMT-0500 (Central Daylight Time),275114.6000000015,A,gr,O,r,162,1,1382.6000000014901,273732.0,7098,WL,B,2.0
2,6.465000152587891,learn,53534.99984741211,Fri Apr 04 2025 14:03:17 GMT-0500 (Central Daylight Time),275498.0,A,gra,O,a,370,1,1766.0,273732.0,7098,WL,B,2.0
2,6.715000152587891,learn,53284.99984741211,Fri Apr 04 2025 14:03:17 GMT-0500 (Central Daylight Time),275747.799999997,A,gras,O,s,235,1,2015.7999999970198,273732.0,7098,WL,B,2.0
2,6.898000001907349,learn,53101.99999809265,Fri Apr 04 2025 14:03:17 GMT-0500 (Central Daylight Time),275930.8999999985,A,grass,O,s,169,1,2198.89999999851,273732.0,7098,WL,B,2.0
2,7.2820000648498535,learn,52717.99993515015,Fri Apr 04 2025 14:03:17 GMT-0500 (Central Daylight Time),276314.3999999985,A,grassenter,O,enter,362,1,2582.39999999851,273732.0,7098,WL,B,2.0
2,8.831000089645386,learn,51168.999910354614,Fri Apr 04 2025 14:03:17 GMT-0500 (Central Daylight Time),277863.6000000015,A,d,O,d,1531,1,1549.0,276314.6000000015,7098,WL,B,3.0
2,9.364000082015991,learn,50635.99991798401,Fri Apr 04 2025 14:03:17 GMT-0500 (Central Daylight Time),278396.69999999553,A,do,O,o,518,1,2082.0999999940395,276314.6000000015,7098,WL,B,3.0
2,9.513999938964844,learn,50486.000061035156,Fri Apr 04 2025 14:03:17 GMT-0500 (Central Daylight Time),278546.69999999553,A,doo,O,o,144,1,2232.0999999940395,276314.6000000015,7098,WL,B,3.0
2,10.263999938964844,learn,49736.000061035156,Fri Apr 04 2025 14:03:17 GMT-0500 (Central Daylight Time),279296.5,A,door,O,r,731,1,2981.89999999851,276314.6000000015,7098,WL,B,3.0
2,10.513999938964844,learn,49486.000061035156,Fri Apr 04 2025 14:03:17 GMT-0500 (Central Daylight Time),279546.5,A,doorenter,O,enter,237,1,3231.89999999851,276314.6000000015,7098,WL,B,3.0
2,11.345999956130981,learn,48654.00004386902,Fri Apr 04 2025 14:03:17 GMT-0500 (Central Daylight Time),280379.299999997,A,a,O,a,827,1,832.5,279546.799999997,7098,WL,B,4.0
2,11.61300015449524,learn,48386.99984550476,Fri Apr 04 2025 14:03:17 GMT-0500 (Central Daylight Time),280646.299999997,A,ar,O,r,258,1,1099.5,279546.799999997,7098,WL,B,4.0
2,12.013000011444092,learn,47986.99998855591,Fri Apr 04 2025 14:03:17 GMT-0500 (Central Daylight Time),281045.8999999985,A,arm,O,m,391,1,1499.1000000014901,279546.799999997,7098,WL,B,4.0
2,12.345999956130981,learn,47654.00004386902,Fri Apr 04 2025 14:03:17 GMT-0500 (Central Daylight Time),281379.299999997,A,armenter,O,enter,319,1,1832.5,279546.799999997,7098,WL,B,4.0
2,13.11300015449524,learn,46886.99984550476,Fri Apr 04 2025 14:03:17 GMT-0500 (Central Daylight Time),282145.8999999985,A,w,O,w,746,1,766.2000000029802,281379.69999999553,7098,WL,B,5.0
2,13.513000011444092,learn,46486.99998855591,Fri Apr 04 2025 14:03:17 GMT-0500 (Central Daylight Time),282545.5,A,wi,O,i,379,1,1165.8000000044703,281379.69999999553,7098,WL,B,5.0
2,14.146000146865845,learn,45853.999853134155,Fri Apr 04 2025 14:03:17 GMT-0500 (Central Daylight Time),283178.69999999553,A,wif,O,f,620,1,1799.0,281379.69999999553,7098,WL,B,5.0
2,14.328999996185303,learn,45671.0000038147,Fri Apr 04 2025 14:03:17 GMT-0500 (Central Daylight Time),283362.19999999553,A,wife,O,e,171,1,1982.5,281379.69999999553,7098,WL,B,5.0
2,15.361999988555908,learn,44638.00001144409,Fri Apr 04 2025 14:03:17 GMT-0500 (Central Daylight Time),284395.1000000015,A,wifeenter,O,enter,1011,1,3015.4000000059605,281379.69999999553,7098,WL,B,5.0
2,16.144999980926514,learn,43855.000019073486,Fri Apr 04 2025 14:03:17 GMT-0500 (Central Daylight Time),285178.1000000015,A,c,O,c,762,1,782.7000000029802,284395.3999999985,7098,WL,B,6.0
2,16.727999925613403,learn,43272.0000743866,Fri Apr 04 2025 14:03:17 GMT-0500 (Central Daylight Time),285761.299999997,A,ci,O,i,571,1,1365.8999999985099,284395.3999999985,7098,WL,B,6.0
2,17.062000036239624,learn,42937.999963760376,Fri Apr 04 2025 14:03:17 GMT-0500 (Central Daylight Time),286094.5,A,cit,O,t,324,1,1699.1000000014901,284395.3999999985,7098,WL,B,6.0
2,17.261000156402588,learn,42738.99984359741,Fri Apr 04 2025 14:03:17 GMT-0500 (Central Daylight Time),286294.3999999985,A,city,O,y,183,1,1899.0,284395.3999999985,7098,WL,B,6.0
2,17.628000020980835,learn,42371.999979019165,Fri Apr 04 2025 14:03:17 GMT-0500 (Central Daylight Time),286660.8999999985,A,cityenter,O,enter,351,1,2265.5,284395.3999999985,7098,WL,B,6.0
2,18.694000005722046,learn,41305.999994277954,Fri Apr 04 2025 14:03:17 GMT-0500 (Central Daylight Time),287727.0,A,w,O,w,1056,1,1065.8000000044703,286661.19999999553,7098,WL,B,7.0
2,19.061000108718872,learn,40938.99989128113,Fri Apr 04 2025 14:03:17 GMT-0500 (Central Daylight Time),288093.69999999553,A,wi,O,i,350,1,1432.5,286661.19999999553,7098,WL,B,7.0
2,19.377000093460083,learn,40622.99990653992,Fri Apr 04 2025 14:03:17 GMT-0500 (Central Daylight Time),288410.299999997,A,win,O,n,295,1,1749.1000000014901,286661.19999999553,7098,WL,B,7.0
2,19.776999950408936,learn,40223.000049591064,Fri Apr 04 2025 14:03:17 GMT-0500 (Central Daylight Time),288810.299999997,A,wind,O,d,379,1,2149.10000000149,286661.19999999553,7098,WL,B,7.0
2,20.14400005340576,learn,39855.99994659424,Fri Apr 04 2025 14:03:17 GMT-0500 (Central Daylight Time),289176.799999997,A,windo,O,o,347,1,2515.60000000149,286661.19999999553,7098,WL,B,7.0
2,20.710000038146973,learn,39289.99996185303,Fri Apr 04 2025 14:03:17 GMT-0500 (Central Daylight Time),289743.299999997,A,window,O,w,548,1,3082.10000000149,286661.19999999553,7098,WL,B,7.0
2,21.16000008583069,learn,38839.99991416931,Fri Apr 04 2025 14:03:17 GMT-0500 (Central Daylight Time),290192.799999997,A,windowenter,O,enter,438,1,3531.60000000149,286661.19999999553,7098,WL,B,7.0
2,22.110000133514404,learn,37889.999866485596,Fri Apr 04 2025 14:03:17 GMT-0500 (Central Daylight Time),291142.799999997,A,l,O,l,933,1,949.7999999970198,290193.0,7098,WL,B,8.0
2,22.592999935150146,learn,37407.00006484985,Fri Apr 04 2025 14:03:17 GMT-0500 (Central Daylight Time),291625.8999999985,A,la,O,a,470,1,1432.8999999985099,290193.0,7098,WL,B,8.0
2,22.993000030517578,learn,37006.99996948242,Fri Apr 04 2025 14:03:17 GMT-0500 (Central Daylight Time),292026.0,A,lak,O,k,379,1,1833.0,290193.0,7098,WL,B,8.0
2,23.493000030517578,learn,36506.99996948242,Fri Apr 04 2025 14:03:17 GMT-0500 (Central Daylight Time),292525.69999999553,A,lake,O,e,491,1,2332.6999999955297,290193.0,7098,WL,B,8.0
2,23.80999994277954,learn,36190.00005722046,Fri Apr 04 2025 14:03:17 GMT-0500 (Central Daylight Time),292842.5,A,lakeenter,O,enter,296,1,2649.5,290193.0,7098,WL,B,8.0
2,24.526000022888184,learn,35473.99997711182,Fri Apr 04 2025 14:03:17 GMT-0500 (Central Daylight Time),293558.6000000015,A,c,O,c,698,1,715.9000000059605,292842.69999999553,7098,WL,B,9.0
2,24.759000062942505,learn,35240.999937057495,Fri Apr 04 2025 14:03:17 GMT-0500 (Central Daylight Time),293792.0,A,ca,O,a,215,1,949.3000000044703,292842.69999999553,7098,WL,B,9.0
2,25.426000118255615,learn,34573.999881744385,Fri Apr 04 2025 14:03:17 GMT-0500 (Central Daylight Time),294458.3999999985,A,cab,O,b,645,1,1615.7000000029802,292842.69999999553,7098,WL,B,9.0
2,25.776000022888184,learn,34223.99997711182,Fri Apr 04 2025 14:03:17 GMT-0500 (Central Daylight Time),294808.3999999985,A,cabi,O,i,331,1,1965.7000000029802,292842.69999999553,7098,WL,B,9.0
2,26.075999975204468,learn,33924.00002479553,Fri Apr 04 2025 14:03:17 GMT-0500 (Central Daylight Time),295108.3999999985,A,cabin,O,n,293,1,2265.7000000029802,292842.69999999553,7098,WL,B,9.0
2,26.64199995994568,learn,33358.00004005432,Fri Apr 04 2025 14:03:17 GMT-0500 (Central Daylight Time),295674.6000000015,A,cabinenter,O,enter,561,1,2831.9000000059605,292842.69999999553,7098,WL,B,9.0
2,27.325000047683716,learn,32674.999952316284,Fri Apr 04 2025 14:03:17 GMT-0500 (Central Daylight Time),296357.799999997,A,c,O,c,675,1,682.8999999985099,295674.8999999985,7098,WL,B,10.0
2,27.692000150680542,learn,32307.999849319458,Fri Apr 04 2025 14:03:17 GMT-0500 (Central Daylight Time),296724.3999999985,A,ci,O,i,351,1,1049.5,295674.8999999985,7098,WL,B,10.0
2,27.990999937057495,learn,32009.000062942505,Fri Apr 04 2025 14:03:17 GMT-0500 (Central Daylight Time),297024.19999999553,A,cit,O,t,281,1,1349.2999999970198,295674.8999999985,7098,WL,B,10.0
2,28.125,learn,31875.0,Fri Apr 04 2025 14:03:17 GMT-0500 (Central Daylight Time),297157.69999999553,A,city,O,y,117,1,1482.7999999970198,295674.8999999985,7098,WL,B,10.0
2,28.77500009536743,learn,31224.99990463257,Fri Apr 04 2025 14:03:17 GMT-0500 (Central Daylight Time),297807.3999999985,A,cityenter,O,enter,640,1,2132.5,295674.8999999985,7098,WL,B,10.0
2,31.674000024795532,learn,28325.999975204468,Fri Apr 04 2025 14:03:17 GMT-0500 (Central Daylight Time),300706.69999999553,A,f,O,f,2894,1,2898.89999999851,297807.799999997,7098,WL,B,11.0
2,32.03999996185303,learn,27960.000038146973,Fri Apr 04 2025 14:03:17 GMT-0500 (Central Daylight Time),301073.1000000015,A,fi,O,i,346,1,3265.3000000044703,297807.799999997,7098,WL,B,11.0
2,32.473000049591064,learn,27526.999950408936,Fri Apr 04 2025 14:03:17 GMT-0500 (Central Daylight Time),301506.299999997,A,fir,O,r,420,1,3698.5,297807.799999997,7098,WL,B,11.0
2,32.69000005722046,learn,27309.99994277954,Fri Apr 04 2025 14:03:17 GMT-0500 (Central Daylight Time),301722.799999997,A,fire,O,e,196,1,3915.0,297807.799999997,7098,WL,B,11.0
2,33.140000104904175,learn,26859.999895095825,Fri Apr 04 2025 14:03:17 GMT-0500 (Central Daylight Time),302172.69999999553,A,fireenter,O,enter,442,1,4364.89999999851,297807.799999997,7098,WL,B,11.0
2,34.10599994659424,learn,25894.00005340576,Fri Apr 04 2025 14:03:17 GMT-0500 (Central Daylight Time),303139.0,A,s,O,s,961,1,966.0,302173.0,7098,WL,B,12.0
2,34.52300000190735,learn,25476.99999809265,Fri Apr 04 2025 14:03:17 GMT-0500 (Central Daylight Time),303555.5,A,sk,O,k,403,1,1382.5,302173.0,7098,WL,B,12.0
2,34.723999977111816,learn,25276.000022888184,Fri Apr 04 2025 14:03:17 GMT-0500 (Central Daylight Time),303756.6000000015,A,ski,O,i,186,1,1583.6000000014901,302173.0,7098,WL,B,12.0
2,35.138999938964844,learn,24861.000061035156,Fri Apr 04 2025 14:03:17 GMT-0500 (Central Daylight Time),304172.1000000015,A,skin,O,n,400,1,1999.1000000014901,302173.0,7098,WL,B,12.0
2,35.706000089645386,learn,24293.999910354614,Fri Apr 04 2025 14:03:17 GMT-0500 (Central Daylight Time),304738.6000000015,A,skinenter,O,enter,561,1,2565.60000000149,302173.0,7098,WL,B,12.0
2,36.68900012969971,learn,23310.999870300293,Fri Apr 04 2025 14:03:17 GMT-0500 (Central Daylight Time),305721.5,A,p,O,p,970,1,982.6000000014901,304738.8999999985,7098,WL,B,13.0
2,36.97200012207031,learn,23027.999877929688,Fri Apr 04 2025 14:03:17 GMT-0500 (Central Daylight Time),306004.69999999553,A,pi,O,i,268,1,1265.7999999970198,304738.8999999985,7098,WL,B,13.0
2,37.23800015449524,learn,22761.99984550476,Fri Apr 04 2025 14:03:17 GMT-0500 (Central Daylight Time),306271.19999999553,A,pip,O,p,257,1,1532.2999999970198,304738.8999999985,7098,WL,B,13.0
2,37.83800005912781,learn,22161.999940872192,Fri Apr 04 2025 14:03:17 GMT-0500 (Central Daylight Time),306871.19999999553,A,pipe,O,e,590,1,2132.2999999970198,304738.8999999985,7098,WL,B,13.0
2,38.4210000038147,learn,21578.999996185303,Fri Apr 04 2025 14:03:17 GMT-0500 (Central Daylight Time),307454.19999999553,A,pipeenter,O,enter,574,1,2715.2999999970198,304738.8999999985,7098,WL,B,13.0
2,43.93600010871887,learn,16063.999891281128,Fri Apr 04 2025 14:03:17 GMT-0500 (Central Daylight Time),312969.3999999985,A,s,O,s,5503,1,5514.79999999702,307454.6000000015,7098,WL,B,14.0
2,44.18600010871887,learn,15813.999891281128,Fri Apr 04 2025 14:03:17 GMT-0500 (Central Daylight Time),313219.3999999985,A,st,O,t,236,1,5764.79999999702,307454.6000000015,7098,WL,B,14.0
2,44.52999997138977,learn,15470.00002861023,Fri Apr 04 2025 14:03:17 GMT-0500 (Central Daylight Time),313562.799999997,A,sta,O,a,322,1,6108.19999999553,307454.6000000015,7098,WL,B,14.0
2,44.60199999809265,learn,15398.000001907349,Fri Apr 04 2025 14:03:17 GMT-0500 (Central Daylight Time),313635.3999999985,A,star,O,r,59,1,6180.79999999702,307454.6000000015,7098,WL,B,14.0
2,44.986000061035156,learn,15013.999938964844,Fri Apr 04 2025 14:03:17 GMT-0500 (Central Daylight Time),314018.8999999985,A,starenter,O,enter,376,1,6564.29999999702,307454.6000000015,7098,WL,B,14.0
2,54.90000009536743,learn,5099.999904632568,Fri Apr 04 2025 14:03:17 GMT-0500 (Central Daylight Time),323932.69999999553,A,w,O,w,9907,1,9913.5,314019.19999999553,7098,WL,B,15.0
2,55.282999992370605,learn,4717.0000076293945,Fri Apr 04 2025 14:03:17 GMT-0500 (Central Daylight Time),324315.799999997,A,wi,O,i,369,1,10296.60000000149,314019.19999999553,7098,WL,B,15.0
2,55.54900002479553,learn,4450.999975204468,Fri Apr 04 2025 14:03:17 GMT-0500 (Central Daylight Time),324582.19999999553,A,win,O,n,258,1,10563.0,314019.19999999553,7098,WL,B,15.0
2,55.91600012779236,learn,4083.9998722076416,Fri Apr 04 2025 14:03:17 GMT-0500 (Central Daylight Time),324948.8999999985,A,wind,O,d,359,1,10929.70000000298,314019.19999999553,7098,WL,B,15.0
2,56.29900002479553,learn,3700.999975204468,Fri Apr 04 2025 14:03:17 GMT-0500 (Central Daylight Time),325332.0,A,windo,O,o,368,1,11312.80000000447,314019.19999999553,7098,WL,B,15.0
2,56.81599998474121,learn,3184.000015258789,Fri Apr 04 2025 14:03:17 GMT-0500 (Central Daylight Time),325848.69999999553,A,window,O,w,505,1,11829.5,314019.19999999553,7098,WL,B,15.0
2,57.28200006484985,learn,2717.9999351501465,Fri Apr 04 2025 14:03:17 GMT-0500 (Central Daylight Time),326315.19999999553,A,windowenter,O,enter,453,1,12296.0,314019.19999999553,7098,WL,B,15.0
3,1.249000072479248,learn,58750.99992752075,Fri Apr 04 2025 14:03:17 GMT-0500 (Central Daylight Time),395693.19999999553,A,s,O,s,1242,1,1249.2999999970198,394443.8999999985,7098,WL,B,1.0
3,1.5329999923706055,learn,58467.000007629395,Fri Apr 04 2025 14:03:17 GMT-0500 (Central Daylight Time),395976.69999999553,A,st,O,t,272,1,1532.7999999970198,394443.8999999985,7098,WL,B,1.0
3,1.815999984741211,learn,58184.00001525879,Fri Apr 04 2025 14:03:17 GMT-0500 (Central Daylight Time),396259.799999997,A,str,O,r,277,1,1815.8999999985099,394443.8999999985,7098,WL,B,1.0
3,2.0490000247955322,learn,57950.99997520447,Fri Apr 04 2025 14:03:17 GMT-0500 (Central Daylight Time),396493.19999999553,A,stre,O,e,225,1,2049.2999999970198,394443.8999999985,7098,WL,B,1.0
3,2.249000072479248,learn,57750.99992752075,Fri Apr 04 2025 14:03:17 GMT-0500 (Central Daylight Time),396693.1000000015,A,stree,O,e,184,1,2249.2000000029802,394443.8999999985,7098,WL,B,1.0
3,2.431999921798706,learn,57568.000078201294,Fri Apr 04 2025 14:03:17 GMT-0500 (Central Daylight Time),396876.6000000015,A,street,O,t,168,1,2432.7000000029802,394443.8999999985,7098,WL,B,1.0
3,3.5980000495910645,learn,56401.999950408936,Fri Apr 04 2025 14:03:17 GMT-0500 (Central Daylight Time),398042.6000000015,A,streetenter,O,enter,1146,1,3598.7000000029802,394443.8999999985,7098,WL,B,1.0
3,4.615000009536743,learn,55384.99999046326,Fri Apr 04 2025 14:03:17 GMT-0500 (Central Daylight Time),399058.799999997,A,g,O,g,1011,1,1015.8999999985099,398042.8999999985,7098,WL,B,2.0
3,4.79800009727478,learn,55201.99990272522,Fri Apr 04 2025 14:03:17 GMT-0500 (Central Daylight Time),399242.299999997,A,gr,O,r,171,1,1199.3999999985099,398042.8999999985,7098,WL,B,2.0
3,5.615000009536743,learn,54384.99999046326,Fri Apr 04 2025 14:03:17 GMT-0500 (Central Daylight Time),400058.6000000015,A,gra,O,a,803,1,2015.7000000029802,398042.8999999985,7098,WL,B,2.0
3,5.8480000495910645,learn,54151.999950408936,Fri Apr 04 2025 14:03:17 GMT-0500 (Central Daylight Time),400292.0,A,gras,O,s,227,1,2249.10000000149,398042.8999999985,7098,WL,B,2.0
3,6.04800009727478,learn,53951.99990272522,Fri Apr 04 2025 14:03:17 GMT-0500 (Central Daylight Time),400492.0,A,grass,O,s,193,1,2449.10000000149,398042.8999999985,7098,WL,B,2.0
3,6.480999946594238,learn,53519.00005340576,Fri Apr 04 2025 14:03:17 GMT-0500 (Central Daylight Time),400925.0,A,grassenter,O,enter,417,1,2882.10000000149,398042.8999999985,7098,WL,B,2.0
3,7.730000019073486,learn,52269.999980926514,Fri Apr 04 2025 14:03:17 GMT-0500 (Central Daylight Time),402174.5,A,d,O,d,1240,1,1249.1000000014901,400925.3999999985,7098,WL,B,3.0
3,8.21399998664856,learn,51786.00001335144,Fri Apr 04 2025 14:03:17 GMT-0500 (Central Daylight Time),402658.0,A,do,O,o,471,1,1732.6000000014901,400925.3999999985,7098,WL,B,3.0
3,8.364000082015991,learn,51635.99991798401,Fri Apr 04 2025 14:03:17 GMT-0500 (Central Daylight Time),402807.8999999985,A,doo,O,o,139,1,1882.5,400925.3999999985,7098,WL,B,3.0
3,9.114000082015991,learn,50885.99991798401,Fri Apr 04 2025 14:03:17 GMT-0500 (Central Daylight Time),403557.799999997,A,door,O,r,741,1,2632.39999999851,400925.3999999985,7098,WL,B,3.0
3,9.397000074386597,learn,50602.9999256134,Fri Apr 04 2025 14:03:17 GMT-0500 (Central Daylight Time),403840.8999999985,A,doorenter,O,enter,263,1,2915.5,400925.3999999985,7098,WL,B,3.0
3,10.329999923706055,learn,49670.000076293945,Fri Apr 04 2025 14:03:17 GMT-0500 (Central Daylight Time),404773.8999999985,A,a,O,a,917,1,932.7000000029802,403841.19999999553,7098,WL,B,4.0
3,10.579999923706055,learn,49420.000076293945,Fri Apr 04 2025 14:03:17 GMT-0500 (Central Daylight Time),405023.799999997,A,ar,O,r,231,1,1182.6000000014901,403841.19999999553,7098,WL,B,4.0
3,10.92900013923645,learn,49070.99986076355,Fri Apr 04 2025 14:03:17 GMT-0500 (Central Daylight Time),405373.6000000015,A,arm,O,m,342,1,1532.4000000059605,403841.19999999553,7098,WL,B,4.0
3,11.812999963760376,learn,48187.000036239624,Fri Apr 04 2025 14:03:17 GMT-0500 (Central Daylight Time),406256.6000000015,A,armenter,O,enter,872,1,2415.4000000059605,403841.19999999553,7098,WL,B,4.0
3,12.812000036239624,learn,47187.999963760376,Fri Apr 04 2025 14:03:17 GMT-0500 (Central Daylight Time),407256.19999999553,A,w,O,w,989,1,999.1999999955297,406257.0,7098,WL,B,5.0
3,13.25,learn,46750.0,Fri Apr 04 2025 14:03:17 GMT-0500 (Central Daylight Time),407694.1000000015,A,wi,O,i,433,1,1437.1000000014901,406257.0,7098,WL,B,5.0
3,13.729000091552734,learn,46270.999908447266,Fri Apr 04 2025 14:03:17 GMT-0500 (Central Daylight Time),408172.8999999985,A,wif,O,f,471,1,1915.8999999985099,406257.0,7098,WL,B,5.0
3,14.01200008392334,learn,45987.99991607666,Fri Apr 04 2025 14:03:17 GMT-0500 (Central Daylight Time),408456.1000000015,A,wife,O,e,272,1,2199.10000000149,406257.0,7098,WL,B,5.0
3,15.444999933242798,learn,44555.0000667572,Fri Apr 04 2025 14:03:17 GMT-0500 (Central Daylight Time),409888.8999999985,A,wifeenter,O,enter,1422,1,3631.89999999851,406257.0,7098,WL,B,5.0
3,16.16100001335144,learn,43838.99998664856,Fri Apr 04 2025 14:03:17 GMT-0500 (Central Daylight Time),410605.3999999985,A,w,O,w,709,1,716.2000000029802,409889.19999999553,7098,WL,B,6.0
3,16.528000116348267,learn,43471.99988365173,Fri Apr 04 2025 14:03:17 GMT-0500 (Central Daylight Time),410971.8999999985,A,wi,O,i,360,1,1082.7000000029802,409889.19999999553,7098,WL,B,6.0
3,16.82800006866455,learn,43171.99993133545,Fri Apr 04 2025 14:03:17 GMT-0500 (Central Daylight Time),411271.8999999985,A,win,O,n,281,1,1382.7000000029802,409889.19999999553,7098,WL,B,6.0
3,17.27900004386902,learn,42720.99995613098,Fri Apr 04 2025 14:03:17 GMT-0500 (Central Daylight Time),411722.69999999553,A,wind,O,d,445,1,1833.5,409889.19999999553,7098,WL,B,6.0
3,17.66100001335144,learn,42338.99998664856,Fri Apr 04 2025 14:03:17 GMT-0500 (Central Daylight Time),412104.8999999985,A,windo,O,o,371,1,2215.7000000029802,409889.19999999553,7098,WL,B,6.0
3,18.276999950408936,learn,41723.000049591064,Fri Apr 04 2025 14:03:17 GMT-0500 (Central Daylight Time),412721.5,A,window,O,w,597,1,2832.3000000044703,409889.19999999553,7098,WL,B,6.0
3,19.0770001411438,learn,40922.9998588562,Fri Apr 04 2025 14:03:17 GMT-0500 (Central Daylight Time),413521.19999999553,A,windowenter,O,enter,780,1,3632.0,409889.19999999553,7098,WL,B,6.0
3,19.89300012588501,learn,40106.99987411499,Fri Apr 04 2025 14:03:17 GMT-0500 (Central Daylight Time),414337.6000000015,A,c,O,c,804,1,816.1000000014901,413521.5,7098,WL,B,7.0
3,20.342999935150146,learn,39657.00006484985,Fri Apr 04 2025 14:03:17 GMT-0500 (Central Daylight Time),414787.3999999985,A,ci,O,i,437,1,1265.8999999985099,413521.5,7098,WL,B,7.0
3,20.625999927520752,learn,39374.00007247925,Fri Apr 04 2025 14:03:17 GMT-0500 (Central Daylight Time),415070.6000000015,A,cit,O,t,266,1,1549.1000000014901,413521.5,7098,WL,B,7.0
3,20.825999975204468,learn,39174.00002479553,Fri Apr 04 2025 14:03:17 GMT-0500 (Central Daylight Time),415270.5,A,city,O,y,183,1,1749.0,413521.5,7098,WL,B,7.0
3,21.526000022888184,learn,38473.99997711182,Fri Apr 04 2025 14:03:17 GMT-0500 (Central Daylight Time),415970.6000000015,A,cityenter,O,enter,695,1,2449.10000000149,413521.5,7098,WL,B,7.0
3,23.05900001525879,learn,36940.99998474121,Fri Apr 04 2025 14:03:17 GMT-0500 (Central Daylight Time),417503.19999999553,A,s,O,s,1515,1,1532.2999999970198,415970.8999999985,7098,WL,B,8.0
3,23.276000022888184,learn,36723.99997711182,Fri Apr 04 2025 14:03:17 GMT-0500 (Central Daylight Time),417719.8999999985,A,st,O,t,198,1,1749.0,415970.8999999985,7098,WL,B,8.0
3,23.725000143051147,learn,36274.99985694885,Fri Apr 04 2025 14:03:17 GMT-0500 (Central Daylight Time),418169.5,A,sta,O,a,437,1,2198.60000000149,415970.8999999985,7098,WL,B,8.0
3,24.092000007629395,learn,35907.999992370605,Fri Apr 04 2025 14:03:17 GMT-0500 (Central Daylight Time),418536.299999997,A,star,O,r,348,1,2565.39999999851,415970.8999999985,7098,WL,B,8.0
3,24.54100012779236,learn,35458.99987220764,Fri Apr 04 2025 14:03:17 GMT-0500 (Central Daylight Time),418986.0,A,starenter,O,enter,437,1,3015.10000000149,415970.8999999985,7098,WL,B,8.0
3,28.789999961853027,learn,31210.000038146973,Fri Apr 04 2025 14:03:17 GMT-0500 (Central Daylight Time),423234.799999997,A,p,O,p,4243,1,4248.5,418986.299999997,7098,WL,B,9.0
3,29.122999906539917,learn,30877.000093460083,Fri Apr 04 2025 14:03:17 GMT-0500 (Central Daylight Time),423568.0,A,pu,O,u,323,1,4581.70000000298,418986.299999997,7098,WL,B,9.0
3,29.457000017166138,learn,30542.999982833862,Fri Apr 04 2025 14:03:17 GMT-0500 (Central Daylight Time),423901.299999997,A,pup,O,p,325,1,4915.0,418986.299999997,7098,WL,B,9.0
3,29.706000089645386,learn,30293.999910354614,Fri Apr 04 2025 14:03:17 GMT-0500 (Central Daylight Time),424151.299999997,A,pupi,O,i,240,1,5165.0,418986.299999997,7098,WL,B,9.0
3,29.92300009727478,learn,30076.99990272522,Fri Apr 04 2025 14:03:17 GMT-0500 (Central Daylight Time),424367.69999999553,A,pupil,O,l,198,1,5381.39999999851,418986.299999997,7098,WL,B,9.0
3,30.390000104904175,learn,29609.999895095825,Fri Apr 04 2025 14:03:17 GMT-0500 (Central Daylight Time),424834.299999997,A,pupilenter,O,enter,454,1,5848.0,418986.299999997,7098,WL,B,9.0
3,34.355000019073486,learn,25644.999980926514,Fri Apr 04 2025 14:03:17 GMT-0500 (Central Daylight Time),428799.69999999553,A,f,O,f,3947,1,3965.0,424834.69999999553,7098,WL,B,10.0
3,34.75500011444092,learn,25244.999885559082,Fri Apr 04 2025 14:03:17 GMT-0500 (Central Daylight Time),429199.5,A,fi,O,i,390,1,4364.80000000447,424834.69999999553,7098,WL,B,10.0
3,35.23799991607666,learn,24762.00008392334,Fri Apr 04 2025 14:03:17 GMT-0500 (Central Daylight Time),429682.5,A,fir,O,r,470,1,4847.80000000447,424834.69999999553,7098,WL,B,10.0
3,35.4539999961853,learn,24546.000003814697,Fri Apr 04 2025 14:03:17 GMT-0500 (Central Daylight Time),429899.19999999553,A,fire,O,e,211,1,5064.5,424834.69999999553,7098,WL,B,10.0
3,36.187999963760376,learn,23812.000036239624,Fri Apr 04 2025 14:03:17 GMT-0500 (Central Daylight Time),430632.3999999985,A,fireenter,O,enter,714,1,5797.70000000298,424834.69999999553,7098,WL,B,10.0
3,39.63700008392334,learn,20362.99991607666,Fri Apr 04 2025 14:03:17 GMT-0500 (Central Daylight Time),434081.299999997,A,c,O,c,3429,1,3448.5,430632.799999997,7098,WL,B,11.0
3,40.019999980926514,learn,19980.000019073486,Fri Apr 04 2025 14:03:17 GMT-0500 (Central Daylight Time),434464.3999999985,A,cl,O,l,364,1,3831.60000000149,430632.799999997,7098,WL,B,11.0
3,40.20300006866455,learn,19796.99993133545,Fri Apr 04 2025 14:03:17 GMT-0500 (Central Daylight Time),434647.8999999985,A,clo,O,o,173,1,4015.10000000149,430632.799999997,7098,WL,B,11.0
3,40.72000002861023,learn,19279.99997138977,Fri Apr 04 2025 14:03:17 GMT-0500 (Central Daylight Time),435164.5,A,cloc,O,c,510,1,4531.70000000298,430632.799999997,7098,WL,B,11.0
3,41.05299997329712,learn,18947.00002670288,Fri Apr 04 2025 14:03:17 GMT-0500 (Central Daylight Time),435497.6000000015,A,clock,O,k,313,1,4864.80000000447,430632.799999997,7098,WL,B,11.0
3,41.65300011634827,learn,18346.999883651733,Fri Apr 04 2025 14:03:17 GMT-0500 (Central Daylight Time),436097.69999999553,A,clockenter,O,enter,588,1,5464.89999999851,430632.799999997,7098,WL,B,11.0
3,44.68499994277954,learn,15315.000057220459,Fri Apr 04 2025 14:03:17 GMT-0500 (Central Daylight Time),439129.799999997,A,c,O,c,3020,1,3031.7999999970198,436098.0,7098,WL,B,12.0
3,44.88499999046326,learn,15115.000009536743,Fri Apr 04 2025 14:03:17 GMT-0500 (Central Daylight Time),439329.8999999985,A,ca,O,a,180,1,3231.89999999851,436098.0,7098,WL,B,12.0
3,45.18499994277954,learn,14815.000057220459,Fri Apr 04 2025 14:03:17 GMT-0500 (Central Daylight Time),439629.6000000015,A,cab,O,b,284,1,3531.60000000149,436098.0,7098,WL,B,12.0
3,45.485000133514404,learn,14514.999866485596,Fri Apr 04 2025 14:03:17 GMT-0500 (Central Daylight Time),439929.5,A,cabi,O,i,280,1,3831.5,436098.0,7098,WL,B,12.0
3,45.73399996757507,learn,14266.000032424927,Fri Apr 04 2025 14:03:17 GMT-0500 (Central Daylight Time),440179.299999997,A,cabin,O,n,244,1,4081.2999999970198,436098.0,7098,WL,B,12.0
3,46.18499994277954,learn,13815.000057220459,Fri Apr 04 2025 14:03:17 GMT-0500 (Central Daylight Time),440629.3999999985,A,cabinenter,O,enter,434,1,4531.39999999851,436098.0,7098,WL,B,12.0
3,47.08400011062622,learn,12915.99988937378,Fri Apr 04 2025 14:03:17 GMT-0500 (Central Daylight Time),441529.1000000015,A,l,O,l,888,1,899.4000000059605,440629.69999999553,7098,WL,B,13.0
3,47.53399991989136,learn,12466.000080108643,Fri Apr 04 2025 14:03:17 GMT-0500 (Central Daylight Time),441978.799999997,A,la,O,a,436,1,1349.1000000014901,440629.69999999553,7098,WL,B,13.0
3,47.93400001525879,learn,12065.999984741211,Fri Apr 04 2025 14:03:17 GMT-0500 (Central Daylight Time),442378.799999997,A,lak,O,k,394,1,1749.1000000014901,440629.69999999553,7098,WL,B,13.0
3,48.48399996757507,learn,11516.000032424927,Fri Apr 04 2025 14:03:17 GMT-0500 (Central Daylight Time),442929.0,A,lake,O,e,538,1,2299.3000000044703,440629.69999999553,7098,WL,B,13.0
3,48.884000062942505,learn,11115.999937057495,Fri Apr 04 2025 14:03:17 GMT-0500 (Central Daylight Time),443328.299999997,A,lakeenter,O,enter,389,1,2698.60000000149,440629.69999999553,7098,WL,B,13.0
3,57.513999938964844,learn,2486.0000610351562,Fri Apr 04 2025 14:03:17 GMT-0500 (Central Daylight Time),451959.1000000015,A,p,O,p,8613,1,8630.5,443328.6000000015,7098,WL,B,14.0
3,57.98099994659424,learn,2019.0000534057617,Fri Apr 04 2025 14:03:17 GMT-0500 (Central Daylight Time),452425.6000000015,A,pi,O,i,454,1,9097.0,443328.6000000015,7098,WL,B,14.0
3,58.21399998664856,learn,1786.0000133514404,Fri Apr 04 2025 14:03:17 GMT-0500 (Central Daylight Time),452658.6000000015,A,pip,O,p,228,1,9330.0,443328.6000000015,7098,WL,B,14.0
3,58.79699993133545,learn,1203.0000686645508,Fri Apr 04 2025 14:03:17 GMT-0500 (Central Daylight Time),453242.0,A,pipe,O,e,563,1,9913.39999999851,443328.6000000015,7098,WL,B,14.0
3,59.6470000743866,learn,352.9999256134033,Fri Apr 04 2025 14:03:17 GMT-0500 (Central Daylight Time),454091.6000000015,A,pipeenter,O,enter,843,1,10763.0,443328.6000000015,7098,WL,B,14.0
3,60.013999938964844,learn,-13.99993896484375,Fri Apr 04 2025 14:03:17 GMT-0500 (Central Daylight Time),454458.5,A,None,O,None,362,1,366.70000000298023,454091.799999997,7098,WL,B,15.0
4,1.375999927520752,learn,58624.00007247925,Fri Apr 04 2025 14:03:17 GMT-0500 (Central Daylight Time),525646.3999999985,A,s,O,s,1226,1,1376.3999999985099,524270.0,7098,WL,B,1.0
4,1.436999797821045,learn,58563.000202178955,Fri Apr 04 2025 14:03:17 GMT-0500 (Central Daylight Time),525706.6000000015,A,st,O,t,46,1,1436.6000000014901,524270.0,7098,WL,B,1.0
4,1.7159998416900635,learn,58284.00015830994,Fri Apr 04 2025 14:03:17 GMT-0500 (Central Daylight Time),525985.799999997,A,ste,O,e,259,1,1715.7999999970198,524270.0,7098,WL,B,1.0
4,2.1989998817443848,learn,57801.000118255615,Fri Apr 04 2025 14:03:17 GMT-0500 (Central Daylight Time),526469.1999999955,A,stee,O,e,475,1,2199.1999999955297,524270.0,7098,WL,B,1.0
4,3.298999786376953,learn,56701.00021362305,Fri Apr 04 2025 14:03:17 GMT-0500 (Central Daylight Time),527568.6000000015,A,ste,O,backspace,1088,1,3298.60000000149,524270.0,7098,WL,B,1.0
4,3.7649998664855957,learn,56235.000133514404,Fri Apr 04 2025 14:03:17 GMT-0500 (Central Daylight Time),528035.0,A,st,O,backspace,461,1,3765.0,524270.0,7098,WL,B,1.0
4,4.381999969482422,learn,55618.00003051758,Fri Apr 04 2025 14:03:17 GMT-0500 (Central Daylight Time),528651.6999999955,A,str,O,r,602,1,4381.69999999553,524270.0,7098,WL,B,1.0
4,4.597999811172485,learn,55402.000188827515,Fri Apr 04 2025 14:03:17 GMT-0500 (Central Daylight Time),528868.299999997,A,stre,O,e,202,1,4598.29999999702,524270.0,7098,WL,B,1.0
4,4.747999906539917,learn,55252.00009346008,Fri Apr 04 2025 14:03:17 GMT-0500 (Central Daylight Time),529018.3999999985,A,stree,O,e,145,1,4748.39999999851,524270.0,7098,WL,B,1.0
4,4.914999961853027,learn,55085.00003814697,Fri Apr 04 2025 14:03:17 GMT-0500 (Central Daylight Time),529184.8999999985,A,street,O,t,147,1,4914.89999999851,524270.0,7098,WL,B,1.0
4,6.613999843597412,learn,53386.00015640259,Fri Apr 04 2025 14:03:17 GMT-0500 (Central Daylight Time),530884.5,A,streetenter,O,enter,1684,1,6614.5,524270.0,7098,WL,B,1.0
4,7.71399998664856,learn,52286.00001335144,Fri Apr 04 2025 14:03:17 GMT-0500 (Central Daylight Time),531984.0,A,g,O,g,1089,1,1099.2000000029802,530884.799999997,7098,WL,B,2.0
4,7.946999788284302,learn,52053.0002117157,Fri Apr 04 2025 14:03:17 GMT-0500 (Central Daylight Time),532217.299999997,A,gr,O,r,213,1,1332.5,530884.799999997,7098,WL,B,2.0
4,8.379999876022339,learn,51620.00012397766,Fri Apr 04 2025 14:03:17 GMT-0500 (Central Daylight Time),532650.299999997,A,gra,O,a,420,1,1765.5,530884.799999997,7098,WL,B,2.0
4,8.596999883651733,learn,51403.00011634827,Fri Apr 04 2025 14:03:17 GMT-0500 (Central Daylight Time),532866.8999999985,A,gras,O,s,211,1,1982.1000000014901,530884.799999997,7098,WL,B,2.0
4,8.77999997138977,learn,51220.00002861023,Fri Apr 04 2025 14:03:17 GMT-0500 (Central Daylight Time),533050.299999997,A,grass,O,s,171,1,2165.5,530884.799999997,7098,WL,B,2.0
4,9.462999820709229,learn,50537.00017929077,Fri Apr 04 2025 14:03:17 GMT-0500 (Central Daylight Time),533733.5,A,grassenter,O,enter,667,1,2848.7000000029802,530884.799999997,7098,WL,B,2.0
4,11.128999948501587,learn,48871.00005149841,Fri Apr 04 2025 14:03:17 GMT-0500 (Central Daylight Time),535399.5,A,d,O,d,1648,1,1665.7000000029802,533733.799999997,7098,WL,B,3.0
4,11.679999828338623,learn,48320.00017166138,Fri Apr 04 2025 14:03:17 GMT-0500 (Central Daylight Time),535950.5,A,do,O,o,534,1,2216.7000000029802,533733.799999997,7098,WL,B,3.0
4,11.828999996185303,learn,48171.0000038147,Fri Apr 04 2025 14:03:17 GMT-0500 (Central Daylight Time),536099.5,A,doo,O,o,135,1,2365.7000000029802,533733.799999997,7098,WL,B,3.0
4,12.595999956130981,learn,47404.00004386902,Fri Apr 04 2025 14:03:17 GMT-0500 (Central Daylight Time),536866.1999999955,A,door,O,r,746,1,3132.39999999851,533733.799999997,7098,WL,B,3.0
4,13.27899980545044,learn,46721.00019454956,Fri Apr 04 2025 14:03:17 GMT-0500 (Central Daylight Time),537549.1000000015,A,doorenter,O,enter,675,1,3815.3000000044703,533733.799999997,7098,WL,B,3.0
4,14.01199984550476,learn,45988.00015449524,Fri Apr 04 2025 14:03:17 GMT-0500 (Central Daylight Time),538282.0,A,a,O,a,713,1,732.7000000029802,537549.299999997,7098,WL,B,4.0
4,14.260999917984009,learn,45739.00008201599,Fri Apr 04 2025 14:03:17 GMT-0500 (Central Daylight Time),538532.1000000015,A,ar,O,r,243,1,982.8000000044703,537549.299999997,7098,WL,B,4.0
4,14.609999895095825,learn,45390.000104904175,Fri Apr 04 2025 14:03:17 GMT-0500 (Central Daylight Time),538881.8999999985,A,arm,O,m,337,1,1332.6000000014901,537549.299999997,7098,WL,B,4.0
4,15.009999990463257,learn,44990.00000953674,Fri Apr 04 2025 14:03:17 GMT-0500 (Central Daylight Time),539281.6000000015,A,armenter,O,enter,388,1,1732.3000000044703,537549.299999997,7098,WL,B,4.0
4,15.726999998092651,learn,44273.00000190735,Fri Apr 04 2025 14:03:17 GMT-0500 (Central Daylight Time),539998.1999999955,A,s,O,s,708,1,716.1999999955297,539282.0,7098,WL,B,5.0
4,15.976999998092651,learn,44023.00000190735,Fri Apr 04 2025 14:03:17 GMT-0500 (Central Daylight Time),540248.1999999955,A,st,O,t,231,1,966.1999999955297,539282.0,7098,WL,B,5.0
4,16.22699999809265,learn,43773.00000190735,Fri Apr 04 2025 14:03:17 GMT-0500 (Central Daylight Time),540498.1999999955,A,sta,O,a,229,1,1216.1999999955297,539282.0,7098,WL,B,5.0
4,16.492999792099,learn,43507.000207901,Fri Apr 04 2025 14:03:17 GMT-0500 (Central Daylight Time),540764.6000000015,A,star,O,r,259,1,1482.6000000014901,539282.0,7098,WL,B,5.0
4,17.22599983215332,learn,42774.00016784668,Fri Apr 04 2025 14:03:17 GMT-0500 (Central Daylight Time),541497.6999999955,A,starenter,O,enter,721,1,2215.6999999955297,539282.0,7098,WL,B,5.0
4,17.942999839782715,learn,42057.000160217285,Fri Apr 04 2025 14:03:17 GMT-0500 (Central Daylight Time),542214.0,A,w,O,w,708,1,716.0,541498.0,7098,WL,B,6.0
4,18.342999935150146,learn,41657.00006484985,Fri Apr 04 2025 14:03:17 GMT-0500 (Central Daylight Time),542614.1000000015,A,wi,O,i,391,1,1116.1000000014901,541498.0,7098,WL,B,6.0
4,19.042999982833862,learn,40957.00001716614,Fri Apr 04 2025 14:03:17 GMT-0500 (Central Daylight Time),543314.0,A,wif,O,f,679,1,1816.0,541498.0,7098,WL,B,6.0
4,19.526000022888184,learn,40473.99997711182,Fri Apr 04 2025 14:03:17 GMT-0500 (Central Daylight Time),543797.1000000015,A,wife,O,e,467,1,2299.10000000149,541498.0,7098,WL,B,6.0
4,21.05900001525879,learn,38940.99998474121,Fri Apr 04 2025 14:03:17 GMT-0500 (Central Daylight Time),545329.799999997,A,wifeenter,O,enter,1512,1,3831.7999999970198,541498.0,7098,WL,B,6.0
4,21.824999809265137,learn,38175.00019073486,Fri Apr 04 2025 14:03:17 GMT-0500 (Central Daylight Time),546096.299999997,A,w,O,w,756,1,766.1000000014901,545330.1999999955,7098,WL,B,7.0
4,22.240999937057495,learn,37759.000062942505,Fri Apr 04 2025 14:03:17 GMT-0500 (Central Daylight Time),546512.799999997,A,wi,O,i,397,1,1182.6000000014901,545330.1999999955,7098,WL,B,7.0
4,22.490999937057495,learn,37509.000062942505,Fri Apr 04 2025 14:03:17 GMT-0500 (Central Daylight Time),546762.6999999955,A,win,O,n,245,1,1432.5,545330.1999999955,7098,WL,B,7.0
4,22.94099998474121,learn,37059.00001525879,Fri Apr 04 2025 14:03:17 GMT-0500 (Central Daylight Time),547212.5,A,wind,O,d,443,1,1882.3000000044703,545330.1999999955,7098,WL,B,7.0
4,23.37399983406067,learn,36626.00016593933,Fri Apr 04 2025 14:03:17 GMT-0500 (Central Daylight Time),547645.3999999985,A,windo,O,o,417,1,2315.2000000029802,545330.1999999955,7098,WL,B,7.0
4,23.94099998474121,learn,36059.00001525879,Fri Apr 04 2025 14:03:17 GMT-0500 (Central Daylight Time),548212.299999997,A,window,O,w,559,1,2882.10000000149,545330.1999999955,7098,WL,B,7.0
4,24.573999881744385,learn,35426.000118255615,Fri Apr 04 2025 14:03:17 GMT-0500 (Central Daylight Time),548845.5,A,windowenter,O,enter,617,1,3515.3000000044703,545330.1999999955,7098,WL,B,7.0
4,25.29099988937378,learn,34709.00011062622,Fri Apr 04 2025 14:03:17 GMT-0500 (Central Daylight Time),549562.0,A,c,O,c,704,1,716.1000000014901,548845.8999999985,7098,WL,B,8.0
4,25.83999991416931,learn,34160.00008583069,Fri Apr 04 2025 14:03:17 GMT-0500 (Central Daylight Time),550111.6999999955,A,ci,O,i,539,1,1265.7999999970198,548845.8999999985,7098,WL,B,8.0
4,26.139999866485596,learn,33860.000133514404,Fri Apr 04 2025 14:03:17 GMT-0500 (Central Daylight Time),550411.3999999985,A,cit,O,t,286,1,1565.5,548845.8999999985,7098,WL,B,8.0
4,26.37399983406067,learn,33626.00016593933,Fri Apr 04 2025 14:03:17 GMT-0500 (Central Daylight Time),550645.1999999955,A,city,O,y,226,1,1799.2999999970198,548845.8999999985,7098,WL,B,8.0
4,26.972999811172485,learn,33027.000188827515,Fri Apr 04 2025 14:03:17 GMT-0500 (Central Daylight Time),551244.6000000015,A,cityenter,O,enter,592,1,2398.7000000029802,548845.8999999985,7098,WL,B,8.0
4,27.789999961853027,learn,32210.000038146973,Fri Apr 04 2025 14:03:17 GMT-0500 (Central Daylight Time),552061.1000000015,A,p,O,p,809,1,816.3000000044703,551244.799999997,7098,WL,B,9.0
4,28.222999811172485,learn,31777.000188827515,Fri Apr 04 2025 14:03:17 GMT-0500 (Central Daylight Time),552494.299999997,A,pu,O,u,424,1,1249.5,551244.799999997,7098,WL,B,9.0
4,28.60599994659424,learn,31394.00005340576,Fri Apr 04 2025 14:03:17 GMT-0500 (Central Daylight Time),552877.3999999985,A,pup,O,p,367,1,1632.6000000014901,551244.799999997,7098,WL,B,9.0
4,28.9229998588562,learn,31077.0001411438,Fri Apr 04 2025 14:03:17 GMT-0500 (Central Daylight Time),553194.1999999955,A,pupi,O,i,296,1,1949.3999999985099,551244.799999997,7098,WL,B,9.0
4,29.138999938964844,learn,30861.000061035156,Fri Apr 04 2025 14:03:17 GMT-0500 (Central Daylight Time),553410.6999999955,A,pupil,O,l,203,1,2165.89999999851,551244.799999997,7098,WL,B,9.0
4,31.8219997882843,learn,28178.0002117157,Fri Apr 04 2025 14:03:17 GMT-0500 (Central Daylight Time),556093.1999999955,A,pupilenter,O,enter,2666,1,4848.39999999851,551244.799999997,7098,WL,B,9.0
4,33.454999923706055,learn,26545.000076293945,Fri Apr 04 2025 14:03:17 GMT-0500 (Central Daylight Time),557725.8999999985,A,p,O,p,1626,1,1632.3999999985099,556093.5,7098,WL,B,10.0
4,34.00499987602234,learn,25995.00012397766,Fri Apr 04 2025 14:03:17 GMT-0500 (Central Daylight Time),558275.8999999985,A,pi,O,i,535,1,2182.39999999851,556093.5,7098,WL,B,10.0
4,34.270999908447266,learn,25729.000091552734,Fri Apr 04 2025 14:03:17 GMT-0500 (Central Daylight Time),558542.299999997,A,pip,O,p,249,1,2448.7999999970198,556093.5,7098,WL,B,10.0
4,34.870999813079834,learn,25129.000186920166,Fri Apr 04 2025 14:03:17 GMT-0500 (Central Daylight Time),559142.1000000015,A,pipe,O,e,583,1,3048.60000000149,556093.5,7098,WL,B,10.0
4,35.38800001144409,learn,24611.99998855591,Fri Apr 04 2025 14:03:17 GMT-0500 (Central Daylight Time),559659.0,A,pipeenter,O,enter,503,1,3565.5,556093.5,7098,WL,B,10.0
4,36.65399980545044,learn,23346.00019454956,Fri Apr 04 2025 14:03:17 GMT-0500 (Central Daylight Time),560925.1000000015,A,l,O,l,1259,1,1265.8000000044703,559659.299999997,7098,WL,B,11.0
4,37.20299983024597,learn,22797.00016975403,Fri Apr 04 2025 14:03:17 GMT-0500 (Central Daylight Time),561474.6999999955,A,la,O,a,536,1,1815.3999999985099,559659.299999997,7098,WL,B,11.0
4,37.65299987792969,learn,22347.000122070312,Fri Apr 04 2025 14:03:17 GMT-0500 (Central Daylight Time),561924.6000000015,A,lak,O,k,435,1,2265.3000000044703,559659.299999997,7098,WL,B,11.0
4,38.13699984550476,learn,21863.00015449524,Fri Apr 04 2025 14:03:17 GMT-0500 (Central Daylight Time),562407.8999999985,A,lake,O,e,473,1,2748.60000000149,559659.299999997,7098,WL,B,11.0
4,38.585999965667725,learn,21414.000034332275,Fri Apr 04 2025 14:03:17 GMT-0500 (Central Daylight Time),562857.6999999955,A,lakeenter,O,enter,437,1,3198.39999999851,559659.299999997,7098,WL,B,11.0
4,39.23599982261658,learn,20764.000177383423,Fri Apr 04 2025 14:03:17 GMT-0500 (Central Daylight Time),563507.5,A,c,O,c,636,1,649.3999999985099,562858.1000000015,7098,WL,B,12.0
4,39.4689998626709,learn,20531.0001373291,Fri Apr 04 2025 14:03:17 GMT-0500 (Central Daylight Time),563740.6999999955,A,ca,O,a,218,1,882.5999999940395,562858.1000000015,7098,WL,B,12.0
4,39.78600001335144,learn,20213.99998664856,Fri Apr 04 2025 14:03:17 GMT-0500 (Central Daylight Time),564057.3999999985,A,cab,O,b,305,1,1199.2999999970198,562858.1000000015,7098,WL,B,12.0
4,40.1029999256134,learn,19897.000074386597,Fri Apr 04 2025 14:03:17 GMT-0500 (Central Daylight Time),564373.8999999985,A,cabi,O,i,308,1,1515.7999999970198,562858.1000000015,7098,WL,B,12.0
4,40.43599987030029,learn,19564.000129699707,Fri Apr 04 2025 14:03:17 GMT-0500 (Central Daylight Time),564707.0,A,cabin,O,n,327,1,1848.8999999985099,562858.1000000015,7098,WL,B,12.0
4,41.819000005722046,learn,18180.999994277954,Fri Apr 04 2025 14:03:17 GMT-0500 (Central Daylight Time),566090.1000000015,A,cabinenter,O,enter,1363,1,3232.0,562858.1000000015,7098,WL,B,12.0
4,43.10199999809265,learn,16898.00000190735,Fri Apr 04 2025 14:03:17 GMT-0500 (Central Daylight Time),567372.8999999985,A,s,O,s,1276,1,1282.5,566090.3999999985,7098,WL,B,13.0
4,43.550999879837036,learn,16449.000120162964,Fri Apr 04 2025 14:03:17 GMT-0500 (Central Daylight Time),567822.6999999955,A,sk,O,k,442,1,1732.2999999970198,566090.3999999985,7098,WL,B,13.0
4,43.75099992752075,learn,16249.000072479248,Fri Apr 04 2025 14:03:17 GMT-0500 (Central Daylight Time),568022.6999999955,A,ski,O,i,183,1,1932.2999999970198,566090.3999999985,7098,WL,B,13.0
4,44.050999879837036,learn,15949.000120162964,Fri Apr 04 2025 14:03:17 GMT-0500 (Central Daylight Time),568322.799999997,A,skin,O,n,280,1,2232.39999999851,566090.3999999985,7098,WL,B,13.0
4,44.651000022888184,learn,15348.999977111816,Fri Apr 04 2025 14:03:17 GMT-0500 (Central Daylight Time),568922.3999999985,A,skinenter,O,enter,587,1,2832.0,566090.3999999985,7098,WL,B,13.0
4,45.76699995994568,learn,14233.000040054321,Fri Apr 04 2025 14:03:17 GMT-0500 (Central Daylight Time),570038.6999999955,A,f,O,f,1099,1,1115.8999999985099,568922.799999997,7098,WL,B,14.0
4,46.133999824523926,learn,13866.000175476074,Fri Apr 04 2025 14:03:17 GMT-0500 (Central Daylight Time),570405.1999999955,A,fi,O,i,351,1,1482.3999999985099,568922.799999997,7098,WL,B,14.0
4,46.56699991226196,learn,13433.000087738037,Fri Apr 04 2025 14:03:17 GMT-0500 (Central Daylight Time),570838.299999997,A,fir,O,r,424,1,1915.5,568922.799999997,7098,WL,B,14.0
4,46.76699995994568,learn,13233.000040054321,Fri Apr 04 2025 14:03:17 GMT-0500 (Central Daylight Time),571038.3999999985,A,fire,O,e,191,1,2115.60000000149,568922.799999997,7098,WL,B,14.0
4,47.58399987220764,learn,12416.000127792358,Fri Apr 04 2025 14:03:17 GMT-0500 (Central Daylight Time),571855.0,A,fireenter,O,enter,807,1,2932.2000000029802,568922.799999997,7098,WL,B,14.0
4,48.53499984741211,learn,11465.00015258789,Fri Apr 04 2025 14:03:17 GMT-0500 (Central Daylight Time),572806.0,A,c,O,c,942,1,950.7000000029802,571855.299999997,7098,WL,B,15.0
4,48.91599988937378,learn,11084.00011062622,Fri Apr 04 2025 14:03:17 GMT-0500 (Central Daylight Time),573187.6999999955,A,cl,O,l,367,1,1332.3999999985099,571855.299999997,7098,WL,B,15.0
4,49.115999937057495,learn,10884.000062942505,Fri Apr 04 2025 14:03:17 GMT-0500 (Central Daylight Time),573387.6000000015,A,clo,O,o,186,1,1532.3000000044703,571855.299999997,7098,WL,B,15.0
4,49.68299984931946,learn,10317.000150680542,Fri Apr 04 2025 14:03:17 GMT-0500 (Central Daylight Time),573954.299999997,A,cloc,O,c,554,1,2099.0,571855.299999997,7098,WL,B,15.0
4,50.01599979400635,learn,9984.000205993652,Fri Apr 04 2025 14:03:17 GMT-0500 (Central Daylight Time),574287.3999999985,A,clock,O,k,315,1,2432.10000000149,571855.299999997,7098,WL,B,15.0
4,50.79899978637695,learn,9201.000213623047,Fri Apr 04 2025 14:03:17 GMT-0500 (Central Daylight Time),575070.3999999985,A,clockenter,O,enter,774,1,3215.10000000149,571855.299999997,7098,WL,B,15.0
5,1.0540001392364502,learn,60000.0,Fri Apr 04 2025 14:03:17 GMT-0500 (Central Daylight Time),643503.299999997,A,s,O,s,1030,1,1053.7999999970198,642449.5,7098,WL,B,1.0
5,1.4160001277923584,learn,60000.0,Fri Apr 04 2025 14:03:17 GMT-0500 (Central Daylight Time),643865.8999999985,A,st,O,t,350,1,1416.3999999985099,642449.5,7098,WL,B,1.0
5,1.7330000400543213,learn,60000.0,Fri Apr 04 2025 14:03:17 GMT-0500 (Central Daylight Time),644182.3999999985,A,str,O,r,300,1,1732.8999999985099,642449.5,7098,WL,B,1.0
5,2.0160000324249268,learn,60000.0,Fri Apr 04 2025 14:03:17 GMT-0500 (Central Daylight Time),644465.6000000015,A,stre,O,e,263,1,2016.1000000014901,642449.5,7098,WL,B,1.0
5,2.183000087738037,learn,60000.0,Fri Apr 04 2025 14:03:17 GMT-0500 (Central Daylight Time),644632.1999999955,A,stree,O,e,156,1,2182.6999999955297,642449.5,7098,WL,B,1.0
5,2.382000207901001,learn,60000.0,Fri Apr 04 2025 14:03:17 GMT-0500 (Central Daylight Time),644832.0,A,street,O,t,189,1,2382.5,642449.5,7098,WL,B,1.0
5,4.315000057220459,learn,60000.0,Fri Apr 04 2025 14:03:17 GMT-0500 (Central Daylight Time),646764.8999999985,A,streetenter,O,enter,1926,1,4315.39999999851,642449.5,7098,WL,B,1.0
5,5.182000160217285,learn,60000.0,Fri Apr 04 2025 14:03:17 GMT-0500 (Central Daylight Time),647631.299999997,A,g,O,g,857,1,866.1000000014901,646765.1999999955,7098,WL,B,2.0
5,5.38100004196167,learn,60000.0,Fri Apr 04 2025 14:03:17 GMT-0500 (Central Daylight Time),647831.0,A,gr,O,r,190,1,1065.8000000044703,646765.1999999955,7098,WL,B,2.0
5,5.930999994277954,learn,60000.0,Fri Apr 04 2025 14:03:17 GMT-0500 (Central Daylight Time),648380.8999999985,A,gra,O,a,534,1,1615.7000000029802,646765.1999999955,7098,WL,B,2.0
5,6.698000192642212,learn,60000.0,Fri Apr 04 2025 14:03:17 GMT-0500 (Central Daylight Time),649147.3999999985,A,gras,O,s,753,1,2382.2000000029802,646765.1999999955,7098,WL,B,2.0
5,6.88100004196167,learn,60000.0,Fri Apr 04 2025 14:03:17 GMT-0500 (Central Daylight Time),649330.799999997,A,grass,O,s,170,1,2565.60000000149,646765.1999999955,7098,WL,B,2.0
5,7.314000129699707,learn,60000.0,Fri Apr 04 2025 14:03:17 GMT-0500 (Central Daylight Time),649763.6999999955,A,grassenter,O,enter,418,1,2998.5,646765.1999999955,7098,WL,B,2.0
5,9.897000074386597,learn,60000.0,Fri Apr 04 2025 14:03:17 GMT-0500 (Central Daylight Time),652346.1999999955,A,d,O,d,2570,1,2582.0999999940395,649764.1000000015,7098,WL,B,3.0
5,10.680000066757202,learn,60000.0,Fri Apr 04 2025 14:03:17 GMT-0500 (Central Daylight Time),653129.1999999955,A,do,O,o,763,1,3365.0999999940395,649764.1000000015,7098,WL,B,3.0
5,10.813000202178955,learn,60000.0,Fri Apr 04 2025 14:03:17 GMT-0500 (Central Daylight Time),653262.5,A,doo,O,o,124,1,3498.39999999851,649764.1000000015,7098,WL,B,3.0
5,11.513000011444092,learn,60000.0,Fri Apr 04 2025 14:03:17 GMT-0500 (Central Daylight Time),653962.3999999985,A,door,O,r,687,1,4198.29999999702,649764.1000000015,7098,WL,B,3.0
5,12.129000186920166,learn,60000.0,Fri Apr 04 2025 14:03:17 GMT-0500 (Central Daylight Time),654578.799999997,A,doorenter,O,enter,603,1,4814.69999999553,649764.1000000015,7098,WL,B,3.0
5,12.812000036239624,learn,60000.0,Fri Apr 04 2025 14:03:17 GMT-0500 (Central Daylight Time),655262.1000000015,A,a,O,a,667,1,683.0,654579.1000000015,7098,WL,B,4.0
5,13.078999996185303,learn,60000.0,Fri Apr 04 2025 14:03:17 GMT-0500 (Central Daylight Time),655528.6000000015,A,ar,O,r,256,1,949.5,654579.1000000015,7098,WL,B,4.0
5,13.479000091552734,learn,60000.0,Fri Apr 04 2025 14:03:17 GMT-0500 (Central Daylight Time),655928.6000000015,A,arm,O,m,389,1,1349.5,654579.1000000015,7098,WL,B,4.0
5,13.861999988555908,learn,60000.0,Fri Apr 04 2025 14:03:17 GMT-0500 (Central Daylight Time),656311.6999999955,A,armenter,O,enter,373,1,1732.5999999940395,654579.1000000015,7098,WL,B,4.0
5,14.962000131607056,learn,60000.0,Fri Apr 04 2025 14:03:17 GMT-0500 (Central Daylight Time),657411.3999999985,A,w,O,w,1086,1,1099.5,656311.8999999985,7098,WL,B,5.0
5,15.378000020980835,learn,60000.0,Fri Apr 04 2025 14:03:17 GMT-0500 (Central Daylight Time),657827.8999999985,A,wi,O,i,402,1,1516.0,656311.8999999985,7098,WL,B,5.0
5,15.912000179290771,learn,60000.0,Fri Apr 04 2025 14:03:17 GMT-0500 (Central Daylight Time),658361.1999999955,A,wif,O,f,523,1,2049.2999999970198,656311.8999999985,7098,WL,B,5.0
5,16.31000018119812,learn,60000.0,Fri Apr 04 2025 14:03:17 GMT-0500 (Central Daylight Time),658760.8999999985,A,wife,O,e,388,1,2449.0,656311.8999999985,7098,WL,B,5.0
5,16.610000133514404,learn,60000.0,Fri Apr 04 2025 14:03:17 GMT-0500 (Central Daylight Time),659060.8999999985,A,wifeenter,O,enter,292,1,2749.0,656311.8999999985,7098,WL,B,5.0
5,17.360000133514404,learn,60000.0,Fri Apr 04 2025 14:03:17 GMT-0500 (Central Daylight Time),659810.6000000015,A,w,O,w,730,1,749.4000000059605,659061.1999999955,7098,WL,B,6.0
5,17.759999990463257,learn,60000.0,Fri Apr 04 2025 14:03:17 GMT-0500 (Central Daylight Time),660210.6999999955,A,wi,O,i,379,1,1149.5,659061.1999999955,7098,WL,B,6.0
5,18.042999982833862,learn,60000.0,Fri Apr 04 2025 14:03:17 GMT-0500 (Central Daylight Time),660493.6999999955,A,win,O,n,275,1,1432.5,659061.1999999955,7098,WL,B,6.0
5,18.460000038146973,learn,60000.0,Fri Apr 04 2025 14:03:17 GMT-0500 (Central Daylight Time),660910.3999999985,A,wind,O,d,400,1,1849.2000000029802,659061.1999999955,7098,WL,B,6.0
5,18.826000213623047,learn,60000.0,Fri Apr 04 2025 14:03:17 GMT-0500 (Central Daylight Time),661276.799999997,A,windo,O,o,351,1,2215.60000000149,659061.1999999955,7098,WL,B,6.0
5,19.37600016593933,learn,60000.0,Fri Apr 04 2025 14:03:17 GMT-0500 (Central Daylight Time),661826.6999999955,A,window,O,w,537,1,2765.5,659061.1999999955,7098,WL,B,6.0
5,19.992000102996826,learn,60000.0,Fri Apr 04 2025 14:03:17 GMT-0500 (Central Daylight Time),662443.0,A,windowenter,O,enter,603,1,3381.8000000044703,659061.1999999955,7098,WL,B,6.0
5,22.841000080108643,learn,60000.0,Fri Apr 04 2025 14:03:17 GMT-0500 (Central Daylight Time),665292.3999999985,A,c,O,c,2835,1,2849.10000000149,662443.299999997,7098,WL,B,7.0
5,23.241000175476074,learn,60000.0,Fri Apr 04 2025 14:03:17 GMT-0500 (Central Daylight Time),665692.1000000015,A,ci,O,i,385,1,3248.8000000044703,662443.299999997,7098,WL,B,7.0
5,23.591000080108643,learn,60000.0,Fri Apr 04 2025 14:03:17 GMT-0500 (Central Daylight Time),666042.0,A,cit,O,t,337,1,3598.7000000029802,662443.299999997,7098,WL,B,7.0
5,23.79100012779236,learn,60000.0,Fri Apr 04 2025 14:03:17 GMT-0500 (Central Daylight Time),666242.1000000015,A,city,O,y,187,1,3798.8000000044703,662443.299999997,7098,WL,B,7.0
5,24.124000072479248,learn,60000.0,Fri Apr 04 2025 14:03:17 GMT-0500 (Central Daylight Time),666575.1000000015,A,cityenter,O,enter,323,1,4131.80000000447,662443.299999997,7098,WL,B,7.0
5,24.874000072479248,learn,60000.0,Fri Apr 04 2025 14:03:17 GMT-0500 (Central Daylight Time),667324.8999999985,A,p,O,p,743,1,749.5,666575.3999999985,7098,WL,B,8.0
5,25.35700011253357,learn,60000.0,Fri Apr 04 2025 14:03:17 GMT-0500 (Central Daylight Time),667808.1999999955,A,pu,O,u,473,1,1232.7999999970198,666575.3999999985,7098,WL,B,8.0
5,25.674000024795532,learn,60000.0,Fri Apr 04 2025 14:03:17 GMT-0500 (Central Daylight Time),668124.6999999955,A,pup,O,p,309,1,1549.2999999970198,666575.3999999985,7098,WL,B,8.0
5,25.94000005722046,learn,60000.0,Fri Apr 04 2025 14:03:17 GMT-0500 (Central Daylight Time),668391.299999997,A,pupi,O,i,257,1,1815.8999999985099,666575.3999999985,7098,WL,B,8.0
5,26.19000005722046,learn,60000.0,Fri Apr 04 2025 14:03:17 GMT-0500 (Central Daylight Time),668641.1999999955,A,pupil,O,l,238,1,2065.7999999970198,666575.3999999985,7098,WL,B,8.0
5,27.19000005722046,learn,60000.0,Fri Apr 04 2025 14:03:17 GMT-0500 (Central Daylight Time),669640.8999999985,A,pupilenter,O,enter,980,1,3065.5,666575.3999999985,7098,WL,B,8.0
5,27.957000017166138,learn,60000.0,Fri Apr 04 2025 14:03:17 GMT-0500 (Central Daylight Time),670407.5,A,c,O,c,749,1,766.3000000044703,669641.1999999955,7098,WL,B,9.0
5,28.17300009727478,learn,60000.0,Fri Apr 04 2025 14:03:17 GMT-0500 (Central Daylight Time),670623.799999997,A,ca,O,a,206,1,982.6000000014901,669641.1999999955,7098,WL,B,9.0
5,28.490000009536743,learn,60000.0,Fri Apr 04 2025 14:03:17 GMT-0500 (Central Daylight Time),670940.3999999985,A,cab,O,b,301,1,1299.2000000029802,669641.1999999955,7098,WL,B,9.0
5,28.805999994277954,learn,60000.0,Fri Apr 04 2025 14:03:17 GMT-0500 (Central Daylight Time),671256.799999997,A,cabi,O,i,297,1,1615.6000000014901,669641.1999999955,7098,WL,B,9.0
5,29.08899998664856,learn,60000.0,Fri Apr 04 2025 14:03:17 GMT-0500 (Central Daylight Time),671540.299999997,A,cabin,O,n,277,1,1899.1000000014901,669641.1999999955,7098,WL,B,9.0
5,29.573000192642212,learn,60000.0,Fri Apr 04 2025 14:03:17 GMT-0500 (Central Daylight Time),672023.6000000015,A,cabinenter,O,enter,465,1,2382.4000000059605,669641.1999999955,7098,WL,B,9.0
5,30.25600004196167,learn,60000.0,Fri Apr 04 2025 14:03:17 GMT-0500 (Central Daylight Time),672706.6999999955,A,l,O,l,678,1,682.7999999970198,672023.8999999985,7098,WL,B,10.0
5,30.82200002670288,learn,60000.0,Fri Apr 04 2025 14:03:17 GMT-0500 (Central Daylight Time),673272.8999999985,A,la,O,a,555,1,1249.0,672023.8999999985,7098,WL,B,10.0
5,31.222000122070312,learn,60000.0,Fri Apr 04 2025 14:03:17 GMT-0500 (Central Daylight Time),673672.8999999985,A,lak,O,k,381,1,1649.0,672023.8999999985,7098,WL,B,10.0
5,31.67200016975403,learn,60000.0,Fri Apr 04 2025 14:03:17 GMT-0500 (Central Daylight Time),674122.6999999955,A,lake,O,e,436,1,2098.7999999970198,672023.8999999985,7098,WL,B,10.0
5,32.25500011444092,learn,60000.0,Fri Apr 04 2025 14:03:17 GMT-0500 (Central Daylight Time),674705.8999999985,A,lakeenter,O,enter,563,1,2682.0,672023.8999999985,7098,WL,B,10.0
5,33.0220000743866,learn,60000.0,Fri Apr 04 2025 14:03:17 GMT-0500 (Central Daylight Time),675472.5,A,p,O,p,747,1,766.2000000029802,674706.299999997,7098,WL,B,11.0
5,33.3050000667572,learn,60000.0,Fri Apr 04 2025 14:03:17 GMT-0500 (Central Daylight Time),675755.5,A,pi,O,i,277,1,1049.2000000029802,674706.299999997,7098,WL,B,11.0
5,33.57100009918213,learn,60000.0,Fri Apr 04 2025 14:03:17 GMT-0500 (Central Daylight Time),676022.1999999955,A,pip,O,p,250,1,1315.8999999985099,674706.299999997,7098,WL,B,11.0
5,34.121999979019165,learn,60000.0,Fri Apr 04 2025 14:03:17 GMT-0500 (Central Daylight Time),676573.1000000015,A,pipe,O,e,543,1,1866.8000000044703,674706.299999997,7098,WL,B,11.0
5,34.58800005912781,learn,60000.0,Fri Apr 04 2025 14:03:17 GMT-0500 (Central Daylight Time),677038.6000000015,A,pipeenter,O,enter,457,1,2332.3000000044703,674706.299999997,7098,WL,B,11.0
5,35.28800010681152,learn,60000.0,Fri Apr 04 2025 14:03:17 GMT-0500 (Central Daylight Time),677738.3999999985,A,s,O,s,687,1,699.5,677038.8999999985,7098,WL,B,12.0
5,35.7039999961853,learn,60000.0,Fri Apr 04 2025 14:03:17 GMT-0500 (Central Daylight Time),678154.6999999955,A,sk,O,k,403,1,1115.7999999970198,677038.8999999985,7098,WL,B,12.0
5,35.920000076293945,learn,60000.0,Fri Apr 04 2025 14:03:17 GMT-0500 (Central Daylight Time),678371.299999997,A,ski,O,i,211,1,1332.3999999985099,677038.8999999985,7098,WL,B,12.0
5,36.30400013923645,learn,60000.0,Fri Apr 04 2025 14:03:17 GMT-0500 (Central Daylight Time),678754.8999999985,A,skin,O,n,363,1,1716.0,677038.8999999985,7098,WL,B,12.0
5,36.837000131607056,learn,60000.0,Fri Apr 04 2025 14:03:17 GMT-0500 (Central Daylight Time),679287.799999997,A,skinenter,O,enter,515,1,2248.89999999851,677038.8999999985,7098,WL,B,12.0
5,37.504000186920166,learn,60000.0,Fri Apr 04 2025 14:03:17 GMT-0500 (Central Daylight Time),679954.5,A,f,O,f,654,1,666.3999999985099,679288.1000000015,7098,WL,B,13.0
5,37.87000012397766,learn,60000.0,Fri Apr 04 2025 14:03:17 GMT-0500 (Central Daylight Time),680320.799999997,A,fi,O,i,355,1,1032.6999999955297,679288.1000000015,7098,WL,B,13.0
5,38.32000017166138,learn,60000.0,Fri Apr 04 2025 14:03:17 GMT-0500 (Central Daylight Time),680770.6000000015,A,fir,O,r,437,1,1482.5,679288.1000000015,7098,WL,B,13.0
5,38.519999980926514,learn,60000.0,Fri Apr 04 2025 14:03:17 GMT-0500 (Central Daylight Time),680970.6000000015,A,fire,O,e,187,1,1682.5,679288.1000000015,7098,WL,B,13.0
5,39.38600015640259,learn,60000.0,Fri Apr 04 2025 14:03:17 GMT-0500 (Central Daylight Time),681837.1000000015,A,fireenter,O,enter,859,1,2549.0,679288.1000000015,7098,WL,B,13.0
5,41.902000188827515,learn,60000.0,Fri Apr 04 2025 14:03:17 GMT-0500 (Central Daylight Time),684352.799999997,A,c,O,c,2504,1,2515.39999999851,681837.3999999985,7098,WL,B,14.0
5,42.38499999046326,learn,60000.0,Fri Apr 04 2025 14:03:17 GMT-0500 (Central Daylight Time),684836.1000000015,A,cl,O,l,469,1,2998.7000000029802,681837.3999999985,7098,WL,B,14.0
5,42.568000078201294,learn,60000.0,Fri Apr 04 2025 14:03:17 GMT-0500 (Central Daylight Time),685019.1999999955,A,clo,O,o,177,1,3181.7999999970198,681837.3999999985,7098,WL,B,14.0
5,43.08500003814697,learn,60000.0,Fri Apr 04 2025 14:03:17 GMT-0500 (Central Daylight Time),685535.799999997,A,cloc,O,c,506,1,3698.39999999851,681837.3999999985,7098,WL,B,14.0
5,43.51800012588501,learn,60000.0,Fri Apr 04 2025 14:03:17 GMT-0500 (Central Daylight Time),685969.1999999955,A,clock,O,k,414,1,4131.79999999702,681837.3999999985,7098,WL,B,14.0
5,44.25100016593933,learn,60000.0,Fri Apr 04 2025 14:03:17 GMT-0500 (Central Daylight Time),686702.1999999955,A,clockenter,O,enter,716,1,4864.79999999702,681837.3999999985,7098,WL,B,14.0
5,52.14900016784668,learn,60000.0,Fri Apr 04 2025 14:03:17 GMT-0500 (Central Daylight Time),694599.799999997,A,s,O,s,7888,1,7897.19999999553,686702.6000000015,7098,WL,B,15.0
5,52.51600003242493,learn,60000.0,Fri Apr 04 2025 14:03:17 GMT-0500 (Central Daylight Time),694966.5,A,st,O,t,357,1,8263.89999999851,686702.6000000015,7098,WL,B,15.0
5,52.765000104904175,learn,60000.0,Fri Apr 04 2025 14:03:17 GMT-0500 (Central Daylight Time),695216.0,A,sta,O,a,239,1,8513.39999999851,686702.6000000015,7098,WL,B,15.0
5,53.015000104904175,learn,60000.0,Fri Apr 04 2025 14:03:17 GMT-0500 (Central Daylight Time),695466.299999997,A,star,O,r,230,1,8763.69999999553,686702.6000000015,7098,WL,B,15.0
5,53.432000160217285,learn,60000.0,Fri Apr 04 2025 14:03:17 GMT-0500 (Central Daylight Time),695882.6000000015,A,starenter,O,enter,404,1,9180.0,686702.6000000015,7098,WL,B,15.0
6,1.1170001029968262,distr,58882.999897003174,Fri Apr 04 2025 14:03:17 GMT-0500 (Central Daylight Time),767343.3999999985,B,r,O,r,1107,1,1116.1000000014901,766227.299999997,7098,WL,B,1.0
6,1.5499999523162842,distr,58450.000047683716,Fri Apr 04 2025 14:03:17 GMT-0500 (Central Daylight Time),767776.6999999955,B,ro,O,o,413,1,1549.3999999985099,766227.299999997,7098,WL,B,1.0
6,2.132999897003174,distr,57867.000102996826,Fri Apr 04 2025 14:03:17 GMT-0500 (Central Daylight Time),768359.8999999985,B,roc,O,c,573,1,2132.60000000149,766227.299999997,7098,WL,B,1.0
6,2.5,distr,57500.0,Fri Apr 04 2025 14:03:17 GMT-0500 (Central Daylight Time),768726.6000000015,B,rock,O,k,358,1,2499.3000000044703,766227.299999997,7098,WL,B,1.0
6,3.3499999046325684,distr,56650.00009536743,Fri Apr 04 2025 14:03:17 GMT-0500 (Central Daylight Time),769576.299999997,B,rockenter,O,enter,831,1,3349.0,766227.299999997,7098,WL,B,1.0
6,4.216000080108643,distr,55783.99991989136,Fri Apr 04 2025 14:03:17 GMT-0500 (Central Daylight Time),770442.3999999985,B,b,O,b,861,1,865.8999999985099,769576.5,7098,WL,B,2.0
6,4.699000120162964,distr,55300.999879837036,Fri Apr 04 2025 14:03:17 GMT-0500 (Central Daylight Time),770925.799999997,B,ba,O,a,467,1,1349.2999999970198,769576.5,7098,WL,B,2.0
6,5.016000032424927,distr,54983.99996757507,Fri Apr 04 2025 14:03:17 GMT-0500 (Central Daylight Time),771242.3999999985,B,bab,O,b,312,1,1665.8999999985099,769576.5,7098,WL,B,2.0
6,5.398999929428101,distr,54601.0000705719,Fri Apr 04 2025 14:03:17 GMT-0500 (Central Daylight Time),771625.5,B,baby,O,y,363,1,2049.0,769576.5,7098,WL,B,2.0
6,5.915999889373779,distr,54084.00011062622,Fri Apr 04 2025 14:03:17 GMT-0500 (Central Daylight Time),772142.299999997,B,babyenter,O,enter,500,1,2565.7999999970198,769576.5,7098,WL,B,2.0
6,6.7149999141693115,distr,53285.00008583069,Fri Apr 04 2025 14:03:17 GMT-0500 (Central Daylight Time),772941.799999997,B,o,O,o,791,1,799.1999999955297,772142.6000000015,7098,WL,B,3.0
6,7.365000009536743,distr,52634.99999046326,Fri Apr 04 2025 14:03:17 GMT-0500 (Central Daylight Time),773591.6999999955,B,oc,O,c,640,1,1449.0999999940395,772142.6000000015,7098,WL,B,3.0
6,7.615000009536743,distr,52384.99999046326,Fri Apr 04 2025 14:03:17 GMT-0500 (Central Daylight Time),773841.799999997,B,oce,O,e,230,1,1699.1999999955297,772142.6000000015,7098,WL,B,3.0
6,7.997999906539917,distr,52002.00009346008,Fri Apr 04 2025 14:03:17 GMT-0500 (Central Daylight Time),774224.799999997,B,ocea,O,a,372,1,2082.1999999955297,772142.6000000015,7098,WL,B,3.0
6,8.365000009536743,distr,51634.99999046326,Fri Apr 04 2025 14:03:17 GMT-0500 (Central Daylight Time),774591.299999997,B,ocean,O,n,357,1,2448.6999999955297,772142.6000000015,7098,WL,B,3.0
6,8.747999906539917,distr,51252.00009346008,Fri Apr 04 2025 14:03:17 GMT-0500 (Central Daylight Time),774974.6000000015,B,oceanenter,O,enter,367,1,2832.0,772142.6000000015,7098,WL,B,3.0
6,9.447999954223633,distr,50552.00004577637,Fri Apr 04 2025 14:03:17 GMT-0500 (Central Daylight Time),775674.3999999985,B,l,O,l,695,1,699.5,774974.8999999985,7098,WL,B,4.0
6,9.664000034332275,distr,50335.999965667725,Fri Apr 04 2025 14:03:17 GMT-0500 (Central Daylight Time),775890.8999999985,B,li,O,i,212,1,916.0,774974.8999999985,7098,WL,B,4.0
6,9.848000049591064,distr,50151.999950408936,Fri Apr 04 2025 14:03:17 GMT-0500 (Central Daylight Time),776074.3999999985,B,lip,O,p,178,1,1099.5,774974.8999999985,7098,WL,B,4.0
6,10.614000082015991,distr,49385.99991798401,Fri Apr 04 2025 14:03:17 GMT-0500 (Central Daylight Time),776840.6000000015,B,lips,O,s,747,1,1865.7000000029802,774974.8999999985,7098,WL,B,4.0
6,11.02999997138977,distr,48970.00002861023,Fri Apr 04 2025 14:03:17 GMT-0500 (Central Daylight Time),777257.1000000015,B,lipsenter,O,enter,397,1,2282.2000000029802,774974.8999999985,7098,WL,B,4.0
6,11.864000082015991,distr,48135.99991798401,Fri Apr 04 2025 14:03:17 GMT-0500 (Central Daylight Time),778090.3999999985,B,a,O,a,813,1,832.8999999985099,777257.5,7098,WL,B,5.0
6,12.163000106811523,distr,47836.99989318848,Fri Apr 04 2025 14:03:17 GMT-0500 (Central Daylight Time),778390.1000000015,B,ar,O,r,292,1,1132.6000000014901,777257.5,7098,WL,B,5.0
6,12.546000003814697,distr,47453.9999961853,Fri Apr 04 2025 14:03:17 GMT-0500 (Central Daylight Time),778773.299999997,B,arm,O,m,375,1,1515.7999999970198,777257.5,7098,WL,B,5.0
6,12.763000011444092,distr,47236.99998855591,Fri Apr 04 2025 14:03:17 GMT-0500 (Central Daylight Time),778989.8999999985,B,army,O,y,208,1,1732.3999999985099,777257.5,7098,WL,B,5.0
6,13.163000106811523,distr,46836.99989318848,Fri Apr 04 2025 14:03:17 GMT-0500 (Central Daylight Time),779389.799999997,B,armyenter,O,enter,383,1,2132.2999999970198,777257.5,7098,WL,B,5.0
6,13.86299991607666,distr,46137.00008392334,Fri Apr 04 2025 14:03:17 GMT-0500 (Central Daylight Time),780089.5,B,b,O,b,679,1,699.3999999985099,779390.1000000015,7098,WL,B,6.0
6,14.145999908447266,distr,45854.000091552734,Fri Apr 04 2025 14:03:17 GMT-0500 (Central Daylight Time),780372.799999997,B,bu,O,u,276,1,982.6999999955297,779390.1000000015,7098,WL,B,6.0
6,14.378999948501587,distr,45621.00005149841,Fri Apr 04 2025 14:03:17 GMT-0500 (Central Daylight Time),780606.1999999955,B,bui,O,i,217,1,1216.0999999940395,779390.1000000015,7098,WL,B,6.0
6,14.529000043869019,distr,45470.99995613098,Fri Apr 04 2025 14:03:17 GMT-0500 (Central Daylight Time),780756.1000000015,B,buil,O,l,143,1,1366.0,779390.1000000015,7098,WL,B,6.0
6,15.078999996185303,distr,44921.0000038147,Fri Apr 04 2025 14:03:17 GMT-0500 (Central Daylight Time),781305.799999997,B,build,O,d,529,1,1915.6999999955297,779390.1000000015,7098,WL,B,6.0
6,15.428999900817871,distr,44571.00009918213,Fri Apr 04 2025 14:03:17 GMT-0500 (Central Daylight Time),781655.6999999955,B,buildi,O,i,332,1,2265.5999999940395,779390.1000000015,7098,WL,B,6.0
6,15.661999940872192,distr,44338.00005912781,Fri Apr 04 2025 14:03:17 GMT-0500 (Central Daylight Time),781889.1000000015,B,buildin,O,n,214,1,2499.0,779390.1000000015,7098,WL,B,6.0
6,16.17799997329712,distr,43822.00002670288,Fri Apr 04 2025 14:03:17 GMT-0500 (Central Daylight Time),782405.5,B,building,O,g,500,1,3015.39999999851,779390.1000000015,7098,WL,B,6.0
6,16.57800006866455,distr,43421.99993133545,Fri Apr 04 2025 14:03:17 GMT-0500 (Central Daylight Time),782805.299999997,B,buildingenter,O,enter,384,1,3415.1999999955297,779390.1000000015,7098,WL,B,6.0
6,17.710999965667725,distr,42289.000034332275,Fri Apr 04 2025 14:03:17 GMT-0500 (Central Daylight Time),783938.0,B,v,O,v,1120,1,1132.5,782805.5,7098,WL,B,7.0
6,18.09500002861023,distr,41904.99997138977,Fri Apr 04 2025 14:03:17 GMT-0500 (Central Daylight Time),784321.799999997,B,vi,O,i,372,1,1516.2999999970198,782805.5,7098,WL,B,7.0
6,18.509000062942505,distr,41490.999937057495,Fri Apr 04 2025 14:03:17 GMT-0500 (Central Daylight Time),784736.1000000015,B,vil,O,l,263,1,1930.6000000014901,782805.5,7098,WL,B,7.0
6,18.515000104904175,distr,41484.999895095825,Fri Apr 04 2025 14:03:17 GMT-0500 (Central Daylight Time),784742.1000000015,B,vill,O,l,1,1,1936.6000000014901,782805.5,7098,WL,B,7.0
6,19.293999910354614,distr,40706.000089645386,Fri Apr 04 2025 14:03:17 GMT-0500 (Central Daylight Time),785521.1999999955,B,villa,O,a,765,1,2715.6999999955297,782805.5,7098,WL,B,7.0
6,19.594000101089478,distr,40405.99989891052,Fri Apr 04 2025 14:03:17 GMT-0500 (Central Daylight Time),785821.1999999955,B,villag,O,g,292,1,3015.6999999955297,782805.5,7098,WL,B,7.0
6,19.793999910354614,distr,40206.000089645386,Fri Apr 04 2025 14:03:17 GMT-0500 (Central Daylight Time),786021.1000000015,B,village,O,e,184,1,3215.60000000149,782805.5,7098,WL,B,7.0
6,19.99399995803833,distr,40006.00004196167,Fri Apr 04 2025 14:03:17 GMT-0500 (Central Daylight Time),786221.0,B,villageenter,O,enter,184,1,3415.5,782805.5,7098,WL,B,7.0
6,24.30900001525879,distr,35690.99998474121,Fri Apr 04 2025 14:03:17 GMT-0500 (Central Daylight Time),790536.3999999985,B,enter,O,enter,4297,1,4315.20000000298,786221.1999999955,7098,WL,B,8.0
6,24.70900011062622,distr,35290.99988937378,Fri Apr 04 2025 14:03:17 GMT-0500 (Central Daylight Time),790936.299999997,B,enter,O,enter,389,1,399.5,790536.799999997,7098,WL,B,9.0
6,25.009000062942505,distr,34990.999937057495,Fri Apr 04 2025 14:03:17 GMT-0500 (Central Daylight Time),791236.1000000015,B,enter,O,enter,285,1,299.40000000596046,790936.6999999955,7098,WL,B,10.0
6,25.191999912261963,distr,34808.00008773804,Fri Apr 04 2025 14:03:17 GMT-0500 (Central Daylight Time),791419.5,B,enter,O,enter,169,1,183.10000000149012,791236.3999999985,7098,WL,B,11.0
6,25.39199995994568,distr,34608.00004005432,Fri Apr 04 2025 14:03:17 GMT-0500 (Central Daylight Time),791619.1999999955,B,enter,O,enter,186,1,199.5,791419.6999999955,7098,WL,B,12.0
6,25.825999975204468,distr,34174.00002479553,Fri Apr 04 2025 14:03:17 GMT-0500 (Central Daylight Time),792052.5,B,enter,O,enter,418,1,432.8999999985099,791619.6000000015,7098,WL,B,13.0
6,26.20900011062622,distr,33790.99988937378,Fri Apr 04 2025 14:03:17 GMT-0500 (Central Daylight Time),792435.5,B,enter,O,enter,377,1,382.70000000298023,792052.799999997,7098,WL,B,14.0
6,27.007999897003174,distr,32992.000102996826,Fri Apr 04 2025 14:03:17 GMT-0500 (Central Daylight Time),793235.3999999985,B,enter,O,enter,786,1,799.7000000029802,792435.6999999955,7098,WL,B,15.0
7,3.1989998817443848,immed,56801.000118255615,Fri Apr 04 2025 14:03:17 GMT-0500 (Central Daylight Time),803665.5,A,s,O,s,3187,1,3198.39999999851,800467.1000000015,7098,WL,B,1.0
7,3.4819998741149902,immed,56518.00012588501,Fri Apr 04 2025 14:03:17 GMT-0500 (Central Daylight Time),803948.799999997,A,st,O,t,268,1,3481.6999999955297,800467.1000000015,7098,WL,B,1.0
7,3.9159998893737793,immed,56084.00011062622,Fri Apr 04 2025 14:03:17 GMT-0500 (Central Daylight Time),804383.1000000015,A,str,O,r,425,1,3916.0,800467.1000000015,7098,WL,B,1.0
7,4.13100004196167,immed,55868.99995803833,Fri Apr 04 2025 14:03:17 GMT-0500 (Central Daylight Time),804598.3999999985,A,stre,O,e,206,1,4131.29999999702,800467.1000000015,7098,WL,B,1.0
7,4.29800009727478,immed,55701.99990272522,Fri Apr 04 2025 14:03:17 GMT-0500 (Central Daylight Time),804765.3999999985,A,stree,O,e,151,1,4298.29999999702,800467.1000000015,7098,WL,B,1.0
7,4.480999946594238,immed,55519.00005340576,Fri Apr 04 2025 14:03:17 GMT-0500 (Central Daylight Time),804948.3999999985,A,street,O,t,176,1,4481.29999999702,800467.1000000015,7098,WL,B,1.0
7,5.914000034332275,immed,54085.999965667725,Fri Apr 04 2025 14:03:17 GMT-0500 (Central Daylight Time),806381.299999997,A,streetenter,O,enter,1425,1,5914.19999999553,800467.1000000015,7098,WL,B,1.0
7,7.710000038146973,immed,52289.99996185303,Fri Apr 04 2025 14:03:17 GMT-0500 (Central Daylight Time),808176.6999999955,A,g,O,g,1648,1,1795.1999999955297,806381.5,7098,WL,B,2.0
7,7.85699987411499,immed,52143.00012588501,Fri Apr 04 2025 14:03:17 GMT-0500 (Central Daylight Time),808324.299999997,A,gr,O,r,143,1,1942.7999999970198,806381.5,7098,WL,B,2.0
7,8.129999876022339,immed,51870.00012397766,Fri Apr 04 2025 14:03:17 GMT-0500 (Central Daylight Time),808597.299999997,A,gra,O,a,257,1,2215.7999999970198,806381.5,7098,WL,B,2.0
7,8.897000074386597,immed,51102.9999256134,Fri Apr 04 2025 14:03:17 GMT-0500 (Central Daylight Time),809363.8999999985,A,gras,O,s,760,1,2982.39999999851,806381.5,7098,WL,B,2.0
7,9.079999923706055,immed,50920.000076293945,Fri Apr 04 2025 14:03:17 GMT-0500 (Central Daylight Time),809546.8999999985,A,grass,O,s,178,1,3165.39999999851,806381.5,7098,WL,B,2.0
7,9.579999923706055,immed,50420.000076293945,Fri Apr 04 2025 14:03:17 GMT-0500 (Central Daylight Time),810046.8999999985,A,grassenter,O,enter,483,1,3665.39999999851,806381.5,7098,WL,B,2.0
7,10.645999908447266,immed,49354.000091552734,Fri Apr 04 2025 14:03:17 GMT-0500 (Central Daylight Time),811113.299999997,A,d,O,d,1047,1,1066.1999999955297,810047.1000000015,7098,WL,B,3.0
7,11.11299991607666,immed,48887.00008392334,Fri Apr 04 2025 14:03:17 GMT-0500 (Central Daylight Time),811579.6000000015,A,do,O,o,452,1,1532.5,810047.1000000015,7098,WL,B,3.0
7,11.263000011444092,immed,48736.99998855591,Fri Apr 04 2025 14:03:17 GMT-0500 (Central Daylight Time),811729.5,A,doo,O,o,138,1,1682.3999999985099,810047.1000000015,7098,WL,B,3.0
7,11.963000059127808,immed,48036.99994087219,Fri Apr 04 2025 14:03:17 GMT-0500 (Central Daylight Time),812429.5,A,door,O,r,684,1,2382.39999999851,810047.1000000015,7098,WL,B,3.0
7,13.279000043869019,immed,46720.99995613098,Fri Apr 04 2025 14:03:17 GMT-0500 (Central Daylight Time),813745.799999997,A,doorenter,O,enter,1296,1,3698.6999999955297,810047.1000000015,7098,WL,B,3.0
7,13.994999885559082,immed,46005.00011444092,Fri Apr 04 2025 14:03:17 GMT-0500 (Central Daylight Time),814462.1000000015,A,a,O,a,700,1,716.0,813746.1000000015,7098,WL,B,4.0
7,14.461999893188477,immed,45538.00010681152,Fri Apr 04 2025 14:03:17 GMT-0500 (Central Daylight Time),814928.6000000015,A,ar,O,r,456,1,1182.5,813746.1000000015,7098,WL,B,4.0
7,14.878000020980835,immed,45121.999979019165,Fri Apr 04 2025 14:03:17 GMT-0500 (Central Daylight Time),815345.3999999985,A,arm,O,m,397,1,1599.2999999970198,813746.1000000015,7098,WL,B,4.0
7,15.91100001335144,immed,44088.99998664856,Fri Apr 04 2025 14:03:17 GMT-0500 (Central Daylight Time),816378.0,A,armenter,O,enter,1012,1,2631.89999999851,813746.1000000015,7098,WL,B,4.0
7,16.628000020980835,immed,43371.999979019165,Fri Apr 04 2025 14:03:17 GMT-0500 (Central Daylight Time),817094.6999999955,A,s,O,s,699,1,716.3999999985099,816378.299999997,7098,WL,B,5.0
7,16.861000061035156,immed,43138.999938964844,Fri Apr 04 2025 14:03:17 GMT-0500 (Central Daylight Time),817327.799999997,A,st,O,t,222,1,949.5,816378.299999997,7098,WL,B,5.0
7,17.094000101089478,immed,42905.99989891052,Fri Apr 04 2025 14:03:17 GMT-0500 (Central Daylight Time),817561.299999997,A,sta,O,a,222,1,1183.0,816378.299999997,7098,WL,B,5.0
7,17.344000101089478,immed,42655.99989891052,Fri Apr 04 2025 14:03:17 GMT-0500 (Central Daylight Time),817811.1000000015,A,star,O,r,236,1,1432.8000000044703,816378.299999997,7098,WL,B,5.0
7,18.01099991798401,immed,41989.00008201599,Fri Apr 04 2025 14:03:17 GMT-0500 (Central Daylight Time),818477.799999997,A,starenter,O,enter,650,1,2099.5,816378.299999997,7098,WL,B,5.0
7,18.627000093460083,immed,41372.99990653992,Fri Apr 04 2025 14:03:17 GMT-0500 (Central Daylight Time),819093.6999999955,A,w,O,w,608,1,615.6999999955297,818478.0,7098,WL,B,6.0
7,19.009999990463257,immed,40990.00000953674,Fri Apr 04 2025 14:03:17 GMT-0500 (Central Daylight Time),819477.1000000015,A,wi,O,i,376,1,999.1000000014901,818478.0,7098,WL,B,6.0
7,19.509999990463257,immed,40490.00000953674,Fri Apr 04 2025 14:03:17 GMT-0500 (Central Daylight Time),819977.1999999955,A,wif,O,f,488,1,1499.1999999955297,818478.0,7098,WL,B,6.0
7,19.927000045776367,immed,40072.99995422363,Fri Apr 04 2025 14:03:17 GMT-0500 (Central Daylight Time),820393.799999997,A,wife,O,e,396,1,1915.7999999970198,818478.0,7098,WL,B,6.0
7,20.51099991798401,immed,39489.00008201599,Fri Apr 04 2025 14:03:17 GMT-0500 (Central Daylight Time),820978.0,A,wifeenter,O,enter,564,1,2500.0,818478.0,7098,WL,B,6.0
7,21.175999879837036,immed,38824.000120162964,Fri Apr 04 2025 14:03:17 GMT-0500 (Central Daylight Time),821643.1999999955,A,w,O,w,660,1,665.0,820978.1999999955,7098,WL,B,7.0
7,21.55900001525879,immed,38440.99998474121,Fri Apr 04 2025 14:03:17 GMT-0500 (Central Daylight Time),822026.5,A,wi,O,i,371,1,1048.3000000044703,820978.1999999955,7098,WL,B,7.0
7,21.80900001525879,immed,38190.99998474121,Fri Apr 04 2025 14:03:17 GMT-0500 (Central Daylight Time),822276.3999999985,A,win,O,n,235,1,1298.2000000029802,820978.1999999955,7098,WL,B,7.0
7,22.2260000705719,immed,37773.9999294281,Fri Apr 04 2025 14:03:17 GMT-0500 (Central Daylight Time),822692.799999997,A,wind,O,d,409,1,1714.6000000014901,820978.1999999955,7098,WL,B,7.0
7,22.625999927520752,immed,37374.00007247925,Fri Apr 04 2025 14:03:17 GMT-0500 (Central Daylight Time),823092.5,A,windo,O,o,384,1,2114.3000000044703,820978.1999999955,7098,WL,B,7.0
7,23.158999919891357,immed,36841.00008010864,Fri Apr 04 2025 14:03:17 GMT-0500 (Central Daylight Time),823625.8999999985,A,window,O,w,512,1,2647.7000000029802,820978.1999999955,7098,WL,B,7.0
7,23.825999975204468,immed,36174.00002479553,Fri Apr 04 2025 14:03:17 GMT-0500 (Central Daylight Time),824292.5,A,windowenter,O,enter,659,1,3314.3000000044703,820978.1999999955,7098,WL,B,7.0
7,24.575000047683716,immed,35424.999952316284,Fri Apr 04 2025 14:03:17 GMT-0500 (Central Daylight Time),825042.299999997,A,c,O,c,737,1,749.5,824292.799999997,7098,WL,B,8.0
7,24.97499990463257,immed,35025.00009536743,Fri Apr 04 2025 14:03:17 GMT-0500 (Central Daylight Time),825442.0,A,ci,O,i,379,1,1149.2000000029802,824292.799999997,7098,WL,B,8.0
7,25.20799994468689,immed,34792.00005531311,Fri Apr 04 2025 14:03:17 GMT-0500 (Central Daylight Time),825675.299999997,A,cit,O,t,219,1,1382.5,824292.799999997,7098,WL,B,8.0
7,25.407999992370605,immed,34592.000007629395,Fri Apr 04 2025 14:03:17 GMT-0500 (Central Daylight Time),825875.1999999955,A,city,O,y,194,1,1582.3999999985099,824292.799999997,7098,WL,B,8.0
7,26.341000080108643,immed,33658.99991989136,Fri Apr 04 2025 14:03:17 GMT-0500 (Central Daylight Time),826808.1999999955,A,cityenter,O,enter,914,1,2515.39999999851,824292.799999997,7098,WL,B,8.0
7,26.990999937057495,immed,33009.000062942505,Fri Apr 04 2025 14:03:17 GMT-0500 (Central Daylight Time),827457.8999999985,A,p,O,p,629,1,649.5,826808.3999999985,7098,WL,B,9.0
7,27.35800004005432,immed,32641.99995994568,Fri Apr 04 2025 14:03:17 GMT-0500 (Central Daylight Time),827824.6000000015,A,pu,O,u,355,1,1016.2000000029802,826808.3999999985,7098,WL,B,9.0
7,27.674000024795532,immed,32325.999975204468,Fri Apr 04 2025 14:03:17 GMT-0500 (Central Daylight Time),828141.3999999985,A,pup,O,p,301,1,1333.0,826808.3999999985,7098,WL,B,9.0
7,27.924000024795532,immed,32075.999975204468,Fri Apr 04 2025 14:03:17 GMT-0500 (Central Daylight Time),828391.299999997,A,pupi,O,i,232,1,1582.8999999985099,826808.3999999985,7098,WL,B,9.0
7,28.157000064849854,immed,31842.999935150146,Fri Apr 04 2025 14:03:17 GMT-0500 (Central Daylight Time),828624.3999999985,A,pupil,O,l,214,1,1816.0,826808.3999999985,7098,WL,B,9.0
7,28.60699987411499,immed,31393.00012588501,Fri Apr 04 2025 14:03:17 GMT-0500 (Central Daylight Time),829074.1999999955,A,pupilenter,O,enter,437,1,2265.7999999970198,826808.3999999985,7098,WL,B,9.0
7,29.83999991416931,immed,30160.00008583069,Fri Apr 04 2025 14:03:17 GMT-0500 (Central Daylight Time),830306.799999997,A,c,O,c,1227,1,1232.2999999970198,829074.5,7098,WL,B,10.0
7,30.056999921798706,immed,29943.000078201294,Fri Apr 04 2025 14:03:17 GMT-0500 (Central Daylight Time),830523.799999997,A,ca,O,a,203,1,1449.2999999970198,829074.5,7098,WL,B,10.0
7,30.33999991416931,immed,29660.00008583069,Fri Apr 04 2025 14:03:17 GMT-0500 (Central Daylight Time),830807.1999999955,A,cab,O,b,274,1,1732.6999999955297,829074.5,7098,WL,B,10.0
7,30.655999898910522,immed,29344.000101089478,Fri Apr 04 2025 14:03:17 GMT-0500 (Central Daylight Time),831123.3999999985,A,cabi,O,i,310,1,2048.89999999851,829074.5,7098,WL,B,10.0
7,30.990000009536743,immed,29009.999990463257,Fri Apr 04 2025 14:03:17 GMT-0500 (Central Daylight Time),831457.0,A,cabin,O,n,314,1,2382.5,829074.5,7098,WL,B,10.0
7,31.433000087738037,immed,28566.999912261963,Fri Apr 04 2025 14:03:17 GMT-0500 (Central Daylight Time),831900.3999999985,A,cabinenter,O,enter,439,1,2825.89999999851,829074.5,7098,WL,B,10.0
7,32.07299995422363,immed,27927.000045776367,Fri Apr 04 2025 14:03:17 GMT-0500 (Central Daylight Time),832539.799999997,A,l,O,l,632,1,639.1000000014901,831900.6999999955,7098,WL,B,11.0
7,32.62299990653992,immed,27377.000093460083,Fri Apr 04 2025 14:03:17 GMT-0500 (Central Daylight Time),833089.6000000015,A,la,O,a,538,1,1188.9000000059605,831900.6999999955,7098,WL,B,11.0
7,33.02300000190735,immed,26976.99999809265,Fri Apr 04 2025 14:03:17 GMT-0500 (Central Daylight Time),833489.6999999955,A,lak,O,k,388,1,1589.0,831900.6999999955,7098,WL,B,11.0
7,33.57299995422363,immed,26427.000045776367,Fri Apr 04 2025 14:03:17 GMT-0500 (Central Daylight Time),834039.5,A,lake,O,e,540,1,2138.8000000044703,831900.6999999955,7098,WL,B,11.0
7,34.57200002670288,immed,25427.99997329712,Fri Apr 04 2025 14:03:17 GMT-0500 (Central Daylight Time),835039.1000000015,A,lakeenter,O,enter,990,1,3138.4000000059605,831900.6999999955,7098,WL,B,11.0
7,35.3050000667572,immed,24694.999933242798,Fri Apr 04 2025 14:03:17 GMT-0500 (Central Daylight Time),835772.1999999955,A,p,O,p,718,1,732.6999999955297,835039.5,7098,WL,B,12.0
7,35.65499997138977,immed,24345.00002861023,Fri Apr 04 2025 14:03:17 GMT-0500 (Central Daylight Time),836122.1999999955,A,pi,O,i,329,1,1082.6999999955297,835039.5,7098,WL,B,12.0
7,35.88800001144409,immed,24111.99998855591,Fri Apr 04 2025 14:03:17 GMT-0500 (Central Daylight Time),836355.1000000015,A,pip,O,p,219,1,1315.6000000014901,835039.5,7098,WL,B,12.0
7,36.48799991607666,immed,23512.00008392334,Fri Apr 04 2025 14:03:17 GMT-0500 (Central Daylight Time),836955.0,A,pipe,O,e,594,1,1915.5,835039.5,7098,WL,B,12.0
7,37.57100009918213,immed,22428.99990081787,Fri Apr 04 2025 14:03:17 GMT-0500 (Central Daylight Time),838038.299999997,A,pipeenter,O,enter,1075,1,2998.7999999970198,835039.5,7098,WL,B,12.0
7,38.28699994087219,immed,21713.000059127808,Fri Apr 04 2025 14:03:17 GMT-0500 (Central Daylight Time),838754.6000000015,A,s,O,s,703,1,715.9000000059605,838038.6999999955,7098,WL,B,13.0
7,38.687000036239624,immed,21312.999963760376,Fri Apr 04 2025 14:03:17 GMT-0500 (Central Daylight Time),839154.6000000015,A,sk,O,k,379,1,1115.9000000059605,838038.6999999955,7098,WL,B,13.0
7,38.88700008392334,immed,21112.99991607666,Fri Apr 04 2025 14:03:17 GMT-0500 (Central Daylight Time),839354.299999997,A,ski,O,i,179,1,1315.6000000014901,838038.6999999955,7098,WL,B,13.0
7,39.2039999961853,immed,20796.000003814697,Fri Apr 04 2025 14:03:17 GMT-0500 (Central Daylight Time),839671.1999999955,A,skin,O,n,299,1,1632.5,838038.6999999955,7098,WL,B,13.0
7,39.605000019073486,immed,20394.999980926514,Fri Apr 04 2025 14:03:17 GMT-0500 (Central Daylight Time),840071.8999999985,A,skinenter,O,enter,390,1,2033.2000000029802,838038.6999999955,7098,WL,B,13.0
7,40.3529999256134,immed,19647.000074386597,Fri Apr 04 2025 14:03:17 GMT-0500 (Central Daylight Time),840820.5,A,f,O,f,742,1,748.3000000044703,840072.1999999955,7098,WL,B,14.0
7,40.70300006866455,immed,19296.99993133545,Fri Apr 04 2025 14:03:17 GMT-0500 (Central Daylight Time),841170.3999999985,A,fi,O,i,329,1,1098.2000000029802,840072.1999999955,7098,WL,B,14.0
7,41.13599991798401,immed,18864.00008201599,Fri Apr 04 2025 14:03:17 GMT-0500 (Central Daylight Time),841603.6000000015,A,fir,O,r,419,1,1531.4000000059605,840072.1999999955,7098,WL,B,14.0
7,41.3199999332428,immed,18680.000066757202,Fri Apr 04 2025 14:03:17 GMT-0500 (Central Daylight Time),841786.799999997,A,fire,O,e,170,1,1714.6000000014901,840072.1999999955,7098,WL,B,14.0
7,42.40299987792969,immed,17597.000122070312,Fri Apr 04 2025 14:03:17 GMT-0500 (Central Daylight Time),842869.8999999985,A,fireenter,O,enter,1067,1,2797.7000000029802,840072.1999999955,7098,WL,B,14.0
7,43.20199990272522,immed,16798.00009727478,Fri Apr 04 2025 14:03:17 GMT-0500 (Central Daylight Time),843669.6000000015,A,c,O,c,792,1,799.4000000059605,842870.1999999955,7098,WL,B,15.0
7,43.60199999809265,immed,16398.00000190735,Fri Apr 04 2025 14:03:17 GMT-0500 (Central Daylight Time),844069.6999999955,A,cl,O,l,392,1,1199.5,842870.1999999955,7098,WL,B,15.0
7,43.80200004577637,immed,16197.999954223633,Fri Apr 04 2025 14:03:17 GMT-0500 (Central Daylight Time),844269.3999999985,A,clo,O,o,192,1,1399.2000000029802,842870.1999999955,7098,WL,B,15.0
7,44.30200004577637,immed,15697.999954223633,Fri Apr 04 2025 14:03:17 GMT-0500 (Central Daylight Time),844769.5,A,cloc,O,c,480,1,1899.3000000044703,842870.1999999955,7098,WL,B,15.0
7,44.61899995803833,immed,15381.00004196167,Fri Apr 04 2025 14:03:17 GMT-0500 (Central Daylight Time),845085.8999999985,A,clock,O,k,309,1,2215.7000000029802,842870.1999999955,7098,WL,B,15.0
7,45.33500003814697,immed,14664.999961853027,Fri Apr 04 2025 14:03:17 GMT-0500 (Central Daylight Time),845802.299999997,A,clockenter,O,enter,695,1,2932.10000000149,842870.1999999955,7098,WL,B,15.0
