block_c,block_dur,condition,countdown,datetime,endtime,list,multichar_response,project,response,response_time,session_number,start_end,starttime,subject_id,task,task_vers,trial
,,,,Wed Apr 02 2025 12:15:48 GMT-0500 (Central Daylight Time),,,,O,space,466,1,,,7104,WL,B,
prac,,0,,Wed Apr 02 2025 12:15:48 GMT-0500 (Central Daylight Time),,NA,b,O,b,3482,1,,,7104,WL,B,1.0
prac,,0,,Wed Apr 02 2025 12:15:48 GMT-0500 (Central Daylight Time),,NA,bo,O,o,279,1,,,7104,WL,B,1.0
prac,,0,,Wed Apr 02 2025 12:15:48 GMT-0500 (Central Daylight Time),,NA,boo,O,o,132,1,,,7104,WL,B,1.0
prac,,0,,Wed Apr 02 2025 12:15:48 GMT-0500 (Central Daylight Time),,NA,boos,O,s,121,1,,,7104,WL,B,1.0
prac,,0,,Wed Apr 02 2025 12:15:48 GMT-0500 (Central Daylight Time),,NA,boost,O,t,259,1,,,7104,WL,B,1.0
prac,,0,,Wed Apr 02 2025 12:15:48 GMT-0500 (Central Daylight Time),,NA,boostenter,O,enter,1960,1,,,7104,WL,B,1.0
1,0.5850000381469727,learn,59414.99996185303,Wed Apr 02 2025 12:15:48 GMT-0500 (Central Daylight Time),905300.0,A,a,O,a,560,1,584.2999999523163,904715.7000000477,7104,WL,B,1.0
1,1.068000078201294,learn,58931.999921798706,Wed Apr 02 2025 12:15:48 GMT-0500 (Central Daylight Time),905783.3999999762,A,ar,O,r,471,1,1067.6999999284744,904715.7000000477,7104,WL,B,1.0
1,1.9000000953674316,learn,58099.99990463257,Wed Apr 02 2025 12:15:48 GMT-0500 (Central Daylight Time),906614.8999999762,A,a,O,backspace,818,1,1899.1999999284744,904715.7000000477,7104,WL,B,1.0
1,2.368000030517578,learn,57631.99996948242,Wed Apr 02 2025 12:15:48 GMT-0500 (Central Daylight Time),907082.7999999523,A,,O,backspace,461,1,2367.0999999046326,904715.7000000477,7104,WL,B,1.0
1,2.8989999294281006,learn,57101.0000705719,Wed Apr 02 2025 12:15:48 GMT-0500 (Central Daylight Time),907614.0,A,a,O,a,519,1,2898.2999999523163,904715.7000000477,7104,WL,B,1.0
1,3.2179999351501465,learn,56782.00006484985,Wed Apr 02 2025 12:15:48 GMT-0500 (Central Daylight Time),907933.0,A,ar,O,r,313,1,3217.2999999523163,904715.7000000477,7104,WL,B,1.0
1,3.7660000324249268,learn,56233.99996757507,Wed Apr 02 2025 12:15:48 GMT-0500 (Central Daylight Time),908481.0,A,a,O,backspace,526,1,3765.2999999523163,904715.7000000477,7104,WL,B,1.0
1,3.934999942779541,learn,56065.00005722046,Wed Apr 02 2025 12:15:48 GMT-0500 (Central Daylight Time),908649.5,A,at,O,t,144,1,3933.7999999523163,904715.7000000477,7104,WL,B,1.0
1,4.664999961853027,learn,55335.00003814697,Wed Apr 02 2025 12:15:48 GMT-0500 (Central Daylight Time),909380.3999999762,A,a,O,backspace,712,1,4664.699999928474,904715.7000000477,7104,WL,B,1.0
1,4.815000057220459,learn,55184.99994277954,Wed Apr 02 2025 12:15:48 GMT-0500 (Central Daylight Time),909530.3999999762,A,,O,backspace,135,1,4814.699999928474,904715.7000000477,7104,WL,B,1.0
1,5.680999994277954,learn,54319.000005722046,Wed Apr 02 2025 12:15:48 GMT-0500 (Central Daylight Time),910396.2000000477,A,s,O,s,858,1,5680.5,904715.7000000477,7104,WL,B,1.0
1,6.08299994468689,learn,53917.00005531311,Wed Apr 02 2025 12:15:48 GMT-0500 (Central Daylight Time),910797.6000000238,A,st,O,t,390,1,6081.899999976158,904715.7000000477,7104,WL,B,1.0
1,6.531000137329102,learn,53468.9998626709,Wed Apr 02 2025 12:15:48 GMT-0500 (Central Daylight Time),911246.1000000238,A,str,O,r,429,1,6530.399999976158,904715.7000000477,7104,WL,B,1.0
1,6.965000152587891,learn,53034.99984741211,Wed Apr 02 2025 12:15:48 GMT-0500 (Central Daylight Time),911680.2000000477,A,stre,O,e,421,1,6964.5,904715.7000000477,7104,WL,B,1.0
1,7.065999984741211,learn,52934.00001525879,Wed Apr 02 2025 12:15:48 GMT-0500 (Central Daylight Time),911780.6000000238,A,stree,O,e,83,1,7064.899999976158,904715.7000000477,7104,WL,B,1.0
1,7.932000160217285,learn,52067.999839782715,Wed Apr 02 2025 12:15:48 GMT-0500 (Central Daylight Time),912647.0,A,street,O,t,845,1,7931.299999952316,904715.7000000477,7104,WL,B,1.0
1,10.279000043869019,learn,49720.99995613098,Wed Apr 02 2025 12:15:48 GMT-0500 (Central Daylight Time),914993.8999999762,A,streetenter,O,enter,2332,1,10278.199999928474,904715.7000000477,7104,WL,B,1.0
1,11.164000034332275,learn,48835.999965667725,Wed Apr 02 2025 12:15:48 GMT-0500 (Central Daylight Time),915878.7999999523,A,g,O,g,866,1,884.5,914994.2999999523,7104,WL,B,2.0
1,11.414999961853027,learn,48585.00003814697,Wed Apr 02 2025 12:15:48 GMT-0500 (Central Daylight Time),916129.7999999523,A,gr,O,r,235,1,1135.5,914994.2999999523,7104,WL,B,2.0
1,11.648000001907349,learn,48351.99999809265,Wed Apr 02 2025 12:15:48 GMT-0500 (Central Daylight Time),916363.2000000477,A,gra,O,a,225,1,1368.9000000953674,914994.2999999523,7104,WL,B,2.0
1,11.96399998664856,learn,48036.00001335144,Wed Apr 02 2025 12:15:48 GMT-0500 (Central Daylight Time),916678.7000000477,A,gras,O,s,295,1,1684.4000000953674,914994.2999999523,7104,WL,B,2.0
1,12.11300015449524,learn,47886.99984550476,Wed Apr 02 2025 12:15:48 GMT-0500 (Central Daylight Time),916828.1000000238,A,grass,O,s,132,1,1833.8000000715256,914994.2999999523,7104,WL,B,2.0
1,12.44700002670288,learn,47552.99997329712,Wed Apr 02 2025 12:15:48 GMT-0500 (Central Daylight Time),917161.6000000238,A,grassenter,O,enter,309,1,2167.3000000715256,914994.2999999523,7104,WL,B,2.0
1,12.86300015449524,learn,47136.99984550476,Wed Apr 02 2025 12:15:48 GMT-0500 (Central Daylight Time),917578.1000000238,A,a,O,a,402,1,416.10000002384186,917162.0,7104,WL,B,3.0
1,13.095999956130981,learn,46904.00004386902,Wed Apr 02 2025 12:15:48 GMT-0500 (Central Daylight Time),917810.3999999762,A,ar,O,r,216,1,648.3999999761581,917162.0,7104,WL,B,3.0
1,13.263999938964844,learn,46736.000061035156,Wed Apr 02 2025 12:15:48 GMT-0500 (Central Daylight Time),917979.2999999523,A,arm,O,m,165,1,817.2999999523163,917162.0,7104,WL,B,3.0
1,14.146000146865845,learn,45853.999853134155,Wed Apr 02 2025 12:15:48 GMT-0500 (Central Daylight Time),918861.2999999523,A,armenter,O,enter,863,1,1699.2999999523163,917162.0,7104,WL,B,3.0
1,14.480999946594238,learn,45519.00005340576,Wed Apr 02 2025 12:15:48 GMT-0500 (Central Daylight Time),919196.2000000477,A,s,O,s,329,1,334.60000002384186,918861.6000000238,7104,WL,B,4.0
1,14.913000106811523,learn,45086.99989318848,Wed Apr 02 2025 12:15:48 GMT-0500 (Central Daylight Time),919628.1000000238,A,st,O,t,424,1,766.5,918861.6000000238,7104,WL,B,4.0
1,15.128999948501587,learn,44871.00005149841,Wed Apr 02 2025 12:15:48 GMT-0500 (Central Daylight Time),919844.5,A,sta,O,a,197,1,982.8999999761581,918861.6000000238,7104,WL,B,4.0
1,15.365000009536743,learn,44634.99999046326,Wed Apr 02 2025 12:15:48 GMT-0500 (Central Daylight Time),920079.7000000477,A,star,O,r,214,1,1218.1000000238419,918861.6000000238,7104,WL,B,4.0
1,15.745000123977661,learn,44254.99987602234,Wed Apr 02 2025 12:15:48 GMT-0500 (Central Daylight Time),920460.2999999523,A,starenter,O,enter,363,1,1598.6999999284744,918861.6000000238,7104,WL,B,4.0
1,16.11300015449524,learn,43886.99984550476,Wed Apr 02 2025 12:15:48 GMT-0500 (Central Daylight Time),920828.3999999762,A,w,O,w,362,1,367.7999999523163,920460.6000000238,7104,WL,B,5.0
1,16.2810001373291,learn,43718.9998626709,Wed Apr 02 2025 12:15:48 GMT-0500 (Central Daylight Time),920995.7000000477,A,wi,O,i,159,1,535.1000000238419,920460.6000000238,7104,WL,B,5.0
1,16.477999925613403,learn,43522.0000743866,Wed Apr 02 2025 12:15:48 GMT-0500 (Central Daylight Time),921193.2000000477,A,win,O,n,182,1,732.6000000238419,920460.6000000238,7104,WL,B,5.0
1,16.562000036239624,learn,43437.999963760376,Wed Apr 02 2025 12:15:48 GMT-0500 (Central Daylight Time),921276.5,A,wind,O,d,60,1,815.8999999761581,920460.6000000238,7104,WL,B,5.0
1,16.828999996185303,learn,43171.0000038147,Wed Apr 02 2025 12:15:48 GMT-0500 (Central Daylight Time),921543.7999999523,A,windo,O,o,248,1,1083.1999999284744,920460.6000000238,7104,WL,B,5.0
1,16.977999925613403,learn,43022.0000743866,Wed Apr 02 2025 12:15:48 GMT-0500 (Central Daylight Time),921693.1000000238,A,window,O,w,139,1,1232.5,920460.6000000238,7104,WL,B,5.0
1,17.460999965667725,learn,42539.000034332275,Wed Apr 02 2025 12:15:48 GMT-0500 (Central Daylight Time),922176.2000000477,A,windowenter,O,enter,461,1,1715.6000000238419,920460.6000000238,7104,WL,B,5.0
1,22.792999982833862,learn,37207.00001716614,Wed Apr 02 2025 12:15:48 GMT-0500 (Central Daylight Time),927508.1000000238,A,g,O,g,5316,1,5331.700000047684,922176.3999999762,7104,WL,B,6.0
1,23.0770001411438,learn,36922.9998588562,Wed Apr 02 2025 12:15:48 GMT-0500 (Central Daylight Time),927792.3999999762,A,gr,O,r,261,1,5616.0,922176.3999999762,7104,WL,B,6.0
1,23.278000116348267,learn,36721.99988365173,Wed Apr 02 2025 12:15:48 GMT-0500 (Central Daylight Time),927992.3999999762,A,gra,O,a,178,1,5816.0,922176.3999999762,7104,WL,B,6.0
1,23.610000133514404,learn,36389.999866485596,Wed Apr 02 2025 12:15:48 GMT-0500 (Central Daylight Time),928324.7999999523,A,gras,O,s,315,1,6148.399999976158,922176.3999999762,7104,WL,B,6.0
1,23.761000156402588,learn,36238.99984359741,Wed Apr 02 2025 12:15:48 GMT-0500 (Central Daylight Time),928476.2999999523,A,grass,O,s,145,1,6299.899999976158,922176.3999999762,7104,WL,B,6.0
1,24.511000156402588,learn,35488.99984359741,Wed Apr 02 2025 12:15:48 GMT-0500 (Central Daylight Time),929225.8999999762,A,grassenter,O,enter,742,1,7049.5,922176.3999999762,7104,WL,B,6.0
1,34.174999952316284,learn,25825.000047683716,Wed Apr 02 2025 12:15:48 GMT-0500 (Central Daylight Time),938889.5,A,d,O,d,9658,1,9663.299999952316,929226.2000000477,7104,WL,B,7.0
1,34.355000019073486,learn,25644.999980926514,Wed Apr 02 2025 12:15:48 GMT-0500 (Central Daylight Time),939070.3999999762,A,do,O,o,171,1,9844.199999928474,929226.2000000477,7104,WL,B,7.0
1,34.64100003242493,learn,25358.999967575073,Wed Apr 02 2025 12:15:48 GMT-0500 (Central Daylight Time),939355.6000000238,A,doo,O,o,262,1,10129.399999976158,929226.2000000477,7104,WL,B,7.0
1,35.15700006484985,learn,24842.999935150146,Wed Apr 02 2025 12:15:48 GMT-0500 (Central Daylight Time),939872.0,A,door,O,r,495,1,10645.799999952316,929226.2000000477,7104,WL,B,7.0
1,35.27300000190735,learn,24726.99999809265,Wed Apr 02 2025 12:15:48 GMT-0500 (Central Daylight Time),939988.2000000477,A,doorenter,O,enter,108,1,10762.0,929226.2000000477,7104,WL,B,7.0
1,41.2720000743866,learn,18727.999925613403,Wed Apr 02 2025 12:15:48 GMT-0500 (Central Daylight Time),945986.7000000477,A,f,O,f,5992,1,5998.300000071526,939988.3999999762,7104,WL,B,8.0
1,41.4539999961853,learn,18546.000003814697,Wed Apr 02 2025 12:15:48 GMT-0500 (Central Daylight Time),946168.7000000477,A,fi,O,i,169,1,6180.300000071526,939988.3999999762,7104,WL,B,8.0
1,41.63700008392334,learn,18362.99991607666,Wed Apr 02 2025 12:15:48 GMT-0500 (Central Daylight Time),946351.5,A,fir,O,r,171,1,6363.100000023842,939988.3999999762,7104,WL,B,8.0
1,41.8529999256134,learn,18147.000074386597,Wed Apr 02 2025 12:15:48 GMT-0500 (Central Daylight Time),946568.2000000477,A,fire,O,e,195,1,6579.800000071526,939988.3999999762,7104,WL,B,8.0
1,42.05400013923645,learn,17945.99986076355,Wed Apr 02 2025 12:15:48 GMT-0500 (Central Daylight Time),946769.0,A,fireenter,O,enter,179,1,6780.600000023842,939988.3999999762,7104,WL,B,8.0
1,60.015000104904175,learn,-15.000104904174805,Wed Apr 02 2025 12:15:48 GMT-0500 (Central Daylight Time),964730.3999999762,A,None,O,None,17956,1,17961.100000023842,946769.2999999523,7104,WL,B,9.0
2,0.5669999122619629,learn,59433.00008773804,Wed Apr 02 2025 12:15:48 GMT-0500 (Central Daylight Time),1035557.5,A,c,O,c,550,1,566.6000000238419,1034990.8999999762,7104,WL,B,1.0
2,0.75,learn,59250.0,Wed Apr 02 2025 12:15:48 GMT-0500 (Central Daylight Time),1035740.5,A,cl,O,l,166,1,749.6000000238419,1034990.8999999762,7104,WL,B,1.0
2,1.0,learn,59000.0,Wed Apr 02 2025 12:15:48 GMT-0500 (Central Daylight Time),1035990.5,A,clo,O,o,230,1,999.6000000238419,1034990.8999999762,7104,WL,B,1.0
2,1.2860000133514404,learn,58713.99998664856,Wed Apr 02 2025 12:15:48 GMT-0500 (Central Daylight Time),1036276.8999999762,A,cloc,O,c,279,1,1286.0,1034990.8999999762,7104,WL,B,1.0
2,1.4649999141693115,learn,58535.00008583069,Wed Apr 02 2025 12:15:48 GMT-0500 (Central Daylight Time),1036456.1000000238,A,clock,O,k,158,1,1465.2000000476837,1034990.8999999762,7104,WL,B,1.0
2,1.8989999294281006,learn,58101.0000705719,Wed Apr 02 2025 12:15:48 GMT-0500 (Central Daylight Time),1036889.7999999523,A,clockenter,O,enter,426,1,1898.8999999761581,1034990.8999999762,7104,WL,B,1.0
2,3.1489999294281006,learn,56851.0000705719,Wed Apr 02 2025 12:15:48 GMT-0500 (Central Daylight Time),1038140.1000000238,A,l,O,l,1242,1,1249.8000000715256,1036890.2999999523,7104,WL,B,2.0
2,3.2649998664855957,learn,56735.000133514404,Wed Apr 02 2025 12:15:48 GMT-0500 (Central Daylight Time),1038256.2999999523,A,la,O,a,95,1,1366.0,1036890.2999999523,7104,WL,B,2.0
2,3.430999994277954,learn,56569.000005722046,Wed Apr 02 2025 12:15:48 GMT-0500 (Central Daylight Time),1038421.6000000238,A,lak,O,k,154,1,1531.3000000715256,1036890.2999999523,7104,WL,B,2.0
2,3.546999931335449,learn,56453.00006866455,Wed Apr 02 2025 12:15:48 GMT-0500 (Central Daylight Time),1038537.6000000238,A,lake,O,e,103,1,1647.3000000715256,1036890.2999999523,7104,WL,B,2.0
2,3.7990000247955322,learn,56200.99997520447,Wed Apr 02 2025 12:15:48 GMT-0500 (Central Daylight Time),1038789.5,A,lakeenter,O,enter,236,1,1899.2000000476837,1036890.2999999523,7104,WL,B,2.0
2,4.21399998664856,learn,55786.00001335144,Wed Apr 02 2025 12:15:48 GMT-0500 (Central Daylight Time),1039205.3999999762,A,f,O,f,397,1,415.60000002384186,1038789.7999999523,7104,WL,B,3.0
2,4.398000001907349,learn,55601.99999809265,Wed Apr 02 2025 12:15:48 GMT-0500 (Central Daylight Time),1039389.2999999523,A,fi,O,i,174,1,599.5,1038789.7999999523,7104,WL,B,3.0
2,4.547999858856201,learn,55452.0001411438,Wed Apr 02 2025 12:15:48 GMT-0500 (Central Daylight Time),1039539.5,A,fir,O,r,144,1,749.7000000476837,1038789.7999999523,7104,WL,B,3.0
2,4.9649999141693115,learn,55035.00008583069,Wed Apr 02 2025 12:15:48 GMT-0500 (Central Daylight Time),1039956.3999999762,A,fire,O,e,401,1,1166.6000000238419,1038789.7999999523,7104,WL,B,3.0
2,5.5309998989105225,learn,54469.00010108948,Wed Apr 02 2025 12:15:48 GMT-0500 (Central Daylight Time),1040521.5,A,fireenter,O,enter,550,1,1731.7000000476837,1038789.7999999523,7104,WL,B,3.0
2,9.713000059127808,learn,50286.99994087219,Wed Apr 02 2025 12:15:48 GMT-0500 (Central Daylight Time),1044704.2000000477,A,w,O,w,4162,1,4182.400000095367,1040521.7999999523,7104,WL,B,4.0
2,9.845999956130981,learn,50154.00004386902,Wed Apr 02 2025 12:15:48 GMT-0500 (Central Daylight Time),1044837.2999999523,A,wi,O,i,114,1,4315.5,1040521.7999999523,7104,WL,B,4.0
2,9.96399998664856,learn,50036.00001335144,Wed Apr 02 2025 12:15:48 GMT-0500 (Central Daylight Time),1044954.7000000477,A,win,O,n,101,1,4432.900000095367,1040521.7999999523,7104,WL,B,4.0
2,10.078999996185303,learn,49921.0000038147,Wed Apr 02 2025 12:15:48 GMT-0500 (Central Daylight Time),1045070.3999999762,A,wind,O,d,105,1,4548.600000023842,1040521.7999999523,7104,WL,B,4.0
2,10.396999835968018,learn,49603.00016403198,Wed Apr 02 2025 12:15:48 GMT-0500 (Central Daylight Time),1045388.0,A,windo,O,o,310,1,4866.200000047684,1040521.7999999523,7104,WL,B,4.0
2,10.54699993133545,learn,49453.00006866455,Wed Apr 02 2025 12:15:48 GMT-0500 (Central Daylight Time),1045537.7999999523,A,window,O,w,126,1,5016.0,1040521.7999999523,7104,WL,B,4.0
2,10.779000043869019,learn,49220.99995613098,Wed Apr 02 2025 12:15:48 GMT-0500 (Central Daylight Time),1045770.3999999762,A,windowenter,O,enter,216,1,5248.600000023842,1040521.7999999523,7104,WL,B,4.0
2,11.062999963760376,learn,48937.000036239624,Wed Apr 02 2025 12:15:48 GMT-0500 (Central Daylight Time),1046054.5,A,s,O,s,274,1,283.7999999523163,1045770.7000000477,7104,WL,B,5.0
2,11.312000036239624,learn,48687.999963760376,Wed Apr 02 2025 12:15:48 GMT-0500 (Central Daylight Time),1046303.2999999523,A,st,O,t,229,1,532.5999999046326,1045770.7000000477,7104,WL,B,5.0
2,11.496000051498413,learn,48503.99994850159,Wed Apr 02 2025 12:15:48 GMT-0500 (Central Daylight Time),1046486.6000000238,A,sta,O,a,172,1,715.8999999761581,1045770.7000000477,7104,WL,B,5.0
2,11.678999900817871,learn,48321.00009918213,Wed Apr 02 2025 12:15:48 GMT-0500 (Central Daylight Time),1046669.7000000477,A,star,O,r,172,1,899.0,1045770.7000000477,7104,WL,B,5.0
2,12.013000011444092,learn,47986.99998855591,Wed Apr 02 2025 12:15:48 GMT-0500 (Central Daylight Time),1047003.8999999762,A,starenter,O,enter,317,1,1233.1999999284744,1045770.7000000477,7104,WL,B,5.0
2,13.963000059127808,learn,46036.99994087219,Wed Apr 02 2025 12:15:48 GMT-0500 (Central Daylight Time),1048953.7000000477,A,g,O,g,1928,1,1949.7000000476837,1047004.0,7104,WL,B,6.0
2,14.26199984550476,learn,45738.00015449524,Wed Apr 02 2025 12:15:48 GMT-0500 (Central Daylight Time),1049252.8999999762,A,gr,O,r,280,1,2248.899999976158,1047004.0,7104,WL,B,6.0
2,14.461999893188477,learn,45538.00010681152,Wed Apr 02 2025 12:15:48 GMT-0500 (Central Daylight Time),1049452.5,A,gra,O,a,182,1,2448.5,1047004.0,7104,WL,B,6.0
2,14.76199984550476,learn,45238.00015449524,Wed Apr 02 2025 12:15:48 GMT-0500 (Central Daylight Time),1049752.5,A,gras,O,s,286,1,2748.5,1047004.0,7104,WL,B,6.0
2,14.911999940872192,learn,45088.00005912781,Wed Apr 02 2025 12:15:48 GMT-0500 (Central Daylight Time),1049902.7000000477,A,grass,O,s,138,1,2898.7000000476837,1047004.0,7104,WL,B,6.0
2,15.177000045776367,learn,44822.99995422363,Wed Apr 02 2025 12:15:48 GMT-0500 (Central Daylight Time),1050168.5,A,grassenter,O,enter,244,1,3164.5,1047004.0,7104,WL,B,6.0
2,16.0939998626709,learn,43906.0001373291,Wed Apr 02 2025 12:15:48 GMT-0500 (Central Daylight Time),1051084.8999999762,A,c,O,c,907,1,916.1999999284744,1050168.7000000477,7104,WL,B,7.0
2,16.361000061035156,learn,43638.999938964844,Wed Apr 02 2025 12:15:48 GMT-0500 (Central Daylight Time),1051352.2999999523,A,ca,O,a,255,1,1183.5999999046326,1050168.7000000477,7104,WL,B,7.0
2,16.59500002861023,learn,43404.99997138977,Wed Apr 02 2025 12:15:48 GMT-0500 (Central Daylight Time),1051585.7999999523,A,cab,O,b,219,1,1417.0999999046326,1050168.7000000477,7104,WL,B,7.0
2,16.76099991798401,learn,43239.00008201599,Wed Apr 02 2025 12:15:48 GMT-0500 (Central Daylight Time),1051751.7000000477,A,cabi,O,i,145,1,1583.0,1050168.7000000477,7104,WL,B,7.0
2,16.89299988746643,learn,43107.00011253357,Wed Apr 02 2025 12:15:48 GMT-0500 (Central Daylight Time),1051884.3999999762,A,cabin,O,n,115,1,1715.6999999284744,1050168.7000000477,7104,WL,B,7.0
2,17.177000045776367,learn,42822.99995422363,Wed Apr 02 2025 12:15:48 GMT-0500 (Central Daylight Time),1052168.3999999762,A,cabinenter,O,enter,270,1,1999.6999999284744,1050168.7000000477,7104,WL,B,7.0
2,20.859999895095825,learn,39140.000104904175,Wed Apr 02 2025 12:15:48 GMT-0500 (Central Daylight Time),1055850.7000000477,A,q,O,q,3666,1,3682.0,1052168.7000000477,7104,WL,B,8.0
2,20.991999864578247,learn,39008.00013542175,Wed Apr 02 2025 12:15:48 GMT-0500 (Central Daylight Time),1055983.1000000238,A,qi,O,i,113,1,3814.399999976158,1052168.7000000477,7104,WL,B,8.0
2,21.14199995994568,learn,38858.00004005432,Wed Apr 02 2025 12:15:48 GMT-0500 (Central Daylight Time),1056133.2999999523,A,qid,O,d,132,1,3964.5999999046326,1052168.7000000477,7104,WL,B,8.0
2,21.575000047683716,learn,38424.999952316284,Wed Apr 02 2025 12:15:48 GMT-0500 (Central Daylight Time),1056566.3999999762,A,qi,O,backspace,422,1,4397.699999928474,1052168.7000000477,7104,WL,B,8.0
2,21.759999990463257,learn,38240.00000953674,Wed Apr 02 2025 12:15:48 GMT-0500 (Central Daylight Time),1056751.1000000238,A,q,O,backspace,165,1,4582.399999976158,1052168.7000000477,7104,WL,B,8.0
2,22.07699990272522,learn,37923.00009727478,Wed Apr 02 2025 12:15:48 GMT-0500 (Central Daylight Time),1057068.3999999762,A,,O,backspace,311,1,4899.699999928474,1052168.7000000477,7104,WL,B,8.0
2,22.80999994277954,learn,37190.00005722046,Wed Apr 02 2025 12:15:48 GMT-0500 (Central Daylight Time),1057801.2999999523,A,w,O,w,711,1,5632.599999904633,1052168.7000000477,7104,WL,B,8.0
2,22.95899987220764,learn,37041.00012779236,Wed Apr 02 2025 12:15:48 GMT-0500 (Central Daylight Time),1057949.8999999762,A,wi,O,i,131,1,5781.199999928474,1052168.7000000477,7104,WL,B,8.0
2,23.158999919891357,learn,36841.00008010864,Wed Apr 02 2025 12:15:48 GMT-0500 (Central Daylight Time),1058150.2000000477,A,wif,O,f,189,1,5981.5,1052168.7000000477,7104,WL,B,8.0
2,23.358999967575073,learn,36641.00003242493,Wed Apr 02 2025 12:15:48 GMT-0500 (Central Daylight Time),1058350.0,A,wife,O,e,180,1,6181.299999952316,1052168.7000000477,7104,WL,B,8.0
2,23.54200005531311,learn,36457.99994468689,Wed Apr 02 2025 12:15:48 GMT-0500 (Central Daylight Time),1058532.5,A,wifeenter,O,enter,163,1,6363.799999952316,1052168.7000000477,7104,WL,B,8.0
2,24.64400005340576,learn,35355.99994659424,Wed Apr 02 2025 12:15:48 GMT-0500 (Central Daylight Time),1059634.5,A,a,O,a,1094,1,1101.7000000476837,1058532.7999999523,7104,WL,B,9.0
2,24.876999855041504,learn,35123.000144958496,Wed Apr 02 2025 12:15:48 GMT-0500 (Central Daylight Time),1059867.7000000477,A,ar,O,r,227,1,1334.9000000953674,1058532.7999999523,7104,WL,B,9.0
2,25.0239999294281,learn,34976.0000705719,Wed Apr 02 2025 12:15:48 GMT-0500 (Central Daylight Time),1060015.2000000477,A,arm,O,m,127,1,1482.4000000953674,1058532.7999999523,7104,WL,B,9.0
2,25.322999954223633,learn,34677.00004577637,Wed Apr 02 2025 12:15:48 GMT-0500 (Central Daylight Time),1060314.0,A,armenter,O,enter,290,1,1781.2000000476837,1058532.7999999523,7104,WL,B,9.0
2,26.490999937057495,learn,33509.000062942505,Wed Apr 02 2025 12:15:48 GMT-0500 (Central Daylight Time),1061482.1000000238,A,g,O,g,1154,1,1167.8000000715256,1060314.2999999523,7104,WL,B,10.0
2,26.757999897003174,learn,33242.000102996826,Wed Apr 02 2025 12:15:48 GMT-0500 (Central Daylight Time),1061748.7999999523,A,gr,O,r,244,1,1434.5,1060314.2999999523,7104,WL,B,10.0
2,26.94000005722046,learn,33059.99994277954,Wed Apr 02 2025 12:15:48 GMT-0500 (Central Daylight Time),1061931.3999999762,A,gra,O,a,175,1,1617.1000000238419,1060314.2999999523,7104,WL,B,10.0
2,27.223999977111816,learn,32776.00002288818,Wed Apr 02 2025 12:15:48 GMT-0500 (Central Daylight Time),1062215.5,A,gras,O,s,272,1,1901.2000000476837,1060314.2999999523,7104,WL,B,10.0
2,27.37399983406067,learn,32626.00016593933,Wed Apr 02 2025 12:15:48 GMT-0500 (Central Daylight Time),1062365.1000000238,A,grass,O,s,127,1,2050.8000000715256,1060314.2999999523,7104,WL,B,10.0
2,27.60699987411499,learn,32393.00012588501,Wed Apr 02 2025 12:15:48 GMT-0500 (Central Daylight Time),1062598.3999999762,A,grassenter,O,enter,220,1,2284.100000023842,1060314.2999999523,7104,WL,B,10.0
2,31.822999954223633,learn,28177.000045776367,Wed Apr 02 2025 12:15:48 GMT-0500 (Central Daylight Time),1066813.7000000477,A,w,O,w,4198,1,4215.100000023842,1062598.6000000238,7104,WL,B,11.0
2,31.907000064849854,learn,28092.999935150146,Wed Apr 02 2025 12:15:48 GMT-0500 (Central Daylight Time),1066898.0,A,wi,O,i,77,1,4299.399999976158,1062598.6000000238,7104,WL,B,11.0
2,32.0550000667572,learn,27944.999933242798,Wed Apr 02 2025 12:15:48 GMT-0500 (Central Daylight Time),1067046.3999999762,A,win,O,n,129,1,4447.799999952316,1062598.6000000238,7104,WL,B,11.0
2,32.1729998588562,learn,27827.0001411438,Wed Apr 02 2025 12:15:48 GMT-0500 (Central Daylight Time),1067163.7000000477,A,wind,O,d,100,1,4565.100000023842,1062598.6000000238,7104,WL,B,11.0
2,32.32299995422363,learn,27677.000045776367,Wed Apr 02 2025 12:15:48 GMT-0500 (Central Daylight Time),1067313.6000000238,A,windo,O,o,136,1,4715.0,1062598.6000000238,7104,WL,B,11.0
2,32.454999923706055,learn,27545.000076293945,Wed Apr 02 2025 12:15:48 GMT-0500 (Central Daylight Time),1067446.5,A,window,O,w,121,1,4847.899999976158,1062598.6000000238,7104,WL,B,11.0
2,32.67400002479553,learn,27325.999975204468,Wed Apr 02 2025 12:15:48 GMT-0500 (Central Daylight Time),1067665.0,A,windowenter,O,enter,205,1,5066.399999976158,1062598.6000000238,7104,WL,B,11.0
2,35.72199988365173,learn,24278.000116348267,Wed Apr 02 2025 12:15:48 GMT-0500 (Central Daylight Time),1070712.6000000238,A,p,O,p,3028,1,3047.3000000715256,1067665.2999999523,7104,WL,B,12.0
2,36.00499987602234,learn,23995.00012397766,Wed Apr 02 2025 12:15:48 GMT-0500 (Central Daylight Time),1070995.8999999762,A,pu,O,u,267,1,3330.600000023842,1067665.2999999523,7104,WL,B,12.0
2,36.32200002670288,learn,23677.99997329712,Wed Apr 02 2025 12:15:48 GMT-0500 (Central Daylight Time),1071312.8999999762,A,pup,O,p,296,1,3647.600000023842,1067665.2999999523,7104,WL,B,12.0
2,36.57200002670288,learn,23427.99997329712,Wed Apr 02 2025 12:15:48 GMT-0500 (Central Daylight Time),1071562.6000000238,A,pupi,O,i,234,1,3897.3000000715256,1067665.2999999523,7104,WL,B,12.0
2,36.8199999332428,learn,23180.000066757202,Wed Apr 02 2025 12:15:48 GMT-0500 (Central Daylight Time),1071811.0,A,pupil,O,l,232,1,4145.700000047684,1067665.2999999523,7104,WL,B,12.0
2,37.138999938964844,learn,22861.000061035156,Wed Apr 02 2025 12:15:48 GMT-0500 (Central Daylight Time),1072129.7000000477,A,pupilenter,O,enter,303,1,4464.400000095367,1067665.2999999523,7104,WL,B,12.0
2,40.00399994850159,learn,19996.000051498413,Wed Apr 02 2025 12:15:48 GMT-0500 (Central Daylight Time),1074994.6000000238,A,s,O,s,2850,1,2864.600000023842,1072130.0,7104,WL,B,13.0
2,40.253000020980835,learn,19746.999979019165,Wed Apr 02 2025 12:15:48 GMT-0500 (Central Daylight Time),1075244.1000000238,A,st,O,t,239,1,3114.100000023842,1072130.0,7104,WL,B,13.0
2,40.437000036239624,learn,19562.999963760376,Wed Apr 02 2025 12:15:48 GMT-0500 (Central Daylight Time),1075428.3999999762,A,sta,O,a,165,1,3298.399999976158,1072130.0,7104,WL,B,13.0
2,40.58699989318848,learn,19413.000106811523,Wed Apr 02 2025 12:15:48 GMT-0500 (Central Daylight Time),1075578.0,A,star,O,r,135,1,3448.0,1072130.0,7104,WL,B,13.0
2,40.80299997329712,learn,19197.00002670288,Wed Apr 02 2025 12:15:48 GMT-0500 (Central Daylight Time),1075794.1000000238,A,starenter,O,enter,202,1,3664.100000023842,1072130.0,7104,WL,B,13.0
2,46.30200004577637,learn,13697.999954223633,Wed Apr 02 2025 12:15:48 GMT-0500 (Central Daylight Time),1081293.3999999762,A,f,O,f,5477,1,5499.100000023842,1075794.2999999523,7104,WL,B,14.0
2,46.45099997520447,learn,13549.000024795532,Wed Apr 02 2025 12:15:48 GMT-0500 (Central Daylight Time),1081443.0,A,fi,O,i,133,1,5648.700000047684,1075794.2999999523,7104,WL,B,14.0
2,46.56699991226196,learn,13433.000087738037,Wed Apr 02 2025 12:15:48 GMT-0500 (Central Daylight Time),1081558.8999999762,A,fir,O,r,104,1,5764.600000023842,1075794.2999999523,7104,WL,B,14.0
2,46.717000007629395,learn,13282.999992370605,Wed Apr 02 2025 12:15:48 GMT-0500 (Central Daylight Time),1081708.2999999523,A,fire,O,e,132,1,5914.0,1075794.2999999523,7104,WL,B,14.0
2,46.89999985694885,learn,13100.000143051147,Wed Apr 02 2025 12:15:48 GMT-0500 (Central Daylight Time),1081891.8999999762,A,fireenter,O,enter,168,1,6097.600000023842,1075794.2999999523,7104,WL,B,14.0
2,59.59699988365173,learn,403.0001163482666,Wed Apr 02 2025 12:15:48 GMT-0500 (Central Daylight Time),1094588.7999999523,A,a,O,a,12680,1,12696.699999928474,1081892.1000000238,7104,WL,B,15.0
2,59.829999923706055,learn,170.0000762939453,Wed Apr 02 2025 12:15:48 GMT-0500 (Central Daylight Time),1094821.7000000477,A,ar,O,r,217,1,12929.600000023842,1081892.1000000238,7104,WL,B,15.0
2,59.996999979019165,learn,3.000020980834961,Wed Apr 02 2025 12:15:48 GMT-0500 (Central Daylight Time),1094988.7000000477,A,arm,O,m,160,1,13096.600000023842,1081892.1000000238,7104,WL,B,15.0
2,60.00999999046326,learn,-9.999990463256836,Wed Apr 02 2025 12:15:48 GMT-0500 (Central Daylight Time),1095001.7000000477,A,armNone,O,None,7,1,13109.600000023842,1081892.1000000238,7104,WL,B,15.0
3,1.2160000801086426,learn,58783.99991989136,Wed Apr 02 2025 12:15:48 GMT-0500 (Central Daylight Time),1167548.2999999523,A,c,O,c,1195,1,1215.6999999284744,1166332.6000000238,7104,WL,B,1.0
3,1.4149999618530273,learn,58585.00003814697,Wed Apr 02 2025 12:15:48 GMT-0500 (Central Daylight Time),1167747.1000000238,A,ca,O,a,193,1,1414.5,1166332.6000000238,7104,WL,B,1.0
3,1.6159999370574951,learn,58384.000062942505,Wed Apr 02 2025 12:15:48 GMT-0500 (Central Daylight Time),1167947.7999999523,A,cab,O,b,185,1,1615.1999999284744,1166332.6000000238,7104,WL,B,1.0
3,1.815000057220459,learn,58184.99994277954,Wed Apr 02 2025 12:15:48 GMT-0500 (Central Daylight Time),1168147.0,A,cabi,O,i,194,1,1814.3999999761581,1166332.6000000238,7104,WL,B,1.0
3,1.9490001201629639,learn,58050.999879837036,Wed Apr 02 2025 12:15:48 GMT-0500 (Central Daylight Time),1168281.6000000238,A,cabin,O,n,121,1,1949.0,1166332.6000000238,7104,WL,B,1.0
3,2.431999921798706,learn,57568.000078201294,Wed Apr 02 2025 12:15:48 GMT-0500 (Central Daylight Time),1168763.7999999523,A,cabinenter,O,enter,476,1,2431.1999999284744,1166332.6000000238,7104,WL,B,1.0
3,2.8320000171661377,learn,57167.99998283386,Wed Apr 02 2025 12:15:48 GMT-0500 (Central Daylight Time),1169164.6000000238,A,c,O,c,397,1,400.5,1168764.1000000238,7104,WL,B,2.0
3,3.0490000247955322,learn,56950.99997520447,Wed Apr 02 2025 12:15:48 GMT-0500 (Central Daylight Time),1169380.7000000477,A,ci,O,i,199,1,616.6000000238419,1168764.1000000238,7104,WL,B,2.0
3,3.430000066757202,learn,56569.9999332428,Wed Apr 02 2025 12:15:48 GMT-0500 (Central Daylight Time),1169762.2000000477,A,cit,O,t,374,1,998.1000000238419,1168764.1000000238,7104,WL,B,2.0
3,3.6000001430511475,learn,56399.99985694885,Wed Apr 02 2025 12:15:48 GMT-0500 (Central Daylight Time),1169931.7999999523,A,city,O,y,155,1,1167.6999999284744,1168764.1000000238,7104,WL,B,2.0
3,3.9820001125335693,learn,56017.99988746643,Wed Apr 02 2025 12:15:48 GMT-0500 (Central Daylight Time),1170314.5,A,cityenter,O,enter,368,1,1550.3999999761581,1168764.1000000238,7104,WL,B,2.0
3,4.400000095367432,learn,55599.99990463257,Wed Apr 02 2025 12:15:48 GMT-0500 (Central Daylight Time),1170732.5,A,c,O,c,412,1,417.7999999523163,1170314.7000000477,7104,WL,B,3.0
3,4.499000072479248,learn,55500.99992752075,Wed Apr 02 2025 12:15:48 GMT-0500 (Central Daylight Time),1170830.7000000477,A,cl,O,l,78,1,516.0,1170314.7000000477,7104,WL,B,3.0
3,4.713000059127808,learn,55286.99994087219,Wed Apr 02 2025 12:15:48 GMT-0500 (Central Daylight Time),1171045.0,A,clo,O,o,204,1,730.2999999523163,1170314.7000000477,7104,WL,B,3.0
3,4.913000106811523,learn,55086.99989318848,Wed Apr 02 2025 12:15:48 GMT-0500 (Central Daylight Time),1171245.3999999762,A,cloc,O,c,192,1,930.6999999284744,1170314.7000000477,7104,WL,B,3.0
3,5.046999931335449,learn,54953.00006866455,Wed Apr 02 2025 12:15:48 GMT-0500 (Central Daylight Time),1171378.7000000477,A,clock,O,k,127,1,1064.0,1170314.7000000477,7104,WL,B,3.0
3,5.5290000438690186,learn,54470.99995613098,Wed Apr 02 2025 12:15:48 GMT-0500 (Central Daylight Time),1171861.0,A,clockenter,O,enter,473,1,1546.2999999523163,1170314.7000000477,7104,WL,B,3.0
3,6.91700005531311,learn,53082.99994468689,Wed Apr 02 2025 12:15:48 GMT-0500 (Central Daylight Time),1173249.0,A,s,O,s,1376,1,1387.8999999761581,1171861.1000000238,7104,WL,B,4.0
3,7.148999929428101,learn,52851.0000705719,Wed Apr 02 2025 12:15:48 GMT-0500 (Central Daylight Time),1173481.2000000477,A,st,O,t,227,1,1620.1000000238419,1171861.1000000238,7104,WL,B,4.0
3,7.3450000286102295,learn,52654.99997138977,Wed Apr 02 2025 12:15:48 GMT-0500 (Central Daylight Time),1173677.0,A,sta,O,a,185,1,1815.8999999761581,1171861.1000000238,7104,WL,B,4.0
3,7.513000011444092,learn,52486.99998855591,Wed Apr 02 2025 12:15:48 GMT-0500 (Central Daylight Time),1173844.6000000238,A,star,O,r,159,1,1983.5,1171861.1000000238,7104,WL,B,4.0
3,7.828000068664551,learn,52171.99993133545,Wed Apr 02 2025 12:15:48 GMT-0500 (Central Daylight Time),1174160.1000000238,A,starenter,O,enter,296,1,2299.0,1171861.1000000238,7104,WL,B,4.0
3,9.976999998092651,learn,50023.00000190735,Wed Apr 02 2025 12:15:48 GMT-0500 (Central Daylight Time),1176309.2999999523,A,a,O,a,2140,1,2149.0999999046326,1174160.2000000477,7104,WL,B,5.0
3,10.210999965667725,learn,49789.000034332275,Wed Apr 02 2025 12:15:48 GMT-0500 (Central Daylight Time),1176542.7999999523,A,ar,O,r,223,1,2382.5999999046326,1174160.2000000477,7104,WL,B,5.0
3,10.344000101089478,learn,49655.99989891052,Wed Apr 02 2025 12:15:48 GMT-0500 (Central Daylight Time),1176676.0,A,arm,O,m,126,1,2515.7999999523163,1174160.2000000477,7104,WL,B,5.0
3,10.760999917984009,learn,49239.00008201599,Wed Apr 02 2025 12:15:48 GMT-0500 (Central Daylight Time),1177092.6000000238,A,armenter,O,enter,408,1,2932.399999976158,1174160.2000000477,7104,WL,B,5.0
3,11.226999998092651,learn,48773.00000190735,Wed Apr 02 2025 12:15:48 GMT-0500 (Central Daylight Time),1177559.1000000238,A,w,O,w,448,1,466.3000000715256,1177092.7999999523,7104,WL,B,6.0
3,11.378000020980835,learn,48621.999979019165,Wed Apr 02 2025 12:15:48 GMT-0500 (Central Daylight Time),1177710.2999999523,A,wi,O,i,133,1,617.5,1177092.7999999523,7104,WL,B,6.0
3,11.559999942779541,learn,48440.00005722046,Wed Apr 02 2025 12:15:48 GMT-0500 (Central Daylight Time),1177892.2999999523,A,wif,O,f,166,1,799.5,1177092.7999999523,7104,WL,B,6.0
3,11.677000045776367,learn,48322.99995422363,Wed Apr 02 2025 12:15:48 GMT-0500 (Central Daylight Time),1178009.0,A,wife,O,e,104,1,916.2000000476837,1177092.7999999523,7104,WL,B,6.0
3,11.842999935150146,learn,48157.00006484985,Wed Apr 02 2025 12:15:48 GMT-0500 (Central Daylight Time),1178175.5,A,wifeenter,O,enter,156,1,1082.7000000476837,1177092.7999999523,7104,WL,B,6.0
3,12.610000133514404,learn,47389.999866485596,Wed Apr 02 2025 12:15:48 GMT-0500 (Central Daylight Time),1178942.1000000238,A,p,O,p,749,1,766.3999999761581,1178175.7000000477,7104,WL,B,7.0
3,12.7260000705719,learn,47273.9999294281,Wed Apr 02 2025 12:15:48 GMT-0500 (Central Daylight Time),1179058.5,A,pu,O,u,111,1,882.7999999523163,1178175.7000000477,7104,WL,B,7.0
3,13.026000022888184,learn,46973.99997711182,Wed Apr 02 2025 12:15:48 GMT-0500 (Central Daylight Time),1179358.3999999762,A,pup,O,p,290,1,1182.6999999284744,1178175.7000000477,7104,WL,B,7.0
3,13.276999950408936,learn,46723.000049591064,Wed Apr 02 2025 12:15:48 GMT-0500 (Central Daylight Time),1179609.2999999523,A,pupi,O,i,238,1,1433.5999999046326,1178175.7000000477,7104,WL,B,7.0
3,13.575999975204468,learn,46424.00002479553,Wed Apr 02 2025 12:15:48 GMT-0500 (Central Daylight Time),1179908.1000000238,A,pupil,O,l,291,1,1732.3999999761581,1178175.7000000477,7104,WL,B,7.0
3,13.89300012588501,learn,46106.99987411499,Wed Apr 02 2025 12:15:48 GMT-0500 (Central Daylight Time),1180224.8999999762,A,pupilenter,O,enter,312,1,2049.1999999284744,1178175.7000000477,7104,WL,B,7.0
3,18.078999996185303,learn,41921.0000038147,Wed Apr 02 2025 12:15:48 GMT-0500 (Central Daylight Time),1184411.1000000238,A,w,O,w,4172,1,4186.0,1180225.1000000238,7104,WL,B,8.0
3,18.20900011062622,learn,41790.99988937378,Wed Apr 02 2025 12:15:48 GMT-0500 (Central Daylight Time),1184541.2000000477,A,wi,O,i,112,1,4316.100000023842,1180225.1000000238,7104,WL,B,8.0
3,18.34500002861023,learn,41654.99997138977,Wed Apr 02 2025 12:15:48 GMT-0500 (Central Daylight Time),1184677.1000000238,A,win,O,n,127,1,4452.0,1180225.1000000238,7104,WL,B,8.0
3,18.509999990463257,learn,41490.00000953674,Wed Apr 02 2025 12:15:48 GMT-0500 (Central Daylight Time),1184841.7999999523,A,wind,O,d,160,1,4616.699999928474,1180225.1000000238,7104,WL,B,8.0
3,18.794000148773193,learn,41205.99985122681,Wed Apr 02 2025 12:15:48 GMT-0500 (Central Daylight Time),1185126.5,A,windo,O,o,275,1,4901.399999976158,1180225.1000000238,7104,WL,B,8.0
3,19.05900001525879,learn,40940.99998474121,Wed Apr 02 2025 12:15:48 GMT-0500 (Central Daylight Time),1185391.2999999523,A,window,O,w,254,1,5166.199999928474,1180225.1000000238,7104,WL,B,8.0
3,19.444000005722046,learn,40555.999994277954,Wed Apr 02 2025 12:15:48 GMT-0500 (Central Daylight Time),1185776.5,A,windowenter,O,enter,366,1,5551.399999976158,1180225.1000000238,7104,WL,B,8.0
3,20.759000062942505,learn,39240.999937057495,Wed Apr 02 2025 12:15:48 GMT-0500 (Central Daylight Time),1187091.1000000238,A,g,O,g,1309,1,1314.3999999761581,1185776.7000000477,7104,WL,B,9.0
3,21.026000022888184,learn,38973.99997711182,Wed Apr 02 2025 12:15:48 GMT-0500 (Central Daylight Time),1187357.6000000238,A,gr,O,r,251,1,1580.8999999761581,1185776.7000000477,7104,WL,B,9.0
3,21.20900011062622,learn,38790.99988937378,Wed Apr 02 2025 12:15:48 GMT-0500 (Central Daylight Time),1187540.7000000477,A,gra,O,a,171,1,1764.0,1185776.7000000477,7104,WL,B,9.0
3,21.54200005531311,learn,38457.99994468689,Wed Apr 02 2025 12:15:48 GMT-0500 (Central Daylight Time),1187873.6000000238,A,gras,O,s,318,1,2096.899999976158,1185776.7000000477,7104,WL,B,9.0
3,21.674999952316284,learn,38325.000047683716,Wed Apr 02 2025 12:15:48 GMT-0500 (Central Daylight Time),1188007.0,A,grass,O,s,124,1,2230.2999999523163,1185776.7000000477,7104,WL,B,9.0
3,21.973999977111816,learn,38026.00002288818,Wed Apr 02 2025 12:15:48 GMT-0500 (Central Daylight Time),1188306.3999999762,A,grassenter,O,enter,286,1,2529.6999999284744,1185776.7000000477,7104,WL,B,9.0
3,24.424999952316284,learn,35575.000047683716,Wed Apr 02 2025 12:15:48 GMT-0500 (Central Daylight Time),1190757.6000000238,A,s,O,s,2433,1,2451.0,1188306.6000000238,7104,WL,B,10.0
3,24.707000017166138,learn,35292.99998283386,Wed Apr 02 2025 12:15:48 GMT-0500 (Central Daylight Time),1191039.2999999523,A,st,O,t,261,1,2732.6999999284744,1188306.6000000238,7104,WL,B,10.0
3,25.074000120162964,learn,34925.999879837036,Wed Apr 02 2025 12:15:48 GMT-0500 (Central Daylight Time),1191406.0,A,str,O,r,350,1,3099.399999976158,1188306.6000000238,7104,WL,B,10.0
3,25.34000015258789,learn,34659.99984741211,Wed Apr 02 2025 12:15:48 GMT-0500 (Central Daylight Time),1191672.5,A,stre,O,e,256,1,3365.899999976158,1188306.6000000238,7104,WL,B,10.0
3,25.457000017166138,learn,34542.99998283386,Wed Apr 02 2025 12:15:48 GMT-0500 (Central Daylight Time),1191789.6000000238,A,stree,O,e,108,1,3483.0,1188306.6000000238,7104,WL,B,10.0
3,25.740999937057495,learn,34259.000062942505,Wed Apr 02 2025 12:15:48 GMT-0500 (Central Daylight Time),1192073.1000000238,A,street,O,t,280,1,3766.5,1188306.6000000238,7104,WL,B,10.0
3,26.17300009727478,learn,33826.99990272522,Wed Apr 02 2025 12:15:48 GMT-0500 (Central Daylight Time),1192505.1000000238,A,streetenter,O,enter,428,1,4198.5,1188306.6000000238,7104,WL,B,10.0
3,27.873000144958496,learn,32126.999855041504,Wed Apr 02 2025 12:15:48 GMT-0500 (Central Daylight Time),1194205.2000000477,A,w,O,w,1691,1,1700.0,1192505.2000000477,7104,WL,B,11.0
3,28.006999969482422,learn,31993.000030517578,Wed Apr 02 2025 12:15:48 GMT-0500 (Central Daylight Time),1194338.7000000477,A,wi,O,i,127,1,1833.5,1192505.2000000477,7104,WL,B,11.0
3,28.157000064849854,learn,31842.999935150146,Wed Apr 02 2025 12:15:48 GMT-0500 (Central Daylight Time),1194488.8999999762,A,wif,O,f,138,1,1983.6999999284744,1192505.2000000477,7104,WL,B,11.0
3,28.305999994277954,learn,31694.000005722046,Wed Apr 02 2025 12:15:48 GMT-0500 (Central Daylight Time),1194638.3999999762,A,wife,O,e,132,1,2133.1999999284744,1192505.2000000477,7104,WL,B,11.0
3,28.42199993133545,learn,31578.00006866455,Wed Apr 02 2025 12:15:48 GMT-0500 (Central Daylight Time),1194754.5,A,wifeenter,O,enter,109,1,2249.2999999523163,1192505.2000000477,7104,WL,B,11.0
3,28.972000122070312,learn,31027.999877929688,Wed Apr 02 2025 12:15:48 GMT-0500 (Central Daylight Time),1195304.6000000238,A,c,O,c,539,1,549.7000000476837,1194754.8999999762,7104,WL,B,12.0
3,29.23799991607666,learn,30762.00008392334,Wed Apr 02 2025 12:15:48 GMT-0500 (Central Daylight Time),1195570.1000000238,A,ca,O,a,261,1,815.2000000476837,1194754.8999999762,7104,WL,B,12.0
3,29.706000089645386,learn,30293.999910354614,Wed Apr 02 2025 12:15:48 GMT-0500 (Central Daylight Time),1196037.7999999523,A,c,O,backspace,451,1,1282.8999999761581,1194754.8999999762,7104,WL,B,12.0
3,29.888999938964844,learn,30111.000061035156,Wed Apr 02 2025 12:15:48 GMT-0500 (Central Daylight Time),1196221.0,A,,O,backspace,168,1,1466.1000000238419,1194754.8999999762,7104,WL,B,12.0
3,33.30400013923645,learn,26695.99986076355,Wed Apr 02 2025 12:15:48 GMT-0500 (Central Daylight Time),1199637.0,A,s,O,s,3401,1,4882.100000023842,1194754.8999999762,7104,WL,B,12.0
3,33.55400013923645,learn,26445.99986076355,Wed Apr 02 2025 12:15:48 GMT-0500 (Central Daylight Time),1199886.2000000477,A,st,O,t,232,1,5131.300000071526,1194754.8999999762,7104,WL,B,12.0
3,33.723999977111816,learn,26276.000022888184,Wed Apr 02 2025 12:15:48 GMT-0500 (Central Daylight Time),1200056.7999999523,A,sta,O,a,150,1,5301.899999976158,1194754.8999999762,7104,WL,B,12.0
3,33.88800001144409,learn,26111.99998855591,Wed Apr 02 2025 12:15:48 GMT-0500 (Central Daylight Time),1200220.2000000477,A,star,O,r,149,1,5465.300000071526,1194754.8999999762,7104,WL,B,12.0
3,34.1710000038147,learn,25828.999996185303,Wed Apr 02 2025 12:15:48 GMT-0500 (Central Daylight Time),1200503.2999999523,A,starenter,O,enter,273,1,5748.399999976158,1194754.8999999762,7104,WL,B,12.0
3,37.585999965667725,learn,22414.000034332275,Wed Apr 02 2025 12:15:48 GMT-0500 (Central Daylight Time),1203918.1000000238,A,p,O,p,3398,1,3414.5,1200503.6000000238,7104,WL,B,13.0
3,37.88599991798401,learn,22114.00008201599,Wed Apr 02 2025 12:15:48 GMT-0500 (Central Daylight Time),1204218.2999999523,A,pu,O,u,286,1,3714.6999999284744,1200503.6000000238,7104,WL,B,13.0
3,38.151999950408936,learn,21848.000049591064,Wed Apr 02 2025 12:15:48 GMT-0500 (Central Daylight Time),1204484.8999999762,A,pup,O,p,260,1,3981.2999999523163,1200503.6000000238,7104,WL,B,13.0
3,38.41900014877319,learn,21580.999851226807,Wed Apr 02 2025 12:15:48 GMT-0500 (Central Daylight Time),1204751.7999999523,A,pupi,O,i,256,1,4248.199999928474,1200503.6000000238,7104,WL,B,13.0
3,38.68600010871887,learn,21313.999891281128,Wed Apr 02 2025 12:15:48 GMT-0500 (Central Daylight Time),1205018.2999999523,A,pupil,O,l,254,1,4514.699999928474,1200503.6000000238,7104,WL,B,13.0
3,39.05200004577637,learn,20947.999954223633,Wed Apr 02 2025 12:15:48 GMT-0500 (Central Daylight Time),1205384.3999999762,A,pupilenter,O,enter,347,1,4880.799999952316,1200503.6000000238,7104,WL,B,13.0
3,43.25200009346008,learn,16747.999906539917,Wed Apr 02 2025 12:15:48 GMT-0500 (Central Daylight Time),1209584.7999999523,A,f,O,f,4179,1,4200.099999904633,1205384.7000000477,7104,WL,B,14.0
3,43.36800003051758,learn,16631.999969482422,Wed Apr 02 2025 12:15:48 GMT-0500 (Central Daylight Time),1209700.2000000477,A,fi,O,i,108,1,4315.5,1205384.7000000477,7104,WL,B,14.0
3,43.50099992752075,learn,16499.000072479248,Wed Apr 02 2025 12:15:48 GMT-0500 (Central Daylight Time),1209833.2000000477,A,fir,O,r,129,1,4448.5,1205384.7000000477,7104,WL,B,14.0
3,43.68400001525879,learn,16315.999984741211,Wed Apr 02 2025 12:15:48 GMT-0500 (Central Daylight Time),1210016.7999999523,A,fire,O,e,163,1,4632.099999904633,1205384.7000000477,7104,WL,B,14.0
3,43.83299994468689,learn,16167.00005531311,Wed Apr 02 2025 12:15:48 GMT-0500 (Central Daylight Time),1210165.7999999523,A,fireenter,O,enter,132,1,4781.099999904633,1205384.7000000477,7104,WL,B,14.0
3,60.01300001144409,learn,-13.000011444091797,Wed Apr 02 2025 12:15:48 GMT-0500 (Central Daylight Time),1226346.0,A,None,O,None,16177,1,16180.0,1210166.0,7104,WL,B,15.0
4,0.01399993896484375,learn,59986.000061035156,Wed Apr 02 2025 12:15:48 GMT-0500 (Central Daylight Time),1295837.5,A,v,O,v,5,1,14.0,1295823.5,7104,WL,B,1.0
4,1.8519999980926514,learn,58148.00000190735,Wed Apr 02 2025 12:15:48 GMT-0500 (Central Daylight Time),1297674.7000000477,A,,O,backspace,1820,1,1851.2000000476837,1295823.5,7104,WL,B,1.0
4,2.367000102996826,learn,57632.999897003174,Wed Apr 02 2025 12:15:48 GMT-0500 (Central Daylight Time),1298190.3999999762,A,c,O,c,496,1,2366.899999976158,1295823.5,7104,WL,B,1.0
4,2.702000141143799,learn,57297.9998588562,Wed Apr 02 2025 12:15:48 GMT-0500 (Central Daylight Time),1298524.8999999762,A,cl,O,l,327,1,2701.399999976158,1295823.5,7104,WL,B,1.0
4,2.884000062942505,learn,57115.999937057495,Wed Apr 02 2025 12:15:48 GMT-0500 (Central Daylight Time),1298707.1000000238,A,clo,O,o,175,1,2883.600000023842,1295823.5,7104,WL,B,1.0
4,3.0820000171661377,learn,56917.99998283386,Wed Apr 02 2025 12:15:48 GMT-0500 (Central Daylight Time),1298905.7000000477,A,cloc,O,c,191,1,3082.2000000476837,1295823.5,7104,WL,B,1.0
4,3.3329999446868896,learn,56667.00005531311,Wed Apr 02 2025 12:15:48 GMT-0500 (Central Daylight Time),1299156.5,A,clock,O,k,229,1,3333.0,1295823.5,7104,WL,B,1.0
4,3.700000047683716,learn,56299.999952316284,Wed Apr 02 2025 12:15:48 GMT-0500 (Central Daylight Time),1299522.8999999762,A,clockenter,O,enter,361,1,3699.399999976158,1295823.5,7104,WL,B,1.0
4,5.651000022888184,learn,54348.99997711182,Wed Apr 02 2025 12:15:48 GMT-0500 (Central Daylight Time),1301474.0,A,d,O,d,1930,1,1950.8999999761581,1299523.1000000238,7104,WL,B,2.0
4,5.848999977111816,learn,54151.00002288818,Wed Apr 02 2025 12:15:48 GMT-0500 (Central Daylight Time),1301671.7000000477,A,do,O,o,179,1,2148.600000023842,1299523.1000000238,7104,WL,B,2.0
4,5.983000040054321,learn,54016.99995994568,Wed Apr 02 2025 12:15:48 GMT-0500 (Central Daylight Time),1301805.7999999523,A,doo,O,o,124,1,2282.6999999284744,1299523.1000000238,7104,WL,B,2.0
4,6.2829999923706055,learn,53717.000007629395,Wed Apr 02 2025 12:15:48 GMT-0500 (Central Daylight Time),1302105.7999999523,A,door,O,r,286,1,2582.6999999284744,1299523.1000000238,7104,WL,B,2.0
4,6.546999931335449,learn,53453.00006866455,Wed Apr 02 2025 12:15:48 GMT-0500 (Central Daylight Time),1302370.5,A,doorenter,O,enter,250,1,2847.399999976158,1299523.1000000238,7104,WL,B,2.0
4,6.997999906539917,learn,53002.00009346008,Wed Apr 02 2025 12:15:48 GMT-0500 (Central Daylight Time),1302821.5,A,a,O,a,433,1,450.7000000476837,1302370.7999999523,7104,WL,B,3.0
4,7.180999994277954,learn,52819.000005722046,Wed Apr 02 2025 12:15:48 GMT-0500 (Central Daylight Time),1303004.2000000477,A,ar,O,r,165,1,633.4000000953674,1302370.7999999523,7104,WL,B,3.0
4,7.299999952316284,learn,52700.000047683716,Wed Apr 02 2025 12:15:48 GMT-0500 (Central Daylight Time),1303123.0,A,arm,O,m,111,1,752.2000000476837,1302370.7999999523,7104,WL,B,3.0
4,7.716000080108643,learn,52283.99991989136,Wed Apr 02 2025 12:15:48 GMT-0500 (Central Daylight Time),1303538.6000000238,A,armenter,O,enter,402,1,1167.8000000715256,1302370.7999999523,7104,WL,B,3.0
4,10.197999954223633,learn,49802.00004577637,Wed Apr 02 2025 12:15:48 GMT-0500 (Central Daylight Time),1306020.7999999523,A,w,O,w,2465,1,2481.899999976158,1303538.8999999762,7104,WL,B,4.0
4,10.299999952316284,learn,49700.000047683716,Wed Apr 02 2025 12:15:48 GMT-0500 (Central Daylight Time),1306122.7999999523,A,wi,O,i,96,1,2583.899999976158,1303538.8999999762,7104,WL,B,4.0
4,10.430999994277954,learn,49569.000005722046,Wed Apr 02 2025 12:15:48 GMT-0500 (Central Daylight Time),1306253.7999999523,A,win,O,n,113,1,2714.899999976158,1303538.8999999762,7104,WL,B,4.0
4,10.565000057220459,learn,49434.99994277954,Wed Apr 02 2025 12:15:48 GMT-0500 (Central Daylight Time),1306387.7999999523,A,wind,O,d,128,1,2848.899999976158,1303538.8999999762,7104,WL,B,4.0
4,10.763999938964844,learn,49236.000061035156,Wed Apr 02 2025 12:15:48 GMT-0500 (Central Daylight Time),1306587.2000000477,A,windo,O,o,184,1,3048.3000000715256,1303538.8999999762,7104,WL,B,4.0
4,10.947999954223633,learn,49052.00004577637,Wed Apr 02 2025 12:15:48 GMT-0500 (Central Daylight Time),1306771.2000000477,A,window,O,w,163,1,3232.3000000715256,1303538.8999999762,7104,WL,B,4.0
4,11.19700002670288,learn,48802.99997329712,Wed Apr 02 2025 12:15:48 GMT-0500 (Central Daylight Time),1307020.2999999523,A,windowenter,O,enter,232,1,3481.399999976158,1303538.8999999762,7104,WL,B,4.0
4,11.532000064849854,learn,48467.99993515015,Wed Apr 02 2025 12:15:48 GMT-0500 (Central Daylight Time),1307354.8999999762,A,s,O,s,329,1,334.1999999284744,1307020.7000000477,7104,WL,B,5.0
4,11.746000051498413,learn,48253.99994850159,Wed Apr 02 2025 12:15:48 GMT-0500 (Central Daylight Time),1307569.6000000238,A,st,O,t,201,1,548.8999999761581,1307020.7000000477,7104,WL,B,5.0
4,12.02999997138977,learn,47970.00002861023,Wed Apr 02 2025 12:15:48 GMT-0500 (Central Daylight Time),1307852.7999999523,A,str,O,r,275,1,832.0999999046326,1307020.7000000477,7104,WL,B,5.0
4,12.348000049591064,learn,47651.999950408936,Wed Apr 02 2025 12:15:48 GMT-0500 (Central Daylight Time),1308171.2000000477,A,stre,O,e,296,1,1150.5,1307020.7000000477,7104,WL,B,5.0
4,12.462000131607056,learn,47537.999868392944,Wed Apr 02 2025 12:15:48 GMT-0500 (Central Daylight Time),1308285.5,A,stree,O,e,96,1,1264.7999999523163,1307020.7000000477,7104,WL,B,5.0
4,12.71399998664856,learn,47286.00001335144,Wed Apr 02 2025 12:15:48 GMT-0500 (Central Daylight Time),1308537.2000000477,A,street,O,t,236,1,1516.5,1307020.7000000477,7104,WL,B,5.0
4,13.878000020980835,learn,46121.999979019165,Wed Apr 02 2025 12:15:48 GMT-0500 (Central Daylight Time),1309701.3999999762,A,streetenter,O,enter,1145,1,2680.6999999284744,1307020.7000000477,7104,WL,B,5.0
4,14.546000003814697,learn,45453.9999961853,Wed Apr 02 2025 12:15:48 GMT-0500 (Central Daylight Time),1310369.5,A,g,O,g,654,1,667.7999999523163,1309701.7000000477,7104,WL,B,6.0
4,14.795000076293945,learn,45204.999923706055,Wed Apr 02 2025 12:15:48 GMT-0500 (Central Daylight Time),1310618.6000000238,A,gr,O,r,234,1,916.8999999761581,1309701.7000000477,7104,WL,B,6.0
4,14.980000019073486,learn,45019.999980926514,Wed Apr 02 2025 12:15:48 GMT-0500 (Central Daylight Time),1310803.1000000238,A,gra,O,a,179,1,1101.3999999761581,1309701.7000000477,7104,WL,B,6.0
4,15.296000003814697,learn,44703.9999961853,Wed Apr 02 2025 12:15:48 GMT-0500 (Central Daylight Time),1311119.6000000238,A,gras,O,s,305,1,1417.8999999761581,1309701.7000000477,7104,WL,B,6.0
4,15.411999940872192,learn,44588.00005912781,Wed Apr 02 2025 12:15:48 GMT-0500 (Central Daylight Time),1311235.3999999762,A,grass,O,s,99,1,1533.6999999284744,1309701.7000000477,7104,WL,B,6.0
4,15.645999908447266,learn,44354.000091552734,Wed Apr 02 2025 12:15:48 GMT-0500 (Central Daylight Time),1311469.0,A,grassenter,O,enter,223,1,1767.2999999523163,1309701.7000000477,7104,WL,B,6.0
4,16.44600009918213,learn,43553.99990081787,Wed Apr 02 2025 12:15:48 GMT-0500 (Central Daylight Time),1312269.0,A,c,O,c,779,1,799.6000000238419,1311469.3999999762,7104,WL,B,7.0
4,16.663000106811523,learn,43336.99989318848,Wed Apr 02 2025 12:15:48 GMT-0500 (Central Daylight Time),1312485.7999999523,A,ca,O,a,199,1,1016.3999999761581,1311469.3999999762,7104,WL,B,7.0
4,16.878999948501587,learn,43121.00005149841,Wed Apr 02 2025 12:15:48 GMT-0500 (Central Daylight Time),1312702.1000000238,A,cab,O,b,197,1,1232.7000000476837,1311469.3999999762,7104,WL,B,7.0
4,17.01200008392334,learn,42987.99991607666,Wed Apr 02 2025 12:15:48 GMT-0500 (Central Daylight Time),1312834.6000000238,A,cabi,O,i,128,1,1365.2000000476837,1311469.3999999762,7104,WL,B,7.0
4,17.130000114440918,learn,42869.99988555908,Wed Apr 02 2025 12:15:48 GMT-0500 (Central Daylight Time),1312953.2999999523,A,cabin,O,n,97,1,1483.8999999761581,1311469.3999999762,7104,WL,B,7.0
4,17.460999965667725,learn,42539.000034332275,Wed Apr 02 2025 12:15:48 GMT-0500 (Central Daylight Time),1313284.6000000238,A,cabinenter,O,enter,311,1,1815.2000000476837,1311469.3999999762,7104,WL,B,7.0
4,17.796000003814697,learn,42203.9999961853,Wed Apr 02 2025 12:15:48 GMT-0500 (Central Daylight Time),1313619.2999999523,A,w,O,w,329,1,334.39999997615814,1313284.8999999762,7104,WL,B,8.0
4,17.980000019073486,learn,42019.999980926514,Wed Apr 02 2025 12:15:48 GMT-0500 (Central Daylight Time),1313802.7000000477,A,wi,O,i,176,1,517.8000000715256,1313284.8999999762,7104,WL,B,8.0
4,18.16100001335144,learn,41838.99998664856,Wed Apr 02 2025 12:15:48 GMT-0500 (Central Daylight Time),1313984.6000000238,A,wif,O,f,162,1,699.7000000476837,1313284.8999999762,7104,WL,B,8.0
4,18.26099991798401,learn,41739.00008201599,Wed Apr 02 2025 12:15:48 GMT-0500 (Central Daylight Time),1314084.0,A,wife,O,e,92,1,799.1000000238419,1313284.8999999762,7104,WL,B,8.0
4,18.828999996185303,learn,41171.0000038147,Wed Apr 02 2025 12:15:48 GMT-0500 (Central Daylight Time),1314651.8999999762,A,wifeenter,O,enter,550,1,1367.0,1313284.8999999762,7104,WL,B,8.0
4,20.311000108718872,learn,39688.99989128113,Wed Apr 02 2025 12:15:48 GMT-0500 (Central Daylight Time),1316133.7000000477,A,s,O,s,1463,1,1481.6000000238419,1314652.1000000238,7104,WL,B,9.0
4,20.543999910354614,learn,39456.000089645386,Wed Apr 02 2025 12:15:48 GMT-0500 (Central Daylight Time),1316366.6000000238,A,st,O,t,213,1,1714.5,1314652.1000000238,7104,WL,B,9.0
4,20.710000038146973,learn,39289.99996185303,Wed Apr 02 2025 12:15:48 GMT-0500 (Central Daylight Time),1316533.6000000238,A,sta,O,a,157,1,1881.5,1314652.1000000238,7104,WL,B,9.0
4,20.860000133514404,learn,39139.999866485596,Wed Apr 02 2025 12:15:48 GMT-0500 (Central Daylight Time),1316683.0,A,star,O,r,133,1,2030.8999999761581,1314652.1000000238,7104,WL,B,9.0
4,21.177000045776367,learn,38822.99995422363,Wed Apr 02 2025 12:15:48 GMT-0500 (Central Daylight Time),1317000.2000000477,A,starenter,O,enter,297,1,2348.100000023842,1314652.1000000238,7104,WL,B,9.0
4,23.361000061035156,learn,36638.999938964844,Wed Apr 02 2025 12:15:48 GMT-0500 (Central Daylight Time),1319184.7000000477,A,l,O,l,2179,1,2184.2000000476837,1317000.5,7104,WL,B,10.0
4,23.493000030517578,learn,36506.99996948242,Wed Apr 02 2025 12:15:48 GMT-0500 (Central Daylight Time),1319316.2999999523,A,la,O,a,116,1,2315.7999999523163,1317000.5,7104,WL,B,10.0
4,23.64300012588501,learn,36356.99987411499,Wed Apr 02 2025 12:15:48 GMT-0500 (Central Daylight Time),1319466.8999999762,A,lak,O,k,134,1,2466.399999976158,1317000.5,7104,WL,B,10.0
4,23.776999950408936,learn,36223.000049591064,Wed Apr 02 2025 12:15:48 GMT-0500 (Central Daylight Time),1319600.7000000477,A,lake,O,e,128,1,2600.2000000476837,1317000.5,7104,WL,B,10.0
4,23.992000102996826,learn,36007.999897003174,Wed Apr 02 2025 12:15:48 GMT-0500 (Central Daylight Time),1319815.8999999762,A,lakeenter,O,enter,196,1,2815.399999976158,1317000.5,7104,WL,B,10.0
4,24.360000133514404,learn,35639.999866485596,Wed Apr 02 2025 12:15:48 GMT-0500 (Central Daylight Time),1320183.2000000477,A,p,O,p,347,1,367.0,1319816.2000000477,7104,WL,B,11.0
4,24.64300012588501,learn,35356.99987411499,Wed Apr 02 2025 12:15:48 GMT-0500 (Central Daylight Time),1320466.6000000238,A,pi,O,i,268,1,650.3999999761581,1319816.2000000477,7104,WL,B,11.0
4,24.993000030517578,learn,35006.99996948242,Wed Apr 02 2025 12:15:48 GMT-0500 (Central Daylight Time),1320816.3999999762,A,pip,O,p,345,1,1000.1999999284744,1319816.2000000477,7104,WL,B,11.0
4,25.29200005531311,learn,34707.99994468689,Wed Apr 02 2025 12:15:48 GMT-0500 (Central Daylight Time),1321115.2999999523,A,pipe,O,e,283,1,1299.0999999046326,1319816.2000000477,7104,WL,B,11.0
4,25.52500009536743,learn,34474.99990463257,Wed Apr 02 2025 12:15:48 GMT-0500 (Central Daylight Time),1321348.5,A,pipeenter,O,enter,225,1,1532.2999999523163,1319816.2000000477,7104,WL,B,11.0
4,26.325999975204468,learn,33674.00002479553,Wed Apr 02 2025 12:15:48 GMT-0500 (Central Daylight Time),1322149.3999999762,A,p,O,p,784,1,800.6999999284744,1321348.7000000477,7104,WL,B,12.0
4,26.691999912261963,learn,33308.00008773804,Wed Apr 02 2025 12:15:48 GMT-0500 (Central Daylight Time),1322515.7999999523,A,pu,O,u,361,1,1167.0999999046326,1321348.7000000477,7104,WL,B,12.0
4,26.990000009536743,learn,33009.99999046326,Wed Apr 02 2025 12:15:48 GMT-0500 (Central Daylight Time),1322814.0,A,pup,O,p,277,1,1465.2999999523163,1321348.7000000477,7104,WL,B,12.0
4,27.240999937057495,learn,32759.000062942505,Wed Apr 02 2025 12:15:48 GMT-0500 (Central Daylight Time),1323065.1000000238,A,pupi,O,i,229,1,1716.3999999761581,1321348.7000000477,7104,WL,B,12.0
4,27.443000078201294,learn,32556.999921798706,Wed Apr 02 2025 12:15:48 GMT-0500 (Central Daylight Time),1323266.2999999523,A,pupil,O,l,197,1,1917.5999999046326,1321348.7000000477,7104,WL,B,12.0
4,27.875,learn,32125.0,Wed Apr 02 2025 12:15:48 GMT-0500 (Central Daylight Time),1323698.2999999523,A,pupilenter,O,enter,417,1,2349.5999999046326,1321348.7000000477,7104,WL,B,12.0
4,34.43900012969971,learn,25560.999870300293,Wed Apr 02 2025 12:15:48 GMT-0500 (Central Daylight Time),1330262.6000000238,A,s,O,s,6555,1,6564.0,1323698.6000000238,7104,WL,B,13.0
4,34.60599994659424,learn,25394.00005340576,Wed Apr 02 2025 12:15:48 GMT-0500 (Central Daylight Time),1330429.5,A,sk,O,k,158,1,6730.899999976158,1323698.6000000238,7104,WL,B,13.0
4,34.770999908447266,learn,25229.000091552734,Wed Apr 02 2025 12:15:48 GMT-0500 (Central Daylight Time),1330595.0,A,ski,O,i,158,1,6896.399999976158,1323698.6000000238,7104,WL,B,13.0
4,34.94000005722046,learn,25059.99994277954,Wed Apr 02 2025 12:15:48 GMT-0500 (Central Daylight Time),1330763.6000000238,A,skin,O,n,163,1,7065.0,1323698.6000000238,7104,WL,B,13.0
4,35.22099995613098,learn,24779.00004386902,Wed Apr 02 2025 12:15:48 GMT-0500 (Central Daylight Time),1331045.0,A,skinenter,O,enter,261,1,7346.399999976158,1323698.6000000238,7104,WL,B,13.0
4,38.65499997138977,learn,21345.00002861023,Wed Apr 02 2025 12:15:48 GMT-0500 (Central Daylight Time),1334478.6000000238,A,w,O,w,3414,1,3433.399999976158,1331045.2000000477,7104,WL,B,14.0
4,38.78800010681152,learn,21211.999893188477,Wed Apr 02 2025 12:15:48 GMT-0500 (Central Daylight Time),1334611.2000000477,A,wi,O,i,116,1,3566.0,1331045.2000000477,7104,WL,B,14.0
4,38.937999963760376,learn,21062.000036239624,Wed Apr 02 2025 12:15:48 GMT-0500 (Central Daylight Time),1334761.7000000477,A,wif,O,f,137,1,3716.5,1331045.2000000477,7104,WL,B,14.0
4,39.187000036239624,learn,20812.999963760376,Wed Apr 02 2025 12:15:48 GMT-0500 (Central Daylight Time),1335010.6000000238,A,wifenter,O,enter,232,1,3965.399999976158,1331045.2000000477,7104,WL,B,14.0
4,44.75399994850159,learn,15246.000051498413,Wed Apr 02 2025 12:15:48 GMT-0500 (Central Daylight Time),1340577.2999999523,A,s,O,s,5555,1,5566.5,1335010.7999999523,7104,WL,B,15.0
4,45.01900005340576,learn,14980.999946594238,Wed Apr 02 2025 12:15:48 GMT-0500 (Central Daylight Time),1340842.8999999762,A,st,O,t,250,1,5832.100000023842,1335010.7999999523,7104,WL,B,15.0
4,45.21900010108948,learn,14780.999898910522,Wed Apr 02 2025 12:15:48 GMT-0500 (Central Daylight Time),1341042.5,A,sta,O,a,184,1,6031.700000047684,1335010.7999999523,7104,WL,B,15.0
4,45.40400004386902,learn,14595.999956130981,Wed Apr 02 2025 12:15:48 GMT-0500 (Central Daylight Time),1341227.2999999523,A,star,O,r,178,1,6216.5,1335010.7999999523,7104,WL,B,15.0
4,45.88700008392334,learn,14112.99991607666,Wed Apr 02 2025 12:15:48 GMT-0500 (Central Daylight Time),1341710.7000000477,A,starenter,O,enter,463,1,6699.900000095367,1335010.7999999523,7104,WL,B,15.0
5,0.8659999370574951,learn,60000.0,Wed Apr 02 2025 12:15:48 GMT-0500 (Central Daylight Time),1411804.2999999523,A,c,O,c,848,1,866.1999999284744,1410938.1000000238,7104,WL,B,1.0
5,1.0820000171661377,learn,60000.0,Wed Apr 02 2025 12:15:48 GMT-0500 (Central Daylight Time),1412019.7999999523,A,cl,O,l,209,1,1081.6999999284744,1410938.1000000238,7104,WL,B,1.0
5,1.2819998264312744,learn,60000.0,Wed Apr 02 2025 12:15:48 GMT-0500 (Central Daylight Time),1412220.2000000477,A,clo,O,o,194,1,1282.1000000238419,1410938.1000000238,7104,WL,B,1.0
5,1.431999921798706,learn,60000.0,Wed Apr 02 2025 12:15:48 GMT-0500 (Central Daylight Time),1412370.2000000477,A,cloc,O,c,136,1,1432.1000000238419,1410938.1000000238,7104,WL,B,1.0
5,1.5820000171661377,learn,60000.0,Wed Apr 02 2025 12:15:48 GMT-0500 (Central Daylight Time),1412520.1000000238,A,clock,O,k,138,1,1582.0,1410938.1000000238,7104,WL,B,1.0
5,1.930999994277954,learn,60000.0,Wed Apr 02 2025 12:15:48 GMT-0500 (Central Daylight Time),1412869.2000000477,A,clockenter,O,enter,331,1,1931.1000000238419,1410938.1000000238,7104,WL,B,1.0
5,2.5809998512268066,learn,60000.0,Wed Apr 02 2025 12:15:48 GMT-0500 (Central Daylight Time),1413519.5,A,s,O,s,630,1,650.0,1412869.5,7104,WL,B,2.0
5,2.6670000553131104,learn,60000.0,Wed Apr 02 2025 12:15:48 GMT-0500 (Central Daylight Time),1413605.5,A,sk,O,k,68,1,736.0,1412869.5,7104,WL,B,2.0
5,2.815000057220459,learn,60000.0,Wed Apr 02 2025 12:15:48 GMT-0500 (Central Daylight Time),1413752.8999999762,A,ski,O,i,134,1,883.3999999761581,1412869.5,7104,WL,B,2.0
5,2.947999954223633,learn,60000.0,Wed Apr 02 2025 12:15:48 GMT-0500 (Central Daylight Time),1413886.5,A,skin,O,n,122,1,1017.0,1412869.5,7104,WL,B,2.0
5,3.4159998893737793,learn,60000.0,Wed Apr 02 2025 12:15:48 GMT-0500 (Central Daylight Time),1414353.7000000477,A,skinenter,O,enter,444,1,1484.2000000476837,1412869.5,7104,WL,B,2.0
5,5.113999843597412,learn,60000.0,Wed Apr 02 2025 12:15:48 GMT-0500 (Central Daylight Time),1416052.7000000477,A,c,O,c,1693,1,1698.6000000238419,1414354.1000000238,7104,WL,B,3.0
5,5.281999826431274,learn,60000.0,Wed Apr 02 2025 12:15:48 GMT-0500 (Central Daylight Time),1416220.0,A,ca,O,a,160,1,1865.8999999761581,1414354.1000000238,7104,WL,B,3.0
5,5.629999876022339,learn,60000.0,Wed Apr 02 2025 12:15:48 GMT-0500 (Central Daylight Time),1416568.1000000238,A,cab,O,b,326,1,2214.0,1414354.1000000238,7104,WL,B,3.0
5,5.746000051498413,learn,60000.0,Wed Apr 02 2025 12:15:48 GMT-0500 (Central Daylight Time),1416684.6000000238,A,cabi,O,i,98,1,2330.5,1414354.1000000238,7104,WL,B,3.0
5,5.88100004196167,learn,60000.0,Wed Apr 02 2025 12:15:48 GMT-0500 (Central Daylight Time),1416819.0,A,cabin,O,n,118,1,2464.899999976158,1414354.1000000238,7104,WL,B,3.0
5,6.832000017166138,learn,60000.0,Wed Apr 02 2025 12:15:48 GMT-0500 (Central Daylight Time),1417769.8999999762,A,cabinenter,O,enter,946,1,3415.7999999523163,1414354.1000000238,7104,WL,B,3.0
5,7.44599986076355,learn,60000.0,Wed Apr 02 2025 12:15:48 GMT-0500 (Central Daylight Time),1418384.5,A,l,O,l,594,1,614.2999999523163,1417770.2000000477,7104,WL,B,4.0
5,7.546000003814697,learn,60000.0,Wed Apr 02 2025 12:15:48 GMT-0500 (Central Daylight Time),1418483.8999999762,A,la,O,a,91,1,713.6999999284744,1417770.2000000477,7104,WL,B,4.0
5,7.746999979019165,learn,60000.0,Wed Apr 02 2025 12:15:48 GMT-0500 (Central Daylight Time),1418685.2000000477,A,lak,O,k,190,1,915.0,1417770.2000000477,7104,WL,B,4.0
5,7.896999835968018,learn,60000.0,Wed Apr 02 2025 12:15:48 GMT-0500 (Central Daylight Time),1418834.7999999523,A,lake,O,e,134,1,1064.5999999046326,1417770.2000000477,7104,WL,B,4.0
5,8.263999938964844,learn,60000.0,Wed Apr 02 2025 12:15:48 GMT-0500 (Central Daylight Time),1419201.8999999762,A,lakeenter,O,enter,361,1,1431.6999999284744,1417770.2000000477,7104,WL,B,4.0
5,9.046000003814697,learn,60000.0,Wed Apr 02 2025 12:15:48 GMT-0500 (Central Daylight Time),1419984.3999999762,A,p,O,p,770,1,781.7999999523163,1419202.6000000238,7104,WL,B,5.0
5,9.27999997138977,learn,60000.0,Wed Apr 02 2025 12:15:48 GMT-0500 (Central Daylight Time),1420218.0,A,pi,O,i,220,1,1015.3999999761581,1419202.6000000238,7104,WL,B,5.0
5,9.662999868392944,learn,60000.0,Wed Apr 02 2025 12:15:48 GMT-0500 (Central Daylight Time),1420601.2999999523,A,pip,O,p,369,1,1398.6999999284744,1419202.6000000238,7104,WL,B,5.0
5,9.96399998664856,learn,60000.0,Wed Apr 02 2025 12:15:48 GMT-0500 (Central Daylight Time),1420902.3999999762,A,pipe,O,e,277,1,1699.7999999523163,1419202.6000000238,7104,WL,B,5.0
5,10.412999868392944,learn,60000.0,Wed Apr 02 2025 12:15:48 GMT-0500 (Central Daylight Time),1421351.1000000238,A,pipeenter,O,enter,428,1,2148.5,1419202.6000000238,7104,WL,B,5.0
5,11.312000036239624,learn,60000.0,Wed Apr 02 2025 12:15:48 GMT-0500 (Central Daylight Time),1422250.3999999762,A,s,O,s,878,1,899.0,1421351.3999999762,7104,WL,B,6.0
5,11.529000043869019,learn,60000.0,Wed Apr 02 2025 12:15:48 GMT-0500 (Central Daylight Time),1422467.5,A,st,O,t,209,1,1116.1000000238419,1421351.3999999762,7104,WL,B,6.0
5,11.86299991607666,learn,60000.0,Wed Apr 02 2025 12:15:48 GMT-0500 (Central Daylight Time),1422801.3999999762,A,str,O,r,327,1,1450.0,1421351.3999999762,7104,WL,B,6.0
5,12.144999980926514,learn,60000.0,Wed Apr 02 2025 12:15:48 GMT-0500 (Central Daylight Time),1423083.2999999523,A,stre,O,e,266,1,1731.8999999761581,1421351.3999999762,7104,WL,B,6.0
5,12.277999877929688,learn,60000.0,Wed Apr 02 2025 12:15:48 GMT-0500 (Central Daylight Time),1423216.7999999523,A,stree,O,e,120,1,1865.3999999761581,1421351.3999999762,7104,WL,B,6.0
5,12.560999870300293,learn,60000.0,Wed Apr 02 2025 12:15:48 GMT-0500 (Central Daylight Time),1423499.2999999523,A,street,O,t,275,1,2147.899999976158,1421351.3999999762,7104,WL,B,6.0
5,13.34500002861023,learn,60000.0,Wed Apr 02 2025 12:15:48 GMT-0500 (Central Daylight Time),1424283.2999999523,A,streetenter,O,enter,768,1,2931.899999976158,1421351.3999999762,7104,WL,B,6.0
5,14.060999870300293,learn,60000.0,Wed Apr 02 2025 12:15:48 GMT-0500 (Central Daylight Time),1424999.2000000477,A,g,O,g,696,1,715.6000000238419,1424283.6000000238,7104,WL,B,7.0
5,14.296000003814697,learn,60000.0,Wed Apr 02 2025 12:15:48 GMT-0500 (Central Daylight Time),1425234.1000000238,A,gr,O,r,230,1,950.5,1424283.6000000238,7104,WL,B,7.0
5,14.52999997138977,learn,60000.0,Wed Apr 02 2025 12:15:48 GMT-0500 (Central Daylight Time),1425468.2999999523,A,gra,O,a,228,1,1184.6999999284744,1424283.6000000238,7104,WL,B,7.0
5,14.86299991607666,learn,60000.0,Wed Apr 02 2025 12:15:48 GMT-0500 (Central Daylight Time),1425801.1000000238,A,gras,O,s,311,1,1517.5,1424283.6000000238,7104,WL,B,7.0
5,15.394000053405762,learn,60000.0,Wed Apr 02 2025 12:15:48 GMT-0500 (Central Daylight Time),1426332.0,A,grass,O,s,524,1,2048.399999976158,1424283.6000000238,7104,WL,B,7.0
5,15.692999839782715,learn,60000.0,Wed Apr 02 2025 12:15:48 GMT-0500 (Central Daylight Time),1426631.6000000238,A,grassenter,O,enter,280,1,2348.0,1424283.6000000238,7104,WL,B,7.0
5,17.82699990272522,learn,60000.0,Wed Apr 02 2025 12:15:48 GMT-0500 (Central Daylight Time),1428765.2999999523,A,d,O,d,2116,1,2133.399999976158,1426631.8999999762,7104,WL,B,8.0
5,18.026000022888184,learn,60000.0,Wed Apr 02 2025 12:15:48 GMT-0500 (Central Daylight Time),1428963.7000000477,A,do,O,o,181,1,2331.8000000715256,1426631.8999999762,7104,WL,B,8.0
5,18.158999919891357,learn,60000.0,Wed Apr 02 2025 12:15:48 GMT-0500 (Central Daylight Time),1429097.2000000477,A,doo,O,o,120,1,2465.3000000715256,1426631.8999999762,7104,WL,B,8.0
5,18.342999935150146,learn,60000.0,Wed Apr 02 2025 12:15:48 GMT-0500 (Central Daylight Time),1429281.7999999523,A,door,O,r,172,1,2649.899999976158,1426631.8999999762,7104,WL,B,8.0
5,18.55999994277954,learn,60000.0,Wed Apr 02 2025 12:15:48 GMT-0500 (Central Daylight Time),1429497.8999999762,A,doorenter,O,enter,210,1,2866.0,1426631.8999999762,7104,WL,B,8.0
5,19.042999982833862,learn,60000.0,Wed Apr 02 2025 12:15:48 GMT-0500 (Central Daylight Time),1429981.5,A,w,O,w,466,1,483.2999999523163,1429498.2000000477,7104,WL,B,9.0
5,19.20899987220764,learn,60000.0,Wed Apr 02 2025 12:15:48 GMT-0500 (Central Daylight Time),1430147.5,A,wi,O,i,151,1,649.2999999523163,1429498.2000000477,7104,WL,B,9.0
5,19.375999927520752,learn,60000.0,Wed Apr 02 2025 12:15:48 GMT-0500 (Central Daylight Time),1430314.1000000238,A,win,O,n,152,1,815.8999999761581,1429498.2000000477,7104,WL,B,9.0
5,19.746000051498413,learn,60000.0,Wed Apr 02 2025 12:15:48 GMT-0500 (Central Daylight Time),1430683.8999999762,A,wind,O,d,346,1,1185.6999999284744,1429498.2000000477,7104,WL,B,9.0
5,19.908999919891357,learn,60000.0,Wed Apr 02 2025 12:15:48 GMT-0500 (Central Daylight Time),1430847.5,A,windo,O,o,153,1,1349.2999999523163,1429498.2000000477,7104,WL,B,9.0
5,20.075000047683716,learn,60000.0,Wed Apr 02 2025 12:15:48 GMT-0500 (Central Daylight Time),1431013.2000000477,A,window,O,w,148,1,1515.0,1429498.2000000477,7104,WL,B,9.0
5,21.0239999294281,learn,60000.0,Wed Apr 02 2025 12:15:48 GMT-0500 (Central Daylight Time),1431962.2000000477,A,windowenter,O,enter,941,1,2464.0,1429498.2000000477,7104,WL,B,9.0
5,22.307999849319458,learn,60000.0,Wed Apr 02 2025 12:15:48 GMT-0500 (Central Daylight Time),1433246.3999999762,A,w,O,w,1275,1,1284.1000000238419,1431962.2999999523,7104,WL,B,10.0
5,22.441999912261963,learn,60000.0,Wed Apr 02 2025 12:15:48 GMT-0500 (Central Daylight Time),1433380.2000000477,A,wi,O,i,120,1,1417.9000000953674,1431962.2999999523,7104,WL,B,10.0
5,22.592999935150146,learn,60000.0,Wed Apr 02 2025 12:15:48 GMT-0500 (Central Daylight Time),1433531.0,A,wif,O,f,135,1,1568.7000000476837,1431962.2999999523,7104,WL,B,10.0
5,22.72499990463257,learn,60000.0,Wed Apr 02 2025 12:15:48 GMT-0500 (Central Daylight Time),1433662.7000000477,A,wife,O,e,120,1,1700.4000000953674,1431962.2999999523,7104,WL,B,10.0
5,23.174999952316284,learn,60000.0,Wed Apr 02 2025 12:15:48 GMT-0500 (Central Daylight Time),1434113.1000000238,A,wifeenter,O,enter,437,1,2150.8000000715256,1431962.2999999523,7104,WL,B,10.0
5,23.80900001525879,learn,60000.0,Wed Apr 02 2025 12:15:48 GMT-0500 (Central Daylight Time),1434747.2000000477,A,p,O,p,630,1,633.8000000715256,1434113.3999999762,7104,WL,B,11.0
5,24.008999824523926,learn,60000.0,Wed Apr 02 2025 12:15:48 GMT-0500 (Central Daylight Time),1434947.2000000477,A,pu,O,u,194,1,833.8000000715256,1434113.3999999762,7104,WL,B,11.0
5,24.359999895095825,learn,60000.0,Wed Apr 02 2025 12:15:48 GMT-0500 (Central Daylight Time),1435297.7999999523,A,pup,O,p,344,1,1184.3999999761581,1434113.3999999762,7104,WL,B,11.0
5,24.707000017166138,learn,60000.0,Wed Apr 02 2025 12:15:48 GMT-0500 (Central Daylight Time),1435645.7000000477,A,pupi,O,i,337,1,1532.3000000715256,1434113.3999999762,7104,WL,B,11.0
5,25.039999961853027,learn,60000.0,Wed Apr 02 2025 12:15:48 GMT-0500 (Central Daylight Time),1435978.3999999762,A,pupil,O,l,318,1,1865.0,1434113.3999999762,7104,WL,B,11.0
5,25.590999841690063,learn,60000.0,Wed Apr 02 2025 12:15:48 GMT-0500 (Central Daylight Time),1436528.7000000477,A,pupilenter,O,enter,545,1,2415.3000000715256,1434113.3999999762,7104,WL,B,11.0
5,27.408999919891357,learn,60000.0,Wed Apr 02 2025 12:15:48 GMT-0500 (Central Daylight Time),1438347.3999999762,A,a,O,a,1813,1,1818.3999999761581,1436529.0,7104,WL,B,12.0
5,27.657999992370605,learn,60000.0,Wed Apr 02 2025 12:15:48 GMT-0500 (Central Daylight Time),1438595.7999999523,A,ar,O,r,241,1,2066.7999999523163,1436529.0,7104,WL,B,12.0
5,27.738999843597412,learn,60000.0,Wed Apr 02 2025 12:15:48 GMT-0500 (Central Daylight Time),1438677.6000000238,A,arm,O,m,71,1,2148.600000023842,1436529.0,7104,WL,B,12.0
5,28.1729998588562,learn,60000.0,Wed Apr 02 2025 12:15:48 GMT-0500 (Central Daylight Time),1439111.3999999762,A,armenter,O,enter,421,1,2582.399999976158,1436529.0,7104,WL,B,12.0
5,31.270999908447266,learn,60000.0,Wed Apr 02 2025 12:15:48 GMT-0500 (Central Daylight Time),1442209.7999999523,A,c,O,c,3085,1,3098.0999999046326,1439111.7000000477,7104,WL,B,13.0
5,31.371999979019165,learn,60000.0,Wed Apr 02 2025 12:15:48 GMT-0500 (Central Daylight Time),1442310.8999999762,A,cl,O,l,80,1,3199.1999999284744,1439111.7000000477,7104,WL,B,13.0
5,31.555999994277954,learn,60000.0,Wed Apr 02 2025 12:15:48 GMT-0500 (Central Daylight Time),1442494.2999999523,A,clo,O,o,173,1,3382.5999999046326,1439111.7000000477,7104,WL,B,13.0
5,31.687999963760376,learn,60000.0,Wed Apr 02 2025 12:15:48 GMT-0500 (Central Daylight Time),1442626.3999999762,A,cloc,O,c,115,1,3514.6999999284744,1439111.7000000477,7104,WL,B,13.0
5,31.82200002670288,learn,60000.0,Wed Apr 02 2025 12:15:48 GMT-0500 (Central Daylight Time),1442760.2999999523,A,clock,O,k,119,1,3648.5999999046326,1439111.7000000477,7104,WL,B,13.0
5,32.07200002670288,learn,60000.0,Wed Apr 02 2025 12:15:48 GMT-0500 (Central Daylight Time),1443010.2999999523,A,clockenter,O,enter,234,1,3898.5999999046326,1439111.7000000477,7104,WL,B,13.0
5,34.89100003242493,learn,60000.0,Wed Apr 02 2025 12:15:48 GMT-0500 (Central Daylight Time),1445829.7000000477,A,w,O,w,2814,1,2819.100000023842,1443010.6000000238,7104,WL,B,14.0
5,35.037999868392944,learn,60000.0,Wed Apr 02 2025 12:15:48 GMT-0500 (Central Daylight Time),1445976.6000000238,A,wi,O,i,125,1,2966.0,1443010.6000000238,7104,WL,B,14.0
5,35.169999837875366,learn,60000.0,Wed Apr 02 2025 12:15:48 GMT-0500 (Central Daylight Time),1446108.5,A,wif,O,f,122,1,3097.899999976158,1443010.6000000238,7104,WL,B,14.0
5,35.269999980926514,learn,60000.0,Wed Apr 02 2025 12:15:48 GMT-0500 (Central Daylight Time),1446209.2000000477,A,wife,O,e,95,1,3198.600000023842,1443010.6000000238,7104,WL,B,14.0
5,35.4210000038147,learn,60000.0,Wed Apr 02 2025 12:15:48 GMT-0500 (Central Daylight Time),1446359.7000000477,A,wifeenter,O,enter,137,1,3349.100000023842,1443010.6000000238,7104,WL,B,14.0
5,38.669999837875366,learn,60000.0,Wed Apr 02 2025 12:15:48 GMT-0500 (Central Daylight Time),1449608.7000000477,A,a,O,a,3227,1,3248.7000000476837,1446360.0,7104,WL,B,15.0
5,38.90299987792969,learn,60000.0,Wed Apr 02 2025 12:15:48 GMT-0500 (Central Daylight Time),1449841.7999999523,A,ar,O,r,219,1,3481.7999999523163,1446360.0,7104,WL,B,15.0
5,39.001999855041504,learn,60000.0,Wed Apr 02 2025 12:15:48 GMT-0500 (Central Daylight Time),1449941.2000000477,A,arm,O,m,89,1,3581.2000000476837,1446360.0,7104,WL,B,15.0
5,39.33500003814697,learn,60000.0,Wed Apr 02 2025 12:15:48 GMT-0500 (Central Daylight Time),1450274.1000000238,A,armenter,O,enter,318,1,3914.100000023842,1446360.0,7104,WL,B,15.0
6,0.6489999294281006,distr,59351.0000705719,Wed Apr 02 2025 12:15:48 GMT-0500 (Central Daylight Time),1518770.6000000238,B,b,O,b,644,1,649.0,1518121.6000000238,7104,WL,B,1.0
6,0.8659999370574951,distr,59134.000062942505,Wed Apr 02 2025 12:15:48 GMT-0500 (Central Daylight Time),1518986.7000000477,B,ba,O,a,202,1,865.1000000238419,1518121.6000000238,7104,WL,B,1.0
6,1.0820000171661377,distr,58917.99998283386,Wed Apr 02 2025 12:15:48 GMT-0500 (Central Daylight Time),1519203.0,B,bab,O,b,211,1,1081.3999999761581,1518121.6000000238,7104,WL,B,1.0
6,1.3320000171661377,distr,58667.99998283386,Wed Apr 02 2025 12:15:48 GMT-0500 (Central Daylight Time),1519453.0,B,baby,O,y,233,1,1331.3999999761581,1518121.6000000238,7104,WL,B,1.0
6,1.6800000667572021,distr,58319.9999332428,Wed Apr 02 2025 12:15:48 GMT-0500 (Central Daylight Time),1519801.1000000238,B,babyenter,O,enter,335,1,1679.5,1518121.6000000238,7104,WL,B,1.0
6,2.2980000972747803,distr,57701.99990272522,Wed Apr 02 2025 12:15:48 GMT-0500 (Central Daylight Time),1520419.7000000477,B,o,O,o,603,1,618.3000000715256,1519801.3999999762,7104,WL,B,2.0
6,2.4149999618530273,distr,57585.00003814697,Wed Apr 02 2025 12:15:48 GMT-0500 (Central Daylight Time),1520536.0,B,oc,O,c,96,1,734.6000000238419,1519801.3999999762,7104,WL,B,2.0
6,2.614000082015991,distr,57385.99991798401,Wed Apr 02 2025 12:15:48 GMT-0500 (Central Daylight Time),1520735.2999999523,B,oce,O,e,188,1,933.8999999761581,1519801.3999999762,7104,WL,B,2.0
6,2.7309999465942383,distr,57269.00005340576,Wed Apr 02 2025 12:15:48 GMT-0500 (Central Daylight Time),1520851.8999999762,B,ocen,O,n,111,1,1050.5,1519801.3999999762,7104,WL,B,2.0
6,3.4649999141693115,distr,56535.00008583069,Wed Apr 02 2025 12:15:48 GMT-0500 (Central Daylight Time),1521586.6000000238,B,oce,O,backspace,711,1,1785.2000000476837,1519801.3999999762,7104,WL,B,2.0
6,3.614000082015991,distr,56385.99991798401,Wed Apr 02 2025 12:15:48 GMT-0500 (Central Daylight Time),1521735.5,B,ocea,O,a,128,1,1934.1000000238419,1519801.3999999762,7104,WL,B,2.0
6,3.763000011444092,distr,56236.99998855591,Wed Apr 02 2025 12:15:48 GMT-0500 (Central Daylight Time),1521884.6000000238,B,ocean,O,n,139,1,2083.2000000476837,1519801.3999999762,7104,WL,B,2.0
6,4.046999931335449,distr,55953.00006866455,Wed Apr 02 2025 12:15:48 GMT-0500 (Central Daylight Time),1522168.2000000477,B,oceanenter,O,enter,264,1,2366.8000000715256,1519801.3999999762,7104,WL,B,2.0
6,4.581000089645386,distr,55418.999910354614,Wed Apr 02 2025 12:15:48 GMT-0500 (Central Daylight Time),1522701.8999999762,B,p,O,p,524,1,533.3999999761581,1522168.5,7104,WL,B,3.0
6,4.848999977111816,distr,55151.00002288818,Wed Apr 02 2025 12:15:48 GMT-0500 (Central Daylight Time),1522970.0,B,pa,O,a,262,1,801.5,1522168.5,7104,WL,B,3.0
6,5.013000011444092,distr,54986.99998855591,Wed Apr 02 2025 12:15:48 GMT-0500 (Central Daylight Time),1523134.3999999762,B,pal,O,l,144,1,965.8999999761581,1522168.5,7104,WL,B,3.0
6,5.281000137329102,distr,54718.9998626709,Wed Apr 02 2025 12:15:48 GMT-0500 (Central Daylight Time),1523401.7999999523,B,pala,O,a,253,1,1233.2999999523163,1522168.5,7104,WL,B,3.0
6,5.61299991607666,distr,54387.00008392334,Wed Apr 02 2025 12:15:48 GMT-0500 (Central Daylight Time),1523734.7000000477,B,palac,O,c,322,1,1566.2000000476837,1522168.5,7104,WL,B,3.0
6,5.831000089645386,distr,54168.999910354614,Wed Apr 02 2025 12:15:48 GMT-0500 (Central Daylight Time),1523951.8999999762,B,palace,O,e,206,1,1783.3999999761581,1522168.5,7104,WL,B,3.0
6,6.0290000438690186,distr,53970.99995613098,Wed Apr 02 2025 12:15:48 GMT-0500 (Central Daylight Time),1524150.2000000477,B,palaceenter,O,enter,179,1,1981.7000000476837,1522168.5,7104,WL,B,3.0
6,6.7799999713897705,distr,53220.00002861023,Wed Apr 02 2025 12:15:48 GMT-0500 (Central Daylight Time),1524901.0,B,c,O,c,742,1,750.5,1524150.5,7104,WL,B,4.0
6,7.065000057220459,distr,52934.99994277954,Wed Apr 02 2025 12:15:48 GMT-0500 (Central Daylight Time),1525186.5,B,ce,O,e,278,1,1036.0,1524150.5,7104,WL,B,4.0
6,7.230000019073486,distr,52769.999980926514,Wed Apr 02 2025 12:15:48 GMT-0500 (Central Daylight Time),1525351.3999999762,B,cel,O,l,153,1,1200.8999999761581,1524150.5,7104,WL,B,4.0
6,7.413000106811523,distr,52586.99989318848,Wed Apr 02 2025 12:15:48 GMT-0500 (Central Daylight Time),1525534.0,B,cell,O,l,165,1,1383.5,1524150.5,7104,WL,B,4.0
6,7.683000087738037,distr,52316.99991226196,Wed Apr 02 2025 12:15:48 GMT-0500 (Central Daylight Time),1525804.7000000477,B,cellenter,O,enter,253,1,1654.2000000476837,1524150.5,7104,WL,B,4.0
6,8.513000011444092,distr,51486.99998855591,Wed Apr 02 2025 12:15:48 GMT-0500 (Central Daylight Time),1526633.7999999523,B,f,O,f,817,1,828.7999999523163,1525805.0,7104,WL,B,5.0
6,8.67900013923645,distr,51320.99986076355,Wed Apr 02 2025 12:15:48 GMT-0500 (Central Daylight Time),1526800.1000000238,B,fr,O,r,154,1,995.1000000238419,1525805.0,7104,WL,B,5.0
6,8.779000043869019,distr,51220.99995613098,Wed Apr 02 2025 12:15:48 GMT-0500 (Central Daylight Time),1526900.6000000238,B,fri,O,i,96,1,1095.6000000238419,1525805.0,7104,WL,B,5.0
6,9.04800009727478,distr,50951.99990272522,Wed Apr 02 2025 12:15:48 GMT-0500 (Central Daylight Time),1527169.2000000477,B,frie,O,e,263,1,1364.2000000476837,1525805.0,7104,WL,B,5.0
6,9.645999908447266,distr,50354.000091552734,Wed Apr 02 2025 12:15:48 GMT-0500 (Central Daylight Time),1527766.7999999523,B,fri,O,backspace,587,1,1961.7999999523163,1525805.0,7104,WL,B,5.0
6,10.529000043869019,distr,49470.99995613098,Wed Apr 02 2025 12:15:48 GMT-0500 (Central Daylight Time),1528649.8999999762,B,frie,O,e,870,1,2844.899999976158,1525805.0,7104,WL,B,5.0
6,10.694999933242798,distr,49305.0000667572,Wed Apr 02 2025 12:15:48 GMT-0500 (Central Daylight Time),1528816.7999999523,B,frien,O,n,148,1,3011.7999999523163,1525805.0,7104,WL,B,5.0
6,10.82800006866455,distr,49171.99993133545,Wed Apr 02 2025 12:15:48 GMT-0500 (Central Daylight Time),1528949.6000000238,B,friend,O,d,120,1,3144.600000023842,1525805.0,7104,WL,B,5.0
6,11.010999917984009,distr,48989.00008201599,Wed Apr 02 2025 12:15:48 GMT-0500 (Central Daylight Time),1529132.7000000477,B,friendenter,O,enter,174,1,3327.7000000476837,1525805.0,7104,WL,B,5.0
6,12.911999940872192,distr,47088.00005912781,Wed Apr 02 2025 12:15:48 GMT-0500 (Central Daylight Time),1531033.0,B,b,O,b,1887,1,1900.0,1529133.0,7104,WL,B,6.0
6,13.128000020980835,distr,46871.999979019165,Wed Apr 02 2025 12:15:48 GMT-0500 (Central Daylight Time),1531249.1000000238,B,ba,O,a,211,1,2116.100000023842,1529133.0,7104,WL,B,6.0
6,13.361999988555908,distr,46638.00001144409,Wed Apr 02 2025 12:15:48 GMT-0500 (Central Daylight Time),1531482.7999999523,B,bab,O,b,220,1,2349.7999999523163,1529133.0,7104,WL,B,6.0
6,13.594000101089478,distr,46405.99989891052,Wed Apr 02 2025 12:15:48 GMT-0500 (Central Daylight Time),1531715.6000000238,B,baby,O,y,217,1,2582.600000023842,1529133.0,7104,WL,B,6.0
6,13.976999998092651,distr,46023.00000190735,Wed Apr 02 2025 12:15:48 GMT-0500 (Central Daylight Time),1532098.3999999762,B,babyenter,O,enter,377,1,2965.399999976158,1529133.0,7104,WL,B,6.0
6,22.391000032424927,distr,37608.99996757507,Wed Apr 02 2025 12:15:48 GMT-0500 (Central Daylight Time),1540512.6000000238,B,d,O,d,8403,1,8414.0,1532098.6000000238,7104,WL,B,7.0
6,22.79100012779236,distr,37208.99987220764,Wed Apr 02 2025 12:15:48 GMT-0500 (Central Daylight Time),1540912.2000000477,B,de,O,e,394,1,8813.600000023842,1532098.6000000238,7104,WL,B,7.0
6,23.35700011253357,distr,36642.99988746643,Wed Apr 02 2025 12:15:48 GMT-0500 (Central Daylight Time),1541478.6000000238,B,des,O,s,558,1,9380.0,1532098.6000000238,7104,WL,B,7.0
6,23.539999961853027,distr,36460.00003814697,Wed Apr 02 2025 12:15:48 GMT-0500 (Central Daylight Time),1541661.6000000238,B,dess,O,s,173,1,9563.0,1532098.6000000238,7104,WL,B,7.0
6,23.890000104904175,distr,36109.999895095825,Wed Apr 02 2025 12:15:48 GMT-0500 (Central Daylight Time),1542011.7000000477,B,des,O,backspace,334,1,9913.100000023842,1532098.6000000238,7104,WL,B,7.0
6,24.056999921798706,distr,35943.000078201294,Wed Apr 02 2025 12:15:48 GMT-0500 (Central Daylight Time),1542178.2999999523,B,de,O,backspace,160,1,10079.699999928474,1532098.6000000238,7104,WL,B,7.0
6,24.210000038146973,distr,35789.99996185303,Wed Apr 02 2025 12:15:48 GMT-0500 (Central Daylight Time),1542331.0,B,d,O,backspace,130,1,10232.399999976158,1532098.6000000238,7104,WL,B,7.0
6,24.80900001525879,distr,35190.99998474121,Wed Apr 02 2025 12:15:48 GMT-0500 (Central Daylight Time),1542930.3999999762,B,dr,O,r,593,1,10831.799999952316,1532098.6000000238,7104,WL,B,7.0
6,25.04200005531311,distr,34957.99994468689,Wed Apr 02 2025 12:15:48 GMT-0500 (Central Daylight Time),1543163.2000000477,B,dre,O,e,228,1,11064.600000023842,1532098.6000000238,7104,WL,B,7.0
6,25.341000080108643,distr,34658.99991989136,Wed Apr 02 2025 12:15:48 GMT-0500 (Central Daylight Time),1543462.2999999523,B,dres,O,s,279,1,11363.699999928474,1532098.6000000238,7104,WL,B,7.0
6,25.508000135421753,distr,34491.99986457825,Wed Apr 02 2025 12:15:48 GMT-0500 (Central Daylight Time),1543628.8999999762,B,dress,O,s,150,1,11530.299999952316,1532098.6000000238,7104,WL,B,7.0
6,25.706000089645386,distr,34293.999910354614,Wed Apr 02 2025 12:15:48 GMT-0500 (Central Daylight Time),1543827.7000000477,B,dressenter,O,enter,191,1,11729.100000023842,1532098.6000000238,7104,WL,B,7.0
6,33.88700008392334,distr,26112.99991607666,Wed Apr 02 2025 12:15:48 GMT-0500 (Central Daylight Time),1552007.8999999762,B,o,O,o,8160,1,8180.0,1543827.8999999762,7104,WL,B,8.0
6,33.98699998855591,distr,26013.00001144409,Wed Apr 02 2025 12:15:48 GMT-0500 (Central Daylight Time),1552107.7999999523,B,oc,O,c,92,1,8279.899999976158,1543827.8999999762,7104,WL,B,8.0
6,34.22099995613098,distr,25779.00004386902,Wed Apr 02 2025 12:15:48 GMT-0500 (Central Daylight Time),1552342.2000000477,B,oce,O,e,222,1,8514.300000071526,1543827.8999999762,7104,WL,B,8.0
6,34.37000012397766,distr,25629.99987602234,Wed Apr 02 2025 12:15:48 GMT-0500 (Central Daylight Time),1552491.1000000238,B,ocea,O,a,141,1,8663.200000047684,1543827.8999999762,7104,WL,B,8.0
6,34.520999908447266,distr,25479.000091552734,Wed Apr 02 2025 12:15:48 GMT-0500 (Central Daylight Time),1552642.0,B,ocean,O,n,135,1,8814.100000023842,1543827.8999999762,7104,WL,B,8.0
6,34.770999908447266,distr,25229.000091552734,Wed Apr 02 2025 12:15:48 GMT-0500 (Central Daylight Time),1552892.2000000477,B,oceanenter,O,enter,233,1,9064.300000071526,1543827.8999999762,7104,WL,B,8.0
6,60.015000104904175,distr,-15.000104904174805,Wed Apr 02 2025 12:15:48 GMT-0500 (Central Daylight Time),1578136.5,B,None,O,None,25239,1,25244.0,1552892.5,7104,WL,B,9.0
7,1.4010000228881836,immed,58598.99997711182,Wed Apr 02 2025 12:15:48 GMT-0500 (Central Daylight Time),1590164.2999999523,A,f,O,f,1391,1,1400.2999999523163,1588764.0,7104,WL,B,1.0
7,1.633000135421753,immed,58366.99986457825,Wed Apr 02 2025 12:15:48 GMT-0500 (Central Daylight Time),1590397.2000000477,A,fi,O,i,222,1,1633.2000000476837,1588764.0,7104,WL,B,1.0
7,1.7999999523162842,immed,58200.000047683716,Wed Apr 02 2025 12:15:48 GMT-0500 (Central Daylight Time),1590563.6000000238,A,fir,O,r,149,1,1799.6000000238419,1588764.0,7104,WL,B,1.0
7,1.934000015258789,immed,58065.99998474121,Wed Apr 02 2025 12:15:48 GMT-0500 (Central Daylight Time),1590698.1000000238,A,fire,O,e,128,1,1934.1000000238419,1588764.0,7104,WL,B,1.0
7,2.366000175476074,immed,57633.999824523926,Wed Apr 02 2025 12:15:48 GMT-0500 (Central Daylight Time),1591130.1000000238,A,fireenter,O,enter,425,1,2366.100000023842,1588764.0,7104,WL,B,1.0
7,3.5970001220703125,immed,56402.99987792969,Wed Apr 02 2025 12:15:48 GMT-0500 (Central Daylight Time),1592361.2000000477,A,s,O,s,1210,1,1230.8000000715256,1591130.3999999762,7104,WL,B,2.0
7,3.7799999713897705,immed,56220.00002861023,Wed Apr 02 2025 12:15:48 GMT-0500 (Central Daylight Time),1592543.7999999523,A,st,O,t,179,1,1413.3999999761581,1591130.3999999762,7104,WL,B,2.0
7,4.113000154495239,immed,55886.99984550476,Wed Apr 02 2025 12:15:48 GMT-0500 (Central Daylight Time),1592876.8999999762,A,str,O,r,317,1,1746.5,1591130.3999999762,7104,WL,B,2.0
7,4.531000137329102,immed,55468.9998626709,Wed Apr 02 2025 12:15:48 GMT-0500 (Central Daylight Time),1593294.7000000477,A,stre,O,e,407,1,2164.3000000715256,1591130.3999999762,7104,WL,B,2.0
7,4.683000087738037,immed,55316.99991226196,Wed Apr 02 2025 12:15:48 GMT-0500 (Central Daylight Time),1593446.3999999762,A,stree,O,e,133,1,2316.0,1591130.3999999762,7104,WL,B,2.0
7,4.949000120162964,immed,55050.999879837036,Wed Apr 02 2025 12:15:48 GMT-0500 (Central Daylight Time),1593712.8999999762,A,street,O,t,252,1,2582.5,1591130.3999999762,7104,WL,B,2.0
7,5.249000072479248,immed,54750.99992752075,Wed Apr 02 2025 12:15:48 GMT-0500 (Central Daylight Time),1594013.1000000238,A,streetenter,O,enter,292,1,2882.7000000476837,1591130.3999999762,7104,WL,B,2.0
7,5.898000001907349,immed,54101.99999809265,Wed Apr 02 2025 12:15:48 GMT-0500 (Central Daylight Time),1594661.6000000238,A,g,O,g,639,1,648.3000000715256,1594013.2999999523,7104,WL,B,3.0
7,6.197999954223633,immed,53802.00004577637,Wed Apr 02 2025 12:15:48 GMT-0500 (Central Daylight Time),1594962.5,A,gr,O,r,285,1,949.2000000476837,1594013.2999999523,7104,WL,B,3.0
7,6.414999961853027,immed,53585.00003814697,Wed Apr 02 2025 12:15:48 GMT-0500 (Central Daylight Time),1595178.6000000238,A,gra,O,a,201,1,1165.3000000715256,1594013.2999999523,7104,WL,B,3.0
7,6.7820000648498535,immed,53217.99993515015,Wed Apr 02 2025 12:15:48 GMT-0500 (Central Daylight Time),1595545.6000000238,A,gras,O,s,343,1,1532.3000000715256,1594013.2999999523,7104,WL,B,3.0
7,6.930000066757202,immed,53069.9999332428,Wed Apr 02 2025 12:15:48 GMT-0500 (Central Daylight Time),1595694.1000000238,A,grass,O,s,128,1,1680.8000000715256,1594013.2999999523,7104,WL,B,3.0
7,7.314000129699707,immed,52685.99987030029,Wed Apr 02 2025 12:15:48 GMT-0500 (Central Daylight Time),1596078.1000000238,A,grassenter,O,enter,364,1,2064.8000000715256,1594013.2999999523,7104,WL,B,3.0
7,7.764000177383423,immed,52235.99982261658,Wed Apr 02 2025 12:15:48 GMT-0500 (Central Daylight Time),1596528.1000000238,A,w,O,w,445,1,449.7000000476837,1596078.3999999762,7104,WL,B,4.0
7,7.897000074386597,immed,52102.9999256134,Wed Apr 02 2025 12:15:48 GMT-0500 (Central Daylight Time),1596660.5,A,wi,O,i,125,1,582.1000000238419,1596078.3999999762,7104,WL,B,4.0
7,8.081000089645386,immed,51918.999910354614,Wed Apr 02 2025 12:15:48 GMT-0500 (Central Daylight Time),1596844.6000000238,A,win,O,n,169,1,766.2000000476837,1596078.3999999762,7104,WL,B,4.0
7,8.248000144958496,immed,51751.999855041504,Wed Apr 02 2025 12:15:48 GMT-0500 (Central Daylight Time),1597011.6000000238,A,wind,O,d,151,1,933.2000000476837,1596078.3999999762,7104,WL,B,4.0
7,8.38100004196167,immed,51618.99995803833,Wed Apr 02 2025 12:15:48 GMT-0500 (Central Daylight Time),1597144.7999999523,A,windo,O,o,120,1,1066.3999999761581,1596078.3999999762,7104,WL,B,4.0
7,8.54800009727478,immed,51451.99990272522,Wed Apr 02 2025 12:15:48 GMT-0500 (Central Daylight Time),1597311.2999999523,A,window,O,w,145,1,1232.8999999761581,1596078.3999999762,7104,WL,B,4.0
7,8.730000019073486,immed,51269.999980926514,Wed Apr 02 2025 12:15:48 GMT-0500 (Central Daylight Time),1597493.7999999523,A,windowenter,O,enter,164,1,1415.3999999761581,1596078.3999999762,7104,WL,B,4.0
7,8.94700002670288,immed,51052.99997329712,Wed Apr 02 2025 12:15:48 GMT-0500 (Central Daylight Time),1597711.1000000238,A,d,O,d,207,1,217.10000002384186,1597494.0,7104,WL,B,5.0
7,9.147000074386597,immed,50852.9999256134,Wed Apr 02 2025 12:15:48 GMT-0500 (Central Daylight Time),1597911.2000000477,A,do,O,o,179,1,417.2000000476837,1597494.0,7104,WL,B,5.0
7,9.71399998664856,immed,50286.00001335144,Wed Apr 02 2025 12:15:48 GMT-0500 (Central Daylight Time),1598477.5,A,doo,O,o,555,1,983.5,1597494.0,7104,WL,B,5.0
7,9.914000034332275,immed,50085.999965667725,Wed Apr 02 2025 12:15:48 GMT-0500 (Central Daylight Time),1598677.6000000238,A,door,O,r,188,1,1183.6000000238419,1597494.0,7104,WL,B,5.0
7,10.295000076293945,immed,49704.999923706055,Wed Apr 02 2025 12:15:48 GMT-0500 (Central Daylight Time),1599058.6000000238,A,doorenter,O,enter,365,1,1564.6000000238419,1597494.0,7104,WL,B,5.0
7,12.180000066757202,immed,47819.9999332428,Wed Apr 02 2025 12:15:48 GMT-0500 (Central Daylight Time),1600944.2000000477,A,s,O,s,1875,1,1885.3000000715256,1599058.8999999762,7104,WL,B,6.0
7,12.396000146865845,immed,47603.999853134155,Wed Apr 02 2025 12:15:48 GMT-0500 (Central Daylight Time),1601159.3999999762,A,st,O,t,205,1,2100.5,1599058.8999999762,7104,WL,B,6.0
7,12.562999963760376,immed,47437.000036239624,Wed Apr 02 2025 12:15:48 GMT-0500 (Central Daylight Time),1601326.3999999762,A,sta,O,a,148,1,2267.5,1599058.8999999762,7104,WL,B,6.0
7,12.746000051498413,immed,47253.99994850159,Wed Apr 02 2025 12:15:48 GMT-0500 (Central Daylight Time),1601509.5,A,star,O,r,174,1,2450.600000023842,1599058.8999999762,7104,WL,B,6.0
7,13.212000131607056,immed,46787.999868392944,Wed Apr 02 2025 12:15:48 GMT-0500 (Central Daylight Time),1601975.2999999523,A,starenter,O,enter,454,1,2916.399999976158,1599058.8999999762,7104,WL,B,6.0
7,13.561000108718872,immed,46438.99989128113,Wed Apr 02 2025 12:15:48 GMT-0500 (Central Daylight Time),1602324.3999999762,A,w,O,w,332,1,348.7999999523163,1601975.6000000238,7104,WL,B,7.0
7,13.729000091552734,immed,46270.999908447266,Wed Apr 02 2025 12:15:48 GMT-0500 (Central Daylight Time),1602492.3999999762,A,wi,O,i,159,1,516.7999999523163,1601975.6000000238,7104,WL,B,7.0
7,13.878999948501587,immed,46121.00005149841,Wed Apr 02 2025 12:15:48 GMT-0500 (Central Daylight Time),1602643.1000000238,A,wif,O,f,134,1,667.5,1601975.6000000238,7104,WL,B,7.0
7,14.02999997138977,immed,45970.00002861023,Wed Apr 02 2025 12:15:48 GMT-0500 (Central Daylight Time),1602793.2999999523,A,wife,O,e,145,1,817.6999999284744,1601975.6000000238,7104,WL,B,7.0
7,14.245000123977661,immed,45754.99987602234,Wed Apr 02 2025 12:15:48 GMT-0500 (Central Daylight Time),1603009.0,A,wifeenter,O,enter,209,1,1033.3999999761581,1601975.6000000238,7104,WL,B,7.0
7,16.794000148773193,immed,43205.99985122681,Wed Apr 02 2025 12:15:48 GMT-0500 (Central Daylight Time),1605558.2999999523,A,c,O,c,2538,1,2549.0,1603009.2999999523,7104,WL,B,8.0
7,17.046000003814697,immed,42953.9999961853,Wed Apr 02 2025 12:15:48 GMT-0500 (Central Daylight Time),1605810.1000000238,A,ca,O,a,247,1,2800.8000000715256,1603009.2999999523,7104,WL,B,8.0
7,18.009999990463257,immed,41990.00000953674,Wed Apr 02 2025 12:15:48 GMT-0500 (Central Daylight Time),1606773.2999999523,A,cab,O,b,946,1,3764.0,1603009.2999999523,7104,WL,B,8.0
7,18.628000020980835,immed,41371.999979019165,Wed Apr 02 2025 12:15:48 GMT-0500 (Central Daylight Time),1607391.3999999762,A,cabi,O,i,597,1,4382.100000023842,1603009.2999999523,7104,WL,B,8.0
7,18.761000156402588,immed,41238.99984359741,Wed Apr 02 2025 12:15:48 GMT-0500 (Central Daylight Time),1607524.5,A,cabin,O,n,124,1,4515.200000047684,1603009.2999999523,7104,WL,B,8.0
7,19.692000150680542,immed,40307.99984931946,Wed Apr 02 2025 12:15:48 GMT-0500 (Central Daylight Time),1608456.2000000477,A,cabinenter,O,enter,911,1,5446.900000095367,1603009.2999999523,7104,WL,B,8.0
7,20.72699999809265,immed,39273.00000190735,Wed Apr 02 2025 12:15:48 GMT-0500 (Central Daylight Time),1609490.3999999762,A,g,O,g,1014,1,1034.0,1608456.3999999762,7104,WL,B,9.0
7,20.960000038146973,immed,39039.99996185303,Wed Apr 02 2025 12:15:48 GMT-0500 (Central Daylight Time),1609724.0,A,gr,O,r,214,1,1267.6000000238419,1608456.3999999762,7104,WL,B,9.0
7,21.16000008583069,immed,38839.99991416931,Wed Apr 02 2025 12:15:48 GMT-0500 (Central Daylight Time),1609923.3999999762,A,gra,O,a,192,1,1467.0,1608456.3999999762,7104,WL,B,9.0
7,22.243000030517578,immed,37756.99996948242,Wed Apr 02 2025 12:15:48 GMT-0500 (Central Daylight Time),1611006.6000000238,A,gras,O,s,1073,1,2550.2000000476837,1608456.3999999762,7104,WL,B,9.0
7,22.41000008583069,immed,37589.99991416931,Wed Apr 02 2025 12:15:48 GMT-0500 (Central Daylight Time),1611174.0,A,grass,O,s,149,1,2717.600000023842,1608456.3999999762,7104,WL,B,9.0
7,22.676000118255615,immed,37323.999881744385,Wed Apr 02 2025 12:15:48 GMT-0500 (Central Daylight Time),1611439.8999999762,A,grassenter,O,enter,252,1,2983.5,1608456.3999999762,7104,WL,B,9.0
7,29.29100012779236,immed,30708.99987220764,Wed Apr 02 2025 12:15:48 GMT-0500 (Central Daylight Time),1618054.8999999762,A,p,O,p,6595,1,6614.799999952316,1611440.1000000238,7104,WL,B,10.0
7,29.841000080108643,immed,30158.999919891357,Wed Apr 02 2025 12:15:48 GMT-0500 (Central Daylight Time),1618604.3999999762,A,pi,O,i,539,1,7164.299999952316,1611440.1000000238,7104,WL,B,10.0
7,30.057000160217285,immed,29942.999839782715,Wed Apr 02 2025 12:15:48 GMT-0500 (Central Daylight Time),1618820.8999999762,A,pip,O,p,204,1,7380.799999952316,1611440.1000000238,7104,WL,B,10.0
7,30.35700011253357,immed,29642.99988746643,Wed Apr 02 2025 12:15:48 GMT-0500 (Central Daylight Time),1619121.1000000238,A,pipe,O,e,286,1,7681.0,1611440.1000000238,7104,WL,B,10.0
7,30.65499997138977,immed,29345.00002861023,Wed Apr 02 2025 12:15:48 GMT-0500 (Central Daylight Time),1619418.8999999762,A,pipeenter,O,enter,280,1,7978.799999952316,1611440.1000000238,7104,WL,B,10.0
7,46.50100016593933,immed,13498.999834060669,Wed Apr 02 2025 12:15:48 GMT-0500 (Central Daylight Time),1635265.6000000238,A,a,O,a,15833,1,15846.5,1619419.1000000238,7104,WL,B,11.0
7,46.9520001411438,immed,13047.999858856201,Wed Apr 02 2025 12:15:48 GMT-0500 (Central Daylight Time),1635715.8999999762,A,ar,O,r,433,1,16296.799999952316,1619419.1000000238,7104,WL,B,11.0
7,47.10300016403198,immed,12896.999835968018,Wed Apr 02 2025 12:15:48 GMT-0500 (Central Daylight Time),1635866.8999999762,A,arm,O,m,144,1,16447.799999952316,1619419.1000000238,7104,WL,B,11.0
7,47.384000062942505,immed,12615.999937057495,Wed Apr 02 2025 12:15:48 GMT-0500 (Central Daylight Time),1636148.1000000238,A,armenter,O,enter,270,1,16729.0,1619419.1000000238,7104,WL,B,11.0
7,49.16700005531311,immed,10832.99994468689,Wed Apr 02 2025 12:15:48 GMT-0500 (Central Daylight Time),1637931.6000000238,A,w,O,w,1769,1,1783.2000000476837,1636148.3999999762,7104,WL,B,12.0
7,49.26800012588501,immed,10731.99987411499,Wed Apr 02 2025 12:15:48 GMT-0500 (Central Daylight Time),1638032.2000000477,A,wi,O,i,78,1,1883.8000000715256,1636148.3999999762,7104,WL,B,12.0
7,49.40000009536743,immed,10599.999904632568,Wed Apr 02 2025 12:15:48 GMT-0500 (Central Daylight Time),1638164.2999999523,A,win,O,n,114,1,2015.8999999761581,1636148.3999999762,7104,WL,B,12.0
7,49.48399996757507,immed,10516.000032424927,Wed Apr 02 2025 12:15:48 GMT-0500 (Central Daylight Time),1638248.2999999523,A,wind,O,d,78,1,2099.899999976158,1636148.3999999762,7104,WL,B,12.0
7,49.616000175476074,immed,10383.999824523926,Wed Apr 02 2025 12:15:48 GMT-0500 (Central Daylight Time),1638380.0,A,windo,O,o,123,1,2231.600000023842,1636148.3999999762,7104,WL,B,12.0
7,49.76600003242493,immed,10233.999967575073,Wed Apr 02 2025 12:15:48 GMT-0500 (Central Daylight Time),1638530.5,A,window,O,w,144,1,2382.100000023842,1636148.3999999762,7104,WL,B,12.0
7,49.95099997520447,immed,10049.000024795532,Wed Apr 02 2025 12:15:48 GMT-0500 (Central Daylight Time),1638714.8999999762,A,windowenter,O,enter,167,1,2566.5,1636148.3999999762,7104,WL,B,12.0
7,53.54900002479553,immed,6450.999975204468,Wed Apr 02 2025 12:15:48 GMT-0500 (Central Daylight Time),1642313.7000000477,A,d,O,d,3576,1,3598.5,1638715.2000000477,7104,WL,B,13.0
7,53.69799995422363,immed,6302.000045776367,Wed Apr 02 2025 12:15:48 GMT-0500 (Central Daylight Time),1642462.2000000477,A,do,O,o,127,1,3747.0,1638715.2000000477,7104,WL,B,13.0
7,53.83200001716614,immed,6167.999982833862,Wed Apr 02 2025 12:15:48 GMT-0500 (Central Daylight Time),1642596.7000000477,A,doo,O,o,127,1,3881.5,1638715.2000000477,7104,WL,B,13.0
7,54.015000104904175,immed,5984.999895095825,Wed Apr 02 2025 12:15:48 GMT-0500 (Central Daylight Time),1642779.2999999523,A,door,O,r,173,1,4064.0999999046326,1638715.2000000477,7104,WL,B,13.0
7,54.199000120162964,immed,5800.999879837036,Wed Apr 02 2025 12:15:48 GMT-0500 (Central Daylight Time),1642963.1000000238,A,doorenter,O,enter,176,1,4247.899999976158,1638715.2000000477,7104,WL,B,13.0
7,60.015000104904175,immed,-15.000104904174805,Wed Apr 02 2025 12:15:48 GMT-0500 (Central Daylight Time),1648778.8999999762,A,None,O,None,5811,1,5815.600000023842,1642963.2999999523,7104,WL,B,14.0
