block_c,block_dur,condition,countdown,datetime,endtime,list,multichar_response,project,response,response_time,session_number,start_end,starttime,subject_id,task,task_vers,trial
,,,,Fri Jan 17 2025 16:19:30 GMT-0600 (Central Standard Time),,,,O,space,680,1,,,7037,WL,B,
prac,,0,,Fri Jan 17 2025 16:19:30 GMT-0600 (Central Standard Time),,NA,b,O,b,5360,1,,,7037,WL,B,1.0
prac,,0,,Fri Jan 17 2025 16:19:30 GMT-0600 (Central Standard Time),,NA,bo,O,o,495,1,,,7037,WL,B,1.0
prac,,0,,Fri Jan 17 2025 16:19:30 GMT-0600 (Central Standard Time),,NA,boo,O,o,154,1,,,7037,WL,B,1.0
prac,,0,,Fri Jan 17 2025 16:19:30 GMT-0600 (Central Standard Time),,NA,boos,O,s,228,1,,,7037,WL,B,1.0
prac,,0,,Fri Jan 17 2025 16:19:30 GMT-0600 (Central Standard Time),,NA,boost,O,t,267,1,,,7037,WL,B,1.0
prac,,0,,Fri Jan 17 2025 16:19:30 GMT-0600 (Central Standard Time),,NA,boostenter,O,enter,535,1,,,7037,WL,B,1.0
1,1.433000087738037,learn,58566.99991226196,Fri Jan 17 2025 16:19:30 GMT-0600 (Central Standard Time),151937.80000000075,A,s,O,s,1410,1,1432.6000000005588,150505.2000000002,7037,WL,B,1.0
1,1.8660001754760742,learn,58133.999824523926,Fri Jan 17 2025 16:19:30 GMT-0600 (Central Standard Time),152371.0,A,st,O,t,415,1,1865.7999999998137,150505.2000000002,7037,WL,B,1.0
1,2.182000160217285,learn,57817.999839782715,Fri Jan 17 2025 16:19:30 GMT-0600 (Central Standard Time),152687.5,A,str,O,r,295,1,2182.2999999998137,150505.2000000002,7037,WL,B,1.0
1,2.381999969482422,learn,57618.00003051758,Fri Jan 17 2025 16:19:30 GMT-0600 (Central Standard Time),152887.5,A,stre,O,e,179,1,2382.2999999998137,150505.2000000002,7037,WL,B,1.0
1,2.5490000247955322,learn,57450.99997520447,Fri Jan 17 2025 16:19:30 GMT-0600 (Central Standard Time),153054.10000000056,A,stree,O,e,147,1,2548.9000000003725,150505.2000000002,7037,WL,B,1.0
1,2.949000120162964,learn,57050.999879837036,Fri Jan 17 2025 16:19:30 GMT-0600 (Central Standard Time),153453.90000000037,A,street,O,t,380,1,2948.7000000001863,150505.2000000002,7037,WL,B,1.0
1,3.381999969482422,learn,56618.00003051758,Fri Jan 17 2025 16:19:30 GMT-0600 (Central Standard Time),153887.0,A,streetg,O,g,412,1,3381.7999999998137,150505.2000000002,7037,WL,B,1.0
1,5.448000192642212,learn,54551.99980735779,Fri Jan 17 2025 16:19:30 GMT-0600 (Central Standard Time),155953.0,A,street,O,backspace,2052,1,5447.799999999814,150505.2000000002,7037,WL,B,1.0
1,7.064000129699707,learn,52935.99987030029,Fri Jan 17 2025 16:19:30 GMT-0600 (Central Standard Time),157569.2000000002,A,streetenter,O,enter,1602,1,7064.0,150505.2000000002,7037,WL,B,1.0
1,7.71399998664856,learn,52286.00001335144,Fri Jan 17 2025 16:19:30 GMT-0600 (Central Standard Time),158219.0,A,g,O,g,633,1,649.1999999992549,157569.80000000075,7037,WL,B,2.0
1,8.097000122070312,learn,51902.99987792969,Fri Jan 17 2025 16:19:30 GMT-0600 (Central Standard Time),158602.2000000002,A,gr,O,r,367,1,1032.3999999994412,157569.80000000075,7037,WL,B,2.0
1,8.297000169754028,learn,51702.99983024597,Fri Jan 17 2025 16:19:30 GMT-0600 (Central Standard Time),158802.10000000056,A,gra,O,a,191,1,1232.2999999998137,157569.80000000075,7037,WL,B,2.0
1,8.52999997138977,learn,51470.00002861023,Fri Jan 17 2025 16:19:30 GMT-0600 (Central Standard Time),159035.5,A,gras,O,s,225,1,1465.699999999255,157569.80000000075,7037,WL,B,2.0
1,8.713000059127808,learn,51286.99994087219,Fri Jan 17 2025 16:19:30 GMT-0600 (Central Standard Time),159218.5,A,grass,O,s,175,1,1648.699999999255,157569.80000000075,7037,WL,B,2.0
1,10.047000169754028,learn,49952.99983024597,Fri Jan 17 2025 16:19:30 GMT-0600 (Central Standard Time),160551.60000000056,A,gras,O,backspace,1320,1,2981.7999999998137,157569.80000000075,7037,WL,B,2.0
1,10.746000051498413,learn,49253.99994850159,Fri Jan 17 2025 16:19:30 GMT-0600 (Central Standard Time),161251.2000000002,A,grass,O,s,691,1,3681.399999999441,157569.80000000075,7037,WL,B,2.0
1,11.27999997138977,learn,48720.00002861023,Fri Jan 17 2025 16:19:30 GMT-0600 (Central Standard Time),161784.60000000056,A,grassenter,O,enter,511,1,4214.799999999814,157569.80000000075,7037,WL,B,2.0
1,13.062000036239624,learn,46937.999963760376,Fri Jan 17 2025 16:19:30 GMT-0600 (Central Standard Time),163567.30000000075,A,p,O,p,1762,1,1782.1000000005588,161785.2000000002,7037,WL,B,3.0
1,14.545000076293945,learn,45454.999923706055,Fri Jan 17 2025 16:19:30 GMT-0600 (Central Standard Time),165050.30000000075,A,pu,O,u,1459,1,3265.100000000559,161785.2000000002,7037,WL,B,3.0
1,15.778000116348267,learn,44221.99988365173,Fri Jan 17 2025 16:19:30 GMT-0600 (Central Standard Time),166283.0,A,pup,O,p,1224,1,4497.799999999814,161785.2000000002,7037,WL,B,3.0
1,16.195000171661377,learn,43804.99982833862,Fri Jan 17 2025 16:19:30 GMT-0600 (Central Standard Time),166699.7000000002,A,pupi,O,i,399,1,4914.5,161785.2000000002,7037,WL,B,3.0
1,16.445000171661377,learn,43554.99982833862,Fri Jan 17 2025 16:19:30 GMT-0600 (Central Standard Time),166949.60000000056,A,pupil,O,l,239,1,5164.4000000003725,161785.2000000002,7037,WL,B,3.0
1,16.84500002861023,learn,43154.99997138977,Fri Jan 17 2025 16:19:30 GMT-0600 (Central Standard Time),167349.60000000056,A,pupilenter,O,enter,381,1,5564.4000000003725,161785.2000000002,7037,WL,B,3.0
1,17.377000093460083,learn,42622.99990653992,Fri Jan 17 2025 16:19:30 GMT-0600 (Central Standard Time),167882.5,A,p,O,p,525,1,532.5,167350.0,7037,WL,B,4.0
1,17.728000164031982,learn,42271.99983596802,Fri Jan 17 2025 16:19:30 GMT-0600 (Central Standard Time),168232.60000000056,A,pi,O,i,336,1,882.6000000005588,167350.0,7037,WL,B,4.0
1,18.177000045776367,learn,41822.99995422363,Fri Jan 17 2025 16:19:30 GMT-0600 (Central Standard Time),168682.5,A,pip,O,p,426,1,1332.5,167350.0,7037,WL,B,4.0
1,18.427000045776367,learn,41572.99995422363,Fri Jan 17 2025 16:19:30 GMT-0600 (Central Standard Time),168932.40000000037,A,pipe,O,e,239,1,1582.4000000003725,167350.0,7037,WL,B,4.0
1,18.960000038146973,learn,41039.99996185303,Fri Jan 17 2025 16:19:30 GMT-0600 (Central Standard Time),169465.40000000037,A,pipeenter,O,enter,518,1,2115.4000000003725,167350.0,7037,WL,B,4.0
1,19.444000005722046,learn,40555.999994277954,Fri Jan 17 2025 16:19:30 GMT-0600 (Central Standard Time),169948.7000000002,A,c,O,c,465,1,482.70000000018626,169466.0,7037,WL,B,5.0
1,19.72699999809265,learn,40273.00000190735,Fri Jan 17 2025 16:19:30 GMT-0600 (Central Standard Time),170232.0,A,ci,O,i,270,1,766.0,169466.0,7037,WL,B,5.0
1,19.927000045776367,learn,40072.99995422363,Fri Jan 17 2025 16:19:30 GMT-0600 (Central Standard Time),170432.10000000056,A,cit,O,t,186,1,966.1000000005588,169466.0,7037,WL,B,5.0
1,20.22699999809265,learn,39773.00000190735,Fri Jan 17 2025 16:19:30 GMT-0600 (Central Standard Time),170731.90000000037,A,city,O,y,291,1,1265.9000000003725,169466.0,7037,WL,B,5.0
1,20.64300012588501,learn,39356.99987411499,Fri Jan 17 2025 16:19:30 GMT-0600 (Central Standard Time),171148.2000000002,A,cityenter,O,enter,406,1,1682.2000000001863,169466.0,7037,WL,B,5.0
1,32.32200002670288,learn,27677.99997329712,Fri Jan 17 2025 16:19:30 GMT-0600 (Central Standard Time),182828.0,A,a,O,a,11662,1,11679.299999999814,171148.7000000002,7037,WL,B,6.0
1,32.539000034332275,learn,27460.999965667725,Fri Jan 17 2025 16:19:30 GMT-0600 (Central Standard Time),183044.7000000002,A,ar,O,r,194,1,11896.0,171148.7000000002,7037,WL,B,6.0
1,32.93900012969971,learn,27060.999870300293,Fri Jan 17 2025 16:19:30 GMT-0600 (Central Standard Time),183444.60000000056,A,arm,O,m,382,1,12295.900000000373,171148.7000000002,7037,WL,B,6.0
1,33.57200002670288,learn,26427.99997329712,Fri Jan 17 2025 16:19:30 GMT-0600 (Central Standard Time),184077.5,A,armenter,O,enter,613,1,12928.799999999814,171148.7000000002,7037,WL,B,6.0
1,36.78800010681152,learn,23211.999893188477,Fri Jan 17 2025 16:19:30 GMT-0600 (Central Standard Time),187293.40000000037,A,f,O,f,3198,1,3215.5,184077.90000000037,7037,WL,B,7.0
1,37.104000091552734,learn,22895.999908447266,Fri Jan 17 2025 16:19:30 GMT-0600 (Central Standard Time),187610.0,A,fi,O,i,309,1,3532.0999999996275,184077.90000000037,7037,WL,B,7.0
1,37.354000091552734,learn,22645.999908447266,Fri Jan 17 2025 16:19:30 GMT-0600 (Central Standard Time),187859.90000000037,A,fir,O,r,233,1,3782.0,184077.90000000037,7037,WL,B,7.0
1,37.604000091552734,learn,22395.999908447266,Fri Jan 17 2025 16:19:30 GMT-0600 (Central Standard Time),188109.90000000037,A,fire,O,e,231,1,4032.0,184077.90000000037,7037,WL,B,7.0
1,38.57000017166138,learn,21429.999828338623,Fri Jan 17 2025 16:19:30 GMT-0600 (Central Standard Time),189076.0,A,fireenter,O,enter,956,1,4998.0999999996275,184077.90000000037,7037,WL,B,7.0
1,45.00100016593933,learn,14998.999834060669,Fri Jan 17 2025 16:19:30 GMT-0600 (Central Standard Time),195507.40000000037,A,s,O,s,6415,1,6431.0,189076.40000000037,7037,WL,B,8.0
1,45.25200009346008,learn,14747.999906539917,Fri Jan 17 2025 16:19:30 GMT-0600 (Central Standard Time),195757.30000000075,A,st,O,t,231,1,6680.9000000003725,189076.40000000037,7037,WL,B,8.0
1,45.50100016593933,learn,14498.999834060669,Fri Jan 17 2025 16:19:30 GMT-0600 (Central Standard Time),196007.2000000002,A,sta,O,a,230,1,6930.799999999814,189076.40000000037,7037,WL,B,8.0
1,45.651000022888184,learn,14348.999977111816,Fri Jan 17 2025 16:19:30 GMT-0600 (Central Standard Time),196157.0,A,star,O,r,139,1,7080.5999999996275,189076.40000000037,7037,WL,B,8.0
1,46.151000022888184,learn,13848.999977111816,Fri Jan 17 2025 16:19:30 GMT-0600 (Central Standard Time),196657.0,A,starenter,O,enter,486,1,7580.5999999996275,189076.40000000037,7037,WL,B,8.0
1,53.51600003242493,learn,6483.999967575073,Fri Jan 17 2025 16:19:30 GMT-0600 (Central Standard Time),204021.40000000037,A,enter,O,enter,7353,1,7363.9000000003725,196657.5,7037,WL,B,9.0
1,60.01400017738342,learn,-14.000177383422852,Fri Jan 17 2025 16:19:30 GMT-0600 (Central Standard Time),210519.30000000075,A,None,O,None,6490,1,6497.5,204021.80000000075,7037,WL,B,10.0
2,6.114000082015991,learn,53885.99991798401,Fri Jan 17 2025 16:19:30 GMT-0600 (Central Standard Time),289294.7000000002,A,c,O,c,6103,1,6114.399999999441,283180.30000000075,7037,WL,B,1.0
2,6.71399998664856,learn,53286.00001335144,Fri Jan 17 2025 16:19:30 GMT-0600 (Central Standard Time),289894.60000000056,A,cl,O,l,580,1,6714.299999999814,283180.30000000075,7037,WL,B,1.0
2,7.081000089645386,learn,52918.999910354614,Fri Jan 17 2025 16:19:30 GMT-0600 (Central Standard Time),290261.0,A,clo,O,o,348,1,7080.699999999255,283180.30000000075,7037,WL,B,1.0
2,7.331000089645386,learn,52668.999910354614,Fri Jan 17 2025 16:19:30 GMT-0600 (Central Standard Time),290511.0,A,cloc,O,c,229,1,7330.699999999255,283180.30000000075,7037,WL,B,1.0
2,7.513999938964844,learn,52486.000061035156,Fri Jan 17 2025 16:19:30 GMT-0600 (Central Standard Time),290694.10000000056,A,clock,O,k,164,1,7513.799999999814,283180.30000000075,7037,WL,B,1.0
2,8.763999938964844,learn,51236.000061035156,Fri Jan 17 2025 16:19:30 GMT-0600 (Central Standard Time),291943.9000000004,A,clockenter,O,enter,1237,1,8763.599999999627,283180.30000000075,7037,WL,B,1.0
2,9.513000011444092,learn,50486.99998855591,Fri Jan 17 2025 16:19:30 GMT-0600 (Central Standard Time),292693.7000000002,A,c,O,c,739,1,749.2999999998137,291944.4000000004,7037,WL,B,2.0
2,9.69700002670288,learn,50302.99997329712,Fri Jan 17 2025 16:19:30 GMT-0600 (Central Standard Time),292877.5,A,ci,O,i,173,1,933.0999999996275,291944.4000000004,7037,WL,B,2.0
2,9.913000106811523,learn,50086.99989318848,Fri Jan 17 2025 16:19:30 GMT-0600 (Central Standard Time),293093.5,A,cit,O,t,197,1,1149.0999999996275,291944.4000000004,7037,WL,B,2.0
2,10.496000051498413,learn,49503.99994850159,Fri Jan 17 2025 16:19:30 GMT-0600 (Central Standard Time),293676.60000000056,A,city,O,y,574,1,1732.2000000001863,291944.4000000004,7037,WL,B,2.0
2,11.746000051498413,learn,48253.99994850159,Fri Jan 17 2025 16:19:30 GMT-0600 (Central Standard Time),294926.4000000004,A,cityenter,O,enter,1230,1,2982.0,291944.4000000004,7037,WL,B,2.0
2,12.446000099182129,learn,47553.99990081787,Fri Jan 17 2025 16:19:30 GMT-0600 (Central Standard Time),295626.0,A,p,O,p,676,1,699.1999999992549,294926.80000000075,7037,WL,B,3.0
2,13.078999996185303,learn,46921.0000038147,Fri Jan 17 2025 16:19:30 GMT-0600 (Central Standard Time),296260.30000000075,A,pi,O,i,625,1,1333.5,294926.80000000075,7037,WL,B,3.0
2,13.378000020980835,learn,46621.999979019165,Fri Jan 17 2025 16:19:30 GMT-0600 (Central Standard Time),296559.10000000056,A,pip,O,p,286,1,1632.2999999998137,294926.80000000075,7037,WL,B,3.0
2,13.59500002861023,learn,46404.99997138977,Fri Jan 17 2025 16:19:30 GMT-0600 (Central Standard Time),296775.9000000004,A,pipe,O,e,196,1,1849.0999999996275,294926.80000000075,7037,WL,B,3.0
2,14.061000108718872,learn,45938.99989128113,Fri Jan 17 2025 16:19:30 GMT-0600 (Central Standard Time),297242.2000000002,A,pipeenter,O,enter,451,1,2315.399999999441,294926.80000000075,7037,WL,B,3.0
2,14.378000020980835,learn,45621.999979019165,Fri Jan 17 2025 16:19:30 GMT-0600 (Central Standard Time),297558.80000000075,A,c,O,c,305,1,316.30000000074506,297242.5,7037,WL,B,4.0
2,14.644999980926514,learn,45355.000019073486,Fri Jan 17 2025 16:19:30 GMT-0600 (Central Standard Time),297825.5,A,ca,O,a,244,1,583.0,297242.5,7037,WL,B,4.0
2,15.028000116348267,learn,44971.99988365173,Fri Jan 17 2025 16:19:30 GMT-0600 (Central Standard Time),298208.60000000056,A,cab,O,b,369,1,966.1000000005588,297242.5,7037,WL,B,4.0
2,15.24399995803833,learn,44756.00004196167,Fri Jan 17 2025 16:19:30 GMT-0600 (Central Standard Time),298425.2000000002,A,cabi,O,i,202,1,1182.7000000001863,297242.5,7037,WL,B,4.0
2,15.511000156402588,learn,44488.99984359741,Fri Jan 17 2025 16:19:30 GMT-0600 (Central Standard Time),298691.9000000004,A,cabin,O,n,250,1,1449.4000000003725,297242.5,7037,WL,B,4.0
2,15.861000061035156,learn,44138.999938964844,Fri Jan 17 2025 16:19:30 GMT-0600 (Central Standard Time),299042.2000000002,A,cabinenter,O,enter,342,1,1799.7000000001863,297242.5,7037,WL,B,4.0
2,16.261000156402588,learn,43738.99984359741,Fri Jan 17 2025 16:19:30 GMT-0600 (Central Standard Time),299441.5,A,l,O,l,384,1,398.8999999994412,299042.60000000056,7037,WL,B,5.0
2,16.460999965667725,learn,43539.000034332275,Fri Jan 17 2025 16:19:30 GMT-0600 (Central Standard Time),299641.4000000004,A,la,O,a,178,1,598.7999999998137,299042.60000000056,7037,WL,B,5.0
2,16.811000108718872,learn,43188.99989128113,Fri Jan 17 2025 16:19:30 GMT-0600 (Central Standard Time),299991.4000000004,A,lak,O,k,329,1,948.7999999998137,299042.60000000056,7037,WL,B,5.0
2,17.011000156402588,learn,42988.99984359741,Fri Jan 17 2025 16:19:30 GMT-0600 (Central Standard Time),300191.4000000004,A,lake,O,e,187,1,1148.7999999998137,299042.60000000056,7037,WL,B,5.0
2,17.8270001411438,learn,42172.9998588562,Fri Jan 17 2025 16:19:30 GMT-0600 (Central Standard Time),301007.80000000075,A,lakeenter,O,enter,796,1,1965.2000000001863,299042.60000000056,7037,WL,B,5.0
2,19.193000078201294,learn,40806.999921798706,Fri Jan 17 2025 16:19:30 GMT-0600 (Central Standard Time),302374.0,A,s,O,s,1347,1,1366.0,301008.0,7037,WL,B,6.0
2,19.493000030517578,learn,40506.99996948242,Fri Jan 17 2025 16:19:30 GMT-0600 (Central Standard Time),302674.0,A,st,O,t,277,1,1666.0,301008.0,7037,WL,B,6.0
2,19.776000022888184,learn,40223.99997711182,Fri Jan 17 2025 16:19:30 GMT-0600 (Central Standard Time),302957.0,A,str,O,r,265,1,1949.0,301008.0,7037,WL,B,6.0
2,20.026999950408936,learn,39973.000049591064,Fri Jan 17 2025 16:19:30 GMT-0600 (Central Standard Time),303208.10000000056,A,stre,O,e,229,1,2200.100000000559,301008.0,7037,WL,B,6.0
2,20.12600016593933,learn,39873.99983406067,Fri Jan 17 2025 16:19:30 GMT-0600 (Central Standard Time),303307.10000000056,A,stree,O,e,83,1,2299.100000000559,301008.0,7037,WL,B,6.0
2,20.509000062942505,learn,39490.999937057495,Fri Jan 17 2025 16:19:30 GMT-0600 (Central Standard Time),303690.2000000002,A,street,O,t,360,1,2682.2000000001863,301008.0,7037,WL,B,6.0
2,20.993000030517578,learn,39006.99996948242,Fri Jan 17 2025 16:19:30 GMT-0600 (Central Standard Time),304173.60000000056,A,streetenter,O,enter,473,1,3165.600000000559,301008.0,7037,WL,B,6.0
2,22.924999952316284,learn,37075.000047683716,Fri Jan 17 2025 16:19:30 GMT-0600 (Central Standard Time),306106.2000000002,A,w,O,w,1926,1,1932.2999999998137,304173.9000000004,7037,WL,B,7.0
2,23.27500009536743,learn,36724.99990463257,Fri Jan 17 2025 16:19:30 GMT-0600 (Central Standard Time),306456.0,A,wi,O,i,329,1,2282.0999999996275,304173.9000000004,7037,WL,B,7.0
2,23.492000102996826,learn,36507.999897003174,Fri Jan 17 2025 16:19:30 GMT-0600 (Central Standard Time),306672.7000000002,A,wif,O,f,195,1,2498.7999999998137,304173.9000000004,7037,WL,B,7.0
2,23.725000143051147,learn,36274.99985694885,Fri Jan 17 2025 16:19:30 GMT-0600 (Central Standard Time),306905.9000000004,A,wife,O,e,218,1,2732.0,304173.9000000004,7037,WL,B,7.0
2,24.058000087738037,learn,35941.99991226196,Fri Jan 17 2025 16:19:30 GMT-0600 (Central Standard Time),307239.10000000056,A,wifeenter,O,enter,321,1,3065.2000000001863,304173.9000000004,7037,WL,B,7.0
2,24.29100012779236,learn,35708.99987220764,Fri Jan 17 2025 16:19:30 GMT-0600 (Central Standard Time),307472.4000000004,A,w,O,w,212,1,233.0,307239.4000000004,7037,WL,B,8.0
2,24.575000047683716,learn,35424.999952316284,Fri Jan 17 2025 16:19:30 GMT-0600 (Central Standard Time),307755.7000000002,A,wi,O,i,267,1,516.2999999998137,307239.4000000004,7037,WL,B,8.0
2,24.842000007629395,learn,35157.999992370605,Fri Jan 17 2025 16:19:30 GMT-0600 (Central Standard Time),308022.4000000004,A,win,O,n,247,1,783.0,307239.4000000004,7037,WL,B,8.0
2,24.975000143051147,learn,35024.99985694885,Fri Jan 17 2025 16:19:30 GMT-0600 (Central Standard Time),308155.60000000056,A,wind,O,d,116,1,916.2000000001863,307239.4000000004,7037,WL,B,8.0
2,25.325000047683716,learn,34674.999952316284,Fri Jan 17 2025 16:19:30 GMT-0600 (Central Standard Time),308505.4000000004,A,windo,O,o,335,1,1266.0,307239.4000000004,7037,WL,B,8.0
2,25.508000135421753,learn,34491.99986457825,Fri Jan 17 2025 16:19:30 GMT-0600 (Central Standard Time),308688.5,A,window,O,w,169,1,1449.0999999996275,307239.4000000004,7037,WL,B,8.0
2,26.091000080108643,learn,33908.99991989136,Fri Jan 17 2025 16:19:30 GMT-0600 (Central Standard Time),309271.9000000004,A,windowenter,O,enter,571,1,2032.5,307239.4000000004,7037,WL,B,8.0
2,27.407000064849854,learn,32592.999935150146,Fri Jan 17 2025 16:19:30 GMT-0600 (Central Standard Time),310587.60000000056,A,s,O,s,1298,1,1315.4000000003725,309272.2000000002,7037,WL,B,9.0
2,27.758000135421753,learn,32241.999864578247,Fri Jan 17 2025 16:19:30 GMT-0600 (Central Standard Time),310938.60000000056,A,st,O,t,327,1,1666.4000000003725,309272.2000000002,7037,WL,B,9.0
2,28.072999954223633,learn,31927.000045776367,Fri Jan 17 2025 16:19:30 GMT-0600 (Central Standard Time),311254.2000000002,A,str,O,r,303,1,1982.0,309272.2000000002,7037,WL,B,9.0
2,28.35700011253357,learn,31642.99988746643,Fri Jan 17 2025 16:19:30 GMT-0600 (Central Standard Time),311537.60000000056,A,stre,O,e,268,1,2265.4000000003725,309272.2000000002,7037,WL,B,9.0
2,28.54100012779236,learn,31458.99987220764,Fri Jan 17 2025 16:19:30 GMT-0600 (Central Standard Time),311721.4000000004,A,stree,O,e,162,1,2449.2000000001863,309272.2000000002,7037,WL,B,9.0
2,28.822999954223633,learn,31177.000045776367,Fri Jan 17 2025 16:19:30 GMT-0600 (Central Standard Time),312004.30000000075,A,street,O,t,265,1,2732.100000000559,309272.2000000002,7037,WL,B,9.0
2,30.123000144958496,learn,29876.999855041504,Fri Jan 17 2025 16:19:30 GMT-0600 (Central Standard Time),313304.0,A,stree,O,backspace,1278,1,4031.7999999998137,309272.2000000002,7037,WL,B,9.0
2,30.572999954223633,learn,29427.000045776367,Fri Jan 17 2025 16:19:30 GMT-0600 (Central Standard Time),313753.80000000075,A,streeenter,O,enter,435,1,4481.600000000559,309272.2000000002,7037,WL,B,9.0
2,31.939000129699707,learn,28060.999870300293,Fri Jan 17 2025 16:19:30 GMT-0600 (Central Standard Time),315120.10000000056,A,g,O,g,1346,1,1365.9000000003725,313754.2000000002,7037,WL,B,10.0
2,32.22200012207031,learn,27777.999877929688,Fri Jan 17 2025 16:19:30 GMT-0600 (Central Standard Time),315402.9000000004,A,gr,O,r,267,1,1648.7000000001863,313754.2000000002,7037,WL,B,10.0
2,32.456000089645386,learn,27543.999910354614,Fri Jan 17 2025 16:19:30 GMT-0600 (Central Standard Time),315636.4000000004,A,gra,O,a,216,1,1882.2000000001863,313754.2000000002,7037,WL,B,10.0
2,32.73900008201599,learn,27260.99991798401,Fri Jan 17 2025 16:19:30 GMT-0600 (Central Standard Time),315920.0,A,gras,O,s,262,1,2165.7999999998137,313754.2000000002,7037,WL,B,10.0
2,32.92199993133545,learn,27078.00006866455,Fri Jan 17 2025 16:19:30 GMT-0600 (Central Standard Time),316102.80000000075,A,grass,O,s,171,1,2348.600000000559,313754.2000000002,7037,WL,B,10.0
2,33.623000144958496,learn,26376.999855041504,Fri Jan 17 2025 16:19:30 GMT-0600 (Central Standard Time),316803.9000000004,A,grassenter,O,enter,692,1,3049.7000000001863,313754.2000000002,7037,WL,B,10.0
2,35.22099995613098,learn,24779.00004386902,Fri Jan 17 2025 16:19:30 GMT-0600 (Central Standard Time),318402.2000000002,A,s,O,s,1575,1,1597.8999999994412,316804.30000000075,7037,WL,B,11.0
2,35.521000146865845,learn,24478.999853134155,Fri Jan 17 2025 16:19:30 GMT-0600 (Central Standard Time),318702.2000000002,A,st,O,t,289,1,1897.8999999994412,316804.30000000075,7037,WL,B,11.0
2,35.87000012397766,learn,24129.99987602234,Fri Jan 17 2025 16:19:30 GMT-0600 (Central Standard Time),319050.80000000075,A,sta,O,a,341,1,2246.5,316804.30000000075,7037,WL,B,11.0
2,35.97099995613098,learn,24029.00004386902,Fri Jan 17 2025 16:19:30 GMT-0600 (Central Standard Time),319152.10000000056,A,star,O,r,78,1,2347.7999999998137,316804.30000000075,7037,WL,B,11.0
2,36.5550000667572,learn,23444.999933242798,Fri Jan 17 2025 16:19:30 GMT-0600 (Central Standard Time),319735.60000000056,A,starenter,O,enter,562,1,2931.2999999998137,316804.30000000075,7037,WL,B,11.0
2,48.1010000705719,learn,11898.9999294281,Fri Jan 17 2025 16:19:30 GMT-0600 (Central Standard Time),331281.60000000056,A,p,O,p,11524,1,11545.600000000559,319736.0,7037,WL,B,12.0
2,48.83400011062622,learn,11165.99988937378,Fri Jan 17 2025 16:19:30 GMT-0600 (Central Standard Time),332014.7000000002,A,pu,O,u,721,1,12278.700000000186,319736.0,7037,WL,B,12.0
2,49.33400011062622,learn,10665.99988937378,Fri Jan 17 2025 16:19:30 GMT-0600 (Central Standard Time),332514.4000000004,A,pup,O,p,485,1,12778.400000000373,319736.0,7037,WL,B,12.0
2,49.81700015068054,learn,10182.999849319458,Fri Jan 17 2025 16:19:30 GMT-0600 (Central Standard Time),332997.7000000002,A,pupi,O,i,464,1,13261.700000000186,319736.0,7037,WL,B,12.0
2,50.117000102996826,learn,9882.999897003174,Fri Jan 17 2025 16:19:30 GMT-0600 (Central Standard Time),333297.7000000002,A,pupil,O,l,277,1,13561.700000000186,319736.0,7037,WL,B,12.0
2,50.56599998474121,learn,9434.000015258789,Fri Jan 17 2025 16:19:30 GMT-0600 (Central Standard Time),333747.4000000004,A,pupilenter,O,enter,441,1,14011.400000000373,319736.0,7037,WL,B,12.0
2,60.013999938964844,learn,-13.99993896484375,Fri Jan 17 2025 16:19:30 GMT-0600 (Central Standard Time),343194.4000000004,A,None,O,None,9440,1,9446.900000000373,333747.5,7037,WL,B,13.0
3,1.866999864578247,learn,58133.00013542175,Fri Jan 17 2025 16:19:30 GMT-0600 (Central Standard Time),415671.9000000004,A,d,O,d,1853,1,1865.7000000001863,413806.2000000002,7037,WL,B,1.0
3,2.2820000648498535,learn,57717.99993515015,Fri Jan 17 2025 16:19:30 GMT-0600 (Central Standard Time),416088.30000000075,A,do,O,o,394,1,2282.100000000559,413806.2000000002,7037,WL,B,1.0
3,2.4660000801086426,learn,57533.99991989136,Fri Jan 17 2025 16:19:30 GMT-0600 (Central Standard Time),416271.80000000075,A,doo,O,o,170,1,2465.600000000559,413806.2000000002,7037,WL,B,1.0
3,2.631999969482422,learn,57368.00003051758,Fri Jan 17 2025 16:19:30 GMT-0600 (Central Standard Time),416438.2000000002,A,door,O,r,147,1,2632.0,413806.2000000002,7037,WL,B,1.0
3,3.431999921798706,learn,56568.000078201294,Fri Jan 17 2025 16:19:30 GMT-0600 (Central Standard Time),417238.2000000002,A,doorenter,O,enter,788,1,3432.0,413806.2000000002,7037,WL,B,1.0
3,3.931999921798706,learn,56068.000078201294,Fri Jan 17 2025 16:19:30 GMT-0600 (Central Standard Time),417737.80000000075,A,s,O,s,477,1,499.30000000074506,417238.5,7037,WL,B,2.0
3,4.249000072479248,learn,55750.99992752075,Fri Jan 17 2025 16:19:30 GMT-0600 (Central Standard Time),418054.4000000004,A,st,O,t,305,1,815.9000000003725,417238.5,7037,WL,B,2.0
3,4.497999906539917,learn,55502.00009346008,Fri Jan 17 2025 16:19:30 GMT-0600 (Central Standard Time),418304.30000000075,A,sta,O,a,236,1,1065.800000000745,417238.5,7037,WL,B,2.0
3,4.648000001907349,learn,55351.99999809265,Fri Jan 17 2025 16:19:30 GMT-0600 (Central Standard Time),418454.4000000004,A,star,O,r,138,1,1215.9000000003725,417238.5,7037,WL,B,2.0
3,5.181999921798706,learn,54818.000078201294,Fri Jan 17 2025 16:19:30 GMT-0600 (Central Standard Time),418987.5,A,starenter,O,enter,516,1,1749.0,417238.5,7037,WL,B,2.0
3,5.730999946594238,learn,54269.00005340576,Fri Jan 17 2025 16:19:30 GMT-0600 (Central Standard Time),419537.2000000002,A,c,O,c,528,1,549.3999999994412,418987.80000000075,7037,WL,B,3.0
3,5.966000080108643,learn,54033.99991989136,Fri Jan 17 2025 16:19:30 GMT-0600 (Central Standard Time),419771.80000000075,A,cl,O,l,226,1,784.0,418987.80000000075,7037,WL,B,3.0
3,6.331000089645386,learn,53668.999910354614,Fri Jan 17 2025 16:19:30 GMT-0600 (Central Standard Time),420136.9000000004,A,clo,O,o,351,1,1149.0999999996275,418987.80000000075,7037,WL,B,3.0
3,6.547999858856201,learn,53452.0001411438,Fri Jan 17 2025 16:19:30 GMT-0600 (Central Standard Time),420353.7000000002,A,cloc,O,c,202,1,1365.8999999994412,418987.80000000075,7037,WL,B,3.0
3,6.766000032424927,learn,53233.99996757507,Fri Jan 17 2025 16:19:30 GMT-0600 (Central Standard Time),420571.5,A,clock,O,k,202,1,1583.699999999255,418987.80000000075,7037,WL,B,3.0
3,7.180999994277954,learn,52819.000005722046,Fri Jan 17 2025 16:19:30 GMT-0600 (Central Standard Time),420986.80000000075,A,clockenter,O,enter,407,1,1999.0,418987.80000000075,7037,WL,B,3.0
3,7.88100004196167,learn,52118.99995803833,Fri Jan 17 2025 16:19:30 GMT-0600 (Central Standard Time),421686.7000000002,A,f,O,f,681,1,699.7000000001863,420987.0,7037,WL,B,4.0
3,8.180000066757202,learn,51819.9999332428,Fri Jan 17 2025 16:19:30 GMT-0600 (Central Standard Time),421986.30000000075,A,fi,O,i,292,1,999.3000000007451,420987.0,7037,WL,B,4.0
3,8.480999946594238,learn,51519.00005340576,Fri Jan 17 2025 16:19:30 GMT-0600 (Central Standard Time),422286.5,A,fir,O,r,281,1,1299.5,420987.0,7037,WL,B,4.0
3,8.69700002670288,learn,51302.99997329712,Fri Jan 17 2025 16:19:30 GMT-0600 (Central Standard Time),422503.2000000002,A,fire,O,e,204,1,1516.2000000001863,420987.0,7037,WL,B,4.0
3,9.114000082015991,learn,50885.99991798401,Fri Jan 17 2025 16:19:30 GMT-0600 (Central Standard Time),422919.7000000002,A,fireenter,O,enter,404,1,1932.7000000001863,420987.0,7037,WL,B,4.0
3,9.54699993133545,learn,50453.00006866455,Fri Jan 17 2025 16:19:30 GMT-0600 (Central Standard Time),423352.9000000004,A,s,O,s,412,1,432.90000000037253,422920.0,7037,WL,B,5.0
3,10.062999963760376,learn,49937.000036239624,Fri Jan 17 2025 16:19:30 GMT-0600 (Central Standard Time),423869.0,A,st,O,t,505,1,949.0,422920.0,7037,WL,B,5.0
3,10.412999868392944,learn,49587.000131607056,Fri Jan 17 2025 16:19:30 GMT-0600 (Central Standard Time),424219.0,A,str,O,r,342,1,1299.0,422920.0,7037,WL,B,5.0
3,10.730000019073486,learn,49269.999980926514,Fri Jan 17 2025 16:19:30 GMT-0600 (Central Standard Time),424535.7000000002,A,stre,O,e,296,1,1615.7000000001863,422920.0,7037,WL,B,5.0
3,10.94599986076355,learn,49054.00013923645,Fri Jan 17 2025 16:19:30 GMT-0600 (Central Standard Time),424752.4000000004,A,stree,O,e,203,1,1832.4000000003725,422920.0,7037,WL,B,5.0
3,11.246000051498413,learn,48753.99994850159,Fri Jan 17 2025 16:19:30 GMT-0600 (Central Standard Time),425052.2000000002,A,street,O,t,283,1,2132.2000000001863,422920.0,7037,WL,B,5.0
3,11.680000066757202,learn,48319.9999332428,Fri Jan 17 2025 16:19:30 GMT-0600 (Central Standard Time),425485.5,A,streetenter,O,enter,423,1,2565.5,422920.0,7037,WL,B,5.0
3,11.928999900817871,learn,48071.00009918213,Fri Jan 17 2025 16:19:30 GMT-0600 (Central Standard Time),425735.30000000075,A,g,O,g,230,1,249.30000000074506,425486.0,7037,WL,B,6.0
3,12.229000091552734,learn,47770.999908447266,Fri Jan 17 2025 16:19:30 GMT-0600 (Central Standard Time),426035.2000000002,A,gr,O,r,283,1,549.2000000001863,425486.0,7037,WL,B,6.0
3,12.463000059127808,learn,47536.99994087219,Fri Jan 17 2025 16:19:30 GMT-0600 (Central Standard Time),426268.5,A,gra,O,a,216,1,782.5,425486.0,7037,WL,B,6.0
3,12.763000011444092,learn,47236.99998855591,Fri Jan 17 2025 16:19:30 GMT-0600 (Central Standard Time),426568.4000000004,A,gras,O,s,286,1,1082.4000000003725,425486.0,7037,WL,B,6.0
3,12.979000091552734,learn,47020.999908447266,Fri Jan 17 2025 16:19:30 GMT-0600 (Central Standard Time),426784.9000000004,A,grass,O,s,194,1,1298.9000000003725,425486.0,7037,WL,B,6.0
3,13.578999996185303,learn,46421.0000038147,Fri Jan 17 2025 16:19:30 GMT-0600 (Central Standard Time),427385.0,A,grassenter,O,enter,578,1,1899.0,425486.0,7037,WL,B,6.0
3,14.661999940872192,learn,45338.00005912781,Fri Jan 17 2025 16:19:30 GMT-0600 (Central Standard Time),428467.80000000075,A,w,O,w,1066,1,1082.5,427385.30000000075,7037,WL,B,7.0
3,14.92799997329712,learn,45072.00002670288,Fri Jan 17 2025 16:19:30 GMT-0600 (Central Standard Time),428734.4000000004,A,wi,O,i,247,1,1349.0999999996275,427385.30000000075,7037,WL,B,7.0
3,15.09500002861023,learn,44904.99997138977,Fri Jan 17 2025 16:19:30 GMT-0600 (Central Standard Time),428901.0,A,wif,O,f,156,1,1515.699999999255,427385.30000000075,7037,WL,B,7.0
3,15.394999980926514,learn,44605.000019073486,Fri Jan 17 2025 16:19:30 GMT-0600 (Central Standard Time),429201.0,A,wife,O,e,286,1,1815.699999999255,427385.30000000075,7037,WL,B,7.0
3,15.744999885559082,learn,44255.00011444092,Fri Jan 17 2025 16:19:30 GMT-0600 (Central Standard Time),429551.0,A,wifeenter,O,enter,330,1,2165.699999999255,427385.30000000075,7037,WL,B,7.0
3,16.045000076293945,learn,43954.999923706055,Fri Jan 17 2025 16:19:30 GMT-0600 (Central Standard Time),429850.80000000075,A,w,O,w,285,1,299.6000000005588,429551.2000000002,7037,WL,B,8.0
3,16.277999877929688,learn,43722.00012207031,Fri Jan 17 2025 16:19:30 GMT-0600 (Central Standard Time),430084.0,A,wi,O,i,216,1,532.7999999998137,429551.2000000002,7037,WL,B,8.0
3,16.66100001335144,learn,43338.99998664856,Fri Jan 17 2025 16:19:30 GMT-0600 (Central Standard Time),430467.2000000002,A,win,O,n,375,1,916.0,429551.2000000002,7037,WL,B,8.0
3,16.878000020980835,learn,43121.999979019165,Fri Jan 17 2025 16:19:30 GMT-0600 (Central Standard Time),430683.9000000004,A,wind,O,d,208,1,1132.7000000001863,429551.2000000002,7037,WL,B,8.0
3,17.16100001335144,learn,42838.99998664856,Fri Jan 17 2025 16:19:30 GMT-0600 (Central Standard Time),430967.30000000075,A,windo,O,o,271,1,1416.1000000005588,429551.2000000002,7037,WL,B,8.0
3,17.310999870300293,learn,42689.00012969971,Fri Jan 17 2025 16:19:30 GMT-0600 (Central Standard Time),431117.0,A,window,O,w,132,1,1565.7999999998137,429551.2000000002,7037,WL,B,8.0
3,17.861000061035156,learn,42138.999938964844,Fri Jan 17 2025 16:19:30 GMT-0600 (Central Standard Time),431666.5,A,windowenter,O,enter,542,1,2115.2999999998137,429551.2000000002,7037,WL,B,8.0
3,18.51099991798401,learn,41489.00008201599,Fri Jan 17 2025 16:19:30 GMT-0600 (Central Standard Time),432316.80000000075,A,a,O,a,633,1,649.8000000007451,431667.0,7037,WL,B,9.0
3,18.776999950408936,learn,41223.000049591064,Fri Jan 17 2025 16:19:30 GMT-0600 (Central Standard Time),432583.2000000002,A,ar,O,r,246,1,916.2000000001863,431667.0,7037,WL,B,9.0
3,19.043999910354614,learn,40956.000089645386,Fri Jan 17 2025 16:19:30 GMT-0600 (Central Standard Time),432849.9000000004,A,arm,O,m,252,1,1182.9000000003725,431667.0,7037,WL,B,9.0
3,20.14299988746643,learn,39857.00011253357,Fri Jan 17 2025 16:19:30 GMT-0600 (Central Standard Time),433949.4000000004,A,armenter,O,enter,1089,1,2282.4000000003725,431667.0,7037,WL,B,9.0
3,22.325999975204468,learn,37674.00002479553,Fri Jan 17 2025 16:19:30 GMT-0600 (Central Standard Time),436132.10000000056,A,l,O,l,2174,1,2182.5,433949.60000000056,7037,WL,B,10.0
3,22.55900001525879,learn,37440.99998474121,Fri Jan 17 2025 16:19:30 GMT-0600 (Central Standard Time),436365.30000000075,A,la,O,a,223,1,2415.7000000001863,433949.60000000056,7037,WL,B,10.0
3,22.823999881744385,learn,37176.000118255615,Fri Jan 17 2025 16:19:30 GMT-0600 (Central Standard Time),436629.4000000004,A,lak,O,k,257,1,2679.7999999998137,433949.60000000056,7037,WL,B,10.0
3,22.97099995613098,learn,37029.00004386902,Fri Jan 17 2025 16:19:30 GMT-0600 (Central Standard Time),436776.7000000002,A,lake,O,e,139,1,2827.0999999996275,433949.60000000056,7037,WL,B,10.0
3,23.443000078201294,learn,36556.999921798706,Fri Jan 17 2025 16:19:30 GMT-0600 (Central Standard Time),437248.4000000004,A,lakeenter,O,enter,458,1,3298.7999999998137,433949.60000000056,7037,WL,B,10.0
3,23.79200005531311,learn,36207.99994468689,Fri Jan 17 2025 16:19:30 GMT-0600 (Central Standard Time),437598.2000000002,A,c,O,c,339,1,349.5,437248.7000000002,7037,WL,B,11.0
3,24.05900001525879,learn,35940.99998474121,Fri Jan 17 2025 16:19:30 GMT-0600 (Central Standard Time),437864.9000000004,A,ca,O,a,253,1,616.2000000001863,437248.7000000002,7037,WL,B,11.0
3,24.441999912261963,learn,35558.00008773804,Fri Jan 17 2025 16:19:30 GMT-0600 (Central Standard Time),438248.10000000056,A,cab,O,b,362,1,999.4000000003725,437248.7000000002,7037,WL,B,11.0
3,24.741999864578247,learn,35258.00013542175,Fri Jan 17 2025 16:19:30 GMT-0600 (Central Standard Time),438548.10000000056,A,cabi,O,i,290,1,1299.4000000003725,437248.7000000002,7037,WL,B,11.0
3,25.05900001525879,learn,34940.99998474121,Fri Jan 17 2025 16:19:30 GMT-0600 (Central Standard Time),438864.7000000002,A,cabin,O,n,303,1,1616.0,437248.7000000002,7037,WL,B,11.0
3,26.092000007629395,learn,33907.999992370605,Fri Jan 17 2025 16:19:30 GMT-0600 (Central Standard Time),439897.60000000056,A,cabinenter,O,enter,1010,1,2648.9000000003725,437248.7000000002,7037,WL,B,11.0
3,29.990999937057495,learn,30009.000062942505,Fri Jan 17 2025 16:19:30 GMT-0600 (Central Standard Time),443797.30000000075,A,p,O,p,3888,1,3899.2000000001863,439898.10000000056,7037,WL,B,12.0
3,30.407000064849854,learn,29592.999935150146,Fri Jan 17 2025 16:19:30 GMT-0600 (Central Standard Time),444212.7000000002,A,pu,O,u,397,1,4314.5999999996275,439898.10000000056,7037,WL,B,12.0
3,30.907000064849854,learn,29092.999935150146,Fri Jan 17 2025 16:19:30 GMT-0600 (Central Standard Time),444712.4000000004,A,pup,O,p,487,1,4814.299999999814,439898.10000000056,7037,WL,B,12.0
3,31.223000049591064,learn,28776.999950408936,Fri Jan 17 2025 16:19:30 GMT-0600 (Central Standard Time),445029.0,A,pupi,O,i,299,1,5130.899999999441,439898.10000000056,7037,WL,B,12.0
3,31.473000049591064,learn,28526.999950408936,Fri Jan 17 2025 16:19:30 GMT-0600 (Central Standard Time),445278.80000000075,A,pupil,O,l,238,1,5380.700000000186,439898.10000000056,7037,WL,B,12.0
3,31.990000009536743,learn,28009.999990463257,Fri Jan 17 2025 16:19:30 GMT-0600 (Central Standard Time),445795.80000000075,A,pupilenter,O,enter,500,1,5897.700000000186,439898.10000000056,7037,WL,B,12.0
3,36.32200002670288,learn,23677.99997329712,Fri Jan 17 2025 16:19:30 GMT-0600 (Central Standard Time),450127.7000000002,A,c,O,c,4311,1,4331.399999999441,445796.30000000075,7037,WL,B,13.0
3,36.5220000743866,learn,23477.999925613403,Fri Jan 17 2025 16:19:30 GMT-0600 (Central Standard Time),450327.60000000056,A,ci,O,i,187,1,4531.299999999814,445796.30000000075,7037,WL,B,13.0
3,36.75499987602234,learn,23245.00012397766,Fri Jan 17 2025 16:19:30 GMT-0600 (Central Standard Time),450560.9000000004,A,cit,O,t,211,1,4764.5999999996275,445796.30000000075,7037,WL,B,13.0
3,37.07200002670288,learn,22927.99997329712,Fri Jan 17 2025 16:19:30 GMT-0600 (Central Standard Time),450877.60000000056,A,city,O,y,306,1,5081.299999999814,445796.30000000075,7037,WL,B,13.0
3,37.58800005912781,learn,22411.999940872192,Fri Jan 17 2025 16:19:30 GMT-0600 (Central Standard Time),451394.10000000056,A,cityenter,O,enter,493,1,5597.799999999814,445796.30000000075,7037,WL,B,13.0
3,60.013999938964844,learn,-13.99993896484375,Fri Jan 17 2025 16:19:30 GMT-0600 (Central Standard Time),473820.2000000002,A,None,O,None,22419,1,22425.799999999814,451394.4000000004,7037,WL,B,14.0
4,2.5990002155303955,learn,57400.999784469604,Fri Jan 17 2025 16:19:30 GMT-0600 (Central Standard Time),546647.6000000006,A,s,O,s,2579,1,2599.100000000559,544048.5,7037,WL,B,1.0
4,2.949000120162964,learn,57050.999879837036,Fri Jan 17 2025 16:19:30 GMT-0600 (Central Standard Time),546997.4000000004,A,sk,O,k,339,1,2948.9000000003725,544048.5,7037,WL,B,1.0
4,3.31600022315979,learn,56683.99977684021,Fri Jan 17 2025 16:19:30 GMT-0600 (Central Standard Time),547364.1000000006,A,ski,O,i,350,1,3315.600000000559,544048.5,7037,WL,B,1.0
4,3.5990002155303955,learn,56400.999784469604,Fri Jan 17 2025 16:19:30 GMT-0600 (Central Standard Time),547647.2000000002,A,skin,O,n,263,1,3598.7000000001863,544048.5,7037,WL,B,1.0
4,4.632000207901001,learn,55367.999792099,Fri Jan 17 2025 16:19:30 GMT-0600 (Central Standard Time),548680.0,A,skinenter,O,enter,1020,1,4631.5,544048.5,7037,WL,B,1.0
4,5.2820000648498535,learn,54717.99993515015,Fri Jan 17 2025 16:19:30 GMT-0600 (Central Standard Time),549330.0,A,f,O,f,636,1,649.7999999998137,548680.2000000002,7037,WL,B,2.0
4,5.615000009536743,learn,54384.99999046326,Fri Jan 17 2025 16:19:30 GMT-0600 (Central Standard Time),549663.2000000002,A,fi,O,i,313,1,983.0,548680.2000000002,7037,WL,B,2.0
4,5.7820000648498535,learn,54217.99993515015,Fri Jan 17 2025 16:19:30 GMT-0600 (Central Standard Time),549830.2000000002,A,fir,O,r,148,1,1150.0,548680.2000000002,7037,WL,B,2.0
4,5.981000185012817,learn,54018.99981498718,Fri Jan 17 2025 16:19:30 GMT-0600 (Central Standard Time),550029.9000000004,A,fire,O,e,181,1,1349.7000000001863,548680.2000000002,7037,WL,B,2.0
4,6.6650002002716064,learn,53334.99979972839,Fri Jan 17 2025 16:19:30 GMT-0600 (Central Standard Time),550713.1000000006,A,fireenter,O,enter,669,1,2032.9000000003725,548680.2000000002,7037,WL,B,2.0
4,7.29800009727478,learn,52701.99990272522,Fri Jan 17 2025 16:19:30 GMT-0600 (Central Standard Time),551346.3000000007,A,c,O,c,610,1,632.9000000003725,550713.4000000004,7037,WL,B,3.0
4,7.581000089645386,learn,52418.999910354614,Fri Jan 17 2025 16:19:30 GMT-0600 (Central Standard Time),551629.4000000004,A,ca,O,a,265,1,916.0,550713.4000000004,7037,WL,B,3.0
4,7.914000034332275,learn,52085.999965667725,Fri Jan 17 2025 16:19:30 GMT-0600 (Central Standard Time),551962.7000000002,A,cab,O,b,317,1,1249.2999999998137,550713.4000000004,7037,WL,B,3.0
4,8.180999994277954,learn,51819.000005722046,Fri Jan 17 2025 16:19:30 GMT-0600 (Central Standard Time),552229.1000000006,A,cabi,O,i,248,1,1515.7000000001863,550713.4000000004,7037,WL,B,3.0
4,8.397000074386597,learn,51602.9999256134,Fri Jan 17 2025 16:19:30 GMT-0600 (Central Standard Time),552445.8000000007,A,cabin,O,n,206,1,1732.4000000003725,550713.4000000004,7037,WL,B,3.0
4,9.03000020980835,learn,50969.99979019165,Fri Jan 17 2025 16:19:30 GMT-0600 (Central Standard Time),553078.8000000007,A,cabinenter,O,enter,614,1,2365.4000000003725,550713.4000000004,7037,WL,B,3.0
4,9.480000019073486,learn,50519.999980926514,Fri Jan 17 2025 16:19:30 GMT-0600 (Central Standard Time),553528.9000000004,A,l,O,l,429,1,449.79999999981374,553079.1000000006,7037,WL,B,4.0
4,9.86300015449524,learn,50136.99984550476,Fri Jan 17 2025 16:19:30 GMT-0600 (Central Standard Time),553911.9000000004,A,la,O,a,370,1,832.7999999998137,553079.1000000006,7037,WL,B,4.0
4,10.097000122070312,learn,49902.99987792969,Fri Jan 17 2025 16:19:30 GMT-0600 (Central Standard Time),554145.3000000007,A,lak,O,k,211,1,1066.2000000001863,553079.1000000006,7037,WL,B,4.0
4,10.433000087738037,learn,49566.99991226196,Fri Jan 17 2025 16:19:30 GMT-0600 (Central Standard Time),554481.5,A,lake,O,e,183,1,1402.3999999994412,553079.1000000006,7037,WL,B,4.0
4,10.813000202178955,learn,49186.999797821045,Fri Jan 17 2025 16:19:30 GMT-0600 (Central Standard Time),554861.7000000002,A,lakeenter,O,enter,362,1,1782.5999999996275,553079.1000000006,7037,WL,B,4.0
4,11.146000146865845,learn,48853.999853134155,Fri Jan 17 2025 16:19:30 GMT-0600 (Central Standard Time),555194.9000000004,A,s,O,s,317,1,332.79999999981374,554862.1000000006,7037,WL,B,5.0
4,11.480000019073486,learn,48519.999980926514,Fri Jan 17 2025 16:19:30 GMT-0600 (Central Standard Time),555528.1000000006,A,st,O,t,312,1,666.0,554862.1000000006,7037,WL,B,5.0
4,11.796000003814697,learn,48203.9999961853,Fri Jan 17 2025 16:19:30 GMT-0600 (Central Standard Time),555844.7000000002,A,str,O,r,299,1,982.5999999996275,554862.1000000006,7037,WL,B,5.0
4,12.03000020980835,learn,47969.99979019165,Fri Jan 17 2025 16:19:30 GMT-0600 (Central Standard Time),556078.0,A,stre,O,e,222,1,1215.8999999994412,554862.1000000006,7037,WL,B,5.0
4,12.213000059127808,learn,47786.99994087219,Fri Jan 17 2025 16:19:30 GMT-0600 (Central Standard Time),556261.2000000002,A,stree,O,e,165,1,1399.0999999996275,554862.1000000006,7037,WL,B,5.0
4,12.463000059127808,learn,47536.99994087219,Fri Jan 17 2025 16:19:30 GMT-0600 (Central Standard Time),556511.0,A,street,O,t,238,1,1648.8999999994412,554862.1000000006,7037,WL,B,5.0
4,12.896000146865845,learn,47103.999853134155,Fri Jan 17 2025 16:19:30 GMT-0600 (Central Standard Time),556944.2000000002,A,streetenter,O,enter,420,1,2082.0999999996275,554862.1000000006,7037,WL,B,5.0
4,13.17900013923645,learn,46820.99986076355,Fri Jan 17 2025 16:19:30 GMT-0600 (Central Standard Time),557227.7000000002,A,g,O,g,267,1,283.09999999962747,556944.6000000006,7037,WL,B,6.0
4,13.51200008392334,learn,46487.99991607666,Fri Jan 17 2025 16:19:30 GMT-0600 (Central Standard Time),557560.9000000004,A,gr,O,r,319,1,616.2999999998137,556944.6000000006,7037,WL,B,6.0
4,13.746000051498413,learn,46253.99994850159,Fri Jan 17 2025 16:19:30 GMT-0600 (Central Standard Time),557794.4000000004,A,gra,O,a,210,1,849.7999999998137,556944.6000000006,7037,WL,B,6.0
4,14.029000043869019,learn,45970.99995613098,Fri Jan 17 2025 16:19:30 GMT-0600 (Central Standard Time),558077.3000000007,A,gras,O,s,273,1,1132.7000000001863,556944.6000000006,7037,WL,B,6.0
4,14.245000123977661,learn,45754.99987602234,Fri Jan 17 2025 16:19:30 GMT-0600 (Central Standard Time),558294.0,A,grass,O,s,205,1,1349.3999999994412,556944.6000000006,7037,WL,B,6.0
4,14.778000116348267,learn,45221.99988365173,Fri Jan 17 2025 16:19:30 GMT-0600 (Central Standard Time),558826.8000000007,A,grassenter,O,enter,526,1,1882.2000000001863,556944.6000000006,7037,WL,B,6.0
4,15.645000219345093,learn,44354.99978065491,Fri Jan 17 2025 16:19:30 GMT-0600 (Central Standard Time),559693.4000000004,A,a,O,a,856,1,866.4000000003725,558827.0,7037,WL,B,7.0
4,15.878000020980835,learn,44121.999979019165,Fri Jan 17 2025 16:19:30 GMT-0600 (Central Standard Time),559926.8000000007,A,ar,O,r,222,1,1099.800000000745,558827.0,7037,WL,B,7.0
4,16.1780002117157,learn,43821.9997882843,Fri Jan 17 2025 16:19:30 GMT-0600 (Central Standard Time),560226.7000000002,A,arm,O,m,284,1,1399.7000000001863,558827.0,7037,WL,B,7.0
4,16.628000020980835,learn,43371.999979019165,Fri Jan 17 2025 16:19:30 GMT-0600 (Central Standard Time),560676.6000000006,A,armenter,O,enter,440,1,1849.6000000005588,558827.0,7037,WL,B,7.0
4,17.011000156402588,learn,42988.99984359741,Fri Jan 17 2025 16:19:30 GMT-0600 (Central Standard Time),561059.9000000004,A,w,O,w,366,1,383.09999999962747,560676.8000000007,7037,WL,B,8.0
4,17.278000116348267,learn,42721.99988365173,Fri Jan 17 2025 16:19:30 GMT-0600 (Central Standard Time),561326.6000000006,A,wi,O,i,248,1,649.7999999998137,560676.8000000007,7037,WL,B,8.0
4,17.611000061035156,learn,42388.999938964844,Fri Jan 17 2025 16:19:30 GMT-0600 (Central Standard Time),561659.5,A,win,O,n,316,1,982.6999999992549,560676.8000000007,7037,WL,B,8.0
4,17.795000076293945,learn,42204.999923706055,Fri Jan 17 2025 16:19:30 GMT-0600 (Central Standard Time),561843.8000000007,A,wind,O,d,175,1,1167.0,560676.8000000007,7037,WL,B,8.0
4,18.128000020980835,learn,41871.999979019165,Fri Jan 17 2025 16:19:30 GMT-0600 (Central Standard Time),562176.2000000002,A,windo,O,o,311,1,1499.3999999994412,560676.8000000007,7037,WL,B,8.0
4,18.278000116348267,learn,41721.99988365173,Fri Jan 17 2025 16:19:30 GMT-0600 (Central Standard Time),562326.1000000006,A,window,O,w,139,1,1649.2999999998137,560676.8000000007,7037,WL,B,8.0
4,18.66100001335144,learn,41338.99998664856,Fri Jan 17 2025 16:19:30 GMT-0600 (Central Standard Time),562709.0,A,windowenter,O,enter,373,1,2032.199999999255,560676.8000000007,7037,WL,B,8.0
4,19.261000156402588,learn,40738.99984359741,Fri Jan 17 2025 16:19:30 GMT-0600 (Central Standard Time),563309.1000000006,A,w,O,w,582,1,599.6000000005588,562709.5,7037,WL,B,9.0
4,19.561000108718872,learn,40438.99989128113,Fri Jan 17 2025 16:19:30 GMT-0600 (Central Standard Time),563609.2000000002,A,wi,O,i,286,1,899.7000000001863,562709.5,7037,WL,B,9.0
4,20.044000148773193,learn,39955.99985122681,Fri Jan 17 2025 16:19:30 GMT-0600 (Central Standard Time),564092.1000000006,A,wif,O,f,466,1,1382.6000000005588,562709.5,7037,WL,B,9.0
4,20.360000133514404,learn,39639.999866485596,Fri Jan 17 2025 16:19:30 GMT-0600 (Central Standard Time),564408.6000000006,A,wife,O,e,303,1,1699.1000000005588,562709.5,7037,WL,B,9.0
4,20.743000030517578,learn,39256.99996948242,Fri Jan 17 2025 16:19:30 GMT-0600 (Central Standard Time),564791.8000000007,A,wifeenter,O,enter,370,1,2082.300000000745,562709.5,7037,WL,B,9.0
4,34.289000034332275,learn,25710.999965667725,Fri Jan 17 2025 16:19:30 GMT-0600 (Central Standard Time),578337.7000000002,A,p,O,p,13532,1,13545.599999999627,564792.1000000006,7037,WL,B,10.0
4,34.58900022506714,learn,25410.99977493286,Fri Jan 17 2025 16:19:30 GMT-0600 (Central Standard Time),578637.3000000007,A,pu,O,u,289,1,13845.200000000186,564792.1000000006,7037,WL,B,10.0
4,34.93900012969971,learn,25060.999870300293,Fri Jan 17 2025 16:19:30 GMT-0600 (Central Standard Time),578987.5,A,pup,O,p,342,1,14195.399999999441,564792.1000000006,7037,WL,B,10.0
4,35.055999994277954,learn,24944.000005722046,Fri Jan 17 2025 16:19:30 GMT-0600 (Central Standard Time),579104.1000000006,A,pupp,O,p,96,1,14312.0,564792.1000000006,7037,WL,B,10.0
4,36.0220000743866,learn,23977.999925613403,Fri Jan 17 2025 16:19:30 GMT-0600 (Central Standard Time),580070.5,A,pup,O,backspace,955,1,15278.399999999441,564792.1000000006,7037,WL,B,10.0
4,37.15500020980835,learn,22844.99979019165,Fri Jan 17 2025 16:19:30 GMT-0600 (Central Standard Time),581203.1000000006,A,pupi,O,i,1125,1,16411.0,564792.1000000006,7037,WL,B,10.0
4,37.455000162124634,learn,22544.999837875366,Fri Jan 17 2025 16:19:30 GMT-0600 (Central Standard Time),581503.3000000007,A,pupil,O,l,281,1,16711.200000000186,564792.1000000006,7037,WL,B,10.0
4,38.42200016975403,learn,21577.99983024597,Fri Jan 17 2025 16:19:30 GMT-0600 (Central Standard Time),582470.0,A,pupilenter,O,enter,948,1,17677.89999999944,564792.1000000006,7037,WL,B,10.0
4,47.152000188827515,learn,12847.999811172485,Fri Jan 17 2025 16:19:30 GMT-0600 (Central Standard Time),591200.5,A,d,O,d,8709,1,8730.099999999627,582470.4000000004,7037,WL,B,11.0
4,47.51800012588501,learn,12481.99987411499,Fri Jan 17 2025 16:19:30 GMT-0600 (Central Standard Time),591566.9000000004,A,do,O,o,346,1,9096.5,582470.4000000004,7037,WL,B,11.0
4,47.718000173568726,learn,12281.999826431274,Fri Jan 17 2025 16:19:30 GMT-0600 (Central Standard Time),591766.8000000007,A,doo,O,o,188,1,9296.400000000373,582470.4000000004,7037,WL,B,11.0
4,47.818000078201294,learn,12181.999921798706,Fri Jan 17 2025 16:19:30 GMT-0600 (Central Standard Time),591866.5,A,door,O,r,93,1,9396.099999999627,582470.4000000004,7037,WL,B,11.0
4,48.30200004577637,learn,11697.999954223633,Fri Jan 17 2025 16:19:30 GMT-0600 (Central Standard Time),592350.0,A,doorenter,O,enter,465,1,9879.599999999627,582470.4000000004,7037,WL,B,11.0
4,60.01400017738342,learn,-14.000177383422852,Fri Jan 17 2025 16:19:30 GMT-0600 (Central Standard Time),604063.0,A,None,O,None,11706,1,11712.599999999627,592350.4000000004,7037,WL,B,12.0
5,6.2820000648498535,learn,60000.0,Fri Jan 17 2025 16:19:30 GMT-0600 (Central Standard Time),684454.6000000006,A,c,O,c,6262,1,6281.200000000186,678173.4000000004,7037,WL,B,1.0
5,6.565000057220459,learn,60000.0,Fri Jan 17 2025 16:19:30 GMT-0600 (Central Standard Time),684738.1000000006,A,ca,O,a,260,1,6564.700000000186,678173.4000000004,7037,WL,B,1.0
5,6.8480000495910645,learn,60000.0,Fri Jan 17 2025 16:19:30 GMT-0600 (Central Standard Time),685021.1000000006,A,cab,O,b,273,1,6847.700000000186,678173.4000000004,7037,WL,B,1.0
5,7.082000017166138,learn,60000.0,Fri Jan 17 2025 16:19:30 GMT-0600 (Central Standard Time),685255.3000000007,A,cabi,O,i,222,1,7081.9000000003725,678173.4000000004,7037,WL,B,1.0
5,7.414000034332275,learn,60000.0,Fri Jan 17 2025 16:19:30 GMT-0600 (Central Standard Time),685587.4000000004,A,cabin,O,n,324,1,7414.0,678173.4000000004,7037,WL,B,1.0
5,7.831000089645386,learn,60000.0,Fri Jan 17 2025 16:19:30 GMT-0600 (Central Standard Time),686004.2000000002,A,cabinl,O,l,408,1,7830.799999999814,678173.4000000004,7037,WL,B,1.0
5,8.031000137329102,learn,60000.0,Fri Jan 17 2025 16:19:30 GMT-0600 (Central Standard Time),686204.0,A,cabinla,O,a,183,1,8030.5999999996275,678173.4000000004,7037,WL,B,1.0
5,8.63100004196167,learn,60000.0,Fri Jan 17 2025 16:19:30 GMT-0600 (Central Standard Time),686803.9000000004,A,cabinl,O,backspace,590,1,8630.5,678173.4000000004,7037,WL,B,1.0
5,8.831000089645386,learn,60000.0,Fri Jan 17 2025 16:19:30 GMT-0600 (Central Standard Time),687003.8000000007,A,cabin,O,backspace,183,1,8830.400000000373,678173.4000000004,7037,WL,B,1.0
5,9.347000122070312,learn,60000.0,Fri Jan 17 2025 16:19:30 GMT-0600 (Central Standard Time),687520.2000000002,A,cabinenter,O,enter,496,1,9346.799999999814,678173.4000000004,7037,WL,B,1.0
5,10.064000129699707,learn,60000.0,Fri Jan 17 2025 16:19:30 GMT-0600 (Central Standard Time),688236.6000000006,A,l,O,l,699,1,716.0,687520.6000000006,7037,WL,B,2.0
5,10.29699993133545,learn,60000.0,Fri Jan 17 2025 16:19:30 GMT-0600 (Central Standard Time),688470.0,A,la,O,a,214,1,949.3999999994412,687520.6000000006,7037,WL,B,2.0
5,10.496999979019165,learn,60000.0,Fri Jan 17 2025 16:19:30 GMT-0600 (Central Standard Time),688669.9000000004,A,lak,O,k,189,1,1149.2999999998137,687520.6000000006,7037,WL,B,2.0
5,10.663000106811523,learn,60000.0,Fri Jan 17 2025 16:19:30 GMT-0600 (Central Standard Time),688836.3000000007,A,lake,O,e,149,1,1315.7000000001863,687520.6000000006,7037,WL,B,2.0
5,11.29699993133545,learn,60000.0,Fri Jan 17 2025 16:19:30 GMT-0600 (Central Standard Time),689469.7000000002,A,lakeenter,O,enter,623,1,1949.0999999996275,687520.6000000006,7037,WL,B,2.0
5,12.513000011444092,learn,60000.0,Fri Jan 17 2025 16:19:30 GMT-0600 (Central Standard Time),690685.9000000004,A,p,O,p,1197,1,1215.9000000003725,689470.0,7037,WL,B,3.0
5,12.845999956130981,learn,60000.0,Fri Jan 17 2025 16:19:30 GMT-0600 (Central Standard Time),691019.1000000006,A,pu,O,u,317,1,1549.1000000005588,689470.0,7037,WL,B,3.0
5,13.213000059127808,learn,60000.0,Fri Jan 17 2025 16:19:30 GMT-0600 (Central Standard Time),691385.6000000006,A,pup,O,p,344,1,1915.6000000005588,689470.0,7037,WL,B,3.0
5,13.496000051498413,learn,60000.0,Fri Jan 17 2025 16:19:30 GMT-0600 (Central Standard Time),691668.9000000004,A,pupi,O,i,265,1,2198.9000000003725,689470.0,7037,WL,B,3.0
5,13.746000051498413,learn,60000.0,Fri Jan 17 2025 16:19:30 GMT-0600 (Central Standard Time),691918.8000000007,A,pupil,O,l,238,1,2448.800000000745,689470.0,7037,WL,B,3.0
5,14.296000003814697,learn,60000.0,Fri Jan 17 2025 16:19:30 GMT-0600 (Central Standard Time),692468.6000000006,A,pupilenter,O,enter,540,1,2998.600000000559,689470.0,7037,WL,B,3.0
5,15.795000076293945,learn,60000.0,Fri Jan 17 2025 16:19:30 GMT-0600 (Central Standard Time),693968.1000000006,A,s,O,s,1479,1,1499.2000000001863,692468.9000000004,7037,WL,B,4.0
5,16.062000036239624,learn,60000.0,Fri Jan 17 2025 16:19:30 GMT-0600 (Central Standard Time),694234.5,A,st,O,t,259,1,1765.5999999996275,692468.9000000004,7037,WL,B,4.0
5,16.34500002861023,learn,60000.0,Fri Jan 17 2025 16:19:30 GMT-0600 (Central Standard Time),694518.1000000006,A,str,O,r,264,1,2049.2000000001863,692468.9000000004,7037,WL,B,4.0
5,16.57800006866455,learn,60000.0,Fri Jan 17 2025 16:19:30 GMT-0600 (Central Standard Time),694751.3000000007,A,stre,O,e,221,1,2282.4000000003725,692468.9000000004,7037,WL,B,4.0
5,16.778000116348267,learn,60000.0,Fri Jan 17 2025 16:19:30 GMT-0600 (Central Standard Time),694951.2000000002,A,stree,O,e,179,1,2482.2999999998137,692468.9000000004,7037,WL,B,4.0
5,17.028000116348267,learn,60000.0,Fri Jan 17 2025 16:19:30 GMT-0600 (Central Standard Time),695201.0,A,street,O,t,227,1,2732.0999999996275,692468.9000000004,7037,WL,B,4.0
5,17.59500002861023,learn,60000.0,Fri Jan 17 2025 16:19:30 GMT-0600 (Central Standard Time),695767.5,A,streetenter,O,enter,546,1,3298.5999999996275,692468.9000000004,7037,WL,B,4.0
5,18.210999965667725,learn,60000.0,Fri Jan 17 2025 16:19:30 GMT-0600 (Central Standard Time),696384.1000000006,A,g,O,g,604,1,616.2999999998137,695767.8000000007,7037,WL,B,5.0
5,18.528000116348267,learn,60000.0,Fri Jan 17 2025 16:19:30 GMT-0600 (Central Standard Time),696700.6000000006,A,gr,O,r,307,1,932.7999999998137,695767.8000000007,7037,WL,B,5.0
5,18.72699999809265,learn,60000.0,Fri Jan 17 2025 16:19:30 GMT-0600 (Central Standard Time),696900.4000000004,A,gra,O,a,183,1,1132.5999999996275,695767.8000000007,7037,WL,B,5.0
5,19.011000156402588,learn,60000.0,Fri Jan 17 2025 16:19:30 GMT-0600 (Central Standard Time),697183.9000000004,A,gras,O,s,262,1,1416.0999999996275,695767.8000000007,7037,WL,B,5.0
5,19.194000005722046,learn,60000.0,Fri Jan 17 2025 16:19:30 GMT-0600 (Central Standard Time),697367.2000000002,A,grass,O,s,171,1,1599.3999999994412,695767.8000000007,7037,WL,B,5.0
5,19.694000005722046,learn,60000.0,Fri Jan 17 2025 16:19:30 GMT-0600 (Central Standard Time),697866.8000000007,A,grassenter,O,enter,492,1,2099.0,695767.8000000007,7037,WL,B,5.0
5,20.3270001411438,learn,60000.0,Fri Jan 17 2025 16:19:30 GMT-0600 (Central Standard Time),698500.1000000006,A,a,O,a,625,1,633.0,697867.1000000006,7037,WL,B,6.0
5,20.509999990463257,learn,60000.0,Fri Jan 17 2025 16:19:30 GMT-0600 (Central Standard Time),698683.3000000007,A,ar,O,r,175,1,816.2000000001863,697867.1000000006,7037,WL,B,6.0
5,20.794000148773193,learn,60000.0,Fri Jan 17 2025 16:19:30 GMT-0600 (Central Standard Time),698966.6000000006,A,arm,O,m,264,1,1099.5,697867.1000000006,7037,WL,B,6.0
5,21.592999935150146,learn,60000.0,Fri Jan 17 2025 16:19:30 GMT-0600 (Central Standard Time),699766.4000000004,A,armenter,O,enter,788,1,1899.2999999998137,697867.1000000006,7037,WL,B,6.0
5,24.625999927520752,learn,60000.0,Fri Jan 17 2025 16:19:30 GMT-0600 (Central Standard Time),702798.7000000002,A,f,O,f,3013,1,3032.0,699766.7000000002,7037,WL,B,7.0
5,24.9760000705719,learn,60000.0,Fri Jan 17 2025 16:19:30 GMT-0600 (Central Standard Time),703148.6000000006,A,fi,O,i,332,1,3381.9000000003725,699766.7000000002,7037,WL,B,7.0
5,25.358999967575073,learn,60000.0,Fri Jan 17 2025 16:19:30 GMT-0600 (Central Standard Time),703531.6000000006,A,fir,O,r,366,1,3764.9000000003725,699766.7000000002,7037,WL,B,7.0
5,25.54200005531311,learn,60000.0,Fri Jan 17 2025 16:19:30 GMT-0600 (Central Standard Time),703714.8000000007,A,fire,O,e,175,1,3948.100000000559,699766.7000000002,7037,WL,B,7.0
5,25.909000158309937,learn,60000.0,Fri Jan 17 2025 16:19:30 GMT-0600 (Central Standard Time),704081.8000000007,A,fireenter,O,enter,344,1,4315.100000000559,699766.7000000002,7037,WL,B,7.0
5,30.341000080108643,learn,60000.0,Fri Jan 17 2025 16:19:30 GMT-0600 (Central Standard Time),708513.7000000002,A,d,O,d,4417,1,4431.5999999996275,704082.1000000006,7037,WL,B,8.0
5,30.69099998474121,learn,60000.0,Fri Jan 17 2025 16:19:30 GMT-0600 (Central Standard Time),708863.5,A,do,O,o,337,1,4781.399999999441,704082.1000000006,7037,WL,B,8.0
5,30.907000064849854,learn,60000.0,Fri Jan 17 2025 16:19:30 GMT-0600 (Central Standard Time),709080.2000000002,A,doo,O,o,196,1,4998.0999999996275,704082.1000000006,7037,WL,B,8.0
5,31.006999969482422,learn,60000.0,Fri Jan 17 2025 16:19:30 GMT-0600 (Central Standard Time),709180.2000000002,A,door,O,r,83,1,5098.0999999996275,704082.1000000006,7037,WL,B,8.0
5,31.85700011253357,learn,60000.0,Fri Jan 17 2025 16:19:30 GMT-0600 (Central Standard Time),710029.7000000002,A,doorenter,O,enter,831,1,5947.5999999996275,704082.1000000006,7037,WL,B,8.0
5,35.138999938964844,learn,60000.0,Fri Jan 17 2025 16:19:30 GMT-0600 (Central Standard Time),713312.1000000006,A,p,O,p,3261,1,3282.100000000559,710030.0,7037,WL,B,9.0
5,35.57200002670288,learn,60000.0,Fri Jan 17 2025 16:19:30 GMT-0600 (Central Standard Time),713745.3000000007,A,pu,O,u,411,1,3715.300000000745,710030.0,7037,WL,B,9.0
5,36.0220000743866,learn,60000.0,Fri Jan 17 2025 16:19:30 GMT-0600 (Central Standard Time),714195.2000000002,A,pup,O,p,434,1,4165.200000000186,710030.0,7037,WL,B,9.0
5,36.5220000743866,learn,60000.0,Fri Jan 17 2025 16:19:30 GMT-0600 (Central Standard Time),714695.1000000006,A,pupi,O,i,488,1,4665.100000000559,710030.0,7037,WL,B,9.0
5,36.82200002670288,learn,60000.0,Fri Jan 17 2025 16:19:30 GMT-0600 (Central Standard Time),714994.8000000007,A,pupil,O,l,284,1,4964.800000000745,710030.0,7037,WL,B,9.0
5,37.22200012207031,learn,60000.0,Fri Jan 17 2025 16:19:30 GMT-0600 (Central Standard Time),715394.9000000004,A,pupilenter,O,enter,384,1,5364.9000000003725,710030.0,7037,WL,B,9.0
5,37.62100005149841,learn,60000.0,Fri Jan 17 2025 16:19:30 GMT-0600 (Central Standard Time),715794.6000000006,A,p,O,p,384,1,399.29999999981374,715395.3000000007,7037,WL,B,10.0
5,38.00500011444092,learn,60000.0,Fri Jan 17 2025 16:19:30 GMT-0600 (Central Standard Time),716178.0,A,pi,O,i,369,1,782.6999999992549,715395.3000000007,7037,WL,B,10.0
5,38.28800010681152,learn,60000.0,Fri Jan 17 2025 16:19:30 GMT-0600 (Central Standard Time),716461.0,A,pik,O,k,265,1,1065.699999999255,715395.3000000007,7037,WL,B,10.0
5,39.58800005912781,learn,60000.0,Fri Jan 17 2025 16:19:30 GMT-0600 (Central Standard Time),717760.8000000007,A,pi,O,backspace,1278,1,2365.5,715395.3000000007,7037,WL,B,10.0
5,40.187000036239624,learn,60000.0,Fri Jan 17 2025 16:19:30 GMT-0600 (Central Standard Time),718360.5,A,pip,O,p,587,1,2965.199999999255,715395.3000000007,7037,WL,B,10.0
5,40.437000036239624,learn,60000.0,Fri Jan 17 2025 16:19:30 GMT-0600 (Central Standard Time),718610.4000000004,A,pipe,O,e,235,1,3215.0999999996275,715395.3000000007,7037,WL,B,10.0
5,41.12000012397766,learn,60000.0,Fri Jan 17 2025 16:19:30 GMT-0600 (Central Standard Time),719293.3000000007,A,pipeenter,O,enter,664,1,3898.0,715395.3000000007,7037,WL,B,10.0
5,50.51699995994568,learn,60000.0,Fri Jan 17 2025 16:19:30 GMT-0600 (Central Standard Time),728690.5,A,s,O,s,9379,1,9396.899999999441,719293.6000000006,7037,WL,B,11.0
5,50.83400011062622,learn,60000.0,Fri Jan 17 2025 16:19:30 GMT-0600 (Central Standard Time),729007.1000000006,A,st,O,t,304,1,9713.5,719293.6000000006,7037,WL,B,11.0
5,51.06700015068054,learn,60000.0,Fri Jan 17 2025 16:19:30 GMT-0600 (Central Standard Time),729240.6000000006,A,sta,O,a,220,1,9947.0,719293.6000000006,7037,WL,B,11.0
5,51.35000014305115,learn,60000.0,Fri Jan 17 2025 16:19:30 GMT-0600 (Central Standard Time),729523.7000000002,A,star,O,r,266,1,10230.099999999627,719293.6000000006,7037,WL,B,11.0
5,51.78400015830994,learn,60000.0,Fri Jan 17 2025 16:19:30 GMT-0600 (Central Standard Time),729957.0,A,starenter,O,enter,415,1,10663.399999999441,719293.6000000006,7037,WL,B,11.0
5,111.79800009727478,learn,60000.0,Fri Jan 17 2025 16:19:30 GMT-0600 (Central Standard Time),789971.2000000002,A,None,O,None,60008,1,60014.0,729957.2000000002,7037,WL,B,12.0
6,1.0829999446868896,distr,58917.00005531311,Fri Jan 17 2025 16:19:30 GMT-0600 (Central Standard Time),871179.5,B,b,O,b,1076,1,1083.199999999255,870096.3000000007,7037,WL,B,1.0
6,1.4659998416900635,distr,58534.00015830994,Fri Jan 17 2025 16:19:30 GMT-0600 (Central Standard Time),871562.4000000004,B,ba,O,a,359,1,1466.0999999996275,870096.3000000007,7037,WL,B,1.0
6,1.7660000324249268,distr,58233.99996757507,Fri Jan 17 2025 16:19:30 GMT-0600 (Central Standard Time),871862.3000000007,B,bab,O,b,281,1,1766.0,870096.3000000007,7037,WL,B,1.0
6,2.565000057220459,distr,57434.99994277954,Fri Jan 17 2025 16:19:30 GMT-0600 (Central Standard Time),872661.9000000004,B,baby,O,y,788,1,2565.5999999996275,870096.3000000007,7037,WL,B,1.0
6,3.4819998741149902,distr,56518.00012588501,Fri Jan 17 2025 16:19:30 GMT-0600 (Central Standard Time),873578.2000000002,B,babyenter,O,enter,909,1,3481.899999999441,870096.3000000007,7037,WL,B,1.0
6,4.148000001907349,distr,55851.99999809265,Fri Jan 17 2025 16:19:30 GMT-0600 (Central Standard Time),874244.9000000004,B,f,O,f,658,1,666.4000000003725,873578.5,7037,WL,B,2.0
6,4.414999961853027,distr,55585.00003814697,Fri Jan 17 2025 16:19:30 GMT-0600 (Central Standard Time),874511.4000000004,B,fr,O,r,246,1,932.9000000003725,873578.5,7037,WL,B,2.0
6,4.5980000495910645,distr,55401.999950408936,Fri Jan 17 2025 16:19:30 GMT-0600 (Central Standard Time),874694.7000000002,B,fri,O,i,172,1,1116.2000000001863,873578.5,7037,WL,B,2.0
6,4.764999866485596,distr,55235.000133514404,Fri Jan 17 2025 16:19:30 GMT-0600 (Central Standard Time),874861.3000000007,B,frie,O,e,149,1,1282.800000000745,873578.5,7037,WL,B,2.0
6,4.931999921798706,distr,55068.000078201294,Fri Jan 17 2025 16:19:30 GMT-0600 (Central Standard Time),875028.1000000006,B,frien,O,n,150,1,1449.6000000005588,873578.5,7037,WL,B,2.0
6,5.080999851226807,distr,54919.00014877319,Fri Jan 17 2025 16:19:30 GMT-0600 (Central Standard Time),875177.8000000007,B,friend,O,d,135,1,1599.300000000745,873578.5,7037,WL,B,2.0
6,5.580999851226807,distr,54419.00014877319,Fri Jan 17 2025 16:19:30 GMT-0600 (Central Standard Time),875677.8000000007,B,friendenter,O,enter,489,1,2099.300000000745,873578.5,7037,WL,B,2.0
6,6.0980000495910645,distr,53901.999950408936,Fri Jan 17 2025 16:19:30 GMT-0600 (Central Standard Time),876194.2000000002,B,s,O,s,502,1,516.2999999998137,875677.9000000004,7037,WL,B,3.0
6,6.38100004196167,distr,53618.99995803833,Fri Jan 17 2025 16:19:30 GMT-0600 (Central Standard Time),876477.4000000004,B,st,O,t,265,1,799.5,875677.9000000004,7037,WL,B,3.0
6,6.513999938964844,distr,53486.000061035156,Fri Jan 17 2025 16:19:30 GMT-0600 (Central Standard Time),876610.7000000002,B,sto,O,o,126,1,932.7999999998137,875677.9000000004,7037,WL,B,3.0
6,6.697999954223633,distr,53302.00004577637,Fri Jan 17 2025 16:19:30 GMT-0600 (Central Standard Time),876794.0,B,stor,O,r,168,1,1116.0999999996275,875677.9000000004,7037,WL,B,3.0
6,6.930999994277954,distr,53069.000005722046,Fri Jan 17 2025 16:19:30 GMT-0600 (Central Standard Time),877027.3000000007,B,storm,O,m,225,1,1349.4000000003725,875677.9000000004,7037,WL,B,3.0
6,7.5309998989105225,distr,52469.00010108948,Fri Jan 17 2025 16:19:30 GMT-0600 (Central Standard Time),877627.1000000006,B,stormenter,O,enter,592,1,1949.2000000001863,875677.9000000004,7037,WL,B,3.0
6,19.460000038146973,distr,40539.99996185303,Fri Jan 17 2025 16:19:30 GMT-0600 (Central Standard Time),889557.0,B,p,O,p,11912,1,11929.699999999255,877627.3000000007,7037,WL,B,4.0
6,19.677000045776367,distr,40322.99995422363,Fri Jan 17 2025 16:19:30 GMT-0600 (Central Standard Time),889773.2000000002,B,pa,O,a,206,1,12145.899999999441,877627.3000000007,7037,WL,B,4.0
6,20.109999895095825,distr,39890.000104904175,Fri Jan 17 2025 16:19:30 GMT-0600 (Central Standard Time),890206.9000000004,B,pal,O,l,414,1,12579.599999999627,877627.3000000007,7037,WL,B,4.0
6,20.39299988746643,distr,39607.00011253357,Fri Jan 17 2025 16:19:30 GMT-0600 (Central Standard Time),890489.7000000002,B,pala,O,a,268,1,12862.399999999441,877627.3000000007,7037,WL,B,4.0
6,20.72699999809265,distr,39273.00000190735,Fri Jan 17 2025 16:19:30 GMT-0600 (Central Standard Time),890822.9000000004,B,palac,O,c,321,1,13195.599999999627,877627.3000000007,7037,WL,B,4.0
6,20.993000030517578,distr,39006.99996948242,Fri Jan 17 2025 16:19:30 GMT-0600 (Central Standard Time),891089.5,B,palace,O,e,252,1,13462.199999999255,877627.3000000007,7037,WL,B,4.0
6,21.64299988746643,distr,38357.00011253357,Fri Jan 17 2025 16:19:30 GMT-0600 (Central Standard Time),891739.4000000004,B,palaceenter,O,enter,634,1,14112.099999999627,877627.3000000007,7037,WL,B,4.0
6,23.175999879837036,distr,36824.000120162964,Fri Jan 17 2025 16:19:30 GMT-0600 (Central Standard Time),893272.1000000006,B,l,O,l,1520,1,1532.5,891739.6000000006,7037,WL,B,5.0
6,23.526000022888184,distr,36473.99997711182,Fri Jan 17 2025 16:19:30 GMT-0600 (Central Standard Time),893622.1000000006,B,li,O,i,330,1,1882.5,891739.6000000006,7037,WL,B,5.0
6,23.842000007629395,distr,36157.999992370605,Fri Jan 17 2025 16:19:30 GMT-0600 (Central Standard Time),893938.7000000002,B,lip,O,p,309,1,2199.0999999996275,891739.6000000006,7037,WL,B,5.0
6,24.30900001525879,distr,35690.99998474121,Fri Jan 17 2025 16:19:30 GMT-0600 (Central Standard Time),894405.2000000002,B,lipenter,O,enter,449,1,2665.5999999996275,891739.6000000006,7037,WL,B,5.0
6,24.80900001525879,distr,35190.99998474121,Fri Jan 17 2025 16:19:30 GMT-0600 (Central Standard Time),894905.1000000006,B,o,O,o,486,1,499.70000000018626,894405.4000000004,7037,WL,B,6.0
6,25.241999864578247,distr,34758.00013542175,Fri Jan 17 2025 16:19:30 GMT-0600 (Central Standard Time),895338.2000000002,B,oc,O,c,410,1,932.7999999998137,894405.4000000004,7037,WL,B,6.0
6,25.507999897003174,distr,34492.000102996826,Fri Jan 17 2025 16:19:30 GMT-0600 (Central Standard Time),895605.0,B,oce,O,e,248,1,1199.5999999996275,894405.4000000004,7037,WL,B,6.0
6,25.757999897003174,distr,34242.000102996826,Fri Jan 17 2025 16:19:30 GMT-0600 (Central Standard Time),895854.8000000007,B,ocea,O,a,238,1,1449.4000000003725,894405.4000000004,7037,WL,B,6.0
6,26.073999881744385,distr,33926.000118255615,Fri Jan 17 2025 16:19:30 GMT-0600 (Central Standard Time),896171.4000000004,B,ocean,O,n,300,1,1766.0,894405.4000000004,7037,WL,B,6.0
6,26.641000032424927,distr,33358.99996757507,Fri Jan 17 2025 16:19:30 GMT-0600 (Central Standard Time),896737.8000000007,B,oceanenter,O,enter,552,1,2332.4000000003725,894405.4000000004,7037,WL,B,6.0
6,58.48099994659424,distr,1519.0000534057617,Fri Jan 17 2025 16:19:30 GMT-0600 (Central Standard Time),928578.5,B,enter,O,enter,31834,1,31840.599999999627,896737.9000000004,7037,WL,B,7.0
6,60.013999938964844,distr,-13.99993896484375,Fri Jan 17 2025 16:19:30 GMT-0600 (Central Standard Time),930111.1000000006,B,None,O,None,1525,1,1532.2000000001863,928578.9000000004,7037,WL,B,8.0
7,2.2990000247955322,immed,57700.99997520447,Fri Jan 17 2025 16:19:30 GMT-0600 (Central Standard Time),940974.5,A,f,O,f,2289,1,2299.2999999998137,938675.2000000002,7037,WL,B,1.0
7,2.6660001277923584,immed,57333.99987220764,Fri Jan 17 2025 16:19:30 GMT-0600 (Central Standard Time),941340.9000000004,A,fi,O,i,348,1,2665.7000000001863,938675.2000000002,7037,WL,B,1.0
7,2.8990001678466797,immed,57100.99983215332,Fri Jan 17 2025 16:19:30 GMT-0600 (Central Standard Time),941574.2000000002,A,fir,O,r,214,1,2899.0,938675.2000000002,7037,WL,B,1.0
7,3.0990002155303955,immed,56900.999784469604,Fri Jan 17 2025 16:19:30 GMT-0600 (Central Standard Time),941774.1000000006,A,fire,O,e,188,1,3098.9000000003725,938675.2000000002,7037,WL,B,1.0
7,4.082000017166138,immed,55917.99998283386,Fri Jan 17 2025 16:19:30 GMT-0600 (Central Standard Time),942757.2000000002,A,fireenter,O,enter,973,1,4082.0,938675.2000000002,7037,WL,B,1.0
7,4.54800009727478,immed,55451.99990272522,Fri Jan 17 2025 16:19:30 GMT-0600 (Central Standard Time),943223.6000000006,A,c,O,c,446,1,466.1000000005588,942757.5,7037,WL,B,2.0
7,4.748000144958496,immed,55251.999855041504,Fri Jan 17 2025 16:19:30 GMT-0600 (Central Standard Time),943423.5,A,ca,O,a,188,1,666.0,942757.5,7037,WL,B,2.0
7,5.0980000495910645,immed,54901.999950408936,Fri Jan 17 2025 16:19:30 GMT-0600 (Central Standard Time),943773.4000000004,A,cab,O,b,340,1,1015.9000000003725,942757.5,7037,WL,B,2.0
7,5.315000057220459,immed,54684.99994277954,Fri Jan 17 2025 16:19:30 GMT-0600 (Central Standard Time),943990.1000000006,A,cabi,O,i,206,1,1232.6000000005588,942757.5,7037,WL,B,2.0
7,5.515000104904175,immed,54484.999895095825,Fri Jan 17 2025 16:19:30 GMT-0600 (Central Standard Time),944189.9000000004,A,cabin,O,n,181,1,1432.4000000003725,942757.5,7037,WL,B,2.0
7,6.314000129699707,immed,53685.99987030029,Fri Jan 17 2025 16:19:30 GMT-0600 (Central Standard Time),944989.6000000006,A,cabinenter,O,enter,781,1,2232.100000000559,942757.5,7037,WL,B,2.0
7,6.814000129699707,immed,53185.99987030029,Fri Jan 17 2025 16:19:30 GMT-0600 (Central Standard Time),945489.4000000004,A,l,O,l,478,1,499.40000000037253,944990.0,7037,WL,B,3.0
7,7.081000089645386,immed,52918.999910354614,Fri Jan 17 2025 16:19:30 GMT-0600 (Central Standard Time),945756.3000000007,A,la,O,a,250,1,766.3000000007451,944990.0,7037,WL,B,3.0
7,7.297000169754028,immed,52702.99983024597,Fri Jan 17 2025 16:19:30 GMT-0600 (Central Standard Time),945972.7000000002,A,lak,O,k,207,1,982.7000000001863,944990.0,7037,WL,B,3.0
7,7.481000185012817,immed,52518.99981498718,Fri Jan 17 2025 16:19:30 GMT-0600 (Central Standard Time),946156.0,A,lake,O,e,174,1,1166.0,944990.0,7037,WL,B,3.0
7,7.88100004196167,immed,52118.99995803833,Fri Jan 17 2025 16:19:30 GMT-0600 (Central Standard Time),946555.9000000004,A,lakeenter,O,enter,391,1,1565.9000000003725,944990.0,7037,WL,B,3.0
7,8.731000185012817,immed,51268.99981498718,Fri Jan 17 2025 16:19:30 GMT-0600 (Central Standard Time),947405.8000000007,A,s,O,s,831,1,849.6000000005588,946556.2000000002,7037,WL,B,4.0
7,9.047000169754028,immed,50952.99983024597,Fri Jan 17 2025 16:19:30 GMT-0600 (Central Standard Time),947722.1000000006,A,st,O,t,293,1,1165.9000000003725,946556.2000000002,7037,WL,B,4.0
7,9.330000162124634,immed,50669.999837875366,Fri Jan 17 2025 16:19:30 GMT-0600 (Central Standard Time),948005.3000000007,A,str,O,r,273,1,1449.1000000005588,946556.2000000002,7037,WL,B,4.0
7,9.53000020980835,immed,50469.99979019165,Fri Jan 17 2025 16:19:30 GMT-0600 (Central Standard Time),948205.2000000002,A,stre,O,e,190,1,1649.0,946556.2000000002,7037,WL,B,4.0
7,9.713000059127808,immed,50286.99994087219,Fri Jan 17 2025 16:19:30 GMT-0600 (Central Standard Time),948388.7000000002,A,stree,O,e,166,1,1832.5,946556.2000000002,7037,WL,B,4.0
7,9.930000066757202,immed,50069.9999332428,Fri Jan 17 2025 16:19:30 GMT-0600 (Central Standard Time),948605.0,A,street,O,t,198,1,2048.7999999998137,946556.2000000002,7037,WL,B,4.0
7,10.28000020980835,immed,49719.99979019165,Fri Jan 17 2025 16:19:30 GMT-0600 (Central Standard Time),948954.8000000007,A,streetenter,O,enter,342,1,2398.600000000559,946556.2000000002,7037,WL,B,4.0
7,10.563000202178955,immed,49436.999797821045,Fri Jan 17 2025 16:19:30 GMT-0600 (Central Standard Time),949238.2000000002,A,g,O,g,272,1,283.0,948955.2000000002,7037,WL,B,5.0
7,10.880000114440918,immed,49119.99988555908,Fri Jan 17 2025 16:19:30 GMT-0600 (Central Standard Time),949554.9000000004,A,gr,O,r,301,1,599.7000000001863,948955.2000000002,7037,WL,B,5.0
7,11.063000202178955,immed,48936.999797821045,Fri Jan 17 2025 16:19:30 GMT-0600 (Central Standard Time),949738.3000000007,A,gra,O,a,168,1,783.1000000005588,948955.2000000002,7037,WL,B,5.0
7,11.314000129699707,immed,48685.99987030029,Fri Jan 17 2025 16:19:30 GMT-0600 (Central Standard Time),949989.3000000007,A,gras,O,s,233,1,1034.1000000005588,948955.2000000002,7037,WL,B,5.0
7,11.53000020980835,immed,48469.99979019165,Fri Jan 17 2025 16:19:30 GMT-0600 (Central Standard Time),950204.7000000002,A,grass,O,s,206,1,1249.5,948955.2000000002,7037,WL,B,5.0
7,11.963000059127808,immed,48036.99994087219,Fri Jan 17 2025 16:19:30 GMT-0600 (Central Standard Time),950638.0,A,grassenter,O,enter,415,1,1682.7999999998137,948955.2000000002,7037,WL,B,5.0
7,15.978000164031982,immed,44021.99983596802,Fri Jan 17 2025 16:19:30 GMT-0600 (Central Standard Time),954653.1000000006,A,p,O,p,4007,1,4014.9000000003725,950638.2000000002,7037,WL,B,6.0
7,16.4280002117157,immed,43571.9997882843,Fri Jan 17 2025 16:19:30 GMT-0600 (Central Standard Time),955103.2000000002,A,pu,O,u,430,1,4465.0,950638.2000000002,7037,WL,B,6.0
7,16.711000204086304,immed,43288.999795913696,Fri Jan 17 2025 16:19:30 GMT-0600 (Central Standard Time),955386.5,A,pup,O,p,276,1,4748.299999999814,950638.2000000002,7037,WL,B,6.0
7,17.044000148773193,immed,42955.99985122681,Fri Jan 17 2025 16:19:30 GMT-0600 (Central Standard Time),955719.6000000006,A,pupi,O,i,320,1,5081.4000000003725,950638.2000000002,7037,WL,B,6.0
7,17.29300022125244,immed,42706.99977874756,Fri Jan 17 2025 16:19:30 GMT-0600 (Central Standard Time),955969.6000000006,A,pupil,O,l,228,1,5331.4000000003725,950638.2000000002,7037,WL,B,6.0
7,17.693000078201294,immed,42306.999921798706,Fri Jan 17 2025 16:19:30 GMT-0600 (Central Standard Time),956369.3000000007,A,pupilenter,O,enter,378,1,5731.100000000559,950638.2000000002,7037,WL,B,6.0
7,18.16000008583069,immed,41839.99991416931,Fri Jan 17 2025 16:19:30 GMT-0600 (Central Standard Time),956836.9000000004,A,p,O,p,457,1,467.29999999981374,956369.6000000006,7037,WL,B,7.0
7,18.64300012588501,immed,41356.99987411499,Fri Jan 17 2025 16:19:30 GMT-0600 (Central Standard Time),957319.1000000006,A,pi,O,i,470,1,949.5,956369.6000000006,7037,WL,B,7.0
7,19.04300022125244,immed,40956.99977874756,Fri Jan 17 2025 16:19:30 GMT-0600 (Central Standard Time),957719.0,A,pip,O,p,380,1,1349.3999999994412,956369.6000000006,7037,WL,B,7.0
7,19.343000173568726,immed,40656.999826431274,Fri Jan 17 2025 16:19:30 GMT-0600 (Central Standard Time),958018.9000000004,A,pipe,O,e,284,1,1649.2999999998137,956369.6000000006,7037,WL,B,7.0
7,19.7260000705719,immed,40273.9999294281,Fri Jan 17 2025 16:19:30 GMT-0600 (Central Standard Time),958402.1000000006,A,pipeenter,O,enter,368,1,2032.5,956369.6000000006,7037,WL,B,7.0
7,21.425000190734863,immed,38574.99980926514,Fri Jan 17 2025 16:19:30 GMT-0600 (Central Standard Time),960101.5,A,s,O,s,1681,1,1699.0999999996275,958402.4000000004,7037,WL,B,8.0
7,21.758000135421753,immed,38241.99986457825,Fri Jan 17 2025 16:19:30 GMT-0600 (Central Standard Time),960434.8000000007,A,st,O,t,318,1,2032.4000000003725,958402.4000000004,7037,WL,B,8.0
7,22.058000087738037,immed,37941.99991226196,Fri Jan 17 2025 16:19:30 GMT-0600 (Central Standard Time),960734.8000000007,A,sta,O,a,280,1,2332.4000000003725,958402.4000000004,7037,WL,B,8.0
7,22.375,immed,37625.0,Fri Jan 17 2025 16:19:30 GMT-0600 (Central Standard Time),961051.3000000007,A,star,O,r,300,1,2648.9000000003725,958402.4000000004,7037,WL,B,8.0
7,22.94100022315979,immed,37058.99977684021,Fri Jan 17 2025 16:19:30 GMT-0600 (Central Standard Time),961617.8000000007,A,starenter,O,enter,552,1,3215.4000000003725,958402.4000000004,7037,WL,B,8.0
7,31.355000019073486,immed,28644.999980926514,Fri Jan 17 2025 16:19:30 GMT-0600 (Central Standard Time),970031.8000000007,A,a,O,a,8401,1,8413.700000000186,961618.1000000006,7037,WL,B,9.0
7,31.622000217437744,immed,28377.999782562256,Fri Jan 17 2025 16:19:30 GMT-0600 (Central Standard Time),970298.6000000006,A,ar,O,r,251,1,8680.5,961618.1000000006,7037,WL,B,9.0
7,31.90500020980835,immed,28094.99979019165,Fri Jan 17 2025 16:19:30 GMT-0600 (Central Standard Time),970581.7000000002,A,arm,O,m,265,1,8963.599999999627,961618.1000000006,7037,WL,B,9.0
7,32.32200002670288,immed,27677.99997329712,Fri Jan 17 2025 16:19:30 GMT-0600 (Central Standard Time),970998.1000000006,A,armenter,O,enter,406,1,9380.0,961618.1000000006,7037,WL,B,9.0
7,41.25200009346008,immed,18747.999906539917,Fri Jan 17 2025 16:19:30 GMT-0600 (Central Standard Time),979928.7000000002,A,d,O,d,8918,1,8930.399999999441,970998.3000000007,7037,WL,B,10.0
7,41.60199999809265,immed,18398.00000190735,Fri Jan 17 2025 16:19:30 GMT-0600 (Central Standard Time),980278.6000000006,A,do,O,o,338,1,9280.299999999814,970998.3000000007,7037,WL,B,10.0
7,41.76900005340576,immed,18230.99994659424,Fri Jan 17 2025 16:19:30 GMT-0600 (Central Standard Time),980445.3000000007,A,doo,O,o,156,1,9447.0,970998.3000000007,7037,WL,B,10.0
7,42.00200009346008,immed,17997.999906539917,Fri Jan 17 2025 16:19:30 GMT-0600 (Central Standard Time),980678.6000000006,A,door,O,r,222,1,9680.299999999814,970998.3000000007,7037,WL,B,10.0
7,42.28500008583069,immed,17714.99991416931,Fri Jan 17 2025 16:19:30 GMT-0600 (Central Standard Time),980961.7000000002,A,doorenter,O,enter,269,1,9963.399999999441,970998.3000000007,7037,WL,B,10.0
7,46.81700015068054,immed,13182.999849319458,Fri Jan 17 2025 16:19:30 GMT-0600 (Central Standard Time),985493.6000000006,A,w,O,w,4514,1,4531.5,980962.1000000006,7037,WL,B,11.0
7,47.15000009536743,immed,12849.999904632568,Fri Jan 17 2025 16:19:30 GMT-0600 (Central Standard Time),985826.9000000004,A,wi,O,i,325,1,4864.799999999814,980962.1000000006,7037,WL,B,11.0
7,47.467000007629395,immed,12532.999992370605,Fri Jan 17 2025 16:19:30 GMT-0600 (Central Standard Time),986143.6000000006,A,win,O,n,304,1,5181.5,980962.1000000006,7037,WL,B,11.0
7,47.65000009536743,immed,12349.999904632568,Fri Jan 17 2025 16:19:30 GMT-0600 (Central Standard Time),986326.8000000007,A,wind,O,d,171,1,5364.700000000186,980962.1000000006,7037,WL,B,11.0
7,47.91700005531311,immed,12082.99994468689,Fri Jan 17 2025 16:19:30 GMT-0600 (Central Standard Time),986593.1000000006,A,windo,O,o,244,1,5631.0,980962.1000000006,7037,WL,B,11.0
7,48.06700015068054,immed,11932.999849319458,Fri Jan 17 2025 16:19:30 GMT-0600 (Central Standard Time),986743.4000000004,A,window,O,w,130,1,5781.299999999814,980962.1000000006,7037,WL,B,11.0
7,48.635000228881836,immed,11364.999771118164,Fri Jan 17 2025 16:19:30 GMT-0600 (Central Standard Time),987311.6000000006,A,windowenter,O,enter,556,1,6349.5,980962.1000000006,7037,WL,B,11.0
7,53.78200006484985,immed,6217.9999351501465,Fri Jan 17 2025 16:19:30 GMT-0600 (Central Standard Time),992458.2000000002,A,enter,O,enter,5124,1,5146.299999999814,987311.9000000004,7037,WL,B,12.0
7,55.248000144958496,immed,4751.999855041504,Fri Jan 17 2025 16:19:30 GMT-0600 (Central Standard Time),993924.5,A,enter,O,enter,1457,1,1466.0,992458.5,7037,WL,B,13.0
7,55.748000144958496,immed,4251.999855041504,Fri Jan 17 2025 16:19:30 GMT-0600 (Central Standard Time),994424.3000000007,A,enter,O,enter,487,1,499.40000000037253,993924.9000000004,7037,WL,B,14.0
7,56.19800019264221,immed,3801.999807357788,Fri Jan 17 2025 16:19:30 GMT-0600 (Central Standard Time),994874.2000000002,A,enter,O,enter,435,1,449.5,994424.7000000002,7037,WL,B,15.0
