acc_sum,block,block_c,block_cond,con_img,correct,correct_response,datetime,endtime,face,jitter,line,project,response,response_time,row_sel,session_number,start_end,starttime,subject_id,task,task_vers,trial
0,prac,1,A,haborder.png,0,z,Wed Mar 19 2025 16:56:08 GMT-0500 (Central Daylight Time),60837.30000000028,CFD-BF-002-018-A.jpg,1200,solid,O,None,1516,6,1,3498.8000000002794,57338.5,7065,ATS,C,1
1,prac,1,A,haborder.png,1,m,Wed Mar 19 2025 16:56:08 GMT-0500 (Central Daylight Time),64019.80000000028,CFD-BM-034-035-HC.jpg,1700,solid,O,m,689,1,1,6681.300000000279,57338.5,7065,ATS,C,2
2,prac,1,A,haborder.png,1,m,Wed Mar 19 2025 16:56:08 GMT-0500 (Central Daylight Time),66935.30000000028,CFD-BM-022-004-HC.jpg,1500,solid,O,m,627,3,1,9596.80000000028,57338.5,7065,ATS,C,3
3,prac,1,A,haborder.png,1,z,Wed Mar 19 2025 16:56:08 GMT-0500 (Central Daylight Time),70168.0,CFD-BM-043-014-A.jpg,1600,solid,O,z,843,2,1,12829.5,57338.5,7065,ATS,C,4
4,prac,1,A,haborder.png,1,z,Wed Mar 19 2025 16:56:08 GMT-0500 (Central Daylight Time),72917.1000000001,CFD-BF-031-020-A.jpg,1000,solid,O,z,954,4,1,15578.600000000093,57338.5,7065,ATS,C,5
5,prac,1,A,haborder.png,1,m,Wed Mar 19 2025 16:56:08 GMT-0500 (Central Daylight Time),75732.5,CFD-WM-028-005-HC.jpg,1400,solid,O,m,621,7,1,18394.0,57338.5,7065,ATS,C,6
6,prac,1,A,haborder.png,1,z,Wed Mar 19 2025 16:56:08 GMT-0500 (Central Daylight Time),78998.3999999999,CFD-WF-037-016-A.jpg,1600,solid,O,z,878,10,1,21659.899999999907,57338.5,7065,ATS,C,7
7,prac,1,A,haborder.png,1,m,Wed Mar 19 2025 16:56:08 GMT-0500 (Central Daylight Time),82580.3999999999,CFD-BF-019-004-HC.jpg,2000,solid,O,m,796,5,1,25241.899999999907,57338.5,7065,ATS,C,8
8,prac,1,A,haborder.png,1,z,Wed Mar 19 2025 16:56:08 GMT-0500 (Central Daylight Time),85246.3999999999,CFD-WF-023-013-A.jpg,1000,solid,O,z,878,12,1,27907.899999999907,57338.5,7065,ATS,C,9
9,prac,1,A,haborder.png,1,z,Wed Mar 19 2025 16:56:08 GMT-0500 (Central Daylight Time),88812.1000000001,CFD-WM-036-018-A.jpg,1900,solid,O,z,872,8,1,31473.600000000093,57338.5,7065,ATS,C,10
10,prac,1,A,haborder.png,1,m,Wed Mar 19 2025 16:56:08 GMT-0500 (Central Daylight Time),91844.3999999999,CFD-WM-035-036-HC.jpg,1700,solid,O,m,539,9,1,34505.89999999991,57338.5,7065,ATS,C,11
11,prac,1,A,haborder.png,1,m,Wed Mar 19 2025 16:56:08 GMT-0500 (Central Daylight Time),94726.70000000019,CFD-WF-013-009-HC.jpg,1500,solid,O,m,586,11,1,37388.200000000186,57338.5,7065,ATS,C,12
1,prac,1,B,mfborder.png,1,m,Wed Mar 19 2025 16:56:08 GMT-0500 (Central Daylight Time),124734.0,CFD-BM-043-014-A.jpg,2000,5,O,m,953,dash,1,3748.5,120985.5,7065,ATS,C,1
1,prac,1,B,mfborder.png,0,z,Wed Mar 19 2025 16:56:08 GMT-0500 (Central Daylight Time),127683.1000000001,CFD-WF-037-016-A.jpg,1500,11,O,m,656,dash,1,6697.600000000093,120985.5,7065,ATS,C,2
1,prac,1,B,mfborder.png,0,m,Wed Mar 19 2025 16:56:08 GMT-0500 (Central Daylight Time),131681.5,CFD-BM-022-004-HC.jpg,1700,1,O,None,1515,dash,1,10696.0,120985.5,7065,ATS,C,3
2,prac,1,B,mfborder.png,1,z,Wed Mar 19 2025 16:56:08 GMT-0500 (Central Daylight Time),134997.6000000001,CFD-BF-019-004-HC.jpg,1400,7,O,z,1120,dash,1,14012.100000000093,120985.5,7065,ATS,C,4
3,prac,1,B,mfborder.png,1,m,Wed Mar 19 2025 16:56:08 GMT-0500 (Central Daylight Time),137696.6000000001,CFD-WM-034-040-A.jpg,1200,6,O,m,709,dash,1,16711.100000000093,120985.5,7065,ATS,C,5
4,prac,1,B,mfborder.png,1,m,Wed Mar 19 2025 16:56:08 GMT-0500 (Central Daylight Time),140945.6000000001,CFD-WM-035-036-HC.jpg,1600,10,O,m,850,dash,1,19960.100000000093,120985.5,7065,ATS,C,6
5,prac,1,B,mfborder.png,1,z,Wed Mar 19 2025 16:56:08 GMT-0500 (Central Daylight Time),143792.30000000028,CFD-BF-031-020-A.jpg,1000,4,O,z,985,dash,1,22806.80000000028,120985.5,7065,ATS,C,7
6,prac,1,B,mfborder.png,1,z,Wed Mar 19 2025 16:56:08 GMT-0500 (Central Daylight Time),146460.5,CFD-WF-013-009-HC.jpg,1000,12,O,z,880,dash,1,25475.0,120985.5,7065,ATS,C,8
7,prac,1,B,mfborder.png,1,m,Wed Mar 19 2025 16:56:08 GMT-0500 (Central Daylight Time),149709.5,CFD-BM-021-026-A.jpg,1600,2,O,m,862,dash,1,28724.0,120985.5,7065,ATS,C,9
8,prac,1,B,mfborder.png,1,m,Wed Mar 19 2025 16:56:08 GMT-0500 (Central Daylight Time),152792.0,CFD-WM-036-018-A.jpg,1700,9,O,m,593,dash,1,31806.5,120985.5,7065,ATS,C,10
9,prac,1,B,mfborder.png,1,z,Wed Mar 19 2025 16:56:08 GMT-0500 (Central Daylight Time),156474.0,CFD-WF-001-010-HC.jpg,1900,8,O,z,982,dash,1,35488.5,120985.5,7065,ATS,C,11
10,prac,1,B,mfborder.png,1,z,Wed Mar 19 2025 16:56:08 GMT-0500 (Central Daylight Time),159723.30000000028,CFD-BF-042-031-HC.jpg,1500,3,O,z,964,dash,1,38737.80000000028,120985.5,7065,ATS,C,12
1,test,1,A,haborder.png,1,z,Wed Mar 19 2025 16:56:08 GMT-0500 (Central Daylight Time),180583.1000000001,CFD-BF-002-018-A.jpg,1200,solid,O,z,1012,6,1,2232.600000000093,178350.5,7065,ATS,C,1
2,test,1,A,haborder.png,1,z,Wed Mar 19 2025 16:56:08 GMT-0500 (Central Daylight Time),182699.30000000028,CFD-BF-002-018-A.jpg,1200,solid,O,z,891,6,1,4348.800000000279,178350.5,7065,ATS,C,2
3,test,1,A,haborder.png,1,m,Wed Mar 19 2025 16:56:08 GMT-0500 (Central Daylight Time),184915.0,CFD-BM-034-035-HC.jpg,1700,solid,O,m,491,1,1,6564.5,178350.5,7065,ATS,C,3
4,test,1,A,haborder.png,1,z,Wed Mar 19 2025 16:56:08 GMT-0500 (Central Daylight Time),187781.0,CFD-WM-036-018-A.jpg,1900,solid,O,z,947,8,1,9430.5,178350.5,7065,ATS,C,4
5,test,1,A,haborder.png,1,m,Wed Mar 19 2025 16:56:08 GMT-0500 (Central Daylight Time),190613.3999999999,CFD-WM-035-036-HC.jpg,1700,solid,O,m,1105,9,1,12262.899999999907,178350.5,7065,ATS,C,5
6,test,1,A,haborder.png,1,z,Wed Mar 19 2025 16:56:08 GMT-0500 (Central Daylight Time),193495.8999999999,CFD-WM-036-018-A.jpg,1900,solid,O,z,961,8,1,15145.399999999907,178350.5,7065,ATS,C,6
7,test,1,A,haborder.png,1,z,Wed Mar 19 2025 16:56:08 GMT-0500 (Central Daylight Time),196111.7000000002,CFD-WF-037-016-A.jpg,1600,solid,O,z,994,10,1,17761.200000000186,178350.5,7065,ATS,C,7
8,test,1,A,haborder.png,1,z,Wed Mar 19 2025 16:56:08 GMT-0500 (Central Daylight Time),198061.1000000001,CFD-BF-031-020-A.jpg,1000,solid,O,z,922,4,1,19710.600000000093,178350.5,7065,ATS,C,8
9,test,1,A,haborder.png,1,m,Wed Mar 19 2025 16:56:08 GMT-0500 (Central Daylight Time),200043.3999999999,CFD-WM-028-005-HC.jpg,1400,solid,O,m,550,7,1,21692.899999999907,178350.5,7065,ATS,C,9
10,test,1,A,haborder.png,1,z,Wed Mar 19 2025 16:56:08 GMT-0500 (Central Daylight Time),201926.5,CFD-WF-023-013-A.jpg,1000,solid,O,z,862,12,1,23576.0,178350.5,7065,ATS,C,10
11,test,1,A,haborder.png,1,m,Wed Mar 19 2025 16:56:08 GMT-0500 (Central Daylight Time),204159.2000000002,CFD-WF-013-009-HC.jpg,1500,solid,O,m,713,11,1,25808.700000000186,178350.5,7065,ATS,C,11
12,test,1,A,haborder.png,1,m,Wed Mar 19 2025 16:56:08 GMT-0500 (Central Daylight Time),206841.6000000001,CFD-WM-035-036-HC.jpg,1700,solid,O,m,960,9,1,28491.100000000093,178350.5,7065,ATS,C,12
13,test,1,A,haborder.png,1,m,Wed Mar 19 2025 16:56:08 GMT-0500 (Central Daylight Time),209007.5,CFD-WM-028-005-HC.jpg,1400,solid,O,m,732,7,1,30657.0,178350.5,7065,ATS,C,13
14,test,1,A,haborder.png,1,m,Wed Mar 19 2025 16:56:08 GMT-0500 (Central Daylight Time),211907.7000000002,CFD-BF-019-004-HC.jpg,2000,solid,O,m,867,5,1,33557.200000000186,178350.5,7065,ATS,C,14
15,test,1,A,haborder.png,1,m,Wed Mar 19 2025 16:56:08 GMT-0500 (Central Daylight Time),214189.30000000028,CFD-WF-013-009-HC.jpg,1500,solid,O,m,764,11,1,35838.80000000028,178350.5,7065,ATS,C,15
16,test,1,A,haborder.png,1,m,Wed Mar 19 2025 16:56:08 GMT-0500 (Central Daylight Time),216422.0,CFD-BM-022-004-HC.jpg,1500,solid,O,m,713,3,1,38071.5,178350.5,7065,ATS,C,16
17,test,1,A,haborder.png,1,m,Wed Mar 19 2025 16:56:08 GMT-0500 (Central Daylight Time),218787.7000000002,CFD-BM-034-035-HC.jpg,1700,solid,O,m,648,1,1,40437.200000000186,178350.5,7065,ATS,C,17
18,test,1,A,haborder.png,1,z,Wed Mar 19 2025 16:56:08 GMT-0500 (Central Daylight Time),221287.1000000001,CFD-BM-043-014-A.jpg,1600,solid,O,z,879,2,1,42936.60000000009,178350.5,7065,ATS,C,18
19,test,1,A,haborder.png,1,z,Wed Mar 19 2025 16:56:08 GMT-0500 (Central Daylight Time),223936.3999999999,CFD-WF-037-016-A.jpg,1600,solid,O,z,1027,10,1,45585.89999999991,178350.5,7065,ATS,C,19
20,test,1,A,haborder.png,1,z,Wed Mar 19 2025 16:56:08 GMT-0500 (Central Daylight Time),225802.3999999999,CFD-WF-023-013-A.jpg,1000,solid,O,z,834,12,1,47451.89999999991,178350.5,7065,ATS,C,20
21,test,1,A,haborder.png,1,z,Wed Mar 19 2025 16:56:08 GMT-0500 (Central Daylight Time),228218.1000000001,CFD-BM-043-014-A.jpg,1600,solid,O,z,792,2,1,49867.60000000009,178350.5,7065,ATS,C,21
22,test,1,A,haborder.png,1,z,Wed Mar 19 2025 16:56:08 GMT-0500 (Central Daylight Time),230101.0,CFD-BF-031-020-A.jpg,1000,solid,O,z,864,4,1,51750.5,178350.5,7065,ATS,C,22
23,test,1,A,haborder.png,1,m,Wed Mar 19 2025 16:56:08 GMT-0500 (Central Daylight Time),232250.3999999999,CFD-BM-022-004-HC.jpg,1500,solid,O,m,618,3,1,53899.89999999991,178350.5,7065,ATS,C,23
24,test,1,A,haborder.png,1,m,Wed Mar 19 2025 16:56:08 GMT-0500 (Central Daylight Time),235366.0,CFD-BF-019-004-HC.jpg,2000,solid,O,m,1088,5,1,57015.5,178350.5,7065,ATS,C,24
1,test,1,B,mfborder.png,1,m,Wed Mar 19 2025 16:56:08 GMT-0500 (Central Daylight Time),253210.30000000028,CFD-BM-043-014-A.jpg,2000,dash,O,m,671,5,1,2698.8000000002794,250511.5,7065,ATS,C,1
2,test,1,B,mfborder.png,1,m,Wed Mar 19 2025 16:56:08 GMT-0500 (Central Daylight Time),255426.2000000002,CFD-BM-022-004-HC.jpg,1700,dash,O,m,492,1,1,4914.700000000186,250511.5,7065,ATS,C,2
3,test,1,B,mfborder.png,1,m,Wed Mar 19 2025 16:56:08 GMT-0500 (Central Daylight Time),257659.1000000001,CFD-WM-035-036-HC.jpg,1600,dash,O,m,608,10,1,7147.600000000093,250511.5,7065,ATS,C,3
4,test,1,B,mfborder.png,1,z,Wed Mar 19 2025 16:56:08 GMT-0500 (Central Daylight Time),260224.8999999999,CFD-BF-019-004-HC.jpg,1400,dash,O,z,1143,7,1,9713.399999999907,250511.5,7065,ATS,C,4
5,test,1,B,mfborder.png,1,m,Wed Mar 19 2025 16:56:08 GMT-0500 (Central Daylight Time),262507.3000000003,CFD-WM-036-018-A.jpg,1700,dash,O,m,558,9,1,11995.80000000028,250511.5,7065,ATS,C,5
6,test,1,B,mfborder.png,1,z,Wed Mar 19 2025 16:56:08 GMT-0500 (Central Daylight Time),265106.8999999999,CFD-BF-042-031-HC.jpg,1500,dash,O,z,1066,3,1,14595.399999999907,250511.5,7065,ATS,C,6
7,test,1,B,mfborder.png,1,z,Wed Mar 19 2025 16:56:08 GMT-0500 (Central Daylight Time),267739.3000000003,CFD-WF-037-016-A.jpg,1500,dash,O,z,1099,11,1,17227.80000000028,250511.5,7065,ATS,C,7
8,test,1,B,mfborder.png,1,z,Wed Mar 19 2025 16:56:08 GMT-0500 (Central Daylight Time),270555.2000000002,CFD-WF-001-010-HC.jpg,1900,dash,O,z,891,8,1,20043.700000000186,250511.5,7065,ATS,C,8
9,test,1,B,mfborder.png,1,z,Wed Mar 19 2025 16:56:08 GMT-0500 (Central Daylight Time),272904.3999999999,CFD-WF-037-016-A.jpg,1500,dash,O,z,827,11,1,22392.899999999907,250511.5,7065,ATS,C,9
10,test,1,B,mfborder.png,1,z,Wed Mar 19 2025 16:56:08 GMT-0500 (Central Daylight Time),274886.8000000003,CFD-BF-031-020-A.jpg,1000,dash,O,z,953,4,1,24375.30000000028,250511.5,7065,ATS,C,10
11,test,1,B,mfborder.png,1,z,Wed Mar 19 2025 16:56:08 GMT-0500 (Central Daylight Time),276736.3000000003,CFD-WF-013-009-HC.jpg,1000,dash,O,z,819,12,1,26224.80000000028,250511.5,7065,ATS,C,11
12,test,1,B,mfborder.png,1,m,Wed Mar 19 2025 16:56:08 GMT-0500 (Central Daylight Time),279402.8999999999,CFD-WM-036-018-A.jpg,1700,dash,O,m,942,9,1,28891.399999999907,250511.5,7065,ATS,C,12
13,test,1,B,mfborder.png,1,m,Wed Mar 19 2025 16:56:08 GMT-0500 (Central Daylight Time),281185.1000000001,CFD-WM-034-040-A.jpg,1200,dash,O,m,552,6,1,30673.600000000093,250511.5,7065,ATS,C,13
14,test,1,B,mfborder.png,1,m,Wed Mar 19 2025 16:56:08 GMT-0500 (Central Daylight Time),283434.1000000001,CFD-WM-035-036-HC.jpg,1600,dash,O,m,625,10,1,32922.60000000009,250511.5,7065,ATS,C,14
15,test,1,B,mfborder.png,1,z,Wed Mar 19 2025 16:56:08 GMT-0500 (Central Daylight Time),286233.3000000003,CFD-BF-042-031-HC.jpg,1500,dash,O,z,1197,3,1,35721.80000000028,250511.5,7065,ATS,C,15
16,test,1,B,mfborder.png,1,m,Wed Mar 19 2025 16:56:08 GMT-0500 (Central Daylight Time),288349.3999999999,CFD-WM-034-040-A.jpg,1200,dash,O,m,889,6,1,37837.89999999991,250511.5,7065,ATS,C,16
17,test,1,B,mfborder.png,1,z,Wed Mar 19 2025 16:56:08 GMT-0500 (Central Daylight Time),290532.8999999999,CFD-WF-013-009-HC.jpg,1000,dash,O,z,1161,12,1,40021.39999999991,250511.5,7065,ATS,C,17
18,test,1,B,mfborder.png,1,m,Wed Mar 19 2025 16:56:08 GMT-0500 (Central Daylight Time),292947.8000000003,CFD-BM-021-026-A.jpg,1600,dash,O,m,798,2,1,42436.30000000028,250511.5,7065,ATS,C,18
19,test,1,B,mfborder.png,1,z,Wed Mar 19 2025 16:56:08 GMT-0500 (Central Daylight Time),294764.2000000002,CFD-BF-031-020-A.jpg,1000,dash,O,z,790,4,1,44252.700000000186,250511.5,7065,ATS,C,19
20,test,1,B,mfborder.png,1,m,Wed Mar 19 2025 16:56:08 GMT-0500 (Central Daylight Time),297196.7000000002,CFD-BM-021-026-A.jpg,1600,dash,O,m,814,2,1,46685.200000000186,250511.5,7065,ATS,C,20
21,test,1,B,mfborder.png,1,m,Wed Mar 19 2025 16:56:08 GMT-0500 (Central Daylight Time),299629.5,CFD-BM-022-004-HC.jpg,1700,dash,O,m,705,1,1,49118.0,250511.5,7065,ATS,C,21
22,test,1,B,mfborder.png,1,z,Wed Mar 19 2025 16:56:08 GMT-0500 (Central Daylight Time),301895.3000000003,CFD-BF-019-004-HC.jpg,1400,dash,O,z,845,7,1,51383.80000000028,250511.5,7065,ATS,C,22
23,test,1,B,mfborder.png,1,m,Wed Mar 19 2025 16:56:08 GMT-0500 (Central Daylight Time),304694.2000000002,CFD-BM-043-014-A.jpg,2000,dash,O,m,771,5,1,54182.700000000186,250511.5,7065,ATS,C,23
24,test,1,B,mfborder.png,1,z,Wed Mar 19 2025 16:56:08 GMT-0500 (Central Daylight Time),307460.2000000002,CFD-WF-001-010-HC.jpg,1900,dash,O,z,839,8,1,56948.700000000186,250511.5,7065,ATS,C,24
0,prac,1,C,mfborder.png,0,m,Wed Mar 19 2025 16:56:08 GMT-0500 (Central Daylight Time),350296.7000000002,CFD-BM-034-035-HC.jpg,2000,solid,O,None,1516,8,1,4298.600000000093,345998.1000000001,7065,ATS,C,1
0,prac,1,C,mfborder.png,0,m,Wed Mar 19 2025 16:56:08 GMT-0500 (Central Daylight Time),354295.3999999999,CFD-WM-036-018-A.jpg,1700,solid,O,None,1516,8,1,8297.299999999814,345998.1000000001,7065,ATS,C,2
0,prac,1,C,mfborder.png,0,z,Wed Mar 19 2025 16:56:08 GMT-0500 (Central Daylight Time),357311.3999999999,CFD-BF-019-004-HC.jpg,1000,dash,O,m,1218,8,1,11313.299999999814,345998.1000000001,7065,ATS,C,3
0,prac,1,C,haborder.png,0,m,Wed Mar 19 2025 16:56:08 GMT-0500 (Central Daylight Time),360610.0,CFD-WM-028-005-HC.jpg,1000,dash,O,None,1516,8,1,14611.899999999907,345998.1000000001,7065,ATS,C,4
1,prac,1,C,haborder.png,1,m,Wed Mar 19 2025 16:56:08 GMT-0500 (Central Daylight Time),363709.2000000002,CFD-BM-022-004-HC.jpg,1500,solid,O,m,812,8,1,17711.100000000093,345998.1000000001,7065,ATS,C,5
1,prac,1,C,haborder.png,0,z,Wed Mar 19 2025 16:56:08 GMT-0500 (Central Daylight Time),367607.8999999999,CFD-WF-037-016-A.jpg,1600,dash,O,None,1516,8,1,21609.799999999814,345998.1000000001,7065,ATS,C,6
2,prac,1,C,haborder.png,1,m,Wed Mar 19 2025 16:56:08 GMT-0500 (Central Daylight Time),370823.5,CFD-WM-028-005-HC.jpg,1400,solid,O,m,1026,8,1,24825.399999999907,345998.1000000001,7065,ATS,C,7
2,prac,1,C,mfborder.png,0,z,Wed Mar 19 2025 16:56:08 GMT-0500 (Central Daylight Time),374722.2000000002,CFD-WF-013-009-HC.jpg,1600,dash,O,None,1516,8,1,28724.100000000093,345998.1000000001,7065,ATS,C,8
2,prac,1,C,haborder.png,0,z,Wed Mar 19 2025 16:56:08 GMT-0500 (Central Daylight Time),378721.3999999999,CFD-BF-002-018-A.jpg,1700,solid,O,None,1515,8,1,32723.299999999814,345998.1000000001,7065,ATS,C,9
2,prac,1,C,haborder.png,0,z,Wed Mar 19 2025 16:56:08 GMT-0500 (Central Daylight Time),382919.6000000001,CFD-BF-031-020-A.jpg,1900,dash,O,None,1515,8,1,36921.5,345998.1000000001,7065,ATS,C,10
2,prac,1,C,mfborder.png,0,z,Wed Mar 19 2025 16:56:08 GMT-0500 (Central Daylight Time),386718.7000000002,CFD-WF-023-013-A.jpg,1500,solid,O,None,1515,8,1,40720.60000000009,345998.1000000001,7065,ATS,C,11
2,prac,1,C,mfborder.png,0,m,Wed Mar 19 2025 16:56:08 GMT-0500 (Central Daylight Time),390217.6000000001,CFD-BM-043-014-A.jpg,1200,dash,O,None,1516,8,1,44219.5,345998.1000000001,7065,ATS,C,12
0,prac,2,C,mfborder.png,0,z,Wed Mar 19 2025 16:56:08 GMT-0500 (Central Daylight Time),398781.5,CFD-WF-023-013-A.jpg,1500,solid,O,None,1515,8,1,52783.39999999991,345998.1000000001,7065,ATS,C,1
0,prac,2,C,haborder.png,0,z,Wed Mar 19 2025 16:56:08 GMT-0500 (Central Daylight Time),402966.7000000002,CFD-BF-031-020-A.jpg,1900,dash,O,None,1516,8,1,56968.60000000009,345998.1000000001,7065,ATS,C,2
0,prac,2,C,mfborder.png,0,m,Wed Mar 19 2025 16:56:08 GMT-0500 (Central Daylight Time),406962.3000000003,CFD-WM-036-018-A.jpg,1700,solid,O,None,1516,8,1,60964.200000000186,345998.1000000001,7065,ATS,C,3
1,prac,2,C,haborder.png,1,m,Wed Mar 19 2025 16:56:08 GMT-0500 (Central Daylight Time),409861.3000000003,CFD-WM-028-005-HC.jpg,1000,dash,O,m,1104,8,1,63863.200000000186,345998.1000000001,7065,ATS,C,4
2,prac,2,C,haborder.png,1,m,Wed Mar 19 2025 16:56:08 GMT-0500 (Central Daylight Time),413177.1000000001,CFD-BM-022-004-HC.jpg,1500,solid,O,m,1025,8,1,67179.0,345998.1000000001,7065,ATS,C,5
2,prac,2,C,mfborder.png,0,m,Wed Mar 19 2025 16:56:08 GMT-0500 (Central Daylight Time),416425.8000000003,CFD-BM-043-014-A.jpg,1200,dash,O,z,1250,8,1,70427.70000000019,345998.1000000001,7065,ATS,C,6
3,prac,2,C,mfborder.png,1,m,Wed Mar 19 2025 16:56:08 GMT-0500 (Central Daylight Time),420075.0,CFD-BM-034-035-HC.jpg,2000,solid,O,m,857,8,1,74076.8999999999,345998.1000000001,7065,ATS,C,7
4,prac,2,C,haborder.png,1,z,Wed Mar 19 2025 16:56:08 GMT-0500 (Central Daylight Time),423673.8000000003,CFD-BF-002-018-A.jpg,1700,solid,O,z,1116,8,1,77675.70000000019,345998.1000000001,7065,ATS,C,8
5,prac,2,C,haborder.png,1,m,Wed Mar 19 2025 16:56:08 GMT-0500 (Central Daylight Time),426989.2000000002,CFD-WM-028-005-HC.jpg,1400,solid,O,m,1143,8,1,80991.1000000001,345998.1000000001,7065,ATS,C,9
6,prac,2,C,mfborder.png,1,z,Wed Mar 19 2025 16:56:08 GMT-0500 (Central Daylight Time),430538.2000000002,CFD-WF-013-009-HC.jpg,1600,dash,O,z,1150,8,1,84540.1000000001,345998.1000000001,7065,ATS,C,10
6,prac,2,C,mfborder.png,0,z,Wed Mar 19 2025 16:56:08 GMT-0500 (Central Daylight Time),433837.1000000001,CFD-BF-019-004-HC.jpg,1000,dash,O,None,1516,8,1,87839.0,345998.1000000001,7065,ATS,C,11
6,prac,2,C,haborder.png,0,z,Wed Mar 19 2025 16:56:08 GMT-0500 (Central Daylight Time),437286.1000000001,CFD-WF-037-016-A.jpg,1600,dash,O,m,1053,8,1,91288.0,345998.1000000001,7065,ATS,C,12
0,test,1,C,haborder.png,0,z,Wed Mar 19 2025 16:56:08 GMT-0500 (Central Daylight Time),449907.8999999999,CFD-BM-043-014-A.jpg,1900,solid,O,None,1625,8,1,3541.5,446366.3999999999,7065,ATS,C,1
1,test,1,C,haborder.png,1,m,Wed Mar 19 2025 16:56:08 GMT-0500 (Central Daylight Time),452748.0,CFD-BF-019-004-HC.jpg,1600,solid,O,m,1222,10,1,6381.600000000093,446366.3999999999,7065,ATS,C,2
2,test,1,C,haborder.png,1,z,Wed Mar 19 2025 16:56:08 GMT-0500 (Central Daylight Time),455846.5,CFD-BM-043-014-A.jpg,1900,solid,O,z,1171,8,1,9480.100000000093,446366.3999999999,7065,ATS,C,3
3,test,1,C,mfborder.png,1,z,Wed Mar 19 2025 16:56:08 GMT-0500 (Central Daylight Time),458395.8999999999,CFD-WF-037-016-A.jpg,1500,dash,O,z,1031,3,1,12029.5,446366.3999999999,7065,ATS,C,4
3,test,1,C,haborder.png,0,z,Wed Mar 19 2025 16:56:08 GMT-0500 (Central Daylight Time),461329.0,CFD-WM-036-018-A.jpg,1400,solid,O,None,1516,7,1,14962.600000000093,446366.3999999999,7065,ATS,C,5
3,test,1,C,haborder.png,0,m,Wed Mar 19 2025 16:56:08 GMT-0500 (Central Daylight Time),464460.8999999999,CFD-BF-019-004-HC.jpg,1600,solid,O,None,1516,10,1,18094.5,446366.3999999999,7065,ATS,C,6
4,test,1,C,mfborder.png,1,z,Wed Mar 19 2025 16:56:08 GMT-0500 (Central Daylight Time),467426.7000000002,CFD-BF-042-031-HC.jpg,1700,dash,O,z,1241,1,1,21060.30000000028,446366.3999999999,7065,ATS,C,7
4,test,1,C,mfborder.png,0,m,Wed Mar 19 2025 16:56:08 GMT-0500 (Central Daylight Time),469959.2000000002,CFD-WM-035-036-HC.jpg,1000,dash,O,None,1512,4,1,23592.80000000028,446366.3999999999,7065,ATS,C,8
4,test,1,C,haborder.png,0,z,Wed Mar 19 2025 16:56:08 GMT-0500 (Central Daylight Time),473321.2000000002,CFD-BM-021-026-A.jpg,1700,solid,O,None,1645,9,1,26954.80000000028,446366.3999999999,7065,ATS,C,9
4,test,1,C,mfborder.png,0,m,Wed Mar 19 2025 16:56:08 GMT-0500 (Central Daylight Time),476607.1000000001,CFD-WM-034-040-A.jpg,2000,dash,O,z,1261,5,1,30240.700000000186,446366.3999999999,7065,ATS,C,10
5,test,1,C,mfborder.png,1,z,Wed Mar 19 2025 16:56:08 GMT-0500 (Central Daylight Time),479672.8000000003,CFD-BF-031-020-A.jpg,1600,dash,O,z,1431,2,1,33306.40000000037,446366.3999999999,7065,ATS,C,11
6,test,1,C,haborder.png,1,m,Wed Mar 19 2025 16:56:08 GMT-0500 (Central Daylight Time),481755.5,CFD-WF-013-009-HC.jpg,1000,solid,O,m,1051,12,1,35389.10000000009,446366.3999999999,7065,ATS,C,12
6,test,1,C,haborder.png,0,z,Wed Mar 19 2025 16:56:08 GMT-0500 (Central Daylight Time),484988.0,CFD-BM-021-026-A.jpg,1700,solid,O,None,1516,9,1,38621.60000000009,446366.3999999999,7065,ATS,C,13
7,test,1,C,haborder.png,1,m,Wed Mar 19 2025 16:56:08 GMT-0500 (Central Daylight Time),487353.7000000002,CFD-WF-013-009-HC.jpg,1000,solid,O,m,1342,12,1,40987.30000000028,446366.3999999999,7065,ATS,C,14
8,test,1,C,haborder.png,1,m,Wed Mar 19 2025 16:56:08 GMT-0500 (Central Daylight Time),489419.7000000002,CFD-WF-001-010-HC.jpg,1500,solid,O,m,541,11,1,43053.30000000028,446366.3999999999,7065,ATS,C,15
8,test,1,C,mfborder.png,0,z,Wed Mar 19 2025 16:56:08 GMT-0500 (Central Daylight Time),491552.3999999999,CFD-BF-042-031-HC.jpg,1700,dash,O,m,411,1,1,45186.0,446366.3999999999,7065,ATS,C,16
8,test,1,C,mfborder.png,0,z,Wed Mar 19 2025 16:56:08 GMT-0500 (Central Daylight Time),493634.8000000003,CFD-WF-037-016-A.jpg,1500,dash,O,m,558,3,1,47268.40000000037,446366.3999999999,7065,ATS,C,17
9,test,1,C,mfborder.png,1,m,Wed Mar 19 2025 16:56:08 GMT-0500 (Central Daylight Time),495484.5,CFD-BM-022-004-HC.jpg,1200,dash,O,m,623,6,1,49118.10000000009,446366.3999999999,7065,ATS,C,18
9,test,1,C,mfborder.png,0,m,Wed Mar 19 2025 16:56:08 GMT-0500 (Central Daylight Time),498133.6000000001,CFD-WM-034-040-A.jpg,2000,dash,O,z,630,5,1,51767.200000000186,446366.3999999999,7065,ATS,C,19
9,test,1,C,mfborder.png,0,m,Wed Mar 19 2025 16:56:08 GMT-0500 (Central Daylight Time),500666.3000000003,CFD-WM-035-036-HC.jpg,1000,dash,O,None,1515,4,1,54299.90000000037,446366.3999999999,7065,ATS,C,20
9,test,1,C,haborder.png,0,m,Wed Mar 19 2025 16:56:08 GMT-0500 (Central Daylight Time),503315.3999999999,CFD-WF-001-010-HC.jpg,1500,solid,O,z,1124,11,1,56949.0,446366.3999999999,7065,ATS,C,21
10,test,1,C,mfborder.png,1,z,Wed Mar 19 2025 16:56:08 GMT-0500 (Central Daylight Time),506147.6000000001,CFD-BF-031-020-A.jpg,1600,dash,O,z,1215,2,1,59781.200000000186,446366.3999999999,7065,ATS,C,22
10,test,1,C,mfborder.png,0,m,Wed Mar 19 2025 16:56:08 GMT-0500 (Central Daylight Time),508280.5,CFD-BM-022-004-HC.jpg,1200,dash,O,z,910,6,1,61914.10000000009,446366.3999999999,7065,ATS,C,23
10,test,1,C,haborder.png,0,z,Wed Mar 19 2025 16:56:08 GMT-0500 (Central Daylight Time),511063.0,CFD-WM-036-018-A.jpg,1400,solid,O,m,1354,7,1,64696.60000000009,446366.3999999999,7065,ATS,C,24
1,test,2,C,haborder.png,1,m,Wed Mar 19 2025 16:56:08 GMT-0500 (Central Daylight Time),515928.0,CFD-WM-028-005-HC.jpg,1500,solid,O,m,1382,11,1,2915.6999999997206,513012.3000000003,7065,ATS,C,1
1,test,2,C,mfborder.png,0,z,Wed Mar 19 2025 16:56:08 GMT-0500 (Central Daylight Time),518960.8000000003,CFD-BF-019-004-HC.jpg,1500,dash,O,None,1512,3,1,5948.5,513012.3000000003,7065,ATS,C,2
1,test,2,C,mfborder.png,0,m,Wed Mar 19 2025 16:56:08 GMT-0500 (Central Daylight Time),521497.3000000003,CFD-BM-034-035-HC.jpg,1000,dash,O,None,1515,4,1,8485.0,513012.3000000003,7065,ATS,C,3
2,test,2,C,mfborder.png,1,m,Wed Mar 19 2025 16:56:08 GMT-0500 (Central Daylight Time),523625.7000000002,CFD-WM-036-018-A.jpg,1200,dash,O,m,901,6,1,10613.399999999907,513012.3000000003,7065,ATS,C,4
3,test,2,C,mfborder.png,1,m,Wed Mar 19 2025 16:56:08 GMT-0500 (Central Daylight Time),525491.7000000002,CFD-BM-034-035-HC.jpg,1000,dash,O,m,833,4,1,12479.399999999907,513012.3000000003,7065,ATS,C,5
3,test,2,C,haborder.png,0,z,Wed Mar 19 2025 16:56:08 GMT-0500 (Central Daylight Time),527774.5,CFD-BF-002-018-A.jpg,1900,solid,O,m,355,8,1,14762.19999999972,513012.3000000003,7065,ATS,C,6
4,test,2,C,haborder.png,1,m,Wed Mar 19 2025 16:56:08 GMT-0500 (Central Daylight Time),530290.3999999999,CFD-BM-022-004-HC.jpg,1600,solid,O,m,884,10,1,17278.099999999627,513012.3000000003,7065,ATS,C,7
5,test,2,C,haborder.png,1,z,Wed Mar 19 2025 16:56:08 GMT-0500 (Central Daylight Time),533272.7000000002,CFD-WF-037-016-A.jpg,1700,solid,O,z,1252,9,1,20260.399999999907,513012.3000000003,7065,ATS,C,8
6,test,2,C,haborder.png,1,m,Wed Mar 19 2025 16:56:08 GMT-0500 (Central Daylight Time),536038.5,CFD-BM-022-004-HC.jpg,1600,solid,O,m,1138,10,1,23026.19999999972,513012.3000000003,7065,ATS,C,9
7,test,2,C,haborder.png,1,z,Wed Mar 19 2025 16:56:08 GMT-0500 (Central Daylight Time),538904.2000000002,CFD-BF-002-018-A.jpg,1900,solid,O,z,936,8,1,25891.899999999907,513012.3000000003,7065,ATS,C,10
8,test,2,C,haborder.png,1,m,Wed Mar 19 2025 16:56:08 GMT-0500 (Central Daylight Time),540836.8000000003,CFD-WM-028-005-HC.jpg,1000,solid,O,m,906,12,1,27824.5,513012.3000000003,7065,ATS,C,11
8,test,2,C,mfborder.png,0,z,Wed Mar 19 2025 16:56:08 GMT-0500 (Central Daylight Time),543519.3000000003,CFD-WF-013-009-HC.jpg,1700,dash,O,m,962,1,1,30507.0,513012.3000000003,7065,ATS,C,12
8,test,2,C,mfborder.png,0,z,Wed Mar 19 2025 16:56:08 GMT-0500 (Central Daylight Time),546752.8000000003,CFD-WF-013-009-HC.jpg,1700,dash,O,None,1517,1,1,33740.5,513012.3000000003,7065,ATS,C,13
8,test,2,C,haborder.png,0,m,Wed Mar 19 2025 16:56:08 GMT-0500 (Central Daylight Time),549284.3000000003,CFD-WM-028-005-HC.jpg,1000,solid,O,None,1515,12,1,36272.0,513012.3000000003,7065,ATS,C,14
8,test,2,C,mfborder.png,0,z,Wed Mar 19 2025 16:56:08 GMT-0500 (Central Daylight Time),552416.7000000002,CFD-WF-023-013-A.jpg,1600,dash,O,None,1516,2,1,39404.39999999991,513012.3000000003,7065,ATS,C,15
8,test,2,C,haborder.png,0,z,Wed Mar 19 2025 16:56:08 GMT-0500 (Central Daylight Time),555582.3000000003,CFD-WF-037-016-A.jpg,1700,solid,O,m,1438,9,1,42570.0,513012.3000000003,7065,ATS,C,16
8,test,2,C,mfborder.png,0,m,Wed Mar 19 2025 16:56:08 GMT-0500 (Central Daylight Time),559114.8999999999,CFD-BM-043-014-A.jpg,2000,dash,O,None,1516,5,1,46102.59999999963,513012.3000000003,7065,ATS,C,17
8,test,2,C,mfborder.png,0,z,Wed Mar 19 2025 16:56:08 GMT-0500 (Central Daylight Time),562247.1000000001,CFD-WF-023-013-A.jpg,1600,dash,O,None,1516,2,1,49234.799999999814,513012.3000000003,7065,ATS,C,18
9,test,2,C,mfborder.png,1,m,Wed Mar 19 2025 16:56:08 GMT-0500 (Central Daylight Time),565712.5,CFD-BM-043-014-A.jpg,2000,dash,O,m,1435,5,1,52700.19999999972,513012.3000000003,7065,ATS,C,19
10,test,2,C,haborder.png,1,z,Wed Mar 19 2025 16:56:08 GMT-0500 (Central Daylight Time),568328.3000000003,CFD-BF-031-020-A.jpg,1400,solid,O,z,1186,7,1,55316.0,513012.3000000003,7065,ATS,C,20
11,test,2,C,mfborder.png,1,z,Wed Mar 19 2025 16:56:08 GMT-0500 (Central Daylight Time),570761.0000000005,CFD-BF-019-004-HC.jpg,1500,dash,O,z,902,3,1,57748.700000000186,513012.3000000003,7065,ATS,C,21
12,test,2,C,mfborder.png,1,m,Wed Mar 19 2025 16:56:08 GMT-0500 (Central Daylight Time),572810.3000000003,CFD-WM-036-018-A.jpg,1200,dash,O,m,817,6,1,59798.0,513012.3000000003,7065,ATS,C,22
13,test,2,C,haborder.png,1,m,Wed Mar 19 2025 16:56:08 GMT-0500 (Central Daylight Time),575592.6999999997,CFD-WM-028-005-HC.jpg,1500,solid,O,m,1252,11,1,62580.39999999944,513012.3000000003,7065,ATS,C,23
13,test,2,C,haborder.png,0,z,Wed Mar 19 2025 16:56:08 GMT-0500 (Central Daylight Time),578525.1999999997,CFD-BF-031-020-A.jpg,1400,solid,O,None,1515,7,1,65512.89999999944,513012.3000000003,7065,ATS,C,24
1,test,3,C,mfborder.png,1,m,Wed Mar 19 2025 16:56:08 GMT-0500 (Central Daylight Time),582423.8999999999,CFD-BM-022-004-HC.jpg,1200,dash,O,m,1244,6,1,2465.7999999998137,579958.1000000001,7065,ATS,C,1
2,test,3,C,mfborder.png,1,z,Wed Mar 19 2025 16:56:08 GMT-0500 (Central Daylight Time),585339.8000000003,CFD-WF-037-016-A.jpg,1500,dash,O,z,1398,3,1,5381.700000000186,579958.1000000001,7065,ATS,C,2
2,test,3,C,haborder.png,0,z,Wed Mar 19 2025 16:56:08 GMT-0500 (Central Daylight Time),588272.3999999999,CFD-WM-036-018-A.jpg,1400,solid,O,None,1515,7,1,8314.299999999814,579958.1000000001,7065,ATS,C,3
3,test,3,C,haborder.png,1,z,Wed Mar 19 2025 16:56:08 GMT-0500 (Central Daylight Time),591387.8000000003,CFD-BM-043-014-A.jpg,1900,solid,O,z,1182,8,1,11429.700000000186,579958.1000000001,7065,ATS,C,4
3,test,3,C,mfborder.png,0,z,Wed Mar 19 2025 16:56:08 GMT-0500 (Central Daylight Time),593953.6999999997,CFD-BF-042-031-HC.jpg,1700,dash,O,m,841,1,1,13995.599999999627,579958.1000000001,7065,ATS,C,5
4,test,3,C,mfborder.png,1,z,Wed Mar 19 2025 16:56:08 GMT-0500 (Central Daylight Time),596386.3999999999,CFD-BF-042-031-HC.jpg,1700,dash,O,z,701,1,1,16428.299999999814,579958.1000000001,7065,ATS,C,6
4,test,3,C,haborder.png,0,m,Wed Mar 19 2025 16:56:08 GMT-0500 (Central Daylight Time),598219.1000000001,CFD-WF-013-009-HC.jpg,1000,solid,O,z,808,12,1,18261.0,579958.1000000001,7065,ATS,C,7
5,test,3,C,mfborder.png,1,m,Wed Mar 19 2025 16:56:08 GMT-0500 (Central Daylight Time),601301.3000000003,CFD-WM-034-040-A.jpg,2000,dash,O,m,1056,5,1,21343.200000000186,579958.1000000001,7065,ATS,C,8
5,test,3,C,mfborder.png,0,m,Wed Mar 19 2025 16:56:08 GMT-0500 (Central Daylight Time),603833.8999999999,CFD-WM-035-036-HC.jpg,1000,dash,O,None,1516,4,1,23875.799999999814,579958.1000000001,7065,ATS,C,9
6,test,3,C,mfborder.png,1,m,Wed Mar 19 2025 16:56:08 GMT-0500 (Central Daylight Time),606050.0000000005,CFD-BM-022-004-HC.jpg,1200,dash,O,m,992,6,1,26091.900000000373,579958.1000000001,7065,ATS,C,10
6,test,3,C,haborder.png,0,m,Wed Mar 19 2025 16:56:08 GMT-0500 (Central Daylight Time),608532.3000000003,CFD-WF-001-010-HC.jpg,1500,solid,O,z,964,11,1,28574.200000000186,579958.1000000001,7065,ATS,C,11
6,test,3,C,haborder.png,0,m,Wed Mar 19 2025 16:56:08 GMT-0500 (Central Daylight Time),610415.3000000003,CFD-WF-013-009-HC.jpg,1000,solid,O,z,862,12,1,30457.200000000186,579958.1000000001,7065,ATS,C,12
6,test,3,C,haborder.png,0,z,Wed Mar 19 2025 16:56:08 GMT-0500 (Central Daylight Time),613147.6999999997,CFD-BM-021-026-A.jpg,1700,solid,O,m,1000,9,1,33189.59999999963,579958.1000000001,7065,ATS,C,13
6,test,3,C,haborder.png,0,z,Wed Mar 19 2025 16:56:08 GMT-0500 (Central Daylight Time),615730.1000000001,CFD-BM-021-026-A.jpg,1700,solid,O,m,859,9,1,35772.0,579958.1000000001,7065,ATS,C,14
6,test,3,C,haborder.png,0,m,Wed Mar 19 2025 16:56:08 GMT-0500 (Central Daylight Time),618012.8999999999,CFD-WF-001-010-HC.jpg,1500,solid,O,z,764,11,1,38054.799999999814,579958.1000000001,7065,ATS,C,15
6,test,3,C,haborder.png,0,m,Wed Mar 19 2025 16:56:08 GMT-0500 (Central Daylight Time),621145.3000000003,CFD-BF-019-004-HC.jpg,1600,solid,O,None,1516,10,1,41187.200000000186,579958.1000000001,7065,ATS,C,16
6,test,3,C,mfborder.png,0,z,Wed Mar 19 2025 16:56:08 GMT-0500 (Central Daylight Time),623644.6999999997,CFD-BF-031-020-A.jpg,1600,dash,O,m,873,2,1,43686.59999999963,579958.1000000001,7065,ATS,C,17
6,test,3,C,haborder.png,0,z,Wed Mar 19 2025 16:56:08 GMT-0500 (Central Daylight Time),626310.5000000005,CFD-BM-043-014-A.jpg,1900,solid,O,m,738,8,1,46352.40000000037,579958.1000000001,7065,ATS,C,18
7,test,3,C,mfborder.png,1,m,Wed Mar 19 2025 16:56:08 GMT-0500 (Central Daylight Time),629175.8000000003,CFD-WM-034-040-A.jpg,2000,dash,O,m,836,5,1,49217.700000000186,579958.1000000001,7065,ATS,C,19
7,test,3,C,mfborder.png,0,m,Wed Mar 19 2025 16:56:08 GMT-0500 (Central Daylight Time),631708.8000000003,CFD-WM-035-036-HC.jpg,1000,dash,O,None,1516,4,1,51750.700000000186,579958.1000000001,7065,ATS,C,20
7,test,3,C,haborder.png,0,m,Wed Mar 19 2025 16:56:08 GMT-0500 (Central Daylight Time),634840.8000000003,CFD-BF-019-004-HC.jpg,1600,solid,O,None,1512,10,1,54882.700000000186,579958.1000000001,7065,ATS,C,21
8,test,3,C,mfborder.png,1,z,Wed Mar 19 2025 16:56:08 GMT-0500 (Central Daylight Time),637923.3000000003,CFD-BF-031-020-A.jpg,1600,dash,O,z,1457,2,1,57965.200000000186,579958.1000000001,7065,ATS,C,22
9,test,3,C,mfborder.png,1,z,Wed Mar 19 2025 16:56:08 GMT-0500 (Central Daylight Time),640172.5000000005,CFD-WF-037-016-A.jpg,1500,dash,O,z,723,3,1,60214.40000000037,579958.1000000001,7065,ATS,C,23
10,test,3,C,haborder.png,1,z,Wed Mar 19 2025 16:56:08 GMT-0500 (Central Daylight Time),642705.1000000001,CFD-WM-036-018-A.jpg,1400,solid,O,z,1102,7,1,62747.0,579958.1000000001,7065,ATS,C,24
1,test,4,C,mfborder.png,1,m,Wed Mar 19 2025 16:56:08 GMT-0500 (Central Daylight Time),646154.1000000001,CFD-BM-034-035-HC.jpg,1000,dash,O,m,946,4,1,1982.7000000001863,644171.3999999999,7065,ATS,C,1
1,test,4,C,haborder.png,0,m,Wed Mar 19 2025 16:56:08 GMT-0500 (Central Daylight Time),649070.8000000003,CFD-BM-022-004-HC.jpg,1600,solid,O,z,1296,10,1,4899.4000000003725,644171.3999999999,7065,ATS,C,2
2,test,4,C,haborder.png,1,m,Wed Mar 19 2025 16:56:08 GMT-0500 (Central Daylight Time),651785.3999999999,CFD-WM-028-005-HC.jpg,1500,solid,O,m,1193,11,1,7614.0,644171.3999999999,7065,ATS,C,3
2,test,4,C,mfborder.png,0,m,Wed Mar 19 2025 16:56:08 GMT-0500 (Central Daylight Time),655251.3000000003,CFD-BM-043-014-A.jpg,2000,dash,O,z,1433,5,1,11079.900000000373,644171.3999999999,7065,ATS,C,4
2,test,4,C,mfborder.png,0,z,Wed Mar 19 2025 16:56:08 GMT-0500 (Central Daylight Time),657816.8000000003,CFD-BF-019-004-HC.jpg,1500,dash,O,m,1043,3,1,13645.400000000373,644171.3999999999,7065,ATS,C,5
2,test,4,C,haborder.png,0,z,Wed Mar 19 2025 16:56:08 GMT-0500 (Central Daylight Time),661049.3000000003,CFD-WF-037-016-A.jpg,1700,solid,O,None,1515,9,1,16877.900000000373,644171.3999999999,7065,ATS,C,6
2,test,4,C,mfborder.png,0,m,Wed Mar 19 2025 16:56:08 GMT-0500 (Central Daylight Time),663648.5000000005,CFD-WM-036-018-A.jpg,1200,dash,O,z,1369,6,1,19477.10000000056,644171.3999999999,7065,ATS,C,7
2,test,4,C,mfborder.png,0,z,Wed Mar 19 2025 16:56:08 GMT-0500 (Central Daylight Time),666131.1999999997,CFD-BF-019-004-HC.jpg,1500,dash,O,m,946,3,1,21959.799999999814,644171.3999999999,7065,ATS,C,8
3,test,4,C,haborder.png,1,z,Wed Mar 19 2025 16:56:08 GMT-0500 (Central Daylight Time),669179.6999999997,CFD-BF-002-018-A.jpg,1900,solid,O,z,1132,8,1,25008.299999999814,644171.3999999999,7065,ATS,C,9
4,test,4,C,haborder.png,1,m,Wed Mar 19 2025 16:56:08 GMT-0500 (Central Daylight Time),671946.0000000005,CFD-BM-022-004-HC.jpg,1600,solid,O,m,1134,10,1,27774.60000000056,644171.3999999999,7065,ATS,C,10
5,test,4,C,haborder.png,1,z,Wed Mar 19 2025 16:56:08 GMT-0500 (Central Daylight Time),674761.6999999997,CFD-BF-002-018-A.jpg,1900,solid,O,z,883,8,1,30590.299999999814,644171.3999999999,7065,ATS,C,11
6,test,4,C,mfborder.png,1,m,Wed Mar 19 2025 16:56:08 GMT-0500 (Central Daylight Time),677711.0000000005,CFD-BM-043-014-A.jpg,2000,dash,O,m,921,5,1,33539.60000000056,644171.3999999999,7065,ATS,C,12
7,test,4,C,haborder.png,1,z,Wed Mar 19 2025 16:56:08 GMT-0500 (Central Daylight Time),680260.0000000005,CFD-WF-037-016-A.jpg,1700,solid,O,z,831,9,1,36088.60000000056,644171.3999999999,7065,ATS,C,13
7,test,4,C,haborder.png,0,m,Wed Mar 19 2025 16:56:08 GMT-0500 (Central Daylight Time),682792.8999999999,CFD-WM-028-005-HC.jpg,1000,solid,O,None,1516,12,1,38621.5,644171.3999999999,7065,ATS,C,14
8,test,4,C,haborder.png,1,z,Wed Mar 19 2025 16:56:08 GMT-0500 (Central Daylight Time),685158.3000000003,CFD-BF-031-020-A.jpg,1400,solid,O,z,944,7,1,40986.90000000037,644171.3999999999,7065,ATS,C,15
9,test,4,C,mfborder.png,1,z,Wed Mar 19 2025 16:56:08 GMT-0500 (Central Daylight Time),687941.0000000005,CFD-WF-023-013-A.jpg,1600,dash,O,z,1164,2,1,43769.60000000056,644171.3999999999,7065,ATS,C,16
9,test,4,C,haborder.png,0,z,Wed Mar 19 2025 16:56:08 GMT-0500 (Central Daylight Time),690340.3000000003,CFD-BF-031-020-A.jpg,1400,solid,O,m,981,7,1,46168.90000000037,644171.3999999999,7065,ATS,C,17
9,test,4,C,haborder.png,0,m,Wed Mar 19 2025 16:56:08 GMT-0500 (Central Daylight Time),692872.6999999997,CFD-WM-028-005-HC.jpg,1000,solid,O,None,1513,12,1,48701.299999999814,644171.3999999999,7065,ATS,C,18
9,test,4,C,mfborder.png,0,m,Wed Mar 19 2025 16:56:08 GMT-0500 (Central Daylight Time),695338.6000000001,CFD-BM-034-035-HC.jpg,1000,dash,O,z,1433,4,1,51167.200000000186,644171.3999999999,7065,ATS,C,19
10,test,4,C,haborder.png,1,m,Wed Mar 19 2025 16:56:08 GMT-0500 (Central Daylight Time),697921.1999999997,CFD-WM-028-005-HC.jpg,1500,solid,O,m,1060,11,1,53749.799999999814,644171.3999999999,7065,ATS,C,20
10,test,4,C,mfborder.png,0,z,Wed Mar 19 2025 16:56:08 GMT-0500 (Central Daylight Time),700753.6000000001,CFD-WF-013-009-HC.jpg,1700,dash,O,m,1101,1,1,56582.200000000186,644171.3999999999,7065,ATS,C,21
11,test,4,C,mfborder.png,1,z,Wed Mar 19 2025 16:56:08 GMT-0500 (Central Daylight Time),703802.8000000003,CFD-WF-023-013-A.jpg,1600,dash,O,z,1417,2,1,59631.40000000037,644171.3999999999,7065,ATS,C,22
11,test,4,C,mfborder.png,0,m,Wed Mar 19 2025 16:56:08 GMT-0500 (Central Daylight Time),706285.1000000001,CFD-WM-036-018-A.jpg,1200,dash,O,z,1264,6,1,62113.700000000186,644171.3999999999,7065,ATS,C,23
11,test,4,C,mfborder.png,0,z,Wed Mar 19 2025 16:56:08 GMT-0500 (Central Daylight Time),709317.6000000001,CFD-WF-013-009-HC.jpg,1700,dash,O,m,1305,1,1,65146.200000000186,644171.3999999999,7065,ATS,C,24
