block_c,block_dur,condition,countdown,datetime,endtime,list,multichar_response,project,response,response_time,session_number,start_end,starttime,subject_id,task,task_vers,trial
,,,,Wed Apr 02 2025 12:03:29 GMT-0500 (Central Daylight Time),,,,O,space,590,1,,,7103,WL,B,
prac,,0,,Wed Apr 02 2025 12:03:29 GMT-0500 (Central Daylight Time),,NA,b,O,b,5040,1,,,7103,WL,B,1.0
prac,,0,,Wed Apr 02 2025 12:03:29 GMT-0500 (Central Daylight Time),,NA,bo,O,o,453,1,,,7103,WL,B,1.0
prac,,0,,Wed Apr 02 2025 12:03:29 GMT-0500 (Central Daylight Time),,NA,boo,O,o,124,1,,,7103,WL,B,1.0
prac,,0,,Wed Apr 02 2025 12:03:29 GMT-0500 (Central Daylight Time),,NA,boos,O,s,189,1,,,7103,WL,B,1.0
prac,,0,,Wed Apr 02 2025 12:03:29 GMT-0500 (Central Daylight Time),,NA,boost,O,t,154,1,,,7103,WL,B,1.0
prac,,0,,Wed Apr 02 2025 12:03:29 GMT-0500 (Central Daylight Time),,NA,boostenter,O,enter,241,1,,,7103,WL,B,1.0
1,1.315999984741211,learn,58684.00001525879,Wed Apr 02 2025 12:03:29 GMT-0500 (Central Daylight Time),125845.60000002384,A,s,O,s,1278,1,1315.2000000178814,124530.40000000596,7103,WL,B,1.0
1,1.5830001831054688,learn,58416.99981689453,Wed Apr 02 2025 12:03:29 GMT-0500 (Central Daylight Time),126112.30000001192,A,st,O,t,227,1,1581.9000000059605,124530.40000000596,7103,WL,B,1.0
1,1.8990001678466797,learn,58100.99983215332,Wed Apr 02 2025 12:03:29 GMT-0500 (Central Daylight Time),126428.40000000596,A,str,O,r,283,1,1898.0,124530.40000000596,7103,WL,B,1.0
1,2.265000104904175,learn,57734.999895095825,Wed Apr 02 2025 12:03:29 GMT-0500 (Central Daylight Time),126794.90000000596,A,stre,O,e,321,1,2264.5,124530.40000000596,7103,WL,B,1.0
1,2.4820001125335693,learn,57517.99988746643,Wed Apr 02 2025 12:03:29 GMT-0500 (Central Daylight Time),127011.5,A,stree,O,e,182,1,2481.0999999940395,124530.40000000596,7103,WL,B,1.0
1,2.6649999618530273,learn,57335.00003814697,Wed Apr 02 2025 12:03:29 GMT-0500 (Central Daylight Time),127194.70000001788,A,street,O,t,152,1,2664.300000011921,124530.40000000596,7103,WL,B,1.0
1,6.3470001220703125,learn,53652.99987792969,Wed Apr 02 2025 12:03:29 GMT-0500 (Central Daylight Time),130875.90000000596,A,streetenter,O,enter,3639,1,6345.5,124530.40000000596,7103,WL,B,1.0
1,6.996999979019165,learn,53003.000020980835,Wed Apr 02 2025 12:03:29 GMT-0500 (Central Daylight Time),131526.70000001788,A,a,O,a,639,1,650.3000000119209,130876.40000000596,7103,WL,B,2.0
1,7.264000177383423,learn,52735.99982261658,Wed Apr 02 2025 12:03:29 GMT-0500 (Central Daylight Time),131793.0,A,ar,O,r,229,1,916.5999999940395,130876.40000000596,7103,WL,B,2.0
1,7.480000019073486,learn,52519.999980926514,Wed Apr 02 2025 12:03:29 GMT-0500 (Central Daylight Time),132009.70000001788,A,arm,O,m,179,1,1133.300000011921,130876.40000000596,7103,WL,B,2.0
1,7.812999963760376,learn,52187.000036239624,Wed Apr 02 2025 12:03:29 GMT-0500 (Central Daylight Time),132342.10000002384,A,armenter,O,enter,290,1,1465.7000000178814,130876.40000000596,7103,WL,B,2.0
1,8.246999979019165,learn,51753.000020980835,Wed Apr 02 2025 12:03:29 GMT-0500 (Central Daylight Time),132776.10000002384,A,g,O,g,412,1,433.60000002384186,132342.5,7103,WL,B,3.0
1,8.614000082015991,learn,51385.99991798401,Wed Apr 02 2025 12:03:29 GMT-0500 (Central Daylight Time),133143.0,A,gr,O,r,324,1,800.5,132342.5,7103,WL,B,3.0
1,8.797000169754028,learn,51202.99983024597,Wed Apr 02 2025 12:03:29 GMT-0500 (Central Daylight Time),133326.10000002384,A,gra,O,a,151,1,983.6000000238419,132342.5,7103,WL,B,3.0
1,9.147000074386597,learn,50852.9999256134,Wed Apr 02 2025 12:03:29 GMT-0500 (Central Daylight Time),133676.0,A,gras,O,s,312,1,1333.5,132342.5,7103,WL,B,3.0
1,9.296000003814697,learn,50703.9999961853,Wed Apr 02 2025 12:03:29 GMT-0500 (Central Daylight Time),133825.80000001192,A,grass,O,s,113,1,1483.300000011921,132342.5,7103,WL,B,3.0
1,9.52999997138977,learn,50470.00002861023,Wed Apr 02 2025 12:03:29 GMT-0500 (Central Daylight Time),134059.30000001192,A,grassenter,O,enter,203,1,1716.800000011921,132342.5,7103,WL,B,3.0
1,10.696000099182129,learn,49303.99990081787,Wed Apr 02 2025 12:03:29 GMT-0500 (Central Daylight Time),135225.60000002384,A,a,O,a,1153,1,1166.0,134059.60000002384,7103,WL,B,4.0
1,10.879000186920166,learn,49120.999813079834,Wed Apr 02 2025 12:03:29 GMT-0500 (Central Daylight Time),135408.70000001788,A,ar,O,r,152,1,1349.0999999940395,134059.60000002384,7103,WL,B,4.0
1,11.629000186920166,learn,48370.999813079834,Wed Apr 02 2025 12:03:29 GMT-0500 (Central Daylight Time),136158.60000002384,A,arm,O,m,715,1,2099.0,134059.60000002384,7103,WL,B,4.0
1,12.710999965667725,learn,47289.000034332275,Wed Apr 02 2025 12:03:29 GMT-0500 (Central Daylight Time),137240.5,A,armenter,O,enter,1046,1,3180.899999976158,134059.60000002384,7103,WL,B,4.0
1,13.111999988555908,learn,46888.00001144409,Wed Apr 02 2025 12:03:29 GMT-0500 (Central Daylight Time),137641.30000001192,A,p,O,p,387,1,400.5,137240.80000001192,7103,WL,B,5.0
1,13.34600019454956,learn,46653.99980545044,Wed Apr 02 2025 12:03:29 GMT-0500 (Central Daylight Time),137875.30000001192,A,pi,O,i,205,1,634.5,137240.80000001192,7103,WL,B,5.0
1,13.629000186920166,learn,46370.999813079834,Wed Apr 02 2025 12:03:29 GMT-0500 (Central Daylight Time),138157.90000000596,A,pip,O,p,250,1,917.0999999940395,137240.80000001192,7103,WL,B,5.0
1,14.045000076293945,learn,45954.999923706055,Wed Apr 02 2025 12:03:29 GMT-0500 (Central Daylight Time),138574.40000000596,A,pipe,O,e,385,1,1333.5999999940395,137240.80000001192,7103,WL,B,5.0
1,14.41100001335144,learn,45588.99998664856,Wed Apr 02 2025 12:03:29 GMT-0500 (Central Daylight Time),138940.0,A,pipeenter,O,enter,326,1,1699.199999988079,137240.80000001192,7103,WL,B,5.0
1,14.778000116348267,learn,45221.99988365173,Wed Apr 02 2025 12:03:29 GMT-0500 (Central Daylight Time),139307.80000001192,A,c,O,c,360,1,367.40000000596046,138940.40000000596,7103,WL,B,6.0
1,14.995000123977661,learn,45004.99987602234,Wed Apr 02 2025 12:03:29 GMT-0500 (Central Daylight Time),139523.90000000596,A,ca,O,a,192,1,583.5,138940.40000000596,7103,WL,B,6.0
1,15.212000131607056,learn,44787.999868392944,Wed Apr 02 2025 12:03:29 GMT-0500 (Central Daylight Time),139741.30000001192,A,cab,O,b,187,1,800.9000000059605,138940.40000000596,7103,WL,B,6.0
1,15.728000164031982,learn,44271.99983596802,Wed Apr 02 2025 12:03:29 GMT-0500 (Central Daylight Time),140257.0,A,cabi,O,i,482,1,1316.5999999940395,138940.40000000596,7103,WL,B,6.0
1,15.92799997329712,learn,44072.00002670288,Wed Apr 02 2025 12:03:29 GMT-0500 (Central Daylight Time),140457.30000001192,A,cabin,O,n,158,1,1516.9000000059605,138940.40000000596,7103,WL,B,6.0
1,16.81000018119812,learn,43189.99981880188,Wed Apr 02 2025 12:03:29 GMT-0500 (Central Daylight Time),141339.10000002384,A,cabinenter,O,enter,852,1,2398.7000000178814,138940.40000000596,7103,WL,B,6.0
1,17.3270001411438,learn,42672.9998588562,Wed Apr 02 2025 12:03:29 GMT-0500 (Central Daylight Time),141856.30000001192,A,s,O,s,505,1,516.9000000059605,141339.40000000596,7103,WL,B,7.0
1,17.544000148773193,learn,42455.99985122681,Wed Apr 02 2025 12:03:29 GMT-0500 (Central Daylight Time),142073.30000001192,A,st,O,t,177,1,733.9000000059605,141339.40000000596,7103,WL,B,7.0
1,17.74399995803833,learn,42256.00004196167,Wed Apr 02 2025 12:03:29 GMT-0500 (Central Daylight Time),142272.80000001192,A,sta,O,a,149,1,933.4000000059605,141339.40000000596,7103,WL,B,7.0
1,17.860000133514404,learn,42139.999866485596,Wed Apr 02 2025 12:03:29 GMT-0500 (Central Daylight Time),142389.20000001788,A,star,O,r,88,1,1049.800000011921,141339.40000000596,7103,WL,B,7.0
1,18.14300012588501,learn,41856.99987411499,Wed Apr 02 2025 12:03:29 GMT-0500 (Central Daylight Time),142672.20000001788,A,start,O,t,257,1,1332.800000011921,141339.40000000596,7103,WL,B,7.0
1,18.64400005340576,learn,41355.99994659424,Wed Apr 02 2025 12:03:29 GMT-0500 (Central Daylight Time),143173.0,A,star,O,backspace,479,1,1833.5999999940395,141339.40000000596,7103,WL,B,7.0
1,19.592000007629395,learn,40407.999992370605,Wed Apr 02 2025 12:03:29 GMT-0500 (Central Daylight Time),144121.5,A,starenter,O,enter,906,1,2782.0999999940395,141339.40000000596,7103,WL,B,7.0
1,26.841000080108643,learn,33158.99991989136,Wed Apr 02 2025 12:03:29 GMT-0500 (Central Daylight Time),151370.5,A,g,O,g,7227,1,7248.699999988079,144121.80000001192,7103,WL,B,8.0
1,27.057000160217285,learn,32942.999839782715,Wed Apr 02 2025 12:03:29 GMT-0500 (Central Daylight Time),151586.60000002384,A,gr,O,r,179,1,7464.800000011921,144121.80000001192,7103,WL,B,8.0
1,27.19000005722046,learn,32809.99994277954,Wed Apr 02 2025 12:03:29 GMT-0500 (Central Daylight Time),151719.70000001788,A,gra,O,a,106,1,7597.9000000059605,144121.80000001192,7103,WL,B,8.0
1,27.539999961853027,learn,32460.000038146973,Wed Apr 02 2025 12:03:29 GMT-0500 (Central Daylight Time),152069.80000001192,A,gras,O,s,313,1,7948.0,144121.80000001192,7103,WL,B,8.0
1,27.69000005722046,learn,32309.99994277954,Wed Apr 02 2025 12:03:29 GMT-0500 (Central Daylight Time),152219.70000001788,A,grass,O,s,123,1,8097.9000000059605,144121.80000001192,7103,WL,B,8.0
1,28.606000185012817,learn,31393.999814987183,Wed Apr 02 2025 12:03:29 GMT-0500 (Central Daylight Time),153135.20000001788,A,grassenter,O,enter,879,1,9013.40000000596,144121.80000001192,7103,WL,B,8.0
1,37.07100009918213,learn,22928.99990081787,Wed Apr 02 2025 12:03:29 GMT-0500 (Central Daylight Time),161600.30000001192,A,c,O,c,8445,1,8464.59999999404,153135.70000001788,7103,WL,B,9.0
1,37.4210000038147,learn,22578.999996185303,Wed Apr 02 2025 12:03:29 GMT-0500 (Central Daylight Time),161950.20000001788,A,ca,O,a,311,1,8814.5,153135.70000001788,7103,WL,B,9.0
1,37.65400004386902,learn,22345.99995613098,Wed Apr 02 2025 12:03:29 GMT-0500 (Central Daylight Time),162183.0,A,cab,O,b,203,1,9047.299999982119,153135.70000001788,7103,WL,B,9.0
1,37.87100005149841,learn,22128.999948501587,Wed Apr 02 2025 12:03:29 GMT-0500 (Central Daylight Time),162400.0,A,cabi,O,i,181,1,9264.299999982119,153135.70000001788,7103,WL,B,9.0
1,37.95300006866455,learn,22046.99993133545,Wed Apr 02 2025 12:03:29 GMT-0500 (Central Daylight Time),162482.60000002384,A,cabin,O,n,47,1,9346.90000000596,153135.70000001788,7103,WL,B,9.0
1,38.41900014877319,learn,21580.999851226807,Wed Apr 02 2025 12:03:29 GMT-0500 (Central Daylight Time),162948.80000001192,A,cabinenter,O,enter,448,1,9813.09999999404,153135.70000001788,7103,WL,B,9.0
1,47.26600003242493,learn,12733.999967575073,Wed Apr 02 2025 12:03:29 GMT-0500 (Central Daylight Time),171795.80000001192,A,enter,O,enter,8831,1,8846.800000011921,162949.0,7103,WL,B,10.0
1,58.580000162124634,learn,1419.9998378753662,Wed Apr 02 2025 12:03:29 GMT-0500 (Central Daylight Time),183108.70000001788,A,enter,O,enter,11303,1,11312.59999999404,171796.10000002384,7103,WL,B,11.0
1,59.54700016975403,learn,452.9998302459717,Wed Apr 02 2025 12:03:29 GMT-0500 (Central Daylight Time),184075.0,A,enter,O,enter,958,1,966.0,183109.0,7103,WL,B,12.0
1,60.01400017738342,learn,-14.000177383422852,Wed Apr 02 2025 12:03:29 GMT-0500 (Central Daylight Time),184542.80000001192,A,None,O,None,460,1,467.30000001192093,184075.5,7103,WL,B,13.0
2,1.5999999046325684,learn,58400.00009536743,Wed Apr 02 2025 12:03:29 GMT-0500 (Central Daylight Time),258835.0,A,d,O,d,1568,1,1599.0,257236.0,7103,WL,B,1.0
2,2.565999984741211,learn,57434.00001525879,Wed Apr 02 2025 12:03:29 GMT-0500 (Central Daylight Time),259801.5,A,,O,backspace,933,1,2565.5,257236.0,7103,WL,B,1.0
2,2.7149999141693115,learn,57285.00008583069,Wed Apr 02 2025 12:03:29 GMT-0500 (Central Daylight Time),259950.90000000596,A,,O,backspace,122,1,2714.9000000059605,257236.0,7103,WL,B,1.0
2,2.865999937057495,learn,57134.000062942505,Wed Apr 02 2025 12:03:29 GMT-0500 (Central Daylight Time),260101.10000002384,A,s,O,s,120,1,2865.100000023842,257236.0,7103,WL,B,1.0
2,3.0329999923706055,learn,56967.000007629395,Wed Apr 02 2025 12:03:29 GMT-0500 (Central Daylight Time),260268.10000002384,A,st,O,t,142,1,3032.100000023842,257236.0,7103,WL,B,1.0
2,3.631999969482422,learn,56368.00003051758,Wed Apr 02 2025 12:03:29 GMT-0500 (Central Daylight Time),260867.40000000596,A,str,O,r,564,1,3631.4000000059605,257236.0,7103,WL,B,1.0
2,3.931999921798706,learn,56068.000078201294,Wed Apr 02 2025 12:03:29 GMT-0500 (Central Daylight Time),261167.5,A,stre,O,e,269,1,3931.5,257236.0,7103,WL,B,1.0
2,4.047999858856201,learn,55952.0001411438,Wed Apr 02 2025 12:03:29 GMT-0500 (Central Daylight Time),261284.0,A,stree,O,e,90,1,4048.0,257236.0,7103,WL,B,1.0
2,4.248999834060669,learn,55751.00016593933,Wed Apr 02 2025 12:03:29 GMT-0500 (Central Daylight Time),261484.10000002384,A,street,O,t,166,1,4248.100000023842,257236.0,7103,WL,B,1.0
2,4.896999835968018,learn,55103.00016403198,Wed Apr 02 2025 12:03:29 GMT-0500 (Central Daylight Time),262132.90000000596,A,streetenter,O,enter,623,1,4896.9000000059605,257236.0,7103,WL,B,1.0
2,5.447999954223633,learn,54552.00004577637,Wed Apr 02 2025 12:03:29 GMT-0500 (Central Daylight Time),262683.5,A,w,O,w,536,1,550.5,262133.0,7103,WL,B,2.0
2,5.597999811172485,learn,54402.000188827515,Wed Apr 02 2025 12:03:29 GMT-0500 (Central Daylight Time),262833.5,A,wi,O,i,120,1,700.5,262133.0,7103,WL,B,2.0
2,5.730999946594238,learn,54269.00005340576,Wed Apr 02 2025 12:03:29 GMT-0500 (Central Daylight Time),262967.0,A,wif,O,f,99,1,834.0,262133.0,7103,WL,B,2.0
2,5.947999954223633,learn,54052.00004577637,Wed Apr 02 2025 12:03:29 GMT-0500 (Central Daylight Time),263183.3000000119,A,wife,O,e,176,1,1050.300000011921,262133.0,7103,WL,B,2.0
2,7.013000011444092,learn,52986.99998855591,Wed Apr 02 2025 12:03:29 GMT-0500 (Central Daylight Time),264248.8000000119,A,wifeenter,O,enter,1041,1,2115.800000011921,262133.0,7103,WL,B,2.0
2,7.296999931335449,learn,52703.00006866455,Wed Apr 02 2025 12:03:29 GMT-0500 (Central Daylight Time),264532.2000000179,A,s,O,s,275,1,283.09999999403954,264249.10000002384,7103,WL,B,3.0
2,7.496999979019165,learn,52503.000020980835,Wed Apr 02 2025 12:03:29 GMT-0500 (Central Daylight Time),264732.7000000179,A,st,O,t,176,1,483.59999999403954,264249.10000002384,7103,WL,B,3.0
2,7.730999946594238,learn,52269.00005340576,Wed Apr 02 2025 12:03:29 GMT-0500 (Central Daylight Time),264966.10000002384,A,sta,O,a,203,1,717.0,264249.10000002384,7103,WL,B,3.0
2,7.863999843597412,learn,52136.00015640259,Wed Apr 02 2025 12:03:29 GMT-0500 (Central Daylight Time),265099.2000000179,A,star,O,r,102,1,850.0999999940395,264249.10000002384,7103,WL,B,3.0
2,8.662999868392944,learn,51337.000131607056,Wed Apr 02 2025 12:03:29 GMT-0500 (Central Daylight Time),265898.10000002384,A,starenter,O,enter,778,1,1649.0,264249.10000002384,7103,WL,B,3.0
2,9.063999891281128,learn,50936.00010871887,Wed Apr 02 2025 12:03:29 GMT-0500 (Central Daylight Time),266299.10000002384,A,a,O,a,387,1,400.7000000178814,265898.40000000596,7103,WL,B,4.0
2,9.229999780654907,learn,50770.00021934509,Wed Apr 02 2025 12:03:29 GMT-0500 (Central Daylight Time),266465.5,A,ar,O,r,125,1,567.0999999940395,265898.40000000596,7103,WL,B,4.0
2,9.429999828338623,learn,50570.00017166138,Wed Apr 02 2025 12:03:29 GMT-0500 (Central Daylight Time),266665.7000000179,A,arm,O,m,173,1,767.3000000119209,265898.40000000596,7103,WL,B,4.0
2,9.745999813079834,learn,50254.000186920166,Wed Apr 02 2025 12:03:29 GMT-0500 (Central Daylight Time),266981.2000000179,A,armenter,O,enter,286,1,1082.800000011921,265898.40000000596,7103,WL,B,4.0
2,10.096999883651733,learn,49903.00011634827,Wed Apr 02 2025 12:03:29 GMT-0500 (Central Daylight Time),267332.7000000179,A,p,O,p,345,1,351.2000000178814,266981.5,7103,WL,B,5.0
2,10.312999963760376,learn,49687.000036239624,Wed Apr 02 2025 12:03:29 GMT-0500 (Central Daylight Time),267548.60000002384,A,pi,O,i,192,1,567.1000000238419,266981.5,7103,WL,B,5.0
2,10.679999828338623,learn,49320.00017166138,Wed Apr 02 2025 12:03:29 GMT-0500 (Central Daylight Time),267915.2000000179,A,pip,O,p,335,1,933.7000000178814,266981.5,7103,WL,B,5.0
2,10.895999908447266,learn,49104.000091552734,Wed Apr 02 2025 12:03:29 GMT-0500 (Central Daylight Time),268131.90000000596,A,pipe,O,e,187,1,1150.4000000059605,266981.5,7103,WL,B,5.0
2,11.161999940872192,learn,48838.00005912781,Wed Apr 02 2025 12:03:29 GMT-0500 (Central Daylight Time),268397.40000000596,A,pipeenter,O,enter,227,1,1415.9000000059605,266981.5,7103,WL,B,5.0
2,11.479999780654907,learn,48520.00021934509,Wed Apr 02 2025 12:03:29 GMT-0500 (Central Daylight Time),268715.60000002384,A,p,O,p,311,1,317.90000000596046,268397.7000000179,7103,WL,B,6.0
2,11.662999868392944,learn,48337.000131607056,Wed Apr 02 2025 12:03:29 GMT-0500 (Central Daylight Time),268898.3000000119,A,pu,O,u,145,1,500.59999999403954,268397.7000000179,7103,WL,B,6.0
2,12.046000003814697,learn,47953.9999961853,Wed Apr 02 2025 12:03:29 GMT-0500 (Central Daylight Time),269281.40000000596,A,pup,O,p,342,1,883.6999999880791,268397.7000000179,7103,WL,B,6.0
2,12.44599986076355,learn,47554.00013923645,Wed Apr 02 2025 12:03:29 GMT-0500 (Central Daylight Time),269681.3000000119,A,pupi,O,i,361,1,1283.5999999940395,268397.7000000179,7103,WL,B,6.0
2,12.678999900817871,learn,47321.00009918213,Wed Apr 02 2025 12:03:29 GMT-0500 (Central Daylight Time),269914.7000000179,A,pupil,O,l,192,1,1517.0,268397.7000000179,7103,WL,B,6.0
2,13.34499979019165,learn,46655.00020980835,Wed Apr 02 2025 12:03:29 GMT-0500 (Central Daylight Time),270580.0,A,pupilenter,O,enter,634,1,2182.2999999821186,268397.7000000179,7103,WL,B,6.0
2,14.727999925613403,learn,45272.0000743866,Wed Apr 02 2025 12:03:29 GMT-0500 (Central Daylight Time),271964.0,A,c,O,c,1369,1,1383.699999988079,270580.3000000119,7103,WL,B,7.0
2,14.977999925613403,learn,45022.0000743866,Wed Apr 02 2025 12:03:29 GMT-0500 (Central Daylight Time),272213.7000000179,A,ca,O,a,220,1,1633.4000000059605,270580.3000000119,7103,WL,B,7.0
2,15.160999774932861,learn,44839.00022506714,Wed Apr 02 2025 12:03:29 GMT-0500 (Central Daylight Time),272396.90000000596,A,cab,O,b,148,1,1816.5999999940395,270580.3000000119,7103,WL,B,7.0
2,15.34499979019165,learn,44655.00020980835,Wed Apr 02 2025 12:03:29 GMT-0500 (Central Daylight Time),272580.40000000596,A,cabi,O,i,149,1,2000.0999999940395,270580.3000000119,7103,WL,B,7.0
2,15.426999807357788,learn,44573.00019264221,Wed Apr 02 2025 12:03:29 GMT-0500 (Central Daylight Time),272662.60000002384,A,cabin,O,n,52,1,2082.300000011921,270580.3000000119,7103,WL,B,7.0
2,16.65999984741211,learn,43340.00015258789,Wed Apr 02 2025 12:03:29 GMT-0500 (Central Daylight Time),273895.5,A,cabinenter,O,enter,1217,1,3315.199999988079,270580.3000000119,7103,WL,B,7.0
2,26.307999849319458,learn,33692.00015068054,Wed Apr 02 2025 12:03:29 GMT-0500 (Central Daylight Time),283543.60000002384,A,g,O,g,9637,1,9647.700000017881,273895.90000000596,7103,WL,B,8.0
2,26.54099988937378,learn,33459.00011062622,Wed Apr 02 2025 12:03:29 GMT-0500 (Central Daylight Time),283776.3000000119,A,gr,O,r,200,1,9880.40000000596,273895.90000000596,7103,WL,B,8.0
2,26.657999992370605,learn,33342.000007629395,Wed Apr 02 2025 12:03:29 GMT-0500 (Central Daylight Time),283893.3000000119,A,gra,O,a,95,1,9997.40000000596,273895.90000000596,7103,WL,B,8.0
2,26.973999977111816,learn,33026.00002288818,Wed Apr 02 2025 12:03:29 GMT-0500 (Central Daylight Time),284209.90000000596,A,gras,O,s,288,1,10314.0,273895.90000000596,7103,WL,B,8.0
2,27.12399983406067,learn,32876.00016593933,Wed Apr 02 2025 12:03:29 GMT-0500 (Central Daylight Time),284359.60000002384,A,grass,O,s,117,1,10463.700000017881,273895.90000000596,7103,WL,B,8.0
2,27.490000009536743,learn,32509.999990463257,Wed Apr 02 2025 12:03:29 GMT-0500 (Central Daylight Time),284725.40000000596,A,grassenter,O,enter,340,1,10829.5,273895.90000000596,7103,WL,B,8.0
2,30.488999843597412,learn,29511.000156402588,Wed Apr 02 2025 12:03:29 GMT-0500 (Central Daylight Time),287724.2000000179,A,w,O,w,2990,1,2998.5,284725.7000000179,7103,WL,B,9.0
2,30.638999938964844,learn,29361.000061035156,Wed Apr 02 2025 12:03:29 GMT-0500 (Central Daylight Time),287874.3000000119,A,wi,O,i,134,1,3148.5999999940395,284725.7000000179,7103,WL,B,9.0
2,30.8219997882843,learn,29178.0002117157,Wed Apr 02 2025 12:03:29 GMT-0500 (Central Daylight Time),288057.5,A,wif,O,f,159,1,3331.7999999821186,284725.7000000179,7103,WL,B,9.0
2,31.15499997138977,learn,28845.00002861023,Wed Apr 02 2025 12:03:29 GMT-0500 (Central Daylight Time),288390.8000000119,A,wife,O,e,312,1,3665.0999999940395,284725.7000000179,7103,WL,B,9.0
2,31.371999979019165,learn,28628.000020980835,Wed Apr 02 2025 12:03:29 GMT-0500 (Central Daylight Time),288607.2000000179,A,wifeenter,O,enter,195,1,3881.5,284725.7000000179,7103,WL,B,9.0
2,40.502999782562256,learn,19497.000217437744,Wed Apr 02 2025 12:03:29 GMT-0500 (Central Daylight Time),297738.7000000179,A,a,O,a,9117,1,9131.200000017881,288607.5,7103,WL,B,10.0
2,40.668999910354614,learn,19331.000089645386,Wed Apr 02 2025 12:03:29 GMT-0500 (Central Daylight Time),297904.8000000119,A,ar,O,r,123,1,9297.300000011921,288607.5,7103,WL,B,10.0
2,40.88699984550476,learn,19113.00015449524,Wed Apr 02 2025 12:03:29 GMT-0500 (Central Daylight Time),298122.10000002384,A,arm,O,m,196,1,9514.600000023842,288607.5,7103,WL,B,10.0
2,41.20199990272522,learn,18798.00009727478,Wed Apr 02 2025 12:03:29 GMT-0500 (Central Daylight Time),298437.5,A,armenter,O,enter,285,1,9830.0,288607.5,7103,WL,B,10.0
2,43.6029999256134,learn,16397.000074386597,Wed Apr 02 2025 12:03:29 GMT-0500 (Central Daylight Time),300837.8000000119,A,s,O,s,2383,1,2400.0,298437.8000000119,7103,WL,B,11.0
2,43.73599982261658,learn,16264.000177383423,Wed Apr 02 2025 12:03:29 GMT-0500 (Central Daylight Time),300971.0,A,sk,O,k,99,1,2533.199999988079,298437.8000000119,7103,WL,B,11.0
2,43.93599987030029,learn,16064.000129699707,Wed Apr 02 2025 12:03:29 GMT-0500 (Central Daylight Time),301171.0,A,ski,O,i,160,1,2733.199999988079,298437.8000000119,7103,WL,B,11.0
2,44.1029999256134,learn,15897.000074386597,Wed Apr 02 2025 12:03:29 GMT-0500 (Central Daylight Time),301337.3000000119,A,skin,O,n,126,1,2899.5,298437.8000000119,7103,WL,B,11.0
2,44.334999799728394,learn,15665.000200271606,Wed Apr 02 2025 12:03:29 GMT-0500 (Central Daylight Time),301569.90000000596,A,skinenter,O,enter,207,1,3132.0999999940395,298437.8000000119,7103,WL,B,11.0
2,48.21799993515015,learn,11782.000064849854,Wed Apr 02 2025 12:03:29 GMT-0500 (Central Daylight Time),305453.0,A,w,O,w,3867,1,3882.7999999821186,301570.2000000179,7103,WL,B,12.0
2,48.367999792099,learn,11632.000207901001,Wed Apr 02 2025 12:03:29 GMT-0500 (Central Daylight Time),305603.10000002384,A,wi,O,i,108,1,4032.9000000059605,301570.2000000179,7103,WL,B,12.0
2,48.418999910354614,learn,11581.000089645386,Wed Apr 02 2025 12:03:29 GMT-0500 (Central Daylight Time),305654.0,A,win,O,n,13,1,4083.7999999821186,301570.2000000179,7103,WL,B,12.0
2,48.550999879837036,learn,11449.000120162964,Wed Apr 02 2025 12:03:29 GMT-0500 (Central Daylight Time),305785.7000000179,A,wind,O,d,113,1,4215.5,301570.2000000179,7103,WL,B,12.0
2,48.66799998283386,learn,11332.000017166138,Wed Apr 02 2025 12:03:29 GMT-0500 (Central Daylight Time),305902.5,A,windo,O,o,79,1,4332.299999982119,301570.2000000179,7103,WL,B,12.0
2,48.9689998626709,learn,11031.000137329102,Wed Apr 02 2025 12:03:29 GMT-0500 (Central Daylight Time),306203.90000000596,A,window,O,w,267,1,4633.699999988079,301570.2000000179,7103,WL,B,12.0
2,49.14999985694885,learn,10850.000143051147,Wed Apr 02 2025 12:03:29 GMT-0500 (Central Daylight Time),306385.0,A,windowenter,O,enter,147,1,4814.799999982119,301570.2000000179,7103,WL,B,12.0
2,58.24799990653992,learn,1752.000093460083,Wed Apr 02 2025 12:03:29 GMT-0500 (Central Daylight Time),315482.10000002384,A,enter,O,enter,9091,1,9096.800000011921,306385.3000000119,7103,WL,B,13.0
2,59.04699993133545,learn,953.0000686645508,Wed Apr 02 2025 12:03:29 GMT-0500 (Central Daylight Time),316281.60000002384,A,enter,O,enter,785,1,799.3000000119209,315482.3000000119,7103,WL,B,14.0
2,59.496999979019165,learn,503.00002098083496,Wed Apr 02 2025 12:03:29 GMT-0500 (Central Daylight Time),316731.40000000596,A,enter,O,enter,434,1,449.2999999821186,316282.10000002384,7103,WL,B,15.0
3,1.2170000076293945,learn,58782.999992370605,Wed Apr 02 2025 12:03:29 GMT-0500 (Central Daylight Time),384527.10000002384,A,c,O,c,1207,1,1217.1000000238419,383310.0,7103,WL,B,1.0
3,1.3509998321533203,learn,58649.00016784668,Wed Apr 02 2025 12:03:29 GMT-0500 (Central Daylight Time),384660.3000000119,A,cl,O,l,97,1,1350.300000011921,383310.0,7103,WL,B,1.0
3,1.5339999198913574,learn,58466.00008010864,Wed Apr 02 2025 12:03:29 GMT-0500 (Central Daylight Time),384843.2000000179,A,clo,O,o,150,1,1533.2000000178814,383310.0,7103,WL,B,1.0
3,1.75,learn,58250.0,Wed Apr 02 2025 12:03:29 GMT-0500 (Central Daylight Time),385059.2000000179,A,cloc,O,c,184,1,1749.2000000178814,383310.0,7103,WL,B,1.0
3,1.8829998970031738,learn,58117.000102996826,Wed Apr 02 2025 12:03:29 GMT-0500 (Central Daylight Time),385192.40000000596,A,clock,O,k,119,1,1882.4000000059605,383310.0,7103,WL,B,1.0
3,2.748999834060669,learn,57251.00016593933,Wed Apr 02 2025 12:03:29 GMT-0500 (Central Daylight Time),386058.7000000179,A,clockenter,O,enter,857,1,2748.7000000178814,383310.0,7103,WL,B,1.0
3,3.0820000171661377,learn,56917.99998283386,Wed Apr 02 2025 12:03:29 GMT-0500 (Central Daylight Time),386392.10000002384,A,w,O,w,311,1,333.0,386059.10000002384,7103,WL,B,2.0
3,3.1989998817443848,learn,56801.000118255615,Wed Apr 02 2025 12:03:29 GMT-0500 (Central Daylight Time),386508.60000002384,A,wi,O,i,106,1,449.5,386059.10000002384,7103,WL,B,2.0
3,3.2819998264312744,learn,56718.000173568726,Wed Apr 02 2025 12:03:29 GMT-0500 (Central Daylight Time),386591.8000000119,A,win,O,n,62,1,532.6999999880791,386059.10000002384,7103,WL,B,2.0
3,3.4159998893737793,learn,56584.00011062622,Wed Apr 02 2025 12:03:29 GMT-0500 (Central Daylight Time),386725.3000000119,A,wind,O,d,123,1,666.1999999880791,386059.10000002384,7103,WL,B,2.0
3,3.616999864578247,learn,56383.00013542175,Wed Apr 02 2025 12:03:29 GMT-0500 (Central Daylight Time),386926.3000000119,A,windo,O,o,182,1,867.1999999880791,386059.10000002384,7103,WL,B,2.0
3,4.1499998569488525,learn,55850.00014305115,Wed Apr 02 2025 12:03:29 GMT-0500 (Central Daylight Time),387459.3000000119,A,wind,O,backspace,499,1,1400.199999988079,386059.10000002384,7103,WL,B,2.0
3,4.33299994468689,learn,55667.00005531311,Wed Apr 02 2025 12:03:29 GMT-0500 (Central Daylight Time),387642.7000000179,A,win,O,backspace,157,1,1583.5999999940395,386059.10000002384,7103,WL,B,2.0
3,4.516000032424927,learn,55483.99996757507,Wed Apr 02 2025 12:03:29 GMT-0500 (Central Daylight Time),387825.7000000179,A,wi,O,backspace,154,1,1766.5999999940395,386059.10000002384,7103,WL,B,2.0
3,4.665999889373779,learn,55334.00011062622,Wed Apr 02 2025 12:03:29 GMT-0500 (Central Daylight Time),387976.0,A,w,O,backspace,106,1,1916.8999999761581,386059.10000002384,7103,WL,B,2.0
3,4.815999984741211,learn,55184.00001525879,Wed Apr 02 2025 12:03:29 GMT-0500 (Central Daylight Time),388125.5,A,,O,backspace,113,1,2066.399999976158,386059.10000002384,7103,WL,B,2.0
3,4.982999801635742,learn,55017.00019836426,Wed Apr 02 2025 12:03:29 GMT-0500 (Central Daylight Time),388292.60000002384,A,,O,backspace,141,1,2233.5,386059.10000002384,7103,WL,B,2.0
3,5.415999889373779,learn,54584.00011062622,Wed Apr 02 2025 12:03:29 GMT-0500 (Central Daylight Time),388725.3000000119,A,s,O,s,409,1,2666.199999988079,386059.10000002384,7103,WL,B,2.0
3,5.598999977111816,learn,54401.00002288818,Wed Apr 02 2025 12:03:29 GMT-0500 (Central Daylight Time),388908.8000000119,A,st,O,t,150,1,2849.699999988079,386059.10000002384,7103,WL,B,2.0
3,5.766000032424927,learn,54233.99996757507,Wed Apr 02 2025 12:03:29 GMT-0500 (Central Daylight Time),389075.8000000119,A,sta,O,a,141,1,3016.699999988079,386059.10000002384,7103,WL,B,2.0
3,5.881999969482422,learn,54118.00003051758,Wed Apr 02 2025 12:03:29 GMT-0500 (Central Daylight Time),389191.8000000119,A,star,O,r,82,1,3132.699999988079,386059.10000002384,7103,WL,B,2.0
3,6.148999929428101,learn,53851.0000705719,Wed Apr 02 2025 12:03:29 GMT-0500 (Central Daylight Time),389458.8000000119,A,start,O,t,242,1,3399.699999988079,386059.10000002384,7103,WL,B,2.0
3,6.582000017166138,learn,53417.99998283386,Wed Apr 02 2025 12:03:29 GMT-0500 (Central Daylight Time),389891.90000000596,A,star,O,backspace,399,1,3832.7999999821186,386059.10000002384,7103,WL,B,2.0
3,6.830999851226807,learn,53169.00014877319,Wed Apr 02 2025 12:03:29 GMT-0500 (Central Daylight Time),390140.8000000119,A,starenter,O,enter,211,1,4081.699999988079,386059.10000002384,7103,WL,B,2.0
3,7.082000017166138,learn,52917.99998283386,Wed Apr 02 2025 12:03:29 GMT-0500 (Central Daylight Time),390391.90000000596,A,c,O,c,240,1,250.69999998807907,390141.2000000179,7103,WL,B,3.0
3,7.648000001907349,learn,52351.99999809265,Wed Apr 02 2025 12:03:29 GMT-0500 (Central Daylight Time),390957.90000000596,A,ca,O,a,529,1,816.6999999880791,390141.2000000179,7103,WL,B,3.0
3,7.881999969482422,learn,52118.00003051758,Wed Apr 02 2025 12:03:29 GMT-0500 (Central Daylight Time),391191.5,A,cab,O,b,203,1,1050.2999999821186,390141.2000000179,7103,WL,B,3.0
3,7.997999906539917,learn,52002.00009346008,Wed Apr 02 2025 12:03:29 GMT-0500 (Central Daylight Time),391307.2000000179,A,cabi,O,i,88,1,1166.0,390141.2000000179,7103,WL,B,3.0
3,8.097999811172485,learn,51902.000188827515,Wed Apr 02 2025 12:03:29 GMT-0500 (Central Daylight Time),391407.2000000179,A,cabin,O,n,75,1,1266.0,390141.2000000179,7103,WL,B,3.0
3,9.246999979019165,learn,50753.000020980835,Wed Apr 02 2025 12:03:29 GMT-0500 (Central Daylight Time),392556.7000000179,A,cabinenter,O,enter,1127,1,2415.5,390141.2000000179,7103,WL,B,3.0
3,11.13099980354309,learn,48869.00019645691,Wed Apr 02 2025 12:03:29 GMT-0500 (Central Daylight Time),394440.60000002384,A,l,O,l,1864,1,1883.7000000178814,392556.90000000596,7103,WL,B,4.0
3,11.263999938964844,learn,48736.000061035156,Wed Apr 02 2025 12:03:29 GMT-0500 (Central Daylight Time),394573.5,A,la,O,a,106,1,2016.5999999940395,392556.90000000596,7103,WL,B,4.0
3,11.396999835968018,learn,48603.00016403198,Wed Apr 02 2025 12:03:29 GMT-0500 (Central Daylight Time),394706.60000002384,A,lak,O,k,99,1,2149.7000000178814,392556.90000000596,7103,WL,B,4.0
3,11.596999883651733,learn,48403.00011634827,Wed Apr 02 2025 12:03:29 GMT-0500 (Central Daylight Time),394906.90000000596,A,lake,O,e,169,1,2350.0,392556.90000000596,7103,WL,B,4.0
3,12.11299991607666,learn,47887.00008392334,Wed Apr 02 2025 12:03:29 GMT-0500 (Central Daylight Time),395422.5,A,lakeenter,O,enter,477,1,2865.5999999940395,392556.90000000596,7103,WL,B,4.0
3,12.462999820709229,learn,47537.00017929077,Wed Apr 02 2025 12:03:29 GMT-0500 (Central Daylight Time),395773.10000002384,A,a,O,a,343,1,350.40000000596046,395422.7000000179,7103,WL,B,5.0
3,12.613999843597412,learn,47386.00015640259,Wed Apr 02 2025 12:03:29 GMT-0500 (Central Daylight Time),395923.5,A,ar,O,r,108,1,500.7999999821186,395422.7000000179,7103,WL,B,5.0
3,12.763000011444092,learn,47236.99998855591,Wed Apr 02 2025 12:03:29 GMT-0500 (Central Daylight Time),396072.60000002384,A,arm,O,m,116,1,649.9000000059605,395422.7000000179,7103,WL,B,5.0
3,13.230000019073486,learn,46769.999980926514,Wed Apr 02 2025 12:03:29 GMT-0500 (Central Daylight Time),396539.7000000179,A,armenter,O,enter,451,1,1117.0,395422.7000000179,7103,WL,B,5.0
3,19.878000020980835,learn,40121.999979019165,Wed Apr 02 2025 12:03:29 GMT-0500 (Central Daylight Time),403187.60000002384,A,s,O,s,6633,1,6647.700000017881,396539.90000000596,7103,WL,B,6.0
3,20.26099991798401,learn,39739.00008201599,Wed Apr 02 2025 12:03:29 GMT-0500 (Central Daylight Time),403570.90000000596,A,st,O,t,342,1,7031.0,396539.90000000596,7103,WL,B,6.0
3,20.628000020980835,learn,39371.999979019165,Wed Apr 02 2025 12:03:29 GMT-0500 (Central Daylight Time),403937.3000000119,A,sta,O,a,333,1,7397.4000000059605,396539.90000000596,7103,WL,B,6.0
3,20.76099991798401,learn,39239.00008201599,Wed Apr 02 2025 12:03:29 GMT-0500 (Central Daylight Time),404070.3000000119,A,star,O,r,104,1,7530.4000000059605,396539.90000000596,7103,WL,B,6.0
3,21.092999935150146,learn,38907.00006484985,Wed Apr 02 2025 12:03:29 GMT-0500 (Central Daylight Time),404402.7000000179,A,starenter,O,enter,300,1,7862.800000011921,396539.90000000596,7103,WL,B,6.0
3,24.925999879837036,learn,35074.000120162964,Wed Apr 02 2025 12:03:29 GMT-0500 (Central Daylight Time),408235.7000000179,A,w,O,w,3818,1,3832.7000000178814,404403.0,7103,WL,B,7.0
3,25.05900001525879,learn,34940.99998474121,Wed Apr 02 2025 12:03:29 GMT-0500 (Central Daylight Time),408369.10000002384,A,wi,O,i,93,1,3966.100000023842,404403.0,7103,WL,B,7.0
3,25.115000009536743,learn,34884.99999046326,Wed Apr 02 2025 12:03:29 GMT-0500 (Central Daylight Time),408424.5,A,win,O,n,22,1,4021.5,404403.0,7103,WL,B,7.0
3,25.258999824523926,learn,34741.000175476074,Wed Apr 02 2025 12:03:29 GMT-0500 (Central Daylight Time),408568.8000000119,A,wind,O,d,114,1,4165.800000011921,404403.0,7103,WL,B,7.0
3,25.375999927520752,learn,34624.00007247925,Wed Apr 02 2025 12:03:29 GMT-0500 (Central Daylight Time),408685.5,A,windo,O,o,91,1,4282.5,404403.0,7103,WL,B,7.0
3,25.875999927520752,learn,34124.00007247925,Wed Apr 02 2025 12:03:29 GMT-0500 (Central Daylight Time),409185.8000000119,A,window,O,w,464,1,4782.800000011921,404403.0,7103,WL,B,7.0
3,26.04199981689453,learn,33958.00018310547,Wed Apr 02 2025 12:03:29 GMT-0500 (Central Daylight Time),409351.2000000179,A,windowenter,O,enter,133,1,4948.200000017881,404403.0,7103,WL,B,7.0
3,29.056999921798706,learn,30943.000078201294,Wed Apr 02 2025 12:03:29 GMT-0500 (Central Daylight Time),412366.8000000119,A,enter,O,enter,3004,1,3015.300000011921,409351.5,7103,WL,B,8.0
3,29.789999961853027,learn,30210.000038146973,Wed Apr 02 2025 12:03:29 GMT-0500 (Central Daylight Time),413100.0,A,enter,O,enter,725,1,732.8999999761581,412367.10000002384,7103,WL,B,9.0
3,30.139999866485596,learn,29860.000133514404,Wed Apr 02 2025 12:03:29 GMT-0500 (Central Daylight Time),413449.90000000596,A,enter,O,enter,336,1,349.59999999403954,413100.3000000119,7103,WL,B,10.0
3,30.556999921798706,learn,29443.000078201294,Wed Apr 02 2025 12:03:29 GMT-0500 (Central Daylight Time),413866.2000000179,A,enter,O,enter,401,1,416.09999999403954,413450.10000002384,7103,WL,B,11.0
3,30.973999977111816,learn,29026.000022888184,Wed Apr 02 2025 12:03:29 GMT-0500 (Central Daylight Time),414283.90000000596,A,enter,O,enter,410,1,417.5,413866.40000000596,7103,WL,B,12.0
3,31.372999906539917,learn,28627.000093460083,Wed Apr 02 2025 12:03:29 GMT-0500 (Central Daylight Time),414682.8000000119,A,enter,O,enter,392,1,398.59999999403954,414284.2000000179,7103,WL,B,13.0
3,31.805999994277954,learn,28194.000005722046,Wed Apr 02 2025 12:03:29 GMT-0500 (Central Daylight Time),415116.0,A,enter,O,enter,417,1,433.0,414683.0,7103,WL,B,14.0
3,32.888999938964844,learn,27111.000061035156,Wed Apr 02 2025 12:03:29 GMT-0500 (Central Daylight Time),416199.0,A,enter,O,enter,1064,1,1082.7999999821186,415116.2000000179,7103,WL,B,15.0
4,1.8659999370574951,learn,58134.000062942505,Wed Apr 02 2025 12:03:29 GMT-0500 (Central Daylight Time),488709.60000002384,A,s,O,s,1834,1,1864.9000000059605,486844.7000000179,7103,WL,B,1.0
4,2.115000009536743,learn,57884.99999046326,Wed Apr 02 2025 12:03:29 GMT-0500 (Central Daylight Time),488959.40000000596,A,st,O,t,219,1,2114.699999988079,486844.7000000179,7103,WL,B,1.0
4,2.4159998893737793,learn,57584.00011062622,Wed Apr 02 2025 12:03:29 GMT-0500 (Central Daylight Time),489259.40000000596,A,str,O,r,258,1,2414.699999988079,486844.7000000179,7103,WL,B,1.0
4,2.681999921798706,learn,57318.000078201294,Wed Apr 02 2025 12:03:29 GMT-0500 (Central Daylight Time),489525.90000000596,A,stre,O,e,230,1,2681.199999988079,486844.7000000179,7103,WL,B,1.0
4,2.8320000171661377,learn,57167.99998283386,Wed Apr 02 2025 12:03:29 GMT-0500 (Central Daylight Time),489675.90000000596,A,stree,O,e,122,1,2831.199999988079,486844.7000000179,7103,WL,B,1.0
4,2.9819998741149902,learn,57018.00012588501,Wed Apr 02 2025 12:03:29 GMT-0500 (Central Daylight Time),489825.90000000596,A,street,O,t,117,1,2981.199999988079,486844.7000000179,7103,WL,B,1.0
4,3.7139999866485596,learn,56286.00001335144,Wed Apr 02 2025 12:03:29 GMT-0500 (Central Daylight Time),490557.90000000596,A,streetenter,O,enter,702,1,3713.199999988079,486844.7000000179,7103,WL,B,1.0
4,4.047999858856201,learn,55952.0001411438,Wed Apr 02 2025 12:03:29 GMT-0500 (Central Daylight Time),490892.2000000179,A,g,O,g,319,1,334.09999999403954,490558.10000002384,7103,WL,B,2.0
4,4.263999938964844,learn,55736.000061035156,Wed Apr 02 2025 12:03:29 GMT-0500 (Central Daylight Time),491108.2000000179,A,gr,O,r,190,1,550.0999999940395,490558.10000002384,7103,WL,B,2.0
4,4.380999803543091,learn,55619.00019645691,Wed Apr 02 2025 12:03:29 GMT-0500 (Central Daylight Time),491225.2000000179,A,gra,O,a,83,1,667.0999999940395,490558.10000002384,7103,WL,B,2.0
4,4.697999954223633,learn,55302.00004577637,Wed Apr 02 2025 12:03:29 GMT-0500 (Central Daylight Time),491541.60000002384,A,gras,O,s,293,1,983.5,490558.10000002384,7103,WL,B,2.0
4,4.832000017166138,learn,55167.99998283386,Wed Apr 02 2025 12:03:29 GMT-0500 (Central Daylight Time),491676.0,A,grass,O,s,108,1,1117.8999999761581,490558.10000002384,7103,WL,B,2.0
4,5.0299999713897705,learn,54970.00002861023,Wed Apr 02 2025 12:03:29 GMT-0500 (Central Daylight Time),491874.10000002384,A,grassenter,O,enter,161,1,1316.0,490558.10000002384,7103,WL,B,2.0
4,5.2809998989105225,learn,54719.00010108948,Wed Apr 02 2025 12:03:29 GMT-0500 (Central Daylight Time),492124.7000000179,A,s,O,s,242,1,250.30000001192093,491874.40000000596,7103,WL,B,3.0
4,5.497999906539917,learn,54502.00009346008,Wed Apr 02 2025 12:03:29 GMT-0500 (Central Daylight Time),492341.7000000179,A,st,O,t,186,1,467.30000001192093,491874.40000000596,7103,WL,B,3.0
4,5.697999954223633,learn,54302.00004577637,Wed Apr 02 2025 12:03:29 GMT-0500 (Central Daylight Time),492541.60000002384,A,sta,O,a,163,1,667.2000000178814,491874.40000000596,7103,WL,B,3.0
4,5.829999923706055,learn,54170.000076293945,Wed Apr 02 2025 12:03:29 GMT-0500 (Central Daylight Time),492673.8000000119,A,star,O,r,92,1,799.4000000059605,491874.40000000596,7103,WL,B,3.0
4,6.129999876022339,learn,53870.00012397766,Wed Apr 02 2025 12:03:29 GMT-0500 (Central Daylight Time),492973.8000000119,A,starenter,O,enter,281,1,1099.4000000059605,491874.40000000596,7103,WL,B,3.0
4,6.380999803543091,learn,53619.00019645691,Wed Apr 02 2025 12:03:29 GMT-0500 (Central Daylight Time),493224.5,A,c,O,c,231,1,250.5,492974.0,7103,WL,B,4.0
4,6.546999931335449,learn,53453.00006866455,Wed Apr 02 2025 12:03:29 GMT-0500 (Central Daylight Time),493391.2000000179,A,ca,O,a,126,1,417.2000000178814,492974.0,7103,WL,B,4.0
4,6.71399998664856,learn,53286.00001335144,Wed Apr 02 2025 12:03:29 GMT-0500 (Central Daylight Time),493557.90000000596,A,cab,O,b,130,1,583.9000000059605,492974.0,7103,WL,B,4.0
4,6.863999843597412,learn,53136.00015640259,Wed Apr 02 2025 12:03:29 GMT-0500 (Central Daylight Time),493707.90000000596,A,cabi,O,i,116,1,733.9000000059605,492974.0,7103,WL,B,4.0
4,6.96399998664856,learn,53036.00001335144,Wed Apr 02 2025 12:03:29 GMT-0500 (Central Daylight Time),493808.0,A,cabin,O,n,69,1,834.0,492974.0,7103,WL,B,4.0
4,7.329999923706055,learn,52670.000076293945,Wed Apr 02 2025 12:03:29 GMT-0500 (Central Daylight Time),494173.5,A,cabinenter,O,enter,333,1,1199.5,492974.0,7103,WL,B,4.0
4,7.613999843597412,learn,52386.00015640259,Wed Apr 02 2025 12:03:29 GMT-0500 (Central Daylight Time),494457.8000000119,A,l,O,l,271,1,284.09999999403954,494173.7000000179,7103,WL,B,5.0
4,7.7799999713897705,learn,52220.00002861023,Wed Apr 02 2025 12:03:29 GMT-0500 (Central Daylight Time),494624.3000000119,A,la,O,a,136,1,450.59999999403954,494173.7000000179,7103,WL,B,5.0
4,7.896999835968018,learn,52103.00016403198,Wed Apr 02 2025 12:03:29 GMT-0500 (Central Daylight Time),494740.5,A,lak,O,k,89,1,566.7999999821186,494173.7000000179,7103,WL,B,5.0
4,8.079999923706055,learn,51920.000076293945,Wed Apr 02 2025 12:03:29 GMT-0500 (Central Daylight Time),494924.3000000119,A,lake,O,e,148,1,750.5999999940395,494173.7000000179,7103,WL,B,5.0
4,8.296000003814697,learn,51703.9999961853,Wed Apr 02 2025 12:03:29 GMT-0500 (Central Daylight Time),495139.7000000179,A,lakeenter,O,enter,180,1,966.0,494173.7000000179,7103,WL,B,5.0
4,8.662999868392944,learn,51337.000131607056,Wed Apr 02 2025 12:03:29 GMT-0500 (Central Daylight Time),495507.0,A,w,O,w,345,1,367.0,495140.0,7103,WL,B,6.0
4,8.77999997138977,learn,51220.00002861023,Wed Apr 02 2025 12:03:29 GMT-0500 (Central Daylight Time),495623.5,A,wi,O,i,81,1,483.5,495140.0,7103,WL,B,6.0
4,8.861999988555908,learn,51138.00001144409,Wed Apr 02 2025 12:03:29 GMT-0500 (Central Daylight Time),495706.0,A,win,O,n,55,1,566.0,495140.0,7103,WL,B,6.0
4,9.013000011444092,learn,50986.99998855591,Wed Apr 02 2025 12:03:29 GMT-0500 (Central Daylight Time),495857.2000000179,A,wind,O,d,136,1,717.2000000178814,495140.0,7103,WL,B,6.0
4,9.162999868392944,learn,50837.000131607056,Wed Apr 02 2025 12:03:29 GMT-0500 (Central Daylight Time),496007.10000002384,A,windo,O,o,113,1,867.1000000238419,495140.0,7103,WL,B,6.0
4,9.345999956130981,learn,50654.00004386902,Wed Apr 02 2025 12:03:29 GMT-0500 (Central Daylight Time),496190.10000002384,A,window,O,w,147,1,1050.1000000238419,495140.0,7103,WL,B,6.0
4,9.694999933242798,learn,50305.0000667572,Wed Apr 02 2025 12:03:29 GMT-0500 (Central Daylight Time),496539.2000000179,A,windowenter,O,enter,315,1,1399.2000000178814,495140.0,7103,WL,B,6.0
4,11.312999963760376,learn,48687.000036239624,Wed Apr 02 2025 12:03:29 GMT-0500 (Central Daylight Time),498156.5,A,p,O,p,1601,1,1617.0,496539.5,7103,WL,B,7.0
4,11.495999813079834,learn,48504.000186920166,Wed Apr 02 2025 12:03:29 GMT-0500 (Central Daylight Time),498339.5,A,pi,O,i,154,1,1800.0,496539.5,7103,WL,B,7.0
4,11.711999893188477,learn,48288.00010681152,Wed Apr 02 2025 12:03:29 GMT-0500 (Central Daylight Time),498555.8000000119,A,pip,O,p,191,1,2016.300000011921,496539.5,7103,WL,B,7.0
4,12.095999956130981,learn,47904.00004386902,Wed Apr 02 2025 12:03:29 GMT-0500 (Central Daylight Time),498939.5,A,pipe,O,e,343,1,2400.0,496539.5,7103,WL,B,7.0
4,12.294999837875366,learn,47705.000162124634,Wed Apr 02 2025 12:03:29 GMT-0500 (Central Daylight Time),499138.3000000119,A,pipeenter,O,enter,157,1,2598.800000011921,496539.5,7103,WL,B,7.0
4,12.611999988555908,learn,47388.00001144409,Wed Apr 02 2025 12:03:29 GMT-0500 (Central Daylight Time),499455.90000000596,A,p,O,p,307,1,317.2999999821186,499138.60000002384,7103,WL,B,8.0
4,12.811999797821045,learn,47188.000202178955,Wed Apr 02 2025 12:03:29 GMT-0500 (Central Daylight Time),499655.90000000596,A,pu,O,u,162,1,517.2999999821186,499138.60000002384,7103,WL,B,8.0
4,13.061999797821045,learn,46938.000202178955,Wed Apr 02 2025 12:03:29 GMT-0500 (Central Daylight Time),499906.2000000179,A,pup,O,p,219,1,767.5999999940395,499138.60000002384,7103,WL,B,8.0
4,13.628999948501587,learn,46371.00005149841,Wed Apr 02 2025 12:03:29 GMT-0500 (Central Daylight Time),500472.7000000179,A,pupi,O,i,534,1,1334.0999999940395,499138.60000002384,7103,WL,B,8.0
4,13.827999830245972,learn,46172.00016975403,Wed Apr 02 2025 12:03:29 GMT-0500 (Central Daylight Time),500672.5,A,pupil,O,l,159,1,1533.8999999761581,499138.60000002384,7103,WL,B,8.0
4,14.444000005722046,learn,45555.999994277954,Wed Apr 02 2025 12:03:29 GMT-0500 (Central Daylight Time),501287.7000000179,A,pupilenter,O,enter,579,1,2149.0999999940395,499138.60000002384,7103,WL,B,8.0
4,14.994999885559082,learn,45005.00011444092,Wed Apr 02 2025 12:03:29 GMT-0500 (Central Daylight Time),501838.7000000179,A,a,O,a,541,1,550.5999999940395,501288.10000002384,7103,WL,B,9.0
4,15.143999814987183,learn,44856.00018501282,Wed Apr 02 2025 12:03:29 GMT-0500 (Central Daylight Time),501987.5,A,ar,O,r,122,1,699.3999999761581,501288.10000002384,7103,WL,B,9.0
4,15.32699990272522,learn,44673.00009727478,Wed Apr 02 2025 12:03:29 GMT-0500 (Central Daylight Time),502170.7000000179,A,arm,O,m,165,1,882.5999999940395,501288.10000002384,7103,WL,B,9.0
4,16.07699990272522,learn,43923.00009727478,Wed Apr 02 2025 12:03:29 GMT-0500 (Central Daylight Time),502920.5,A,armenter,O,enter,736,1,1632.3999999761581,501288.10000002384,7103,WL,B,9.0
4,18.276999950408936,learn,41723.000049591064,Wed Apr 02 2025 12:03:29 GMT-0500 (Central Daylight Time),505120.5,A,w,O,w,2180,1,2199.7999999821186,502920.7000000179,7103,WL,B,10.0
4,18.39299988746643,learn,41607.00011253357,Wed Apr 02 2025 12:03:29 GMT-0500 (Central Daylight Time),505236.8000000119,A,wi,O,i,88,1,2316.0999999940395,502920.7000000179,7103,WL,B,10.0
4,18.47599983215332,learn,41524.00016784668,Wed Apr 02 2025 12:03:29 GMT-0500 (Central Daylight Time),505320.0,A,win,O,n,55,1,2399.2999999821186,502920.7000000179,7103,WL,B,10.0
4,18.626999855041504,learn,41373.000144958496,Wed Apr 02 2025 12:03:29 GMT-0500 (Central Daylight Time),505470.60000002384,A,wind,O,d,124,1,2549.9000000059605,502920.7000000179,7103,WL,B,10.0
4,18.70899987220764,learn,41291.00012779236,Wed Apr 02 2025 12:03:29 GMT-0500 (Central Daylight Time),505553.3000000119,A,windo,O,o,51,1,2632.5999999940395,502920.7000000179,7103,WL,B,10.0
4,19.009999990463257,learn,40990.00000953674,Wed Apr 02 2025 12:03:29 GMT-0500 (Central Daylight Time),505853.90000000596,A,window,O,w,285,1,2933.199999988079,502920.7000000179,7103,WL,B,10.0
4,19.80900001525879,learn,40190.99998474121,Wed Apr 02 2025 12:03:29 GMT-0500 (Central Daylight Time),506652.60000002384,A,windowenter,O,enter,770,1,3731.9000000059605,502920.7000000179,7103,WL,B,10.0
4,20.64299988746643,learn,39357.00011253357,Wed Apr 02 2025 12:03:29 GMT-0500 (Central Daylight Time),507486.8000000119,A,w,O,w,816,1,834.0,506652.8000000119,7103,WL,B,11.0
4,20.758999824523926,learn,39241.000175476074,Wed Apr 02 2025 12:03:29 GMT-0500 (Central Daylight Time),507602.60000002384,A,wi,O,i,73,1,949.8000000119209,506652.8000000119,7103,WL,B,11.0
4,20.95899987220764,learn,39041.00012779236,Wed Apr 02 2025 12:03:29 GMT-0500 (Central Daylight Time),507803.10000002384,A,wif,O,f,175,1,1150.300000011921,506652.8000000119,7103,WL,B,11.0
4,21.258999824523926,learn,38741.000175476074,Wed Apr 02 2025 12:03:29 GMT-0500 (Central Daylight Time),508102.60000002384,A,wife,O,e,261,1,1449.800000011921,506652.8000000119,7103,WL,B,11.0
4,21.524999856948853,learn,38475.00014305115,Wed Apr 02 2025 12:03:29 GMT-0500 (Central Daylight Time),508368.7000000179,A,wifeenter,O,enter,237,1,1715.9000000059605,506652.8000000119,7103,WL,B,11.0
4,26.29099988937378,learn,33709.00011062622,Wed Apr 02 2025 12:03:29 GMT-0500 (Central Daylight Time),513134.90000000596,A,d,O,d,4748,1,4766.0,508368.90000000596,7103,WL,B,12.0
4,26.506999969482422,learn,33493.00003051758,Wed Apr 02 2025 12:03:29 GMT-0500 (Central Daylight Time),513351.2000000179,A,do,O,o,187,1,4982.300000011921,508368.90000000596,7103,WL,B,12.0
4,26.656999826431274,learn,33343.000173568726,Wed Apr 02 2025 12:03:29 GMT-0500 (Central Daylight Time),513501.3000000119,A,doo,O,o,115,1,5132.4000000059605,508368.90000000596,7103,WL,B,12.0
4,26.756999969482422,learn,33243.00003051758,Wed Apr 02 2025 12:03:29 GMT-0500 (Central Daylight Time),513601.0,A,door,O,r,69,1,5232.0999999940395,508368.90000000596,7103,WL,B,12.0
4,26.9229998588562,learn,33077.0001411438,Wed Apr 02 2025 12:03:29 GMT-0500 (Central Daylight Time),513766.7000000179,A,doorenter,O,enter,129,1,5397.800000011921,508368.90000000596,7103,WL,B,12.0
4,46.76799988746643,learn,13232.00011253357,Wed Apr 02 2025 12:03:29 GMT-0500 (Central Daylight Time),533611.8000000119,A,d,O,d,19823,1,19844.69999998808,513767.10000002384,7103,WL,B,13.0
4,46.967000007629395,learn,13032.999992370605,Wed Apr 02 2025 12:03:29 GMT-0500 (Central Daylight Time),533811.3000000119,A,do,O,o,169,1,20044.19999998808,513767.10000002384,7103,WL,B,13.0
4,47.133999824523926,learn,12866.000175476074,Wed Apr 02 2025 12:03:29 GMT-0500 (Central Daylight Time),533977.900000006,A,doo,O,o,132,1,20210.79999998212,513767.10000002384,7103,WL,B,13.0
4,47.26699995994568,learn,12733.000040054321,Wed Apr 02 2025 12:03:29 GMT-0500 (Central Daylight Time),534110.900000006,A,door,O,r,108,1,20343.79999998212,513767.10000002384,7103,WL,B,13.0
4,47.39999985694885,learn,12600.000143051147,Wed Apr 02 2025 12:03:29 GMT-0500 (Central Daylight Time),534243.5,A,doorenter,O,enter,104,1,20476.399999976158,513767.10000002384,7103,WL,B,13.0
4,54.097999811172485,learn,5902.000188827515,Wed Apr 02 2025 12:03:29 GMT-0500 (Central Daylight Time),540941.3000000119,A,enter,O,enter,6680,1,6697.5999999940395,534243.7000000179,7103,WL,B,14.0
4,54.597999811172485,learn,5402.000188827515,Wed Apr 02 2025 12:03:29 GMT-0500 (Central Daylight Time),541441.2000000179,A,enter,O,enter,486,1,499.59999999403954,540941.6000000238,7103,WL,B,15.0
5,1.3840000629425049,learn,60000.0,Wed Apr 02 2025 12:03:29 GMT-0500 (Central Daylight Time),610036.8000000119,A,c,O,c,1359,1,1383.199999988079,608653.6000000238,7103,WL,B,1.0
5,1.567000150680542,learn,60000.0,Wed Apr 02 2025 12:03:29 GMT-0500 (Central Daylight Time),610220.0,A,cl,O,l,139,1,1566.3999999761581,608653.6000000238,7103,WL,B,1.0
5,1.7999999523162842,learn,60000.0,Wed Apr 02 2025 12:03:29 GMT-0500 (Central Daylight Time),610452.7000000179,A,clo,O,o,206,1,1799.0999999940395,608653.6000000238,7103,WL,B,1.0
5,1.9650001525878906,learn,60000.0,Wed Apr 02 2025 12:03:29 GMT-0500 (Central Daylight Time),610618.3000000119,A,cloc,O,c,147,1,1964.699999988079,608653.6000000238,7103,WL,B,1.0
5,2.0820000171661377,learn,60000.0,Wed Apr 02 2025 12:03:29 GMT-0500 (Central Daylight Time),610734.900000006,A,clock,O,k,99,1,2081.2999999821186,608653.6000000238,7103,WL,B,1.0
5,2.449000120162964,learn,60000.0,Wed Apr 02 2025 12:03:29 GMT-0500 (Central Daylight Time),611101.7000000179,A,clockenter,O,enter,357,1,2448.0999999940395,608653.6000000238,7103,WL,B,1.0
5,2.697999954223633,learn,60000.0,Wed Apr 02 2025 12:03:29 GMT-0500 (Central Daylight Time),611351.5,A,a,O,a,237,1,249.39999997615814,611102.1000000238,7103,WL,B,2.0
5,2.865000009536743,learn,60000.0,Wed Apr 02 2025 12:03:29 GMT-0500 (Central Daylight Time),611518.1000000238,A,ar,O,r,147,1,416.0,611102.1000000238,7103,WL,B,2.0
5,2.998000144958496,learn,60000.0,Wed Apr 02 2025 12:03:29 GMT-0500 (Central Daylight Time),611651.5,A,arm,O,m,115,1,549.3999999761581,611102.1000000238,7103,WL,B,2.0
5,3.3320000171661377,learn,60000.0,Wed Apr 02 2025 12:03:29 GMT-0500 (Central Daylight Time),611984.7000000179,A,armenter,O,enter,310,1,882.5999999940395,611102.1000000238,7103,WL,B,2.0
5,3.565999984741211,learn,60000.0,Wed Apr 02 2025 12:03:29 GMT-0500 (Central Daylight Time),612218.7000000179,A,s,O,s,211,1,233.7000000178814,611985.0,7103,WL,B,3.0
5,3.683000087738037,learn,60000.0,Wed Apr 02 2025 12:03:29 GMT-0500 (Central Daylight Time),612335.6000000238,A,sk,O,k,89,1,350.60000002384186,611985.0,7103,WL,B,3.0
5,3.949000120162964,learn,60000.0,Wed Apr 02 2025 12:03:29 GMT-0500 (Central Daylight Time),612602.400000006,A,skn,O,n,230,1,617.4000000059605,611985.0,7103,WL,B,3.0
5,4.29800009727478,learn,60000.0,Wed Apr 02 2025 12:03:29 GMT-0500 (Central Daylight Time),612951.1000000238,A,sknenter,O,enter,312,1,966.1000000238419,611985.0,7103,WL,B,3.0
5,5.515000104904175,learn,60000.0,Wed Apr 02 2025 12:03:29 GMT-0500 (Central Daylight Time),614168.3000000119,A,l,O,l,1206,1,1217.0,612951.3000000119,7103,WL,B,4.0
5,5.631999969482422,learn,60000.0,Wed Apr 02 2025 12:03:29 GMT-0500 (Central Daylight Time),614284.6000000238,A,la,O,a,94,1,1333.300000011921,612951.3000000119,7103,WL,B,4.0
5,5.765000104904175,learn,60000.0,Wed Apr 02 2025 12:03:29 GMT-0500 (Central Daylight Time),614417.6000000238,A,lak,O,k,106,1,1466.300000011921,612951.3000000119,7103,WL,B,4.0
5,5.947999954223633,learn,60000.0,Wed Apr 02 2025 12:03:29 GMT-0500 (Central Daylight Time),614600.8000000119,A,lake,O,e,155,1,1649.5,612951.3000000119,7103,WL,B,4.0
5,7.064000129699707,learn,60000.0,Wed Apr 02 2025 12:03:29 GMT-0500 (Central Daylight Time),615716.8000000119,A,lakeenter,O,enter,1100,1,2765.5,612951.3000000119,7103,WL,B,4.0
5,7.697999954223633,learn,60000.0,Wed Apr 02 2025 12:03:29 GMT-0500 (Central Daylight Time),616350.900000006,A,c,O,c,624,1,633.7999999821186,615717.1000000238,7103,WL,B,5.0
5,7.898000001907349,learn,60000.0,Wed Apr 02 2025 12:03:29 GMT-0500 (Central Daylight Time),616550.8000000119,A,ca,O,a,172,1,833.6999999880791,615717.1000000238,7103,WL,B,5.0
5,8.013999938964844,learn,60000.0,Wed Apr 02 2025 12:03:29 GMT-0500 (Central Daylight Time),616667.400000006,A,cab,O,b,82,1,950.2999999821186,615717.1000000238,7103,WL,B,5.0
5,8.164000034332275,learn,60000.0,Wed Apr 02 2025 12:03:29 GMT-0500 (Central Daylight Time),616817.5,A,cabi,O,i,118,1,1100.3999999761581,615717.1000000238,7103,WL,B,5.0
5,8.230000019073486,learn,60000.0,Wed Apr 02 2025 12:03:29 GMT-0500 (Central Daylight Time),616883.1000000238,A,cabin,O,n,38,1,1166.0,615717.1000000238,7103,WL,B,5.0
5,8.86299991607666,learn,60000.0,Wed Apr 02 2025 12:03:29 GMT-0500 (Central Daylight Time),617516.3000000119,A,cabinenter,O,enter,615,1,1799.199999988079,615717.1000000238,7103,WL,B,5.0
5,9.614000082015991,learn,60000.0,Wed Apr 02 2025 12:03:29 GMT-0500 (Central Daylight Time),618267.5,A,p,O,p,745,1,751.0,617516.5,7103,WL,B,6.0
5,9.94700002670288,learn,60000.0,Wed Apr 02 2025 12:03:29 GMT-0500 (Central Daylight Time),618600.2000000179,A,pu,O,u,302,1,1083.7000000178814,617516.5,7103,WL,B,6.0
5,10.664000034332275,learn,60000.0,Wed Apr 02 2025 12:03:29 GMT-0500 (Central Daylight Time),619316.7000000179,A,pup,O,p,683,1,1800.2000000178814,617516.5,7103,WL,B,6.0
5,10.829999923706055,learn,60000.0,Wed Apr 02 2025 12:03:29 GMT-0500 (Central Daylight Time),619483.2000000179,A,pupi,O,i,134,1,1966.7000000178814,617516.5,7103,WL,B,6.0
5,11.02999997138977,learn,60000.0,Wed Apr 02 2025 12:03:29 GMT-0500 (Central Daylight Time),619683.400000006,A,pupil,O,l,167,1,2166.9000000059605,617516.5,7103,WL,B,6.0
5,11.279000043869019,learn,60000.0,Wed Apr 02 2025 12:03:29 GMT-0500 (Central Daylight Time),619932.0,A,pupilenter,O,enter,215,1,2415.5,617516.5,7103,WL,B,6.0
5,11.579999923706055,learn,60000.0,Wed Apr 02 2025 12:03:29 GMT-0500 (Central Daylight Time),620233.0,A,p,O,p,281,1,300.69999998807907,619932.3000000119,7103,WL,B,7.0
5,11.796000003814697,learn,60000.0,Wed Apr 02 2025 12:03:29 GMT-0500 (Central Daylight Time),620449.6000000238,A,pi,O,i,185,1,517.3000000119209,619932.3000000119,7103,WL,B,7.0
5,12.230000019073486,learn,60000.0,Wed Apr 02 2025 12:03:29 GMT-0500 (Central Daylight Time),620883.1000000238,A,pip,O,p,391,1,950.8000000119209,619932.3000000119,7103,WL,B,7.0
5,12.630000114440918,learn,60000.0,Wed Apr 02 2025 12:03:29 GMT-0500 (Central Daylight Time),621282.7000000179,A,pipe,O,e,370,1,1350.4000000059605,619932.3000000119,7103,WL,B,7.0
5,13.01200008392334,learn,60000.0,Wed Apr 02 2025 12:03:29 GMT-0500 (Central Daylight Time),621664.900000006,A,pipeenter,O,enter,349,1,1732.5999999940395,619932.3000000119,7103,WL,B,7.0
5,13.446000099182129,learn,60000.0,Wed Apr 02 2025 12:03:29 GMT-0500 (Central Daylight Time),622099.0,A,s,O,s,420,1,433.89999997615814,621665.1000000238,7103,WL,B,8.0
5,13.646000146865845,learn,60000.0,Wed Apr 02 2025 12:03:29 GMT-0500 (Central Daylight Time),622298.900000006,A,st,O,t,167,1,633.7999999821186,621665.1000000238,7103,WL,B,8.0
5,13.845999956130981,learn,60000.0,Wed Apr 02 2025 12:03:29 GMT-0500 (Central Daylight Time),622498.900000006,A,str,O,r,166,1,833.7999999821186,621665.1000000238,7103,WL,B,8.0
5,14.146000146865845,learn,60000.0,Wed Apr 02 2025 12:03:29 GMT-0500 (Central Daylight Time),622798.8000000119,A,stre,O,e,272,1,1133.699999988079,621665.1000000238,7103,WL,B,8.0
5,14.279000043869019,learn,60000.0,Wed Apr 02 2025 12:03:29 GMT-0500 (Central Daylight Time),622931.8000000119,A,stree,O,e,106,1,1266.699999988079,621665.1000000238,7103,WL,B,8.0
5,14.462000131607056,learn,60000.0,Wed Apr 02 2025 12:03:29 GMT-0500 (Central Daylight Time),623115.400000006,A,street,O,t,156,1,1450.2999999821186,621665.1000000238,7103,WL,B,8.0
5,14.710999965667725,learn,60000.0,Wed Apr 02 2025 12:03:29 GMT-0500 (Central Daylight Time),623364.3000000119,A,streetenter,O,enter,214,1,1699.199999988079,621665.1000000238,7103,WL,B,8.0
5,15.062000036239624,learn,60000.0,Wed Apr 02 2025 12:03:29 GMT-0500 (Central Daylight Time),623715.1000000238,A,s,O,s,337,1,350.60000002384186,623364.5,7103,WL,B,9.0
5,15.229000091552734,learn,60000.0,Wed Apr 02 2025 12:03:29 GMT-0500 (Central Daylight Time),623881.900000006,A,st,O,t,134,1,517.4000000059605,623364.5,7103,WL,B,9.0
5,15.394999980926514,learn,60000.0,Wed Apr 02 2025 12:03:29 GMT-0500 (Central Daylight Time),624048.400000006,A,sta,O,a,130,1,683.9000000059605,623364.5,7103,WL,B,9.0
5,15.477999925613403,learn,60000.0,Wed Apr 02 2025 12:03:29 GMT-0500 (Central Daylight Time),624130.7000000179,A,star,O,r,55,1,766.2000000178814,623364.5,7103,WL,B,9.0
5,15.99399995803833,learn,60000.0,Wed Apr 02 2025 12:03:29 GMT-0500 (Central Daylight Time),624647.2000000179,A,starenter,O,enter,504,1,1282.7000000178814,623364.5,7103,WL,B,9.0
5,16.460999965667725,learn,60000.0,Wed Apr 02 2025 12:03:29 GMT-0500 (Central Daylight Time),625114.6000000238,A,g,O,g,446,1,467.2000000178814,624647.400000006,7103,WL,B,10.0
5,16.67900013923645,learn,60000.0,Wed Apr 02 2025 12:03:29 GMT-0500 (Central Daylight Time),625331.7000000179,A,gr,O,r,195,1,684.3000000119209,624647.400000006,7103,WL,B,10.0
5,16.795000076293945,learn,60000.0,Wed Apr 02 2025 12:03:29 GMT-0500 (Central Daylight Time),625447.6000000238,A,gra,O,a,76,1,800.2000000178814,624647.400000006,7103,WL,B,10.0
5,17.09500002861023,learn,60000.0,Wed Apr 02 2025 12:03:29 GMT-0500 (Central Daylight Time),625748.3000000119,A,gras,O,s,272,1,1100.9000000059605,624647.400000006,7103,WL,B,10.0
5,17.24399995803833,learn,60000.0,Wed Apr 02 2025 12:03:29 GMT-0500 (Central Daylight Time),625897.400000006,A,grass,O,s,106,1,1250.0,624647.400000006,7103,WL,B,10.0
5,17.544000148773193,learn,60000.0,Wed Apr 02 2025 12:03:29 GMT-0500 (Central Daylight Time),626196.7000000179,A,grassenter,O,enter,283,1,1549.300000011921,624647.400000006,7103,WL,B,10.0
5,17.878000020980835,learn,60000.0,Wed Apr 02 2025 12:03:29 GMT-0500 (Central Daylight Time),626531.1000000238,A,d,O,d,320,1,334.10000002384186,626197.0,7103,WL,B,11.0
5,18.311000108718872,learn,60000.0,Wed Apr 02 2025 12:03:29 GMT-0500 (Central Daylight Time),626964.3000000119,A,do,O,o,404,1,767.3000000119209,626197.0,7103,WL,B,11.0
5,18.477999925613403,learn,60000.0,Wed Apr 02 2025 12:03:29 GMT-0500 (Central Daylight Time),627130.7000000179,A,doo,O,o,133,1,933.7000000178814,626197.0,7103,WL,B,11.0
5,18.694000005722046,learn,60000.0,Wed Apr 02 2025 12:03:29 GMT-0500 (Central Daylight Time),627347.3000000119,A,door,O,r,175,1,1150.300000011921,626197.0,7103,WL,B,11.0
5,19.176000118255615,learn,60000.0,Wed Apr 02 2025 12:03:29 GMT-0500 (Central Daylight Time),627829.5,A,doorenter,O,enter,454,1,1632.5,626197.0,7103,WL,B,11.0
5,26.308000087738037,learn,60000.0,Wed Apr 02 2025 12:03:29 GMT-0500 (Central Daylight Time),634961.400000006,A,f,O,f,7112,1,7131.699999988079,627829.7000000179,7103,WL,B,12.0
5,26.407999992370605,learn,60000.0,Wed Apr 02 2025 12:03:29 GMT-0500 (Central Daylight Time),635060.8000000119,A,fi,O,i,63,1,7231.0999999940395,627829.7000000179,7103,WL,B,12.0
5,26.556999921798706,learn,60000.0,Wed Apr 02 2025 12:03:29 GMT-0500 (Central Daylight Time),635210.400000006,A,fir,O,r,130,1,7380.699999988079,627829.7000000179,7103,WL,B,12.0
5,26.70799994468689,learn,60000.0,Wed Apr 02 2025 12:03:29 GMT-0500 (Central Daylight Time),635361.0,A,fire,O,e,120,1,7531.299999982119,627829.7000000179,7103,WL,B,12.0
5,26.957000017166138,learn,60000.0,Wed Apr 02 2025 12:03:29 GMT-0500 (Central Daylight Time),635610.2000000179,A,fireenter,O,enter,217,1,7780.5,627829.7000000179,7103,WL,B,12.0
5,34.055999994277954,learn,60000.0,Wed Apr 02 2025 12:03:29 GMT-0500 (Central Daylight Time),642709.0,A,w,O,w,7083,1,7098.399999976158,635610.6000000238,7103,WL,B,13.0
5,34.17300009727478,learn,60000.0,Wed Apr 02 2025 12:03:29 GMT-0500 (Central Daylight Time),642825.7000000179,A,wi,O,i,84,1,7215.0999999940395,635610.6000000238,7103,WL,B,13.0
5,34.33899998664856,learn,60000.0,Wed Apr 02 2025 12:03:29 GMT-0500 (Central Daylight Time),642991.7000000179,A,wif,O,f,136,1,7381.0999999940395,635610.6000000238,7103,WL,B,13.0
5,34.539000034332275,learn,60000.0,Wed Apr 02 2025 12:03:29 GMT-0500 (Central Daylight Time),643191.900000006,A,wife,O,e,173,1,7581.299999982119,635610.6000000238,7103,WL,B,13.0
5,36.23799991607666,learn,60000.0,Wed Apr 02 2025 12:03:29 GMT-0500 (Central Daylight Time),644890.6000000238,A,wifeenter,O,enter,1659,1,9280.0,635610.6000000238,7103,WL,B,13.0
5,36.82200002670288,learn,60000.0,Wed Apr 02 2025 12:03:29 GMT-0500 (Central Daylight Time),645474.7000000179,A,enter,O,enter,562,1,583.9000000059605,644890.8000000119,7103,WL,B,14.0
5,37.25399994850159,learn,60000.0,Wed Apr 02 2025 12:03:29 GMT-0500 (Central Daylight Time),645906.8000000119,A,enter,O,enter,425,1,431.80000001192093,645475.0,7103,WL,B,15.0
6,0.7989997863769531,distr,59201.00021362305,Wed Apr 02 2025 12:03:29 GMT-0500 (Central Daylight Time),721698.7000000179,B,c,O,c,785,1,799.5999999940395,720899.1000000238,7103,WL,B,1.0
6,0.9489998817443848,distr,59051.000118255615,Wed Apr 02 2025 12:03:29 GMT-0500 (Central Daylight Time),721848.5,B,co,O,o,129,1,949.3999999761581,720899.1000000238,7103,WL,B,1.0
6,1.065999984741211,distr,58934.00001525879,Wed Apr 02 2025 12:03:29 GMT-0500 (Central Daylight Time),721965.3000000119,B,coi,O,i,107,1,1066.199999988079,720899.1000000238,7103,WL,B,1.0
6,1.2829999923706055,distr,58717.000007629395,Wed Apr 02 2025 12:03:29 GMT-0500 (Central Daylight Time),722181.8000000119,B,coin,O,n,197,1,1282.699999988079,720899.1000000238,7103,WL,B,1.0
6,1.6159999370574951,distr,58384.000062942505,Wed Apr 02 2025 12:03:29 GMT-0500 (Central Daylight Time),722515.0,B,coinenter,O,enter,317,1,1615.8999999761581,720899.1000000238,7103,WL,B,1.0
6,2.131999969482422,distr,57868.00003051758,Wed Apr 02 2025 12:03:29 GMT-0500 (Central Daylight Time),723031.5,B,a,O,a,496,1,516.2999999821186,722515.2000000179,7103,WL,B,2.0
6,2.315999984741211,distr,57684.00001525879,Wed Apr 02 2025 12:03:29 GMT-0500 (Central Daylight Time),723214.900000006,B,ar,O,r,164,1,699.6999999880791,722515.2000000179,7103,WL,B,2.0
6,2.6659998893737793,distr,57334.00011062622,Wed Apr 02 2025 12:03:29 GMT-0500 (Central Daylight Time),723564.8000000119,B,arm,O,m,332,1,1049.5999999940395,722515.2000000179,7103,WL,B,2.0
6,3.0149998664855957,distr,56985.000133514404,Wed Apr 02 2025 12:03:29 GMT-0500 (Central Daylight Time),723914.400000006,B,army,O,y,342,1,1399.199999988079,722515.2000000179,7103,WL,B,2.0
6,3.297999858856201,distr,56702.0001411438,Wed Apr 02 2025 12:03:29 GMT-0500 (Central Daylight Time),724197.7000000179,B,armyenter,O,enter,272,1,1682.5,722515.2000000179,7103,WL,B,2.0
6,3.56499981880188,distr,56435.00018119812,Wed Apr 02 2025 12:03:29 GMT-0500 (Central Daylight Time),724464.6000000238,B,b,O,b,246,1,266.60000002384186,724198.0,7103,WL,B,3.0
6,3.7819998264312744,distr,56218.000173568726,Wed Apr 02 2025 12:03:29 GMT-0500 (Central Daylight Time),724680.8000000119,B,ba,O,a,202,1,482.80000001192093,724198.0,7103,WL,B,3.0
6,3.947999954223633,distr,56052.00004577637,Wed Apr 02 2025 12:03:29 GMT-0500 (Central Daylight Time),724847.6000000238,B,bab,O,b,154,1,649.6000000238419,724198.0,7103,WL,B,3.0
6,4.148000001907349,distr,55851.99999809265,Wed Apr 02 2025 12:03:29 GMT-0500 (Central Daylight Time),725047.400000006,B,baby,O,y,188,1,849.4000000059605,724198.0,7103,WL,B,3.0
6,4.730999946594238,distr,55269.00005340576,Wed Apr 02 2025 12:03:29 GMT-0500 (Central Daylight Time),725630.7000000179,B,babyenter,O,enter,564,1,1432.7000000178814,724198.0,7103,WL,B,3.0
6,5.0309998989105225,distr,54969.00010108948,Wed Apr 02 2025 12:03:29 GMT-0500 (Central Daylight Time),725930.6000000238,B,o,O,o,285,1,299.60000002384186,725631.0,7103,WL,B,4.0
6,5.264999866485596,distr,54735.000133514404,Wed Apr 02 2025 12:03:29 GMT-0500 (Central Daylight Time),726163.8000000119,B,oc,O,c,217,1,532.8000000119209,725631.0,7103,WL,B,4.0
6,5.413999795913696,distr,54586.000204086304,Wed Apr 02 2025 12:03:29 GMT-0500 (Central Daylight Time),726313.7000000179,B,oci,O,i,136,1,682.7000000178814,725631.0,7103,WL,B,4.0
6,6.0309998989105225,distr,53969.00010108948,Wed Apr 02 2025 12:03:29 GMT-0500 (Central Daylight Time),726930.1000000238,B,oc,O,backspace,609,1,1299.1000000238419,725631.0,7103,WL,B,4.0
6,6.113999843597412,distr,53886.00015640259,Wed Apr 02 2025 12:03:29 GMT-0500 (Central Daylight Time),727013.400000006,B,oce,O,e,73,1,1382.4000000059605,725631.0,7103,WL,B,4.0
6,6.296999931335449,distr,53703.00006866455,Wed Apr 02 2025 12:03:29 GMT-0500 (Central Daylight Time),727196.7000000179,B,ocea,O,a,175,1,1565.7000000178814,725631.0,7103,WL,B,4.0
6,6.430999994277954,distr,53569.000005722046,Wed Apr 02 2025 12:03:29 GMT-0500 (Central Daylight Time),727330.1000000238,B,ocean,O,n,110,1,1699.1000000238419,725631.0,7103,WL,B,4.0
6,7.346999883651733,distr,52653.00011634827,Wed Apr 02 2025 12:03:29 GMT-0500 (Central Daylight Time),728246.5,B,oceanenter,O,enter,897,1,2615.5,725631.0,7103,WL,B,4.0
6,7.663999795913696,distr,52336.000204086304,Wed Apr 02 2025 12:03:29 GMT-0500 (Central Daylight Time),728563.0,B,r,O,r,301,1,316.19999998807907,728246.8000000119,7103,WL,B,5.0
6,7.763999938964844,distr,52236.000061035156,Wed Apr 02 2025 12:03:29 GMT-0500 (Central Daylight Time),728663.0,B,ro,O,o,78,1,416.19999998807907,728246.8000000119,7103,WL,B,5.0
6,7.946999788284302,distr,52053.0002117157,Wed Apr 02 2025 12:03:29 GMT-0500 (Central Daylight Time),728846.2000000179,B,roc,O,c,164,1,599.4000000059605,728246.8000000119,7103,WL,B,5.0
6,8.063999891281128,distr,51936.00010871887,Wed Apr 02 2025 12:03:29 GMT-0500 (Central Daylight Time),728962.8000000119,B,rock,O,k,109,1,716.0,728246.8000000119,7103,WL,B,5.0
6,8.496999979019165,distr,51503.000020980835,Wed Apr 02 2025 12:03:29 GMT-0500 (Central Daylight Time),729395.900000006,B,rockenter,O,enter,425,1,1149.0999999940395,728246.8000000119,7103,WL,B,5.0
6,13.478999853134155,distr,46521.000146865845,Wed Apr 02 2025 12:03:29 GMT-0500 (Central Daylight Time),734377.900000006,B,f,O,f,4959,1,4981.699999988079,729396.2000000179,7103,WL,B,6.0
6,13.611999988555908,distr,46388.00001144409,Wed Apr 02 2025 12:03:29 GMT-0500 (Central Daylight Time),734511.0,B,fu,O,u,121,1,5114.799999982119,729396.2000000179,7103,WL,B,6.0
6,14.09499979019165,distr,45905.00020980835,Wed Apr 02 2025 12:03:29 GMT-0500 (Central Daylight Time),734994.2000000179,B,f,O,backspace,468,1,5598.0,729396.2000000179,7103,WL,B,6.0
6,14.211999893188477,distr,45788.00010681152,Wed Apr 02 2025 12:03:29 GMT-0500 (Central Daylight Time),735110.900000006,B,,O,backspace,105,1,5714.699999988079,729396.2000000179,7103,WL,B,6.0
6,14.311999797821045,distr,45688.000202178955,Wed Apr 02 2025 12:03:29 GMT-0500 (Central Daylight Time),735210.8000000119,B,g,O,g,93,1,5814.5999999940395,729396.2000000179,7103,WL,B,6.0
6,14.42799997329712,distr,45572.00002670288,Wed Apr 02 2025 12:03:29 GMT-0500 (Central Daylight Time),735327.400000006,B,gu,O,u,96,1,5931.199999988079,729396.2000000179,7103,WL,B,6.0
6,14.611999988555908,distr,45388.00001144409,Wed Apr 02 2025 12:03:29 GMT-0500 (Central Daylight Time),735510.7000000179,B,gui,O,i,171,1,6114.5,729396.2000000179,7103,WL,B,6.0
6,14.777999877929688,distr,45222.00012207031,Wed Apr 02 2025 12:03:29 GMT-0500 (Central Daylight Time),735677.6000000238,B,guil,O,l,147,1,6281.4000000059605,729396.2000000179,7103,WL,B,6.0
6,15.060999870300293,distr,44939.00012969971,Wed Apr 02 2025 12:03:29 GMT-0500 (Central Daylight Time),735960.7000000179,B,gui,O,backspace,262,1,6564.5,729396.2000000179,7103,WL,B,6.0
6,15.194999933242798,distr,44805.0000667572,Wed Apr 02 2025 12:03:29 GMT-0500 (Central Daylight Time),736093.8000000119,B,gu,O,backspace,122,1,6697.5999999940395,729396.2000000179,7103,WL,B,6.0
6,15.327999830245972,distr,44672.00016975403,Wed Apr 02 2025 12:03:29 GMT-0500 (Central Daylight Time),736227.0,B,g,O,backspace,126,1,6830.799999982119,729396.2000000179,7103,WL,B,6.0
6,15.42799997329712,distr,44572.00002670288,Wed Apr 02 2025 12:03:29 GMT-0500 (Central Daylight Time),736327.2000000179,B,,O,backspace,89,1,6931.0,729396.2000000179,7103,WL,B,6.0
6,15.593999862670898,distr,44406.0001373291,Wed Apr 02 2025 12:03:29 GMT-0500 (Central Daylight Time),736493.7000000179,B,,O,backspace,156,1,7097.5,729396.2000000179,7103,WL,B,6.0
6,16.377999782562256,distr,43622.000217437744,Wed Apr 02 2025 12:03:29 GMT-0500 (Central Daylight Time),737276.8000000119,B,b,O,b,775,1,7880.5999999940395,729396.2000000179,7103,WL,B,6.0
6,16.57699990272522,distr,43423.00009727478,Wed Apr 02 2025 12:03:29 GMT-0500 (Central Daylight Time),737476.7000000179,B,bu,O,u,183,1,8080.5,729396.2000000179,7103,WL,B,6.0
6,17.043999910354614,distr,42956.000089645386,Wed Apr 02 2025 12:03:29 GMT-0500 (Central Daylight Time),737943.400000006,B,bui,O,i,447,1,8547.199999988079,729396.2000000179,7103,WL,B,6.0
6,17.24399995803833,distr,42756.00004196167,Wed Apr 02 2025 12:03:29 GMT-0500 (Central Daylight Time),738143.3000000119,B,buil,O,l,180,1,8747.09999999404,729396.2000000179,7103,WL,B,6.0
6,17.444000005722046,distr,42555.999994277954,Wed Apr 02 2025 12:03:29 GMT-0500 (Central Daylight Time),738343.2000000179,B,build,O,d,178,1,8947.0,729396.2000000179,7103,WL,B,6.0
6,17.51099991798401,distr,42489.00008201599,Wed Apr 02 2025 12:03:29 GMT-0500 (Central Daylight Time),738409.8000000119,B,buildi,O,i,44,1,9013.59999999404,729396.2000000179,7103,WL,B,6.0
6,17.610999822616577,distr,42389.00017738342,Wed Apr 02 2025 12:03:29 GMT-0500 (Central Daylight Time),738509.8000000119,B,buildin,O,n,81,1,9113.59999999404,729396.2000000179,7103,WL,B,6.0
6,17.776999950408936,distr,42223.000049591064,Wed Apr 02 2025 12:03:29 GMT-0500 (Central Daylight Time),738676.3000000119,B,building,O,g,149,1,9280.09999999404,729396.2000000179,7103,WL,B,6.0
6,18.426999807357788,distr,41573.00019264221,Wed Apr 02 2025 12:03:29 GMT-0500 (Central Daylight Time),739326.3000000119,B,buildingenter,O,enter,639,1,9930.09999999404,729396.2000000179,7103,WL,B,6.0
6,27.60699987411499,distr,32393.00012588501,Wed Apr 02 2025 12:03:29 GMT-0500 (Central Daylight Time),748506.6000000238,B,enter,O,enter,9157,1,9179.90000000596,739326.7000000179,7103,WL,B,7.0
6,27.94099998474121,distr,32059.00001525879,Wed Apr 02 2025 12:03:29 GMT-0500 (Central Daylight Time),748839.8000000119,B,enter,O,enter,320,1,332.90000000596046,748506.900000006,7103,WL,B,8.0
6,28.223999977111816,distr,31776.000022888184,Wed Apr 02 2025 12:03:29 GMT-0500 (Central Daylight Time),749123.1000000238,B,enter,O,enter,268,1,283.10000002384186,748840.0,7103,WL,B,9.0
6,28.43999981880188,distr,31560.00018119812,Wed Apr 02 2025 12:03:29 GMT-0500 (Central Daylight Time),749339.6000000238,B,enter,O,enter,200,1,216.2000000178814,749123.400000006,7103,WL,B,10.0
6,28.622999906539917,distr,31377.000093460083,Wed Apr 02 2025 12:03:29 GMT-0500 (Central Daylight Time),749522.6000000238,B,enter,O,enter,176,1,182.60000002384186,749340.0,7103,WL,B,11.0
6,28.95699977874756,distr,31043.00022125244,Wed Apr 02 2025 12:03:29 GMT-0500 (Central Daylight Time),749856.1000000238,B,enter,O,enter,312,1,333.10000002384186,749523.0,7103,WL,B,12.0
6,29.274999856948853,distr,30725.000143051147,Wed Apr 02 2025 12:03:29 GMT-0500 (Central Daylight Time),750174.2000000179,B,enter,O,enter,299,1,317.80000001192093,749856.400000006,7103,WL,B,13.0
6,29.472999811172485,distr,30527.000188827515,Wed Apr 02 2025 12:03:29 GMT-0500 (Central Daylight Time),750372.400000006,B,enter,O,enter,189,1,197.90000000596046,750174.5,7103,WL,B,14.0
6,29.955999851226807,distr,30044.000148773193,Wed Apr 02 2025 12:03:29 GMT-0500 (Central Daylight Time),750855.6000000238,B,enter,O,enter,461,1,482.90000000596046,750372.7000000179,7103,WL,B,15.0
7,0.8829998970031738,immed,59117.000102996826,Wed Apr 02 2025 12:03:29 GMT-0500 (Central Daylight Time),763519.2000000179,A,c,O,c,852,1,882.7000000178814,762636.5,7103,WL,B,1.0
7,1.0989999771118164,immed,58901.00002288818,Wed Apr 02 2025 12:03:29 GMT-0500 (Central Daylight Time),763735.5,A,ca,O,a,177,1,1099.0,762636.5,7103,WL,B,1.0
7,1.2829999923706055,immed,58717.000007629395,Wed Apr 02 2025 12:03:29 GMT-0500 (Central Daylight Time),763919.0,A,cab,O,b,155,1,1282.5,762636.5,7103,WL,B,1.0
7,1.4499998092651367,immed,58550.00019073486,Wed Apr 02 2025 12:03:29 GMT-0500 (Central Daylight Time),764085.900000006,A,cabi,O,i,132,1,1449.4000000059605,762636.5,7103,WL,B,1.0
7,1.5149998664855957,immed,58485.000133514404,Wed Apr 02 2025 12:03:29 GMT-0500 (Central Daylight Time),764151.5,A,cabin,O,n,26,1,1515.0,762636.5,7103,WL,B,1.0
7,1.8819999694824219,immed,58118.00003051758,Wed Apr 02 2025 12:03:29 GMT-0500 (Central Daylight Time),764518.0,A,cabinenter,O,enter,349,1,1881.5,762636.5,7103,WL,B,1.0
7,2.232999801635742,immed,57767.00019836426,Wed Apr 02 2025 12:03:29 GMT-0500 (Central Daylight Time),764868.900000006,A,l,O,l,343,1,350.59999999403954,764518.3000000119,7103,WL,B,2.0
7,2.3320000171661377,immed,57667.99998283386,Wed Apr 02 2025 12:03:29 GMT-0500 (Central Daylight Time),764967.8000000119,A,la,O,a,60,1,449.5,764518.3000000119,7103,WL,B,2.0
7,2.5149998664855957,immed,57485.000133514404,Wed Apr 02 2025 12:03:29 GMT-0500 (Central Daylight Time),765150.900000006,A,lak,O,k,163,1,632.5999999940395,764518.3000000119,7103,WL,B,2.0
7,2.680999994277954,immed,57319.000005722046,Wed Apr 02 2025 12:03:29 GMT-0500 (Central Daylight Time),765317.6000000238,A,lake,O,e,148,1,799.3000000119209,764518.3000000119,7103,WL,B,2.0
7,2.880999803543091,immed,57119.00019645691,Wed Apr 02 2025 12:03:29 GMT-0500 (Central Daylight Time),765517.5,A,lakeenter,O,enter,189,1,999.1999999880791,764518.3000000119,7103,WL,B,2.0
7,3.180999994277954,immed,56819.000005722046,Wed Apr 02 2025 12:03:29 GMT-0500 (Central Daylight Time),765817.5,A,f,O,f,278,1,299.69999998807907,765517.8000000119,7103,WL,B,3.0
7,3.2639999389648438,immed,56736.000061035156,Wed Apr 02 2025 12:03:29 GMT-0500 (Central Daylight Time),765900.7000000179,A,fi,O,i,74,1,382.90000000596046,765517.8000000119,7103,WL,B,3.0
7,3.447999954223633,immed,56552.00004577637,Wed Apr 02 2025 12:03:29 GMT-0500 (Central Daylight Time),766084.7000000179,A,fir,O,r,176,1,566.9000000059605,765517.8000000119,7103,WL,B,3.0
7,3.5809998512268066,immed,56419.00014877319,Wed Apr 02 2025 12:03:29 GMT-0500 (Central Daylight Time),766217.2000000179,A,fire,O,e,105,1,699.4000000059605,765517.8000000119,7103,WL,B,3.0
7,4.047999858856201,immed,55952.0001411438,Wed Apr 02 2025 12:03:29 GMT-0500 (Central Daylight Time),766683.900000006,A,fireenter,O,enter,450,1,1166.0999999940395,765517.8000000119,7103,WL,B,3.0
7,4.513999938964844,immed,55486.000061035156,Wed Apr 02 2025 12:03:29 GMT-0500 (Central Daylight Time),767150.400000006,A,w,O,w,448,1,466.19999998807907,766684.2000000179,7103,WL,B,4.0
7,4.847999811172485,immed,55152.000188827515,Wed Apr 02 2025 12:03:29 GMT-0500 (Central Daylight Time),767484.6000000238,A,wi,O,i,317,1,800.4000000059605,766684.2000000179,7103,WL,B,4.0
7,5.06499981880188,immed,54935.00018119812,Wed Apr 02 2025 12:03:29 GMT-0500 (Central Daylight Time),767700.8000000119,A,wif,O,f,189,1,1016.5999999940395,766684.2000000179,7103,WL,B,4.0
7,5.31499981880188,immed,54685.00018119812,Wed Apr 02 2025 12:03:29 GMT-0500 (Central Daylight Time),767951.0,A,wife,O,e,222,1,1266.7999999821186,766684.2000000179,7103,WL,B,4.0
7,5.446999788284302,immed,54553.0002117157,Wed Apr 02 2025 12:03:29 GMT-0500 (Central Daylight Time),768083.5,A,wifeenter,O,enter,106,1,1399.2999999821186,766684.2000000179,7103,WL,B,4.0
7,5.730999946594238,immed,54269.00005340576,Wed Apr 02 2025 12:03:29 GMT-0500 (Central Daylight Time),768367.5,A,w,O,w,265,1,283.69999998807907,768083.8000000119,7103,WL,B,5.0
7,5.829999923706055,immed,54170.000076293945,Wed Apr 02 2025 12:03:29 GMT-0500 (Central Daylight Time),768466.6000000238,A,wi,O,i,78,1,382.80000001192093,768083.8000000119,7103,WL,B,5.0
7,5.913999795913696,immed,54086.000204086304,Wed Apr 02 2025 12:03:29 GMT-0500 (Central Daylight Time),768550.5,A,win,O,n,57,1,466.69999998807907,768083.8000000119,7103,WL,B,5.0
7,6.063999891281128,immed,53936.00010871887,Wed Apr 02 2025 12:03:29 GMT-0500 (Central Daylight Time),768700.6000000238,A,wind,O,d,126,1,616.8000000119209,768083.8000000119,7103,WL,B,5.0
7,6.21399998664856,immed,53786.00001335144,Wed Apr 02 2025 12:03:29 GMT-0500 (Central Daylight Time),768850.5,A,windo,O,o,115,1,766.6999999880791,768083.8000000119,7103,WL,B,5.0
7,6.430999994277954,immed,53569.000005722046,Wed Apr 02 2025 12:03:29 GMT-0500 (Central Daylight Time),769067.0,A,window,O,w,176,1,983.1999999880791,768083.8000000119,7103,WL,B,5.0
7,7.230999946594238,immed,52769.00005340576,Wed Apr 02 2025 12:03:29 GMT-0500 (Central Daylight Time),769867.3000000119,A,windowenter,O,enter,769,1,1783.5,768083.8000000119,7103,WL,B,5.0
7,8.863999843597412,immed,51136.00015640259,Wed Apr 02 2025 12:03:29 GMT-0500 (Central Daylight Time),771500.8000000119,A,s,O,s,1627,1,1633.199999988079,769867.6000000238,7103,WL,B,6.0
7,9.063999891281128,immed,50936.00010871887,Wed Apr 02 2025 12:03:29 GMT-0500 (Central Daylight Time),771700.2000000179,A,st,O,t,174,1,1832.5999999940395,769867.6000000238,7103,WL,B,6.0
7,9.27999997138977,immed,50720.00002861023,Wed Apr 02 2025 12:03:29 GMT-0500 (Central Daylight Time),771916.3000000119,A,str,O,r,190,1,2048.699999988079,769867.6000000238,7103,WL,B,6.0
7,9.54699993133545,immed,50453.00006866455,Wed Apr 02 2025 12:03:29 GMT-0500 (Central Daylight Time),772183.1000000238,A,stre,O,e,237,1,2315.5,769867.6000000238,7103,WL,B,6.0
7,9.712999820709229,immed,50287.00017929077,Wed Apr 02 2025 12:03:29 GMT-0500 (Central Daylight Time),772349.400000006,A,stree,O,e,138,1,2481.7999999821186,769867.6000000238,7103,WL,B,6.0
7,9.863999843597412,immed,50136.00015640259,Wed Apr 02 2025 12:03:29 GMT-0500 (Central Daylight Time),772499.8000000119,A,street,O,t,117,1,2632.199999988079,769867.6000000238,7103,WL,B,6.0
7,10.046000003814697,immed,49953.9999961853,Wed Apr 02 2025 12:03:29 GMT-0500 (Central Daylight Time),772682.0,A,streetenter,O,enter,148,1,2814.399999976158,769867.6000000238,7103,WL,B,6.0
7,10.346999883651733,immed,49653.00011634827,Wed Apr 02 2025 12:03:29 GMT-0500 (Central Daylight Time),772982.900000006,A,s,O,s,291,1,300.69999998807907,772682.2000000179,7103,WL,B,7.0
7,10.480000019073486,immed,49519.999980926514,Wed Apr 02 2025 12:03:29 GMT-0500 (Central Daylight Time),773116.2000000179,A,st,O,t,101,1,434.0,772682.2000000179,7103,WL,B,7.0
7,10.646999835968018,immed,49353.00016403198,Wed Apr 02 2025 12:03:29 GMT-0500 (Central Daylight Time),773282.900000006,A,sta,O,a,126,1,600.6999999880791,772682.2000000179,7103,WL,B,7.0
7,10.763000011444092,immed,49236.99998855591,Wed Apr 02 2025 12:03:29 GMT-0500 (Central Daylight Time),773399.400000006,A,star,O,r,90,1,717.1999999880791,772682.2000000179,7103,WL,B,7.0
7,11.378999948501587,immed,48621.00005149841,Wed Apr 02 2025 12:03:29 GMT-0500 (Central Daylight Time),774014.900000006,A,starenter,O,enter,586,1,1332.699999988079,772682.2000000179,7103,WL,B,7.0
7,12.663999795913696,immed,47336.000204086304,Wed Apr 02 2025 12:03:29 GMT-0500 (Central Daylight Time),775300.3000000119,A,a,O,a,1278,1,1285.199999988079,774015.1000000238,7103,WL,B,8.0
7,12.811999797821045,immed,47188.000202178955,Wed Apr 02 2025 12:03:29 GMT-0500 (Central Daylight Time),775448.7000000179,A,ar,O,r,109,1,1433.5999999940395,774015.1000000238,7103,WL,B,8.0
7,12.995999813079834,immed,47004.000186920166,Wed Apr 02 2025 12:03:29 GMT-0500 (Central Daylight Time),775631.8000000119,A,arm,O,m,153,1,1616.699999988079,774015.1000000238,7103,WL,B,8.0
7,13.277999877929688,immed,46722.00012207031,Wed Apr 02 2025 12:03:29 GMT-0500 (Central Daylight Time),775914.400000006,A,armenter,O,enter,258,1,1899.2999999821186,774015.1000000238,7103,WL,B,8.0
7,13.561999797821045,immed,46438.000202178955,Wed Apr 02 2025 12:03:29 GMT-0500 (Central Daylight Time),776198.400000006,A,s,O,s,275,1,283.7999999821186,775914.6000000238,7103,WL,B,9.0
7,13.694000005722046,immed,46305.999994277954,Wed Apr 02 2025 12:03:29 GMT-0500 (Central Daylight Time),776330.6000000238,A,sk,O,k,107,1,416.0,775914.6000000238,7103,WL,B,9.0
7,13.893999814987183,immed,46106.00018501282,Wed Apr 02 2025 12:03:29 GMT-0500 (Central Daylight Time),776530.5,A,ski,O,i,193,1,615.8999999761581,775914.6000000238,7103,WL,B,9.0
7,13.977999925613403,immed,46022.0000743866,Wed Apr 02 2025 12:03:29 GMT-0500 (Central Daylight Time),776614.0,A,skin,O,n,65,1,699.3999999761581,775914.6000000238,7103,WL,B,9.0
7,14.444000005722046,immed,45555.999994277954,Wed Apr 02 2025 12:03:29 GMT-0500 (Central Daylight Time),777080.5,A,skinenter,O,enter,445,1,1165.8999999761581,775914.6000000238,7103,WL,B,9.0
7,16.227999925613403,immed,43772.0000743866,Wed Apr 02 2025 12:03:29 GMT-0500 (Central Daylight Time),778864.3000000119,A,p,O,p,1771,1,1783.5,777080.8000000119,7103,WL,B,10.0
7,16.41100001335144,immed,43588.99998664856,Wed Apr 02 2025 12:03:29 GMT-0500 (Central Daylight Time),779047.8000000119,A,pi,O,i,149,1,1967.0,777080.8000000119,7103,WL,B,10.0
7,16.711999893188477,immed,43288.00010681152,Wed Apr 02 2025 12:03:29 GMT-0500 (Central Daylight Time),779347.900000006,A,pip,O,p,275,1,2267.0999999940395,777080.8000000119,7103,WL,B,10.0
7,17.060999870300293,immed,42939.00012969971,Wed Apr 02 2025 12:03:29 GMT-0500 (Central Daylight Time),779696.8000000119,A,pipe,O,e,323,1,2616.0,777080.8000000119,7103,WL,B,10.0
7,17.30999994277954,immed,42690.00005722046,Wed Apr 02 2025 12:03:29 GMT-0500 (Central Daylight Time),779946.2000000179,A,pipeenter,O,enter,227,1,2865.4000000059605,777080.8000000119,7103,WL,B,10.0
7,17.627999782562256,immed,42372.000217437744,Wed Apr 02 2025 12:03:29 GMT-0500 (Central Daylight Time),780263.900000006,A,p,O,p,307,1,317.40000000596046,779946.5,7103,WL,B,11.0
7,17.794999837875366,immed,42205.000162124634,Wed Apr 02 2025 12:03:29 GMT-0500 (Central Daylight Time),780430.400000006,A,pu,O,u,138,1,483.90000000596046,779946.5,7103,WL,B,11.0
7,18.777999877929688,immed,41222.00012207031,Wed Apr 02 2025 12:03:29 GMT-0500 (Central Daylight Time),781413.3000000119,A,pup,O,p,948,1,1466.800000011921,779946.5,7103,WL,B,11.0
7,18.977999925613403,immed,41022.0000743866,Wed Apr 02 2025 12:03:29 GMT-0500 (Central Daylight Time),781613.3000000119,A,pupi,O,i,167,1,1666.800000011921,779946.5,7103,WL,B,11.0
7,19.194999933242798,immed,40805.0000667572,Wed Apr 02 2025 12:03:29 GMT-0500 (Central Daylight Time),781830.1000000238,A,pupil,O,l,182,1,1883.6000000238419,779946.5,7103,WL,B,11.0
7,19.5939998626709,immed,40406.0001373291,Wed Apr 02 2025 12:03:29 GMT-0500 (Central Daylight Time),782228.8000000119,A,pupilenter,O,enter,364,1,2282.300000011921,779946.5,7103,WL,B,11.0
7,32.139999866485596,immed,27860.000133514404,Wed Apr 02 2025 12:03:29 GMT-0500 (Central Daylight Time),794775.8000000119,A,d,O,d,12537,1,12546.59999999404,782229.2000000179,7103,WL,B,12.0
7,32.389999866485596,immed,27610.000133514404,Wed Apr 02 2025 12:03:29 GMT-0500 (Central Daylight Time),795025.900000006,A,do,O,o,209,1,12796.699999988079,782229.2000000179,7103,WL,B,12.0
7,32.53999996185303,immed,27460.000038146973,Wed Apr 02 2025 12:03:29 GMT-0500 (Central Daylight Time),795175.6000000238,A,doo,O,o,119,1,12946.40000000596,782229.2000000179,7103,WL,B,12.0
7,32.6729998588562,immed,27327.0001411438,Wed Apr 02 2025 12:03:29 GMT-0500 (Central Daylight Time),795308.6000000238,A,door,O,r,97,1,13079.40000000596,782229.2000000179,7103,WL,B,12.0
7,32.83899998664856,immed,27161.00001335144,Wed Apr 02 2025 12:03:29 GMT-0500 (Central Daylight Time),795474.2000000179,A,doorenter,O,enter,141,1,13245.0,782229.2000000179,7103,WL,B,12.0
7,33.056999921798706,immed,26943.000078201294,Wed Apr 02 2025 12:03:29 GMT-0500 (Central Daylight Time),795692.2000000179,A,c,O,c,210,1,217.7000000178814,795474.5,7103,WL,B,13.0
7,33.20700001716614,immed,26792.999982833862,Wed Apr 02 2025 12:03:29 GMT-0500 (Central Daylight Time),795842.0,A,cl,O,l,112,1,367.5,795474.5,7103,WL,B,13.0
7,33.45599985122681,immed,26544.000148773193,Wed Apr 02 2025 12:03:29 GMT-0500 (Central Daylight Time),796091.8000000119,A,clo,O,o,210,1,617.3000000119209,795474.5,7103,WL,B,13.0
7,33.60699987411499,immed,26393.00012588501,Wed Apr 02 2025 12:03:29 GMT-0500 (Central Daylight Time),796242.0,A,cloc,O,c,110,1,767.5,795474.5,7103,WL,B,13.0
7,34.00599980354309,immed,25994.00019645691,Wed Apr 02 2025 12:03:29 GMT-0500 (Central Daylight Time),796641.8000000119,A,clock,O,k,360,1,1167.300000011921,795474.5,7103,WL,B,13.0
7,34.33799982070923,immed,25662.00017929077,Wed Apr 02 2025 12:03:29 GMT-0500 (Central Daylight Time),796973.900000006,A,clockenter,O,enter,296,1,1499.4000000059605,795474.5,7103,WL,B,13.0
7,35.25499987602234,immed,24745.00012397766,Wed Apr 02 2025 12:03:29 GMT-0500 (Central Daylight Time),797890.3000000119,A,enter,O,enter,902,1,916.1999999880791,796974.1000000238,7103,WL,B,14.0
7,36.770999908447266,immed,23229.000091552734,Wed Apr 02 2025 12:03:29 GMT-0500 (Central Daylight Time),799406.5,A,enter,O,enter,1505,1,1515.8999999761581,797890.6000000238,7103,WL,B,15.0
