acc_sum,block,block_c,change,condition,correct,correct_response,datetime,endtime,face,project,response,response_time,row_sel,session_number,start_end,starttime,subject_id,task,task_vers,trial
0,prac,1,,1-Back,,,Fri Feb 14 2025 13:09:39 GMT-0600 (Central Standard Time),,093_m_f_n_a.png,O,space,18670,1,1,,,7057,NNB,C,0
0,prac,1,0.0,1-Back,0,m,Fri Feb 14 2025 13:09:39 GMT-0600 (Central Standard Time),180449.89999997616,098_y_f_n_a.png,O,None,2004,2,1,2862.600000023842,177587.29999995232,7057,NNB,C,1
0,prac,1,1.0,1-Back,0,z,Fri Feb 14 2025 13:09:39 GMT-0600 (Central Standard Time),183233.89999997616,098_y_f_n_a.png,O,None,2003,3,1,2772.600000023842,180461.29999995232,7057,NNB,C,2
1,prac,1,0.0,1-Back,1,m,Fri Feb 14 2025 13:09:39 GMT-0600 (Central Standard Time),185016.10000002384,059_o_m_n_a.png,O,m,903,4,1,1773.6000000238419,183242.5,7057,NNB,C,3
2,prac,1,0.0,1-Back,1,m,Fri Feb 14 2025 13:09:39 GMT-0600 (Central Standard Time),186947.89999997616,092_m_m_n_a.png,O,m,1064,5,1,1921.5,185026.39999997616,7057,NNB,C,4
3,prac,1,1.0,1-Back,1,z,Fri Feb 14 2025 13:09:39 GMT-0600 (Central Standard Time),188963.89999997616,092_m_m_n_a.png,O,z,1236,6,1,2006.6000000238419,186957.29999995232,7057,NNB,C,5
4,prac,1,0.0,1-Back,1,m,Fri Feb 14 2025 13:09:39 GMT-0600 (Central Standard Time),190696.89999997616,130_o_f_n_a.png,O,m,836,7,1,1724.6000000238419,188972.29999995232,7057,NNB,C,6
5,prac,1,0.0,1-Back,1,m,Fri Feb 14 2025 13:09:39 GMT-0600 (Central Standard Time),192464.10000002384,082_m_m_n_a.png,O,m,886,8,1,1757.0,190707.10000002384,7057,NNB,C,7
6,prac,1,0.0,1-Back,1,m,Fri Feb 14 2025 13:09:39 GMT-0600 (Central Standard Time),194047.19999992847,093_m_f_n_a.png,O,m,790,9,1,1572.7999999523163,192474.39999997616,7057,NNB,C,8
7,prac,1,1.0,1-Back,1,z,Fri Feb 14 2025 13:09:39 GMT-0600 (Central Standard Time),195661.79999995232,093_m_f_n_a.png,O,z,833,10,1,1605.8999999761581,194055.89999997616,7057,NNB,C,9
8,prac,1,0.0,1-Back,1,m,Fri Feb 14 2025 13:09:39 GMT-0600 (Central Standard Time),196978.89999997616,059_o_m_n_a.png,O,m,540,11,1,1307.2999999523163,195671.60000002384,7057,NNB,C,10
9,prac,1,0.0,1-Back,1,m,Fri Feb 14 2025 13:09:39 GMT-0600 (Central Standard Time),198396.29999995232,028_y_f_n_a.png,O,m,554,12,1,1409.7999999523163,196986.5,7057,NNB,C,11
0,test,1,0.0,1-Back,,,Fri Feb 14 2025 13:09:39 GMT-0600 (Central Standard Time),198396.29999995232,098_y_f_n_a.png,O,space,21430,1,1,1409.7999999523163,196986.5,7057,NNB,C,0
1,test,1,0.0,1-Back,1,m,Fri Feb 14 2025 13:09:39 GMT-0600 (Central Standard Time),233833.0,006_m_f_n_a.png,O,m,1848,2,1,2875.100000023842,230957.89999997616,7057,NNB,C,1
2,test,1,0.0,1-Back,1,m,Fri Feb 14 2025 13:09:39 GMT-0600 (Central Standard Time),236801.0,028_y_f_n_a.png,O,m,1933,3,1,2960.399999976158,233840.60000002384,7057,NNB,C,2
3,test,1,1.0,1-Back,1,z,Fri Feb 14 2025 13:09:39 GMT-0600 (Central Standard Time),238631.0,028_y_f_n_a.png,O,z,800,4,1,1822.3999999761581,236808.60000002384,7057,NNB,C,3
4,test,1,0.0,1-Back,1,m,Fri Feb 14 2025 13:09:39 GMT-0600 (Central Standard Time),240731.0,006_m_f_n_a.png,O,m,1080,5,1,2092.399999976158,238638.60000002384,7057,NNB,C,4
5,test,1,0.0,1-Back,1,m,Fri Feb 14 2025 13:09:39 GMT-0600 (Central Standard Time),242530.5,059_o_m_n_a.png,O,m,774,6,1,1791.2000000476837,240739.29999995232,7057,NNB,C,5
6,test,1,1.0,1-Back,1,z,Fri Feb 14 2025 13:09:39 GMT-0600 (Central Standard Time),244229.29999995232,059_o_m_n_a.png,O,z,677,7,1,1693.1999999284744,242536.10000002384,7057,NNB,C,6
7,test,1,0.0,1-Back,1,m,Fri Feb 14 2025 13:09:39 GMT-0600 (Central Standard Time),245895.79999995232,092_m_m_n_a.png,O,m,641,8,1,1658.2999999523163,244237.5,7057,NNB,C,7
8,test,1,0.0,1-Back,1,m,Fri Feb 14 2025 13:09:39 GMT-0600 (Central Standard Time),247596.29999995232,130_o_f_n_a.png,O,m,680,9,1,1693.1999999284744,245903.10000002384,7057,NNB,C,8
9,test,1,0.0,1-Back,1,m,Fri Feb 14 2025 13:09:39 GMT-0600 (Central Standard Time),250077.39999997616,092_m_m_n_a.png,O,m,1431,10,1,2472.7000000476837,247604.69999992847,7057,NNB,C,9
10,test,1,0.0,1-Back,1,m,Fri Feb 14 2025 13:09:39 GMT-0600 (Central Standard Time),251943.0,057_y_m_n_a.png,O,m,834,11,1,1857.3000000715256,250085.69999992847,7057,NNB,C,10
11,test,1,1.0,1-Back,1,z,Fri Feb 14 2025 13:09:39 GMT-0600 (Central Standard Time),253611.10000002384,057_y_m_n_a.png,O,z,647,12,1,1660.4000000953674,251950.69999992847,7057,NNB,C,11
12,test,1,0.0,1-Back,1,m,Fri Feb 14 2025 13:09:39 GMT-0600 (Central Standard Time),255226.89999997616,030_o_f_n_a.png,O,m,597,13,1,1608.2000000476837,253618.69999992847,7057,NNB,C,12
13,test,1,1.0,1-Back,1,z,Fri Feb 14 2025 13:09:39 GMT-0600 (Central Standard Time),256875.69999992847,030_o_f_n_a.png,O,z,620,14,1,1641.0,255234.69999992847,7057,NNB,C,13
14,test,1,0.0,1-Back,1,m,Fri Feb 14 2025 13:09:39 GMT-0600 (Central Standard Time),258443.79999995232,031_y_m_n_a.png,O,m,548,15,1,1561.2999999523163,256882.5,7057,NNB,C,14
15,test,1,0.0,1-Back,1,m,Fri Feb 14 2025 13:09:39 GMT-0600 (Central Standard Time),260124.10000002384,093_m_f_n_a.png,O,m,661,16,1,1672.4000000953674,258451.69999992847,7057,NNB,C,15
16,test,1,0.0,1-Back,1,m,Fri Feb 14 2025 13:09:39 GMT-0600 (Central Standard Time),261874.69999992847,146_o_m_n_a.png,O,m,723,17,1,1741.7999999523163,260132.89999997616,7057,NNB,C,16
17,test,1,0.0,1-Back,1,m,Fri Feb 14 2025 13:09:39 GMT-0600 (Central Standard Time),263555.7999999523,093_m_f_n_a.png,O,m,651,18,1,1674.2999999523163,261881.5,7057,NNB,C,17
0,test,2,0.0,1-Back,,,Fri Feb 14 2025 13:09:39 GMT-0600 (Central Standard Time),263555.7999999523,092_m_m_n_a.png,O,space,2784,1,1,1674.2999999523163,261881.5,7057,NNB,C,0
1,test,2,0.0,1-Back,1,m,Fri Feb 14 2025 13:09:39 GMT-0600 (Central Standard Time),269923.60000002384,006_m_f_n_a.png,O,m,549,2,1,1557.1000000238419,268366.5,7057,NNB,C,1
1,test,2,1.0,1-Back,0,z,Fri Feb 14 2025 13:09:39 GMT-0600 (Central Standard Time),272070.39999997616,006_m_f_n_a.png,O,m,1116,3,1,2140.100000023842,269930.2999999523,7057,NNB,C,2
2,test,2,0.0,1-Back,1,m,Fri Feb 14 2025 13:09:39 GMT-0600 (Central Standard Time),274120.7999999523,092_m_m_n_a.png,O,m,1016,4,1,2044.1000000238419,272076.6999999285,7057,NNB,C,3
3,test,2,0.0,1-Back,1,m,Fri Feb 14 2025 13:09:39 GMT-0600 (Central Standard Time),276004.2999999523,057_y_m_n_a.png,O,m,858,5,1,1875.8999999761581,274128.39999997616,7057,NNB,C,4
4,test,2,0.0,1-Back,1,m,Fri Feb 14 2025 13:09:39 GMT-0600 (Central Standard Time),277885.2999999523,098_y_f_n_a.png,O,m,852,6,1,1873.6000000238419,276011.6999999285,7057,NNB,C,5
5,test,2,1.0,1-Back,1,z,Fri Feb 14 2025 13:09:39 GMT-0600 (Central Standard Time),279602.39999997616,098_y_f_n_a.png,O,z,680,7,1,1710.5,277891.89999997616,7057,NNB,C,6
6,test,2,0.0,1-Back,1,m,Fri Feb 14 2025 13:09:39 GMT-0600 (Central Standard Time),281218.6999999285,057_y_m_n_a.png,O,m,590,8,1,1608.3999999761581,279610.2999999523,7057,NNB,C,7
7,test,2,0.0,1-Back,1,m,Fri Feb 14 2025 13:09:39 GMT-0600 (Central Standard Time),282869.60000002384,030_o_f_n_a.png,O,m,622,9,1,1644.7000000476837,281224.89999997616,7057,NNB,C,8
8,test,2,0.0,1-Back,1,m,Fri Feb 14 2025 13:09:39 GMT-0600 (Central Standard Time),285051.89999997616,082_m_m_n_a.png,O,m,1163,10,1,2175.5,282876.39999997616,7057,NNB,C,9
9,test,2,1.0,1-Back,1,z,Fri Feb 14 2025 13:09:39 GMT-0600 (Central Standard Time),286770.10000002384,082_m_m_n_a.png,O,z,683,11,1,1711.9000000953674,285058.1999999285,7057,NNB,C,10
10,test,2,0.0,1-Back,1,m,Fri Feb 14 2025 13:09:39 GMT-0600 (Central Standard Time),288649.1999999285,030_o_f_n_a.png,O,m,856,12,1,1876.3999999761581,286772.7999999523,7057,NNB,C,11
11,test,2,0.0,1-Back,1,m,Fri Feb 14 2025 13:09:39 GMT-0600 (Central Standard Time),290348.39999997616,130_o_f_n_a.png,O,m,670,13,1,1692.8999999761581,288655.5,7057,NNB,C,12
12,test,2,0.0,1-Back,1,m,Fri Feb 14 2025 13:09:39 GMT-0600 (Central Standard Time),292065.0,059_o_m_n_a.png,O,m,691,14,1,1708.8999999761581,290356.10000002384,7057,NNB,C,13
13,test,2,0.0,1-Back,1,m,Fri Feb 14 2025 13:09:39 GMT-0600 (Central Standard Time),293713.89999997616,146_o_m_n_a.png,O,m,622,15,1,1642.2000000476837,292071.6999999285,7057,NNB,C,14
14,test,2,1.0,1-Back,1,z,Fri Feb 14 2025 13:09:39 GMT-0600 (Central Standard Time),295530.60000002384,146_o_m_n_a.png,O,z,790,16,1,1810.4000000953674,293720.1999999285,7057,NNB,C,15
15,test,2,0.0,1-Back,1,m,Fri Feb 14 2025 13:09:39 GMT-0600 (Central Standard Time),297346.60000002384,031_y_m_n_a.png,O,m,794,17,1,1808.5,295538.10000002384,7057,NNB,C,16
15,test,2,1.0,1-Back,0,z,Fri Feb 14 2025 13:09:39 GMT-0600 (Central Standard Time),299495.60000002384,031_y_m_n_a.png,O,m,1124,18,1,2143.2000000476837,297352.39999997616,7057,NNB,C,17
0,test,3,1.0,1-Back,,,Fri Feb 14 2025 13:09:39 GMT-0600 (Central Standard Time),299495.60000002384,028_y_f_n_a.png,O,space,3732,1,1,2143.2000000476837,297352.39999997616,7057,NNB,C,0
1,test,3,0.0,1-Back,1,m,Fri Feb 14 2025 13:09:39 GMT-0600 (Central Standard Time),306926.5,146_o_m_n_a.png,O,m,559,1,1,1575.5,305351.0,7057,NNB,C,1
2,test,3,1.0,1-Back,1,z,Fri Feb 14 2025 13:09:39 GMT-0600 (Central Standard Time),308741.6999999285,146_o_m_n_a.png,O,z,792,1,1,1807.0999999046326,306934.60000002384,7057,NNB,C,2
3,test,3,0.0,1-Back,1,m,Fri Feb 14 2025 13:09:39 GMT-0600 (Central Standard Time),310494.5,093_m_f_n_a.png,O,m,716,1,1,1746.8999999761581,308747.60000002384,7057,NNB,C,3
4,test,3,1.0,1-Back,1,z,Fri Feb 14 2025 13:09:39 GMT-0600 (Central Standard Time),313224.5,093_m_f_n_a.png,O,z,1707,1,1,2726.0,310498.5,7057,NNB,C,4
5,test,3,0.0,1-Back,1,m,Fri Feb 14 2025 13:09:39 GMT-0600 (Central Standard Time),314876.1999999285,030_o_f_n_a.png,O,m,630,1,1,1643.5,313232.6999999285,7057,NNB,C,5
6,test,3,0.0,1-Back,1,m,Fri Feb 14 2025 13:09:39 GMT-0600 (Central Standard Time),316522.89999997616,057_y_m_n_a.png,O,m,614,1,1,1642.3999999761581,314880.5,7057,NNB,C,6
6,test,3,0.0,1-Back,0,m,Fri Feb 14 2025 13:09:39 GMT-0600 (Central Standard Time),318389.1999999285,030_o_f_n_a.png,O,z,835,1,1,1860.5999999046326,316528.60000002384,7057,NNB,C,7
7,test,3,0.0,1-Back,1,m,Fri Feb 14 2025 13:09:39 GMT-0600 (Central Standard Time),320089.1999999285,031_y_m_n_a.png,O,m,667,1,1,1693.0999999046326,318396.10000002384,7057,NNB,C,8
8,test,3,1.0,1-Back,1,z,Fri Feb 14 2025 13:09:39 GMT-0600 (Central Standard Time),322638.1999999285,031_y_m_n_a.png,O,z,1518,1,1,2542.5999999046326,320095.60000002384,7057,NNB,C,9
9,test,3,0.0,1-Back,1,m,Fri Feb 14 2025 13:09:39 GMT-0600 (Central Standard Time),324420.60000002384,006_m_f_n_a.png,O,m,753,1,1,1775.0,322645.60000002384,7057,NNB,C,10
10,test,3,0.0,1-Back,1,m,Fri Feb 14 2025 13:09:39 GMT-0600 (Central Standard Time),326020.2999999523,098_y_f_n_a.png,O,m,570,1,1,1591.6000000238419,324428.6999999285,7057,NNB,C,11
11,test,3,1.0,1-Back,1,z,Fri Feb 14 2025 13:09:39 GMT-0600 (Central Standard Time),327768.5,098_y_f_n_a.png,O,z,716,1,1,1740.8999999761581,326027.60000002384,7057,NNB,C,12
12,test,3,0.0,1-Back,1,m,Fri Feb 14 2025 13:09:39 GMT-0600 (Central Standard Time),329437.1999999285,006_m_f_n_a.png,O,m,650,1,1,1662.0999999046326,327775.10000002384,7057,NNB,C,13
13,test,3,0.0,1-Back,1,m,Fri Feb 14 2025 13:09:39 GMT-0600 (Central Standard Time),331101.6999999285,092_m_m_n_a.png,O,m,642,1,1,1657.1999999284744,329444.5,7057,NNB,C,14
13,test,3,1.0,1-Back,0,z,Fri Feb 14 2025 13:09:39 GMT-0600 (Central Standard Time),333469.10000002384,092_m_m_n_a.png,O,m,1337,1,1,2360.100000023842,331109.0,7057,NNB,C,15
14,test,3,0.0,1-Back,1,m,Fri Feb 14 2025 13:09:39 GMT-0600 (Central Standard Time),335167.0,130_o_f_n_a.png,O,m,674,1,1,1691.8999999761581,333475.10000002384,7057,NNB,C,16
14,test,3,1.0,1-Back,0,z,Fri Feb 14 2025 13:09:39 GMT-0600 (Central Standard Time),338201.7999999523,130_o_f_n_a.png,O,None,2015,1,1,3028.0,335173.7999999523,7057,NNB,C,17
0,test,4,1.0,1-Back,,,Fri Feb 14 2025 13:09:39 GMT-0600 (Central Standard Time),338201.7999999523,093_m_f_n_a.png,O,space,9576,1,1,3028.0,335173.7999999523,7057,NNB,C,0
1,test,4,0.0,1-Back,1,m,Fri Feb 14 2025 13:09:39 GMT-0600 (Central Standard Time),351828.0,146_o_m_n_a.png,O,m,929,2,1,1941.3999999761581,349886.60000002384,7057,NNB,C,1
1,test,4,0.0,1-Back,0,m,Fri Feb 14 2025 13:09:39 GMT-0600 (Central Standard Time),354862.1999999285,093_m_f_n_a.png,O,None,2015,3,1,3027.1999999284744,351835.0,7057,NNB,C,2
2,test,4,0.0,1-Back,1,m,Fri Feb 14 2025 13:09:39 GMT-0600 (Central Standard Time),356811.1999999285,030_o_f_n_a.png,O,m,922,4,1,1941.5999999046326,354869.60000002384,7057,NNB,C,3
3,test,4,1.0,1-Back,1,z,Fri Feb 14 2025 13:09:39 GMT-0600 (Central Standard Time),358594.39999997616,030_o_f_n_a.png,O,z,749,5,1,1776.3999999761581,356818.0,7057,NNB,C,4
4,test,4,0.0,1-Back,1,m,Fri Feb 14 2025 13:09:39 GMT-0600 (Central Standard Time),360326.7999999523,098_y_f_n_a.png,O,m,710,6,1,1725.5,358601.2999999523,7057,NNB,C,5
5,test,4,0.0,1-Back,1,m,Fri Feb 14 2025 13:09:39 GMT-0600 (Central Standard Time),362209.6999999285,057_y_m_n_a.png,O,m,857,7,1,1875.0,360334.6999999285,7057,NNB,C,6
6,test,4,1.0,1-Back,1,z,Fri Feb 14 2025 13:09:39 GMT-0600 (Central Standard Time),363908.39999997616,057_y_m_n_a.png,O,z,670,8,1,1692.5,362215.89999997616,7057,NNB,C,7
7,test,4,0.0,1-Back,1,m,Fri Feb 14 2025 13:09:39 GMT-0600 (Central Standard Time),365574.6999999285,098_y_f_n_a.png,O,m,644,9,1,1660.0,363914.6999999285,7057,NNB,C,8
8,test,4,0.0,1-Back,1,m,Fri Feb 14 2025 13:09:39 GMT-0600 (Central Standard Time),367357.7999999523,082_m_m_n_a.png,O,m,754,10,1,1775.5,365582.2999999523,7057,NNB,C,9
9,test,4,1.0,1-Back,1,z,Fri Feb 14 2025 13:09:39 GMT-0600 (Central Standard Time),369407.10000002384,082_m_m_n_a.png,O,z,1027,11,1,2041.4000000953674,367365.6999999285,7057,NNB,C,10
10,test,4,0.0,1-Back,1,m,Fri Feb 14 2025 13:09:39 GMT-0600 (Central Standard Time),371172.89999997616,130_o_f_n_a.png,O,m,747,12,1,1758.6000000238419,369414.2999999523,7057,NNB,C,11
11,test,4,0.0,1-Back,1,m,Fri Feb 14 2025 13:09:39 GMT-0600 (Central Standard Time),372822.39999997616,059_o_m_n_a.png,O,m,628,13,1,1643.2000000476837,371179.1999999285,7057,NNB,C,12
12,test,4,0.0,1-Back,1,m,Fri Feb 14 2025 13:09:39 GMT-0600 (Central Standard Time),374937.10000002384,130_o_f_n_a.png,O,m,1090,14,1,2106.600000023842,372830.5,7057,NNB,C,13
13,test,4,0.0,1-Back,1,m,Fri Feb 14 2025 13:09:39 GMT-0600 (Central Standard Time),376755.6999999285,028_y_f_n_a.png,O,m,798,15,1,1811.8999999761581,374943.7999999523,7057,NNB,C,14
14,test,4,1.0,1-Back,1,z,Fri Feb 14 2025 13:09:39 GMT-0600 (Central Standard Time),378454.0,028_y_f_n_a.png,O,z,680,16,1,1691.5,376762.5,7057,NNB,C,15
15,test,4,0.0,1-Back,1,m,Fri Feb 14 2025 13:09:39 GMT-0600 (Central Standard Time),380252.89999997616,006_m_f_n_a.png,O,m,771,17,1,1791.5,378461.39999997616,7057,NNB,C,16
15,test,4,1.0,1-Back,0,z,Fri Feb 14 2025 13:09:39 GMT-0600 (Central Standard Time),382620.0,006_m_f_n_a.png,O,m,1315,18,1,2359.899999976158,380260.10000002384,7057,NNB,C,17
0,test,5,1.0,1-Back,,,Fri Feb 14 2025 13:09:39 GMT-0600 (Central Standard Time),382620.0,059_o_m_n_a.png,O,space,7030,1,1,2359.899999976158,380260.10000002384,7057,NNB,C,0
1,test,5,1.0,1-Back,1,z,Fri Feb 14 2025 13:09:39 GMT-0600 (Central Standard Time),393516.6999999285,059_o_m_n_a.png,O,z,830,2,1,1842.5999999046326,391674.10000002384,7057,NNB,C,1
2,test,5,0.0,1-Back,1,m,Fri Feb 14 2025 13:09:39 GMT-0600 (Central Standard Time),395266.1999999285,098_y_f_n_a.png,O,m,713,3,1,1745.1999999284744,393521.0,7057,NNB,C,2
3,test,5,0.0,1-Back,1,m,Fri Feb 14 2025 13:09:39 GMT-0600 (Central Standard Time),397082.7999999523,057_y_m_n_a.png,O,m,796,4,1,1813.2999999523163,395269.5,7057,NNB,C,3
4,test,5,0.0,1-Back,1,m,Fri Feb 14 2025 13:09:39 GMT-0600 (Central Standard Time),399663.89999997616,098_y_f_n_a.png,O,m,1556,5,1,2574.600000023842,397089.2999999523,7057,NNB,C,4
5,test,5,0.0,1-Back,1,m,Fri Feb 14 2025 13:09:39 GMT-0600 (Central Standard Time),401629.39999997616,092_m_m_n_a.png,O,m,944,6,1,1958.5,399670.89999997616,7057,NNB,C,5
6,test,5,1.0,1-Back,1,z,Fri Feb 14 2025 13:09:39 GMT-0600 (Central Standard Time),403295.89999997616,092_m_m_n_a.png,O,z,641,7,1,1657.5,401638.39999997616,7057,NNB,C,6
7,test,5,0.0,1-Back,1,m,Fri Feb 14 2025 13:09:39 GMT-0600 (Central Standard Time),405244.60000002384,028_y_f_n_a.png,O,m,929,8,1,1941.0,403303.60000002384,7057,NNB,C,7
8,test,5,0.0,1-Back,1,m,Fri Feb 14 2025 13:09:39 GMT-0600 (Central Standard Time),407111.10000002384,031_y_m_n_a.png,O,m,840,9,1,1858.9000000953674,405252.1999999285,7057,NNB,C,8
9,test,5,0.0,1-Back,1,m,Fri Feb 14 2025 13:09:39 GMT-0600 (Central Standard Time),408876.5,028_y_f_n_a.png,O,m,735,10,1,1758.2000000476837,407118.2999999523,7057,NNB,C,9
10,test,5,0.0,1-Back,1,m,Fri Feb 14 2025 13:09:39 GMT-0600 (Central Standard Time),410446.10000002384,130_o_f_n_a.png,O,m,546,11,1,1562.0,408884.10000002384,7057,NNB,C,10
11,test,5,1.0,1-Back,1,z,Fri Feb 14 2025 13:09:39 GMT-0600 (Central Standard Time),412210.89999997616,130_o_f_n_a.png,O,z,739,12,1,1758.6000000238419,410452.2999999523,7057,NNB,C,11
12,test,5,0.0,1-Back,1,m,Fri Feb 14 2025 13:09:39 GMT-0600 (Central Standard Time),414325.6999999285,146_o_m_n_a.png,O,m,1084,13,1,2108.6999999284744,412217.0,7057,NNB,C,12
13,test,5,0.0,1-Back,1,m,Fri Feb 14 2025 13:09:39 GMT-0600 (Central Standard Time),416158.39999997616,093_m_f_n_a.png,O,m,807,14,1,1825.7000000476837,414332.6999999285,7057,NNB,C,13
14,test,5,1.0,1-Back,1,z,Fri Feb 14 2025 13:09:39 GMT-0600 (Central Standard Time),417674.89999997616,093_m_f_n_a.png,O,z,489,15,1,1508.3999999761581,416166.5,7057,NNB,C,14
15,test,5,0.0,1-Back,1,m,Fri Feb 14 2025 13:09:39 GMT-0600 (Central Standard Time),419407.1999999285,146_o_m_n_a.png,O,m,700,16,1,1725.1999999284744,417682.0,7057,NNB,C,15
16,test,5,0.0,1-Back,1,m,Fri Feb 14 2025 13:09:39 GMT-0600 (Central Standard Time),421292.0,006_m_f_n_a.png,O,m,866,17,1,1878.3000000715256,419413.6999999285,7057,NNB,C,16
17,test,5,0.0,1-Back,1,m,Fri Feb 14 2025 13:09:39 GMT-0600 (Central Standard Time),422973.10000002384,082_m_m_n_a.png,O,m,661,18,1,1672.9000000953674,421300.1999999285,7057,NNB,C,17
0,prac,1,0.0,2-Back,,,Fri Feb 14 2025 13:09:39 GMT-0600 (Central Standard Time),422973.10000002384,031_y_m_n_a.png,O,space,12313,1,1,1672.9000000953674,421300.1999999285,7057,NNB,C,0
0,prac,1,0.0,2-Back,,,Fri Feb 14 2025 13:09:39 GMT-0600 (Central Standard Time),422973.10000002384,006_m_f_n_a.png,O,space,12313,2,1,1672.9000000953674,421300.1999999285,7057,NNB,C,0
0,prac,1,1.0,2-Back,0,m,Fri Feb 14 2025 13:09:39 GMT-0600 (Central Standard Time),588388.0,146_o_m_n_a.png,O,None,2005,3,1,2875.399999976158,585512.6000000238,7057,NNB,C,1
1,prac,1,0.0,2-Back,1,m,Fri Feb 14 2025 13:09:39 GMT-0600 (Central Standard Time),591170.0,130_o_f_n_a.png,O,m,1882,4,1,2773.399999976158,588396.6000000238,7057,NNB,C,2
1,prac,1,0.0,2-Back,0,z,Fri Feb 14 2025 13:09:39 GMT-0600 (Central Standard Time),593952.2999999523,146_o_m_n_a.png,O,None,2005,5,1,2773.600000023842,591178.6999999285,7057,NNB,C,3
1,prac,1,1.0,2-Back,0,z,Fri Feb 14 2025 13:09:39 GMT-0600 (Central Standard Time),596135.2999999523,130_o_f_n_a.png,O,m,1402,6,1,2176.399999976158,593958.8999999762,7057,NNB,C,4
2,prac,1,0.0,2-Back,1,m,Fri Feb 14 2025 13:09:39 GMT-0600 (Central Standard Time),598401.6999999285,082_m_m_n_a.png,O,m,1388,7,1,2258.7999999523163,596142.8999999762,7057,NNB,C,5
3,prac,1,0.0,2-Back,1,m,Fri Feb 14 2025 13:09:39 GMT-0600 (Central Standard Time),600365.8999999762,059_o_m_n_a.png,O,m,1086,8,1,1955.7999999523163,598410.1000000238,7057,NNB,C,6
4,prac,1,0.0,2-Back,1,m,Fri Feb 14 2025 13:09:39 GMT-0600 (Central Standard Time),602283.6999999285,028_y_f_n_a.png,O,m,1037,9,1,1909.6999999284744,600374.0,7057,NNB,C,7
4,prac,1,1.0,2-Back,0,z,Fri Feb 14 2025 13:09:39 GMT-0600 (Central Standard Time),604683.0,059_o_m_n_a.png,O,m,1623,10,1,2390.8000000715256,602292.1999999285,7057,NNB,C,8
5,prac,1,0.0,2-Back,1,m,Fri Feb 14 2025 13:09:39 GMT-0600 (Central Standard Time),606532.7999999523,098_y_f_n_a.png,O,m,979,11,1,1840.1999999284744,604692.6000000238,7057,NNB,C,9
6,prac,1,0.0,2-Back,1,m,Fri Feb 14 2025 13:09:39 GMT-0600 (Central Standard Time),608331.8999999762,082_m_m_n_a.png,O,m,1013,12,1,1791.2000000476837,606540.6999999285,7057,NNB,C,10
0,prac,2,0.0,2-Back,,,Fri Feb 14 2025 13:09:39 GMT-0600 (Central Standard Time),608331.8999999762,031_y_m_n_a.png,O,a,9680,1,1,1791.2000000476837,606540.6999999285,7057,NNB,C,0
0,prac,2,0.0,2-Back,,,Fri Feb 14 2025 13:09:39 GMT-0600 (Central Standard Time),608331.8999999762,006_m_f_n_a.png,O,a,9680,2,1,1791.2000000476837,606540.6999999285,7057,NNB,C,0
0,prac,2,1.0,2-Back,0,m,Fri Feb 14 2025 13:09:39 GMT-0600 (Central Standard Time),626159.6000000238,146_o_m_n_a.png,O,None,2013,3,1,2876.3000000715256,623283.2999999523,7057,NNB,C,1
1,prac,2,0.0,2-Back,1,m,Fri Feb 14 2025 13:09:39 GMT-0600 (Central Standard Time),628490.7999999523,130_o_f_n_a.png,O,m,1444,4,1,2322.2999999523163,626168.5,7057,NNB,C,2
1,prac,2,0.0,2-Back,0,z,Fri Feb 14 2025 13:09:39 GMT-0600 (Central Standard Time),630506.6999999285,146_o_m_n_a.png,O,m,1255,5,1,2008.5,628498.1999999285,7057,NNB,C,3
1,prac,2,1.0,2-Back,0,z,Fri Feb 14 2025 13:09:39 GMT-0600 (Central Standard Time),632539.8999999762,130_o_f_n_a.png,O,m,1270,6,1,2025.6000000238419,630514.2999999523,7057,NNB,C,4
1,prac,2,0.0,2-Back,0,m,Fri Feb 14 2025 13:09:39 GMT-0600 (Central Standard Time),635324.1999999285,082_m_m_n_a.png,O,None,2008,7,1,2775.5,632548.6999999285,7057,NNB,C,5
1,prac,2,0.0,2-Back,0,m,Fri Feb 14 2025 13:09:39 GMT-0600 (Central Standard Time),638088.5,059_o_m_n_a.png,O,z,1883,8,1,2755.899999976158,635332.6000000238,7057,NNB,C,6
2,prac,2,0.0,2-Back,1,m,Fri Feb 14 2025 13:09:39 GMT-0600 (Central Standard Time),639818.6999999285,028_y_f_n_a.png,O,m,857,9,1,1722.2999999523163,638096.3999999762,7057,NNB,C,7
3,prac,2,1.0,2-Back,1,z,Fri Feb 14 2025 13:09:39 GMT-0600 (Central Standard Time),641871.2999999523,059_o_m_n_a.png,O,z,1270,10,1,2043.5,639827.7999999523,7057,NNB,C,8
3,prac,2,0.0,2-Back,0,m,Fri Feb 14 2025 13:09:39 GMT-0600 (Central Standard Time),643836.3999999762,098_y_f_n_a.png,O,z,1092,11,1,1960.7999999523163,641875.6000000238,7057,NNB,C,9
4,prac,2,0.0,2-Back,1,m,Fri Feb 14 2025 13:09:39 GMT-0600 (Central Standard Time),645971.0,082_m_m_n_a.png,O,m,1359,12,1,2127.5,643843.5,7057,NNB,C,10
0,test,1,0.0,2-Back,,,Fri Feb 14 2025 13:09:39 GMT-0600 (Central Standard Time),645971.0,057_y_m_n_a.png,O,space,21542,1,1,2127.5,643843.5,7057,NNB,C,0
0,test,1,0.0,2-Back,,,Fri Feb 14 2025 13:09:39 GMT-0600 (Central Standard Time),645971.0,057_y_m_n_a.png,O,space,21542,2,1,2127.5,643843.5,7057,NNB,C,0
1,test,1,0.0,2-Back,1,m,Fri Feb 14 2025 13:09:39 GMT-0600 (Central Standard Time),683757.1999999285,130_o_f_n_a.png,O,m,1820,3,1,2841.7999999523163,680915.3999999762,7057,NNB,C,1
2,test,1,0.0,2-Back,1,m,Fri Feb 14 2025 13:09:39 GMT-0600 (Central Standard Time),685906.5,092_m_m_n_a.png,O,m,1123,4,1,2142.2000000476837,683764.2999999523,7057,NNB,C,2
3,test,1,1.0,2-Back,1,z,Fri Feb 14 2025 13:09:39 GMT-0600 (Central Standard Time),688388.8999999762,130_o_f_n_a.png,O,z,1459,5,1,2475.0,685913.8999999762,7057,NNB,C,3
4,test,1,0.0,2-Back,1,m,Fri Feb 14 2025 13:09:39 GMT-0600 (Central Standard Time),691153.1000000238,098_y_f_n_a.png,O,m,1728,6,1,2757.0,688396.1000000238,7057,NNB,C,4
4,test,1,0.0,2-Back,0,m,Fri Feb 14 2025 13:09:39 GMT-0600 (Central Standard Time),694187.1000000238,092_m_m_n_a.png,O,None,2013,7,1,3031.4000000953674,691155.6999999285,7057,NNB,C,5
5,test,1,1.0,2-Back,1,z,Fri Feb 14 2025 13:09:39 GMT-0600 (Central Standard Time),696670.0,098_y_f_n_a.png,O,z,1465,8,1,2475.899999976158,694194.1000000238,7057,NNB,C,6
6,test,1,0.0,2-Back,1,m,Fri Feb 14 2025 13:09:39 GMT-0600 (Central Standard Time),699300.8999999762,031_y_m_n_a.png,O,m,1613,9,1,2623.399999976158,696677.5,7057,NNB,C,7
7,test,1,0.0,2-Back,1,m,Fri Feb 14 2025 13:09:39 GMT-0600 (Central Standard Time),702052.1999999285,030_o_f_n_a.png,O,m,1732,10,1,2743.5999999046326,699308.6000000238,7057,NNB,C,8
7,test,1,1.0,2-Back,0,z,Fri Feb 14 2025 13:09:39 GMT-0600 (Central Standard Time),704651.1000000238,031_y_m_n_a.png,O,m,1565,11,1,2591.2000000476837,702059.8999999762,7057,NNB,C,9
8,test,1,0.0,2-Back,1,m,Fri Feb 14 2025 13:09:39 GMT-0600 (Central Standard Time),706949.0,006_m_f_n_a.png,O,m,1269,12,1,2291.8000000715256,704657.1999999285,7057,NNB,C,10
9,test,1,0.0,2-Back,1,m,Fri Feb 14 2025 13:09:39 GMT-0600 (Central Standard Time),709282.2999999523,006_m_f_n_a.png,O,m,1304,13,1,2327.0,706955.2999999523,7057,NNB,C,11
10,test,1,0.0,2-Back,1,m,Fri Feb 14 2025 13:09:39 GMT-0600 (Central Standard Time),711900.1000000238,146_o_m_n_a.png,O,m,1600,14,1,2610.7000000476837,709289.3999999762,7057,NNB,C,12
11,test,1,0.0,2-Back,1,m,Fri Feb 14 2025 13:09:39 GMT-0600 (Central Standard Time),714165.6999999285,030_o_f_n_a.png,O,m,1249,15,1,2260.2999999523163,711905.3999999762,7057,NNB,C,13
12,test,1,1.0,2-Back,1,z,Fri Feb 14 2025 13:09:39 GMT-0600 (Central Standard Time),716896.1000000238,146_o_m_n_a.png,O,z,1708,16,1,2724.3000000715256,714171.7999999523,7057,NNB,C,14
13,test,1,0.0,2-Back,1,m,Fri Feb 14 2025 13:09:39 GMT-0600 (Central Standard Time),719212.6000000238,093_m_f_n_a.png,O,m,1287,17,1,2309.8000000715256,716902.7999999523,7057,NNB,C,15
14,test,1,0.0,2-Back,1,m,Fri Feb 14 2025 13:09:39 GMT-0600 (Central Standard Time),721711.7999999523,082_m_m_n_a.png,O,m,1467,18,1,2492.100000023842,719219.6999999285,7057,NNB,C,16
0,test,2,0.0,2-Back,,,Fri Feb 14 2025 13:09:39 GMT-0600 (Central Standard Time),721711.7999999523,082_m_m_n_a.png,O,space,8396,1,1,2492.100000023842,719219.6999999285,7057,NNB,C,0
0,test,2,0.0,2-Back,,,Fri Feb 14 2025 13:09:39 GMT-0600 (Central Standard Time),721711.7999999523,028_y_f_n_a.png,O,space,8396,2,1,2492.100000023842,719219.6999999285,7057,NNB,C,0
1,test,2,1.0,2-Back,1,z,Fri Feb 14 2025 13:09:39 GMT-0600 (Central Standard Time),737590.6999999285,082_m_m_n_a.png,O,z,1319,3,1,2342.2999999523163,735248.3999999762,7057,NNB,C,1
2,test,2,0.0,2-Back,1,m,Fri Feb 14 2025 13:09:39 GMT-0600 (Central Standard Time),740089.2999999523,093_m_f_n_a.png,O,m,1464,4,1,2491.600000023842,737597.6999999285,7057,NNB,C,2
2,test,2,0.0,2-Back,0,m,Fri Feb 14 2025 13:09:39 GMT-0600 (Central Standard Time),742471.1000000238,028_y_f_n_a.png,O,z,1359,5,1,2374.600000023842,740096.5,7057,NNB,C,3
3,test,2,0.0,2-Back,1,m,Fri Feb 14 2025 13:09:39 GMT-0600 (Central Standard Time),745237.2999999523,146_o_m_n_a.png,O,m,1735,6,1,2759.5,742477.7999999523,7057,NNB,C,4
4,test,2,0.0,2-Back,1,m,Fri Feb 14 2025 13:09:39 GMT-0600 (Central Standard Time),748069.7999999523,098_y_f_n_a.png,O,m,1805,7,1,2824.6999999284744,745245.1000000238,7057,NNB,C,5
5,test,2,1.0,2-Back,1,z,Fri Feb 14 2025 13:09:39 GMT-0600 (Central Standard Time),750519.5,146_o_m_n_a.png,O,z,1418,8,1,2443.100000023842,748076.3999999762,7057,NNB,C,6
6,test,2,0.0,2-Back,1,m,Fri Feb 14 2025 13:09:39 GMT-0600 (Central Standard Time),753068.7999999523,031_y_m_n_a.png,O,m,1525,9,1,2543.100000023842,750525.6999999285,7057,NNB,C,7
6,test,2,0.0,2-Back,0,m,Fri Feb 14 2025 13:09:39 GMT-0600 (Central Standard Time),756101.6000000238,031_y_m_n_a.png,O,None,2015,10,1,3025.7000000476837,753075.8999999762,7057,NNB,C,8
7,test,2,0.0,2-Back,1,m,Fri Feb 14 2025 13:09:39 GMT-0600 (Central Standard Time),758617.0,006_m_f_n_a.png,O,m,1492,11,1,2509.100000023842,756107.8999999762,7057,NNB,C,9
7,test,2,0.0,2-Back,0,m,Fri Feb 14 2025 13:09:39 GMT-0600 (Central Standard Time),761052.6000000238,028_y_f_n_a.png,O,z,1408,12,1,2428.4000000953674,758624.1999999285,7057,NNB,C,10
8,test,2,1.0,2-Back,1,z,Fri Feb 14 2025 13:09:39 GMT-0600 (Central Standard Time),763731.7999999523,006_m_f_n_a.png,O,z,1653,13,1,2673.0,761058.7999999523,7057,NNB,C,11
9,test,2,0.0,2-Back,1,m,Fri Feb 14 2025 13:09:39 GMT-0600 (Central Standard Time),766580.1999999285,059_o_m_n_a.png,O,m,1828,14,1,2841.7999999523163,763738.3999999762,7057,NNB,C,12
10,test,2,0.0,2-Back,1,m,Fri Feb 14 2025 13:09:39 GMT-0600 (Central Standard Time),769596.1000000238,059_o_m_n_a.png,O,m,1987,15,1,3010.5,766585.6000000238,7057,NNB,C,13
11,test,2,0.0,2-Back,1,m,Fri Feb 14 2025 13:09:39 GMT-0600 (Central Standard Time),772548.1000000238,030_o_f_n_a.png,O,m,1930,16,1,2944.2000000476837,769603.8999999762,7057,NNB,C,14
12,test,2,0.0,2-Back,1,m,Fri Feb 14 2025 13:09:39 GMT-0600 (Central Standard Time),774909.1000000238,092_m_m_n_a.png,O,m,1335,17,1,2356.9000000953674,772552.1999999285,7057,NNB,C,15
13,test,2,1.0,2-Back,1,z,Fri Feb 14 2025 13:09:39 GMT-0600 (Central Standard Time),777041.6000000238,030_o_f_n_a.png,O,z,1101,18,1,2126.3000000715256,774915.2999999523,7057,NNB,C,16
0,test,3,1.0,2-Back,,,Fri Feb 14 2025 13:09:39 GMT-0600 (Central Standard Time),777041.6000000238,057_y_m_n_a.png,O,space,18503,1,1,2126.3000000715256,774915.2999999523,7057,NNB,C,0
0,test,3,1.0,2-Back,,,Fri Feb 14 2025 13:09:39 GMT-0600 (Central Standard Time),777041.6000000238,057_y_m_n_a.png,O,space,18503,2,1,2126.3000000715256,774915.2999999523,7057,NNB,C,0
1,test,3,0.0,2-Back,1,m,Fri Feb 14 2025 13:09:39 GMT-0600 (Central Standard Time),802685.7999999523,030_o_f_n_a.png,O,m,951,3,1,1976.6000000238419,800709.1999999285,7057,NNB,C,1
2,test,3,0.0,2-Back,1,m,Fri Feb 14 2025 13:09:39 GMT-0600 (Central Standard Time),805069.2999999523,082_m_m_n_a.png,O,m,1354,4,1,2376.7999999523163,802692.5,7057,NNB,C,2
3,test,3,1.0,2-Back,1,z,Fri Feb 14 2025 13:09:39 GMT-0600 (Central Standard Time),806968.2999999523,030_o_f_n_a.png,O,z,879,5,1,1891.7999999523163,805076.5,7057,NNB,C,3
4,test,3,0.0,2-Back,1,m,Fri Feb 14 2025 13:09:39 GMT-0600 (Central Standard Time),809418.6000000238,031_y_m_n_a.png,O,m,1425,6,1,2443.5,806975.1000000238,7057,NNB,C,4
4,test,3,0.0,2-Back,0,m,Fri Feb 14 2025 13:09:39 GMT-0600 (Central Standard Time),812448.6999999285,082_m_m_n_a.png,O,None,2012,7,1,3022.1999999284744,809426.5,7057,NNB,C,5
5,test,3,1.0,2-Back,1,z,Fri Feb 14 2025 13:09:39 GMT-0600 (Central Standard Time),814965.1000000238,031_y_m_n_a.png,O,z,1496,8,1,2509.9000000953674,812455.1999999285,7057,NNB,C,6
6,test,3,0.0,2-Back,1,m,Fri Feb 14 2025 13:09:39 GMT-0600 (Central Standard Time),817365.3999999762,028_y_f_n_a.png,O,m,1371,9,1,2391.7000000476837,814973.6999999285,7057,NNB,C,7
7,test,3,0.0,2-Back,1,m,Fri Feb 14 2025 13:09:39 GMT-0600 (Central Standard Time),819447.2999999523,092_m_m_n_a.png,O,m,1051,10,1,2074.600000023842,817372.6999999285,7057,NNB,C,8
8,test,3,1.0,2-Back,1,z,Fri Feb 14 2025 13:09:39 GMT-0600 (Central Standard Time),821280.2999999523,028_y_f_n_a.png,O,z,800,11,1,1826.5,819453.7999999523,7057,NNB,C,9
9,test,3,1.0,2-Back,1,z,Fri Feb 14 2025 13:09:39 GMT-0600 (Central Standard Time),823678.1000000238,092_m_m_n_a.png,O,z,1375,12,1,2391.4000000953674,821286.6999999285,7057,NNB,C,10
10,test,3,0.0,2-Back,1,m,Fri Feb 14 2025 13:09:39 GMT-0600 (Central Standard Time),825830.1000000238,030_o_f_n_a.png,O,m,1131,13,1,2144.3000000715256,823685.7999999523,7057,NNB,C,11
11,test,3,0.0,2-Back,1,m,Fri Feb 14 2025 13:09:39 GMT-0600 (Central Standard Time),827745.6999999285,093_m_f_n_a.png,O,m,900,14,1,1908.1999999284744,825837.5,7057,NNB,C,12
12,test,3,0.0,2-Back,1,m,Fri Feb 14 2025 13:09:39 GMT-0600 (Central Standard Time),829776.6000000238,146_o_m_n_a.png,O,m,997,15,1,2024.7000000476837,827751.8999999762,7057,NNB,C,13
12,test,3,1.0,2-Back,0,z,Fri Feb 14 2025 13:09:39 GMT-0600 (Central Standard Time),831510.1999999285,093_m_f_n_a.png,O,m,702,16,1,1726.5,829783.6999999285,7057,NNB,C,14
13,test,3,0.0,2-Back,1,m,Fri Feb 14 2025 13:09:39 GMT-0600 (Central Standard Time),833375.8999999762,130_o_f_n_a.png,O,m,842,17,1,1858.3999999761581,831517.5,7057,NNB,C,15
13,test,3,0.0,2-Back,0,m,Fri Feb 14 2025 13:09:39 GMT-0600 (Central Standard Time),835358.2999999523,130_o_f_n_a.png,O,z,960,18,1,1976.1000000238419,833382.1999999285,7057,NNB,C,16
0,test,4,0.0,2-Back,,,Fri Feb 14 2025 13:09:39 GMT-0600 (Central Standard Time),835358.2999999523,059_o_m_n_a.png,O,space,3555,1,1,1976.1000000238419,833382.1999999285,7057,NNB,C,0
0,test,4,0.0,2-Back,,,Fri Feb 14 2025 13:09:39 GMT-0600 (Central Standard Time),835358.2999999523,098_y_f_n_a.png,O,space,3555,2,1,1976.1000000238419,833382.1999999285,7057,NNB,C,0
1,test,4,1.0,2-Back,1,z,Fri Feb 14 2025 13:09:39 GMT-0600 (Central Standard Time),846138.8999999762,059_o_m_n_a.png,O,z,988,3,1,2007.1000000238419,844131.7999999523,7057,NNB,C,1
2,test,4,1.0,2-Back,1,z,Fri Feb 14 2025 13:09:39 GMT-0600 (Central Standard Time),848005.0,098_y_f_n_a.png,O,z,834,4,1,1858.8000000715256,846146.1999999285,7057,NNB,C,2
3,test,4,0.0,2-Back,1,m,Fri Feb 14 2025 13:09:39 GMT-0600 (Central Standard Time),850304.2999999523,030_o_f_n_a.png,O,m,1276,5,1,2291.7999999523163,848012.5,7057,NNB,C,3
4,test,4,0.0,2-Back,1,m,Fri Feb 14 2025 13:09:39 GMT-0600 (Central Standard Time),853269.6000000238,030_o_f_n_a.png,O,m,1939,6,1,2957.100000023842,850312.5,7057,NNB,C,4
5,test,4,0.0,2-Back,1,m,Fri Feb 14 2025 13:09:39 GMT-0600 (Central Standard Time),855803.3999999762,006_m_f_n_a.png,O,m,1498,7,1,2526.5,853276.8999999762,7057,NNB,C,5
6,test,4,0.0,2-Back,1,m,Fri Feb 14 2025 13:09:39 GMT-0600 (Central Standard Time),857851.1000000238,031_y_m_n_a.png,O,m,1022,8,1,2041.0,855810.1000000238,7057,NNB,C,6
7,test,4,1.0,2-Back,1,z,Fri Feb 14 2025 13:09:39 GMT-0600 (Central Standard Time),859817.6999999285,006_m_f_n_a.png,O,z,939,9,1,1960.1999999284744,857857.5,7057,NNB,C,7
8,test,4,0.0,2-Back,1,m,Fri Feb 14 2025 13:09:39 GMT-0600 (Central Standard Time),861784.1999999285,092_m_m_n_a.png,O,m,933,10,1,1960.2999999523163,859823.8999999762,7057,NNB,C,8
9,test,4,0.0,2-Back,1,m,Fri Feb 14 2025 13:09:39 GMT-0600 (Central Standard Time),864251.3999999762,031_y_m_n_a.png,O,m,1442,11,1,2460.600000023842,861790.7999999523,7057,NNB,C,9
10,test,4,0.0,2-Back,1,m,Fri Feb 14 2025 13:09:39 GMT-0600 (Central Standard Time),866449.6000000238,130_o_f_n_a.png,O,m,1172,12,1,2191.7000000476837,864257.8999999762,7057,NNB,C,10
11,test,4,0.0,2-Back,1,m,Fri Feb 14 2025 13:09:39 GMT-0600 (Central Standard Time),868448.2999999523,057_y_m_n_a.png,O,m,966,13,1,1992.6000000238419,866455.6999999285,7057,NNB,C,11
12,test,4,1.0,2-Back,1,z,Fri Feb 14 2025 13:09:39 GMT-0600 (Central Standard Time),870748.0,130_o_f_n_a.png,O,z,1281,14,1,2293.5,868454.5,7057,NNB,C,12
13,test,4,1.0,2-Back,1,z,Fri Feb 14 2025 13:09:39 GMT-0600 (Central Standard Time),873348.1000000238,057_y_m_n_a.png,O,z,1581,15,1,2593.7000000476837,870754.3999999762,7057,NNB,C,13
14,test,4,0.0,2-Back,1,m,Fri Feb 14 2025 13:09:39 GMT-0600 (Central Standard Time),876144.7999999523,082_m_m_n_a.png,O,m,1771,16,1,2792.0,873352.7999999523,7057,NNB,C,14
15,test,4,0.0,2-Back,1,m,Fri Feb 14 2025 13:09:39 GMT-0600 (Central Standard Time),878879.6000000238,093_m_f_n_a.png,O,m,1703,17,1,2727.100000023842,876152.5,7057,NNB,C,15
16,test,4,1.0,2-Back,1,z,Fri Feb 14 2025 13:09:39 GMT-0600 (Central Standard Time),880894.6000000238,082_m_m_n_a.png,O,z,982,18,1,2008.9000000953674,878885.6999999285,7057,NNB,C,16
0,test,5,1.0,2-Back,,,Fri Feb 14 2025 13:09:39 GMT-0600 (Central Standard Time),880894.6000000238,057_y_m_n_a.png,O,space,11154,1,1,2008.9000000953674,878885.6999999285,7057,NNB,C,0
0,test,5,1.0,2-Back,,,Fri Feb 14 2025 13:09:39 GMT-0600 (Central Standard Time),880894.6000000238,093_m_f_n_a.png,O,space,11154,2,1,2008.9000000953674,878885.6999999285,7057,NNB,C,0
1,test,5,1.0,2-Back,1,z,Fri Feb 14 2025 13:09:39 GMT-0600 (Central Standard Time),899005.3999999762,057_y_m_n_a.png,O,z,868,3,1,1889.8999999761581,897115.5,7057,NNB,C,1
2,test,5,1.0,2-Back,1,z,Fri Feb 14 2025 13:09:39 GMT-0600 (Central Standard Time),900820.6000000238,093_m_f_n_a.png,O,z,795,4,1,1808.8000000715256,899011.7999999523,7057,NNB,C,2
3,test,5,0.0,2-Back,1,m,Fri Feb 14 2025 13:09:39 GMT-0600 (Central Standard Time),903204.7999999523,130_o_f_n_a.png,O,m,1362,5,1,2380.600000023842,900824.1999999285,7057,NNB,C,3
3,test,5,0.0,2-Back,0,m,Fri Feb 14 2025 13:09:39 GMT-0600 (Central Standard Time),905869.7999999523,057_y_m_n_a.png,O,z,1637,6,1,2657.600000023842,903212.1999999285,7057,NNB,C,4
4,test,5,0.0,2-Back,1,m,Fri Feb 14 2025 13:09:39 GMT-0600 (Central Standard Time),908285.6000000238,028_y_f_n_a.png,O,m,1396,7,1,2407.9000000953674,905877.6999999285,7057,NNB,C,5
4,test,5,0.0,2-Back,0,m,Fri Feb 14 2025 13:09:39 GMT-0600 (Central Standard Time),910368.1000000238,130_o_f_n_a.png,O,z,1058,8,1,2075.2000000476837,908292.8999999762,7057,NNB,C,6
5,test,5,1.0,2-Back,1,z,Fri Feb 14 2025 13:09:39 GMT-0600 (Central Standard Time),912419.3999999762,028_y_f_n_a.png,O,z,1033,9,1,2044.7000000476837,910374.6999999285,7057,NNB,C,7
6,test,5,0.0,2-Back,1,m,Fri Feb 14 2025 13:09:39 GMT-0600 (Central Standard Time),914400.2999999523,146_o_m_n_a.png,O,m,950,10,1,1976.7999999523163,912423.5,7057,NNB,C,8
7,test,5,0.0,2-Back,1,m,Fri Feb 14 2025 13:09:39 GMT-0600 (Central Standard Time),916283.6999999285,006_m_f_n_a.png,O,m,863,11,1,1875.8999999761581,914407.7999999523,7057,NNB,C,9
8,test,5,0.0,2-Back,1,m,Fri Feb 14 2025 13:09:39 GMT-0600 (Central Standard Time),918249.0,092_m_m_n_a.png,O,m,931,12,1,1961.8000000715256,916287.1999999285,7057,NNB,C,10
8,test,5,0.0,2-Back,0,m,Fri Feb 14 2025 13:09:39 GMT-0600 (Central Standard Time),920234.1999999285,146_o_m_n_a.png,O,z,950,13,1,1978.2999999523163,918255.8999999762,7057,NNB,C,11
8,test,5,1.0,2-Back,0,z,Fri Feb 14 2025 13:09:39 GMT-0600 (Central Standard Time),922281.8999999762,092_m_m_n_a.png,O,m,1015,14,1,2040.5,920241.3999999762,7057,NNB,C,12
9,test,5,0.0,2-Back,1,m,Fri Feb 14 2025 13:09:39 GMT-0600 (Central Standard Time),924348.1000000238,098_y_f_n_a.png,O,m,1048,15,1,2059.600000023842,922288.5,7057,NNB,C,13
10,test,5,0.0,2-Back,1,m,Fri Feb 14 2025 13:09:39 GMT-0600 (Central Standard Time),926314.6000000238,059_o_m_n_a.png,O,m,932,16,1,1959.5,924355.1000000238,7057,NNB,C,14
11,test,5,0.0,2-Back,1,m,Fri Feb 14 2025 13:09:39 GMT-0600 (Central Standard Time),928296.0,006_m_f_n_a.png,O,m,962,17,1,1974.1000000238419,926321.8999999762,7057,NNB,C,15
12,test,5,1.0,2-Back,1,z,Fri Feb 14 2025 13:09:39 GMT-0600 (Central Standard Time),930629.6000000238,059_o_m_n_a.png,O,z,1314,18,1,2327.3000000715256,928302.2999999523,7057,NNB,C,16
