Q,Q1,Q2,Q3,Q4,acc_sum,block,block_c,correct,correct_response,datetime,endtime,project,response,response_time,row_sel,session_number,squiggle1,squiggle1x,squiggle1y,squiggle2,squiggle2x,squiggle2y,squiggle3,squiggle3x,squiggle3y,squiggle4,squiggle4x,squiggle4y,start_end,starttime,subject_id,target_congruent,task,task_vers,testsquiggle,testsquigglex,testsquiggley,time_practice_delay,time_practice_fixation,time_practice_stimuli,time_practice_study,time_test_delay,time_test_fixation,time_test_stimuli,time_test_study,trial
1,1,0,0,0,1,prac,1,1,z,Fri Mar 28 2025 14:04:30 GMT-0500 (Central Daylight Time),173480.39999997616,O,z,1102,1,1,116.bmp,-120,-120,117.bmp,120,-120,118.bmp,-120,120,119.bmp,120,120,9929.0,163551.39999997616,7084,yes,SM,A,116.bmp,-120,-120,167830,161802,169847,163815,,,,,1
3,0,0,1,0,2,prac,1,1,m,Fri Mar 28 2025 14:04:30 GMT-0500 (Central Daylight Time),183475.69999998808,O,m,1173,2,1,120.bmp,-120,-120,121.bmp,120,-120,122.bmp,-120,120,123.bmp,120,120,9992.199999988079,173483.5,7084,no,SM,A,123.bmp,-120,120,177760,171734,179776,173746,,,,,2
4,0,0,0,1,3,prac,1,1,m,Fri Mar 28 2025 14:04:30 GMT-0500 (Central Daylight Time),193972.0,O,m,1672,3,1,124.bmp,-120,-120,125.bmp,120,-120,126.bmp,-120,120,127.bmp,120,120,10493.800000011921,183478.19999998808,7084,no,SM,A,124.bmp,120,120,187760,181728,189773,183742,,,,,3
2,0,1,0,0,3,prac,1,0,z,Fri Mar 28 2025 14:04:30 GMT-0500 (Central Daylight Time),204518.39999997616,O,m,1728,4,1,128.bmp,-120,-120,129.bmp,120,-120,130.bmp,-120,120,131.bmp,120,120,10538.59999999404,193979.79999998212,7084,yes,SM,A,129.bmp,120,-120,198255,192230,200270,194238,,,,,4
3,0,0,1,0,4,prac,1,1,z,Fri Mar 28 2025 14:04:30 GMT-0500 (Central Daylight Time),214349.5,O,z,1013,5,1,132.bmp,-120,-120,133.bmp,120,-120,134.bmp,-120,120,135.bmp,120,120,9828.40000000596,204521.09999999404,7084,yes,SM,A,134.bmp,-120,120,208800,202771,210816,204785,,,,,5
1,1,0,0,0,5,prac,1,1,m,Fri Mar 28 2025 14:04:30 GMT-0500 (Central Daylight Time),224545.69999998808,O,m,1366,6,1,136.bmp,-120,-120,137.bmp,120,-120,138.bmp,-120,120,139.bmp,120,120,10193.59999999404,214352.09999999404,7084,no,SM,A,139.bmp,-120,-120,218630,212602,220647,214616,,,,,6
2,0,1,0,0,6,prac,1,1,m,Fri Mar 28 2025 14:04:30 GMT-0500 (Central Daylight Time),234875.59999999404,O,m,1506,7,1,140.bmp,-120,-120,141.bmp,120,-120,142.bmp,-120,120,143.bmp,120,120,10326.5,224549.09999999404,7084,no,SM,A,140.bmp,120,-120,228828,222799,230843,224812,,,,,7
4,0,0,0,1,6,prac,1,0,z,Fri Mar 28 2025 14:04:30 GMT-0500 (Central Daylight Time),244688.69999998808,O,m,992,8,1,144.bmp,-120,-120,145.bmp,120,-120,146.bmp,-120,120,147.bmp,120,120,9810.59999999404,234878.09999999404,7084,yes,SM,A,147.bmp,120,120,239157,233128,241174,235143,,,,,8
4,0,0,0,1,1,test,1,1,m,Fri Mar 28 2025 14:04:30 GMT-0500 (Central Daylight Time),276212.09999999404,O,m,1231,1,1,148.bmp,-120,-120,149.bmp,120,-120,150.bmp,-120,120,143.bmp,120,120,9277.800000011921,266934.2999999821,7084,no,SM,A,150.bmp,120,120,239157,233128,241174,235143,271213.0,265185.0,273230.0,267198.0,1
2,0,1,0,0,2,test,1,1,m,Fri Mar 28 2025 14:04:30 GMT-0500 (Central Daylight Time),285793.59999999404,O,m,1527,2,1,101.bmp,-120,-120,102.bmp,120,-120,103.bmp,-120,120,104.bmp,120,120,9579.0,276214.59999999404,7084,no,SM,A,103.bmp,120,-120,239157,233128,241174,235143,280495.0,274465.0,282510.0,276479.0,2
1,1,0,0,0,3,test,1,1,z,Fri Mar 28 2025 14:04:30 GMT-0500 (Central Daylight Time),295323.6999999881,O,z,1484,3,1,105.bmp,-120,-120,106.bmp,120,-120,107.bmp,-120,120,108.bmp,120,120,9527.699999988079,285796.0,7084,yes,SM,A,105.bmp,-120,-120,239157,233128,241174,235143,290075.0,284046.0,292090.0,286060.0,3
3,0,0,1,0,3,test,1,0,m,Fri Mar 28 2025 14:04:30 GMT-0500 (Central Daylight Time),305003.0,O,z,1626,4,1,109.bmp,-120,-120,110.bmp,120,-120,111.bmp,-120,120,112.bmp,120,120,9677.100000023842,295325.89999997616,7084,no,SM,A,109.bmp,-120,120,239157,233128,241174,235143,299605.0,293576.0,301611.0,295590.0,4
2,0,1,0,0,4,test,1,1,z,Fri Mar 28 2025 14:04:30 GMT-0500 (Central Daylight Time),314950.1999999881,O,z,1887,5,1,113.bmp,-120,-120,114.bmp,120,-120,115.bmp,-120,120,116.bmp,120,120,9945.300000011921,305004.89999997616,7084,yes,SM,A,114.bmp,120,-120,239157,233128,241174,235143,309287.0,303255.0,311302.0,305269.0,5
3,0,0,1,0,5,test,1,1,z,Fri Mar 28 2025 14:04:30 GMT-0500 (Central Daylight Time),324581.09999999404,O,z,1596,6,1,117.bmp,-120,-120,118.bmp,120,-120,119.bmp,-120,120,120.bmp,120,120,9625.09999999404,314956.0,7084,yes,SM,A,119.bmp,-120,120,239157,233128,241174,235143,319232.0,313206.0,321233.0,315216.0,6
4,0,0,0,1,5,test,1,0,z,Fri Mar 28 2025 14:04:30 GMT-0500 (Central Daylight Time),334643.89999997616,O,None,2016,7,1,121.bmp,-120,-120,122.bmp,120,-120,123.bmp,-120,120,124.bmp,120,120,10060.399999976158,324583.5,7084,yes,SM,A,124.bmp,120,120,239157,233128,241174,235143,328862.0,322834.0,330878.0,324847.0,7
2,0,1,0,0,6,test,1,1,m,Fri Mar 28 2025 14:04:30 GMT-0500 (Central Daylight Time),344075.09999999404,O,m,1384,8,1,125.bmp,-120,-120,126.bmp,120,-120,127.bmp,-120,120,128.bmp,120,120,9429.0,334646.09999999404,7084,no,SM,A,125.bmp,120,-120,239157,233128,241174,235143,338925.0,332896.0,340941.0,334910.0,8
3,0,0,1,0,7,test,1,1,m,Fri Mar 28 2025 14:04:30 GMT-0500 (Central Daylight Time),354071.09999999404,O,m,1944,9,1,129.bmp,-120,-120,130.bmp,120,-120,131.bmp,-120,120,132.bmp,120,120,9994.0,344077.09999999404,7084,no,SM,A,130.bmp,-120,120,239157,233128,241174,235143,348356.0,342327.0,350373.0,344341.0,9
4,0,0,0,1,8,test,1,1,z,Fri Mar 28 2025 14:04:30 GMT-0500 (Central Daylight Time),364070.0,O,z,1934,10,1,137.bmp,-120,-120,138.bmp,120,-120,139.bmp,-120,120,140.bmp,120,120,9996.90000000596,354073.09999999404,7084,yes,SM,A,140.bmp,120,120,239157,233128,241174,235143,358353.0,352323.0,360369.0,354337.0,10
3,0,0,1,0,8,test,1,0,z,Fri Mar 28 2025 14:04:30 GMT-0500 (Central Daylight Time),374116.89999997616,O,None,2018,11,1,133.bmp,-120,-120,134.bmp,120,-120,135.bmp,-120,120,136.bmp,120,120,10044.09999999404,364072.7999999821,7084,yes,SM,A,135.bmp,-120,120,239157,233128,241174,235143,368335.0,362323.0,370349.0,364334.0,11
2,0,1,0,0,9,test,1,1,m,Fri Mar 28 2025 14:04:30 GMT-0500 (Central Daylight Time),384011.89999997616,O,m,1840,12,1,141.bmp,-120,-120,142.bmp,120,-120,143.bmp,-120,120,144.bmp,120,120,9892.5,374119.39999997616,7084,no,SM,A,141.bmp,120,-120,239157,233128,241174,235143,378396.0,372370.0,380413.0,374381.0,12
3,0,0,1,0,10,test,1,1,m,Fri Mar 28 2025 14:04:30 GMT-0500 (Central Daylight Time),393291.59999999404,O,m,1223,13,1,145.bmp,-120,-120,146.bmp,120,-120,147.bmp,-120,120,148.bmp,120,120,9277.700000017881,384013.89999997616,7084,no,SM,A,146.bmp,-120,120,239157,233128,241174,235143,388293.0,382264.0,390310.0,384279.0,13
1,1,0,0,0,11,test,1,1,z,Fri Mar 28 2025 14:04:30 GMT-0500 (Central Daylight Time),402438.89999997616,O,z,1088,14,1,149.bmp,-120,-120,150.bmp,120,-120,104.bmp,-120,120,101.bmp,120,120,9145.0,393293.89999997616,7084,yes,SM,A,149.bmp,-120,-120,239157,233128,241174,235143,397574.0,391544.0,399589.0,393558.0,14
4,0,0,0,1,11,test,1,0,m,Fri Mar 28 2025 14:04:30 GMT-0500 (Central Daylight Time),412502.7999999821,O,None,2016,15,1,110.bmp,-120,-120,111.bmp,120,-120,112.bmp,-120,120,113.bmp,120,120,10061.59999999404,402441.1999999881,7084,no,SM,A,111.bmp,120,120,239157,233128,241174,235143,406721.0,400691.0,408737.0,402705.0,15
1,1,0,0,0,12,test,1,1,m,Fri Mar 28 2025 14:04:30 GMT-0500 (Central Daylight Time),422016.0,O,m,1453,16,1,102.bmp,-120,-120,103.bmp,120,-120,104.bmp,-120,120,105.bmp,120,120,9511.100000023842,412504.89999997616,7084,no,SM,A,105.bmp,-120,-120,239157,233128,241174,235143,416784.0,410755.0,418800.0,412768.0,16
3,0,0,1,0,13,test,1,1,m,Fri Mar 28 2025 14:04:30 GMT-0500 (Central Daylight Time),431613.5,O,m,1547,17,1,122.bmp,-120,-120,123.bmp,120,-120,124.bmp,-120,120,125.bmp,120,120,9595.300000011921,422018.1999999881,7084,no,SM,A,122.bmp,-120,120,239157,233128,241174,235143,426297.0,420268.0,428314.0,422283.0,17
1,1,0,0,0,14,test,1,1,z,Fri Mar 28 2025 14:04:30 GMT-0500 (Central Daylight Time),440942.7999999821,O,z,1271,18,1,106.bmp,-120,-120,107.bmp,120,-120,108.bmp,-120,120,109.bmp,120,120,9327.199999988079,431615.59999999404,7084,yes,SM,A,106.bmp,-120,-120,239157,233128,241174,235143,435895.0,429866.0,437910.0,431880.0,18
2,0,1,0,0,14,test,1,0,z,Fri Mar 28 2025 14:04:30 GMT-0500 (Central Daylight Time),451008.0,O,None,2017,19,1,126.bmp,-120,-120,127.bmp,120,-120,128.bmp,-120,120,129.bmp,120,120,10063.100000023842,440944.89999997616,7084,yes,SM,A,127.bmp,120,-120,239157,233128,241174,235143,445225.0,439195.0,447241.0,441209.0,19
3,0,0,1,0,15,test,1,1,z,Fri Mar 28 2025 14:04:30 GMT-0500 (Central Daylight Time),460436.6999999881,O,z,1372,20,1,130.bmp,-120,-120,131.bmp,120,-120,132.bmp,-120,120,133.bmp,120,120,9424.699999988079,451012.0,7084,yes,SM,A,132.bmp,-120,120,239157,233128,241174,235143,455289.0,449262.0,457305.0,451274.0,20
1,1,0,0,0,16,test,1,1,m,Fri Mar 28 2025 14:04:30 GMT-0500 (Central Daylight Time),469750.6999999881,O,m,1262,21,1,114.bmp,-120,-120,115.bmp,120,-120,116.bmp,-120,120,117.bmp,120,120,9311.699999988079,460439.0,7084,no,SM,A,116.bmp,-120,-120,239157,233128,241174,235143,464719.0,458689.0,466735.0,460703.0,21
4,0,0,0,1,17,test,1,1,z,Fri Mar 28 2025 14:04:30 GMT-0500 (Central Daylight Time),479297.6999999881,O,z,1493,22,1,118.bmp,-120,-120,119.bmp,120,-120,120.bmp,-120,120,121.bmp,120,120,9544.800000011921,469752.89999997616,7084,yes,SM,A,121.bmp,120,120,239157,233128,241174,235143,474032.0,468003.0,476048.0,470018.0,22
1,1,0,0,0,18,test,1,1,m,Fri Mar 28 2025 14:04:30 GMT-0500 (Central Daylight Time),488461.0,O,m,1114,23,1,134.bmp,-120,-120,135.bmp,120,-120,136.bmp,-120,120,137.bmp,120,120,9160.600000023842,479300.39999997616,7084,no,SM,A,137.bmp,-120,-120,239157,233128,241174,235143,483581.0,477551.0,485595.0,479566.0,23
2,0,1,0,0,18,test,1,0,z,Fri Mar 28 2025 14:04:30 GMT-0500 (Central Daylight Time),498524.5,O,None,2016,24,1,142.bmp,-120,-120,143.bmp,120,-120,144.bmp,-120,120,145.bmp,120,120,10061.0,488463.5,7084,yes,SM,A,143.bmp,120,-120,239157,233128,241174,235143,492743.0,486714.0,494759.0,488729.0,24
4,0,0,0,1,19,test,1,1,m,Fri Mar 28 2025 14:04:30 GMT-0500 (Central Daylight Time),507589.39999997616,O,m,1006,25,1,146.bmp,-120,-120,147.bmp,120,-120,148.bmp,-120,120,149.bmp,120,120,9062.5,498526.89999997616,7084,no,SM,A,148.bmp,120,120,239157,233128,241174,235143,502807.0,496777.0,504823.0,498792.0,25
1,1,0,0,0,20,test,1,1,z,Fri Mar 28 2025 14:04:30 GMT-0500 (Central Daylight Time),517003.0,O,z,1359,26,1,138.bmp,-120,-120,139.bmp,120,-120,140.bmp,-120,120,141.bmp,120,120,9411.700000017881,507591.2999999821,7084,yes,SM,A,138.bmp,-120,-120,239157,233128,241174,235143,511870.0,505842.0,513886.0,507855.0,26
4,0,0,0,1,20,test,1,0,z,Fri Mar 28 2025 14:04:30 GMT-0500 (Central Daylight Time),527065.3999999762,O,None,2015,27,1,150.bmp,-120,-120,111.bmp,120,-120,101.bmp,-120,120,102.bmp,120,120,10059.59999999404,517005.7999999821,7084,yes,SM,A,102.bmp,120,120,239157,233128,241174,235143,521284.0,515256.0,523300.0,517271.0,27
3,0,0,1,0,20,test,1,0,m,Fri Mar 28 2025 14:04:30 GMT-0500 (Central Daylight Time),537128.7999999821,O,None,2014,28,1,103.bmp,-120,-120,104.bmp,120,-120,105.bmp,-120,120,106.bmp,120,120,10060.59999999404,527068.1999999881,7084,no,SM,A,103.bmp,-120,120,239157,233128,241174,235143,531348.0,525318.0,533365.0,527332.0,28
2,0,1,0,0,21,test,1,1,z,Fri Mar 28 2025 14:04:30 GMT-0500 (Central Daylight Time),546759.5,O,z,1570,29,1,107.bmp,-120,-120,108.bmp,120,-120,109.bmp,-120,120,110.bmp,120,120,9628.600000023842,537130.8999999762,7084,yes,SM,A,108.bmp,120,-120,239157,233128,241174,235143,541411.0,535381.0,543427.0,537396.0,29
3,0,0,1,0,22,test,1,1,z,Fri Mar 28 2025 14:04:30 GMT-0500 (Central Daylight Time),556656.5,O,z,1836,30,1,111.bmp,-120,-120,112.bmp,120,-120,113.bmp,-120,120,114.bmp,120,120,9894.800000011921,546761.6999999881,7084,yes,SM,A,113.bmp,-120,120,239157,233128,241174,235143,551041.0,545012.0,553057.0,547026.0,30
1,1,0,0,0,23,test,1,1,z,Fri Mar 28 2025 14:04:30 GMT-0500 (Central Daylight Time),566170.7999999821,O,z,1458,31,1,115.bmp,-120,-120,116.bmp,120,-120,117.bmp,-120,120,118.bmp,120,120,9511.90000000596,556658.8999999762,7084,yes,SM,A,115.bmp,-120,-120,239157,233128,241174,235143,560938.0,554909.0,562955.0,556923.0,31
2,0,1,0,0,24,test,1,1,m,Fri Mar 28 2025 14:04:30 GMT-0500 (Central Daylight Time),575434.7999999821,O,m,1208,32,1,119.bmp,-120,-120,120.bmp,120,-120,121.bmp,-120,120,122.bmp,120,120,9262.0,566172.7999999821,7084,no,SM,A,119.bmp,120,-120,239157,233128,241174,235143,570452.0,564423.0,572469.0,566437.0,32
4,0,0,0,1,25,test,1,1,z,Fri Mar 28 2025 14:04:30 GMT-0500 (Central Daylight Time),584867.8999999762,O,z,1384,33,1,131.bmp,-120,-120,132.bmp,120,-120,133.bmp,-120,120,134.bmp,120,120,9430.5,575437.3999999762,7084,yes,SM,A,134.bmp,120,120,239157,233128,241174,235143,579718.0,573688.0,581734.0,575700.0,33
2,0,1,0,0,26,test,1,1,z,Fri Mar 28 2025 14:04:30 GMT-0500 (Central Daylight Time),593930.2999999821,O,z,1008,34,1,123.bmp,-120,-120,124.bmp,120,-120,125.bmp,-120,120,126.bmp,120,120,9058.299999982119,584872.0,7084,yes,SM,A,124.bmp,120,-120,239157,233128,241174,235143,589148.0,583122.0,591166.0,585133.0,34
4,0,0,0,1,27,test,1,1,m,Fri Mar 28 2025 14:04:30 GMT-0500 (Central Daylight Time),603194.1999999881,O,m,1200,35,1,127.bmp,-120,-120,128.bmp,120,-120,129.bmp,-120,120,130.bmp,120,120,9260.40000000596,593933.7999999821,7084,no,SM,A,129.bmp,120,120,239157,233128,241174,235143,598214.0,592184.0,600230.0,594196.0,35
3,0,0,1,0,28,test,1,1,m,Fri Mar 28 2025 14:04:30 GMT-0500 (Central Daylight Time),612973.099999994,O,m,1721,36,1,135.bmp,-120,-120,136.bmp,120,-120,137.bmp,-120,120,138.bmp,120,120,9775.09999999404,603198.0,7084,no,SM,A,135.bmp,-120,120,239157,233128,241174,235143,607476.0,601448.0,609493.0,603462.0,36
1,1,0,0,0,29,test,1,1,m,Fri Mar 28 2025 14:04:30 GMT-0500 (Central Daylight Time),621905.1999999881,O,m,877,37,1,139.bmp,-120,-120,140.bmp,120,-120,141.bmp,-120,120,142.bmp,120,120,8927.0,612978.1999999881,7084,no,SM,A,140.bmp,-120,-120,239157,233128,241174,235143,617255.0,611228.0,619273.0,613241.0,37
2,0,1,0,0,30,test,1,1,m,Fri Mar 28 2025 14:04:30 GMT-0500 (Central Daylight Time),631069.7999999821,O,m,1117,38,1,143.bmp,-120,-120,144.bmp,120,-120,145.bmp,-120,120,146.bmp,120,120,9157.40000000596,621912.3999999762,7084,no,SM,A,145.bmp,120,-120,239157,233128,241174,235143,626187.0,620163.0,628202.0,622173.0,38
4,0,0,0,1,31,test,1,1,z,Fri Mar 28 2025 14:04:30 GMT-0500 (Central Daylight Time),640383.3999999762,O,z,1266,39,1,147.bmp,-120,-120,148.bmp,120,-120,149.bmp,-120,120,150.bmp,120,120,9309.299999982119,631074.099999994,7084,yes,SM,A,150.bmp,120,120,239157,233128,241174,235143,635351.0,629324.0,637367.0,631336.0,39
3,0,0,1,0,32,test,1,1,m,Fri Mar 28 2025 14:04:30 GMT-0500 (Central Daylight Time),649761.3999999762,O,m,1318,40,1,104.bmp,-120,-120,105.bmp,120,-120,106.bmp,-120,120,107.bmp,120,120,9373.899999976158,640387.5,7084,no,SM,A,105.bmp,-120,120,239157,233128,241174,235143,644663.0,638638.0,646680.0,640650.0,40
1,1,0,0,0,33,test,1,1,z,Fri Mar 28 2025 14:04:30 GMT-0500 (Central Daylight Time),658559.7999999821,O,z,748,41,1,108.bmp,-120,-120,109.bmp,120,-120,110.bmp,-120,120,111.bmp,120,120,8793.799999982119,649766.0,7084,yes,SM,A,108.bmp,-120,-120,239157,233128,241174,235143,654048.0,648016.0,656061.0,650029.0,41
4,0,0,0,1,34,test,1,1,z,Fri Mar 28 2025 14:04:30 GMT-0500 (Central Daylight Time),668090.3999999762,O,z,1478,42,1,112.bmp,-120,-120,113.bmp,120,-120,114.bmp,-120,120,115.bmp,120,120,9527.0,658563.3999999762,7084,yes,SM,A,115.bmp,120,120,239157,233128,241174,235143,662841.0,656814.0,664857.0,658826.0,42
1,1,0,0,0,35,test,1,1,z,Fri Mar 28 2025 14:04:30 GMT-0500 (Central Daylight Time),676853.0,O,z,706,43,1,116.bmp,-120,-120,117.bmp,120,-120,118.bmp,-120,120,119.bmp,120,120,8759.90000000596,668093.099999994,7084,yes,SM,A,116.bmp,-120,-120,239157,233128,241174,235143,672373.0,666343.0,674389.0,668357.0,43
4,0,0,0,1,36,test,1,1,m,Fri Mar 28 2025 14:04:30 GMT-0500 (Central Daylight Time),685784.1999999881,O,m,878,44,1,104.bmp,-120,-120,101.bmp,120,-120,102.bmp,-120,120,103.bmp,120,120,8929.0,676855.1999999881,7084,no,SM,A,104.bmp,120,120,239157,233128,241174,235143,681138.0,675105.0,683153.0,677121.0,44
1,1,0,0,0,37,test,1,1,m,Fri Mar 28 2025 14:04:30 GMT-0500 (Central Daylight Time),694981.3999999762,O,m,1140,45,1,128.bmp,-120,-120,129.bmp,120,-120,130.bmp,-120,120,131.bmp,120,120,9190.199999988079,685791.1999999881,7084,no,SM,A,131.bmp,-120,-120,239157,233128,241174,235143,690067.0,684041.0,692082.0,686050.0,45
1,1,0,0,0,38,test,1,1,m,Fri Mar 28 2025 14:04:30 GMT-0500 (Central Daylight Time),703994.599999994,O,m,950,46,1,120.bmp,-120,-120,121.bmp,120,-120,122.bmp,-120,120,123.bmp,120,120,9009.90000000596,694984.6999999881,7084,no,SM,A,121.bmp,-120,-120,239157,233128,241174,235143,699264.0,693235.0,701280.0,695250.0,46
3,0,0,1,0,39,test,1,1,z,Fri Mar 28 2025 14:04:30 GMT-0500 (Central Daylight Time),713192.6999999881,O,z,1144,47,1,124.bmp,-120,-120,125.bmp,120,-120,126.bmp,-120,120,127.bmp,120,120,9193.5,703999.1999999881,7084,yes,SM,A,126.bmp,-120,120,239157,233128,241174,235143,708277.0,702249.0,710294.0,704262.0,47
3,0,0,1,0,40,test,1,1,z,Fri Mar 28 2025 14:04:30 GMT-0500 (Central Daylight Time),722672.7999999821,O,z,1418,48,1,140.bmp,-120,-120,141.bmp,120,-120,142.bmp,-120,120,143.bmp,120,120,9476.199999988079,713196.599999994,7084,yes,SM,A,142.bmp,-120,120,239157,233128,241174,235143,717474.0,711447.0,719491.0,713460.0,48
2,0,1,0,0,41,test,1,1,z,Fri Mar 28 2025 14:04:30 GMT-0500 (Central Daylight Time),732637.1999999881,O,z,1916,49,1,136.bmp,-120,-120,137.bmp,120,-120,138.bmp,-120,120,139.bmp,120,120,9961.0,722676.1999999881,7084,yes,SM,A,137.bmp,120,-120,239157,233128,241174,235143,726955.0,720926.0,728971.0,722940.0,49
3,0,0,1,0,41,test,1,0,m,Fri Mar 28 2025 14:04:30 GMT-0500 (Central Daylight Time),742700.2999999821,O,None,2014,50,1,132.bmp,-120,-120,133.bmp,120,-120,134.bmp,-120,120,135.bmp,120,120,10059.0,732641.2999999821,7084,no,SM,A,132.bmp,-120,120,239157,233128,241174,235143,736919.0,730891.0,738936.0,732902.0,50
2,0,1,0,0,42,test,1,1,z,Fri Mar 28 2025 14:04:30 GMT-0500 (Central Daylight Time),752130.599999994,O,z,1367,51,1,144.bmp,-120,-120,145.bmp,120,-120,146.bmp,-120,120,147.bmp,120,120,9426.200000017881,742704.3999999762,7084,yes,SM,A,145.bmp,120,-120,239157,233128,241174,235143,746982.0,740955.0,748998.0,742968.0,51
4,0,0,0,1,43,test,1,1,m,Fri Mar 28 2025 14:04:30 GMT-0500 (Central Daylight Time),761243.1999999881,O,m,1059,52,1,148.bmp,-120,-120,149.bmp,120,-120,150.bmp,-120,120,131.bmp,120,120,9106.59999999404,752136.599999994,7084,no,SM,A,148.bmp,120,120,239157,233128,241174,235143,756414.0,750387.0,758428.0,752397.0,52
3,0,0,1,0,44,test,1,1,z,Fri Mar 28 2025 14:04:30 GMT-0500 (Central Daylight Time),770988.3999999762,O,z,1693,53,1,101.bmp,-120,-120,102.bmp,120,-120,103.bmp,-120,120,104.bmp,120,120,9735.199999988079,761253.1999999881,7084,yes,SM,A,103.bmp,-120,120,239157,233128,241174,235143,765526.0,759503.0,767543.0,761510.0,53
1,1,0,0,0,44,test,1,0,m,Fri Mar 28 2025 14:04:30 GMT-0500 (Central Daylight Time),780886.6999999881,O,z,1837,54,1,105.bmp,-120,-120,106.bmp,120,-120,107.bmp,-120,120,108.bmp,120,120,9896.09999999404,770990.599999994,7084,no,SM,A,107.bmp,-120,-120,239157,233128,241174,235143,775271.0,769241.0,777288.0,771257.0,54
4,0,0,0,1,45,test,1,1,z,Fri Mar 28 2025 14:04:30 GMT-0500 (Central Daylight Time),790217.7999999821,O,z,1278,55,1,109.bmp,-120,-120,110.bmp,120,-120,111.bmp,-120,120,112.bmp,120,120,9327.5,780890.2999999821,7084,yes,SM,A,112.bmp,120,120,239157,233128,241174,235143,785169.0,779141.0,787185.0,781154.0,55
2,0,1,0,0,46,test,1,1,m,Fri Mar 28 2025 14:04:30 GMT-0500 (Central Daylight Time),799247.599999994,O,m,968,56,1,113.bmp,-120,-120,114.bmp,120,-120,115.bmp,-120,120,116.bmp,120,120,9026.700000017881,790220.8999999762,7084,no,SM,A,113.bmp,120,-120,239157,233128,241174,235143,794500.0,788471.0,796517.0,790485.0,56
4,0,0,0,1,46,test,1,0,m,Fri Mar 28 2025 14:04:30 GMT-0500 (Central Daylight Time),808994.7999999821,O,z,1691,57,1,117.bmp,-120,-120,118.bmp,120,-120,119.bmp,-120,120,120.bmp,120,120,9743.699999988079,799251.099999994,7084,no,SM,A,118.bmp,120,120,239157,233128,241174,235143,803530.0,797501.0,805547.0,799516.0,57
3,0,0,1,0,47,test,1,1,z,Fri Mar 28 2025 14:04:30 GMT-0500 (Central Daylight Time),818990.8999999762,O,z,1945,58,1,121.bmp,-120,-120,122.bmp,120,-120,123.bmp,-120,120,124.bmp,120,120,9993.09999999404,808997.7999999821,7084,yes,SM,A,123.bmp,-120,120,239157,233128,241174,235143,813277.0,807248.0,815293.0,809261.0,58
2,0,1,0,0,48,test,1,1,m,Fri Mar 28 2025 14:04:30 GMT-0500 (Central Daylight Time),827938.1999999881,O,m,891,59,1,125.bmp,-120,-120,126.bmp,120,-120,127.bmp,-120,120,128.bmp,120,120,8943.199999988079,818995.0,7084,no,SM,A,128.bmp,120,-120,239157,233128,241174,235143,823274.0,817245.0,825290.0,819260.0,59
1,1,0,0,0,49,test,1,1,z,Fri Mar 28 2025 14:04:30 GMT-0500 (Central Daylight Time),837684.5,O,z,1697,60,1,129.bmp,-120,-120,130.bmp,120,-120,131.bmp,-120,120,132.bmp,120,120,9743.800000011921,827940.6999999881,7084,yes,SM,A,129.bmp,-120,-120,239157,233128,241174,235143,832220.0,826191.0,834237.0,828205.0,60
2,0,1,0,0,50,test,1,1,z,Fri Mar 28 2025 14:04:30 GMT-0500 (Central Daylight Time),847266.2999999821,O,z,1517,61,1,133.bmp,-120,-120,134.bmp,120,-120,135.bmp,-120,120,136.bmp,120,120,9577.90000000596,837688.3999999762,7084,yes,SM,A,134.bmp,120,-120,239157,233128,241174,235143,841969.0,835939.0,843984.0,837953.0,61
4,0,0,0,1,51,test,1,1,z,Fri Mar 28 2025 14:04:30 GMT-0500 (Central Daylight Time),856763.8999999762,O,z,1459,62,1,141.bmp,-120,-120,142.bmp,120,-120,143.bmp,-120,120,144.bmp,120,120,9491.59999999404,847272.2999999821,7084,yes,SM,A,144.bmp,120,120,239157,233128,241174,235143,851533.0,845523.0,853547.0,847532.0,62
1,1,0,0,0,51,test,1,0,m,Fri Mar 28 2025 14:04:30 GMT-0500 (Central Daylight Time),866827.7999999821,O,None,2015,63,1,145.bmp,-120,-120,146.bmp,120,-120,147.bmp,-120,120,148.bmp,120,120,10061.299999982119,856766.5,7084,no,SM,A,145.bmp,-120,120,239157,233128,241174,235143,861046.0,855017.0,863063.0,857030.0,63
2,0,1,0,0,52,test,1,1,z,Fri Mar 28 2025 14:04:30 GMT-0500 (Central Daylight Time),876342.0,O,z,1482,64,1,149.bmp,-120,-120,150.bmp,120,-120,112.bmp,-120,120,101.bmp,120,120,9511.800000011921,866830.1999999881,7084,yes,SM,A,150.bmp,120,-120,239157,233128,241174,235143,871108.0,865080.0,873110.0,867094.0,64
4,0,0,0,1,53,test,1,1,m,Fri Mar 28 2025 14:04:30 GMT-0500 (Central Daylight Time),885770.099999994,O,m,1367,65,1,102.bmp,-120,-120,103.bmp,120,-120,104.bmp,-120,120,105.bmp,120,120,9424.0,876346.099999994,7084,no,SM,A,104.bmp,120,120,239157,233128,241174,235143,880623.0,874596.0,882639.0,876607.0,65
3,0,0,1,0,54,test,1,1,m,Fri Mar 28 2025 14:04:30 GMT-0500 (Central Daylight Time),895384.0,O,m,1552,66,1,106.bmp,-120,-120,107.bmp,120,-120,108.bmp,-120,120,109.bmp,120,120,9609.40000000596,885774.599999994,7084,no,SM,A,109.bmp,-120,120,239157,233128,241174,235143,890052.0,884025.0,892069.0,886038.0,66
2,0,1,0,0,55,test,1,1,m,Fri Mar 28 2025 14:04:30 GMT-0500 (Central Daylight Time),904431.8999999762,O,m,986,67,1,137.bmp,-120,-120,138.bmp,120,-120,139.bmp,-120,120,140.bmp,120,120,9043.699999988079,895388.1999999881,7084,no,SM,A,139.bmp,120,-120,239157,233128,241174,235143,899669.0,893638.0,901683.0,895654.0,67
3,0,0,1,0,56,test,1,1,z,Fri Mar 28 2025 14:04:30 GMT-0500 (Central Daylight Time),913694.0,O,z,1216,68,1,110.bmp,-120,-120,111.bmp,120,-120,112.bmp,-120,120,113.bmp,120,120,9259.600000023842,904434.3999999762,7084,yes,SM,A,112.bmp,-120,120,239157,233128,241174,235143,908714.0,902685.0,910728.0,904698.0,68
1,1,0,0,0,57,test,1,1,m,Fri Mar 28 2025 14:04:30 GMT-0500 (Central Daylight Time),922725.6999999881,O,m,972,69,1,114.bmp,-120,-120,115.bmp,120,-120,116.bmp,-120,120,117.bmp,120,120,9028.800000011921,913696.8999999762,7084,no,SM,A,115.bmp,-120,-120,239157,233128,241174,235143,917977.0,911947.0,919994.0,913962.0,69
2,0,1,0,0,58,test,1,1,m,Fri Mar 28 2025 14:04:30 GMT-0500 (Central Daylight Time),932139.0,O,m,1350,70,1,118.bmp,-120,-120,119.bmp,120,-120,120.bmp,-120,120,121.bmp,120,120,9410.0,922729.0,7084,no,SM,A,120.bmp,120,-120,239157,233128,241174,235143,927007.0,920979.0,929023.0,922992.0,70
4,0,0,0,1,59,test,1,1,z,Fri Mar 28 2025 14:04:30 GMT-0500 (Central Daylight Time),941402.6999999881,O,z,1199,71,1,122.bmp,-120,-120,123.bmp,120,-120,124.bmp,-120,120,125.bmp,120,120,9259.800000011921,932142.8999999762,7084,yes,SM,A,125.bmp,120,120,239157,233128,241174,235143,936421.0,930393.0,938438.0,932405.0,71
1,1,0,0,0,59,test,1,0,z,Fri Mar 28 2025 14:04:30 GMT-0500 (Central Daylight Time),951465.7999999821,O,None,2015,72,1,126.bmp,-120,-120,127.bmp,120,-120,128.bmp,-120,120,129.bmp,120,120,10059.5,941406.2999999821,7084,yes,SM,A,126.bmp,-120,-120,239157,233128,241174,235143,945685.0,939656.0,947701.0,941670.0,72
2,0,1,0,0,60,test,1,1,z,Fri Mar 28 2025 14:04:30 GMT-0500 (Central Daylight Time),961293.7999999821,O,z,1775,73,1,130.bmp,-120,-120,131.bmp,120,-120,132.bmp,-120,120,133.bmp,120,120,9824.799999982119,951469.0,7084,yes,SM,A,131.bmp,120,-120,239157,233128,241174,235143,955747.0,949719.0,957765.0,951734.0,73
4,0,0,0,1,61,test,1,1,m,Fri Mar 28 2025 14:04:30 GMT-0500 (Central Daylight Time),970177.3999999762,O,m,819,74,1,134.bmp,-120,-120,135.bmp,120,-120,136.bmp,-120,120,137.bmp,120,120,8881.299999982119,961296.099999994,7084,no,SM,A,136.bmp,120,120,239157,233128,241174,235143,965579.0,959550.0,967595.0,961563.0,74
2,0,1,0,0,61,test,1,0,m,Fri Mar 28 2025 14:04:30 GMT-0500 (Central Daylight Time),979591.0,O,z,1354,75,1,138.bmp,-120,-120,139.bmp,120,-120,140.bmp,-120,120,141.bmp,120,120,9409.40000000596,970181.599999994,7084,no,SM,A,141.bmp,120,-120,239157,233128,241174,235143,974459.0,968432.0,976476.0,970444.0,75
1,1,0,0,0,62,test,1,1,z,Fri Mar 28 2025 14:04:30 GMT-0500 (Central Daylight Time),988522.099999994,O,z,866,76,1,142.bmp,-120,-120,143.bmp,120,-120,144.bmp,-120,120,145.bmp,120,120,8914.5,979607.599999994,7084,yes,SM,A,142.bmp,-120,-120,239157,233128,241174,235143,983888.0,977858.0,985891.0,979876.0,76
3,0,0,1,0,63,test,1,1,z,Fri Mar 28 2025 14:04:30 GMT-0500 (Central Daylight Time),997767.1999999881,O,z,1185,77,1,150.bmp,-120,-120,111.bmp,120,-120,101.bmp,-120,120,102.bmp,120,120,9240.199999988079,988527.0,7084,yes,SM,A,101.bmp,-120,120,239157,233128,241174,235143,992805.0,986777.0,994820.0,988789.0,77
1,1,0,0,0,64,test,1,1,m,Fri Mar 28 2025 14:04:30 GMT-0500 (Central Daylight Time),1006432.599999994,O,m,603,78,1,146.bmp,-120,-120,147.bmp,120,-120,148.bmp,-120,120,149.bmp,120,120,8659.800000011921,997772.7999999821,7084,no,SM,A,147.bmp,-120,-120,239157,233128,241174,235143,1002051.0,996023.0,1004067.0,998036.0,78
4,0,0,0,1,65,test,1,1,m,Fri Mar 28 2025 14:04:30 GMT-0500 (Central Daylight Time),1015378.3999999762,O,m,899,79,1,107.bmp,-120,-120,108.bmp,120,-120,109.bmp,-120,120,110.bmp,120,120,8941.899999976158,1006436.5,7084,no,SM,A,107.bmp,120,120,239157,233128,241174,235143,1010698.0,1004687.0,1012714.0,1006697.0,79
3,0,0,1,0,66,test,1,1,m,Fri Mar 28 2025 14:04:30 GMT-0500 (Central Daylight Time),1024461.099999994,O,m,1050,80,1,103.bmp,-120,-120,104.bmp,120,-120,105.bmp,-120,120,106.bmp,120,120,9078.5,1015382.599999994,7084,no,SM,A,106.bmp,-120,120,239157,233128,241174,235143,1019660.0,1013633.0,1021661.0,1015647.0,80
