acc_sum,block,block_c,change,condition,correct,correct_response,datetime,endtime,face,project,response,response_time,row_sel,session_number,start_end,starttime,subject_id,task,task_vers,trial
0,prac,1,,1-Back,,,Fri Mar 28 2025 15:42:10 GMT-0500 (Central Daylight Time),,050_m_f_n_a.png,I,space,14303,1,1,,,8034,NNB,A,0
1,prac,1,0.0,1-Back,1,m,Fri Mar 28 2025 15:42:10 GMT-0500 (Central Daylight Time),129429.19999999553,063_y_f_n_a.png,I,m,868,2,1,1674.8999999985099,127754.29999999702,8034,NNB,A,1
1,prac,1,1.0,1-Back,0,z,Fri Mar 28 2025 15:42:10 GMT-0500 (Central Daylight Time),130878.5,063_y_f_n_a.png,I,m,669,3,1,1441.7000000029802,129436.79999999702,8034,NNB,A,2
1,prac,1,0.0,1-Back,0,m,Fri Mar 28 2025 15:42:10 GMT-0500 (Central Daylight Time),133694.29999999702,053_o_m_n_a.png,I,None,2016,4,1,2808.60000000149,130885.69999999553,8034,NNB,A,3
2,prac,1,0.0,1-Back,1,m,Fri Mar 28 2025 15:42:10 GMT-0500 (Central Daylight Time),135660.29999999702,058_m_m_n_a.png,I,m,1154,5,1,1959.2000000029802,133701.09999999404,8034,NNB,A,4
2,prac,1,1.0,1-Back,0,z,Fri Mar 28 2025 15:42:10 GMT-0500 (Central Daylight Time),137059.8999999985,058_m_m_n_a.png,I,m,614,6,1,1392.8000000044703,135667.09999999404,8034,NNB,A,5
3,prac,1,0.0,1-Back,1,m,Fri Mar 28 2025 15:42:10 GMT-0500 (Central Daylight Time),139409.19999999553,047_o_f_n_a.png,I,m,1513,7,1,2342.10000000149,137067.09999999404,8034,NNB,A,6
4,prac,1,0.0,1-Back,1,m,Fri Mar 28 2025 15:42:10 GMT-0500 (Central Daylight Time),141592.0,045_m_m_n_a.png,I,m,1376,8,1,2174.9000000059605,139417.09999999404,8034,NNB,A,7
5,prac,1,0.0,1-Back,1,m,Fri Mar 28 2025 15:42:10 GMT-0500 (Central Daylight Time),143324.59999999404,050_m_f_n_a.png,I,m,946,9,1,1725.3999999985099,141599.19999999553,8034,NNB,A,8
6,prac,1,1.0,1-Back,1,z,Fri Mar 28 2025 15:42:10 GMT-0500 (Central Daylight Time),144774.09999999404,050_m_f_n_a.png,I,z,660,10,1,1441.8999999985099,143332.19999999553,8034,NNB,A,9
7,prac,1,0.0,1-Back,1,m,Fri Mar 28 2025 15:42:10 GMT-0500 (Central Daylight Time),146406.8999999985,053_o_m_n_a.png,I,m,851,11,1,1624.8999999985099,144782.0,8034,NNB,A,10
8,prac,1,0.0,1-Back,1,m,Fri Mar 28 2025 15:42:10 GMT-0500 (Central Daylight Time),148023.29999999702,010_y_f_n_a.png,I,m,782,12,1,1609.2000000029802,146414.09999999404,8034,NNB,A,11
0,test,1,0.0,1-Back,,,Fri Mar 28 2025 15:42:10 GMT-0500 (Central Daylight Time),148023.29999999702,063_y_f_n_a.png,I,space,12675,1,1,1609.2000000029802,146414.09999999404,8034,NNB,A,0
1,test,1,0.0,1-Back,1,m,Fri Mar 28 2025 15:42:10 GMT-0500 (Central Daylight Time),171265.79999999702,043_m_f_n_a.png,I,m,1516,2,1,2526.60000000149,168739.19999999553,8034,NNB,A,1
2,test,1,0.0,1-Back,1,m,Fri Mar 28 2025 15:42:10 GMT-0500 (Central Daylight Time),173515.09999999404,010_y_f_n_a.png,I,m,1231,3,1,2243.0,171272.09999999404,8034,NNB,A,2
3,test,1,1.0,1-Back,1,z,Fri Mar 28 2025 15:42:10 GMT-0500 (Central Daylight Time),175297.8999999985,010_y_f_n_a.png,I,z,766,4,1,1775.1000000014901,173522.79999999702,8034,NNB,A,3
4,test,1,0.0,1-Back,1,m,Fri Mar 28 2025 15:42:10 GMT-0500 (Central Daylight Time),177314.0,043_m_f_n_a.png,I,m,983,5,1,2010.3000000044703,175303.69999999553,8034,NNB,A,4
5,test,1,0.0,1-Back,1,m,Fri Mar 28 2025 15:42:10 GMT-0500 (Central Daylight Time),179263.3999999985,053_o_m_n_a.png,I,m,918,6,1,1943.3999999985099,177320.0,8034,NNB,A,5
6,test,1,1.0,1-Back,1,z,Fri Mar 28 2025 15:42:10 GMT-0500 (Central Daylight Time),181096.0,053_o_m_n_a.png,I,z,810,7,1,1825.7000000029802,179270.29999999702,8034,NNB,A,6
7,test,1,0.0,1-Back,1,m,Fri Mar 28 2025 15:42:10 GMT-0500 (Central Daylight Time),182928.8999999985,058_m_m_n_a.png,I,m,800,8,1,1826.5,181102.3999999985,8034,NNB,A,7
7,test,1,0.0,1-Back,0,m,Fri Mar 28 2025 15:42:10 GMT-0500 (Central Daylight Time),184961.5,047_o_f_n_a.png,I,z,1000,9,1,2026.4000000059605,182935.09999999404,8034,NNB,A,8
8,test,1,0.0,1-Back,1,m,Fri Mar 28 2025 15:42:10 GMT-0500 (Central Daylight Time),186827.69999999553,058_m_m_n_a.png,I,m,839,10,1,1860.0,184967.69999999553,8034,NNB,A,9
9,test,1,0.0,1-Back,1,m,Fri Mar 28 2025 15:42:10 GMT-0500 (Central Daylight Time),188693.79999999702,041_y_m_n_a.png,I,m,846,11,1,1860.1000000014901,186833.69999999553,8034,NNB,A,10
10,test,1,1.0,1-Back,1,z,Fri Mar 28 2025 15:42:10 GMT-0500 (Central Daylight Time),190493.09999999404,041_y_m_n_a.png,I,z,780,12,1,1793.5,188699.59999999404,8034,NNB,A,11
11,test,1,0.0,1-Back,1,m,Fri Mar 28 2025 15:42:10 GMT-0500 (Central Daylight Time),192426.0,044_o_f_n_a.png,I,m,916,13,1,1926.8000000044703,190499.19999999553,8034,NNB,A,12
12,test,1,1.0,1-Back,1,z,Fri Mar 28 2025 15:42:10 GMT-0500 (Central Daylight Time),194438.5,044_o_f_n_a.png,I,z,995,14,1,2005.9000000059605,192432.59999999404,8034,NNB,A,13
13,test,1,0.0,1-Back,1,m,Fri Mar 28 2025 15:42:10 GMT-0500 (Central Daylight Time),196024.79999999702,008_y_m_n_a.png,I,m,551,15,1,1579.2999999970198,194445.5,8034,NNB,A,14
14,test,1,0.0,1-Back,1,m,Fri Mar 28 2025 15:42:10 GMT-0500 (Central Daylight Time),197807.3999999985,050_m_f_n_a.png,I,m,760,16,1,1776.5,196030.8999999985,8034,NNB,A,15
15,test,1,0.0,1-Back,1,m,Fri Mar 28 2025 15:42:10 GMT-0500 (Central Daylight Time),199473.59999999404,046_o_m_n_a.png,I,m,633,17,1,1660.2999999970198,197813.29999999702,8034,NNB,A,16
16,test,1,0.0,1-Back,1,m,Fri Mar 28 2025 15:42:10 GMT-0500 (Central Daylight Time),201339.69999999553,050_m_f_n_a.png,I,m,846,18,1,1860.0,199479.69999999553,8034,NNB,A,17
0,test,2,0.0,1-Back,,,Fri Mar 28 2025 15:42:10 GMT-0500 (Central Daylight Time),201339.69999999553,058_m_m_n_a.png,I,space,2245,1,1,1860.0,199479.69999999553,8034,NNB,A,0
1,test,2,0.0,1-Back,1,m,Fri Mar 28 2025 15:42:10 GMT-0500 (Central Daylight Time),207604.5,043_m_f_n_a.png,I,m,980,2,1,1993.2000000029802,205611.29999999702,8034,NNB,A,1
2,test,2,1.0,1-Back,1,z,Fri Mar 28 2025 15:42:10 GMT-0500 (Central Daylight Time),209337.19999999553,043_m_f_n_a.png,I,z,701,3,1,1726.8999999985099,207610.29999999702,8034,NNB,A,2
3,test,2,0.0,1-Back,1,m,Fri Mar 28 2025 15:42:10 GMT-0500 (Central Daylight Time),211020.0,058_m_m_n_a.png,I,m,664,4,1,1677.0,209343.0,8034,NNB,A,3
4,test,2,0.0,1-Back,1,m,Fri Mar 28 2025 15:42:10 GMT-0500 (Central Daylight Time),212686.19999999553,041_y_m_n_a.png,I,m,636,5,1,1660.1999999955297,211026.0,8034,NNB,A,4
5,test,2,0.0,1-Back,1,m,Fri Mar 28 2025 15:42:10 GMT-0500 (Central Daylight Time),214352.29999999702,063_y_f_n_a.png,I,m,634,6,1,1659.7000000029802,212692.59999999404,8034,NNB,A,5
6,test,2,1.0,1-Back,1,z,Fri Mar 28 2025 15:42:10 GMT-0500 (Central Daylight Time),216085.29999999702,063_y_f_n_a.png,I,z,705,7,1,1727.0,214358.29999999702,8034,NNB,A,6
7,test,2,0.0,1-Back,1,m,Fri Mar 28 2025 15:42:10 GMT-0500 (Central Daylight Time),217990.69999999553,041_y_m_n_a.png,I,m,888,8,1,1899.1999999955297,216091.5,8034,NNB,A,7
8,test,2,0.0,1-Back,1,m,Fri Mar 28 2025 15:42:10 GMT-0500 (Central Daylight Time),219900.59999999404,044_o_f_n_a.png,I,m,897,9,1,1903.7999999970198,217996.79999999702,8034,NNB,A,8
9,test,2,0.0,1-Back,1,m,Fri Mar 28 2025 15:42:10 GMT-0500 (Central Daylight Time),221650.0,045_m_m_n_a.png,I,m,717,10,1,1742.9000000059605,219907.09999999404,8034,NNB,A,9
10,test,2,1.0,1-Back,1,z,Fri Mar 28 2025 15:42:10 GMT-0500 (Central Daylight Time),223382.79999999702,045_m_m_n_a.png,I,z,710,11,1,1726.3999999985099,221656.3999999985,8034,NNB,A,10
11,test,2,0.0,1-Back,1,m,Fri Mar 28 2025 15:42:10 GMT-0500 (Central Daylight Time),225148.79999999702,044_o_f_n_a.png,I,m,737,12,1,1760.2999999970198,223388.5,8034,NNB,A,11
12,test,2,0.0,1-Back,1,m,Fri Mar 28 2025 15:42:10 GMT-0500 (Central Daylight Time),226748.5,047_o_f_n_a.png,I,m,572,13,1,1593.9000000059605,225154.59999999404,8034,NNB,A,12
13,test,2,0.0,1-Back,1,m,Fri Mar 28 2025 15:42:10 GMT-0500 (Central Daylight Time),228747.8999999985,053_o_m_n_a.png,I,m,973,14,1,1993.5,226754.3999999985,8034,NNB,A,13
14,test,2,0.0,1-Back,1,m,Fri Mar 28 2025 15:42:10 GMT-0500 (Central Daylight Time),230430.59999999404,046_o_m_n_a.png,I,m,661,15,1,1677.0,228753.59999999404,8034,NNB,A,14
15,test,2,1.0,1-Back,1,z,Fri Mar 28 2025 15:42:10 GMT-0500 (Central Daylight Time),232329.8999999985,046_o_m_n_a.png,I,z,866,16,1,1893.7000000029802,230436.19999999553,8034,NNB,A,15
16,test,2,0.0,1-Back,1,m,Fri Mar 28 2025 15:42:10 GMT-0500 (Central Daylight Time),234012.79999999702,008_y_m_n_a.png,I,m,663,17,1,1676.8999999985099,232335.8999999985,8034,NNB,A,16
17,test,2,1.0,1-Back,1,z,Fri Mar 28 2025 15:42:10 GMT-0500 (Central Daylight Time),235828.8999999985,008_y_m_n_a.png,I,z,788,18,1,1810.1000000014901,234018.79999999702,8034,NNB,A,17
0,test,3,1.0,1-Back,,,Fri Mar 28 2025 15:42:10 GMT-0500 (Central Daylight Time),235828.8999999985,010_y_f_n_a.png,I,space,1612,1,1,1810.1000000014901,234018.79999999702,8034,NNB,A,0
1,test,3,0.0,1-Back,1,m,Fri Mar 28 2025 15:42:10 GMT-0500 (Central Daylight Time),241194.09999999404,046_o_m_n_a.png,I,m,650,2,1,1677.5,239516.59999999404,8034,NNB,A,1
2,test,3,1.0,1-Back,1,z,Fri Mar 28 2025 15:42:10 GMT-0500 (Central Daylight Time),243409.79999999702,046_o_m_n_a.png,I,z,1183,3,1,2209.7999999970198,241200.0,8034,NNB,A,2
3,test,3,0.0,1-Back,1,m,Fri Mar 28 2025 15:42:10 GMT-0500 (Central Daylight Time),245026.0,050_m_f_n_a.png,I,m,590,4,1,1610.0,243416.0,8034,NNB,A,3
4,test,3,1.0,1-Back,1,z,Fri Mar 28 2025 15:42:10 GMT-0500 (Central Daylight Time),246759.0,050_m_f_n_a.png,I,z,711,5,1,1726.6000000014901,245032.3999999985,8034,NNB,A,4
5,test,3,0.0,1-Back,1,m,Fri Mar 28 2025 15:42:10 GMT-0500 (Central Daylight Time),248741.79999999702,044_o_f_n_a.png,I,m,963,6,1,1976.8999999985099,246764.8999999985,8034,NNB,A,5
6,test,3,0.0,1-Back,1,m,Fri Mar 28 2025 15:42:10 GMT-0500 (Central Daylight Time),250524.19999999553,041_y_m_n_a.png,I,m,756,7,1,1776.2999999970198,248747.8999999985,8034,NNB,A,6
7,test,3,0.0,1-Back,1,m,Fri Mar 28 2025 15:42:10 GMT-0500 (Central Daylight Time),252507.0,044_o_f_n_a.png,I,m,965,8,1,1976.5,250530.5,8034,NNB,A,7
8,test,3,0.0,1-Back,1,m,Fri Mar 28 2025 15:42:10 GMT-0500 (Central Daylight Time),254256.5,008_y_m_n_a.png,I,m,717,9,1,1743.2000000029802,252513.29999999702,8034,NNB,A,8
9,test,3,1.0,1-Back,1,z,Fri Mar 28 2025 15:42:10 GMT-0500 (Central Daylight Time),256172.69999999553,008_y_m_n_a.png,I,z,897,10,1,1910.1999999955297,254262.5,8034,NNB,A,9
10,test,3,0.0,1-Back,1,m,Fri Mar 28 2025 15:42:10 GMT-0500 (Central Daylight Time),257822.09999999404,043_m_f_n_a.png,I,m,629,11,1,1642.7999999970198,256179.29999999702,8034,NNB,A,10
11,test,3,0.0,1-Back,1,m,Fri Mar 28 2025 15:42:10 GMT-0500 (Central Daylight Time),259522.0,063_y_f_n_a.png,I,m,683,12,1,1692.8000000044703,257829.19999999553,8034,NNB,A,11
12,test,3,1.0,1-Back,1,z,Fri Mar 28 2025 15:42:10 GMT-0500 (Central Daylight Time),261654.29999999702,063_y_f_n_a.png,I,z,1104,13,1,2125.7000000029802,259528.59999999404,8034,NNB,A,12
13,test,3,0.0,1-Back,1,m,Fri Mar 28 2025 15:42:10 GMT-0500 (Central Daylight Time),263670.09999999404,043_m_f_n_a.png,I,m,994,14,1,2009.5,261660.59999999404,8034,NNB,A,13
14,test,3,0.0,1-Back,1,m,Fri Mar 28 2025 15:42:10 GMT-0500 (Central Daylight Time),265319.69999999553,058_m_m_n_a.png,I,m,627,15,1,1643.6000000014901,263676.09999999404,8034,NNB,A,14
15,test,3,1.0,1-Back,1,z,Fri Mar 28 2025 15:42:10 GMT-0500 (Central Daylight Time),267085.799999997,058_m_m_n_a.png,I,z,746,16,1,1760.0,265325.799999997,8034,NNB,A,15
16,test,3,0.0,1-Back,1,m,Fri Mar 28 2025 15:42:10 GMT-0500 (Central Daylight Time),268702.0,047_o_f_n_a.png,I,m,588,17,1,1609.8000000044703,267092.19999999553,8034,NNB,A,16
17,test,3,1.0,1-Back,1,z,Fri Mar 28 2025 15:42:10 GMT-0500 (Central Daylight Time),270351.3999999985,047_o_f_n_a.png,I,z,627,18,1,1643.0,268708.3999999985,8034,NNB,A,17
0,test,4,1.0,1-Back,,,Fri Mar 28 2025 15:42:10 GMT-0500 (Central Daylight Time),270351.3999999985,050_m_f_n_a.png,I,space,1562,1,1,1643.0,268708.3999999985,8034,NNB,A,0
1,test,4,0.0,1-Back,1,m,Fri Mar 28 2025 15:42:10 GMT-0500 (Central Daylight Time),275733.19999999553,046_o_m_n_a.png,I,m,779,2,1,1793.5,273939.69999999553,8034,NNB,A,1
1,test,4,0.0,1-Back,0,m,Fri Mar 28 2025 15:42:10 GMT-0500 (Central Daylight Time),277682.59999999404,050_m_f_n_a.png,I,z,932,3,1,1942.5999999940395,275740.0,8034,NNB,A,2
2,test,4,0.0,1-Back,1,m,Fri Mar 28 2025 15:42:10 GMT-0500 (Central Daylight Time),279381.8999999985,044_o_f_n_a.png,I,m,670,4,1,1693.0,277688.8999999985,8034,NNB,A,3
3,test,4,1.0,1-Back,1,z,Fri Mar 28 2025 15:42:10 GMT-0500 (Central Daylight Time),281098.0,044_o_f_n_a.png,I,z,699,5,1,1710.2000000029802,279387.799999997,8034,NNB,A,4
4,test,4,0.0,1-Back,1,m,Fri Mar 28 2025 15:42:10 GMT-0500 (Central Daylight Time),282797.59999999404,063_y_f_n_a.png,I,m,679,6,1,1693.1999999955297,281104.3999999985,8034,NNB,A,5
5,test,4,0.0,1-Back,1,m,Fri Mar 28 2025 15:42:10 GMT-0500 (Central Daylight Time),284547.0,041_y_m_n_a.png,I,m,731,7,1,1743.4000000059605,282803.59999999404,8034,NNB,A,6
6,test,4,1.0,1-Back,1,z,Fri Mar 28 2025 15:42:10 GMT-0500 (Central Daylight Time),286313.09999999404,041_y_m_n_a.png,I,z,742,8,1,1760.0,284553.09999999404,8034,NNB,A,7
7,test,4,0.0,1-Back,1,m,Fri Mar 28 2025 15:42:10 GMT-0500 (Central Daylight Time),288145.799999997,063_y_f_n_a.png,I,m,800,9,1,1826.2000000029802,286319.59999999404,8034,NNB,A,8
8,test,4,0.0,1-Back,1,m,Fri Mar 28 2025 15:42:10 GMT-0500 (Central Daylight Time),289828.59999999404,045_m_m_n_a.png,I,m,662,10,1,1676.7999999970198,288151.799999997,8034,NNB,A,9
9,test,4,1.0,1-Back,1,z,Fri Mar 28 2025 15:42:10 GMT-0500 (Central Daylight Time),291778.09999999404,045_m_m_n_a.png,I,z,933,11,1,1943.5999999940395,289834.5,8034,NNB,A,10
10,test,4,0.0,1-Back,1,m,Fri Mar 28 2025 15:42:10 GMT-0500 (Central Daylight Time),293444.09999999404,047_o_f_n_a.png,I,m,638,12,1,1660.1999999955297,291783.8999999985,8034,NNB,A,11
11,test,4,0.0,1-Back,1,m,Fri Mar 28 2025 15:42:10 GMT-0500 (Central Daylight Time),295177.09999999404,053_o_m_n_a.png,I,m,709,13,1,1726.3999999985099,293450.69999999553,8034,NNB,A,12
12,test,4,0.0,1-Back,1,m,Fri Mar 28 2025 15:42:10 GMT-0500 (Central Daylight Time),297476.299999997,047_o_f_n_a.png,I,m,1272,14,1,2293.5,295182.799999997,8034,NNB,A,13
13,test,4,0.0,1-Back,1,m,Fri Mar 28 2025 15:42:10 GMT-0500 (Central Daylight Time),299226.3999999985,010_y_f_n_a.png,I,m,733,15,1,1743.8999999985099,297482.5,8034,NNB,A,14
14,test,4,1.0,1-Back,1,z,Fri Mar 28 2025 15:42:10 GMT-0500 (Central Daylight Time),300858.5,010_y_f_n_a.png,I,z,606,16,1,1626.0,299232.5,8034,NNB,A,15
15,test,4,0.0,1-Back,1,m,Fri Mar 28 2025 15:42:10 GMT-0500 (Central Daylight Time),302624.69999999553,043_m_f_n_a.png,I,m,735,17,1,1759.8999999985099,300864.799999997,8034,NNB,A,16
16,test,4,1.0,1-Back,1,z,Fri Mar 28 2025 15:42:10 GMT-0500 (Central Daylight Time),304424.0,043_m_f_n_a.png,I,z,769,18,1,1792.9000000059605,302631.09999999404,8034,NNB,A,17
0,test,5,1.0,1-Back,,,Fri Mar 28 2025 15:42:10 GMT-0500 (Central Daylight Time),304424.0,053_o_m_n_a.png,I,space,1968,1,1,1792.9000000059605,302631.09999999404,8034,NNB,A,0
1,test,5,1.0,1-Back,1,z,Fri Mar 28 2025 15:42:10 GMT-0500 (Central Daylight Time),310905.5,053_o_m_n_a.png,I,z,1451,2,1,2476.8000000044703,308428.69999999553,8034,NNB,A,1
2,test,5,0.0,1-Back,1,m,Fri Mar 28 2025 15:42:10 GMT-0500 (Central Daylight Time),312738.09999999404,063_y_f_n_a.png,I,m,783,3,1,1826.5,310911.59999999404,8034,NNB,A,2
3,test,5,0.0,1-Back,1,m,Fri Mar 28 2025 15:42:10 GMT-0500 (Central Daylight Time),314387.59999999404,041_y_m_n_a.png,I,m,622,4,1,1643.3999999985099,312744.19999999553,8034,NNB,A,3
4,test,5,0.0,1-Back,1,m,Fri Mar 28 2025 15:42:10 GMT-0500 (Central Daylight Time),316253.799999997,063_y_f_n_a.png,I,m,845,5,1,1859.8999999985099,314393.8999999985,8034,NNB,A,4
5,test,5,0.0,1-Back,1,m,Fri Mar 28 2025 15:42:10 GMT-0500 (Central Daylight Time),317986.5,058_m_m_n_a.png,I,m,708,6,1,1726.4000000059605,316260.09999999404,8034,NNB,A,5
5,test,5,1.0,1-Back,0,z,Fri Mar 28 2025 15:42:10 GMT-0500 (Central Daylight Time),319969.299999997,058_m_m_n_a.png,I,m,951,7,1,1977.2000000029802,317992.09999999404,8034,NNB,A,6
6,test,5,0.0,1-Back,1,m,Fri Mar 28 2025 15:42:10 GMT-0500 (Central Daylight Time),321735.299999997,010_y_f_n_a.png,I,m,744,8,1,1759.2999999970198,319976.0,8034,NNB,A,7
7,test,5,0.0,1-Back,1,m,Fri Mar 28 2025 15:42:10 GMT-0500 (Central Daylight Time),323401.8999999985,008_y_m_n_a.png,I,m,650,9,1,1660.7000000029802,321741.19999999553,8034,NNB,A,8
8,test,5,0.0,1-Back,1,m,Fri Mar 28 2025 15:42:10 GMT-0500 (Central Daylight Time),325434.0,010_y_f_n_a.png,I,m,1015,10,1,2026.2000000029802,323407.799999997,8034,NNB,A,9
9,test,5,0.0,1-Back,1,m,Fri Mar 28 2025 15:42:10 GMT-0500 (Central Daylight Time),327217.09999999404,047_o_f_n_a.png,I,m,751,11,1,1776.5999999940395,325440.5,8034,NNB,A,10
10,test,5,1.0,1-Back,1,z,Fri Mar 28 2025 15:42:10 GMT-0500 (Central Daylight Time),329149.59999999404,047_o_f_n_a.png,I,z,903,12,1,1925.8999999985099,327223.69999999553,8034,NNB,A,11
11,test,5,0.0,1-Back,1,m,Fri Mar 28 2025 15:42:10 GMT-0500 (Central Daylight Time),330849.09999999404,046_o_m_n_a.png,I,m,676,13,1,1693.6999999955297,329155.3999999985,8034,NNB,A,12
12,test,5,0.0,1-Back,1,m,Fri Mar 28 2025 15:42:10 GMT-0500 (Central Daylight Time),332581.8999999985,050_m_f_n_a.png,I,m,712,14,1,1726.5,330855.3999999985,8034,NNB,A,13
13,test,5,1.0,1-Back,1,z,Fri Mar 28 2025 15:42:10 GMT-0500 (Central Daylight Time),334248.19999999553,050_m_f_n_a.png,I,z,642,15,1,1660.1000000014901,332588.09999999404,8034,NNB,A,14
14,test,5,0.0,1-Back,1,m,Fri Mar 28 2025 15:42:10 GMT-0500 (Central Daylight Time),335964.09999999404,046_o_m_n_a.png,I,m,697,16,1,1709.3999999985099,334254.69999999553,8034,NNB,A,15
15,test,5,0.0,1-Back,1,m,Fri Mar 28 2025 15:42:10 GMT-0500 (Central Daylight Time),337613.69999999553,043_m_f_n_a.png,I,m,620,17,1,1643.6999999955297,335970.0,8034,NNB,A,16
16,test,5,0.0,1-Back,1,m,Fri Mar 28 2025 15:42:10 GMT-0500 (Central Daylight Time),339246.5,045_m_m_n_a.png,I,m,612,18,1,1626.8000000044703,337619.69999999553,8034,NNB,A,17
0,prac,1,0.0,2-Back,,,Fri Mar 28 2025 15:42:10 GMT-0500 (Central Daylight Time),339246.5,008_y_m_n_a.png,I,space,6271,1,1,1626.8000000044703,337619.69999999553,8034,NNB,A,0
0,prac,1,0.0,2-Back,,,Fri Mar 28 2025 15:42:10 GMT-0500 (Central Daylight Time),339246.5,043_m_f_n_a.png,I,space,6271,2,1,1626.8000000044703,337619.69999999553,8034,NNB,A,0
0,prac,1,1.0,2-Back,0,m,Fri Mar 28 2025 15:42:10 GMT-0500 (Central Daylight Time),551580.299999997,046_o_m_n_a.png,I,None,2003,3,1,2807.89999999851,548772.3999999985,8034,NNB,A,1
0,prac,1,0.0,2-Back,0,m,Fri Mar 28 2025 15:42:10 GMT-0500 (Central Daylight Time),554429.1999999955,047_o_f_n_a.png,I,None,2012,4,1,2840.7999999970198,551588.3999999985,8034,NNB,A,2
1,prac,1,0.0,2-Back,1,z,Fri Mar 28 2025 15:42:10 GMT-0500 (Central Daylight Time),556178.599999994,046_o_m_n_a.png,I,z,965,5,1,1742.2999999970198,554436.299999997,8034,NNB,A,3
1,prac,1,1.0,2-Back,0,z,Fri Mar 28 2025 15:42:10 GMT-0500 (Central Daylight Time),558961.0,047_o_f_n_a.png,I,None,2009,6,1,2775.5,556185.5,8034,NNB,A,4
2,prac,1,0.0,2-Back,1,m,Fri Mar 28 2025 15:42:10 GMT-0500 (Central Daylight Time),561510.299999997,045_m_m_n_a.png,I,m,1736,7,1,2541.60000000149,558968.6999999955,8034,NNB,A,5
3,prac,1,0.0,2-Back,1,m,Fri Mar 28 2025 15:42:10 GMT-0500 (Central Daylight Time),563393.0,053_o_m_n_a.png,I,m,1074,8,1,1875.4000000059605,561517.599999994,8034,NNB,A,6
4,prac,1,0.0,2-Back,1,m,Fri Mar 28 2025 15:42:10 GMT-0500 (Central Daylight Time),565025.799999997,010_y_f_n_a.png,I,m,802,9,1,1625.6000000014901,563400.1999999955,8034,NNB,A,7
5,prac,1,1.0,2-Back,1,z,Fri Mar 28 2025 15:42:10 GMT-0500 (Central Daylight Time),566725.1999999955,053_o_m_n_a.png,I,z,913,10,1,1692.2999999970198,565032.8999999985,8034,NNB,A,8
6,prac,1,0.0,2-Back,1,m,Fri Mar 28 2025 15:42:10 GMT-0500 (Central Daylight Time),568324.6999999955,063_y_f_n_a.png,I,m,786,11,1,1591.8999999985099,566732.799999997,8034,NNB,A,9
7,prac,1,0.0,2-Back,1,m,Fri Mar 28 2025 15:42:10 GMT-0500 (Central Daylight Time),569990.8999999985,045_m_m_n_a.png,I,m,885,12,1,1659.2000000029802,568331.6999999955,8034,NNB,A,10
0,test,1,0.0,2-Back,,,Fri Mar 28 2025 15:42:10 GMT-0500 (Central Daylight Time),569990.8999999985,041_y_m_n_a.png,I,space,10379,1,1,1659.2000000029802,568331.6999999955,8034,NNB,A,0
0,test,1,0.0,2-Back,,,Fri Mar 28 2025 15:42:10 GMT-0500 (Central Daylight Time),569990.8999999985,041_y_m_n_a.png,I,space,10379,2,1,1659.2000000029802,568331.6999999955,8034,NNB,A,0
1,test,1,0.0,2-Back,1,m,Fri Mar 28 2025 15:42:10 GMT-0500 (Central Daylight Time),606546.599999994,047_o_f_n_a.png,I,m,900,3,1,1926.5,604620.099999994,8034,NNB,A,1
1,test,1,0.0,2-Back,0,m,Fri Mar 28 2025 15:42:10 GMT-0500 (Central Daylight Time),609578.8999999985,058_m_m_n_a.png,I,None,2016,4,1,3026.2000000029802,606552.6999999955,8034,NNB,A,2
2,test,1,1.0,2-Back,1,z,Fri Mar 28 2025 15:42:10 GMT-0500 (Central Daylight Time),611511.6999999955,047_o_f_n_a.png,I,z,910,5,1,1926.7999999970198,609584.8999999985,8034,NNB,A,3
3,test,1,0.0,2-Back,1,m,Fri Mar 28 2025 15:42:10 GMT-0500 (Central Daylight Time),613277.799999997,063_y_f_n_a.png,I,m,737,6,1,1760.0,611517.799999997,8034,NNB,A,4
3,test,1,0.0,2-Back,0,m,Fri Mar 28 2025 15:42:10 GMT-0500 (Central Daylight Time),615027.099999994,058_m_m_n_a.png,I,z,723,7,1,1743.1999999955297,613283.8999999985,8034,NNB,A,5
4,test,1,1.0,2-Back,1,z,Fri Mar 28 2025 15:42:10 GMT-0500 (Central Daylight Time),617226.299999997,063_y_f_n_a.png,I,z,1166,8,1,2193.10000000149,615033.1999999955,8034,NNB,A,6
5,test,1,0.0,2-Back,1,m,Fri Mar 28 2025 15:42:10 GMT-0500 (Central Daylight Time),619842.3999999985,008_y_m_n_a.png,I,m,1583,9,1,2610.0,617232.3999999985,8034,NNB,A,7
6,test,1,0.0,2-Back,1,m,Fri Mar 28 2025 15:42:10 GMT-0500 (Central Daylight Time),622524.799999997,044_o_f_n_a.png,I,m,1663,10,1,2676.5,619848.299999997,8034,NNB,A,8
7,test,1,1.0,2-Back,1,z,Fri Mar 28 2025 15:42:10 GMT-0500 (Central Daylight Time),624274.3999999985,008_y_m_n_a.png,I,z,724,11,1,1743.8000000044703,622530.599999994,8034,NNB,A,9
8,test,1,0.0,2-Back,1,m,Fri Mar 28 2025 15:42:10 GMT-0500 (Central Daylight Time),626190.0,043_m_f_n_a.png,I,m,895,12,1,1909.4000000059605,624280.599999994,8034,NNB,A,10
8,test,1,0.0,2-Back,0,m,Fri Mar 28 2025 15:42:10 GMT-0500 (Central Daylight Time),628324.3999999985,043_m_f_n_a.png,I,z,1115,13,1,2128.2000000029802,626196.1999999955,8034,NNB,A,11
9,test,1,0.0,2-Back,1,m,Fri Mar 28 2025 15:42:10 GMT-0500 (Central Daylight Time),630705.799999997,046_o_m_n_a.png,I,m,1350,14,1,2375.39999999851,628330.3999999985,8034,NNB,A,12
10,test,1,0.0,2-Back,1,m,Fri Mar 28 2025 15:42:10 GMT-0500 (Central Daylight Time),633088.1999999955,044_o_f_n_a.png,I,m,1352,15,1,2376.5,630711.6999999955,8034,NNB,A,13
11,test,1,1.0,2-Back,1,z,Fri Mar 28 2025 15:42:10 GMT-0500 (Central Daylight Time),634754.1999999955,046_o_m_n_a.png,I,z,649,16,1,1659.6999999955297,633094.5,8034,NNB,A,14
12,test,1,0.0,2-Back,1,m,Fri Mar 28 2025 15:42:10 GMT-0500 (Central Daylight Time),636870.099999994,050_m_f_n_a.png,I,m,1087,17,1,2109.5,634760.599999994,8034,NNB,A,15
13,test,1,0.0,2-Back,1,m,Fri Mar 28 2025 15:42:10 GMT-0500 (Central Daylight Time),639469.299999997,045_m_m_n_a.png,I,m,1571,18,1,2592.89999999851,636876.3999999985,8034,NNB,A,16
0,test,2,0.0,2-Back,,,Fri Mar 28 2025 15:42:10 GMT-0500 (Central Daylight Time),639469.299999997,045_m_m_n_a.png,I,space,2022,1,1,2592.89999999851,636876.3999999985,8034,NNB,A,0
0,test,2,0.0,2-Back,,,Fri Mar 28 2025 15:42:10 GMT-0500 (Central Daylight Time),639469.299999997,010_y_f_n_a.png,I,space,2022,2,1,2592.89999999851,636876.3999999985,8034,NNB,A,0
1,test,2,1.0,2-Back,1,z,Fri Mar 28 2025 15:42:10 GMT-0500 (Central Daylight Time),648200.0,045_m_m_n_a.png,I,z,577,3,1,1593.4000000059605,646606.599999994,8034,NNB,A,1
2,test,2,0.0,2-Back,1,m,Fri Mar 28 2025 15:42:10 GMT-0500 (Central Daylight Time),649933.0,050_m_f_n_a.png,I,m,705,4,1,1727.0,648206.0,8034,NNB,A,2
2,test,2,0.0,2-Back,0,m,Fri Mar 28 2025 15:42:10 GMT-0500 (Central Daylight Time),651615.6999999955,010_y_f_n_a.png,I,z,652,5,1,1677.0,649938.6999999955,8034,NNB,A,3
3,test,2,0.0,2-Back,1,m,Fri Mar 28 2025 15:42:10 GMT-0500 (Central Daylight Time),653481.799999997,046_o_m_n_a.png,I,m,842,6,1,1859.5,651622.299999997,8034,NNB,A,4
4,test,2,0.0,2-Back,1,m,Fri Mar 28 2025 15:42:10 GMT-0500 (Central Daylight Time),655697.799999997,063_y_f_n_a.png,I,m,1183,7,1,2209.89999999851,653487.8999999985,8034,NNB,A,5
5,test,2,1.0,2-Back,1,z,Fri Mar 28 2025 15:42:10 GMT-0500 (Central Daylight Time),657463.799999997,046_o_m_n_a.png,I,z,734,8,1,1760.0,655703.799999997,8034,NNB,A,6
6,test,2,0.0,2-Back,1,m,Fri Mar 28 2025 15:42:10 GMT-0500 (Central Daylight Time),659380.0,008_y_m_n_a.png,I,m,888,9,1,1909.5,657470.5,8034,NNB,A,7
6,test,2,0.0,2-Back,0,m,Fri Mar 28 2025 15:42:10 GMT-0500 (Central Daylight Time),661679.1999999955,008_y_m_n_a.png,I,z,1269,10,1,2293.10000000149,659386.099999994,8034,NNB,A,8
7,test,2,0.0,2-Back,1,m,Fri Mar 28 2025 15:42:10 GMT-0500 (Central Daylight Time),663761.599999994,043_m_f_n_a.png,I,m,1058,11,1,2075.0,661686.599999994,8034,NNB,A,9
8,test,2,0.0,2-Back,1,m,Fri Mar 28 2025 15:42:10 GMT-0500 (Central Daylight Time),666627.599999994,010_y_f_n_a.png,I,m,1719,12,1,2860.0999999940395,663767.5,8034,NNB,A,10
9,test,2,1.0,2-Back,1,z,Fri Mar 28 2025 15:42:10 GMT-0500 (Central Daylight Time),668210.299999997,043_m_f_n_a.png,I,z,558,13,1,1576.2000000029802,666634.099999994,8034,NNB,A,11
10,test,2,0.0,2-Back,1,m,Fri Mar 28 2025 15:42:10 GMT-0500 (Central Daylight Time),670444.1999999955,053_o_m_n_a.png,I,m,1215,14,1,2227.6999999955297,668216.5,8034,NNB,A,12
11,test,2,0.0,2-Back,1,m,Fri Mar 28 2025 15:42:10 GMT-0500 (Central Daylight Time),672775.799999997,053_o_m_n_a.png,I,m,1309,15,1,2325.0,670450.799999997,8034,NNB,A,13
12,test,2,0.0,2-Back,1,m,Fri Mar 28 2025 15:42:10 GMT-0500 (Central Daylight Time),674675.0,044_o_f_n_a.png,I,m,874,16,1,1893.0,672782.0,8034,NNB,A,14
13,test,2,0.0,2-Back,1,m,Fri Mar 28 2025 15:42:10 GMT-0500 (Central Daylight Time),676641.3999999985,058_m_m_n_a.png,I,m,942,17,1,1960.2000000029802,674681.1999999955,8034,NNB,A,15
13,test,2,1.0,2-Back,0,z,Fri Mar 28 2025 15:42:10 GMT-0500 (Central Daylight Time),678690.3999999985,044_o_f_n_a.png,I,m,1024,18,1,2043.0,676647.3999999985,8034,NNB,A,16
0,test,3,1.0,2-Back,,,Fri Mar 28 2025 15:42:10 GMT-0500 (Central Daylight Time),678690.3999999985,041_y_m_n_a.png,I,space,3775,1,1,2043.0,676647.3999999985,8034,NNB,A,0
0,test,3,1.0,2-Back,,,Fri Mar 28 2025 15:42:10 GMT-0500 (Central Daylight Time),678690.3999999985,041_y_m_n_a.png,I,space,3775,2,1,2043.0,676647.3999999985,8034,NNB,A,0
1,test,3,0.0,2-Back,1,m,Fri Mar 28 2025 15:42:10 GMT-0500 (Central Daylight Time),690170.5,044_o_f_n_a.png,I,m,1591,3,1,2627.2000000029802,687543.299999997,8034,NNB,A,1
2,test,3,0.0,2-Back,1,m,Fri Mar 28 2025 15:42:10 GMT-0500 (Central Daylight Time),692019.6999999955,045_m_m_n_a.png,I,m,831,4,1,1843.1000000014901,690176.599999994,8034,NNB,A,2
3,test,3,1.0,2-Back,1,z,Fri Mar 28 2025 15:42:10 GMT-0500 (Central Daylight Time),693719.0,044_o_f_n_a.png,I,z,669,5,1,1693.1000000014901,692025.8999999985,8034,NNB,A,3
4,test,3,0.0,2-Back,1,m,Fri Mar 28 2025 15:42:10 GMT-0500 (Central Daylight Time),695885.099999994,008_y_m_n_a.png,I,m,1138,6,1,2159.89999999851,693725.1999999955,8034,NNB,A,4
4,test,3,0.0,2-Back,0,m,Fri Mar 28 2025 15:42:10 GMT-0500 (Central Daylight Time),697568.099999994,045_m_m_n_a.png,I,z,660,7,1,1677.0999999940395,695891.0,8034,NNB,A,5
4,test,3,1.0,2-Back,0,z,Fri Mar 28 2025 15:42:10 GMT-0500 (Central Daylight Time),699783.799999997,008_y_m_n_a.png,I,m,1185,8,1,2209.39999999851,697574.3999999985,8034,NNB,A,6
5,test,3,0.0,2-Back,1,m,Fri Mar 28 2025 15:42:10 GMT-0500 (Central Daylight Time),701666.6999999955,010_y_f_n_a.png,I,m,865,9,1,1876.1000000014901,699790.599999994,8034,NNB,A,7
5,test,3,0.0,2-Back,0,m,Fri Mar 28 2025 15:42:10 GMT-0500 (Central Daylight Time),703632.599999994,058_m_m_n_a.png,I,z,935,10,1,1959.3999999985099,701673.1999999955,8034,NNB,A,8
6,test,3,1.0,2-Back,1,z,Fri Mar 28 2025 15:42:10 GMT-0500 (Central Daylight Time),705482.0,010_y_f_n_a.png,I,z,824,11,1,1843.0,703639.0,8034,NNB,A,9
6,test,3,1.0,2-Back,0,z,Fri Mar 28 2025 15:42:10 GMT-0500 (Central Daylight Time),707248.1999999955,058_m_m_n_a.png,I,m,735,12,1,1759.6000000014901,705488.599999994,8034,NNB,A,10
7,test,3,0.0,2-Back,1,m,Fri Mar 28 2025 15:42:10 GMT-0500 (Central Daylight Time),709347.3999999985,044_o_f_n_a.png,I,m,1073,13,1,2092.39999999851,707255.0,8034,NNB,A,11
8,test,3,0.0,2-Back,1,m,Fri Mar 28 2025 15:42:10 GMT-0500 (Central Daylight Time),711447.0,050_m_f_n_a.png,I,m,1078,14,1,2093.3000000044703,709353.6999999955,8034,NNB,A,12
9,test,3,0.0,2-Back,1,m,Fri Mar 28 2025 15:42:10 GMT-0500 (Central Daylight Time),713329.799999997,046_o_m_n_a.png,I,m,857,15,1,1876.8999999985099,711452.8999999985,8034,NNB,A,13
10,test,3,1.0,2-Back,1,z,Fri Mar 28 2025 15:42:10 GMT-0500 (Central Daylight Time),714995.6999999955,050_m_f_n_a.png,I,z,648,16,1,1660.0,713335.6999999955,8034,NNB,A,14
11,test,3,0.0,2-Back,1,m,Fri Mar 28 2025 15:42:10 GMT-0500 (Central Daylight Time),717111.8999999985,047_o_f_n_a.png,I,m,1093,17,1,2110.2000000029802,715001.6999999955,8034,NNB,A,15
11,test,3,0.0,2-Back,0,m,Fri Mar 28 2025 15:42:10 GMT-0500 (Central Daylight Time),718994.5,047_o_f_n_a.png,I,z,866,18,1,1876.8000000044703,717117.6999999955,8034,NNB,A,16
0,test,4,0.0,2-Back,,,Fri Mar 28 2025 15:42:10 GMT-0500 (Central Daylight Time),718994.5,053_o_m_n_a.png,I,space,1287,1,1,1876.8000000044703,717117.6999999955,8034,NNB,A,0
0,test,4,0.0,2-Back,,,Fri Mar 28 2025 15:42:10 GMT-0500 (Central Daylight Time),718994.5,063_y_f_n_a.png,I,space,1287,2,1,1876.8000000044703,717117.6999999955,8034,NNB,A,0
1,test,4,1.0,2-Back,1,z,Fri Mar 28 2025 15:42:10 GMT-0500 (Central Daylight Time),727242.099999994,053_o_m_n_a.png,I,z,832,3,1,1843.1999999955297,725398.8999999985,8034,NNB,A,1
2,test,4,1.0,2-Back,1,z,Fri Mar 28 2025 15:42:10 GMT-0500 (Central Daylight Time),729407.6999999955,063_y_f_n_a.png,I,z,1143,4,1,2159.39999999851,727248.299999997,8034,NNB,A,2
3,test,4,0.0,2-Back,1,m,Fri Mar 28 2025 15:42:10 GMT-0500 (Central Daylight Time),731524.0,044_o_f_n_a.png,I,m,1089,5,1,2109.5,729414.5,8034,NNB,A,3
3,test,4,0.0,2-Back,0,m,Fri Mar 28 2025 15:42:10 GMT-0500 (Central Daylight Time),733523.3999999985,044_o_f_n_a.png,I,z,973,6,1,1992.8000000044703,731530.599999994,8034,NNB,A,4
4,test,4,0.0,2-Back,1,m,Fri Mar 28 2025 15:42:10 GMT-0500 (Central Daylight Time),735615.3999999985,043_m_f_n_a.png,I,m,1075,7,1,2086.0,733529.3999999985,8034,NNB,A,5
5,test,4,0.0,2-Back,1,m,Fri Mar 28 2025 15:42:10 GMT-0500 (Central Daylight Time),737488.8999999985,008_y_m_n_a.png,I,m,834,8,1,1866.8999999985099,735622.0,8034,NNB,A,6
6,test,4,1.0,2-Back,1,z,Fri Mar 28 2025 15:42:10 GMT-0500 (Central Daylight Time),739255.099999994,043_m_f_n_a.png,I,z,737,9,1,1760.0999999940395,737495.0,8034,NNB,A,7
7,test,4,0.0,2-Back,1,m,Fri Mar 28 2025 15:42:10 GMT-0500 (Central Daylight Time),741270.799999997,058_m_m_n_a.png,I,m,994,10,1,2009.7000000029802,739261.099999994,8034,NNB,A,8
8,test,4,0.0,2-Back,1,m,Fri Mar 28 2025 15:42:10 GMT-0500 (Central Daylight Time),742970.299999997,008_y_m_n_a.png,I,m,674,11,1,1692.8999999985099,741277.3999999985,8034,NNB,A,9
9,test,4,0.0,2-Back,1,m,Fri Mar 28 2025 15:42:10 GMT-0500 (Central Daylight Time),744919.799999997,047_o_f_n_a.png,I,m,927,12,1,1943.2000000029802,742976.599999994,8034,NNB,A,10
10,test,4,0.0,2-Back,1,m,Fri Mar 28 2025 15:42:10 GMT-0500 (Central Daylight Time),746935.799999997,041_y_m_n_a.png,I,m,993,13,1,2009.8999999985099,744925.8999999985,8034,NNB,A,11
11,test,4,1.0,2-Back,1,z,Fri Mar 28 2025 15:42:10 GMT-0500 (Central Daylight Time),749085.099999994,047_o_f_n_a.png,I,z,1129,14,1,2143.0,746942.099999994,8034,NNB,A,12
12,test,4,1.0,2-Back,1,z,Fri Mar 28 2025 15:42:10 GMT-0500 (Central Daylight Time),751234.299999997,041_y_m_n_a.png,I,z,1116,15,1,2143.2000000029802,749091.099999994,8034,NNB,A,13
13,test,4,0.0,2-Back,1,m,Fri Mar 28 2025 15:42:10 GMT-0500 (Central Daylight Time),753050.3999999985,045_m_m_n_a.png,I,m,799,16,1,1810.1000000014901,751240.299999997,8034,NNB,A,14
14,test,4,0.0,2-Back,1,m,Fri Mar 28 2025 15:42:10 GMT-0500 (Central Daylight Time),754900.0,050_m_f_n_a.png,I,m,823,17,1,1843.5,753056.5,8034,NNB,A,15
15,test,4,1.0,2-Back,1,z,Fri Mar 28 2025 15:42:10 GMT-0500 (Central Daylight Time),756566.0,045_m_m_n_a.png,I,z,645,18,1,1659.6000000014901,754906.3999999985,8034,NNB,A,16
0,test,5,1.0,2-Back,,,Fri Mar 28 2025 15:42:10 GMT-0500 (Central Daylight Time),756566.0,041_y_m_n_a.png,I,space,1323,1,1,1659.6000000014901,754906.3999999985,8034,NNB,A,0
0,test,5,1.0,2-Back,,,Fri Mar 28 2025 15:42:10 GMT-0500 (Central Daylight Time),756566.0,050_m_f_n_a.png,I,space,1323,2,1,1659.6000000014901,754906.3999999985,8034,NNB,A,0
1,test,5,1.0,2-Back,1,z,Fri Mar 28 2025 15:42:10 GMT-0500 (Central Daylight Time),764680.1999999955,041_y_m_n_a.png,I,z,702,3,1,1726.6000000014901,762953.599999994,8034,NNB,A,1
2,test,5,1.0,2-Back,1,z,Fri Mar 28 2025 15:42:10 GMT-0500 (Central Daylight Time),766512.799999997,050_m_f_n_a.png,I,z,809,4,1,1826.3999999985099,764686.3999999985,8034,NNB,A,2
3,test,5,0.0,2-Back,1,m,Fri Mar 28 2025 15:42:10 GMT-0500 (Central Daylight Time),768395.3999999985,047_o_f_n_a.png,I,m,856,5,1,1876.0,766519.3999999985,8034,NNB,A,3
4,test,5,0.0,2-Back,1,m,Fri Mar 28 2025 15:42:10 GMT-0500 (Central Daylight Time),770528.1999999955,041_y_m_n_a.png,I,m,1101,6,1,2125.7999999970198,768402.3999999985,8034,NNB,A,4
5,test,5,0.0,2-Back,1,m,Fri Mar 28 2025 15:42:10 GMT-0500 (Central Daylight Time),772295.5,010_y_f_n_a.png,I,m,745,7,1,1760.6000000014901,770534.8999999985,8034,NNB,A,5
6,test,5,0.0,2-Back,1,m,Fri Mar 28 2025 15:42:10 GMT-0500 (Central Daylight Time),774560.599999994,047_o_f_n_a.png,I,m,1235,8,1,2259.0999999940395,772301.5,8034,NNB,A,6
7,test,5,1.0,2-Back,1,z,Fri Mar 28 2025 15:42:10 GMT-0500 (Central Daylight Time),776260.099999994,010_y_f_n_a.png,I,z,673,9,1,1693.0999999940395,774567.0,8034,NNB,A,7
8,test,5,0.0,2-Back,1,m,Fri Mar 28 2025 15:42:10 GMT-0500 (Central Daylight Time),778159.3999999985,046_o_m_n_a.png,I,m,877,10,1,1892.5,776266.8999999985,8034,NNB,A,8
9,test,5,0.0,2-Back,1,m,Fri Mar 28 2025 15:42:10 GMT-0500 (Central Daylight Time),780125.599999994,043_m_f_n_a.png,I,m,946,11,1,1960.1999999955297,778165.3999999985,8034,NNB,A,9
10,test,5,0.0,2-Back,1,m,Fri Mar 28 2025 15:42:10 GMT-0500 (Central Daylight Time),782521.599999994,058_m_m_n_a.png,I,m,1379,12,1,2390.1999999955297,780131.3999999985,8034,NNB,A,10
11,test,5,0.0,2-Back,1,m,Fri Mar 28 2025 15:42:10 GMT-0500 (Central Daylight Time),784774.1999999955,046_o_m_n_a.png,I,m,1220,13,1,2246.2999999970198,782527.8999999985,8034,NNB,A,11
12,test,5,1.0,2-Back,1,z,Fri Mar 28 2025 15:42:10 GMT-0500 (Central Daylight Time),786423.5,058_m_m_n_a.png,I,z,627,14,1,1643.3000000044703,784780.1999999955,8034,NNB,A,12
13,test,5,0.0,2-Back,1,m,Fri Mar 28 2025 15:42:10 GMT-0500 (Central Daylight Time),788506.099999994,063_y_f_n_a.png,I,m,1050,15,1,2076.39999999851,786429.6999999955,8034,NNB,A,13
14,test,5,0.0,2-Back,1,m,Fri Mar 28 2025 15:42:10 GMT-0500 (Central Daylight Time),790272.1999999955,053_o_m_n_a.png,I,m,735,16,1,1759.6999999955297,788512.5,8034,NNB,A,14
15,test,5,0.0,2-Back,1,m,Fri Mar 28 2025 15:42:10 GMT-0500 (Central Daylight Time),792238.3999999985,043_m_f_n_a.png,I,m,945,17,1,1959.5,790278.8999999985,8034,NNB,A,15
15,test,5,1.0,2-Back,0,z,Fri Mar 28 2025 15:42:10 GMT-0500 (Central Daylight Time),794187.599999994,053_o_m_n_a.png,I,m,931,18,1,1943.0,792244.599999994,8034,NNB,A,16
