Number,acc_sum,block,block_c,block_cond,con_img,correct,correct_response,datetime,endtime,jitter,project,response,response_time,row_sel,session_number,start_end,starttime,subject_id,task,task_vers,trial
9,1,prac,1,A,circle.png,1,m,Wed Mar 26 2025 09:12:59 GMT-0500 (Central Daylight Time),63882.0,1500,O,m,1349,8,1,3641.5999999046326,60240.40000009537,7094,NTS,B,1
3,2,prac,1,A,circle.png,1,z,Wed Mar 26 2025 09:12:59 GMT-0500 (Central Daylight Time),66697.80000007153,1200,O,z,825,3,1,2808.899999976158,63888.90000009537,7094,NTS,B,2
1,3,prac,1,A,circle.png,1,z,Wed Mar 26 2025 09:12:59 GMT-0500 (Central Daylight Time),69231.30000007153,1000,O,z,749,1,1,2526.7000000476837,66704.60000002384,7094,NTS,B,3
7,4,prac,1,A,circle.png,1,m,Wed Mar 26 2025 09:12:59 GMT-0500 (Central Daylight Time),72579.70000004768,1700,O,m,858,6,1,3340.899999976158,69238.80000007153,7094,NTS,B,4
6,5,prac,1,A,circle.png,1,m,Wed Mar 26 2025 09:12:59 GMT-0500 (Central Daylight Time),76127.60000002384,1900,O,m,847,5,1,3540.0,72587.60000002384,7094,NTS,B,5
1,6,prac,1,A,circle.png,1,z,Wed Mar 26 2025 09:12:59 GMT-0500 (Central Daylight Time),78630.10000002384,1000,O,z,724,1,1,2494.5,76135.60000002384,7094,NTS,B,6
7,7,prac,1,A,circle.png,1,m,Wed Mar 26 2025 09:12:59 GMT-0500 (Central Daylight Time),82043.60000002384,1700,O,m,932,6,1,3405.7999999523163,78637.80000007153,7094,NTS,B,7
3,8,prac,1,A,circle.png,1,z,Wed Mar 26 2025 09:12:59 GMT-0500 (Central Daylight Time),84625.30000007153,1200,O,z,585,3,1,2573.8000000715256,82051.5,7094,NTS,B,8
4,9,prac,1,A,circle.png,1,z,Wed Mar 26 2025 09:12:59 GMT-0500 (Central Daylight Time),87691.60000002384,1400,O,z,875,4,1,3058.5,84633.10000002384,7094,NTS,B,9
8,10,prac,1,A,circle.png,1,m,Wed Mar 26 2025 09:12:59 GMT-0500 (Central Daylight Time),90939.0,1600,O,m,857,7,1,3237.399999976158,87701.60000002384,7094,NTS,B,10
2,11,prac,1,A,circle.png,1,z,Wed Mar 26 2025 09:12:59 GMT-0500 (Central Daylight Time),94539.90000009537,2000,O,z,807,2,1,3593.9000000953674,90946.0,7094,NTS,B,11
6,12,prac,1,A,circle.png,1,m,Wed Mar 26 2025 09:12:59 GMT-0500 (Central Daylight Time),98088.20000004768,1900,O,m,852,5,1,3538.2999999523163,94549.90000009537,7094,NTS,B,12
9,1,prac,1,B,triangle.png,1,z,Wed Mar 26 2025 09:12:59 GMT-0500 (Central Daylight Time),125928.10000002384,1400,O,z,1300,8,1,3491.5,122436.60000002384,7094,NTS,B,1
8,2,prac,1,B,triangle.png,1,m,Wed Mar 26 2025 09:12:59 GMT-0500 (Central Daylight Time),128845.60000002384,1200,O,m,923,7,1,2908.1999999284744,125937.40000009537,7094,NTS,B,2
4,3,prac,1,B,triangle.png,1,m,Wed Mar 26 2025 09:12:59 GMT-0500 (Central Daylight Time),132478.0,1500,O,m,1341,4,1,3625.5,128852.5,7094,NTS,B,3
2,3,prac,1,B,triangle.png,0,m,Wed Mar 26 2025 09:12:59 GMT-0500 (Central Daylight Time),136475.10000002384,1700,O,None,1517,2,1,3990.2999999523163,132484.80000007153,7094,NTS,B,4
1,4,prac,1,B,triangle.png,1,z,Wed Mar 26 2025 09:12:59 GMT-0500 (Central Daylight Time),139908.20000004768,1900,O,z,742,1,1,3425.0,136483.20000004768,7094,NTS,B,5
7,5,prac,1,B,triangle.png,1,z,Wed Mar 26 2025 09:12:59 GMT-0500 (Central Daylight Time),144156.30000007153,2000,O,z,1456,6,1,4241.600000023842,139914.70000004768,7094,NTS,B,6
1,6,prac,1,B,triangle.png,1,z,Wed Mar 26 2025 09:12:59 GMT-0500 (Central Daylight Time),147572.20000004768,1900,O,z,715,1,1,3406.2999999523163,144165.90000009537,7094,NTS,B,7
8,7,prac,1,B,triangle.png,1,m,Wed Mar 26 2025 09:12:59 GMT-0500 (Central Daylight Time),150222.80000007153,1200,O,m,671,7,1,2642.7000000476837,147580.10000002384,7094,NTS,B,8
2,8,prac,1,B,triangle.png,1,m,Wed Mar 26 2025 09:12:59 GMT-0500 (Central Daylight Time),154119.40000009537,1700,O,m,1404,2,1,3890.4000000953674,150229.0,7094,NTS,B,9
9,9,prac,1,B,triangle.png,1,z,Wed Mar 26 2025 09:12:59 GMT-0500 (Central Daylight Time),157219.40000009537,1400,O,z,901,8,1,3092.3000000715256,154127.10000002384,7094,NTS,B,10
3,10,prac,1,B,triangle.png,1,z,Wed Mar 26 2025 09:12:59 GMT-0500 (Central Daylight Time),160319.10000002384,1600,O,z,720,3,1,3091.899999976158,157227.20000004768,7094,NTS,B,11
6,11,prac,1,B,triangle.png,1,m,Wed Mar 26 2025 09:12:59 GMT-0500 (Central Daylight Time),163118.0,1000,O,m,1018,5,1,2791.0999999046326,160326.90000009537,7094,NTS,B,12
9,1,test,1,A,circle.png,1,m,Wed Mar 26 2025 09:12:59 GMT-0500 (Central Daylight Time),184328.0,1500,O,m,988,8,1,2512.1999999284744,181815.80000007153,7094,NTS,B,1
3,2,test,1,A,circle.png,1,z,Wed Mar 26 2025 09:12:59 GMT-0500 (Central Daylight Time),186260.20000004768,1200,O,z,709,3,1,1928.3999999761581,184331.80000007153,7094,NTS,B,2
7,3,test,1,A,circle.png,1,m,Wed Mar 26 2025 09:12:59 GMT-0500 (Central Daylight Time),189111.70000004768,1700,O,m,1133,6,1,2847.0,186264.70000004768,7094,NTS,B,3
6,4,test,1,A,circle.png,1,m,Wed Mar 26 2025 09:12:59 GMT-0500 (Central Daylight Time),192143.10000002384,1900,O,m,1117,5,1,3026.2999999523163,189116.80000007153,7094,NTS,B,4
1,5,test,1,A,circle.png,1,z,Wed Mar 26 2025 09:12:59 GMT-0500 (Central Daylight Time),194140.5,1000,O,z,974,1,1,1992.5,192148.0,7094,NTS,B,5
9,6,test,1,A,circle.png,1,m,Wed Mar 26 2025 09:12:59 GMT-0500 (Central Daylight Time),196556.70000004768,1500,O,m,893,8,1,2411.100000023842,194145.60000002384,7094,NTS,B,6
1,7,test,1,A,circle.png,1,z,Wed Mar 26 2025 09:12:59 GMT-0500 (Central Daylight Time),198805.5,1000,O,z,1222,1,1,2245.0,196560.5,7094,NTS,B,7
3,8,test,1,A,circle.png,1,z,Wed Mar 26 2025 09:12:59 GMT-0500 (Central Daylight Time),200806.40000009537,1200,O,z,781,3,1,1996.6000000238419,198809.80000007153,7094,NTS,B,8
8,9,test,1,A,circle.png,1,m,Wed Mar 26 2025 09:12:59 GMT-0500 (Central Daylight Time),203169.70000004768,1600,O,m,732,7,1,2356.899999976158,200812.80000007153,7094,NTS,B,9
7,10,test,1,A,circle.png,1,m,Wed Mar 26 2025 09:12:59 GMT-0500 (Central Daylight Time),205820.80000007153,1700,O,m,916,6,1,2646.2000000476837,203174.60000002384,7094,NTS,B,10
4,11,test,1,A,circle.png,1,z,Wed Mar 26 2025 09:12:59 GMT-0500 (Central Daylight Time),208437.5,1400,O,z,1182,4,1,2612.5,205825.0,7094,NTS,B,11
3,12,test,1,A,circle.png,1,z,Wed Mar 26 2025 09:12:59 GMT-0500 (Central Daylight Time),210402.40000009537,1200,O,z,745,3,1,1962.1000000238419,208440.30000007153,7094,NTS,B,12
1,13,test,1,A,circle.png,1,z,Wed Mar 26 2025 09:12:59 GMT-0500 (Central Daylight Time),212120.80000007153,1000,O,z,700,1,1,1711.5,210409.30000007153,7094,NTS,B,13
4,14,test,1,A,circle.png,1,z,Wed Mar 26 2025 09:12:59 GMT-0500 (Central Daylight Time),214567.60000002384,1400,O,z,1029,4,1,2441.899999976158,212125.70000004768,7094,NTS,B,14
4,15,test,1,A,circle.png,1,z,Wed Mar 26 2025 09:12:59 GMT-0500 (Central Daylight Time),216616.20000004768,1400,O,z,620,4,1,2042.5,214573.70000004768,7094,NTS,B,15
2,16,test,1,A,circle.png,1,z,Wed Mar 26 2025 09:12:59 GMT-0500 (Central Daylight Time),219518.20000004768,2000,O,z,882,2,1,2896.899999976158,216621.30000007153,7094,NTS,B,16
4,17,test,1,A,circle.png,1,z,Wed Mar 26 2025 09:12:59 GMT-0500 (Central Daylight Time),221617.70000004768,1400,O,z,683,4,1,2095.5,219522.20000004768,7094,NTS,B,17
2,18,test,1,A,circle.png,1,z,Wed Mar 26 2025 09:12:59 GMT-0500 (Central Daylight Time),224299.60000002384,2000,O,z,660,2,1,2675.899999976158,221623.70000004768,7094,NTS,B,18
8,19,test,1,A,circle.png,1,m,Wed Mar 26 2025 09:12:59 GMT-0500 (Central Daylight Time),226780.20000004768,1600,O,m,857,7,1,2472.899999976158,224307.30000007153,7094,NTS,B,19
7,20,test,1,A,circle.png,1,m,Wed Mar 26 2025 09:12:59 GMT-0500 (Central Daylight Time),229180.20000004768,1700,O,m,667,6,1,2395.7999999523163,226784.40000009537,7094,NTS,B,20
6,21,test,1,A,circle.png,1,m,Wed Mar 26 2025 09:12:59 GMT-0500 (Central Daylight Time),231811.5,1900,O,m,708,5,1,2624.1999999284744,229187.30000007153,7094,NTS,B,21
6,22,test,1,A,circle.png,1,m,Wed Mar 26 2025 09:12:59 GMT-0500 (Central Daylight Time),234461.60000002384,1900,O,m,714,5,1,2645.7999999523163,231815.80000007153,7094,NTS,B,22
7,23,test,1,A,circle.png,1,m,Wed Mar 26 2025 09:12:59 GMT-0500 (Central Daylight Time),236894.5,1700,O,m,699,6,1,2427.0999999046326,234467.40000009537,7094,NTS,B,23
8,24,test,1,A,circle.png,1,m,Wed Mar 26 2025 09:12:59 GMT-0500 (Central Daylight Time),239193.10000002384,1600,O,m,671,7,1,2293.899999976158,236899.20000004768,7094,NTS,B,24
3,1,test,1,B,triangle.png,1,z,Wed Mar 26 2025 09:12:59 GMT-0500 (Central Daylight Time),256586.70000004768,1600,O,z,794,3,1,2412.0,254174.70000004768,7094,NTS,B,1
1,2,test,1,B,triangle.png,1,z,Wed Mar 26 2025 09:12:59 GMT-0500 (Central Daylight Time),258603.0,1400,O,z,593,9,1,2011.8999999761581,256591.10000002384,7094,NTS,B,2
1,3,test,1,B,triangle.png,1,z,Wed Mar 26 2025 09:12:59 GMT-0500 (Central Daylight Time),260635.90000009537,1400,O,z,600,9,1,2028.9000000953674,258607.0,7094,NTS,B,3
4,4,test,1,B,triangle.png,1,m,Wed Mar 26 2025 09:12:59 GMT-0500 (Central Daylight Time),262869.40000009537,1500,O,m,700,4,1,2228.2000000476837,260641.20000004768,7094,NTS,B,4
4,5,test,1,B,triangle.png,1,m,Wed Mar 26 2025 09:12:59 GMT-0500 (Central Daylight Time),264654.90000009537,1000,O,m,751,12,1,1780.7000000476837,262874.2000000477,7094,NTS,B,5
7,6,test,1,B,triangle.png,1,z,Wed Mar 26 2025 09:12:59 GMT-0500 (Central Daylight Time),267018.0,1600,O,z,747,14,1,2358.6999999284744,264659.3000000715,7094,NTS,B,6
1,7,test,1,B,triangle.png,1,z,Wed Mar 26 2025 09:12:59 GMT-0500 (Central Daylight Time),269551.40000009537,1900,O,z,616,1,1,2529.9000000953674,267021.5,7094,NTS,B,7
8,8,test,1,B,triangle.png,1,m,Wed Mar 26 2025 09:12:59 GMT-0500 (Central Daylight Time),271549.10000002384,1200,O,m,774,7,1,1993.1000000238419,269556.0,7094,NTS,B,8
7,9,test,1,B,triangle.png,1,z,Wed Mar 26 2025 09:12:59 GMT-0500 (Central Daylight Time),274165.7000000477,1600,O,z,982,14,1,2612.399999976158,271553.3000000715,7094,NTS,B,9
1,10,test,1,B,triangle.png,1,z,Wed Mar 26 2025 09:12:59 GMT-0500 (Central Daylight Time),276681.10000002384,1900,O,z,595,1,1,2510.600000023842,274170.5,7094,NTS,B,10
7,11,test,1,B,triangle.png,1,z,Wed Mar 26 2025 09:12:59 GMT-0500 (Central Daylight Time),279363.5,2000,O,z,662,6,1,2676.1999999284744,276687.3000000715,7094,NTS,B,11
9,12,test,1,B,triangle.png,1,z,Wed Mar 26 2025 09:12:59 GMT-0500 (Central Daylight Time),281646.10000002384,1400,O,z,858,8,1,2278.5,279367.60000002384,7094,NTS,B,12
2,13,test,1,B,triangle.png,1,m,Wed Mar 26 2025 09:12:59 GMT-0500 (Central Daylight Time),283595.8000000715,1200,O,m,717,10,1,1943.5,281652.3000000715,7094,NTS,B,13
8,14,test,1,B,triangle.png,1,m,Wed Mar 26 2025 09:12:59 GMT-0500 (Central Daylight Time),286127.7000000477,1700,O,m,805,15,1,2525.600000023842,283602.10000002384,7094,NTS,B,14
9,15,test,1,B,triangle.png,1,z,Wed Mar 26 2025 09:12:59 GMT-0500 (Central Daylight Time),288861.0,1900,O,z,806,16,1,2728.899999976158,286132.10000002384,7094,NTS,B,15
6,16,test,1,B,triangle.png,1,m,Wed Mar 26 2025 09:12:59 GMT-0500 (Central Daylight Time),290692.2000000477,1000,O,m,808,5,1,1828.0,288864.2000000477,7094,NTS,B,16
3,17,test,1,B,triangle.png,1,z,Wed Mar 26 2025 09:12:59 GMT-0500 (Central Daylight Time),293692.3000000715,2000,O,z,966,11,1,2995.600000023842,290696.7000000477,7094,NTS,B,17
6,18,test,1,B,triangle.png,1,m,Wed Mar 26 2025 09:12:59 GMT-0500 (Central Daylight Time),295526.40000009537,1000,O,m,816,5,1,1828.3000000715256,293698.10000002384,7094,NTS,B,18
8,19,test,1,B,triangle.png,1,m,Wed Mar 26 2025 09:12:59 GMT-0500 (Central Daylight Time),297508.2000000477,1200,O,m,750,7,1,1976.5,295531.7000000477,7094,NTS,B,19
2,20,test,1,B,triangle.png,1,m,Wed Mar 26 2025 09:12:59 GMT-0500 (Central Daylight Time),299957.0,1700,O,m,725,2,1,2444.399999976158,297512.60000002384,7094,NTS,B,20
4,21,test,1,B,triangle.png,1,m,Wed Mar 26 2025 09:12:59 GMT-0500 (Central Daylight Time),302190.3000000715,1500,O,m,708,4,1,2227.899999976158,299962.40000009537,7094,NTS,B,21
6,22,test,1,B,triangle.png,1,m,Wed Mar 26 2025 09:12:59 GMT-0500 (Central Daylight Time),304304.7000000477,1500,O,m,595,13,1,2109.600000023842,302195.10000002384,7094,NTS,B,22
2,23,test,1,B,triangle.png,1,m,Wed Mar 26 2025 09:12:59 GMT-0500 (Central Daylight Time),306239.40000009537,1200,O,m,717,10,1,1930.4000000953674,304309.0,7094,NTS,B,23
2,24,test,1,B,triangle.png,1,m,Wed Mar 26 2025 09:12:59 GMT-0500 (Central Daylight Time),308520.60000002384,1700,O,m,554,2,1,2275.0,306245.60000002384,7094,NTS,B,24
6,0,prac,1,C,circle.png,0,m,Wed Mar 26 2025 09:12:59 GMT-0500 (Central Daylight Time),340777.90000009537,2000,O,None,1514,5,1,4290.0,336487.90000009537,7094,NTS,B,1
2,1,prac,1,C,triangle.png,1,m,Wed Mar 26 2025 09:12:59 GMT-0500 (Central Daylight Time),344460.10000002384,1600,O,m,1301,2,1,3673.1999999284744,340786.90000009537,7094,NTS,B,2
3,1,prac,1,C,triangle.png,0,z,Wed Mar 26 2025 09:12:59 GMT-0500 (Central Daylight Time),348257.8000000715,1500,O,None,1515,3,1,3790.600000023842,344467.2000000477,7094,NTS,B,3
2,2,prac,1,C,triangle.png,1,m,Wed Mar 26 2025 09:12:59 GMT-0500 (Central Daylight Time),352124.90000009537,1600,O,m,1467,2,1,3860.5,348264.40000009537,7094,NTS,B,4
9,3,prac,1,C,circle.png,1,m,Wed Mar 26 2025 09:12:59 GMT-0500 (Central Daylight Time),355738.7000000477,1900,O,m,916,8,1,3608.100000023842,352130.60000002384,7094,NTS,B,5
1,4,prac,1,C,circle.png,1,z,Wed Mar 26 2025 09:12:59 GMT-0500 (Central Daylight Time),359039.2000000477,1700,O,z,816,1,1,3292.600000023842,355746.60000002384,7094,NTS,B,6
7,5,prac,1,C,triangle.png,1,z,Wed Mar 26 2025 09:12:59 GMT-0500 (Central Daylight Time),362504.2000000477,1200,O,z,1469,6,1,3456.399999976158,359047.8000000715,7094,NTS,B,7
6,6,prac,1,C,circle.png,1,m,Wed Mar 26 2025 09:12:59 GMT-0500 (Central Daylight Time),366652.0,2000,O,m,1367,5,1,4139.299999952316,362512.7000000477,7094,NTS,B,8
4,7,prac,1,C,circle.png,1,z,Wed Mar 26 2025 09:12:59 GMT-0500 (Central Daylight Time),369436.2000000477,1000,O,z,1015,4,1,2778.5,366657.7000000477,7094,NTS,B,9
7,8,prac,1,C,triangle.png,1,z,Wed Mar 26 2025 09:12:59 GMT-0500 (Central Daylight Time),372916.90000009537,1200,O,z,1489,6,1,3473.100000023842,369443.8000000715,7094,NTS,B,10
3,9,prac,1,C,triangle.png,1,z,Wed Mar 26 2025 09:12:59 GMT-0500 (Central Daylight Time),375983.40000009537,1500,O,z,772,3,1,3060.600000023842,372922.8000000715,7094,NTS,B,11
8,10,prac,1,C,triangle.png,1,m,Wed Mar 26 2025 09:12:59 GMT-0500 (Central Daylight Time),379350.60000002384,1400,O,m,1189,7,1,3357.2999999523163,375993.3000000715,7094,NTS,B,12
6,1,test,1,C,triangle.png,1,m,Wed Mar 26 2025 09:12:59 GMT-0500 (Central Daylight Time),394176.8000000715,1000,O,m,1133,13,1,2161.0,392015.8000000715,7094,NTS,B,1
3,2,test,1,C,circle.png,1,z,Wed Mar 26 2025 09:12:59 GMT-0500 (Central Daylight Time),397109.0,1600,O,z,1300,11,1,2927.399999976158,394181.60000002384,7094,NTS,B,2
4,3,test,1,C,triangle.png,1,m,Wed Mar 26 2025 09:12:59 GMT-0500 (Central Daylight Time),399760.8000000715,1500,O,m,1134,12,1,2647.2000000476837,397113.60000002384,7094,NTS,B,3
2,4,test,1,C,circle.png,1,z,Wed Mar 26 2025 09:12:59 GMT-0500 (Central Daylight Time),402640.8000000715,1700,O,z,1153,18,1,2871.600000023842,399769.2000000477,7094,NTS,B,4
8,5,test,1,C,triangle.png,1,m,Wed Mar 26 2025 09:12:59 GMT-0500 (Central Daylight Time),405706.7000000477,1600,O,m,1444,23,1,3060.5,402646.2000000477,7094,NTS,B,5
7,5,test,1,C,circle.png,0,m,Wed Mar 26 2025 09:12:59 GMT-0500 (Central Daylight Time),409239.2000000477,2000,O,None,1516,14,1,3527.899999976158,405711.3000000715,7094,NTS,B,6
2,6,test,1,C,circle.png,1,z,Wed Mar 26 2025 09:12:59 GMT-0500 (Central Daylight Time),412037.40000009537,1700,O,z,1065,10,1,2792.600000023842,409244.8000000715,7094,NTS,B,7
9,7,test,1,C,circle.png,1,m,Wed Mar 26 2025 09:12:59 GMT-0500 (Central Daylight Time),414704.0,1500,O,m,1138,24,1,2663.0,412041.0,7094,NTS,B,8
3,8,test,1,C,circle.png,1,z,Wed Mar 26 2025 09:12:59 GMT-0500 (Central Daylight Time),417602.7000000477,1600,O,z,1277,19,1,2894.100000023842,414708.60000002384,7094,NTS,B,9
2,8,test,1,C,triangle.png,0,m,Wed Mar 26 2025 09:12:59 GMT-0500 (Central Daylight Time),421136.2000000477,2000,O,None,1517,2,1,3529.399999976158,417606.8000000715,7094,NTS,B,10
7,9,test,1,C,triangle.png,1,z,Wed Mar 26 2025 09:12:59 GMT-0500 (Central Daylight Time),424168.90000009537,1700,O,z,1314,22,1,3026.4000000953674,421142.5,7094,NTS,B,11
9,10,test,1,C,circle.png,1,m,Wed Mar 26 2025 09:12:59 GMT-0500 (Central Daylight Time),426581.8000000715,1500,O,m,890,8,1,2407.0,424174.8000000715,7094,NTS,B,12
6,11,test,1,C,circle.png,1,m,Wed Mar 26 2025 09:12:59 GMT-0500 (Central Daylight Time),429382.2000000477,1900,O,m,876,5,1,2794.7000000476837,426587.5,7094,NTS,B,13
3,12,test,1,C,triangle.png,1,z,Wed Mar 26 2025 09:12:59 GMT-0500 (Central Daylight Time),431599.7000000477,1200,O,z,998,3,1,2212.600000023842,429387.10000002384,7094,NTS,B,14
8,13,test,1,C,triangle.png,1,m,Wed Mar 26 2025 09:12:59 GMT-0500 (Central Daylight Time),434064.90000009537,1600,O,m,847,7,1,2460.3000000715256,431604.60000002384,7094,NTS,B,15
8,14,test,1,C,circle.png,1,m,Wed Mar 26 2025 09:12:59 GMT-0500 (Central Daylight Time),436297.5,1200,O,m,1012,15,1,2225.7999999523163,434071.7000000477,7094,NTS,B,16
6,15,test,1,C,circle.png,1,m,Wed Mar 26 2025 09:12:59 GMT-0500 (Central Daylight Time),439245.8000000715,1900,O,m,1024,21,1,2944.100000023842,436301.7000000477,7094,NTS,B,17
1,16,test,1,C,circle.png,1,z,Wed Mar 26 2025 09:12:59 GMT-0500 (Central Daylight Time),441345.10000002384,1000,O,z,1078,1,1,2094.7999999523163,439250.3000000715,7094,NTS,B,18
9,17,test,1,C,triangle.png,1,z,Wed Mar 26 2025 09:12:59 GMT-0500 (Central Daylight Time),443844.10000002384,1400,O,z,1076,16,1,2495.2999999523163,441348.8000000715,7094,NTS,B,19
4,18,test,1,C,circle.png,1,z,Wed Mar 26 2025 09:12:59 GMT-0500 (Central Daylight Time),446344.2000000477,1400,O,z,1081,4,1,2494.0,443850.2000000477,7094,NTS,B,20
1,19,test,1,C,triangle.png,1,z,Wed Mar 26 2025 09:12:59 GMT-0500 (Central Daylight Time),449258.90000009537,1900,O,z,994,9,1,2909.5,446349.40000009537,7094,NTS,B,21
7,20,test,1,C,triangle.png,1,z,Wed Mar 26 2025 09:12:59 GMT-0500 (Central Daylight Time),451925.2000000477,1700,O,z,933,6,1,2662.2000000476837,449263.0,7094,NTS,B,22
4,21,test,1,C,triangle.png,1,m,Wed Mar 26 2025 09:12:59 GMT-0500 (Central Daylight Time),454408.40000009537,1500,O,m,954,20,1,2478.100000023842,451930.3000000715,7094,NTS,B,23
1,22,test,1,C,triangle.png,1,z,Wed Mar 26 2025 09:12:59 GMT-0500 (Central Daylight Time),457240.90000009537,1900,O,z,903,17,1,2826.600000023842,454414.3000000715,7094,NTS,B,24
2,0,test,2,C,circle.png,0,z,Wed Mar 26 2025 09:12:59 GMT-0500 (Central Daylight Time),467887.10000002384,1700,O,m,1407,10,1,3125.100000023842,464762.0,7094,NTS,B,1
4,1,test,2,C,circle.png,1,z,Wed Mar 26 2025 09:12:59 GMT-0500 (Central Daylight Time),470403.2000000477,1400,O,z,1092,4,1,2510.2999999523163,467892.90000009537,7094,NTS,B,2
4,2,test,2,C,triangle.png,1,m,Wed Mar 26 2025 09:12:59 GMT-0500 (Central Daylight Time),473119.8000000715,1500,O,m,1198,20,1,2709.600000023842,470410.2000000477,7094,NTS,B,3
8,3,test,2,C,circle.png,1,m,Wed Mar 26 2025 09:12:59 GMT-0500 (Central Daylight Time),475668.8000000715,1200,O,m,1319,15,1,2540.399999976158,473128.40000009537,7094,NTS,B,4
6,4,test,2,C,triangle.png,1,m,Wed Mar 26 2025 09:12:59 GMT-0500 (Central Daylight Time),477702.10000002384,1000,O,m,1015,21,1,2026.1000000238419,475676.0,7094,NTS,B,5
4,5,test,2,C,triangle.png,1,m,Wed Mar 26 2025 09:12:59 GMT-0500 (Central Daylight Time),480184.5,1500,O,m,966,12,1,2472.0999999046326,477712.40000009537,7094,NTS,B,6
9,6,test,2,C,triangle.png,1,z,Wed Mar 26 2025 09:12:59 GMT-0500 (Central Daylight Time),482648.60000002384,1400,O,z,1038,16,1,2458.6999999284744,480189.90000009537,7094,NTS,B,7
6,7,test,2,C,circle.png,1,m,Wed Mar 26 2025 09:12:59 GMT-0500 (Central Daylight Time),485665.40000009537,1900,O,m,1088,5,1,3011.8000000715256,482653.60000002384,7094,NTS,B,8
1,8,test,2,C,triangle.png,1,z,Wed Mar 26 2025 09:12:59 GMT-0500 (Central Daylight Time),488563.3000000715,1900,O,z,976,17,1,2893.399999976158,485669.90000009537,7094,NTS,B,9
7,9,test,2,C,triangle.png,1,z,Wed Mar 26 2025 09:12:59 GMT-0500 (Central Daylight Time),491179.40000009537,1700,O,z,884,6,1,2611.8000000715256,488567.60000002384,7094,NTS,B,10
9,10,test,2,C,triangle.png,1,z,Wed Mar 26 2025 09:12:59 GMT-0500 (Central Daylight Time),493345.2000000477,1400,O,z,744,24,1,2161.399999976158,491183.8000000715,7094,NTS,B,11
3,11,test,2,C,circle.png,1,z,Wed Mar 26 2025 09:12:59 GMT-0500 (Central Daylight Time),496161.7000000477,1600,O,z,1195,19,1,2811.399999976158,493350.3000000715,7094,NTS,B,12
1,12,test,2,C,circle.png,1,z,Wed Mar 26 2025 09:12:59 GMT-0500 (Central Daylight Time),498043.0,1000,O,z,851,1,1,1876.2999999523163,496166.7000000477,7094,NTS,B,13
6,13,test,2,C,triangle.png,1,m,Wed Mar 26 2025 09:12:59 GMT-0500 (Central Daylight Time),500193.60000002384,1000,O,m,1128,13,1,2145.0,498048.60000002384,7094,NTS,B,14
3,14,test,2,C,circle.png,1,z,Wed Mar 26 2025 09:12:59 GMT-0500 (Central Daylight Time),502875.40000009537,1600,O,z,1058,11,1,2675.5,500199.90000009537,7094,NTS,B,15
7,14,test,2,C,circle.png,0,m,Wed Mar 26 2025 09:12:59 GMT-0500 (Central Daylight Time),506408.7000000477,2000,O,None,1516,14,1,3528.100000023842,502880.60000002384,7094,NTS,B,16
2,15,test,2,C,triangle.png,1,m,Wed Mar 26 2025 09:12:59 GMT-0500 (Central Daylight Time),509907.2000000477,2000,O,m,1477,2,1,3492.7000000476837,506414.5,7094,NTS,B,17
2,16,test,2,C,circle.png,1,z,Wed Mar 26 2025 09:12:59 GMT-0500 (Central Daylight Time),512855.60000002384,1700,O,z,1221,18,1,2944.2999999523163,509911.3000000715,7094,NTS,B,18
3,16,test,2,C,triangle.png,0,z,Wed Mar 26 2025 09:12:59 GMT-0500 (Central Daylight Time),515587.7000000477,1200,O,None,1515,3,1,2727.2000000476837,512860.5,7094,NTS,B,19
7,16,test,2,C,circle.png,0,m,Wed Mar 26 2025 09:12:59 GMT-0500 (Central Daylight Time),519120.90000009537,2000,O,None,1515,22,1,3528.2000000476837,515592.7000000477,7094,NTS,B,20
8,17,test,2,C,triangle.png,1,m,Wed Mar 26 2025 09:12:59 GMT-0500 (Central Daylight Time),521918.90000009537,1600,O,m,1172,7,1,2792.0,519126.90000009537,7094,NTS,B,21
1,18,test,2,C,triangle.png,1,z,Wed Mar 26 2025 09:12:59 GMT-0500 (Central Daylight Time),524619.2000000477,1900,O,z,768,9,1,2695.7000000476837,521923.5,7094,NTS,B,22
8,19,test,2,C,circle.png,1,m,Wed Mar 26 2025 09:12:59 GMT-0500 (Central Daylight Time),526568.0,1200,O,m,732,23,1,1944.2999999523163,524623.7000000477,7094,NTS,B,23
9,20,test,2,C,circle.png,1,m,Wed Mar 26 2025 09:12:59 GMT-0500 (Central Daylight Time),529435.0,1500,O,m,1344,8,1,2859.5999999046326,526575.4000000954,7094,NTS,B,24
4,0,test,3,C,circle.png,0,z,Wed Mar 26 2025 09:12:59 GMT-0500 (Central Daylight Time),533849.5,1400,O,m,1428,4,1,2846.0,531003.5,7094,NTS,B,1
1,1,test,3,C,triangle.png,1,z,Wed Mar 26 2025 09:12:59 GMT-0500 (Central Daylight Time),536632.3000000715,1900,O,z,855,9,1,2778.100000023842,533854.2000000477,7094,NTS,B,2
7,2,test,3,C,circle.png,1,m,Wed Mar 26 2025 09:12:59 GMT-0500 (Central Daylight Time),540081.4000000954,2000,O,m,1422,14,1,3444.2000000476837,536637.2000000477,7094,NTS,B,3
7,3,test,3,C,triangle.png,1,z,Wed Mar 26 2025 09:12:59 GMT-0500 (Central Daylight Time),542729.1000000238,1700,O,z,927,6,1,2643.7999999523163,540085.3000000715,7094,NTS,B,4
8,4,test,3,C,triangle.png,1,m,Wed Mar 26 2025 09:12:59 GMT-0500 (Central Daylight Time),545295.6000000238,1600,O,m,937,23,1,2562.600000023842,542733.0,7094,NTS,B,5
3,5,test,3,C,circle.png,1,z,Wed Mar 26 2025 09:12:59 GMT-0500 (Central Daylight Time),547778.8000000715,1600,O,z,853,11,1,2479.0,545299.8000000715,7094,NTS,B,6
8,6,test,3,C,circle.png,1,m,Wed Mar 26 2025 09:12:59 GMT-0500 (Central Daylight Time),550294.2000000477,1200,O,m,1298,15,1,2506.2000000476837,547788.0,7094,NTS,B,7
6,7,test,3,C,circle.png,1,m,Wed Mar 26 2025 09:12:59 GMT-0500 (Central Daylight Time),553176.4000000954,1900,O,m,962,21,1,2875.600000023842,550300.8000000715,7094,NTS,B,8
3,8,test,3,C,triangle.png,1,z,Wed Mar 26 2025 09:12:59 GMT-0500 (Central Daylight Time),555275.6000000238,1200,O,z,876,3,1,2094.399999976158,553181.2000000477,7094,NTS,B,9
6,9,test,3,C,circle.png,1,m,Wed Mar 26 2025 09:12:59 GMT-0500 (Central Daylight Time),558074.9000000954,1900,O,m,869,5,1,2796.0,555278.9000000954,7094,NTS,B,10
9,10,test,3,C,circle.png,1,m,Wed Mar 26 2025 09:12:59 GMT-0500 (Central Daylight Time),560574.7000000477,1500,O,m,973,24,1,2494.899999976158,558079.8000000715,7094,NTS,B,11
1,11,test,3,C,circle.png,1,z,Wed Mar 26 2025 09:12:59 GMT-0500 (Central Daylight Time),562758.7000000477,1000,O,z,1164,1,1,2178.5,560580.2000000477,7094,NTS,B,12
7,12,test,3,C,triangle.png,1,z,Wed Mar 26 2025 09:12:59 GMT-0500 (Central Daylight Time),565622.4000000954,1700,O,z,1140,22,1,2859.4000000953674,562763.0,7094,NTS,B,13
8,12,test,3,C,triangle.png,0,m,Wed Mar 26 2025 09:12:59 GMT-0500 (Central Daylight Time),568737.6000000238,1600,O,z,1486,7,1,3111.100000023842,565626.5,7094,NTS,B,14
1,12,test,3,C,circle.png,0,z,Wed Mar 26 2025 09:12:59 GMT-0500 (Central Daylight Time),571256.5,1000,O,None,1501,17,1,2515.1999999284744,568741.3000000715,7094,NTS,B,15
2,13,test,3,C,circle.png,1,z,Wed Mar 26 2025 09:12:59 GMT-0500 (Central Daylight Time),574103.7000000477,1700,O,z,1123,10,1,2836.7999999523163,571266.9000000954,7094,NTS,B,16
6,14,test,3,C,triangle.png,1,m,Wed Mar 26 2025 09:12:59 GMT-0500 (Central Daylight Time),576437.8000000715,1000,O,m,1308,13,1,2329.5,574108.3000000715,7094,NTS,B,17
4,15,test,3,C,circle.png,1,z,Wed Mar 26 2025 09:12:59 GMT-0500 (Central Daylight Time),578938.3000000715,1400,O,z,1085,20,1,2495.399999976158,576442.9000000954,7094,NTS,B,18
4,16,test,3,C,triangle.png,1,m,Wed Mar 26 2025 09:12:59 GMT-0500 (Central Daylight Time),581867.2000000477,1500,O,m,1411,12,1,2923.2999999523163,578943.9000000954,7094,NTS,B,19
9,17,test,3,C,circle.png,1,m,Wed Mar 26 2025 09:12:59 GMT-0500 (Central Daylight Time),584599.4000000954,1500,O,m,1215,8,1,2727.3000000715256,581872.1000000238,7094,NTS,B,20
3,18,test,3,C,triangle.png,1,z,Wed Mar 26 2025 09:12:59 GMT-0500 (Central Daylight Time),587166.0,1200,O,z,1334,19,1,2560.5999999046326,584605.4000000954,7094,NTS,B,21
9,19,test,3,C,triangle.png,1,z,Wed Mar 26 2025 09:12:59 GMT-0500 (Central Daylight Time),590066.0,1400,O,z,1465,16,1,2895.0999999046326,587170.9000000954,7094,NTS,B,22
2,20,test,3,C,triangle.png,1,m,Wed Mar 26 2025 09:12:59 GMT-0500 (Central Daylight Time),593048.0,2000,O,m,956,18,1,2976.0999999046326,590071.9000000954,7094,NTS,B,23
2,21,test,3,C,triangle.png,1,m,Wed Mar 26 2025 09:12:59 GMT-0500 (Central Daylight Time),595929.1000000238,2000,O,m,853,2,1,2875.6999999284744,593053.4000000954,7094,NTS,B,24
9,1,test,4,C,circle.png,1,m,Wed Mar 26 2025 09:12:59 GMT-0500 (Central Daylight Time),600112.4000000954,1500,O,m,1340,24,1,2859.2000000476837,597253.2000000477,7094,NTS,B,1
8,2,test,4,C,triangle.png,1,m,Wed Mar 26 2025 09:12:59 GMT-0500 (Central Daylight Time),602928.3000000715,1600,O,m,1190,23,1,2811.0,600117.3000000715,7094,NTS,B,2
6,3,test,4,C,triangle.png,1,m,Wed Mar 26 2025 09:12:59 GMT-0500 (Central Daylight Time),605076.8000000715,1000,O,m,1123,13,1,2142.600000023842,602934.2000000477,7094,NTS,B,3
2,3,test,4,C,triangle.png,0,m,Wed Mar 26 2025 09:12:59 GMT-0500 (Central Daylight Time),608608.8000000715,2000,O,None,1515,2,1,3528.100000023842,605080.7000000477,7094,NTS,B,4
1,4,test,4,C,circle.png,1,z,Wed Mar 26 2025 09:12:59 GMT-0500 (Central Daylight Time),610492.6000000238,1000,O,z,860,17,1,1878.2999999523163,608614.3000000715,7094,NTS,B,5
2,5,test,4,C,circle.png,1,z,Wed Mar 26 2025 09:12:59 GMT-0500 (Central Daylight Time),613507.8000000715,1700,O,z,1284,10,1,3011.3000000715256,610496.5,7094,NTS,B,6
9,5,test,4,C,triangle.png,0,z,Wed Mar 26 2025 09:12:59 GMT-0500 (Central Daylight Time),616306.2000000477,1400,O,m,1377,16,1,2794.2999999523163,613511.9000000954,7094,NTS,B,7
3,6,test,4,C,circle.png,1,z,Wed Mar 26 2025 09:12:59 GMT-0500 (Central Daylight Time),618007.3000000715,1600,O,z,72,11,1,1697.8000000715256,616309.5,7094,NTS,B,8
2,7,test,4,C,triangle.png,1,m,Wed Mar 26 2025 09:12:59 GMT-0500 (Central Daylight Time),621387.4000000954,2000,O,m,1359,18,1,3376.3000000715256,618011.1000000238,7094,NTS,B,9
7,7,test,4,C,circle.png,0,m,Wed Mar 26 2025 09:12:59 GMT-0500 (Central Daylight Time),624920.5,2000,O,None,1513,14,1,3529.2999999523163,621391.2000000477,7094,NTS,B,10
6,8,test,4,C,circle.png,1,m,Wed Mar 26 2025 09:12:59 GMT-0500 (Central Daylight Time),627902.4000000954,1900,O,m,1057,21,1,2972.0,624930.4000000954,7094,NTS,B,11
1,9,test,4,C,circle.png,1,z,Wed Mar 26 2025 09:12:59 GMT-0500 (Central Daylight Time),629768.5,1000,O,z,847,1,1,1860.3999999761581,627908.1000000238,7094,NTS,B,12
7,10,test,4,C,triangle.png,1,z,Wed Mar 26 2025 09:12:59 GMT-0500 (Central Daylight Time),632868.0,1700,O,z,1375,22,1,3095.6999999284744,629772.3000000715,7094,NTS,B,13
6,11,test,4,C,circle.png,1,m,Wed Mar 26 2025 09:12:59 GMT-0500 (Central Daylight Time),636016.8000000715,1900,O,m,1221,5,1,3144.2000000476837,632872.6000000238,7094,NTS,B,14
7,11,test,4,C,triangle.png,0,z,Wed Mar 26 2025 09:12:59 GMT-0500 (Central Daylight Time),639248.9000000954,1700,O,None,1515,6,1,3228.0,636020.9000000954,7094,NTS,B,15
8,12,test,4,C,circle.png,1,m,Wed Mar 26 2025 09:12:59 GMT-0500 (Central Daylight Time),641348.9000000954,1200,O,m,876,15,1,2092.8000000715256,639256.1000000238,7094,NTS,B,16
3,13,test,4,C,triangle.png,1,z,Wed Mar 26 2025 09:12:59 GMT-0500 (Central Daylight Time),643449.3000000715,1200,O,z,883,19,1,2095.8000000715256,641353.5,7094,NTS,B,17
4,14,test,4,C,triangle.png,1,m,Wed Mar 26 2025 09:12:59 GMT-0500 (Central Daylight Time),646248.3000000715,1500,O,m,1283,12,1,2794.100000023842,643454.2000000477,7094,NTS,B,18
3,15,test,4,C,triangle.png,1,z,Wed Mar 26 2025 09:12:59 GMT-0500 (Central Daylight Time),648313.3000000715,1200,O,z,848,3,1,2060.5,646252.8000000715,7094,NTS,B,19
4,16,test,4,C,circle.png,1,z,Wed Mar 26 2025 09:12:59 GMT-0500 (Central Daylight Time),650663.8000000715,1400,O,z,932,20,1,2346.0,648317.8000000715,7094,NTS,B,20
8,17,test,4,C,triangle.png,1,m,Wed Mar 26 2025 09:12:59 GMT-0500 (Central Daylight Time),653777.2000000477,1600,O,m,1495,7,1,3108.2000000476837,650669.0,7094,NTS,B,21
1,18,test,4,C,triangle.png,1,z,Wed Mar 26 2025 09:12:59 GMT-0500 (Central Daylight Time),656609.6000000238,1900,O,z,903,9,1,2827.899999976158,653781.7000000477,7094,NTS,B,22
4,18,test,4,C,circle.png,0,z,Wed Mar 26 2025 09:12:59 GMT-0500 (Central Daylight Time),659544.2000000477,1400,O,None,1516,4,1,2930.899999976158,656613.3000000715,7094,NTS,B,23
9,19,test,4,C,circle.png,1,m,Wed Mar 26 2025 09:12:59 GMT-0500 (Central Daylight Time),662008.6000000238,1500,O,m,946,8,1,2459.6999999284744,659548.9000000954,7094,NTS,B,24
