block_c,block_dur,condition,countdown,datetime,endtime,list,multichar_response,project,response,response_time,session_number,start_end,starttime,subject_id,task,task_vers,trial
,,,,Wed Jan 15 2025 14:10:19 GMT-0600 (Central Standard Time),,,,I,space,382,2,,,8005,WL,B,
prac,,0,,Wed Jan 15 2025 14:10:19 GMT-0600 (Central Standard Time),,NA,b,I,b,6402,2,,,8005,WL,B,1.0
prac,,0,,Wed Jan 15 2025 14:10:19 GMT-0600 (Central Standard Time),,NA,bo,I,o,884,2,,,8005,WL,B,1.0
prac,,0,,Wed Jan 15 2025 14:10:19 GMT-0600 (Central Standard Time),,NA,boo,I,o,236,2,,,8005,WL,B,1.0
prac,,0,,Wed Jan 15 2025 14:10:19 GMT-0600 (Central Standard Time),,NA,boos,I,s,137,2,,,8005,WL,B,1.0
prac,,0,,Wed Jan 15 2025 14:10:19 GMT-0600 (Central Standard Time),,NA,boost,I,t,123,2,,,8005,WL,B,1.0
prac,,0,,Wed Jan 15 2025 14:10:19 GMT-0600 (Central Standard Time),,NA,boostenter,I,enter,3135,2,,,8005,WL,B,1.0
1,0.8489999771118164,learn,59151.00002288818,Wed Jan 15 2025 14:10:19 GMT-0600 (Central Standard Time),140518.29999999702,A,s,I,s,837,2,849.2000000029802,139669.09999999404,8005,WL,B,1.0
1,1.0329999923706055,learn,58967.000007629395,Wed Jan 15 2025 14:10:19 GMT-0600 (Central Standard Time),140701.8999999985,A,st,I,t,161,2,1032.8000000044703,139669.09999999404,8005,WL,B,1.0
1,1.2829999923706055,learn,58717.000007629395,Wed Jan 15 2025 14:10:19 GMT-0600 (Central Standard Time),140951.69999999553,A,str,I,r,236,2,1282.6000000014901,139669.09999999404,8005,WL,B,1.0
1,1.4660000801086426,learn,58533.99991989136,Wed Jan 15 2025 14:10:19 GMT-0600 (Central Standard Time),141134.79999999702,A,stre,I,e,162,2,1465.7000000029802,139669.09999999404,8005,WL,B,1.0
1,1.6319999694824219,learn,58368.00003051758,Wed Jan 15 2025 14:10:19 GMT-0600 (Central Standard Time),141301.69999999553,A,stree,I,e,155,2,1632.6000000014901,139669.09999999404,8005,WL,B,1.0
1,1.7320001125335693,learn,58267.99988746643,Wed Jan 15 2025 14:10:19 GMT-0600 (Central Standard Time),141401.59999999404,A,street,I,t,75,2,1732.5,139669.09999999404,8005,WL,B,1.0
1,3.3320000171661377,learn,56667.99998283386,Wed Jan 15 2025 14:10:19 GMT-0600 (Central Standard Time),143001.19999999553,A,streetenter,I,enter,1577,2,3332.10000000149,139669.09999999404,8005,WL,B,1.0
1,5.064000129699707,learn,54935.99987030029,Wed Jan 15 2025 14:10:19 GMT-0600 (Central Standard Time),144733.59999999404,A,g,I,g,1720,2,1731.6999999955297,143001.8999999985,8005,WL,B,2.0
1,5.248000144958496,learn,54751.999855041504,Wed Jan 15 2025 14:10:19 GMT-0600 (Central Standard Time),144917.0,A,gr,I,r,165,2,1915.1000000014901,143001.8999999985,8005,WL,B,2.0
1,5.331000089645386,learn,54668.999910354614,Wed Jan 15 2025 14:10:19 GMT-0600 (Central Standard Time),145000.29999999702,A,gra,I,a,69,2,1998.3999999985099,143001.8999999985,8005,WL,B,2.0
1,5.638999938964844,learn,54361.000061035156,Wed Jan 15 2025 14:10:19 GMT-0600 (Central Standard Time),145307.79999999702,A,gras,I,s,298,2,2305.89999999851,143001.8999999985,8005,WL,B,2.0
1,5.78600001335144,learn,54213.99998664856,Wed Jan 15 2025 14:10:19 GMT-0600 (Central Standard Time),145455.5,A,grass,I,s,139,2,2453.60000000149,143001.8999999985,8005,WL,B,2.0
1,6.180999994277954,learn,53819.000005722046,Wed Jan 15 2025 14:10:19 GMT-0600 (Central Standard Time),145850.09999999404,A,grassenter,I,enter,384,2,2848.1999999955297,143001.8999999985,8005,WL,B,2.0
1,7.081000089645386,learn,52918.999910354614,Wed Jan 15 2025 14:10:19 GMT-0600 (Central Standard Time),146749.8999999985,A,d,I,d,888,2,899.3999999985099,145850.5,8005,WL,B,3.0
1,7.21399998664856,learn,52786.00001335144,Wed Jan 15 2025 14:10:19 GMT-0600 (Central Standard Time),146883.09999999404,A,do,I,o,117,2,1032.5999999940395,145850.5,8005,WL,B,3.0
1,7.3470001220703125,learn,52652.99987792969,Wed Jan 15 2025 14:10:19 GMT-0600 (Central Standard Time),147016.29999999702,A,doo,I,o,111,2,1165.7999999970198,145850.5,8005,WL,B,3.0
1,7.414000034332275,learn,52585.999965667725,Wed Jan 15 2025 14:10:19 GMT-0600 (Central Standard Time),147082.8999999985,A,door,I,r,58,2,1232.3999999985099,145850.5,8005,WL,B,3.0
1,7.546999931335449,learn,52453.00006866455,Wed Jan 15 2025 14:10:19 GMT-0600 (Central Standard Time),147216.09999999404,A,doorenter,I,enter,112,2,1365.5999999940395,145850.5,8005,WL,B,3.0
1,7.8470001220703125,learn,52152.99987792969,Wed Jan 15 2025 14:10:19 GMT-0600 (Central Standard Time),147516.3999999985,A,a,I,a,282,2,300.0,147216.3999999985,8005,WL,B,4.0
1,7.947000026702881,learn,52052.99997329712,Wed Jan 15 2025 14:10:19 GMT-0600 (Central Standard Time),147616.09999999404,A,ar,I,r,78,2,399.69999999552965,147216.3999999985,8005,WL,B,4.0
1,8.079999923706055,learn,51920.000076293945,Wed Jan 15 2025 14:10:19 GMT-0600 (Central Standard Time),147749.5,A,arm,I,m,122,2,533.1000000014901,147216.3999999985,8005,WL,B,4.0
1,8.246999979019165,learn,51753.000020980835,Wed Jan 15 2025 14:10:19 GMT-0600 (Central Standard Time),147916.09999999404,A,armenter,I,enter,157,2,699.6999999955297,147216.3999999985,8005,WL,B,4.0
1,9.21399998664856,learn,50786.00001335144,Wed Jan 15 2025 14:10:19 GMT-0600 (Central Standard Time),148883.59999999404,A,s,I,s,958,2,967.0,147916.59999999404,8005,WL,B,5.0
1,9.347000122070312,learn,50652.99987792969,Wed Jan 15 2025 14:10:19 GMT-0600 (Central Standard Time),149015.8999999985,A,st,I,t,110,2,1099.3000000044703,147916.59999999404,8005,WL,B,5.0
1,9.480000019073486,learn,50519.999980926514,Wed Jan 15 2025 14:10:19 GMT-0600 (Central Standard Time),149149.29999999702,A,sta,I,a,123,2,1232.7000000029802,147916.59999999404,8005,WL,B,5.0
1,9.579999923706055,learn,50420.000076293945,Wed Jan 15 2025 14:10:19 GMT-0600 (Central Standard Time),149249.0,A,star,I,r,85,2,1332.4000000059605,147916.59999999404,8005,WL,B,5.0
1,9.713000059127808,learn,50286.99994087219,Wed Jan 15 2025 14:10:19 GMT-0600 (Central Standard Time),149382.29999999702,A,starenter,I,enter,113,2,1465.7000000029802,147916.59999999404,8005,WL,B,5.0
1,10.380000114440918,learn,49619.99988555908,Wed Jan 15 2025 14:10:19 GMT-0600 (Central Standard Time),150048.8999999985,A,w,I,w,653,2,666.3000000044703,149382.59999999404,8005,WL,B,6.0
1,10.463000059127808,learn,49536.99994087219,Wed Jan 15 2025 14:10:19 GMT-0600 (Central Standard Time),150132.09999999404,A,wi,I,i,74,2,749.5,149382.59999999404,8005,WL,B,6.0
1,10.562999963760376,learn,49437.000036239624,Wed Jan 15 2025 14:10:19 GMT-0600 (Central Standard Time),150232.3999999985,A,wif,I,f,87,2,849.8000000044703,149382.59999999404,8005,WL,B,6.0
1,10.663000106811523,learn,49336.99989318848,Wed Jan 15 2025 14:10:19 GMT-0600 (Central Standard Time),150331.8999999985,A,wife,I,e,82,2,949.3000000044703,149382.59999999404,8005,WL,B,6.0
1,10.812999963760376,learn,49187.000036239624,Wed Jan 15 2025 14:10:19 GMT-0600 (Central Standard Time),150481.79999999702,A,wifeenter,I,enter,134,2,1099.2000000029802,149382.59999999404,8005,WL,B,6.0
1,11.312999963760376,learn,48687.000036239624,Wed Jan 15 2025 14:10:19 GMT-0600 (Central Standard Time),150981.8999999985,A,p,I,p,481,2,499.70000000298023,150482.19999999553,8005,WL,B,7.0
1,11.413000106811523,learn,48586.99989318848,Wed Jan 15 2025 14:10:19 GMT-0600 (Central Standard Time),151081.8999999985,A,pu,I,u,84,2,599.7000000029802,150482.19999999553,8005,WL,B,7.0
1,11.746000051498413,learn,48253.99994850159,Wed Jan 15 2025 14:10:19 GMT-0600 (Central Standard Time),151414.8999999985,A,pup,I,p,319,2,932.7000000029802,150482.19999999553,8005,WL,B,7.0
1,11.962000131607056,learn,48037.999868392944,Wed Jan 15 2025 14:10:19 GMT-0600 (Central Standard Time),151631.69999999553,A,pupi,I,i,196,2,1149.5,150482.19999999553,8005,WL,B,7.0
1,12.111999988555908,learn,47888.00001144409,Wed Jan 15 2025 14:10:19 GMT-0600 (Central Standard Time),151781.59999999404,A,pupil,I,l,130,2,1299.3999999985099,150482.19999999553,8005,WL,B,7.0
1,12.296000003814697,learn,47703.9999961853,Wed Jan 15 2025 14:10:19 GMT-0600 (Central Standard Time),151964.8999999985,A,pupilenter,I,enter,166,2,1482.7000000029802,150482.19999999553,8005,WL,B,7.0
1,12.529000043869019,learn,47470.99995613098,Wed Jan 15 2025 14:10:19 GMT-0600 (Central Standard Time),152198.09999999404,A,c,I,c,222,2,232.79999999701977,151965.29999999702,8005,WL,B,8.0
1,12.597000122070312,learn,47402.99987792969,Wed Jan 15 2025 14:10:19 GMT-0600 (Central Standard Time),152266.0,A,ca,I,a,45,2,300.70000000298023,151965.29999999702,8005,WL,B,8.0
1,12.779000043869019,learn,47220.99995613098,Wed Jan 15 2025 14:10:19 GMT-0600 (Central Standard Time),152448.0,A,cab,I,b,168,2,482.70000000298023,151965.29999999702,8005,WL,B,8.0
1,12.92900013923645,learn,47070.99986076355,Wed Jan 15 2025 14:10:19 GMT-0600 (Central Standard Time),152598.0,A,cabi,I,i,131,2,632.7000000029802,151965.29999999702,8005,WL,B,8.0
1,13.01200008392334,learn,46987.99991607666,Wed Jan 15 2025 14:10:19 GMT-0600 (Central Standard Time),152681.5,A,cabin,I,n,62,2,716.2000000029802,151965.29999999702,8005,WL,B,8.0
1,13.161999940872192,learn,46838.00005912781,Wed Jan 15 2025 14:10:19 GMT-0600 (Central Standard Time),152831.19999999553,A,cabinenter,I,enter,130,2,865.8999999985099,151965.29999999702,8005,WL,B,8.0
1,13.394999980926514,learn,46605.000019073486,Wed Jan 15 2025 14:10:19 GMT-0600 (Central Standard Time),153064.5,A,l,I,l,220,2,232.90000000596046,152831.59999999404,8005,WL,B,9.0
1,13.462000131607056,learn,46537.999868392944,Wed Jan 15 2025 14:10:19 GMT-0600 (Central Standard Time),153131.0,A,la,I,a,59,2,299.40000000596046,152831.59999999404,8005,WL,B,9.0
1,13.795000076293945,learn,46204.999923706055,Wed Jan 15 2025 14:10:19 GMT-0600 (Central Standard Time),153464.3999999985,A,lak,I,k,312,2,632.8000000044703,152831.59999999404,8005,WL,B,9.0
1,13.878999948501587,learn,46121.00005149841,Wed Jan 15 2025 14:10:19 GMT-0600 (Central Standard Time),153547.79999999702,A,lake,I,e,74,2,716.2000000029802,152831.59999999404,8005,WL,B,9.0
1,14.34500002861023,learn,45654.99997138977,Wed Jan 15 2025 14:10:19 GMT-0600 (Central Standard Time),154014.19999999553,A,lakeenter,I,enter,447,2,1182.6000000014901,152831.59999999404,8005,WL,B,9.0
1,14.51200008392334,learn,45487.99991607666,Wed Jan 15 2025 14:10:19 GMT-0600 (Central Standard Time),154180.79999999702,A,c,I,c,149,2,166.29999999701977,154014.5,8005,WL,B,10.0
1,14.611999988555908,learn,45388.00001144409,Wed Jan 15 2025 14:10:19 GMT-0600 (Central Standard Time),154280.79999999702,A,ci,I,i,86,2,266.29999999701977,154014.5,8005,WL,B,10.0
1,14.76200008392334,learn,45237.99991607666,Wed Jan 15 2025 14:10:19 GMT-0600 (Central Standard Time),154430.79999999702,A,cit,I,t,138,2,416.29999999701977,154014.5,8005,WL,B,10.0
1,14.84500002861023,learn,45154.99997138977,Wed Jan 15 2025 14:10:19 GMT-0600 (Central Standard Time),154514.09999999404,A,city,I,y,60,2,499.59999999403954,154014.5,8005,WL,B,10.0
1,14.995000123977661,learn,45004.99987602234,Wed Jan 15 2025 14:10:19 GMT-0600 (Central Standard Time),154664.0,A,cityenter,I,enter,137,2,649.5,154014.5,8005,WL,B,10.0
1,21.608999967575073,learn,38391.00003242493,Wed Jan 15 2025 14:10:19 GMT-0600 (Central Standard Time),161278.59999999404,A,l,I,l,6603,2,6614.29999999702,154664.29999999702,8005,WL,B,11.0
1,21.759999990463257,learn,38240.00000953674,Wed Jan 15 2025 14:10:19 GMT-0600 (Central Standard Time),161428.79999999702,A,la,I,a,131,2,6764.5,154664.29999999702,8005,WL,B,11.0
1,22.108999967575073,learn,37891.00003242493,Wed Jan 15 2025 14:10:19 GMT-0600 (Central Standard Time),161778.29999999702,A,lak,I,k,342,2,7114.0,154664.29999999702,8005,WL,B,11.0
1,22.20900011062622,learn,37790.99988937378,Wed Jan 15 2025 14:10:19 GMT-0600 (Central Standard Time),161878.5,A,lake,I,e,81,2,7214.20000000298,154664.29999999702,8005,WL,B,11.0
1,22.342999935150146,learn,37657.00006484985,Wed Jan 15 2025 14:10:19 GMT-0600 (Central Standard Time),162011.69999999553,A,lakeenter,I,enter,117,2,7347.39999999851,154664.29999999702,8005,WL,B,11.0
1,24.27500009536743,learn,35724.99990463257,Wed Jan 15 2025 14:10:19 GMT-0600 (Central Standard Time),163944.3999999985,A,p,I,p,1912,2,1932.3000000044703,162012.09999999404,8005,WL,B,12.0
1,24.342000007629395,learn,35657.999992370605,Wed Jan 15 2025 14:10:19 GMT-0600 (Central Standard Time),164011.0,A,pi,I,i,50,2,1998.9000000059605,162012.09999999404,8005,WL,B,12.0
1,24.691999912261963,learn,35308.00008773804,Wed Jan 15 2025 14:10:19 GMT-0600 (Central Standard Time),164360.8999999985,A,pip,I,p,328,2,2348.8000000044703,162012.09999999404,8005,WL,B,12.0
1,24.808000087738037,learn,35191.99991226196,Wed Jan 15 2025 14:10:19 GMT-0600 (Central Standard Time),164477.69999999553,A,pipe,I,e,98,2,2465.60000000149,162012.09999999404,8005,WL,B,12.0
1,24.907999992370605,learn,35092.000007629395,Wed Jan 15 2025 14:10:19 GMT-0600 (Central Standard Time),164577.5,A,pipeenter,I,enter,85,2,2565.4000000059605,162012.09999999404,8005,WL,B,12.0
1,26.341000080108643,learn,33658.99991989136,Wed Jan 15 2025 14:10:19 GMT-0600 (Central Standard Time),166010.29999999702,A,s,I,s,1426,2,1432.5,164577.79999999702,8005,WL,B,13.0
1,26.490999937057495,learn,33509.000062942505,Wed Jan 15 2025 14:10:19 GMT-0600 (Central Standard Time),166160.3999999985,A,st,I,t,136,2,1582.6000000014901,164577.79999999702,8005,WL,B,13.0
1,26.657999992370605,learn,33342.000007629395,Wed Jan 15 2025 14:10:19 GMT-0600 (Central Standard Time),166327.0,A,sta,I,a,154,2,1749.2000000029802,164577.79999999702,8005,WL,B,13.0
1,26.79100012779236,learn,33208.99987220764,Wed Jan 15 2025 14:10:19 GMT-0600 (Central Standard Time),166460.29999999702,A,star,I,r,116,2,1882.5,164577.79999999702,8005,WL,B,13.0
1,26.975000143051147,learn,33024.99985694885,Wed Jan 15 2025 14:10:19 GMT-0600 (Central Standard Time),166643.79999999702,A,starenter,I,enter,167,2,2066.0,164577.79999999702,8005,WL,B,13.0
1,36.5550000667572,learn,23444.999933242798,Wed Jan 15 2025 14:10:19 GMT-0600 (Central Standard Time),176223.8999999985,A,o,I,o,9568,2,9579.80000000447,166644.09999999404,8005,WL,B,14.0
1,37.22099995613098,learn,22779.00004386902,Wed Jan 15 2025 14:10:19 GMT-0600 (Central Standard Time),176890.3999999985,A,,I,backspace,650,2,10246.30000000447,166644.09999999404,8005,WL,B,14.0
1,37.33800005912781,learn,22661.999940872192,Wed Jan 15 2025 14:10:19 GMT-0600 (Central Standard Time),177007.09999999404,A,w,I,w,105,2,10363.0,166644.09999999404,8005,WL,B,14.0
1,37.50399994850159,learn,22496.000051498413,Wed Jan 15 2025 14:10:19 GMT-0600 (Central Standard Time),177173.59999999404,A,wo,I,o,156,2,10529.5,166644.09999999404,8005,WL,B,14.0
1,37.63800001144409,learn,22361.99998855591,Wed Jan 15 2025 14:10:19 GMT-0600 (Central Standard Time),177307.0,A,woo,I,o,117,2,10662.90000000596,166644.09999999404,8005,WL,B,14.0
1,37.80400013923645,learn,22195.99986076355,Wed Jan 15 2025 14:10:19 GMT-0600 (Central Standard Time),177473.3999999985,A,wood,I,d,144,2,10829.30000000447,166644.09999999404,8005,WL,B,14.0
1,37.854000091552734,learn,22145.999908447266,Wed Jan 15 2025 14:10:19 GMT-0600 (Central Standard Time),177523.69999999553,A,woods,I,s,32,2,10879.60000000149,166644.09999999404,8005,WL,B,14.0
1,38.72000002861023,learn,21279.99997138977,Wed Jan 15 2025 14:10:19 GMT-0600 (Central Standard Time),178390.0,A,woodsenter,I,enter,847,2,11745.90000000596,166644.09999999404,8005,WL,B,14.0
1,39.3529999256134,learn,20647.000074386597,Wed Jan 15 2025 14:10:19 GMT-0600 (Central Standard Time),179023.19999999553,A,enter,I,enter,621,2,632.7999999970198,178390.3999999985,8005,WL,B,15.0
2,0.6329998970031738,learn,59367.000102996826,Wed Jan 15 2025 14:10:19 GMT-0600 (Central Standard Time),244736.0,A,s,I,s,621,2,633.0,244103.0,8005,WL,B,1.0
2,0.7159998416900635,learn,59284.00015830994,Wed Jan 15 2025 14:10:19 GMT-0600 (Central Standard Time),244819.19999999553,A,sk,I,k,67,2,716.1999999955297,244103.0,8005,WL,B,1.0
2,0.8989999294281006,learn,59101.0000705719,Wed Jan 15 2025 14:10:19 GMT-0600 (Central Standard Time),245002.29999999702,A,ski,I,i,176,2,899.2999999970198,244103.0,8005,WL,B,1.0
2,0.998999834060669,learn,59001.00016593933,Wed Jan 15 2025 14:10:19 GMT-0600 (Central Standard Time),245102.19999999553,A,skin,I,n,81,2,999.1999999955297,244103.0,8005,WL,B,1.0
2,1.248999834060669,learn,58751.00016593933,Wed Jan 15 2025 14:10:19 GMT-0600 (Central Standard Time),245352.29999999702,A,skinenter,I,enter,229,2,1249.2999999970198,244103.0,8005,WL,B,1.0
2,1.431999921798706,learn,58568.000078201294,Wed Jan 15 2025 14:10:19 GMT-0600 (Central Standard Time),245535.69999999553,A,c,I,c,171,2,183.0,245352.69999999553,8005,WL,B,2.0
2,1.5490000247955322,learn,58450.99997520447,Wed Jan 15 2025 14:10:19 GMT-0600 (Central Standard Time),245652.09999999404,A,cl,I,l,100,2,299.3999999985099,245352.69999999553,8005,WL,B,2.0
2,1.7149999141693115,learn,58285.00008583069,Wed Jan 15 2025 14:10:19 GMT-0600 (Central Standard Time),245818.69999999553,A,clo,I,o,159,2,466.0,245352.69999999553,8005,WL,B,2.0
2,1.8320000171661377,learn,58167.99998283386,Wed Jan 15 2025 14:10:19 GMT-0600 (Central Standard Time),245935.3999999985,A,cloc,I,c,96,2,582.7000000029802,245352.69999999553,8005,WL,B,2.0
2,1.931999921798706,learn,58068.000078201294,Wed Jan 15 2025 14:10:19 GMT-0600 (Central Standard Time),246035.29999999702,A,clock,I,k,83,2,682.6000000014901,245352.69999999553,8005,WL,B,2.0
2,2.0989999771118164,learn,57901.00002288818,Wed Jan 15 2025 14:10:19 GMT-0600 (Central Standard Time),246202.09999999404,A,clockenter,I,enter,152,2,849.3999999985099,245352.69999999553,8005,WL,B,2.0
2,2.2649998664855957,learn,57735.000133514404,Wed Jan 15 2025 14:10:19 GMT-0600 (Central Standard Time),246368.69999999553,A,f,I,f,144,2,166.29999999701977,246202.3999999985,8005,WL,B,3.0
2,2.4819998741149902,learn,57518.00012588501,Wed Jan 15 2025 14:10:19 GMT-0600 (Central Standard Time),246584.79999999702,A,fi,I,i,201,2,382.3999999985099,246202.3999999985,8005,WL,B,3.0
2,2.7990000247955322,learn,57200.99997520447,Wed Jan 15 2025 14:10:19 GMT-0600 (Central Standard Time),246901.79999999702,A,fir,I,r,298,2,699.3999999985099,246202.3999999985,8005,WL,B,3.0
2,2.8489999771118164,learn,57151.00002288818,Wed Jan 15 2025 14:10:19 GMT-0600 (Central Standard Time),246951.79999999702,A,fire,I,e,37,2,749.3999999985099,246202.3999999985,8005,WL,B,3.0
2,3.0149998664855957,learn,56985.000133514404,Wed Jan 15 2025 14:10:19 GMT-0600 (Central Standard Time),247118.3999999985,A,fireenter,I,enter,155,2,916.0,246202.3999999985,8005,WL,B,3.0
2,3.131999969482422,learn,56868.00003051758,Wed Jan 15 2025 14:10:19 GMT-0600 (Central Standard Time),247235.29999999702,A,c,I,c,101,2,116.5,247118.79999999702,8005,WL,B,4.0
2,3.2149999141693115,learn,56785.00008583069,Wed Jan 15 2025 14:10:19 GMT-0600 (Central Standard Time),247318.29999999702,A,ca,I,a,64,2,199.5,247118.79999999702,8005,WL,B,4.0
2,3.381999969482422,learn,56618.00003051758,Wed Jan 15 2025 14:10:19 GMT-0600 (Central Standard Time),247485.09999999404,A,cab,I,b,148,2,366.29999999701977,247118.79999999702,8005,WL,B,4.0
2,3.5319998264312744,learn,56468.000173568726,Wed Jan 15 2025 14:10:19 GMT-0600 (Central Standard Time),247634.79999999702,A,cabi,I,i,142,2,516.0,247118.79999999702,8005,WL,B,4.0
2,3.615000009536743,learn,56384.99999046326,Wed Jan 15 2025 14:10:19 GMT-0600 (Central Standard Time),247718.19999999553,A,cabin,I,n,65,2,599.3999999985099,247118.79999999702,8005,WL,B,4.0
2,3.7649998664855957,learn,56235.000133514404,Wed Jan 15 2025 14:10:19 GMT-0600 (Central Standard Time),247868.19999999553,A,cabinenter,I,enter,133,2,749.3999999985099,247118.79999999702,8005,WL,B,4.0
2,4.115000009536743,learn,55884.99999046326,Wed Jan 15 2025 14:10:19 GMT-0600 (Central Standard Time),248218.09999999404,A,l,I,l,326,2,349.5,247868.59999999404,8005,WL,B,5.0
2,4.180999994277954,learn,55819.000005722046,Wed Jan 15 2025 14:10:19 GMT-0600 (Central Standard Time),248284.59999999404,A,li,I,i,57,2,416.0,247868.59999999404,8005,WL,B,5.0
2,4.381999969482422,learn,55618.00003051758,Wed Jan 15 2025 14:10:19 GMT-0600 (Central Standard Time),248484.79999999702,A,lik,I,k,183,2,616.2000000029802,247868.59999999404,8005,WL,B,5.0
2,4.46399998664856,learn,55536.00001335144,Wed Jan 15 2025 14:10:19 GMT-0600 (Central Standard Time),248567.69999999553,A,like,I,e,70,2,699.1000000014901,247868.59999999404,8005,WL,B,5.0
2,5.115000009536743,learn,54884.99999046326,Wed Jan 15 2025 14:10:19 GMT-0600 (Central Standard Time),249218.0,A,lik,I,backspace,628,2,1349.4000000059605,247868.59999999404,8005,WL,B,5.0
2,5.247999906539917,learn,54752.00009346008,Wed Jan 15 2025 14:10:19 GMT-0600 (Central Standard Time),249351.0,A,li,I,backspace,113,2,1482.4000000059605,247868.59999999404,8005,WL,B,5.0
2,5.38100004196167,learn,54618.99995803833,Wed Jan 15 2025 14:10:19 GMT-0600 (Central Standard Time),249484.3999999985,A,l,I,backspace,124,2,1615.8000000044703,247868.59999999404,8005,WL,B,5.0
2,5.664000034332275,learn,54335.999965667725,Wed Jan 15 2025 14:10:19 GMT-0600 (Central Standard Time),249767.69999999553,A,la,I,a,271,2,1899.1000000014901,247868.59999999404,8005,WL,B,5.0
2,5.730999946594238,learn,54269.00005340576,Wed Jan 15 2025 14:10:19 GMT-0600 (Central Standard Time),249834.3999999985,A,lak,I,k,59,2,1965.8000000044703,247868.59999999404,8005,WL,B,5.0
2,5.8480000495910645,learn,54151.999950408936,Wed Jan 15 2025 14:10:19 GMT-0600 (Central Standard Time),249951.09999999404,A,lake,I,e,104,2,2082.5,247868.59999999404,8005,WL,B,5.0
2,7.046999931335449,learn,52953.00006866455,Wed Jan 15 2025 14:10:19 GMT-0600 (Central Standard Time),251150.5,A,lakeenter,I,enter,1180,2,3281.9000000059605,247868.59999999404,8005,WL,B,5.0
2,7.596999883651733,learn,52403.00011634827,Wed Jan 15 2025 14:10:19 GMT-0600 (Central Standard Time),251700.19999999553,A,p,I,p,533,2,549.2999999970198,251150.8999999985,8005,WL,B,6.0
2,7.796999931335449,learn,52203.00006866455,Wed Jan 15 2025 14:10:19 GMT-0600 (Central Standard Time),251900.19999999553,A,pu,I,u,183,2,749.2999999970198,251150.8999999985,8005,WL,B,6.0
2,8.079999923706055,learn,51920.000076293945,Wed Jan 15 2025 14:10:19 GMT-0600 (Central Standard Time),252183.59999999404,A,pup,I,p,271,2,1032.6999999955297,251150.8999999985,8005,WL,B,6.0
2,8.179999828338623,learn,51820.00017166138,Wed Jan 15 2025 14:10:19 GMT-0600 (Central Standard Time),252283.59999999404,A,pupi,I,i,91,2,1132.6999999955297,251150.8999999985,8005,WL,B,6.0
2,8.496999979019165,learn,51503.000020980835,Wed Jan 15 2025 14:10:19 GMT-0600 (Central Standard Time),252600.0,A,pupil,I,l,295,2,1449.1000000014901,251150.8999999985,8005,WL,B,6.0
2,8.679999828338623,learn,51320.00017166138,Wed Jan 15 2025 14:10:19 GMT-0600 (Central Standard Time),252783.29999999702,A,pupilenter,I,enter,162,2,1632.3999999985099,251150.8999999985,8005,WL,B,6.0
2,8.846999883651733,learn,51153.00011634827,Wed Jan 15 2025 14:10:19 GMT-0600 (Central Standard Time),252950.0,A,w,I,w,155,2,166.30000000447035,252783.69999999553,8005,WL,B,7.0
2,8.962999820709229,learn,51037.00017929077,Wed Jan 15 2025 14:10:19 GMT-0600 (Central Standard Time),253066.59999999404,A,wi,I,i,93,2,282.8999999985099,252783.69999999553,8005,WL,B,7.0
2,9.062999963760376,learn,50937.000036239624,Wed Jan 15 2025 14:10:19 GMT-0600 (Central Standard Time),253166.59999999404,A,win,I,n,88,2,382.8999999985099,252783.69999999553,8005,WL,B,7.0
2,9.146999835968018,learn,50853.00016403198,Wed Jan 15 2025 14:10:19 GMT-0600 (Central Standard Time),253250.0,A,wind,I,d,68,2,466.30000000447035,252783.69999999553,8005,WL,B,7.0
2,9.61299991607666,learn,50387.00008392334,Wed Jan 15 2025 14:10:19 GMT-0600 (Central Standard Time),253716.5,A,windo,I,o,449,2,932.8000000044703,252783.69999999553,8005,WL,B,7.0
2,9.712999820709229,learn,50287.00017929077,Wed Jan 15 2025 14:10:19 GMT-0600 (Central Standard Time),253816.3999999985,A,window,I,w,87,2,1032.7000000029802,252783.69999999553,8005,WL,B,7.0
2,9.812999963760376,learn,50187.000036239624,Wed Jan 15 2025 14:10:19 GMT-0600 (Central Standard Time),253916.3999999985,A,windowenter,I,enter,91,2,1132.7000000029802,252783.69999999553,8005,WL,B,7.0
2,10.095999956130981,learn,49904.00004386902,Wed Jan 15 2025 14:10:19 GMT-0600 (Central Standard Time),254199.59999999404,A,d,I,d,263,2,282.79999999701977,253916.79999999702,8005,WL,B,8.0
2,10.19599986076355,learn,49804.00013923645,Wed Jan 15 2025 14:10:19 GMT-0600 (Central Standard Time),254299.5,A,do,I,o,91,2,382.70000000298023,253916.79999999702,8005,WL,B,8.0
2,10.345999956130981,learn,49654.00004386902,Wed Jan 15 2025 14:10:19 GMT-0600 (Central Standard Time),254449.5,A,doo,I,o,135,2,532.7000000029802,253916.79999999702,8005,WL,B,8.0
2,10.44599986076355,learn,49554.00013923645,Wed Jan 15 2025 14:10:19 GMT-0600 (Central Standard Time),254549.3999999985,A,door,I,r,89,2,632.6000000014901,253916.79999999702,8005,WL,B,8.0
2,10.562999963760376,learn,49437.000036239624,Wed Jan 15 2025 14:10:19 GMT-0600 (Central Standard Time),254666.19999999553,A,doorenter,I,enter,93,2,749.3999999985099,253916.79999999702,8005,WL,B,8.0
2,10.728999853134155,learn,49271.000146865845,Wed Jan 15 2025 14:10:19 GMT-0600 (Central Standard Time),254832.79999999702,A,s,I,s,153,2,166.29999999701977,254666.5,8005,WL,B,9.0
2,10.86299991607666,learn,49137.00008392334,Wed Jan 15 2025 14:10:19 GMT-0600 (Central Standard Time),254966.09999999404,A,st,I,t,122,2,299.59999999403954,254666.5,8005,WL,B,9.0
2,11.013000011444092,learn,48986.99998855591,Wed Jan 15 2025 14:10:19 GMT-0600 (Central Standard Time),255115.8999999985,A,str,I,r,133,2,449.3999999985099,254666.5,8005,WL,B,9.0
2,11.095999956130981,learn,48904.00004386902,Wed Jan 15 2025 14:10:19 GMT-0600 (Central Standard Time),255199.3999999985,A,stre,I,e,63,2,532.8999999985099,254666.5,8005,WL,B,9.0
2,11.230000019073486,learn,48769.999980926514,Wed Jan 15 2025 14:10:19 GMT-0600 (Central Standard Time),255333.69999999553,A,stree,I,e,115,2,667.1999999955297,254666.5,8005,WL,B,9.0
2,11.296000003814697,learn,48703.9999961853,Wed Jan 15 2025 14:10:19 GMT-0600 (Central Standard Time),255399.3999999985,A,street,I,t,54,2,732.8999999985099,254666.5,8005,WL,B,9.0
2,11.428999900817871,learn,48571.00009918213,Wed Jan 15 2025 14:10:19 GMT-0600 (Central Standard Time),255532.5,A,streetenter,I,enter,124,2,866.0,254666.5,8005,WL,B,9.0
2,11.779000043869019,learn,48220.99995613098,Wed Jan 15 2025 14:10:19 GMT-0600 (Central Standard Time),255882.3999999985,A,c,I,c,335,2,349.5,255532.8999999985,8005,WL,B,10.0
2,11.895999908447266,learn,48104.000091552734,Wed Jan 15 2025 14:10:19 GMT-0600 (Central Standard Time),255999.0,A,ci,I,i,97,2,466.1000000014901,255532.8999999985,8005,WL,B,10.0
2,12.046000003814697,learn,47953.9999961853,Wed Jan 15 2025 14:10:19 GMT-0600 (Central Standard Time),256149.0,A,cit,I,t,132,2,616.1000000014901,255532.8999999985,8005,WL,B,10.0
2,12.128999948501587,learn,47871.00005149841,Wed Jan 15 2025 14:10:19 GMT-0600 (Central Standard Time),256232.29999999702,A,city,I,y,70,2,699.3999999985099,255532.8999999985,8005,WL,B,10.0
2,12.246000051498413,learn,47753.99994850159,Wed Jan 15 2025 14:10:19 GMT-0600 (Central Standard Time),256348.8999999985,A,cityenter,I,enter,107,2,816.0,255532.8999999985,8005,WL,B,10.0
2,12.428999900817871,learn,47571.00009918213,Wed Jan 15 2025 14:10:19 GMT-0600 (Central Standard Time),256531.8999999985,A,g,I,g,174,2,182.70000000298023,256349.19999999553,8005,WL,B,11.0
2,12.578999996185303,learn,47421.0000038147,Wed Jan 15 2025 14:10:19 GMT-0600 (Central Standard Time),256682.29999999702,A,gr,I,r,136,2,333.1000000014901,256349.19999999553,8005,WL,B,11.0
2,12.645999908447266,learn,47354.000091552734,Wed Jan 15 2025 14:10:19 GMT-0600 (Central Standard Time),256748.8999999985,A,gra,I,a,57,2,399.70000000298023,256349.19999999553,8005,WL,B,11.0
2,12.845999956130981,learn,47154.00004386902,Wed Jan 15 2025 14:10:19 GMT-0600 (Central Standard Time),256948.79999999702,A,gras,I,s,182,2,599.6000000014901,256349.19999999553,8005,WL,B,11.0
2,12.961999893188477,learn,47038.00010681152,Wed Jan 15 2025 14:10:19 GMT-0600 (Central Standard Time),257065.29999999702,A,grass,I,s,102,2,716.1000000014901,256349.19999999553,8005,WL,B,11.0
2,13.078999996185303,learn,46921.0000038147,Wed Jan 15 2025 14:10:19 GMT-0600 (Central Standard Time),257182.09999999404,A,grassenter,I,enter,98,2,832.8999999985099,256349.19999999553,8005,WL,B,11.0
2,13.244999885559082,learn,46755.00011444092,Wed Jan 15 2025 14:10:19 GMT-0600 (Central Standard Time),257348.69999999553,A,w,I,w,157,2,166.29999999701977,257182.3999999985,8005,WL,B,12.0
2,13.378999948501587,learn,46621.00005149841,Wed Jan 15 2025 14:10:19 GMT-0600 (Central Standard Time),257482.09999999404,A,wi,I,i,126,2,299.69999999552965,257182.3999999985,8005,WL,B,12.0
2,13.478999853134155,learn,46521.000146865845,Wed Jan 15 2025 14:10:19 GMT-0600 (Central Standard Time),257581.8999999985,A,wif,I,f,89,2,399.5,257182.3999999985,8005,WL,B,12.0
2,13.59500002861023,learn,46404.99997138977,Wed Jan 15 2025 14:10:19 GMT-0600 (Central Standard Time),257698.3999999985,A,wife,I,e,109,2,516.0,257182.3999999985,8005,WL,B,12.0
2,13.744999885559082,learn,46255.00011444092,Wed Jan 15 2025 14:10:19 GMT-0600 (Central Standard Time),257848.5,A,wifeenter,I,enter,129,2,666.1000000014901,257182.3999999985,8005,WL,B,12.0
2,14.894999980926514,learn,45105.000019073486,Wed Jan 15 2025 14:10:19 GMT-0600 (Central Standard Time),258998.19999999553,A,a,I,a,1130,2,1149.3999999985099,257848.79999999702,8005,WL,B,13.0
2,15.010999917984009,learn,44989.00008201599,Wed Jan 15 2025 14:10:19 GMT-0600 (Central Standard Time),259114.69999999553,A,ar,I,r,101,2,1265.8999999985099,257848.79999999702,8005,WL,B,13.0
2,15.077999830245972,learn,44922.00016975403,Wed Jan 15 2025 14:10:19 GMT-0600 (Central Standard Time),259181.3999999985,A,arm,I,m,56,2,1332.6000000014901,257848.79999999702,8005,WL,B,13.0
2,15.244999885559082,learn,44755.00011444092,Wed Jan 15 2025 14:10:19 GMT-0600 (Central Standard Time),259348.0,A,armenter,I,enter,158,2,1499.2000000029802,257848.79999999702,8005,WL,B,13.0
2,15.644999980926514,learn,44355.000019073486,Wed Jan 15 2025 14:10:19 GMT-0600 (Central Standard Time),259747.8999999985,A,d,I,d,383,2,399.5,259348.3999999985,8005,WL,B,14.0
2,15.777999877929688,learn,44222.00012207031,Wed Jan 15 2025 14:10:19 GMT-0600 (Central Standard Time),259881.19999999553,A,do,I,o,111,2,532.7999999970198,259348.3999999985,8005,WL,B,14.0
2,15.878000020980835,learn,44121.999979019165,Wed Jan 15 2025 14:10:19 GMT-0600 (Central Standard Time),259981.0,A,doo,I,o,90,2,632.6000000014901,259348.3999999985,8005,WL,B,14.0
2,15.960999965667725,learn,44039.000034332275,Wed Jan 15 2025 14:10:19 GMT-0600 (Central Standard Time),260064.3999999985,A,door,I,r,70,2,716.0,259348.3999999985,8005,WL,B,14.0
2,16.027999877929688,learn,43972.00012207031,Wed Jan 15 2025 14:10:19 GMT-0600 (Central Standard Time),260130.79999999702,A,doorenter,I,enter,59,2,782.3999999985099,259348.3999999985,8005,WL,B,14.0
2,19.032999992370605,learn,40967.000007629395,Wed Jan 15 2025 14:10:19 GMT-0600 (Central Standard Time),263136.59999999404,A,s,I,s,2999,2,3005.5,260131.09999999404,8005,WL,B,15.0
2,19.125999927520752,learn,40874.00007247925,Wed Jan 15 2025 14:10:19 GMT-0600 (Central Standard Time),263229.799999997,A,st,I,t,82,2,3098.7000000029802,260131.09999999404,8005,WL,B,15.0
2,19.259999990463257,learn,40740.00000953674,Wed Jan 15 2025 14:10:19 GMT-0600 (Central Standard Time),263363.09999999404,A,sta,I,a,123,2,3232.0,260131.09999999404,8005,WL,B,15.0
2,19.359999895095825,learn,40640.000104904175,Wed Jan 15 2025 14:10:19 GMT-0600 (Central Standard Time),263463.299999997,A,star,I,r,81,2,3332.2000000029802,260131.09999999404,8005,WL,B,15.0
2,19.743000030517578,learn,40256.99996948242,Wed Jan 15 2025 14:10:19 GMT-0600 (Central Standard Time),263846.69999999553,A,starenter,I,enter,363,2,3715.60000000149,260131.09999999404,8005,WL,B,15.0
3,0.6830000877380371,learn,59316.99991226196,Wed Jan 15 2025 14:10:19 GMT-0600 (Central Standard Time),329226.19999999553,A,s,I,s,661,2,683.1000000014901,328543.09999999404,8005,WL,B,1.0
3,0.8329999446868896,learn,59167.00005531311,Wed Jan 15 2025 14:10:19 GMT-0600 (Central Standard Time),329376.09999999404,A,sk,I,k,128,2,833.0,328543.09999999404,8005,WL,B,1.0
3,1.0,learn,59000.0,Wed Jan 15 2025 14:10:19 GMT-0600 (Central Standard Time),329542.59999999404,A,ski,I,i,155,2,999.5,328543.09999999404,8005,WL,B,1.0
3,1.0829999446868896,learn,58917.00005531311,Wed Jan 15 2025 14:10:19 GMT-0600 (Central Standard Time),329626.09999999404,A,skin,I,n,77,2,1083.0,328543.09999999404,8005,WL,B,1.0
3,1.9500000476837158,learn,58049.999952316284,Wed Jan 15 2025 14:10:19 GMT-0600 (Central Standard Time),330492.5,A,skinenter,I,enter,849,2,1949.4000000059605,328543.09999999404,8005,WL,B,1.0
3,2.0829999446868896,learn,57917.00005531311,Wed Jan 15 2025 14:10:19 GMT-0600 (Central Standard Time),330625.8999999985,A,f,I,f,117,2,133.10000000149012,330492.799999997,8005,WL,B,2.0
3,2.2160000801086426,learn,57783.99991989136,Wed Jan 15 2025 14:10:19 GMT-0600 (Central Standard Time),330759.09999999404,A,fi,I,i,120,2,266.29999999701977,330492.799999997,8005,WL,B,2.0
3,2.315999984741211,learn,57684.00001525879,Wed Jan 15 2025 14:10:19 GMT-0600 (Central Standard Time),330859.299999997,A,fir,I,r,84,2,366.5,330492.799999997,8005,WL,B,2.0
3,2.3989999294281006,learn,57601.0000705719,Wed Jan 15 2025 14:10:19 GMT-0600 (Central Standard Time),330942.19999999553,A,fire,I,e,64,2,449.3999999985099,330492.799999997,8005,WL,B,2.0
3,2.5160000324249268,learn,57483.99996757507,Wed Jan 15 2025 14:10:19 GMT-0600 (Central Standard Time),331058.799999997,A,fireenter,I,enter,101,2,566.0,330492.799999997,8005,WL,B,2.0
3,2.9820001125335693,learn,57017.99988746643,Wed Jan 15 2025 14:10:19 GMT-0600 (Central Standard Time),331525.299999997,A,w,I,w,456,2,466.1000000014901,331059.19999999553,8005,WL,B,3.0
3,3.065999984741211,learn,56934.00001525879,Wed Jan 15 2025 14:10:19 GMT-0600 (Central Standard Time),331608.59999999404,A,wi,I,i,70,2,549.3999999985099,331059.19999999553,8005,WL,B,3.0
3,3.1660001277923584,learn,56833.99987220764,Wed Jan 15 2025 14:10:19 GMT-0600 (Central Standard Time),331708.5,A,win,I,n,91,2,649.3000000044703,331059.19999999553,8005,WL,B,3.0
3,3.2160000801086426,learn,56783.99991989136,Wed Jan 15 2025 14:10:19 GMT-0600 (Central Standard Time),331759.0,A,wind,I,d,38,2,699.8000000044703,331059.19999999553,8005,WL,B,3.0
3,3.3989999294281006,learn,56601.0000705719,Wed Jan 15 2025 14:10:19 GMT-0600 (Central Standard Time),331942.09999999404,A,windw,I,w,164,2,882.8999999985099,331059.19999999553,8005,WL,B,3.0
3,3.4830000400543213,learn,56516.99995994568,Wed Jan 15 2025 14:10:19 GMT-0600 (Central Standard Time),332025.799999997,A,windwo,I,o,61,2,966.6000000014901,331059.19999999553,8005,WL,B,3.0
3,4.164999961853027,learn,55835.00003814697,Wed Jan 15 2025 14:10:19 GMT-0600 (Central Standard Time),332708.19999999553,A,windw,I,backspace,672,2,1649.0,331059.19999999553,8005,WL,B,3.0
3,4.482000112533569,learn,55517.99988746643,Wed Jan 15 2025 14:10:19 GMT-0600 (Central Standard Time),333025.0,A,wind,I,backspace,295,2,1965.8000000044703,331059.19999999553,8005,WL,B,3.0
3,4.699000120162964,learn,55300.999879837036,Wed Jan 15 2025 14:10:19 GMT-0600 (Central Standard Time),333242.0,A,windo,I,o,210,2,2182.8000000044703,331059.19999999553,8005,WL,B,3.0
3,4.815000057220459,learn,55184.99994277954,Wed Jan 15 2025 14:10:19 GMT-0600 (Central Standard Time),333358.09999999404,A,window,I,w,97,2,2298.89999999851,331059.19999999553,8005,WL,B,3.0
3,5.0959999561309814,learn,54904.00004386902,Wed Jan 15 2025 14:10:19 GMT-0600 (Central Standard Time),333639.299999997,A,windowenter,I,enter,274,2,2580.10000000149,331059.19999999553,8005,WL,B,3.0
3,5.115000009536743,learn,54884.99999046326,Wed Jan 15 2025 14:10:19 GMT-0600 (Central Standard Time),333658.0,A,c,I,c,12,2,18.600000001490116,333639.3999999985,8005,WL,B,4.0
3,5.24399995803833,learn,54756.00004196167,Wed Jan 15 2025 14:10:19 GMT-0600 (Central Standard Time),333786.5,A,cl,I,l,121,2,147.10000000149012,333639.3999999985,8005,WL,B,4.0
3,5.615000009536743,learn,54384.99999046326,Wed Jan 15 2025 14:10:19 GMT-0600 (Central Standard Time),334158.0,A,clo,I,o,359,2,518.6000000014901,333639.3999999985,8005,WL,B,4.0
3,5.8480000495910645,learn,54151.999950408936,Wed Jan 15 2025 14:10:19 GMT-0600 (Central Standard Time),334391.09999999404,A,cloc,I,c,213,2,751.6999999955297,333639.3999999985,8005,WL,B,4.0
3,5.914999961853027,learn,54085.00003814697,Wed Jan 15 2025 14:10:19 GMT-0600 (Central Standard Time),334458.0,A,clock,I,k,52,2,818.6000000014901,333639.3999999985,8005,WL,B,4.0
3,6.281000137329102,learn,53718.9998626709,Wed Jan 15 2025 14:10:19 GMT-0600 (Central Standard Time),334824.0,A,clockenter,I,enter,353,2,1184.6000000014901,333639.3999999985,8005,WL,B,4.0
3,7.914999961853027,learn,52085.00003814697,Wed Jan 15 2025 14:10:19 GMT-0600 (Central Standard Time),336457.3999999985,A,s,I,s,1619,2,1633.1000000014901,334824.299999997,8005,WL,B,5.0
3,8.081000089645386,learn,51918.999910354614,Wed Jan 15 2025 14:10:19 GMT-0600 (Central Standard Time),336623.799999997,A,st,I,t,145,2,1799.5,334824.299999997,8005,WL,B,5.0
3,8.197999954223633,learn,51802.00004577637,Wed Jan 15 2025 14:10:19 GMT-0600 (Central Standard Time),336740.5,A,str,I,r,108,2,1916.2000000029802,334824.299999997,8005,WL,B,5.0
3,8.598999977111816,learn,51401.00002288818,Wed Jan 15 2025 14:10:19 GMT-0600 (Central Standard Time),337141.3999999985,A,stre,I,e,391,2,2317.10000000149,334824.299999997,8005,WL,B,5.0
3,8.746999979019165,learn,51253.000020980835,Wed Jan 15 2025 14:10:19 GMT-0600 (Central Standard Time),337290.19999999553,A,stree,I,e,134,2,2465.89999999851,334824.299999997,8005,WL,B,5.0
3,8.847000122070312,learn,51152.99987792969,Wed Jan 15 2025 14:10:19 GMT-0600 (Central Standard Time),337390.09999999404,A,street,I,t,80,2,2565.7999999970198,334824.299999997,8005,WL,B,5.0
3,9.13100004196167,learn,50868.99995803833,Wed Jan 15 2025 14:10:19 GMT-0600 (Central Standard Time),337673.69999999553,A,streetenter,I,enter,261,2,2849.39999999851,334824.299999997,8005,WL,B,5.0
3,9.347000122070312,learn,50652.99987792969,Wed Jan 15 2025 14:10:19 GMT-0600 (Central Standard Time),337890.09999999404,A,c,I,c,202,2,216.09999999403954,337674.0,8005,WL,B,6.0
3,9.44700002670288,learn,50552.99997329712,Wed Jan 15 2025 14:10:19 GMT-0600 (Central Standard Time),337990.19999999553,A,ci,I,i,89,2,316.19999999552965,337674.0,8005,WL,B,6.0
3,9.597000122070312,learn,50402.99987792969,Wed Jan 15 2025 14:10:19 GMT-0600 (Central Standard Time),338140.0,A,cit,I,t,133,2,466.0,337674.0,8005,WL,B,6.0
3,9.664000034332275,learn,50335.999965667725,Wed Jan 15 2025 14:10:19 GMT-0600 (Central Standard Time),338206.59999999404,A,city,I,y,55,2,532.5999999940395,337674.0,8005,WL,B,6.0
3,9.94700002670288,learn,50052.99997329712,Wed Jan 15 2025 14:10:19 GMT-0600 (Central Standard Time),338490.19999999553,A,cityenter,I,enter,268,2,816.1999999955297,337674.0,8005,WL,B,6.0
3,10.097000122070312,learn,49902.99987792969,Wed Jan 15 2025 14:10:19 GMT-0600 (Central Standard Time),338640.09999999404,A,d,I,d,137,2,149.5,338490.59999999404,8005,WL,B,7.0
3,10.230000019073486,learn,49769.999980926514,Wed Jan 15 2025 14:10:19 GMT-0600 (Central Standard Time),338773.09999999404,A,do,I,o,115,2,282.5,338490.59999999404,8005,WL,B,7.0
3,10.364000082015991,learn,49635.99991798401,Wed Jan 15 2025 14:10:19 GMT-0600 (Central Standard Time),338906.69999999553,A,doo,I,o,111,2,416.1000000014901,338490.59999999404,8005,WL,B,7.0
3,10.430000066757202,learn,49569.9999332428,Wed Jan 15 2025 14:10:19 GMT-0600 (Central Standard Time),338973.09999999404,A,door,I,r,56,2,482.5,338490.59999999404,8005,WL,B,7.0
3,10.647000074386597,learn,49352.9999256134,Wed Jan 15 2025 14:10:19 GMT-0600 (Central Standard Time),339189.69999999553,A,doorenter,I,enter,206,2,699.1000000014901,338490.59999999404,8005,WL,B,7.0
3,12.480000019073486,learn,47519.999980926514,Wed Jan 15 2025 14:10:19 GMT-0600 (Central Standard Time),341022.5,A,a,I,a,1814,2,1832.4000000059605,339190.09999999404,8005,WL,B,8.0
3,12.61300015449524,learn,47386.99984550476,Wed Jan 15 2025 14:10:19 GMT-0600 (Central Standard Time),341155.8999999985,A,ar,I,r,116,2,1965.8000000044703,339190.09999999404,8005,WL,B,8.0
3,12.713000059127808,learn,47286.99994087219,Wed Jan 15 2025 14:10:19 GMT-0600 (Central Standard Time),341255.8999999985,A,arm,I,m,87,2,2065.8000000044703,339190.09999999404,8005,WL,B,8.0
3,12.913000106811523,learn,47086.99989318848,Wed Jan 15 2025 14:10:19 GMT-0600 (Central Standard Time),341455.59999999404,A,armenter,I,enter,179,2,2265.5,339190.09999999404,8005,WL,B,8.0
3,13.296000003814697,learn,46703.9999961853,Wed Jan 15 2025 14:10:19 GMT-0600 (Central Standard Time),341839.0,A,w,I,w,363,2,383.0,341456.0,8005,WL,B,9.0
3,13.42900013923645,learn,46570.99986076355,Wed Jan 15 2025 14:10:19 GMT-0600 (Central Standard Time),341972.299999997,A,wi,I,i,124,2,516.2999999970198,341456.0,8005,WL,B,9.0
3,13.529000043869019,learn,46470.99995613098,Wed Jan 15 2025 14:10:19 GMT-0600 (Central Standard Time),342072.19999999553,A,wif,I,f,79,2,616.1999999955297,341456.0,8005,WL,B,9.0
3,13.611999988555908,learn,46388.00001144409,Wed Jan 15 2025 14:10:19 GMT-0600 (Central Standard Time),342155.19999999553,A,wife,I,e,75,2,699.1999999955297,341456.0,8005,WL,B,9.0
3,13.779000043869019,learn,46220.99995613098,Wed Jan 15 2025 14:10:19 GMT-0600 (Central Standard Time),342322.09999999404,A,wifeenter,I,enter,152,2,866.0999999940395,341456.0,8005,WL,B,9.0
3,14.51200008392334,learn,45487.99991607666,Wed Jan 15 2025 14:10:19 GMT-0600 (Central Standard Time),343055.09999999404,A,s,I,s,713,2,732.6999999955297,342322.3999999985,8005,WL,B,10.0
3,14.646000146865845,learn,45353.999853134155,Wed Jan 15 2025 14:10:19 GMT-0600 (Central Standard Time),343188.3999999985,A,st,I,t,116,2,866.0,342322.3999999985,8005,WL,B,10.0
3,15.095999956130981,learn,44904.00004386902,Wed Jan 15 2025 14:10:19 GMT-0600 (Central Standard Time),343638.3999999985,A,sta,I,a,439,2,1316.0,342322.3999999985,8005,WL,B,10.0
3,15.229000091552734,learn,44770.999908447266,Wed Jan 15 2025 14:10:19 GMT-0600 (Central Standard Time),343771.59999999404,A,star,I,r,117,2,1449.1999999955297,342322.3999999985,8005,WL,B,10.0
3,16.91100001335144,learn,43088.99998664856,Wed Jan 15 2025 14:10:19 GMT-0600 (Central Standard Time),345454.299999997,A,starenter,I,enter,1671,2,3131.89999999851,342322.3999999985,8005,WL,B,10.0
3,17.84500002861023,learn,42154.99997138977,Wed Jan 15 2025 14:10:19 GMT-0600 (Central Standard Time),346387.3999999985,A,p,I,p,916,2,932.8000000044703,345454.59999999404,8005,WL,B,11.0
3,18.061000108718872,learn,41938.99989128113,Wed Jan 15 2025 14:10:19 GMT-0600 (Central Standard Time),346604.09999999404,A,pu,I,u,199,2,1149.5,345454.59999999404,8005,WL,B,11.0
3,18.49399995803833,learn,41506.00004196167,Wed Jan 15 2025 14:10:19 GMT-0600 (Central Standard Time),347037.299999997,A,pup,I,p,415,2,1582.7000000029802,345454.59999999404,8005,WL,B,11.0
3,18.66100001335144,learn,41338.99998664856,Wed Jan 15 2025 14:10:19 GMT-0600 (Central Standard Time),347204.09999999404,A,pupi,I,i,158,2,1749.5,345454.59999999404,8005,WL,B,11.0
3,18.878000020980835,learn,41121.999979019165,Wed Jan 15 2025 14:10:19 GMT-0600 (Central Standard Time),347420.3999999985,A,pupil,I,l,199,2,1965.8000000044703,345454.59999999404,8005,WL,B,11.0
3,19.044000148773193,learn,40955.99985122681,Wed Jan 15 2025 14:10:19 GMT-0600 (Central Standard Time),347587.09999999404,A,pupilenter,I,enter,150,2,2132.5,345454.59999999404,8005,WL,B,11.0
3,19.128000020980835,learn,40871.999979019165,Wed Jan 15 2025 14:10:19 GMT-0600 (Central Standard Time),347670.3999999985,A,c,I,c,64,2,82.89999999850988,347587.5,8005,WL,B,12.0
3,19.22699999809265,learn,40773.00000190735,Wed Jan 15 2025 14:10:19 GMT-0600 (Central Standard Time),347770.19999999553,A,ca,I,a,76,2,182.69999999552965,347587.5,8005,WL,B,12.0
3,19.39400005340576,learn,40605.99994659424,Wed Jan 15 2025 14:10:19 GMT-0600 (Central Standard Time),347936.8999999985,A,cab,I,b,153,2,349.3999999985099,347587.5,8005,WL,B,12.0
3,19.811000108718872,learn,40188.99989128113,Wed Jan 15 2025 14:10:19 GMT-0600 (Central Standard Time),348353.59999999404,A,cabi,I,i,394,2,766.0999999940395,347587.5,8005,WL,B,12.0
3,19.89400005340576,learn,40105.99994659424,Wed Jan 15 2025 14:10:19 GMT-0600 (Central Standard Time),348437.0,A,cabin,I,n,65,2,849.5,347587.5,8005,WL,B,12.0
3,20.062000036239624,learn,39937.999963760376,Wed Jan 15 2025 14:10:19 GMT-0600 (Central Standard Time),348604.5,A,cabinenter,I,enter,150,2,1017.0,347587.5,8005,WL,B,12.0
3,22.177000045776367,learn,37822.99995422363,Wed Jan 15 2025 14:10:19 GMT-0600 (Central Standard Time),350719.5,A,l,I,l,2102,2,2114.60000000149,348604.8999999985,8005,WL,B,13.0
3,22.243000030517578,learn,37756.99996948242,Wed Jan 15 2025 14:10:19 GMT-0600 (Central Standard Time),350786.0,A,la,I,a,43,2,2181.10000000149,348604.8999999985,8005,WL,B,13.0
3,22.41000008583069,learn,37589.99991416931,Wed Jan 15 2025 14:10:19 GMT-0600 (Central Standard Time),350952.69999999553,A,lak,I,k,153,2,2347.7999999970198,348604.8999999985,8005,WL,B,13.0
3,22.493000030517578,learn,37506.99996948242,Wed Jan 15 2025 14:10:19 GMT-0600 (Central Standard Time),351036.19999999553,A,lake,I,e,66,2,2431.2999999970198,348604.8999999985,8005,WL,B,13.0
3,22.5770001411438,learn,37422.9998588562,Wed Jan 15 2025 14:10:19 GMT-0600 (Central Standard Time),351119.5,A,lakeenter,I,enter,71,2,2514.60000000149,348604.8999999985,8005,WL,B,13.0
3,25.55900001525879,learn,34440.99998474121,Wed Jan 15 2025 14:10:19 GMT-0600 (Central Standard Time),354101.69999999553,A,c,I,c,2963,2,2981.7999999970198,351119.8999999985,8005,WL,B,14.0
3,25.692000150680542,learn,34307.99984931946,Wed Jan 15 2025 14:10:19 GMT-0600 (Central Standard Time),354234.8999999985,A,ci,I,i,117,2,3115.0,351119.8999999985,8005,WL,B,14.0
3,25.858999967575073,learn,34141.00003242493,Wed Jan 15 2025 14:10:19 GMT-0600 (Central Standard Time),354401.69999999553,A,cit,I,t,144,2,3281.7999999970198,351119.8999999985,8005,WL,B,14.0
3,25.926000118255615,learn,34073.999881744385,Wed Jan 15 2025 14:10:19 GMT-0600 (Central Standard Time),354468.3999999985,A,city,I,y,49,2,3348.5,351119.8999999985,8005,WL,B,14.0
3,26.075000047683716,learn,33924.999952316284,Wed Jan 15 2025 14:10:19 GMT-0600 (Central Standard Time),354618.299999997,A,cityenter,I,enter,127,2,3498.39999999851,351119.8999999985,8005,WL,B,14.0
3,39.28800010681152,learn,20711.999893188477,Wed Jan 15 2025 14:10:19 GMT-0600 (Central Standard Time),367830.799999997,A,p,I,p,13193,2,13212.20000000298,354618.59999999404,8005,WL,B,15.0
3,39.4539999961853,learn,20546.000003814697,Wed Jan 15 2025 14:10:19 GMT-0600 (Central Standard Time),367997.299999997,A,pi,I,i,156,2,13378.70000000298,354618.59999999404,8005,WL,B,15.0
3,39.587000131607056,learn,20412.999868392944,Wed Jan 15 2025 14:10:19 GMT-0600 (Central Standard Time),368130.3999999985,A,pip,I,p,126,2,13511.80000000447,354618.59999999404,8005,WL,B,15.0
3,39.75399994850159,learn,20246.000051498413,Wed Jan 15 2025 14:10:19 GMT-0600 (Central Standard Time),368297.19999999553,A,pipe,I,e,153,2,13678.60000000149,354618.59999999404,8005,WL,B,15.0
3,40.15400004386902,learn,19845.99995613098,Wed Jan 15 2025 14:10:19 GMT-0600 (Central Standard Time),368697.09999999404,A,pipeenter,I,enter,378,2,14078.5,354618.59999999404,8005,WL,B,15.0
4,0.6500000953674316,learn,59349.99990463257,Wed Jan 15 2025 14:10:19 GMT-0600 (Central Standard Time),433394.0,A,s,I,s,628,2,649.9000000059605,432744.09999999404,8005,WL,B,1.0
4,0.75,learn,59250.0,Wed Jan 15 2025 14:10:19 GMT-0600 (Central Standard Time),433493.59999999404,A,sk,I,k,89,2,749.5,432744.09999999404,8005,WL,B,1.0
4,0.9500000476837158,learn,59049.999952316284,Wed Jan 15 2025 14:10:19 GMT-0600 (Central Standard Time),433693.5,A,ski,I,i,181,2,949.4000000059605,432744.09999999404,8005,WL,B,1.0
4,1.0499999523162842,learn,58950.000047683716,Wed Jan 15 2025 14:10:19 GMT-0600 (Central Standard Time),433793.3999999985,A,skin,I,n,85,2,1049.3000000044703,432744.09999999404,8005,WL,B,1.0
4,1.7669999599456787,learn,58233.00004005432,Wed Jan 15 2025 14:10:19 GMT-0600 (Central Standard Time),434510.0,A,ski,I,backspace,698,2,1765.9000000059605,432744.09999999404,8005,WL,B,1.0
4,2.5999999046325684,learn,57400.00009536743,Wed Jan 15 2025 14:10:19 GMT-0600 (Central Standard Time),435343.19999999553,A,skin,I,n,820,2,2599.10000000149,432744.09999999404,8005,WL,B,1.0
4,2.7990000247955322,learn,57200.99997520447,Wed Jan 15 2025 14:10:19 GMT-0600 (Central Standard Time),435543.0,A,skinenter,I,enter,180,2,2798.9000000059605,432744.09999999404,8005,WL,B,1.0
4,3.1489999294281006,learn,56851.0000705719,Wed Jan 15 2025 14:10:19 GMT-0600 (Central Standard Time),435892.8999999985,A,f,I,f,332,2,349.6000000014901,435543.299999997,8005,WL,B,2.0
4,3.3329999446868896,learn,56667.00005531311,Wed Jan 15 2025 14:10:19 GMT-0600 (Central Standard Time),436076.299999997,A,fi,I,i,174,2,533.0,435543.299999997,8005,WL,B,2.0
4,3.4830000400543213,learn,56516.99995994568,Wed Jan 15 2025 14:10:19 GMT-0600 (Central Standard Time),436226.3999999985,A,fir,I,r,127,2,683.1000000014901,435543.299999997,8005,WL,B,2.0
4,3.5329999923706055,learn,56467.000007629395,Wed Jan 15 2025 14:10:19 GMT-0600 (Central Standard Time),436276.09999999404,A,fire,I,e,40,2,732.7999999970198,435543.299999997,8005,WL,B,2.0
4,3.7990000247955322,learn,56200.99997520447,Wed Jan 15 2025 14:10:19 GMT-0600 (Central Standard Time),436542.3999999985,A,fireenter,I,enter,255,2,999.1000000014901,435543.299999997,8005,WL,B,2.0
4,4.08299994468689,learn,55917.00005531311,Wed Jan 15 2025 14:10:19 GMT-0600 (Central Standard Time),436826.0,A,c,I,c,260,2,283.20000000298023,436542.799999997,8005,WL,B,3.0
4,4.165999889373779,learn,55834.00011062622,Wed Jan 15 2025 14:10:19 GMT-0600 (Central Standard Time),436909.19999999553,A,cl,I,l,73,2,366.3999999985099,436542.799999997,8005,WL,B,3.0
4,4.332000017166138,learn,55667.99998283386,Wed Jan 15 2025 14:10:19 GMT-0600 (Central Standard Time),437075.8999999985,A,clo,I,o,150,2,533.1000000014901,436542.799999997,8005,WL,B,3.0
4,4.431999921798706,learn,55568.000078201294,Wed Jan 15 2025 14:10:19 GMT-0600 (Central Standard Time),437175.8999999985,A,cloc,I,c,87,2,633.1000000014901,436542.799999997,8005,WL,B,3.0
4,4.516999959945679,learn,55483.00004005432,Wed Jan 15 2025 14:10:19 GMT-0600 (Central Standard Time),437260.299999997,A,clock,I,k,75,2,717.5,436542.799999997,8005,WL,B,3.0
4,6.098999977111816,learn,53901.00002288818,Wed Jan 15 2025 14:10:19 GMT-0600 (Central Standard Time),438842.09999999404,A,clockenter,I,enter,1558,2,2299.2999999970198,436542.799999997,8005,WL,B,3.0
4,6.9649999141693115,learn,53035.00008583069,Wed Jan 15 2025 14:10:19 GMT-0600 (Central Standard Time),439708.299999997,A,c,I,c,857,2,865.7999999970198,438842.5,8005,WL,B,4.0
4,7.0320000648498535,learn,52967.99993515015,Wed Jan 15 2025 14:10:19 GMT-0600 (Central Standard Time),439775.0,A,ca,I,a,47,2,932.5,438842.5,8005,WL,B,4.0
4,7.2820000648498535,learn,52717.99993515015,Wed Jan 15 2025 14:10:19 GMT-0600 (Central Standard Time),440025.09999999404,A,cab,I,b,236,2,1182.5999999940395,438842.5,8005,WL,B,4.0
4,7.398000001907349,learn,52601.99999809265,Wed Jan 15 2025 14:10:19 GMT-0600 (Central Standard Time),440141.69999999553,A,cabi,I,i,106,2,1299.1999999955297,438842.5,8005,WL,B,4.0
4,7.482000112533569,learn,52517.99988746643,Wed Jan 15 2025 14:10:19 GMT-0600 (Central Standard Time),440225.0,A,cabin,I,n,62,2,1382.5,438842.5,8005,WL,B,4.0
4,7.664999961853027,learn,52335.00003814697,Wed Jan 15 2025 14:10:19 GMT-0600 (Central Standard Time),440408.09999999404,A,cabinenter,I,enter,170,2,1565.5999999940395,438842.5,8005,WL,B,4.0
4,10.346999883651733,learn,49653.00011634827,Wed Jan 15 2025 14:10:19 GMT-0600 (Central Standard Time),443090.59999999404,A,w,I,w,2659,2,2682.0999999940395,440408.5,8005,WL,B,5.0
4,10.54699993133545,learn,49453.00006866455,Wed Jan 15 2025 14:10:19 GMT-0600 (Central Standard Time),443290.69999999553,A,wi,I,i,184,2,2882.1999999955297,440408.5,8005,WL,B,5.0
4,10.71399998664856,learn,49286.00001335144,Wed Jan 15 2025 14:10:19 GMT-0600 (Central Standard Time),443457.0,A,win,I,n,152,2,3048.5,440408.5,8005,WL,B,5.0
4,11.02999997138977,learn,48970.00002861023,Wed Jan 15 2025 14:10:19 GMT-0600 (Central Standard Time),443773.69999999553,A,wind,I,d,298,2,3365.1999999955297,440408.5,8005,WL,B,5.0
4,11.163000106811523,learn,48836.99989318848,Wed Jan 15 2025 14:10:19 GMT-0600 (Central Standard Time),443906.8999999985,A,windo,I,o,126,2,3498.39999999851,440408.5,8005,WL,B,5.0
4,11.46399998664856,learn,48536.00001335144,Wed Jan 15 2025 14:10:19 GMT-0600 (Central Standard Time),444207.0,A,window,I,w,288,2,3798.5,440408.5,8005,WL,B,5.0
4,12.02999997138977,learn,47970.00002861023,Wed Jan 15 2025 14:10:19 GMT-0600 (Central Standard Time),444773.299999997,A,windowenter,I,enter,548,2,4364.79999999702,440408.5,8005,WL,B,5.0
4,12.463000059127808,learn,47536.99994087219,Wed Jan 15 2025 14:10:19 GMT-0600 (Central Standard Time),445206.5,A,l,I,l,421,2,432.80000000447035,444773.69999999553,8005,WL,B,6.0
4,12.596999883651733,learn,47403.00011634827,Wed Jan 15 2025 14:10:19 GMT-0600 (Central Standard Time),445340.0,A,la,I,a,116,2,566.3000000044703,444773.69999999553,8005,WL,B,6.0
4,12.746999979019165,learn,47253.000020980835,Wed Jan 15 2025 14:10:19 GMT-0600 (Central Standard Time),445490.0,A,lak,I,k,127,2,716.3000000044703,444773.69999999553,8005,WL,B,6.0
4,12.845999956130981,learn,47154.00004386902,Wed Jan 15 2025 14:10:19 GMT-0600 (Central Standard Time),445589.799999997,A,lake,I,e,82,2,816.1000000014901,444773.69999999553,8005,WL,B,6.0
4,12.930000066757202,learn,47069.9999332428,Wed Jan 15 2025 14:10:19 GMT-0600 (Central Standard Time),445673.09999999404,A,lakeenter,I,enter,69,2,899.3999999985099,444773.69999999553,8005,WL,B,6.0
4,13.913000106811523,learn,46086.99989318848,Wed Jan 15 2025 14:10:19 GMT-0600 (Central Standard Time),446656.299999997,A,d,I,d,962,2,982.7999999970198,445673.5,8005,WL,B,7.0
4,14.01200008392334,learn,45987.99991607666,Wed Jan 15 2025 14:10:19 GMT-0600 (Central Standard Time),446755.8999999985,A,do,I,o,91,2,1082.3999999985099,445673.5,8005,WL,B,7.0
4,14.145999908447266,learn,45854.000091552734,Wed Jan 15 2025 14:10:19 GMT-0600 (Central Standard Time),446889.3999999985,A,doo,I,o,111,2,1215.8999999985099,445673.5,8005,WL,B,7.0
4,14.246000051498413,learn,45753.99994850159,Wed Jan 15 2025 14:10:19 GMT-0600 (Central Standard Time),446989.299999997,A,door,I,r,82,2,1315.7999999970198,445673.5,8005,WL,B,7.0
4,14.36299991607666,learn,45637.00008392334,Wed Jan 15 2025 14:10:19 GMT-0600 (Central Standard Time),447106.299999997,A,doorenter,I,enter,94,2,1432.7999999970198,445673.5,8005,WL,B,7.0
4,14.946000099182129,learn,45053.99990081787,Wed Jan 15 2025 14:10:19 GMT-0600 (Central Standard Time),447689.299999997,A,g,I,g,560,2,582.6000000014901,447106.69999999553,8005,WL,B,8.0
4,15.095999956130981,learn,44904.00004386902,Wed Jan 15 2025 14:10:19 GMT-0600 (Central Standard Time),447839.19999999553,A,gr,I,r,137,2,732.5,447106.69999999553,8005,WL,B,8.0
4,15.361999988555908,learn,44638.00001144409,Wed Jan 15 2025 14:10:19 GMT-0600 (Central Standard Time),448105.799999997,A,gra,I,a,244,2,999.1000000014901,447106.69999999553,8005,WL,B,8.0
4,15.546000003814697,learn,44453.9999961853,Wed Jan 15 2025 14:10:19 GMT-0600 (Central Standard Time),448289.09999999404,A,gras,I,s,169,2,1182.3999999985099,447106.69999999553,8005,WL,B,8.0
4,15.661999940872192,learn,44338.00005912781,Wed Jan 15 2025 14:10:19 GMT-0600 (Central Standard Time),448405.5,A,grass,I,s,98,2,1298.8000000044703,447106.69999999553,8005,WL,B,8.0
4,15.979000091552734,learn,44020.999908447266,Wed Jan 15 2025 14:10:19 GMT-0600 (Central Standard Time),448722.09999999404,A,grassenter,I,enter,293,2,1615.3999999985099,447106.69999999553,8005,WL,B,8.0
4,17.994999885559082,learn,42005.00011444092,Wed Jan 15 2025 14:10:19 GMT-0600 (Central Standard Time),450738.19999999553,A,a,I,a,2001,2,2015.6999999955297,448722.5,8005,WL,B,9.0
4,18.145999908447266,learn,41854.000091552734,Wed Jan 15 2025 14:10:19 GMT-0600 (Central Standard Time),450889.299999997,A,ar,I,r,137,2,2166.7999999970198,448722.5,8005,WL,B,9.0
4,18.244999885559082,learn,41755.00011444092,Wed Jan 15 2025 14:10:19 GMT-0600 (Central Standard Time),450988.19999999553,A,arm,I,m,89,2,2265.6999999955297,448722.5,8005,WL,B,9.0
4,18.42799997329712,learn,41572.00002670288,Wed Jan 15 2025 14:10:19 GMT-0600 (Central Standard Time),451171.19999999553,A,armenter,I,enter,175,2,2448.6999999955297,448722.5,8005,WL,B,9.0
4,18.647000074386597,learn,41352.9999256134,Wed Jan 15 2025 14:10:19 GMT-0600 (Central Standard Time),451390.799999997,A,s,I,s,213,2,219.29999999701977,451171.5,8005,WL,B,10.0
4,18.795000076293945,learn,41204.999923706055,Wed Jan 15 2025 14:10:19 GMT-0600 (Central Standard Time),451538.5,A,st,I,t,140,2,367.0,451171.5,8005,WL,B,10.0
4,18.927000045776367,learn,41072.99995422363,Wed Jan 15 2025 14:10:19 GMT-0600 (Central Standard Time),451670.8999999985,A,str,I,r,110,2,499.3999999985099,451171.5,8005,WL,B,10.0
4,18.994999885559082,learn,41005.00011444092,Wed Jan 15 2025 14:10:19 GMT-0600 (Central Standard Time),451738.09999999404,A,stre,I,e,45,2,566.5999999940395,451171.5,8005,WL,B,10.0
4,19.16100001335144,learn,40838.99998664856,Wed Jan 15 2025 14:10:19 GMT-0600 (Central Standard Time),451904.5,A,stree,I,e,153,2,733.0,451171.5,8005,WL,B,10.0
4,19.26099991798401,learn,40739.00008201599,Wed Jan 15 2025 14:10:19 GMT-0600 (Central Standard Time),452004.59999999404,A,street,I,t,83,2,833.0999999940395,451171.5,8005,WL,B,10.0
4,19.710999965667725,learn,40289.000034332275,Wed Jan 15 2025 14:10:19 GMT-0600 (Central Standard Time),452454.299999997,A,streetenter,I,enter,439,2,1282.7999999970198,451171.5,8005,WL,B,10.0
4,20.344000101089478,learn,39655.99989891052,Wed Jan 15 2025 14:10:19 GMT-0600 (Central Standard Time),453087.3999999985,A,s,I,s,621,2,632.8000000044703,452454.59999999404,8005,WL,B,11.0
4,20.49399995803833,learn,39506.00004196167,Wed Jan 15 2025 14:10:19 GMT-0600 (Central Standard Time),453237.3999999985,A,st,I,t,132,2,782.8000000044703,452454.59999999404,8005,WL,B,11.0
4,20.82699990272522,learn,39173.00009727478,Wed Jan 15 2025 14:10:19 GMT-0600 (Central Standard Time),453570.799999997,A,sta,I,a,311,2,1116.2000000029802,452454.59999999404,8005,WL,B,11.0
4,20.91100001335144,learn,39088.99998664856,Wed Jan 15 2025 14:10:19 GMT-0600 (Central Standard Time),453654.0,A,star,I,r,64,2,1199.4000000059605,452454.59999999404,8005,WL,B,11.0
4,21.05999994277954,learn,38940.00005722046,Wed Jan 15 2025 14:10:19 GMT-0600 (Central Standard Time),453803.799999997,A,starenter,I,enter,141,2,1349.2000000029802,452454.59999999404,8005,WL,B,11.0
4,21.32699990272522,learn,38673.00009727478,Wed Jan 15 2025 14:10:19 GMT-0600 (Central Standard Time),454070.3999999985,A,w,I,w,247,2,266.30000000447035,453804.09999999404,8005,WL,B,12.0
4,21.427000045776367,learn,38572.99995422363,Wed Jan 15 2025 14:10:19 GMT-0600 (Central Standard Time),454170.59999999404,A,wi,I,i,77,2,366.5,453804.09999999404,8005,WL,B,12.0
4,21.509999990463257,learn,38490.00000953674,Wed Jan 15 2025 14:10:19 GMT-0600 (Central Standard Time),454253.59999999404,A,wif,I,f,73,2,449.5,453804.09999999404,8005,WL,B,12.0
4,21.627000093460083,learn,38372.99990653992,Wed Jan 15 2025 14:10:19 GMT-0600 (Central Standard Time),454370.299999997,A,wife,I,e,102,2,566.2000000029802,453804.09999999404,8005,WL,B,12.0
4,21.74399995803833,learn,38256.00004196167,Wed Jan 15 2025 14:10:19 GMT-0600 (Central Standard Time),454487.09999999404,A,wifeenter,I,enter,104,2,683.0,453804.09999999404,8005,WL,B,12.0
4,22.05999994277954,learn,37940.00005722046,Wed Jan 15 2025 14:10:19 GMT-0600 (Central Standard Time),454803.59999999404,A,w,I,w,300,2,316.19999999552965,454487.3999999985,8005,WL,B,13.0
4,22.109999895095825,learn,37890.000104904175,Wed Jan 15 2025 14:10:19 GMT-0600 (Central Standard Time),454853.59999999404,A,wi,I,i,39,2,366.19999999552965,454487.3999999985,8005,WL,B,13.0
4,22.243000030517578,learn,37756.99996948242,Wed Jan 15 2025 14:10:19 GMT-0600 (Central Standard Time),454986.59999999404,A,win,I,n,126,2,499.19999999552965,454487.3999999985,8005,WL,B,13.0
4,22.926000118255615,learn,37073.999881744385,Wed Jan 15 2025 14:10:19 GMT-0600 (Central Standard Time),455669.8999999985,A,wi,I,backspace,665,2,1182.5,454487.3999999985,8005,WL,B,13.0
4,23.07699990272522,learn,36923.00009727478,Wed Jan 15 2025 14:10:19 GMT-0600 (Central Standard Time),455820.09999999404,A,w,I,backspace,133,2,1332.6999999955297,454487.3999999985,8005,WL,B,13.0
4,23.193000078201294,learn,36806.999921798706,Wed Jan 15 2025 14:10:19 GMT-0600 (Central Standard Time),455936.59999999404,A,,I,backspace,103,2,1449.1999999955297,454487.3999999985,8005,WL,B,13.0
4,26.375999927520752,learn,33624.00007247925,Wed Jan 15 2025 14:10:19 GMT-0600 (Central Standard Time),459119.09999999404,A,c,I,c,3162,2,4631.69999999553,454487.3999999985,8005,WL,B,13.0
4,26.492000102996826,learn,33507.999897003174,Wed Jan 15 2025 14:10:19 GMT-0600 (Central Standard Time),459235.5,A,ci,I,i,100,2,4748.10000000149,454487.3999999985,8005,WL,B,13.0
4,26.658999919891357,learn,33341.00008010864,Wed Jan 15 2025 14:10:19 GMT-0600 (Central Standard Time),459402.299999997,A,cit,I,t,152,2,4914.89999999851,454487.3999999985,8005,WL,B,13.0
4,26.691999912261963,learn,33308.00008773804,Wed Jan 15 2025 14:10:19 GMT-0600 (Central Standard Time),459435.3999999985,A,city,I,y,25,2,4948.0,454487.3999999985,8005,WL,B,13.0
4,27.592000007629395,learn,32407.999992370605,Wed Jan 15 2025 14:10:19 GMT-0600 (Central Standard Time),460335.3999999985,A,cityenter,I,enter,888,2,5848.0,454487.3999999985,8005,WL,B,13.0
4,27.808000087738037,learn,32191.999912261963,Wed Jan 15 2025 14:10:19 GMT-0600 (Central Standard Time),460551.799999997,A,s,I,s,204,2,216.10000000149012,460335.69999999553,8005,WL,B,14.0
4,27.907999992370605,learn,32092.000007629395,Wed Jan 15 2025 14:10:19 GMT-0600 (Central Standard Time),460651.799999997,A,st,I,t,91,2,316.1000000014901,460335.69999999553,8005,WL,B,14.0
4,28.325000047683716,learn,31674.999952316284,Wed Jan 15 2025 14:10:19 GMT-0600 (Central Standard Time),461068.19999999553,A,sta,I,a,407,2,732.5,460335.69999999553,8005,WL,B,14.0
4,28.45799994468689,learn,31542.00005531311,Wed Jan 15 2025 14:10:19 GMT-0600 (Central Standard Time),461201.3999999985,A,star,I,r,111,2,865.7000000029802,460335.69999999553,8005,WL,B,14.0
4,28.842999935150146,learn,31157.000064849854,Wed Jan 15 2025 14:10:19 GMT-0600 (Central Standard Time),461586.09999999404,A,starenter,I,enter,370,2,1250.3999999985099,460335.69999999553,8005,WL,B,14.0
4,30.073999881744385,learn,29926.000118255615,Wed Jan 15 2025 14:10:19 GMT-0600 (Central Standard Time),462817.799999997,A,w,I,w,1209,2,1231.5,461586.299999997,8005,WL,B,15.0
4,30.157999992370605,learn,29842.000007629395,Wed Jan 15 2025 14:10:19 GMT-0600 (Central Standard Time),462901.299999997,A,wi,I,i,65,2,1315.0,461586.299999997,8005,WL,B,15.0
4,30.240999937057495,learn,29759.000062942505,Wed Jan 15 2025 14:10:19 GMT-0600 (Central Standard Time),462984.3999999985,A,win,I,n,70,2,1398.1000000014901,461586.299999997,8005,WL,B,15.0
4,30.407999992370605,learn,29592.000007629395,Wed Jan 15 2025 14:10:19 GMT-0600 (Central Standard Time),463151.0,A,wind,I,d,155,2,1564.7000000029802,461586.299999997,8005,WL,B,15.0
4,30.54099988937378,learn,29459.00011062622,Wed Jan 15 2025 14:10:19 GMT-0600 (Central Standard Time),463284.19999999553,A,windo,I,o,124,2,1697.8999999985099,461586.299999997,8005,WL,B,15.0
4,30.657999992370605,learn,29342.000007629395,Wed Jan 15 2025 14:10:19 GMT-0600 (Central Standard Time),463401.0,A,window,I,w,95,2,1814.7000000029802,461586.299999997,8005,WL,B,15.0
4,33.37299990653992,learn,26627.000093460083,Wed Jan 15 2025 14:10:19 GMT-0600 (Central Standard Time),466116.799999997,A,windowenter,I,enter,2699,2,4530.5,461586.299999997,8005,WL,B,15.0
5,0.48199987411499023,learn,60000.0,Wed Jan 15 2025 14:10:19 GMT-0600 (Central Standard Time),530731.1999999955,A,s,I,s,459,2,482.5,530248.6999999955,8005,WL,B,1.0
5,0.6149997711181641,learn,60000.0,Wed Jan 15 2025 14:10:19 GMT-0600 (Central Standard Time),530863.5,A,sk,I,k,119,2,614.8000000044703,530248.6999999955,8005,WL,B,1.0
5,0.8139998912811279,learn,60000.0,Wed Jan 15 2025 14:10:19 GMT-0600 (Central Standard Time),531063.1999999955,A,ski,I,i,180,2,814.5,530248.6999999955,8005,WL,B,1.0
5,0.9149999618530273,learn,60000.0,Wed Jan 15 2025 14:10:19 GMT-0600 (Central Standard Time),531164.099999994,A,skin,I,n,92,2,915.3999999985099,530248.6999999955,8005,WL,B,1.0
5,1.5809998512268066,learn,60000.0,Wed Jan 15 2025 14:10:19 GMT-0600 (Central Standard Time),531829.5,A,ski,I,backspace,655,2,1580.8000000044703,530248.6999999955,8005,WL,B,1.0
5,2.313999891281128,learn,60000.0,Wed Jan 15 2025 14:10:19 GMT-0600 (Central Standard Time),532562.6999999955,A,skin,I,n,710,2,2314.0,530248.6999999955,8005,WL,B,1.0
5,2.496999979019165,learn,60000.0,Wed Jan 15 2025 14:10:19 GMT-0600 (Central Standard Time),532745.799999997,A,skinenter,I,enter,160,2,2497.10000000149,530248.6999999955,8005,WL,B,1.0
5,2.8969998359680176,learn,60000.0,Wed Jan 15 2025 14:10:19 GMT-0600 (Central Standard Time),533146.099999994,A,c,I,c,377,2,399.8999999985099,532746.1999999955,8005,WL,B,2.0
5,3.046999931335449,learn,60000.0,Wed Jan 15 2025 14:10:19 GMT-0600 (Central Standard Time),533295.799999997,A,cl,I,l,137,2,549.6000000014901,532746.1999999955,8005,WL,B,2.0
5,3.2799999713897705,learn,60000.0,Wed Jan 15 2025 14:10:19 GMT-0600 (Central Standard Time),533529.099999994,A,clo,I,o,211,2,782.8999999985099,532746.1999999955,8005,WL,B,2.0
5,3.4139997959136963,learn,60000.0,Wed Jan 15 2025 14:10:19 GMT-0600 (Central Standard Time),533662.3999999985,A,cloc,I,c,114,2,916.2000000029802,532746.1999999955,8005,WL,B,2.0
5,3.5139999389648438,learn,60000.0,Wed Jan 15 2025 14:10:19 GMT-0600 (Central Standard Time),533762.3999999985,A,clock,I,k,92,2,1016.2000000029802,532746.1999999955,8005,WL,B,2.0
5,3.879999876022339,learn,60000.0,Wed Jan 15 2025 14:10:19 GMT-0600 (Central Standard Time),534129.099999994,A,clockenter,I,enter,352,2,1382.8999999985099,532746.1999999955,8005,WL,B,2.0
5,4.546000003814697,learn,60000.0,Wed Jan 15 2025 14:10:19 GMT-0600 (Central Standard Time),534795.1999999955,A,f,I,f,650,2,665.7999999970198,534129.3999999985,8005,WL,B,3.0
5,4.662999868392944,learn,60000.0,Wed Jan 15 2025 14:10:19 GMT-0600 (Central Standard Time),534911.8999999985,A,fi,I,i,96,2,782.5,534129.3999999985,8005,WL,B,3.0
5,4.729999780654907,learn,60000.0,Wed Jan 15 2025 14:10:19 GMT-0600 (Central Standard Time),534978.5,A,fir,I,r,59,2,849.1000000014901,534129.3999999985,8005,WL,B,3.0
5,4.812999963760376,learn,60000.0,Wed Jan 15 2025 14:10:19 GMT-0600 (Central Standard Time),535061.6999999955,A,fire,I,e,73,2,932.2999999970198,534129.3999999985,8005,WL,B,3.0
5,4.896999835968018,learn,60000.0,Wed Jan 15 2025 14:10:19 GMT-0600 (Central Standard Time),535145.3999999985,A,fireenter,I,enter,70,2,1016.0,534129.3999999985,8005,WL,B,3.0
5,5.012999773025513,learn,60000.0,Wed Jan 15 2025 14:10:19 GMT-0600 (Central Standard Time),535261.8999999985,A,c,I,c,105,2,116.20000000298023,535145.6999999955,8005,WL,B,4.0
5,5.0959999561309814,learn,60000.0,Wed Jan 15 2025 14:10:19 GMT-0600 (Central Standard Time),535345.099999994,A,ca,I,a,70,2,199.39999999850988,535145.6999999955,8005,WL,B,4.0
5,5.2799999713897705,learn,60000.0,Wed Jan 15 2025 14:10:19 GMT-0600 (Central Standard Time),535528.299999997,A,cab,I,b,170,2,382.6000000014901,535145.6999999955,8005,WL,B,4.0
5,5.395999908447266,learn,60000.0,Wed Jan 15 2025 14:10:19 GMT-0600 (Central Standard Time),535644.8999999985,A,cabi,I,i,99,2,499.20000000298023,535145.6999999955,8005,WL,B,4.0
5,5.4629998207092285,learn,60000.0,Wed Jan 15 2025 14:10:19 GMT-0600 (Central Standard Time),535711.6999999955,A,cabin,I,n,54,2,566.0,535145.6999999955,8005,WL,B,4.0
5,5.578999996185303,learn,60000.0,Wed Jan 15 2025 14:10:19 GMT-0600 (Central Standard Time),535828.0,A,cabinenter,I,enter,108,2,682.3000000044703,535145.6999999955,8005,WL,B,4.0
5,5.995999813079834,learn,60000.0,Wed Jan 15 2025 14:10:19 GMT-0600 (Central Standard Time),536244.599999994,A,l,I,l,400,2,416.19999999552965,535828.3999999985,8005,WL,B,5.0
5,6.128999948501587,learn,60000.0,Wed Jan 15 2025 14:10:19 GMT-0600 (Central Standard Time),536378.0,A,la,I,a,118,2,549.6000000014901,535828.3999999985,8005,WL,B,5.0
5,6.245999813079834,learn,60000.0,Wed Jan 15 2025 14:10:19 GMT-0600 (Central Standard Time),536494.6999999955,A,lak,I,k,105,2,666.2999999970198,535828.3999999985,8005,WL,B,5.0
5,6.3459999561309814,learn,60000.0,Wed Jan 15 2025 14:10:19 GMT-0600 (Central Standard Time),536594.8999999985,A,lake,I,e,84,2,766.5,535828.3999999985,8005,WL,B,5.0
5,6.44599986076355,learn,60000.0,Wed Jan 15 2025 14:10:19 GMT-0600 (Central Standard Time),536694.6999999955,A,lakeenter,I,enter,88,2,866.2999999970198,535828.3999999985,8005,WL,B,5.0
5,6.7789998054504395,learn,60000.0,Wed Jan 15 2025 14:10:19 GMT-0600 (Central Standard Time),537028.0,A,p,I,p,317,2,332.90000000596046,536695.099999994,8005,WL,B,6.0
5,7.19599986076355,learn,60000.0,Wed Jan 15 2025 14:10:19 GMT-0600 (Central Standard Time),537444.3999999985,A,pi,I,i,407,2,749.3000000044703,536695.099999994,8005,WL,B,6.0
5,7.34499979019165,learn,60000.0,Wed Jan 15 2025 14:10:19 GMT-0600 (Central Standard Time),537594.5,A,pip,I,p,126,2,899.4000000059605,536695.099999994,8005,WL,B,6.0
5,7.544999837875366,learn,60000.0,Wed Jan 15 2025 14:10:19 GMT-0600 (Central Standard Time),537794.299999997,A,pipe,I,e,185,2,1099.2000000029802,536695.099999994,8005,WL,B,6.0
5,7.678999900817871,learn,60000.0,Wed Jan 15 2025 14:10:19 GMT-0600 (Central Standard Time),537927.599999994,A,pipeenter,I,enter,121,2,1232.5,536695.099999994,8005,WL,B,6.0
5,8.894999980926514,learn,60000.0,Wed Jan 15 2025 14:10:19 GMT-0600 (Central Standard Time),539143.8999999985,A,s,I,s,1195,2,1216.0,537927.8999999985,8005,WL,B,7.0
5,9.027999877929688,learn,60000.0,Wed Jan 15 2025 14:10:19 GMT-0600 (Central Standard Time),539277.1999999955,A,st,I,t,123,2,1349.2999999970198,537927.8999999985,8005,WL,B,7.0
5,9.194999933242798,learn,60000.0,Wed Jan 15 2025 14:10:19 GMT-0600 (Central Standard Time),539443.8999999985,A,str,I,r,158,2,1516.0,537927.8999999985,8005,WL,B,7.0
5,9.26199984550476,learn,60000.0,Wed Jan 15 2025 14:10:19 GMT-0600 (Central Standard Time),539510.5,A,stre,I,e,56,2,1582.6000000014901,537927.8999999985,8005,WL,B,7.0
5,9.42799997329712,learn,60000.0,Wed Jan 15 2025 14:10:19 GMT-0600 (Central Standard Time),539677.1999999955,A,stree,I,e,148,2,1749.2999999970198,537927.8999999985,8005,WL,B,7.0
5,9.494999885559082,learn,60000.0,Wed Jan 15 2025 14:10:19 GMT-0600 (Central Standard Time),539743.6999999955,A,street,I,t,53,2,1815.7999999970198,537927.8999999985,8005,WL,B,7.0
5,10.060999870300293,learn,60000.0,Wed Jan 15 2025 14:10:19 GMT-0600 (Central Standard Time),540310.299999997,A,streetenter,I,enter,547,2,2382.39999999851,537927.8999999985,8005,WL,B,7.0
5,11.82699990272522,learn,60000.0,Wed Jan 15 2025 14:10:19 GMT-0600 (Central Standard Time),542076.299999997,A,g,I,g,1757,2,1765.7999999970198,540310.5,8005,WL,B,8.0
5,12.010999917984009,learn,60000.0,Wed Jan 15 2025 14:10:19 GMT-0600 (Central Standard Time),542259.5,A,gr,I,r,174,2,1949.0,540310.5,8005,WL,B,8.0
5,12.110999822616577,learn,60000.0,Wed Jan 15 2025 14:10:19 GMT-0600 (Central Standard Time),542359.599999994,A,gra,I,a,88,2,2049.0999999940395,540310.5,8005,WL,B,8.0
5,12.343999862670898,learn,60000.0,Wed Jan 15 2025 14:10:19 GMT-0600 (Central Standard Time),542593.0,A,gras,I,s,211,2,2282.5,540310.5,8005,WL,B,8.0
5,12.443999767303467,learn,60000.0,Wed Jan 15 2025 14:10:19 GMT-0600 (Central Standard Time),542692.799999997,A,grass,I,s,82,2,2382.2999999970198,540310.5,8005,WL,B,8.0
5,12.57699990272522,learn,60000.0,Wed Jan 15 2025 14:10:19 GMT-0600 (Central Standard Time),542826.1999999955,A,grassenter,I,enter,111,2,2515.6999999955297,540310.5,8005,WL,B,8.0
5,12.776999950408936,learn,60000.0,Wed Jan 15 2025 14:10:19 GMT-0600 (Central Standard Time),543026.3999999985,A,d,I,d,185,2,199.89999999850988,542826.5,8005,WL,B,9.0
5,12.893999814987183,learn,60000.0,Wed Jan 15 2025 14:10:19 GMT-0600 (Central Standard Time),543142.6999999955,A,do,I,o,105,2,316.19999999552965,542826.5,8005,WL,B,9.0
5,13.009999990463257,learn,60000.0,Wed Jan 15 2025 14:10:19 GMT-0600 (Central Standard Time),543259.299999997,A,dor,I,r,100,2,432.79999999701977,542826.5,8005,WL,B,9.0
5,13.109999895095825,learn,60000.0,Wed Jan 15 2025 14:10:19 GMT-0600 (Central Standard Time),543359.299999997,A,dorr,I,r,88,2,532.7999999970198,542826.5,8005,WL,B,9.0
5,13.40999984741211,learn,60000.0,Wed Jan 15 2025 14:10:19 GMT-0600 (Central Standard Time),543659.099999994,A,dor,I,backspace,292,2,832.5999999940395,542826.5,8005,WL,B,9.0
5,13.542999982833862,learn,60000.0,Wed Jan 15 2025 14:10:19 GMT-0600 (Central Standard Time),543792.3999999985,A,do,I,backspace,121,2,965.8999999985099,542826.5,8005,WL,B,9.0
5,13.793999910354614,learn,60000.0,Wed Jan 15 2025 14:10:19 GMT-0600 (Central Standard Time),544042.599999994,A,doo,I,o,243,2,1216.0999999940395,542826.5,8005,WL,B,9.0
5,13.90999984741211,learn,60000.0,Wed Jan 15 2025 14:10:19 GMT-0600 (Central Standard Time),544159.099999994,A,door,I,r,97,2,1332.5999999940395,542826.5,8005,WL,B,9.0
5,14.092999935150146,learn,60000.0,Wed Jan 15 2025 14:10:19 GMT-0600 (Central Standard Time),544342.299999997,A,doorenter,I,enter,172,2,1515.7999999970198,542826.5,8005,WL,B,9.0
5,14.292999982833862,learn,60000.0,Wed Jan 15 2025 14:10:19 GMT-0600 (Central Standard Time),544542.299999997,A,a,I,a,189,2,199.60000000149012,544342.6999999955,8005,WL,B,10.0
5,14.39299988746643,learn,60000.0,Wed Jan 15 2025 14:10:19 GMT-0600 (Central Standard Time),544642.3999999985,A,ar,I,r,85,2,299.70000000298023,544342.6999999955,8005,WL,B,10.0
5,14.525999784469604,learn,60000.0,Wed Jan 15 2025 14:10:19 GMT-0600 (Central Standard Time),544775.3999999985,A,arm,I,m,121,2,432.70000000298023,544342.6999999955,8005,WL,B,10.0
5,15.40499997138977,learn,60000.0,Wed Jan 15 2025 14:10:19 GMT-0600 (Central Standard Time),545654.1999999955,A,armenter,I,enter,872,2,1311.5,544342.6999999955,8005,WL,B,10.0
5,15.875999927520752,learn,60000.0,Wed Jan 15 2025 14:10:19 GMT-0600 (Central Standard Time),546125.1999999955,A,s,I,s,450,2,470.6000000014901,545654.599999994,8005,WL,B,11.0
5,16.025999784469604,learn,60000.0,Wed Jan 15 2025 14:10:19 GMT-0600 (Central Standard Time),546274.799999997,A,st,I,t,142,2,620.2000000029802,545654.599999994,8005,WL,B,11.0
5,16.242999792099,learn,60000.0,Wed Jan 15 2025 14:10:19 GMT-0600 (Central Standard Time),546491.599999994,A,sta,I,a,209,2,837.0,545654.599999994,8005,WL,B,11.0
5,16.342999935150146,learn,60000.0,Wed Jan 15 2025 14:10:19 GMT-0600 (Central Standard Time),546591.599999994,A,star,I,r,87,2,937.0,545654.599999994,8005,WL,B,11.0
5,16.508999824523926,learn,60000.0,Wed Jan 15 2025 14:10:19 GMT-0600 (Central Standard Time),546758.5,A,starenter,I,enter,147,2,1103.9000000059605,545654.599999994,8005,WL,B,11.0
5,16.64299988746643,learn,60000.0,Wed Jan 15 2025 14:10:19 GMT-0600 (Central Standard Time),546891.599999994,A,w,I,w,117,2,132.89999999850988,546758.6999999955,8005,WL,B,12.0
5,16.758999824523926,learn,60000.0,Wed Jan 15 2025 14:10:19 GMT-0600 (Central Standard Time),547008.1999999955,A,wi,I,i,104,2,249.5,546758.6999999955,8005,WL,B,12.0
5,16.80899977684021,learn,60000.0,Wed Jan 15 2025 14:10:19 GMT-0600 (Central Standard Time),547058.1999999955,A,wif,I,f,27,2,299.5,546758.6999999955,8005,WL,B,12.0
5,16.97599983215332,learn,60000.0,Wed Jan 15 2025 14:10:19 GMT-0600 (Central Standard Time),547224.6999999955,A,wife,I,e,153,2,466.0,546758.6999999955,8005,WL,B,12.0
5,17.192999839782715,learn,60000.0,Wed Jan 15 2025 14:10:19 GMT-0600 (Central Standard Time),547441.5,A,wifeenter,I,enter,202,2,682.8000000044703,546758.6999999955,8005,WL,B,12.0
5,17.408999919891357,learn,60000.0,Wed Jan 15 2025 14:10:19 GMT-0600 (Central Standard Time),547658.0,A,w,I,w,201,2,216.20000000298023,547441.799999997,8005,WL,B,13.0
5,17.54199981689453,learn,60000.0,Wed Jan 15 2025 14:10:19 GMT-0600 (Central Standard Time),547791.299999997,A,wi,I,i,113,2,349.5,547441.799999997,8005,WL,B,13.0
5,17.658999919891357,learn,60000.0,Wed Jan 15 2025 14:10:19 GMT-0600 (Central Standard Time),547907.6999999955,A,win,I,n,100,2,465.8999999985099,547441.799999997,8005,WL,B,13.0
5,18.14199995994568,learn,60000.0,Wed Jan 15 2025 14:10:19 GMT-0600 (Central Standard Time),548391.1999999955,A,wind,I,d,472,2,949.3999999985099,547441.799999997,8005,WL,B,13.0
5,18.274999856948853,learn,60000.0,Wed Jan 15 2025 14:10:19 GMT-0600 (Central Standard Time),548524.3999999985,A,windo,I,o,116,2,1082.6000000014901,547441.799999997,8005,WL,B,13.0
5,18.375,learn,60000.0,Wed Jan 15 2025 14:10:19 GMT-0600 (Central Standard Time),548624.3999999985,A,window,I,w,87,2,1182.6000000014901,547441.799999997,8005,WL,B,13.0
5,19.375,learn,60000.0,Wed Jan 15 2025 14:10:19 GMT-0600 (Central Standard Time),549623.8999999985,A,windowenter,I,enter,979,2,2182.10000000149,547441.799999997,8005,WL,B,13.0
5,20.057999849319458,learn,60000.0,Wed Jan 15 2025 14:10:19 GMT-0600 (Central Standard Time),550306.8999999985,A,p,I,p,667,2,682.7000000029802,549624.1999999955,8005,WL,B,14.0
5,20.307999849319458,learn,60000.0,Wed Jan 15 2025 14:10:19 GMT-0600 (Central Standard Time),550556.8999999985,A,pu,I,u,240,2,932.7000000029802,549624.1999999955,8005,WL,B,14.0
5,20.54099988937378,learn,60000.0,Wed Jan 15 2025 14:10:19 GMT-0600 (Central Standard Time),550790.299999997,A,pup,I,p,215,2,1166.1000000014901,549624.1999999955,8005,WL,B,14.0
5,20.674999952316284,learn,60000.0,Wed Jan 15 2025 14:10:19 GMT-0600 (Central Standard Time),550923.599999994,A,pupi,I,i,125,2,1299.3999999985099,549624.1999999955,8005,WL,B,14.0
5,20.890999794006348,learn,60000.0,Wed Jan 15 2025 14:10:19 GMT-0600 (Central Standard Time),551140.1999999955,A,pupil,I,l,200,2,1516.0,549624.1999999955,8005,WL,B,14.0
5,21.37399983406067,learn,60000.0,Wed Jan 15 2025 14:10:19 GMT-0600 (Central Standard Time),551623.299999997,A,pupilenter,I,enter,463,2,1999.1000000014901,549624.1999999955,8005,WL,B,14.0
5,23.33999991416931,learn,60000.0,Wed Jan 15 2025 14:10:19 GMT-0600 (Central Standard Time),553589.3999999985,A,c,I,c,1948,2,1965.8000000044703,551623.599999994,8005,WL,B,15.0
5,23.423999786376953,learn,60000.0,Wed Jan 15 2025 14:10:19 GMT-0600 (Central Standard Time),553672.799999997,A,ci,I,i,69,2,2049.2000000029802,551623.599999994,8005,WL,B,15.0
5,23.62399983406067,learn,60000.0,Wed Jan 15 2025 14:10:19 GMT-0600 (Central Standard Time),553872.8999999985,A,cit,I,t,178,2,2249.3000000044703,551623.599999994,8005,WL,B,15.0
5,23.68999981880188,learn,60000.0,Wed Jan 15 2025 14:10:19 GMT-0600 (Central Standard Time),553939.299999997,A,city,I,y,50,2,2315.7000000029802,551623.599999994,8005,WL,B,15.0
5,25.08999991416931,learn,60000.0,Wed Jan 15 2025 14:10:19 GMT-0600 (Central Standard Time),555338.8999999985,A,cityenter,I,enter,1384,2,3715.3000000044703,551623.599999994,8005,WL,B,15.0
6,0.8159999847412109,distr,59184.00001525879,Wed Jan 15 2025 14:10:19 GMT-0600 (Central Standard Time),621784.5,B,s,I,s,795,2,816.0,620968.5,8005,WL,B,1.0
6,0.9830000400543213,distr,59016.99995994568,Wed Jan 15 2025 14:10:19 GMT-0600 (Central Standard Time),621951.6999999955,B,st,I,t,154,2,983.1999999955297,620968.5,8005,WL,B,1.0
6,1.2170000076293945,distr,58782.999992370605,Wed Jan 15 2025 14:10:19 GMT-0600 (Central Standard Time),622184.8999999985,B,sto,I,o,210,2,1216.3999999985099,620968.5,8005,WL,B,1.0
6,1.3329999446868896,distr,58667.00005531311,Wed Jan 15 2025 14:10:19 GMT-0600 (Central Standard Time),622301.5,B,stor,I,r,98,2,1333.0,620968.5,8005,WL,B,1.0
6,1.6500000953674316,distr,58349.99990463257,Wed Jan 15 2025 14:10:19 GMT-0600 (Central Standard Time),622617.799999997,B,storm,I,m,302,2,1649.2999999970198,620968.5,8005,WL,B,1.0
6,2.0329999923706055,distr,57967.000007629395,Wed Jan 15 2025 14:10:19 GMT-0600 (Central Standard Time),623001.0,B,stormenter,I,enter,370,2,2032.5,620968.5,8005,WL,B,1.0
6,2.25,distr,57750.0,Wed Jan 15 2025 14:10:19 GMT-0600 (Central Standard Time),623218.0,B,v,I,v,195,2,216.60000000149012,623001.3999999985,8005,WL,B,2.0
6,2.2990000247955322,distr,57700.99997520447,Wed Jan 15 2025 14:10:19 GMT-0600 (Central Standard Time),623267.3999999985,B,vi,I,i,41,2,266.0,623001.3999999985,8005,WL,B,2.0
6,2.5490000247955322,distr,57450.99997520447,Wed Jan 15 2025 14:10:19 GMT-0600 (Central Standard Time),623517.5,B,vil,I,l,232,2,516.1000000014901,623001.3999999985,8005,WL,B,2.0
6,2.6660001277923584,distr,57333.99987220764,Wed Jan 15 2025 14:10:19 GMT-0600 (Central Standard Time),623634.299999997,B,vill,I,l,94,2,632.8999999985099,623001.3999999985,8005,WL,B,2.0
6,2.7330000400543213,distr,57266.99995994568,Wed Jan 15 2025 14:10:19 GMT-0600 (Central Standard Time),623701.099999994,B,villa,I,a,48,2,699.6999999955297,623001.3999999985,8005,WL,B,2.0
6,2.8329999446868896,distr,57167.00005531311,Wed Jan 15 2025 14:10:19 GMT-0600 (Central Standard Time),623801.0,B,villag,I,g,78,2,799.6000000014901,623001.3999999985,8005,WL,B,2.0
6,2.9160001277923584,distr,57083.99987220764,Wed Jan 15 2025 14:10:19 GMT-0600 (Central Standard Time),623884.299999997,B,village,I,e,75,2,882.8999999985099,623001.3999999985,8005,WL,B,2.0
6,3.115999937057495,distr,56884.000062942505,Wed Jan 15 2025 14:10:19 GMT-0600 (Central Standard Time),624084.099999994,B,villageenter,I,enter,183,2,1082.6999999955297,623001.3999999985,8005,WL,B,2.0
6,3.5989999771118164,distr,56401.00002288818,Wed Jan 15 2025 14:10:19 GMT-0600 (Central Standard Time),624567.299999997,B,c,I,c,463,2,482.8999999985099,624084.3999999985,8005,WL,B,3.0
6,3.7660000324249268,distr,56233.99996757507,Wed Jan 15 2025 14:10:19 GMT-0600 (Central Standard Time),624734.0,B,ce,I,e,156,2,649.6000000014901,624084.3999999985,8005,WL,B,3.0
6,3.865999937057495,distr,56134.000062942505,Wed Jan 15 2025 14:10:19 GMT-0600 (Central Standard Time),624833.8999999985,B,cel,I,l,85,2,749.5,624084.3999999985,8005,WL,B,3.0
6,3.9830000400543213,distr,56016.99995994568,Wed Jan 15 2025 14:10:19 GMT-0600 (Central Standard Time),624950.799999997,B,cell,I,l,97,2,866.3999999985099,624084.3999999985,8005,WL,B,3.0
6,4.131999969482422,distr,55868.00003051758,Wed Jan 15 2025 14:10:19 GMT-0600 (Central Standard Time),625100.299999997,B,cellenter,I,enter,141,2,1015.8999999985099,624084.3999999985,8005,WL,B,3.0
6,4.765000104904175,distr,55234.999895095825,Wed Jan 15 2025 14:10:19 GMT-0600 (Central Standard Time),625733.599999994,B,a,I,a,615,2,633.0,625100.599999994,8005,WL,B,4.0
6,4.914999961853027,distr,55085.00003814697,Wed Jan 15 2025 14:10:19 GMT-0600 (Central Standard Time),625883.5,B,ar,I,r,134,2,782.9000000059605,625100.599999994,8005,WL,B,4.0
6,5.115000009536743,distr,54884.99999046326,Wed Jan 15 2025 14:10:19 GMT-0600 (Central Standard Time),626083.3999999985,B,arm,I,m,183,2,982.8000000044703,625100.599999994,8005,WL,B,4.0
6,5.249000072479248,distr,54750.99992752075,Wed Jan 15 2025 14:10:19 GMT-0600 (Central Standard Time),626216.6999999955,B,army,I,y,112,2,1116.1000000014901,625100.599999994,8005,WL,B,4.0
6,5.3480000495910645,distr,54651.999950408936,Wed Jan 15 2025 14:10:19 GMT-0600 (Central Standard Time),626316.599999994,B,armyenter,I,enter,91,2,1216.0,625100.599999994,8005,WL,B,4.0
6,5.482000112533569,distr,54517.99988746643,Wed Jan 15 2025 14:10:19 GMT-0600 (Central Standard Time),626450.0,B,d,I,d,119,2,133.10000000149012,626316.8999999985,8005,WL,B,5.0
6,5.664999961853027,distr,54335.00003814697,Wed Jan 15 2025 14:10:19 GMT-0600 (Central Standard Time),626633.3999999985,B,dr,I,r,161,2,316.5,626316.8999999985,8005,WL,B,5.0
6,5.747999906539917,distr,54252.00009346008,Wed Jan 15 2025 14:10:19 GMT-0600 (Central Standard Time),626716.599999994,B,dre,I,e,74,2,399.69999999552965,626316.8999999985,8005,WL,B,5.0
6,5.815000057220459,distr,54184.99994277954,Wed Jan 15 2025 14:10:19 GMT-0600 (Central Standard Time),626783.299999997,B,dres,I,s,54,2,466.3999999985099,626316.8999999985,8005,WL,B,5.0
6,5.997999906539917,distr,54002.00009346008,Wed Jan 15 2025 14:10:19 GMT-0600 (Central Standard Time),626966.3999999985,B,dress,I,s,172,2,649.5,626316.8999999985,8005,WL,B,5.0
6,6.08299994468689,distr,53917.00005531311,Wed Jan 15 2025 14:10:19 GMT-0600 (Central Standard Time),627051.0,B,dressenter,I,enter,69,2,734.1000000014901,626316.8999999985,8005,WL,B,5.0
6,6.5980000495910645,distr,53401.999950408936,Wed Jan 15 2025 14:10:19 GMT-0600 (Central Standard Time),627566.5,B,l,I,l,496,2,515.1000000014901,627051.3999999985,8005,WL,B,6.0
6,6.697999954223633,distr,53302.00004577637,Wed Jan 15 2025 14:10:19 GMT-0600 (Central Standard Time),627666.299999997,B,li,I,i,85,2,614.8999999985099,627051.3999999985,8005,WL,B,6.0
6,6.898000001907349,distr,53101.99999809265,Wed Jan 15 2025 14:10:19 GMT-0600 (Central Standard Time),627866.1999999955,B,lip,I,p,185,2,814.7999999970198,627051.3999999985,8005,WL,B,6.0
6,7.13100004196167,distr,52868.99995803833,Wed Jan 15 2025 14:10:19 GMT-0600 (Central Standard Time),628099.299999997,B,lipenter,I,enter,226,2,1047.8999999985099,627051.3999999985,8005,WL,B,6.0
6,7.515000104904175,distr,52484.999895095825,Wed Jan 15 2025 14:10:19 GMT-0600 (Central Standard Time),628482.8999999985,B,o,I,o,360,2,383.3999999985099,628099.5,8005,WL,B,7.0
6,7.680999994277954,distr,52319.000005722046,Wed Jan 15 2025 14:10:19 GMT-0600 (Central Standard Time),628649.5,B,oc,I,c,152,2,550.0,628099.5,8005,WL,B,7.0
6,7.88100004196167,distr,52118.99995803833,Wed Jan 15 2025 14:10:19 GMT-0600 (Central Standard Time),628849.299999997,B,oce,I,e,185,2,749.7999999970198,628099.5,8005,WL,B,7.0
6,8.04800009727478,distr,51951.99990272522,Wed Jan 15 2025 14:10:19 GMT-0600 (Central Standard Time),629015.799999997,B,ocea,I,a,155,2,916.2999999970198,628099.5,8005,WL,B,7.0
6,8.148000001907349,distr,51851.99999809265,Wed Jan 15 2025 14:10:19 GMT-0600 (Central Standard Time),629115.8999999985,B,ocean,I,n,83,2,1016.3999999985099,628099.5,8005,WL,B,7.0
6,9.19700002670288,distr,50802.99997329712,Wed Jan 15 2025 14:10:19 GMT-0600 (Central Standard Time),630165.599999994,B,oceanenter,I,enter,1039,2,2066.0999999940395,628099.5,8005,WL,B,7.0
6,10.097000122070312,distr,49902.99987792969,Wed Jan 15 2025 14:10:19 GMT-0600 (Central Standard Time),631065.299999997,B,s,I,s,878,2,899.2999999970198,630166.0,8005,WL,B,8.0
6,10.230000019073486,distr,49769.999980926514,Wed Jan 15 2025 14:10:19 GMT-0600 (Central Standard Time),631198.5,B,st,I,t,113,2,1032.5,630166.0,8005,WL,B,8.0
6,10.314000129699707,distr,49685.99987030029,Wed Jan 15 2025 14:10:19 GMT-0600 (Central Standard Time),631281.8999999985,B,ste,I,e,68,2,1115.8999999985099,630166.0,8005,WL,B,8.0
6,10.38100004196167,distr,49618.99995803833,Wed Jan 15 2025 14:10:19 GMT-0600 (Central Standard Time),631348.799999997,B,stea,I,a,49,2,1182.7999999970198,630166.0,8005,WL,B,8.0
6,10.46399998664856,distr,49536.00001335144,Wed Jan 15 2025 14:10:19 GMT-0600 (Central Standard Time),631431.8999999985,B,steam,I,m,70,2,1265.8999999985099,630166.0,8005,WL,B,8.0
6,12.095999956130981,distr,47904.00004386902,Wed Jan 15 2025 14:10:19 GMT-0600 (Central Standard Time),633064.599999994,B,steamenter,I,enter,1612,2,2898.5999999940395,630166.0,8005,WL,B,8.0
6,13.746000051498413,distr,46253.99994850159,Wed Jan 15 2025 14:10:19 GMT-0600 (Central Standard Time),634714.099999994,B,b,I,b,1635,2,1649.1999999955297,633064.8999999985,8005,WL,B,9.0
6,13.86299991607666,distr,46137.00008392334,Wed Jan 15 2025 14:10:19 GMT-0600 (Central Standard Time),634830.799999997,B,ba,I,a,105,2,1765.8999999985099,633064.8999999985,8005,WL,B,9.0
6,13.979000091552734,distr,46020.999908447266,Wed Jan 15 2025 14:10:19 GMT-0600 (Central Standard Time),634947.1999999955,B,bab,I,b,108,2,1882.2999999970198,633064.8999999985,8005,WL,B,9.0
6,14.26200008392334,distr,45737.99991607666,Wed Jan 15 2025 14:10:19 GMT-0600 (Central Standard Time),635230.599999994,B,baby,I,y,272,2,2165.6999999955297,633064.8999999985,8005,WL,B,9.0
6,14.661999940872192,distr,45338.00005912781,Wed Jan 15 2025 14:10:19 GMT-0600 (Central Standard Time),635630.3999999985,B,babyenter,I,enter,380,2,2565.5,633064.8999999985,8005,WL,B,9.0
6,16.694999933242798,distr,43305.0000667572,Wed Jan 15 2025 14:10:19 GMT-0600 (Central Standard Time),637663.1999999955,B,l,I,l,2021,2,2032.3999999985099,635630.799999997,8005,WL,B,10.0
6,16.778000116348267,distr,43221.99988365173,Wed Jan 15 2025 14:10:19 GMT-0600 (Central Standard Time),637746.5,B,li,I,i,60,2,2115.7000000029802,635630.799999997,8005,WL,B,10.0
6,17.02900004386902,distr,42970.99995613098,Wed Jan 15 2025 14:10:19 GMT-0600 (Central Standard Time),637996.799999997,B,lip,I,p,233,2,2366.0,635630.799999997,8005,WL,B,10.0
6,17.295000076293945,distr,42704.999923706055,Wed Jan 15 2025 14:10:19 GMT-0600 (Central Standard Time),638262.8999999985,B,lipenter,I,enter,254,2,2632.10000000149,635630.799999997,8005,WL,B,10.0
6,20.64400005340576,distr,39355.99994659424,Wed Jan 15 2025 14:10:19 GMT-0600 (Central Standard Time),641612.0,B,r,I,r,3340,2,3348.8000000044703,638263.1999999955,8005,WL,B,11.0
6,20.74399995803833,distr,39256.00004196167,Wed Jan 15 2025 14:10:19 GMT-0600 (Central Standard Time),641711.8999999985,B,ro,I,o,79,2,3448.7000000029802,638263.1999999955,8005,WL,B,11.0
6,20.860000133514404,distr,39139.999866485596,Wed Jan 15 2025 14:10:19 GMT-0600 (Central Standard Time),641828.1999999955,B,roc,I,c,107,2,3565.0,638263.1999999955,8005,WL,B,11.0
6,20.944000005722046,distr,39055.999994277954,Wed Jan 15 2025 14:10:19 GMT-0600 (Central Standard Time),641911.8999999985,B,rock,I,k,64,2,3648.7000000029802,638263.1999999955,8005,WL,B,11.0
6,21.293999910354614,distr,38706.000089645386,Wed Jan 15 2025 14:10:19 GMT-0600 (Central Standard Time),642261.6999999955,B,rockenter,I,enter,331,2,3998.5,638263.1999999955,8005,WL,B,11.0
6,33.44000005722046,distr,26559.99994277954,Wed Jan 15 2025 14:10:19 GMT-0600 (Central Standard Time),654407.8999999985,B,p,I,p,12126,2,12145.89999999851,642262.0,8005,WL,B,12.0
6,33.555999994277954,distr,26444.000005722046,Wed Jan 15 2025 14:10:19 GMT-0600 (Central Standard Time),654524.599999994,B,pa,I,a,99,2,12262.59999999404,642262.0,8005,WL,B,12.0
6,33.69000005722046,distr,26309.99994277954,Wed Jan 15 2025 14:10:19 GMT-0600 (Central Standard Time),654658.1999999955,B,pal,I,l,118,2,12396.19999999553,642262.0,8005,WL,B,12.0
6,33.805999994277954,distr,26194.000005722046,Wed Jan 15 2025 14:10:19 GMT-0600 (Central Standard Time),654774.3999999985,B,pala,I,a,97,2,12512.39999999851,642262.0,8005,WL,B,12.0
6,33.956000089645386,distr,26043.999910354614,Wed Jan 15 2025 14:10:19 GMT-0600 (Central Standard Time),654924.299999997,B,palac,I,c,141,2,12662.29999999702,642262.0,8005,WL,B,12.0
6,34.02300000190735,distr,25976.99999809265,Wed Jan 15 2025 14:10:19 GMT-0600 (Central Standard Time),654991.1999999955,B,palace,I,e,55,2,12729.19999999553,642262.0,8005,WL,B,12.0
6,34.456000089645386,distr,25543.999910354614,Wed Jan 15 2025 14:10:19 GMT-0600 (Central Standard Time),655424.6999999955,B,palaceenter,I,enter,420,2,13162.69999999553,642262.0,8005,WL,B,12.0
6,40.520999908447266,distr,19479.000091552734,Wed Jan 15 2025 14:10:19 GMT-0600 (Central Standard Time),661489.1999999955,B,b,I,b,6050,2,6064.29999999702,655424.8999999985,8005,WL,B,13.0
6,40.73699998855591,distr,19263.00001144409,Wed Jan 15 2025 14:10:19 GMT-0600 (Central Standard Time),661705.599999994,B,ba,I,a,202,2,6280.69999999553,655424.8999999985,8005,WL,B,13.0
6,40.82100009918213,distr,19178.99990081787,Wed Jan 15 2025 14:10:19 GMT-0600 (Central Standard Time),661789.099999994,B,bar,I,r,73,2,6364.19999999553,655424.8999999985,8005,WL,B,13.0
6,41.63700008392334,distr,18362.99991607666,Wed Jan 15 2025 14:10:19 GMT-0600 (Central Standard Time),662605.5,B,barenter,I,enter,798,2,7180.60000000149,655424.8999999985,8005,WL,B,13.0
6,45.78600001335144,distr,14213.99998664856,Wed Jan 15 2025 14:10:19 GMT-0600 (Central Standard Time),666754.3999999985,B,enter,I,enter,4126,2,4148.60000000149,662605.799999997,8005,WL,B,14.0
6,46.168999910354614,distr,13831.000089645386,Wed Jan 15 2025 14:10:19 GMT-0600 (Central Standard Time),667137.3999999985,B,enter,I,enter,369,2,382.6000000014901,666754.799999997,8005,WL,B,15.0
7,1.565999984741211,immed,58434.00001525879,Wed Jan 15 2025 14:10:19 GMT-0600 (Central Standard Time),680982.8999999985,A,s,I,s,1547,2,1566.0,679416.8999999985,8005,WL,B,1.0
7,1.7330000400543213,immed,58266.99995994568,Wed Jan 15 2025 14:10:19 GMT-0600 (Central Standard Time),681149.6999999955,A,st,I,t,147,2,1732.7999999970198,679416.8999999985,8005,WL,B,1.0
7,2.116000175476074,immed,57883.999824523926,Wed Jan 15 2025 14:10:19 GMT-0600 (Central Standard Time),681532.799999997,A,str,I,r,373,2,2115.89999999851,679416.8999999985,8005,WL,B,1.0
7,2.2339999675750732,immed,57766.00003242493,Wed Jan 15 2025 14:10:19 GMT-0600 (Central Standard Time),681649.8999999985,A,stre,I,e,102,2,2233.0,679416.8999999985,8005,WL,B,1.0
7,2.383000135421753,immed,57616.99986457825,Wed Jan 15 2025 14:10:19 GMT-0600 (Central Standard Time),681799.299999997,A,stree,I,e,138,2,2382.39999999851,679416.8999999985,8005,WL,B,1.0
7,2.5160000324249268,immed,57483.99996757507,Wed Jan 15 2025 14:10:19 GMT-0600 (Central Standard Time),681932.799999997,A,street,I,t,116,2,2515.89999999851,679416.8999999985,8005,WL,B,1.0
7,4.598999977111816,immed,55401.00002288818,Wed Jan 15 2025 14:10:19 GMT-0600 (Central Standard Time),684015.599999994,A,streetenter,I,enter,2070,2,4598.69999999553,679416.8999999985,8005,WL,B,1.0
7,5.616000175476074,immed,54383.999824523926,Wed Jan 15 2025 14:10:19 GMT-0600 (Central Standard Time),685031.8999999985,A,g,I,g,996,2,1016.0,684015.8999999985,8005,WL,B,2.0
7,5.7820000648498535,immed,54217.99993515015,Wed Jan 15 2025 14:10:19 GMT-0600 (Central Standard Time),685198.5,A,gr,I,r,155,2,1182.6000000014901,684015.8999999985,8005,WL,B,2.0
7,5.865000009536743,immed,54134.99999046326,Wed Jan 15 2025 14:10:19 GMT-0600 (Central Standard Time),685281.5,A,gra,I,a,69,2,1265.6000000014901,684015.8999999985,8005,WL,B,2.0
7,6.115000009536743,immed,53884.99999046326,Wed Jan 15 2025 14:10:19 GMT-0600 (Central Standard Time),685531.8999999985,A,gras,I,s,234,2,1516.0,684015.8999999985,8005,WL,B,2.0
7,6.215000152587891,immed,53784.99984741211,Wed Jan 15 2025 14:10:19 GMT-0600 (Central Standard Time),685631.599999994,A,grass,I,s,79,2,1615.6999999955297,684015.8999999985,8005,WL,B,2.0
7,6.498000144958496,immed,53501.999855041504,Wed Jan 15 2025 14:10:19 GMT-0600 (Central Standard Time),685914.799999997,A,grassenter,I,enter,267,2,1898.8999999985099,684015.8999999985,8005,WL,B,2.0
7,9.46399998664856,immed,50536.00001335144,Wed Jan 15 2025 14:10:19 GMT-0600 (Central Standard Time),688880.5,A,d,I,d,2952,2,2965.4000000059605,685915.099999994,8005,WL,B,3.0
7,9.614000082015991,immed,50385.99991798401,Wed Jan 15 2025 14:10:19 GMT-0600 (Central Standard Time),689030.5,A,do,I,o,130,2,3115.4000000059605,685915.099999994,8005,WL,B,3.0
7,9.731000185012817,immed,50268.99981498718,Wed Jan 15 2025 14:10:19 GMT-0600 (Central Standard Time),689146.8999999985,A,doo,I,o,108,2,3231.8000000044703,685915.099999994,8005,WL,B,3.0
7,9.814000129699707,immed,50185.99987030029,Wed Jan 15 2025 14:10:19 GMT-0600 (Central Standard Time),689230.599999994,A,door,I,r,65,2,3315.5,685915.099999994,8005,WL,B,3.0
7,9.94700002670288,immed,50052.99997329712,Wed Jan 15 2025 14:10:19 GMT-0600 (Central Standard Time),689363.599999994,A,doorenter,I,enter,124,2,3448.5,685915.099999994,8005,WL,B,3.0
7,10.097000122070312,immed,49902.99987792969,Wed Jan 15 2025 14:10:19 GMT-0600 (Central Standard Time),689513.3999999985,A,a,I,a,127,2,149.60000000149012,689363.799999997,8005,WL,B,4.0
7,10.180000066757202,immed,49819.9999332428,Wed Jan 15 2025 14:10:19 GMT-0600 (Central Standard Time),689596.8999999985,A,ar,I,r,75,2,233.10000000149012,689363.799999997,8005,WL,B,4.0
7,10.38100004196167,immed,49618.99995803833,Wed Jan 15 2025 14:10:19 GMT-0600 (Central Standard Time),689796.8999999985,A,arm,I,m,183,2,433.1000000014901,689363.799999997,8005,WL,B,4.0
7,10.730000019073486,immed,49269.999980926514,Wed Jan 15 2025 14:10:19 GMT-0600 (Central Standard Time),690146.6999999955,A,armenter,I,enter,334,2,782.8999999985099,689363.799999997,8005,WL,B,4.0
7,10.897000074386597,immed,49102.9999256134,Wed Jan 15 2025 14:10:19 GMT-0600 (Central Standard Time),690313.1999999955,A,s,I,s,153,2,166.10000000149012,690147.099999994,8005,WL,B,5.0
7,10.996999979019165,immed,49003.000020980835,Wed Jan 15 2025 14:10:19 GMT-0600 (Central Standard Time),690413.3999999985,A,st,I,t,91,2,266.30000000447035,690147.099999994,8005,WL,B,5.0
7,11.147000074386597,immed,48852.9999256134,Wed Jan 15 2025 14:10:19 GMT-0600 (Central Standard Time),690563.299999997,A,sta,I,a,134,2,416.20000000298023,690147.099999994,8005,WL,B,5.0
7,11.264000177383423,immed,48735.99982261658,Wed Jan 15 2025 14:10:19 GMT-0600 (Central Standard Time),690680.0,A,star,I,r,104,2,532.9000000059605,690147.099999994,8005,WL,B,5.0
7,11.380000114440918,immed,48619.99988555908,Wed Jan 15 2025 14:10:19 GMT-0600 (Central Standard Time),690796.5,A,starenter,I,enter,107,2,649.4000000059605,690147.099999994,8005,WL,B,5.0
7,11.52999997138977,immed,48470.00002861023,Wed Jan 15 2025 14:10:19 GMT-0600 (Central Standard Time),690946.5,A,w,I,w,135,2,149.70000000298023,690796.799999997,8005,WL,B,6.0
7,11.630000114440918,immed,48369.99988555908,Wed Jan 15 2025 14:10:19 GMT-0600 (Central Standard Time),691046.799999997,A,wi,I,i,80,2,250.0,690796.799999997,8005,WL,B,6.0
7,11.730000019073486,immed,48269.999980926514,Wed Jan 15 2025 14:10:19 GMT-0600 (Central Standard Time),691146.5,A,wif,I,f,92,2,349.70000000298023,690796.799999997,8005,WL,B,6.0
7,11.847000122070312,immed,48152.99987792969,Wed Jan 15 2025 14:10:19 GMT-0600 (Central Standard Time),691263.1999999955,A,wife,I,e,97,2,466.3999999985099,690796.799999997,8005,WL,B,6.0
7,11.996999979019165,immed,48003.000020980835,Wed Jan 15 2025 14:10:19 GMT-0600 (Central Standard Time),691413.0,A,wifeenter,I,enter,132,2,616.2000000029802,690796.799999997,8005,WL,B,6.0
7,12.163000106811523,immed,47836.99989318848,Wed Jan 15 2025 14:10:19 GMT-0600 (Central Standard Time),691579.6999999955,A,w,I,w,150,2,166.29999999701977,691413.3999999985,8005,WL,B,7.0
7,12.27999997138977,immed,47720.00002861023,Wed Jan 15 2025 14:10:19 GMT-0600 (Central Standard Time),691696.299999997,A,wi,I,i,96,2,282.8999999985099,691413.3999999985,8005,WL,B,7.0
7,12.36300015449524,immed,47636.99984550476,Wed Jan 15 2025 14:10:19 GMT-0600 (Central Standard Time),691779.299999997,A,win,I,n,75,2,365.8999999985099,691413.3999999985,8005,WL,B,7.0
7,12.52999997138977,immed,47470.00002861023,Wed Jan 15 2025 14:10:19 GMT-0600 (Central Standard Time),691946.299999997,A,wind,I,d,152,2,532.8999999985099,691413.3999999985,8005,WL,B,7.0
7,12.713000059127808,immed,47286.99994087219,Wed Jan 15 2025 14:10:19 GMT-0600 (Central Standard Time),692129.5,A,windo,I,o,160,2,716.1000000014901,691413.3999999985,8005,WL,B,7.0
7,12.847000122070312,immed,47152.99987792969,Wed Jan 15 2025 14:10:19 GMT-0600 (Central Standard Time),692263.1999999955,A,window,I,w,114,2,849.7999999970198,691413.3999999985,8005,WL,B,7.0
7,13.380000114440918,immed,46619.99988555908,Wed Jan 15 2025 14:10:19 GMT-0600 (Central Standard Time),692796.0,A,windowenter,I,enter,516,2,1382.6000000014901,691413.3999999985,8005,WL,B,7.0
7,13.513000011444092,immed,46486.99998855591,Wed Jan 15 2025 14:10:19 GMT-0600 (Central Standard Time),692929.3999999985,A,s,I,s,119,2,133.10000000149012,692796.299999997,8005,WL,B,8.0
7,13.67900013923645,immed,46320.99986076355,Wed Jan 15 2025 14:10:19 GMT-0600 (Central Standard Time),693095.6999999955,A,st,I,t,146,2,299.3999999985099,692796.299999997,8005,WL,B,8.0
7,14.546000003814697,immed,45453.9999961853,Wed Jan 15 2025 14:10:19 GMT-0600 (Central Standard Time),693962.3999999985,A,s,I,backspace,860,2,1166.1000000014901,692796.299999997,8005,WL,B,8.0
7,14.67900013923645,immed,45320.99986076355,Wed Jan 15 2025 14:10:19 GMT-0600 (Central Standard Time),694095.6999999955,A,,I,backspace,121,2,1299.3999999985099,692796.299999997,8005,WL,B,8.0
