block_c,block_dur,condition,countdown,datetime,endtime,list,multichar_response,project,response,response_time,session_number,start_end,starttime,subject_id,task,task_vers,trial
,,,,Wed Oct 30 2024 14:06:54 GMT-0500 (Central Daylight Time),,,,I,space,308,1,,,8005,WL,A,
prac,,0,,Wed Oct 30 2024 14:06:54 GMT-0500 (Central Daylight Time),,NA,b,I,b,8443,1,,,8005,WL,A,1.0
prac,,0,,Wed Oct 30 2024 14:06:54 GMT-0500 (Central Daylight Time),,NA,bo,I,o,527,1,,,8005,WL,A,1.0
prac,,0,,Wed Oct 30 2024 14:06:54 GMT-0500 (Central Daylight Time),,NA,boo,I,o,146,1,,,8005,WL,A,1.0
prac,,0,,Wed Oct 30 2024 14:06:54 GMT-0500 (Central Daylight Time),,NA,boos,I,s,99,1,,,8005,WL,A,1.0
prac,,0,,Wed Oct 30 2024 14:06:54 GMT-0500 (Central Daylight Time),,NA,boost,I,t,71,1,,,8005,WL,A,1.0
prac,,0,,Wed Oct 30 2024 14:06:54 GMT-0500 (Central Daylight Time),,NA,boostenter,I,enter,5932,1,,,8005,WL,A,1.0
1,0.9000000953674316,learn,59099.99990463257,Wed Oct 30 2024 14:06:54 GMT-0500 (Central Daylight Time),184558.5,A,s,I,s,890,1,899.6999999955297,183658.80000000447,8005,WL,A,1.0
1,1.0,learn,59000.0,Wed Oct 30 2024 14:06:54 GMT-0500 (Central Daylight Time),184658.5,A,sa,I,a,94,1,999.6999999955297,183658.80000000447,8005,WL,A,1.0
1,1.183000087738037,learn,58816.99991226196,Wed Oct 30 2024 14:06:54 GMT-0500 (Central Daylight Time),184841.6000000015,A,sal,I,l,170,1,1182.7999999970198,183658.80000000447,8005,WL,A,1.0
1,1.3500001430511475,learn,58649.99985694885,Wed Oct 30 2024 14:06:54 GMT-0500 (Central Daylight Time),185008.30000000447,A,salt,I,t,146,1,1349.5,183658.80000000447,8005,WL,A,1.0
1,1.8330001831054688,learn,58166.99981689453,Wed Oct 30 2024 14:06:54 GMT-0500 (Central Daylight Time),185491.1000000015,A,saltenter,I,enter,475,1,1832.2999999970198,183658.80000000447,8005,WL,A,1.0
1,2.1500000953674316,learn,57849.99990463257,Wed Oct 30 2024 14:06:54 GMT-0500 (Central Daylight Time),185808.0,A,m,I,m,297,1,316.5,185491.5,8005,WL,A,2.0
1,2.2330000400543213,learn,57766.99995994568,Wed Oct 30 2024 14:06:54 GMT-0500 (Central Daylight Time),185891.1000000015,A,me,I,e,77,1,399.6000000014901,185491.5,8005,WL,A,2.0
1,2.6000001430511475,learn,57399.99985694885,Wed Oct 30 2024 14:06:54 GMT-0500 (Central Daylight Time),186257.80000000447,A,mea,I,a,354,1,766.3000000044703,185491.5,8005,WL,A,2.0
1,2.7330000400543213,learn,57266.99995994568,Wed Oct 30 2024 14:06:54 GMT-0500 (Central Daylight Time),186391.20000000298,A,mead,I,d,123,1,899.7000000029802,185491.5,8005,WL,A,2.0
1,2.933000087738037,learn,57066.99991226196,Wed Oct 30 2024 14:06:54 GMT-0500 (Central Daylight Time),186591.5,A,meado,I,o,182,1,1100.0,185491.5,8005,WL,A,2.0
1,3.0500001907348633,learn,56949.99980926514,Wed Oct 30 2024 14:06:54 GMT-0500 (Central Daylight Time),186708.1000000015,A,meadow,I,w,109,1,1216.6000000014901,185491.5,8005,WL,A,2.0
1,3.183000087738037,learn,56816.99991226196,Wed Oct 30 2024 14:06:54 GMT-0500 (Central Daylight Time),186841.0,A,meadowenter,I,enter,112,1,1349.5,185491.5,8005,WL,A,2.0
1,4.200000047683716,learn,55799.999952316284,Wed Oct 30 2024 14:06:54 GMT-0500 (Central Daylight Time),187858.1000000015,A,b,I,b,1011,1,1016.5,186841.6000000015,8005,WL,A,3.0
1,4.31600022315979,learn,55683.99977684021,Wed Oct 30 2024 14:06:54 GMT-0500 (Central Daylight Time),187973.8999999985,A,bo,I,o,107,1,1132.2999999970198,186841.6000000015,8005,WL,A,3.0
1,4.449000120162964,learn,55550.999879837036,Wed Oct 30 2024 14:06:54 GMT-0500 (Central Daylight Time),188107.30000000447,A,boo,I,o,119,1,1265.7000000029802,186841.6000000015,8005,WL,A,3.0
1,4.549000024795532,learn,55450.99997520447,Wed Oct 30 2024 14:06:54 GMT-0500 (Central Daylight Time),188207.3999999985,A,book,I,k,81,1,1365.7999999970198,186841.6000000015,8005,WL,A,3.0
1,4.682000160217285,learn,55317.999839782715,Wed Oct 30 2024 14:06:54 GMT-0500 (Central Daylight Time),188340.6000000015,A,bookenter,I,enter,126,1,1499.0,186841.6000000015,8005,WL,A,3.0
1,4.932000160217285,learn,55067.999839782715,Wed Oct 30 2024 14:06:54 GMT-0500 (Central Daylight Time),188590.6000000015,A,l,I,l,232,1,249.5,188341.1000000015,8005,WL,A,4.0
1,5.082000017166138,learn,54917.99998283386,Wed Oct 30 2024 14:06:54 GMT-0500 (Central Daylight Time),188740.6000000015,A,lo,I,o,134,1,399.5,188341.1000000015,8005,WL,A,4.0
1,5.14900016784668,learn,54850.99983215332,Wed Oct 30 2024 14:06:54 GMT-0500 (Central Daylight Time),188807.0,A,log,I,g,57,1,465.8999999985099,188341.1000000015,8005,WL,A,4.0
1,5.382000207901001,learn,54617.999792099,Wed Oct 30 2024 14:06:54 GMT-0500 (Central Daylight Time),189040.30000000447,A,logenter,I,enter,214,1,699.2000000029802,188341.1000000015,8005,WL,A,4.0
1,5.615000009536743,learn,54384.99999046326,Wed Oct 30 2024 14:06:54 GMT-0500 (Central Daylight Time),189273.5,A,r,I,r,213,1,232.69999999552965,189040.80000000447,8005,WL,A,5.0
1,5.932000160217285,learn,54067.999839782715,Wed Oct 30 2024 14:06:54 GMT-0500 (Central Daylight Time),189590.30000000447,A,rg,I,g,299,1,549.5,189040.80000000447,8005,WL,A,5.0
1,6.265000104904175,learn,53734.999895095825,Wed Oct 30 2024 14:06:54 GMT-0500 (Central Daylight Time),189923.5,A,r,I,backspace,319,1,882.6999999955297,189040.80000000447,8005,WL,A,5.0
1,6.483000040054321,learn,53516.99995994568,Wed Oct 30 2024 14:06:54 GMT-0500 (Central Daylight Time),190141.20000000298,A,ru,I,u,202,1,1100.3999999985099,189040.80000000447,8005,WL,A,5.0
1,6.531000137329102,learn,53468.9998626709,Wed Oct 30 2024 14:06:54 GMT-0500 (Central Daylight Time),190189.80000000447,A,rug,I,g,32,1,1149.0,189040.80000000447,8005,WL,A,5.0
1,7.998000144958496,learn,52001.999855041504,Wed Oct 30 2024 14:06:54 GMT-0500 (Central Daylight Time),191656.20000000298,A,rugenter,I,enter,1447,1,2615.39999999851,189040.80000000447,8005,WL,A,5.0
1,8.248000144958496,learn,51751.999855041504,Wed Oct 30 2024 14:06:54 GMT-0500 (Central Daylight Time),191906.20000000298,A,b,I,b,245,1,249.70000000298023,191656.5,8005,WL,A,6.0
1,8.48200011253357,learn,51517.99988746643,Wed Oct 30 2024 14:06:54 GMT-0500 (Central Daylight Time),192139.8999999985,A,bo,I,o,219,1,483.3999999985099,191656.5,8005,WL,A,6.0
1,8.614000082015991,learn,51385.99991798401,Wed Oct 30 2024 14:06:54 GMT-0500 (Central Daylight Time),192272.70000000298,A,boo,I,o,121,1,616.2000000029802,191656.5,8005,WL,A,6.0
1,8.698000192642212,learn,51301.99980735779,Wed Oct 30 2024 14:06:54 GMT-0500 (Central Daylight Time),192356.1000000015,A,book,I,k,76,1,699.6000000014901,191656.5,8005,WL,A,6.0
1,9.264000177383423,learn,50735.99982261658,Wed Oct 30 2024 14:06:54 GMT-0500 (Central Daylight Time),192922.1000000015,A,bookenter,I,enter,560,1,1265.6000000014901,191656.5,8005,WL,A,6.0
1,10.231000185012817,learn,49768.99981498718,Wed Oct 30 2024 14:06:54 GMT-0500 (Central Daylight Time),193888.8999999985,A,h,I,h,954,1,966.3999999985099,192922.5,8005,WL,A,7.0
1,10.264000177383423,learn,49735.99982261658,Wed Oct 30 2024 14:06:54 GMT-0500 (Central Daylight Time),193922.30000000447,A,ha,I,a,20,1,999.8000000044703,192922.5,8005,WL,A,7.0
1,10.38100004196167,learn,49618.99995803833,Wed Oct 30 2024 14:06:54 GMT-0500 (Central Daylight Time),194039.1000000015,A,har,I,r,98,1,1116.6000000014901,192922.5,8005,WL,A,7.0
1,10.531000137329102,learn,49468.9998626709,Wed Oct 30 2024 14:06:54 GMT-0500 (Central Daylight Time),194188.80000000447,A,harp,I,p,134,1,1266.3000000044703,192922.5,8005,WL,A,7.0
1,10.94700002670288,learn,49052.99997329712,Wed Oct 30 2024 14:06:54 GMT-0500 (Central Daylight Time),194605.1000000015,A,harpenter,I,enter,400,1,1682.6000000014901,192922.5,8005,WL,A,7.0
1,11.680999994277954,learn,48319.000005722046,Wed Oct 30 2024 14:06:54 GMT-0500 (Central Daylight Time),195339.5,A,c,I,c,727,1,733.8999999985099,194605.6000000015,8005,WL,A,8.0
1,11.814000129699707,learn,48185.99987030029,Wed Oct 30 2024 14:06:54 GMT-0500 (Central Daylight Time),195471.80000000447,A,ch,I,h,122,1,866.2000000029802,194605.6000000015,8005,WL,A,8.0
1,12.047000169754028,learn,47952.99983024597,Wed Oct 30 2024 14:06:54 GMT-0500 (Central Daylight Time),195704.8999999985,A,chi,I,i,222,1,1099.2999999970198,194605.6000000015,8005,WL,A,8.0
1,12.146000146865845,learn,47853.999853134155,Wed Oct 30 2024 14:06:54 GMT-0500 (Central Daylight Time),195804.80000000447,A,chim,I,m,83,1,1199.2000000029802,194605.6000000015,8005,WL,A,8.0
1,12.547000169754028,learn,47452.99983024597,Wed Oct 30 2024 14:06:54 GMT-0500 (Central Daylight Time),196204.8999999985,A,chimn,I,n,392,1,1599.2999999970198,194605.6000000015,8005,WL,A,8.0
1,12.663000106811523,learn,47336.99989318848,Wed Oct 30 2024 14:06:54 GMT-0500 (Central Daylight Time),196321.5,A,chimne,I,e,105,1,1715.8999999985099,194605.6000000015,8005,WL,A,8.0
1,12.913000106811523,learn,47086.99989318848,Wed Oct 30 2024 14:06:54 GMT-0500 (Central Daylight Time),196571.3999999985,A,chimney,I,y,236,1,1965.7999999970198,194605.6000000015,8005,WL,A,8.0
1,13.246000051498413,learn,46753.99994850159,Wed Oct 30 2024 14:06:54 GMT-0500 (Central Daylight Time),196904.5,A,chimneyenter,I,enter,322,1,2298.89999999851,194605.6000000015,8005,WL,A,8.0
1,20.627000093460083,learn,39372.99990653992,Wed Oct 30 2024 14:06:54 GMT-0500 (Central Daylight Time),204285.70000000298,A,k,I,k,7365,1,7380.70000000298,196905.0,8005,WL,A,9.0
1,20.710000038146973,learn,39289.99996185303,Wed Oct 30 2024 14:06:54 GMT-0500 (Central Daylight Time),204368.70000000298,A,ke,I,e,63,1,7463.70000000298,196905.0,8005,WL,A,9.0
1,20.878000020980835,learn,39121.999979019165,Wed Oct 30 2024 14:06:54 GMT-0500 (Central Daylight Time),204536.30000000447,A,key,I,y,157,1,7631.30000000447,196905.0,8005,WL,A,9.0
1,20.961000204086304,learn,39038.999795913696,Wed Oct 30 2024 14:06:54 GMT-0500 (Central Daylight Time),204618.8999999985,A,keyenter,I,enter,61,1,7713.89999999851,196905.0,8005,WL,A,9.0
1,26.192000150680542,learn,33807.99984931946,Wed Oct 30 2024 14:06:54 GMT-0500 (Central Daylight Time),209850.6000000015,A,b,I,b,5219,1,5231.39999999851,204619.20000000298,8005,WL,A,10.0
1,26.426000118255615,learn,33573.999881744385,Wed Oct 30 2024 14:06:54 GMT-0500 (Central Daylight Time),210083.8999999985,A,bo,I,o,226,1,5464.69999999553,204619.20000000298,8005,WL,A,10.0
1,26.55900001525879,learn,33440.99998474121,Wed Oct 30 2024 14:06:54 GMT-0500 (Central Daylight Time),210217.0,A,bok,I,k,114,1,5597.79999999702,204619.20000000298,8005,WL,A,10.0
1,27.29200005531311,learn,32707.99994468689,Wed Oct 30 2024 14:06:54 GMT-0500 (Central Daylight Time),210950.1000000015,A,bo,I,backspace,715,1,6330.89999999851,204619.20000000298,8005,WL,A,10.0
1,27.992000102996826,learn,32007.999897003174,Wed Oct 30 2024 14:06:54 GMT-0500 (Central Daylight Time),211650.0,A,boo,I,o,679,1,7030.79999999702,204619.20000000298,8005,WL,A,10.0
1,28.175000190734863,learn,31824.999809265137,Wed Oct 30 2024 14:06:54 GMT-0500 (Central Daylight Time),211833.30000000447,A,book,I,k,163,1,7214.10000000149,204619.20000000298,8005,WL,A,10.0
1,28.359000205993652,learn,31640.999794006348,Wed Oct 30 2024 14:06:54 GMT-0500 (Central Daylight Time),212017.70000000298,A,bookenter,I,enter,179,1,7398.5,204619.20000000298,8005,WL,A,10.0
1,58.0310001373291,learn,1968.9998626708984,Wed Oct 30 2024 14:06:54 GMT-0500 (Central Daylight Time),241690.6000000015,A,enter,I,enter,29668,1,29672.60000000149,212018.0,8005,WL,A,11.0
1,58.497000217437744,learn,1502.9997825622559,Wed Oct 30 2024 14:06:54 GMT-0500 (Central Daylight Time),242157.0,A,enter,I,enter,451,1,466.1000000014901,241690.8999999985,8005,WL,A,12.0
1,58.98100018501282,learn,1018.9998149871826,Wed Oct 30 2024 14:06:54 GMT-0500 (Central Daylight Time),242640.20000000298,A,enter,I,enter,464,1,482.80000000447035,242157.3999999985,8005,WL,A,13.0
1,59.414000034332275,learn,585.9999656677246,Wed Oct 30 2024 14:06:54 GMT-0500 (Central Daylight Time),243073.5,A,enter,I,enter,413,1,432.69999999552965,242640.80000000447,8005,WL,A,14.0
1,60.01400017738342,learn,-14.000177383422852,Wed Oct 30 2024 14:06:54 GMT-0500 (Central Daylight Time),243673.30000000447,A,None,I,None,595,1,599.5,243073.80000000447,8005,WL,A,15.0
2,0.4499998092651367,learn,59550.00019073486,Wed Oct 30 2024 14:06:54 GMT-0500 (Central Daylight Time),310785.6000000015,A,r,I,r,438,1,449.6000000014901,310336.0,8005,WL,A,1.0
2,0.5329999923706055,learn,59467.000007629395,Wed Oct 30 2024 14:06:54 GMT-0500 (Central Daylight Time),310868.80000000447,A,ra,I,a,75,1,532.8000000044703,310336.0,8005,WL,A,1.0
2,0.7329998016357422,learn,59267.00019836426,Wed Oct 30 2024 14:06:54 GMT-0500 (Central Daylight Time),311068.80000000447,A,rat,I,t,193,1,732.8000000044703,310336.0,8005,WL,A,1.0
2,0.8499999046325684,learn,59150.00009536743,Wed Oct 30 2024 14:06:54 GMT-0500 (Central Daylight Time),311185.200000003,A,ratt,I,t,104,1,849.2000000029802,310336.0,8005,WL,A,1.0
2,1.0,learn,59000.0,Wed Oct 30 2024 14:06:54 GMT-0500 (Central Daylight Time),311335.30000000447,A,rattl,I,l,132,1,999.3000000044703,310336.0,8005,WL,A,1.0
2,1.1999998092651367,learn,58800.00019073486,Wed Oct 30 2024 14:06:54 GMT-0500 (Central Daylight Time),311535.3999999985,A,rattle,I,e,190,1,1199.3999999985099,310336.0,8005,WL,A,1.0
2,1.4169998168945312,learn,58583.00018310547,Wed Oct 30 2024 14:06:54 GMT-0500 (Central Daylight Time),311751.8999999985,A,rattleenter,I,enter,206,1,1415.8999999985099,310336.0,8005,WL,A,1.0
2,1.566999912261963,learn,58433.00008773804,Wed Oct 30 2024 14:06:54 GMT-0500 (Central Daylight Time),311902.1000000015,A,g,I,g,133,1,149.70000000298023,311752.3999999985,8005,WL,A,2.0
2,1.682999849319458,learn,58317.00015068054,Wed Oct 30 2024 14:06:54 GMT-0500 (Central Daylight Time),312018.30000000447,A,go,I,o,111,1,265.90000000596046,311752.3999999985,8005,WL,A,2.0
2,1.8999998569488525,learn,58100.00014305115,Wed Oct 30 2024 14:06:54 GMT-0500 (Central Daylight Time),312235.0,A,gol,I,l,203,1,482.6000000014901,311752.3999999985,8005,WL,A,2.0
2,2.0169999599456787,learn,57983.00004005432,Wed Oct 30 2024 14:06:54 GMT-0500 (Central Daylight Time),312352.0,A,goll,I,l,106,1,599.6000000014901,311752.3999999985,8005,WL,A,2.0
2,2.3329999446868896,learn,57667.00005531311,Wed Oct 30 2024 14:06:54 GMT-0500 (Central Daylight Time),312668.1000000015,A,gol,I,backspace,310,1,915.7000000029802,311752.3999999985,8005,WL,A,2.0
2,2.4659998416900635,learn,57534.00015830994,Wed Oct 30 2024 14:06:54 GMT-0500 (Central Daylight Time),312801.6000000015,A,gold,I,d,121,1,1049.2000000029802,311752.3999999985,8005,WL,A,2.0
2,2.616999864578247,learn,57383.00013542175,Wed Oct 30 2024 14:06:54 GMT-0500 (Central Daylight Time),312952.5,A,goldenter,I,enter,132,1,1200.1000000014901,311752.3999999985,8005,WL,A,2.0
2,2.8489999771118164,learn,57151.00002288818,Wed Oct 30 2024 14:06:54 GMT-0500 (Central Daylight Time),313184.80000000447,A,f,I,f,212,1,231.90000000596046,312952.8999999985,8005,WL,A,3.0
2,2.9489998817443848,learn,57051.000118255615,Wed Oct 30 2024 14:06:54 GMT-0500 (Central Daylight Time),313284.80000000447,A,fl,I,l,85,1,331.90000000596046,312952.8999999985,8005,WL,A,3.0
2,3.0989999771118164,learn,56901.00002288818,Wed Oct 30 2024 14:06:54 GMT-0500 (Central Daylight Time),313434.3999999985,A,flo,I,o,144,1,481.5,312952.8999999985,8005,WL,A,3.0
2,3.1989998817443848,learn,56801.000118255615,Wed Oct 30 2024 14:06:54 GMT-0500 (Central Daylight Time),313534.30000000447,A,flow,I,w,82,1,581.4000000059605,312952.8999999985,8005,WL,A,3.0
2,3.2319998741149902,learn,56768.00012588501,Wed Oct 30 2024 14:06:54 GMT-0500 (Central Daylight Time),313567.80000000447,A,flowe,I,e,22,1,614.9000000059605,312952.8999999985,8005,WL,A,3.0
2,3.3329999446868896,learn,56667.00005531311,Wed Oct 30 2024 14:06:54 GMT-0500 (Central Daylight Time),313668.1000000015,A,flower,I,r,93,1,715.2000000029802,312952.8999999985,8005,WL,A,3.0
2,3.482999801635742,learn,56517.00019836426,Wed Oct 30 2024 14:06:54 GMT-0500 (Central Daylight Time),313818.1000000015,A,flowerenter,I,enter,137,1,865.2000000029802,312952.8999999985,8005,WL,A,3.0
2,3.6989998817443848,learn,56301.000118255615,Wed Oct 30 2024 14:06:54 GMT-0500 (Central Daylight Time),314034.5,A,t,I,t,203,1,216.10000000149012,313818.3999999985,8005,WL,A,4.0
2,3.8329999446868896,learn,56167.00005531311,Wed Oct 30 2024 14:06:54 GMT-0500 (Central Daylight Time),314167.8999999985,A,tr,I,r,115,1,349.5,313818.3999999985,8005,WL,A,4.0
2,3.8989999294281006,learn,56101.0000705719,Wed Oct 30 2024 14:06:54 GMT-0500 (Central Daylight Time),314234.30000000447,A,tra,I,a,45,1,415.90000000596046,313818.3999999985,8005,WL,A,4.0
2,4.016000032424927,learn,55983.99996757507,Wed Oct 30 2024 14:06:54 GMT-0500 (Central Daylight Time),314351.30000000447,A,trai,I,i,99,1,532.9000000059605,313818.3999999985,8005,WL,A,4.0
2,4.08299994468689,learn,55917.00005531311,Wed Oct 30 2024 14:06:54 GMT-0500 (Central Daylight Time),314418.0,A,train,I,n,54,1,599.6000000014901,313818.3999999985,8005,WL,A,4.0
2,4.299000024795532,learn,55700.99997520447,Wed Oct 30 2024 14:06:54 GMT-0500 (Central Daylight Time),314634.200000003,A,trainenter,I,enter,195,1,815.8000000044703,313818.3999999985,8005,WL,A,4.0
2,4.598999977111816,learn,55401.00002288818,Wed Oct 30 2024 14:06:54 GMT-0500 (Central Daylight Time),314934.1000000015,A,f,I,f,291,1,299.6000000014901,314634.5,8005,WL,A,5.0
2,4.781999826431274,learn,55218.000173568726,Wed Oct 30 2024 14:06:54 GMT-0500 (Central Daylight Time),315117.6000000015,A,fi,I,i,167,1,483.1000000014901,314634.5,8005,WL,A,5.0
2,4.865000009536743,learn,55134.99999046326,Wed Oct 30 2024 14:06:54 GMT-0500 (Central Daylight Time),315200.8999999985,A,fin,I,n,71,1,566.3999999985099,314634.5,8005,WL,A,5.0
2,4.98199987411499,learn,55018.00012588501,Wed Oct 30 2024 14:06:54 GMT-0500 (Central Daylight Time),315317.3999999985,A,fing,I,g,100,1,682.8999999985099,314634.5,8005,WL,A,5.0
2,5.08299994468689,learn,54917.00005531311,Wed Oct 30 2024 14:06:54 GMT-0500 (Central Daylight Time),315418.1000000015,A,finge,I,e,96,1,783.6000000014901,314634.5,8005,WL,A,5.0
2,5.165999889373779,learn,54834.00011062622,Wed Oct 30 2024 14:06:54 GMT-0500 (Central Daylight Time),315500.8999999985,A,finger,I,r,76,1,866.3999999985099,314634.5,8005,WL,A,5.0
2,5.299000024795532,learn,54700.99997520447,Wed Oct 30 2024 14:06:54 GMT-0500 (Central Daylight Time),315634.30000000447,A,fingerenter,I,enter,113,1,999.8000000044703,314634.5,8005,WL,A,5.0
2,5.448999881744385,learn,54551.000118255615,Wed Oct 30 2024 14:06:54 GMT-0500 (Central Daylight Time),315784.0,A,a,I,a,131,1,149.39999999850988,315634.6000000015,8005,WL,A,6.0
2,5.56499981880188,learn,54435.00018119812,Wed Oct 30 2024 14:06:54 GMT-0500 (Central Daylight Time),315900.700000003,A,ap,I,p,109,1,266.1000000014901,315634.6000000015,8005,WL,A,6.0
2,5.7149999141693115,learn,54285.00008583069,Wed Oct 30 2024 14:06:54 GMT-0500 (Central Daylight Time),316050.5,A,app,I,p,136,1,415.8999999985099,315634.6000000015,8005,WL,A,6.0
2,5.898000001907349,learn,54101.99999809265,Wed Oct 30 2024 14:06:54 GMT-0500 (Central Daylight Time),316233.80000000447,A,appl,I,l,163,1,599.2000000029802,315634.6000000015,8005,WL,A,6.0
2,5.9649999141693115,learn,54035.00008583069,Wed Oct 30 2024 14:06:54 GMT-0500 (Central Daylight Time),316300.6000000015,A,apple,I,e,52,1,666.0,315634.6000000015,8005,WL,A,6.0
2,6.082000017166138,learn,53917.99998283386,Wed Oct 30 2024 14:06:54 GMT-0500 (Central Daylight Time),316417.1000000015,A,appleenter,I,enter,105,1,782.5,315634.6000000015,8005,WL,A,6.0
2,6.23199987411499,learn,53768.00012588501,Wed Oct 30 2024 14:06:54 GMT-0500 (Central Daylight Time),316567.0,A,b,I,b,141,1,149.5,316417.5,8005,WL,A,7.0
2,6.347999811172485,learn,53652.000188827515,Wed Oct 30 2024 14:06:54 GMT-0500 (Central Daylight Time),316683.6000000015,A,bu,I,u,110,1,266.1000000014901,316417.5,8005,WL,A,7.0
2,6.48199987411499,learn,53518.00012588501,Wed Oct 30 2024 14:06:54 GMT-0500 (Central Daylight Time),316817.200000003,A,but,I,t,114,1,399.70000000298023,316417.5,8005,WL,A,7.0
2,6.582000017166138,learn,53417.99998283386,Wed Oct 30 2024 14:06:54 GMT-0500 (Central Daylight Time),316917.1000000015,A,butt,I,t,92,1,499.6000000014901,316417.5,8005,WL,A,7.0
2,6.7829999923706055,learn,53217.000007629395,Wed Oct 30 2024 14:06:54 GMT-0500 (Central Daylight Time),317118.200000003,A,butto,I,o,193,1,700.7000000029802,316417.5,8005,WL,A,7.0
2,6.865000009536743,learn,53134.99999046326,Wed Oct 30 2024 14:06:54 GMT-0500 (Central Daylight Time),317200.30000000447,A,button,I,n,71,1,782.8000000044703,316417.5,8005,WL,A,7.0
2,7.014999866485596,learn,52985.000133514404,Wed Oct 30 2024 14:06:54 GMT-0500 (Central Daylight Time),317350.200000003,A,buttonenter,I,enter,141,1,932.7000000029802,316417.5,8005,WL,A,7.0
2,7.2829999923706055,learn,52717.000007629395,Wed Oct 30 2024 14:06:54 GMT-0500 (Central Daylight Time),317618.0,A,b,I,b,247,1,267.0,317351.0,8005,WL,A,8.0
2,7.430999994277954,learn,52569.000005722046,Wed Oct 30 2024 14:06:54 GMT-0500 (Central Daylight Time),317766.80000000447,A,bo,I,o,131,1,415.80000000447035,317351.0,8005,WL,A,8.0
2,7.580999851226807,learn,52419.00014877319,Wed Oct 30 2024 14:06:54 GMT-0500 (Central Daylight Time),317916.80000000447,A,boo,I,o,135,1,565.8000000044703,317351.0,8005,WL,A,8.0
2,7.680999994277954,learn,52319.000005722046,Wed Oct 30 2024 14:06:54 GMT-0500 (Central Daylight Time),318016.700000003,A,book,I,k,81,1,665.7000000029802,317351.0,8005,WL,A,8.0
2,8.016000032424927,learn,51983.99996757507,Wed Oct 30 2024 14:06:54 GMT-0500 (Central Daylight Time),318351.1000000015,A,bookenter,I,enter,325,1,1000.1000000014901,317351.0,8005,WL,A,8.0
2,8.31499981880188,learn,51685.00018119812,Wed Oct 30 2024 14:06:54 GMT-0500 (Central Daylight Time),318650.1000000015,A,m,I,m,294,1,298.6000000014901,318351.5,8005,WL,A,9.0
2,8.398000001907349,learn,51601.99999809265,Wed Oct 30 2024 14:06:54 GMT-0500 (Central Daylight Time),318733.200000003,A,me,I,e,75,1,381.70000000298023,318351.5,8005,WL,A,9.0
2,8.497999906539917,learn,51502.00009346008,Wed Oct 30 2024 14:06:54 GMT-0500 (Central Daylight Time),318833.200000003,A,mea,I,a,80,1,481.70000000298023,318351.5,8005,WL,A,9.0
2,8.6489999294281,learn,51351.0000705719,Wed Oct 30 2024 14:06:54 GMT-0500 (Central Daylight Time),318984.1000000015,A,mead,I,d,132,1,632.6000000014901,318351.5,8005,WL,A,9.0
2,8.88099980354309,learn,51119.00019645691,Wed Oct 30 2024 14:06:54 GMT-0500 (Central Daylight Time),319216.30000000447,A,meado,I,o,213,1,864.8000000044703,318351.5,8005,WL,A,9.0
2,8.96399998664856,learn,51036.00001335144,Wed Oct 30 2024 14:06:54 GMT-0500 (Central Daylight Time),319299.6000000015,A,meadow,I,w,77,1,948.1000000014901,318351.5,8005,WL,A,9.0
2,9.080999851226807,learn,50919.00014877319,Wed Oct 30 2024 14:06:54 GMT-0500 (Central Daylight Time),319416.200000003,A,meadowenter,I,enter,106,1,1064.7000000029802,318351.5,8005,WL,A,9.0
2,9.230999946594238,learn,50769.00005340576,Wed Oct 30 2024 14:06:54 GMT-0500 (Central Daylight Time),319566.1000000015,A,f,I,f,133,1,149.5,319416.6000000015,8005,WL,A,10.0
2,9.54699993133545,learn,50453.00006866455,Wed Oct 30 2024 14:06:54 GMT-0500 (Central Daylight Time),319882.5,A,,I,backspace,311,1,465.8999999985099,319416.6000000015,8005,WL,A,10.0
2,9.681999921798706,learn,50318.000078201294,Wed Oct 30 2024 14:06:54 GMT-0500 (Central Daylight Time),320017.1000000015,A,r,I,r,115,1,600.5,319416.6000000015,8005,WL,A,10.0
2,9.780999898910522,learn,50219.00010108948,Wed Oct 30 2024 14:06:54 GMT-0500 (Central Daylight Time),320116.0,A,ru,I,u,92,1,699.3999999985099,319416.6000000015,8005,WL,A,10.0
2,9.898000001907349,learn,50101.99999809265,Wed Oct 30 2024 14:06:54 GMT-0500 (Central Daylight Time),320233.80000000447,A,rug,I,g,98,1,817.2000000029802,319416.6000000015,8005,WL,A,10.0
2,10.096999883651733,learn,49903.00011634827,Wed Oct 30 2024 14:06:54 GMT-0500 (Central Daylight Time),320432.5,A,rugenter,I,enter,188,1,1015.8999999985099,319416.6000000015,8005,WL,A,10.0
2,10.363999843597412,learn,49636.00015640259,Wed Oct 30 2024 14:06:54 GMT-0500 (Central Daylight Time),320699.1000000015,A,l,I,l,261,1,266.20000000298023,320432.8999999985,8005,WL,A,11.0
2,10.54699993133545,learn,49453.00006866455,Wed Oct 30 2024 14:06:54 GMT-0500 (Central Daylight Time),320882.3999999985,A,lo,I,o,163,1,449.5,320432.8999999985,8005,WL,A,11.0
2,10.629999876022339,learn,49370.00012397766,Wed Oct 30 2024 14:06:54 GMT-0500 (Central Daylight Time),320965.8999999985,A,log,I,g,67,1,533.0,320432.8999999985,8005,WL,A,11.0
2,10.863999843597412,learn,49136.00015640259,Wed Oct 30 2024 14:06:54 GMT-0500 (Central Daylight Time),321198.8999999985,A,logenter,I,enter,215,1,766.0,320432.8999999985,8005,WL,A,11.0
2,11.27999997138977,learn,48720.00002861023,Wed Oct 30 2024 14:06:54 GMT-0500 (Central Daylight Time),321615.5,A,c,I,c,407,1,416.19999999552965,321199.30000000447,8005,WL,A,12.0
2,11.513999938964844,learn,48486.000061035156,Wed Oct 30 2024 14:06:54 GMT-0500 (Central Daylight Time),321849.1000000015,A,ch,I,h,222,1,649.7999999970198,321199.30000000447,8005,WL,A,12.0
2,11.730000019073486,learn,48269.999980926514,Wed Oct 30 2024 14:06:54 GMT-0500 (Central Daylight Time),322065.3999999985,A,chi,I,i,204,1,866.0999999940395,321199.30000000447,8005,WL,A,12.0
2,11.812999963760376,learn,48187.000036239624,Wed Oct 30 2024 14:06:54 GMT-0500 (Central Daylight Time),322148.80000000447,A,chim,I,m,68,1,949.5,321199.30000000447,8005,WL,A,12.0
2,12.226999998092651,learn,47773.00000190735,Wed Oct 30 2024 14:06:54 GMT-0500 (Central Daylight Time),322562.6000000015,A,chimn,I,n,409,1,1363.2999999970198,321199.30000000447,8005,WL,A,12.0
2,12.375,learn,47625.0,Wed Oct 30 2024 14:06:54 GMT-0500 (Central Daylight Time),322710.1000000015,A,chimne,I,e,143,1,1510.7999999970198,321199.30000000447,8005,WL,A,12.0
2,12.495999813079834,learn,47504.000186920166,Wed Oct 30 2024 14:06:54 GMT-0500 (Central Daylight Time),322831.700000003,A,chimney,I,y,102,1,1632.3999999985099,321199.30000000447,8005,WL,A,12.0
2,12.579999923706055,learn,47420.000076293945,Wed Oct 30 2024 14:06:54 GMT-0500 (Central Daylight Time),322915.0,A,chimneyenter,I,enter,78,1,1715.6999999955297,321199.30000000447,8005,WL,A,12.0
2,12.780999898910522,learn,47219.00010108948,Wed Oct 30 2024 14:06:54 GMT-0500 (Central Daylight Time),323116.0,A,k,I,k,195,1,200.79999999701977,322915.200000003,8005,WL,A,13.0
2,12.845999956130981,learn,47154.00004386902,Wed Oct 30 2024 14:06:54 GMT-0500 (Central Daylight Time),323181.700000003,A,ke,I,e,57,1,266.5,322915.200000003,8005,WL,A,13.0
2,13.013000011444092,learn,46986.99998855591,Wed Oct 30 2024 14:06:54 GMT-0500 (Central Daylight Time),323348.1000000015,A,key,I,y,159,1,432.8999999985099,322915.200000003,8005,WL,A,13.0
2,13.129999876022339,learn,46870.00012397766,Wed Oct 30 2024 14:06:54 GMT-0500 (Central Daylight Time),323465.0,A,keyenter,I,enter,97,1,549.7999999970198,322915.200000003,8005,WL,A,13.0
2,15.894999980926514,learn,44105.000019073486,Wed Oct 30 2024 14:06:54 GMT-0500 (Central Daylight Time),326230.700000003,A,m,I,m,2757,1,2765.39999999851,323465.30000000447,8005,WL,A,14.0
2,15.977999925613403,learn,44022.0000743866,Wed Oct 30 2024 14:06:54 GMT-0500 (Central Daylight Time),326313.8999999985,A,me,I,e,63,1,2848.5999999940395,323465.30000000447,8005,WL,A,14.0
2,16.044999837875366,learn,43955.000162124634,Wed Oct 30 2024 14:06:54 GMT-0500 (Central Daylight Time),326380.80000000447,A,mea,I,a,52,1,2915.5,323465.30000000447,8005,WL,A,14.0
2,16.17899990081787,learn,43821.00009918213,Wed Oct 30 2024 14:06:54 GMT-0500 (Central Daylight Time),326514.0,A,mead,I,d,121,1,3048.6999999955297,323465.30000000447,8005,WL,A,14.0
2,16.51199984550476,learn,43488.00015449524,Wed Oct 30 2024 14:06:54 GMT-0500 (Central Daylight Time),326847.200000003,A,meado,I,o,324,1,3381.89999999851,323465.30000000447,8005,WL,A,14.0
2,16.59500002861023,learn,43404.99997138977,Wed Oct 30 2024 14:06:54 GMT-0500 (Central Daylight Time),326930.3999999985,A,meadow,I,w,63,1,3465.0999999940395,323465.30000000447,8005,WL,A,14.0
2,16.944999933242798,learn,43055.0000667572,Wed Oct 30 2024 14:06:54 GMT-0500 (Central Daylight Time),327280.3999999985,A,meadowenter,I,enter,339,1,3815.0999999940395,323465.30000000447,8005,WL,A,14.0
2,19.926999807357788,learn,40073.00019264221,Wed Oct 30 2024 14:06:54 GMT-0500 (Central Daylight Time),330262.8999999985,A,r,I,r,2965,1,2982.0,327280.8999999985,8005,WL,A,15.0
2,20.043999910354614,learn,39956.000089645386,Wed Oct 30 2024 14:06:54 GMT-0500 (Central Daylight Time),330379.30000000447,A,ru,I,u,103,1,3098.4000000059605,327280.8999999985,8005,WL,A,15.0
2,20.143999814987183,learn,39856.00018501282,Wed Oct 30 2024 14:06:54 GMT-0500 (Central Daylight Time),330479.3999999985,A,rug,I,g,90,1,3198.5,327280.8999999985,8005,WL,A,15.0
2,20.24399995803833,learn,39756.00004196167,Wed Oct 30 2024 14:06:54 GMT-0500 (Central Daylight Time),330579.5,A,rugenter,I,enter,94,1,3298.60000000149,327280.8999999985,8005,WL,A,15.0
3,0.4500000476837158,learn,59549.999952316284,Wed Oct 30 2024 14:06:54 GMT-0500 (Central Daylight Time),396192.0,A,g,I,g,432,1,449.69999999552965,395742.30000000447,8005,WL,A,1.0
3,0.5669999122619629,learn,59433.00008773804,Wed Oct 30 2024 14:06:54 GMT-0500 (Central Daylight Time),396308.700000003,A,go,I,o,109,1,566.3999999985099,395742.30000000447,8005,WL,A,1.0
3,0.7669999599456787,learn,59233.00004005432,Wed Oct 30 2024 14:06:54 GMT-0500 (Central Daylight Time),396508.6000000015,A,gol,I,l,193,1,766.2999999970198,395742.30000000447,8005,WL,A,1.0
3,0.8829998970031738,learn,59117.000102996826,Wed Oct 30 2024 14:06:54 GMT-0500 (Central Daylight Time),396625.30000000447,A,gold,I,d,97,1,883.0,395742.30000000447,8005,WL,A,1.0
3,1.0829999446868896,learn,58917.00005531311,Wed Oct 30 2024 14:06:54 GMT-0500 (Central Daylight Time),396825.200000003,A,goldenter,I,enter,188,1,1082.8999999985099,395742.30000000447,8005,WL,A,1.0
3,1.4000000953674316,learn,58599.99990463257,Wed Oct 30 2024 14:06:54 GMT-0500 (Central Daylight Time),397141.700000003,A,f,I,f,301,1,316.20000000298023,396825.5,8005,WL,A,2.0
3,1.5169999599456787,learn,58483.00004005432,Wed Oct 30 2024 14:06:54 GMT-0500 (Central Daylight Time),397258.3999999985,A,fi,I,i,96,1,432.8999999985099,396825.5,8005,WL,A,2.0
3,1.6170001029968262,learn,58382.999897003174,Wed Oct 30 2024 14:06:54 GMT-0500 (Central Daylight Time),397358.3999999985,A,fin,I,n,83,1,532.8999999985099,396825.5,8005,WL,A,2.0
3,1.9000000953674316,learn,58099.99990463257,Wed Oct 30 2024 14:06:54 GMT-0500 (Central Daylight Time),397641.6000000015,A,fing,I,g,271,1,816.1000000014901,396825.5,8005,WL,A,2.0
3,2.0329999923706055,learn,57967.000007629395,Wed Oct 30 2024 14:06:54 GMT-0500 (Central Daylight Time),397775.0,A,finge,I,e,116,1,949.5,396825.5,8005,WL,A,2.0
3,2.0999999046325684,learn,57900.00009536743,Wed Oct 30 2024 14:06:54 GMT-0500 (Central Daylight Time),397841.700000003,A,finger,I,r,54,1,1016.2000000029802,396825.5,8005,WL,A,2.0
3,2.299999952316284,learn,57700.000047683716,Wed Oct 30 2024 14:06:54 GMT-0500 (Central Daylight Time),398041.5,A,fingerenter,I,enter,180,1,1216.0,396825.5,8005,WL,A,2.0
3,2.450000047683716,learn,57549.999952316284,Wed Oct 30 2024 14:06:54 GMT-0500 (Central Daylight Time),398191.5,A,r,I,r,140,1,149.60000000149012,398041.8999999985,8005,WL,A,3.0
3,2.5329999923706055,learn,57467.000007629395,Wed Oct 30 2024 14:06:54 GMT-0500 (Central Daylight Time),398274.6000000015,A,ra,I,a,78,1,232.70000000298023,398041.8999999985,8005,WL,A,3.0
3,2.683000087738037,learn,57316.99991226196,Wed Oct 30 2024 14:06:54 GMT-0500 (Central Daylight Time),398424.80000000447,A,rat,I,t,139,1,382.90000000596046,398041.8999999985,8005,WL,A,3.0
3,2.799999952316284,learn,57200.000047683716,Wed Oct 30 2024 14:06:54 GMT-0500 (Central Daylight Time),398541.3999999985,A,ratt,I,t,101,1,499.5,398041.8999999985,8005,WL,A,3.0
3,2.933000087738037,learn,57066.99991226196,Wed Oct 30 2024 14:06:54 GMT-0500 (Central Daylight Time),398674.80000000447,A,rattl,I,l,120,1,632.9000000059605,398041.8999999985,8005,WL,A,3.0
3,3.0160000324249268,learn,56983.99996757507,Wed Oct 30 2024 14:06:54 GMT-0500 (Central Daylight Time),398757.80000000447,A,rattle,I,e,67,1,715.9000000059605,398041.8999999985,8005,WL,A,3.0
3,3.1489999294281006,learn,56851.0000705719,Wed Oct 30 2024 14:06:54 GMT-0500 (Central Daylight Time),398891.200000003,A,rattleenter,I,enter,120,1,849.3000000044703,398041.8999999985,8005,WL,A,3.0
3,8.680999994277954,learn,51319.000005722046,Wed Oct 30 2024 14:06:54 GMT-0500 (Central Daylight Time),404423.0,A,a,I,a,5514,1,5531.5,398891.5,8005,WL,A,4.0
3,8.79800009727478,learn,51201.99990272522,Wed Oct 30 2024 14:06:54 GMT-0500 (Central Daylight Time),404539.5,A,ap,I,p,110,1,5648.0,398891.5,8005,WL,A,4.0
3,8.947999954223633,learn,51052.00004577637,Wed Oct 30 2024 14:06:54 GMT-0500 (Central Daylight Time),404689.6000000015,A,app,I,p,130,1,5798.10000000149,398891.5,8005,WL,A,4.0
3,9.148000001907349,learn,50851.99999809265,Wed Oct 30 2024 14:06:54 GMT-0500 (Central Daylight Time),404889.5,A,appl,I,l,187,1,5998.0,398891.5,8005,WL,A,4.0
3,9.246999979019165,learn,50753.000020980835,Wed Oct 30 2024 14:06:54 GMT-0500 (Central Daylight Time),404989.30000000447,A,apple,I,e,92,1,6097.80000000447,398891.5,8005,WL,A,4.0
3,9.38100004196167,learn,50618.99995803833,Wed Oct 30 2024 14:06:54 GMT-0500 (Central Daylight Time),405122.5,A,appleenter,I,enter,128,1,6231.0,398891.5,8005,WL,A,4.0
3,9.63100004196167,learn,50368.99995803833,Wed Oct 30 2024 14:06:54 GMT-0500 (Central Daylight Time),405372.6000000015,A,h,I,h,235,1,249.89999999850988,405122.700000003,8005,WL,A,5.0
3,9.680999994277954,learn,50319.000005722046,Wed Oct 30 2024 14:06:54 GMT-0500 (Central Daylight Time),405422.5,A,ha,I,a,33,1,299.79999999701977,405122.700000003,8005,WL,A,5.0
3,10.71399998664856,learn,49286.00001335144,Wed Oct 30 2024 14:06:54 GMT-0500 (Central Daylight Time),406455.5,A,har,I,r,1023,1,1332.7999999970198,405122.700000003,8005,WL,A,5.0
3,11.380000114440918,learn,48619.99988555908,Wed Oct 30 2024 14:06:54 GMT-0500 (Central Daylight Time),407122.0,A,harp,I,p,654,1,1999.2999999970198,405122.700000003,8005,WL,A,5.0
3,11.779000043869019,learn,48220.99995613098,Wed Oct 30 2024 14:06:54 GMT-0500 (Central Daylight Time),407521.8999999985,A,harpenter,I,enter,388,1,2399.1999999955297,405122.700000003,8005,WL,A,5.0
3,11.963000059127808,learn,48036.99994087219,Wed Oct 30 2024 14:06:54 GMT-0500 (Central Daylight Time),407705.200000003,A,b,I,b,172,1,183.0,407522.200000003,8005,WL,A,6.0
3,12.062999963760376,learn,47937.000036239624,Wed Oct 30 2024 14:06:54 GMT-0500 (Central Daylight Time),407805.3999999985,A,bu,I,u,92,1,283.19999999552965,407522.200000003,8005,WL,A,6.0
3,12.163000106811523,learn,47836.99989318848,Wed Oct 30 2024 14:06:54 GMT-0500 (Central Daylight Time),407905.1000000015,A,but,I,t,79,1,382.8999999985099,407522.200000003,8005,WL,A,6.0
3,12.279000043869019,learn,47720.99995613098,Wed Oct 30 2024 14:06:54 GMT-0500 (Central Daylight Time),408021.80000000447,A,butt,I,t,100,1,499.6000000014901,407522.200000003,8005,WL,A,6.0
3,12.347000122070312,learn,47652.99987792969,Wed Oct 30 2024 14:06:54 GMT-0500 (Central Daylight Time),408089.200000003,A,butto,I,o,56,1,567.0,407522.200000003,8005,WL,A,6.0
3,12.395999908447266,learn,47604.000091552734,Wed Oct 30 2024 14:06:54 GMT-0500 (Central Daylight Time),408138.1000000015,A,button,I,n,36,1,615.8999999985099,407522.200000003,8005,WL,A,6.0
3,15.128000020980835,learn,44871.999979019165,Wed Oct 30 2024 14:06:54 GMT-0500 (Central Daylight Time),410870.8999999985,A,buttonenter,I,enter,2715,1,3348.6999999955297,407522.200000003,8005,WL,A,6.0
3,16.477999925613403,learn,43522.0000743866,Wed Oct 30 2024 14:06:54 GMT-0500 (Central Daylight Time),412220.5,A,c,I,c,1343,1,1349.2999999970198,410871.200000003,8005,WL,A,7.0
3,16.628000020980835,learn,43371.999979019165,Wed Oct 30 2024 14:06:54 GMT-0500 (Central Daylight Time),412370.5,A,ch,I,h,129,1,1499.2999999970198,410871.200000003,8005,WL,A,7.0
3,16.76099991798401,learn,43239.00008201599,Wed Oct 30 2024 14:06:54 GMT-0500 (Central Daylight Time),412503.8999999985,A,chi,I,i,115,1,1632.6999999955297,410871.200000003,8005,WL,A,7.0
3,16.82800006866455,learn,43171.99993133545,Wed Oct 30 2024 14:06:54 GMT-0500 (Central Daylight Time),412570.30000000447,A,chim,I,m,46,1,1699.1000000014901,410871.200000003,8005,WL,A,7.0
3,17.210999965667725,learn,42789.000034332275,Wed Oct 30 2024 14:06:54 GMT-0500 (Central Daylight Time),412953.6000000015,A,chimn,I,n,363,1,2082.39999999851,410871.200000003,8005,WL,A,7.0
3,17.344000101089478,learn,42655.99989891052,Wed Oct 30 2024 14:06:54 GMT-0500 (Central Daylight Time),413086.8999999985,A,chimne,I,e,116,1,2215.6999999955297,410871.200000003,8005,WL,A,7.0
3,17.51099991798401,learn,42489.00008201599,Wed Oct 30 2024 14:06:54 GMT-0500 (Central Daylight Time),413253.3999999985,A,chimney,I,y,151,1,2382.1999999955297,410871.200000003,8005,WL,A,7.0
3,17.611999988555908,learn,42388.00001144409,Wed Oct 30 2024 14:06:54 GMT-0500 (Central Daylight Time),413354.200000003,A,chimneyenter,I,enter,96,1,2483.0,410871.200000003,8005,WL,A,7.0
3,18.01099991798401,learn,41989.00008201599,Wed Oct 30 2024 14:06:54 GMT-0500 (Central Daylight Time),413753.30000000447,A,l,I,l,388,1,398.90000000596046,413354.3999999985,8005,WL,A,8.0
3,18.16100001335144,learn,41838.99998664856,Wed Oct 30 2024 14:06:54 GMT-0500 (Central Daylight Time),413903.200000003,A,lo,I,o,132,1,548.8000000044703,413354.3999999985,8005,WL,A,8.0
3,18.24500012397766,learn,41754.99987602234,Wed Oct 30 2024 14:06:54 GMT-0500 (Central Daylight Time),413987.700000003,A,log,I,g,78,1,633.3000000044703,413354.3999999985,8005,WL,A,8.0
3,18.378000020980835,learn,41621.999979019165,Wed Oct 30 2024 14:06:54 GMT-0500 (Central Daylight Time),414120.1000000015,A,logenter,I,enter,114,1,765.7000000029802,413354.3999999985,8005,WL,A,8.0
3,18.51099991798401,learn,41489.00008201599,Wed Oct 30 2024 14:06:54 GMT-0500 (Central Daylight Time),414253.0,A,r,I,r,117,1,132.29999999701977,414120.700000003,8005,WL,A,9.0
3,18.844000101089478,learn,41155.99989891052,Wed Oct 30 2024 14:06:54 GMT-0500 (Central Daylight Time),414586.5,A,ro,I,o,320,1,465.79999999701977,414120.700000003,8005,WL,A,9.0
3,19.74500012397766,learn,40254.99987602234,Wed Oct 30 2024 14:06:54 GMT-0500 (Central Daylight Time),415487.200000003,A,r,I,backspace,891,1,1366.5,414120.700000003,8005,WL,A,9.0
3,19.99500012397766,learn,40004.99987602234,Wed Oct 30 2024 14:06:54 GMT-0500 (Central Daylight Time),415737.200000003,A,ru,I,u,238,1,1616.5,414120.700000003,8005,WL,A,9.0
3,20.110000133514404,learn,39889.999866485596,Wed Oct 30 2024 14:06:54 GMT-0500 (Central Daylight Time),415852.700000003,A,rug,I,g,100,1,1732.0,414120.700000003,8005,WL,A,9.0
3,20.427000045776367,learn,39572.99995422363,Wed Oct 30 2024 14:06:54 GMT-0500 (Central Daylight Time),416169.200000003,A,rugenter,I,enter,297,1,2048.5,414120.700000003,8005,WL,A,9.0
3,20.776999950408936,learn,39223.000049591064,Wed Oct 30 2024 14:06:54 GMT-0500 (Central Daylight Time),416519.1000000015,A,k,I,k,340,1,349.6000000014901,416169.5,8005,WL,A,10.0
3,20.990999937057495,learn,39009.000062942505,Wed Oct 30 2024 14:06:54 GMT-0500 (Central Daylight Time),416733.30000000447,A,ke,I,e,209,1,563.8000000044703,416169.5,8005,WL,A,10.0
3,21.14300012588501,learn,38856.99987411499,Wed Oct 30 2024 14:06:54 GMT-0500 (Central Daylight Time),416885.3999999985,A,key,I,y,143,1,715.8999999985099,416169.5,8005,WL,A,10.0
3,21.259999990463257,learn,38740.00000953674,Wed Oct 30 2024 14:06:54 GMT-0500 (Central Daylight Time),417002.1000000015,A,keyenter,I,enter,101,1,832.6000000014901,416169.5,8005,WL,A,10.0
3,21.575999975204468,learn,38424.00002479553,Wed Oct 30 2024 14:06:54 GMT-0500 (Central Daylight Time),417318.80000000447,A,m,I,m,300,1,316.5,417002.30000000447,8005,WL,A,11.0
3,21.66000008583069,learn,38339.99991416931,Wed Oct 30 2024 14:06:54 GMT-0500 (Central Daylight Time),417402.200000003,A,me,I,e,79,1,399.8999999985099,417002.30000000447,8005,WL,A,11.0
3,21.70900011062622,learn,38290.99988937378,Wed Oct 30 2024 14:06:54 GMT-0500 (Central Daylight Time),417451.80000000447,A,mea,I,a,43,1,449.5,417002.30000000447,8005,WL,A,11.0
3,21.875999927520752,learn,38124.00007247925,Wed Oct 30 2024 14:06:54 GMT-0500 (Central Daylight Time),417618.6000000015,A,mead,I,d,162,1,616.2999999970198,417002.30000000447,8005,WL,A,11.0
3,22.009999990463257,learn,37990.00000953674,Wed Oct 30 2024 14:06:54 GMT-0500 (Central Daylight Time),417752.0,A,meado,I,o,115,1,749.6999999955297,417002.30000000447,8005,WL,A,11.0
3,22.092999935150146,learn,37907.00006484985,Wed Oct 30 2024 14:06:54 GMT-0500 (Central Daylight Time),417835.200000003,A,meadow,I,w,70,1,832.8999999985099,417002.30000000447,8005,WL,A,11.0
3,22.210000038146973,learn,37789.99996185303,Wed Oct 30 2024 14:06:54 GMT-0500 (Central Daylight Time),417952.0,A,meadowenter,I,enter,106,1,949.6999999955297,417002.30000000447,8005,WL,A,11.0
3,23.259000062942505,learn,36740.999937057495,Wed Oct 30 2024 14:06:54 GMT-0500 (Central Daylight Time),419001.5,A,b,I,b,1030,1,1049.1999999955297,417952.30000000447,8005,WL,A,12.0
3,23.358999967575073,learn,36641.00003242493,Wed Oct 30 2024 14:06:54 GMT-0500 (Central Daylight Time),419101.6000000015,A,bo,I,o,92,1,1149.2999999970198,417952.30000000447,8005,WL,A,12.0
3,23.492000102996826,learn,36507.999897003174,Wed Oct 30 2024 14:06:54 GMT-0500 (Central Daylight Time),419234.700000003,A,boo,I,o,120,1,1282.3999999985099,417952.30000000447,8005,WL,A,12.0
3,23.575999975204468,learn,36424.00002479553,Wed Oct 30 2024 14:06:54 GMT-0500 (Central Daylight Time),419318.200000003,A,book,I,k,75,1,1365.8999999985099,417952.30000000447,8005,WL,A,12.0
3,23.792999982833862,learn,36207.00001716614,Wed Oct 30 2024 14:06:54 GMT-0500 (Central Daylight Time),419534.8999999985,A,bookenter,I,enter,207,1,1582.5999999940395,417952.30000000447,8005,WL,A,12.0
3,25.257999897003174,learn,34742.000102996826,Wed Oct 30 2024 14:06:54 GMT-0500 (Central Daylight Time),421000.8999999985,A,t,I,t,1447,1,1465.5999999940395,419535.30000000447,8005,WL,A,13.0
3,25.35800004005432,learn,34641.99995994568,Wed Oct 30 2024 14:06:54 GMT-0500 (Central Daylight Time),421100.8999999985,A,tr,I,r,93,1,1565.5999999940395,419535.30000000447,8005,WL,A,13.0
3,25.424999952316284,learn,34575.000047683716,Wed Oct 30 2024 14:06:54 GMT-0500 (Central Daylight Time),421167.80000000447,A,tra,I,a,49,1,1632.5,419535.30000000447,8005,WL,A,13.0
3,25.492000102996826,learn,34507.999897003174,Wed Oct 30 2024 14:06:54 GMT-0500 (Central Daylight Time),421234.30000000447,A,trai,I,i,62,1,1699.0,419535.30000000447,8005,WL,A,13.0
3,25.558000087738037,learn,34441.99991226196,Wed Oct 30 2024 14:06:54 GMT-0500 (Central Daylight Time),421300.8999999985,A,train,I,n,59,1,1765.5999999940395,419535.30000000447,8005,WL,A,13.0
3,25.70799994468689,learn,34292.00005531311,Wed Oct 30 2024 14:06:54 GMT-0500 (Central Daylight Time),421450.6000000015,A,trainenter,I,enter,145,1,1915.2999999970198,419535.30000000447,8005,WL,A,13.0
3,30.157000064849854,learn,29842.999935150146,Wed Oct 30 2024 14:06:54 GMT-0500 (Central Daylight Time),425899.3999999985,A,f,I,f,4435,1,4448.5,421450.8999999985,8005,WL,A,14.0
3,30.240000009536743,learn,29759.999990463257,Wed Oct 30 2024 14:06:54 GMT-0500 (Central Daylight Time),425982.6000000015,A,fi,I,i,74,1,4531.70000000298,421450.8999999985,8005,WL,A,14.0
3,30.325000047683716,learn,29674.999952316284,Wed Oct 30 2024 14:06:54 GMT-0500 (Central Daylight Time),426067.200000003,A,fin,I,n,71,1,4616.30000000447,421450.8999999985,8005,WL,A,14.0
3,30.391000032424927,learn,29608.999967575073,Wed Oct 30 2024 14:06:54 GMT-0500 (Central Daylight Time),426133.0,A,fing,I,g,50,1,4682.10000000149,421450.8999999985,8005,WL,A,14.0
3,30.5239999294281,learn,29476.0000705719,Wed Oct 30 2024 14:06:54 GMT-0500 (Central Daylight Time),426266.1000000015,A,finge,I,e,127,1,4815.20000000298,421450.8999999985,8005,WL,A,14.0
3,30.572999954223633,learn,29427.000045776367,Wed Oct 30 2024 14:06:54 GMT-0500 (Central Daylight Time),426315.8999999985,A,finger,I,r,36,1,4865.0,421450.8999999985,8005,WL,A,14.0
3,31.740000009536743,learn,28259.999990463257,Wed Oct 30 2024 14:06:54 GMT-0500 (Central Daylight Time),427482.3999999985,A,fingerenter,I,enter,1161,1,6031.5,421450.8999999985,8005,WL,A,14.0
3,32.83999991416931,learn,27160.00008583069,Wed Oct 30 2024 14:06:54 GMT-0500 (Central Daylight Time),428582.0,A,c,I,c,1083,1,1099.2999999970198,427482.700000003,8005,WL,A,15.0
3,33.60599994659424,learn,26394.00005340576,Wed Oct 30 2024 14:06:54 GMT-0500 (Central Daylight Time),429348.30000000447,A,,I,backspace,759,1,1865.6000000014901,427482.700000003,8005,WL,A,15.0
3,48.335999965667725,learn,11664.000034332275,Wed Oct 30 2024 14:06:54 GMT-0500 (Central Daylight Time),444078.30000000447,A,f,I,f,14714,1,16595.60000000149,427482.700000003,8005,WL,A,15.0
3,48.50099992752075,learn,11499.000072479248,Wed Oct 30 2024 14:06:54 GMT-0500 (Central Daylight Time),444243.700000003,A,fl,I,l,151,1,16761.0,427482.700000003,8005,WL,A,15.0
3,48.68400001525879,learn,11315.999984741211,Wed Oct 30 2024 14:06:54 GMT-0500 (Central Daylight Time),444426.8999999985,A,flo,I,o,170,1,16944.19999999553,427482.700000003,8005,WL,A,15.0
3,48.78500008583069,learn,11214.999914169312,Wed Oct 30 2024 14:06:54 GMT-0500 (Central Daylight Time),444527.0,A,flow,I,w,83,1,17044.29999999702,427482.700000003,8005,WL,A,15.0
3,48.818000078201294,learn,11181.999921798706,Wed Oct 30 2024 14:06:54 GMT-0500 (Central Daylight Time),444560.1000000015,A,flowe,I,e,22,1,17077.39999999851,427482.700000003,8005,WL,A,15.0
3,48.884000062942505,learn,11115.999937057495,Wed Oct 30 2024 14:06:54 GMT-0500 (Central Daylight Time),444626.700000003,A,flower,I,r,62,1,17144.0,427482.700000003,8005,WL,A,15.0
3,49.23399996757507,learn,10766.000032424927,Wed Oct 30 2024 14:06:54 GMT-0500 (Central Daylight Time),444976.8999999985,A,flowerenter,I,enter,331,1,17494.19999999553,427482.700000003,8005,WL,A,15.0
4,0.6489999294281006,learn,59351.0000705719,Wed Oct 30 2024 14:06:54 GMT-0500 (Central Daylight Time),510506.3999999985,A,a,I,a,645,1,649.6999999955297,509856.700000003,8005,WL,A,1.0
4,0.8829998970031738,learn,59117.000102996826,Wed Oct 30 2024 14:06:54 GMT-0500 (Central Daylight Time),510739.5,A,ap,I,p,227,1,882.7999999970198,509856.700000003,8005,WL,A,1.0
4,1.0779998302459717,learn,58922.00016975403,Wed Oct 30 2024 14:06:54 GMT-0500 (Central Daylight Time),510934.6000000015,A,app,I,p,190,1,1077.8999999985099,509856.700000003,8005,WL,A,1.0
4,1.2819998264312744,learn,58718.000173568726,Wed Oct 30 2024 14:06:54 GMT-0500 (Central Daylight Time),511139.1000000015,A,appl,I,l,199,1,1282.3999999985099,509856.700000003,8005,WL,A,1.0
4,1.5499999523162842,learn,58450.000047683716,Wed Oct 30 2024 14:06:54 GMT-0500 (Central Daylight Time),511407.1000000015,A,apple,I,e,247,1,1550.3999999985099,509856.700000003,8005,WL,A,1.0
4,1.748999834060669,learn,58251.00016593933,Wed Oct 30 2024 14:06:54 GMT-0500 (Central Daylight Time),511606.0,A,appleenter,I,enter,182,1,1749.2999999970198,509856.700000003,8005,WL,A,1.0
4,2.1659998893737793,learn,57834.00011062622,Wed Oct 30 2024 14:06:54 GMT-0500 (Central Daylight Time),512022.3999999985,A,s,I,s,400,1,416.0,511606.3999999985,8005,WL,A,2.0
4,2.248999834060669,learn,57751.00016593933,Wed Oct 30 2024 14:06:54 GMT-0500 (Central Daylight Time),512105.6000000015,A,sa,I,a,63,1,499.20000000298023,511606.3999999985,8005,WL,A,2.0
4,2.381999969482422,learn,57618.00003051758,Wed Oct 30 2024 14:06:54 GMT-0500 (Central Daylight Time),512239.200000003,A,sal,I,l,124,1,632.8000000044703,511606.3999999985,8005,WL,A,2.0
4,2.6989998817443848,learn,57301.000118255615,Wed Oct 30 2024 14:06:54 GMT-0500 (Central Daylight Time),512555.700000003,A,salt,I,t,310,1,949.3000000044703,511606.3999999985,8005,WL,A,2.0
4,3.3489999771118164,learn,56651.00002288818,Wed Oct 30 2024 14:06:54 GMT-0500 (Central Daylight Time),513205.6000000015,A,saltenter,I,enter,642,1,1599.2000000029802,511606.3999999985,8005,WL,A,2.0
4,3.881999969482422,learn,56118.00003051758,Wed Oct 30 2024 14:06:54 GMT-0500 (Central Daylight Time),513738.700000003,A,m,I,m,520,1,532.8000000044703,513205.8999999985,8005,WL,A,3.0
4,3.9819998741149902,learn,56018.00012588501,Wed Oct 30 2024 14:06:54 GMT-0500 (Central Daylight Time),513838.6000000015,A,me,I,e,83,1,632.7000000029802,513205.8999999985,8005,WL,A,3.0
4,4.06499981880188,learn,55935.00018119812,Wed Oct 30 2024 14:06:54 GMT-0500 (Central Daylight Time),513922.1000000015,A,mea,I,a,63,1,716.2000000029802,513205.8999999985,8005,WL,A,3.0
4,4.197999954223633,learn,55802.00004577637,Wed Oct 30 2024 14:06:54 GMT-0500 (Central Daylight Time),514055.3999999985,A,mead,I,d,124,1,849.5,513205.8999999985,8005,WL,A,3.0
4,4.3480000495910645,learn,55651.999950408936,Wed Oct 30 2024 14:06:54 GMT-0500 (Central Daylight Time),514205.0,A,meado,I,o,142,1,999.1000000014901,513205.8999999985,8005,WL,A,3.0
4,4.497999906539917,learn,55502.00009346008,Wed Oct 30 2024 14:06:54 GMT-0500 (Central Daylight Time),514354.8999999985,A,meadow,I,w,137,1,1149.0,513205.8999999985,8005,WL,A,3.0
4,4.5980000495910645,learn,55401.999950408936,Wed Oct 30 2024 14:06:54 GMT-0500 (Central Daylight Time),514455.1000000015,A,meadowenter,I,enter,83,1,1249.2000000029802,513205.8999999985,8005,WL,A,3.0
4,4.8480000495910645,learn,55151.999950408936,Wed Oct 30 2024 14:06:54 GMT-0500 (Central Daylight Time),514705.0,A,b,I,b,237,1,249.39999999850988,514455.6000000015,8005,WL,A,4.0
4,4.9649999141693115,learn,55035.00008583069,Wed Oct 30 2024 14:06:54 GMT-0500 (Central Daylight Time),514821.6000000015,A,bo,I,o,109,1,366.0,514455.6000000015,8005,WL,A,4.0
4,5.0980000495910645,learn,54901.999950408936,Wed Oct 30 2024 14:06:54 GMT-0500 (Central Daylight Time),514954.80000000447,A,boo,I,o,128,1,499.20000000298023,514455.6000000015,8005,WL,A,4.0
4,5.197999954223633,learn,54802.00004577637,Wed Oct 30 2024 14:06:54 GMT-0500 (Central Daylight Time),515054.80000000447,A,book,I,k,83,1,599.2000000029802,514455.6000000015,8005,WL,A,4.0
4,5.4649999141693115,learn,54535.00008583069,Wed Oct 30 2024 14:06:54 GMT-0500 (Central Daylight Time),515321.6000000015,A,bookenter,I,enter,255,1,866.0,514455.6000000015,8005,WL,A,4.0
4,5.63100004196167,learn,54368.99995803833,Wed Oct 30 2024 14:06:54 GMT-0500 (Central Daylight Time),515488.30000000447,A,t,I,t,148,1,166.40000000596046,515321.8999999985,8005,WL,A,5.0
4,5.747999906539917,learn,54252.00009346008,Wed Oct 30 2024 14:06:54 GMT-0500 (Central Daylight Time),515604.700000003,A,tr,I,r,109,1,282.80000000447035,515321.8999999985,8005,WL,A,5.0
4,5.797999858856201,learn,54202.0001411438,Wed Oct 30 2024 14:06:54 GMT-0500 (Central Daylight Time),515654.80000000447,A,tra,I,a,33,1,332.90000000596046,515321.8999999985,8005,WL,A,5.0
4,5.865000009536743,learn,54134.99999046326,Wed Oct 30 2024 14:06:54 GMT-0500 (Central Daylight Time),515721.6000000015,A,trai,I,i,47,1,399.70000000298023,515321.8999999985,8005,WL,A,5.0
4,5.930999994277954,learn,54069.000005722046,Wed Oct 30 2024 14:06:54 GMT-0500 (Central Daylight Time),515788.200000003,A,train,I,n,52,1,466.30000000447035,515321.8999999985,8005,WL,A,5.0
4,6.0980000495910645,learn,53901.999950408936,Wed Oct 30 2024 14:06:54 GMT-0500 (Central Daylight Time),515954.5,A,trainenter,I,enter,146,1,632.6000000014901,515321.8999999985,8005,WL,A,5.0
4,7.346999883651733,learn,52653.00011634827,Wed Oct 30 2024 14:06:54 GMT-0500 (Central Daylight Time),517204.3999999985,A,c,I,c,1235,1,1249.5,515954.8999999985,8005,WL,A,6.0
4,7.46399998664856,learn,52536.00001335144,Wed Oct 30 2024 14:06:54 GMT-0500 (Central Daylight Time),517320.8999999985,A,ch,I,h,97,1,1366.0,515954.8999999985,8005,WL,A,6.0
4,7.546999931335449,learn,52453.00006866455,Wed Oct 30 2024 14:06:54 GMT-0500 (Central Daylight Time),517404.200000003,A,chi,I,i,77,1,1449.3000000044703,515954.8999999985,8005,WL,A,6.0
4,7.646999835968018,learn,52353.00016403198,Wed Oct 30 2024 14:06:54 GMT-0500 (Central Daylight Time),517504.1000000015,A,chim,I,m,81,1,1549.2000000029802,515954.8999999985,8005,WL,A,6.0
4,7.947000026702881,learn,52052.99997329712,Wed Oct 30 2024 14:06:54 GMT-0500 (Central Daylight Time),517804.200000003,A,chimn,I,n,286,1,1849.3000000044703,515954.8999999985,8005,WL,A,6.0
4,8.063999891281128,learn,51936.00010871887,Wed Oct 30 2024 14:06:54 GMT-0500 (Central Daylight Time),517920.80000000447,A,chimne,I,e,98,1,1965.9000000059605,515954.8999999985,8005,WL,A,6.0
4,8.21399998664856,learn,51786.00001335144,Wed Oct 30 2024 14:06:54 GMT-0500 (Central Daylight Time),518070.6000000015,A,chimney,I,y,141,1,2115.7000000029802,515954.8999999985,8005,WL,A,6.0
4,8.313999891281128,learn,51686.00010871887,Wed Oct 30 2024 14:06:54 GMT-0500 (Central Daylight Time),518170.6000000015,A,chimneyenter,I,enter,87,1,2215.7000000029802,515954.8999999985,8005,WL,A,6.0
4,8.63100004196167,learn,51368.99995803833,Wed Oct 30 2024 14:06:54 GMT-0500 (Central Daylight Time),518488.0,A,l,I,l,299,1,317.1000000014901,518170.8999999985,8005,WL,A,7.0
4,8.77999997138977,learn,51220.00002861023,Wed Oct 30 2024 14:06:54 GMT-0500 (Central Daylight Time),518637.0,A,lo,I,o,142,1,466.1000000014901,518170.8999999985,8005,WL,A,7.0
4,8.863999843597412,learn,51136.00015640259,Wed Oct 30 2024 14:06:54 GMT-0500 (Central Daylight Time),518720.6000000015,A,log,I,g,64,1,549.7000000029802,518170.8999999985,8005,WL,A,7.0
4,8.980000019073486,learn,51019.999980926514,Wed Oct 30 2024 14:06:54 GMT-0500 (Central Daylight Time),518837.1000000015,A,logenter,I,enter,109,1,666.2000000029802,518170.8999999985,8005,WL,A,7.0
4,9.412999868392944,learn,50587.000131607056,Wed Oct 30 2024 14:06:54 GMT-0500 (Central Daylight Time),519270.200000003,A,r,I,r,425,1,432.80000000447035,518837.3999999985,8005,WL,A,8.0
4,9.52999997138977,learn,50470.00002861023,Wed Oct 30 2024 14:06:54 GMT-0500 (Central Daylight Time),519386.8999999985,A,ru,I,u,103,1,549.5,518837.3999999985,8005,WL,A,8.0
4,9.629999876022339,learn,50370.00012397766,Wed Oct 30 2024 14:06:54 GMT-0500 (Central Daylight Time),519486.8999999985,A,rug,I,g,91,1,649.5,518837.3999999985,8005,WL,A,8.0
4,10.730999946594238,learn,49269.00005340576,Wed Oct 30 2024 14:06:54 GMT-0500 (Central Daylight Time),520587.5,A,rugenter,I,enter,1087,1,1750.1000000014901,518837.3999999985,8005,WL,A,8.0
4,10.86299991607666,learn,49137.00008392334,Wed Oct 30 2024 14:06:54 GMT-0500 (Central Daylight Time),520719.700000003,A,r,I,r,114,1,131.80000000447035,520587.8999999985,8005,WL,A,9.0
4,10.94599986076355,learn,49054.00013923645,Wed Oct 30 2024 14:06:54 GMT-0500 (Central Daylight Time),520802.8999999985,A,ra,I,a,78,1,215.0,520587.8999999985,8005,WL,A,9.0
4,11.145999908447266,learn,48854.000091552734,Wed Oct 30 2024 14:06:54 GMT-0500 (Central Daylight Time),521002.80000000447,A,rat,I,t,195,1,414.90000000596046,520587.8999999985,8005,WL,A,9.0
4,11.263000011444092,learn,48736.99998855591,Wed Oct 30 2024 14:06:54 GMT-0500 (Central Daylight Time),521119.80000000447,A,ratt,I,t,99,1,531.9000000059605,520587.8999999985,8005,WL,A,9.0
4,11.36299991607666,learn,48637.00008392334,Wed Oct 30 2024 14:06:54 GMT-0500 (Central Daylight Time),521219.6000000015,A,rattl,I,l,94,1,631.7000000029802,520587.8999999985,8005,WL,A,9.0
4,11.478999853134155,learn,48521.000146865845,Wed Oct 30 2024 14:06:54 GMT-0500 (Central Daylight Time),521336.200000003,A,rattle,I,e,106,1,748.3000000044703,520587.8999999985,8005,WL,A,9.0
4,12.328999996185303,learn,47671.0000038147,Wed Oct 30 2024 14:06:54 GMT-0500 (Central Daylight Time),522186.1000000015,A,rattleenter,I,enter,845,1,1598.2000000029802,520587.8999999985,8005,WL,A,9.0
4,12.478999853134155,learn,47521.000146865845,Wed Oct 30 2024 14:06:54 GMT-0500 (Central Daylight Time),522336.1000000015,A,f,I,f,132,1,149.70000000298023,522186.3999999985,8005,WL,A,10.0
4,12.579999923706055,learn,47420.000076293945,Wed Oct 30 2024 14:06:54 GMT-0500 (Central Daylight Time),522436.5,A,fi,I,i,93,1,250.10000000149012,522186.3999999985,8005,WL,A,10.0
4,12.645999908447266,learn,47354.000091552734,Wed Oct 30 2024 14:06:54 GMT-0500 (Central Daylight Time),522503.30000000447,A,fin,I,n,50,1,316.90000000596046,522186.3999999985,8005,WL,A,10.0
4,12.711999893188477,learn,47288.00010681152,Wed Oct 30 2024 14:06:54 GMT-0500 (Central Daylight Time),522569.1000000015,A,fing,I,g,54,1,382.70000000298023,522186.3999999985,8005,WL,A,10.0
4,12.845999956130981,learn,47154.00004386902,Wed Oct 30 2024 14:06:54 GMT-0500 (Central Daylight Time),522702.5,A,finge,I,e,116,1,516.1000000014901,522186.3999999985,8005,WL,A,10.0
4,12.911999940872192,learn,47088.00005912781,Wed Oct 30 2024 14:06:54 GMT-0500 (Central Daylight Time),522769.3999999985,A,finger,I,r,47,1,583.0,522186.3999999985,8005,WL,A,10.0
4,13.062000036239624,learn,46937.999963760376,Wed Oct 30 2024 14:06:54 GMT-0500 (Central Daylight Time),522919.1000000015,A,fingerenter,I,enter,140,1,732.7000000029802,522186.3999999985,8005,WL,A,10.0
4,16.42799997329712,learn,43572.00002670288,Wed Oct 30 2024 14:06:54 GMT-0500 (Central Daylight Time),526284.700000003,A,h,I,h,3350,1,3365.3000000044703,522919.3999999985,8005,WL,A,11.0
4,16.527999877929688,learn,43472.00012207031,Wed Oct 30 2024 14:06:54 GMT-0500 (Central Daylight Time),526384.8000000045,A,ha,I,a,81,1,3465.4000000059605,522919.3999999985,8005,WL,A,11.0
4,16.74399995803833,learn,43256.00004196167,Wed Oct 30 2024 14:06:54 GMT-0500 (Central Daylight Time),526601.0,A,har,I,r,197,1,3681.60000000149,522919.3999999985,8005,WL,A,11.0
4,16.860999822616577,learn,43139.00017738342,Wed Oct 30 2024 14:06:54 GMT-0500 (Central Daylight Time),526717.8999999985,A,harp,I,p,108,1,3798.5,522919.3999999985,8005,WL,A,11.0
4,17.3439998626709,learn,42656.0001373291,Wed Oct 30 2024 14:06:54 GMT-0500 (Central Daylight Time),527201.1000000015,A,harpenter,I,enter,464,1,4281.70000000298,522919.3999999985,8005,WL,A,11.0
4,23.490999937057495,learn,36509.000062942505,Wed Oct 30 2024 14:06:54 GMT-0500 (Central Daylight Time),533348.8999999985,A,m,I,m,6140,1,6147.5,527201.3999999985,8005,WL,A,12.0
4,23.625,learn,36375.0,Wed Oct 30 2024 14:06:54 GMT-0500 (Central Daylight Time),533482.700000003,A,me,I,e,112,1,6281.30000000447,527201.3999999985,8005,WL,A,12.0
4,23.70799994468689,learn,36292.00005531311,Wed Oct 30 2024 14:06:54 GMT-0500 (Central Daylight Time),533565.8000000045,A,mea,I,a,75,1,6364.4000000059605,527201.3999999985,8005,WL,A,12.0
4,23.842000007629395,learn,36157.999992370605,Wed Oct 30 2024 14:06:54 GMT-0500 (Central Daylight Time),533699.3999999985,A,mead,I,d,119,1,6498.0,527201.3999999985,8005,WL,A,12.0
4,23.95799994468689,learn,36042.00005531311,Wed Oct 30 2024 14:06:54 GMT-0500 (Central Daylight Time),533815.700000003,A,meado,I,o,106,1,6614.30000000447,527201.3999999985,8005,WL,A,12.0
4,24.057999849319458,learn,35942.00015068054,Wed Oct 30 2024 14:06:54 GMT-0500 (Central Daylight Time),533915.700000003,A,meadow,I,w,86,1,6714.30000000447,527201.3999999985,8005,WL,A,12.0
4,24.141000032424927,learn,35858.99996757507,Wed Oct 30 2024 14:06:54 GMT-0500 (Central Daylight Time),533999.0,A,meadowenter,I,enter,74,1,6797.60000000149,527201.3999999985,8005,WL,A,12.0
4,27.424000024795532,learn,32575.999975204468,Wed Oct 30 2024 14:06:54 GMT-0500 (Central Daylight Time),537281.0,A,t,I,t,3263,1,3281.6999999955297,533999.3000000045,8005,WL,A,13.0
4,27.556999921798706,learn,32443.000078201294,Wed Oct 30 2024 14:06:54 GMT-0500 (Central Daylight Time),537414.3999999985,A,tr,I,r,116,1,3415.0999999940395,533999.3000000045,8005,WL,A,13.0
4,27.656999826431274,learn,32343.000173568726,Wed Oct 30 2024 14:06:54 GMT-0500 (Central Daylight Time),537514.700000003,A,tra,I,a,79,1,3515.39999999851,533999.3000000045,8005,WL,A,13.0
4,27.674000024795532,learn,32325.999975204468,Wed Oct 30 2024 14:06:54 GMT-0500 (Central Daylight Time),537531.1000000015,A,trai,I,i,11,1,3531.7999999970198,533999.3000000045,8005,WL,A,13.0
4,27.774999856948853,learn,32225.000143051147,Wed Oct 30 2024 14:06:54 GMT-0500 (Central Daylight Time),537632.200000003,A,train,I,n,83,1,3632.89999999851,533999.3000000045,8005,WL,A,13.0
4,28.039999961853027,learn,31960.000038146973,Wed Oct 30 2024 14:06:54 GMT-0500 (Central Daylight Time),537897.700000003,A,trainenter,I,enter,253,1,3898.39999999851,533999.3000000045,8005,WL,A,13.0
4,34.23799991607666,learn,25762.00008392334,Wed Oct 30 2024 14:06:54 GMT-0500 (Central Daylight Time),544095.8000000045,A,r,I,r,6180,1,6197.70000000298,537898.1000000015,8005,WL,A,14.0
4,34.32299995422363,learn,25677.000045776367,Wed Oct 30 2024 14:06:54 GMT-0500 (Central Daylight Time),544180.1000000015,A,ra,I,a,77,1,6282.0,537898.1000000015,8005,WL,A,14.0
4,34.520999908447266,learn,25479.000091552734,Wed Oct 30 2024 14:06:54 GMT-0500 (Central Daylight Time),544378.8000000045,A,rat,I,t,194,1,6480.70000000298,537898.1000000015,8005,WL,A,14.0
4,34.62100005149841,learn,25378.999948501587,Wed Oct 30 2024 14:06:54 GMT-0500 (Central Daylight Time),544479.0,A,ratt,I,t,91,1,6580.89999999851,537898.1000000015,8005,WL,A,14.0
4,34.805999994277954,learn,25194.000005722046,Wed Oct 30 2024 14:06:54 GMT-0500 (Central Daylight Time),544663.1000000015,A,rattl,I,l,167,1,6765.0,537898.1000000015,8005,WL,A,14.0
4,34.90499997138977,learn,25095.00002861023,Wed Oct 30 2024 14:06:54 GMT-0500 (Central Daylight Time),544762.3999999985,A,rattle,I,e,78,1,6864.29999999702,537898.1000000015,8005,WL,A,14.0
4,35.00499987602234,learn,24995.00012397766,Wed Oct 30 2024 14:06:54 GMT-0500 (Central Daylight Time),544862.1000000015,A,rattleenter,I,enter,83,1,6964.0,537898.1000000015,8005,WL,A,14.0
4,46.13499999046326,learn,13865.000009536743,Wed Oct 30 2024 14:06:54 GMT-0500 (Central Daylight Time),555991.8999999985,A,g,I,g,11119,1,11129.39999999851,544862.5,8005,WL,A,15.0
4,46.25099992752075,learn,13749.000072479248,Wed Oct 30 2024 14:06:54 GMT-0500 (Central Daylight Time),556108.6000000015,A,go,I,o,101,1,11246.10000000149,544862.5,8005,WL,A,15.0
4,46.46799993515015,learn,13532.000064849854,Wed Oct 30 2024 14:06:54 GMT-0500 (Central Daylight Time),556325.200000003,A,gol,I,l,209,1,11462.70000000298,544862.5,8005,WL,A,15.0
4,46.58399987220764,learn,13416.000127792358,Wed Oct 30 2024 14:06:54 GMT-0500 (Central Daylight Time),556441.8999999985,A,gold,I,d,104,1,11579.39999999851,544862.5,8005,WL,A,15.0
4,46.71799993515015,learn,13282.000064849854,Wed Oct 30 2024 14:06:54 GMT-0500 (Central Daylight Time),556575.1000000015,A,goldenter,I,enter,116,1,11712.60000000149,544862.5,8005,WL,A,15.0
5,0.41700005531311035,learn,60000.0,Wed Oct 30 2024 14:06:54 GMT-0500 (Central Daylight Time),622488.3000000045,A,r,I,r,407,1,416.80000000447035,622071.5,8005,WL,A,1.0
5,0.5170001983642578,learn,60000.0,Wed Oct 30 2024 14:06:54 GMT-0500 (Central Daylight Time),622588.1000000015,A,ra,I,a,93,1,516.6000000014901,622071.5,8005,WL,A,1.0
5,0.75,learn,60000.0,Wed Oct 30 2024 14:06:54 GMT-0500 (Central Daylight Time),622820.8999999985,A,rat,I,t,218,1,749.3999999985099,622071.5,8005,WL,A,1.0
5,0.8670001029968262,learn,60000.0,Wed Oct 30 2024 14:06:54 GMT-0500 (Central Daylight Time),622937.8000000045,A,ratt,I,t,105,1,866.3000000044703,622071.5,8005,WL,A,1.0
5,1.0,learn,60000.0,Wed Oct 30 2024 14:06:54 GMT-0500 (Central Daylight Time),623071.0,A,rattl,I,l,124,1,999.5,622071.5,8005,WL,A,1.0
5,1.133000135421753,learn,60000.0,Wed Oct 30 2024 14:06:54 GMT-0500 (Central Daylight Time),623204.5,A,rattle,I,e,127,1,1133.0,622071.5,8005,WL,A,1.0
5,1.3000001907348633,learn,60000.0,Wed Oct 30 2024 14:06:54 GMT-0500 (Central Daylight Time),623370.8000000045,A,rattleenter,I,enter,161,1,1299.3000000044703,622071.5,8005,WL,A,1.0
5,1.6000001430511475,learn,60000.0,Wed Oct 30 2024 14:06:54 GMT-0500 (Central Daylight Time),623670.8999999985,A,b,I,b,291,1,300.0,623370.8999999985,8005,WL,A,2.0
5,1.8000001907348633,learn,60000.0,Wed Oct 30 2024 14:06:54 GMT-0500 (Central Daylight Time),623870.700000003,A,bu,I,u,191,1,499.80000000447035,623370.8999999985,8005,WL,A,2.0
5,1.9000000953674316,learn,60000.0,Wed Oct 30 2024 14:06:54 GMT-0500 (Central Daylight Time),623970.5,A,but,I,t,79,1,599.6000000014901,623370.8999999985,8005,WL,A,2.0
5,2.0,learn,60000.0,Wed Oct 30 2024 14:06:54 GMT-0500 (Central Daylight Time),624070.700000003,A,butt,I,t,83,1,699.8000000044703,623370.8999999985,8005,WL,A,2.0
5,2.1010000705718994,learn,60000.0,Wed Oct 30 2024 14:06:54 GMT-0500 (Central Daylight Time),624171.6000000015,A,butto,I,o,95,1,800.7000000029802,623370.8999999985,8005,WL,A,2.0
5,2.183000087738037,learn,60000.0,Wed Oct 30 2024 14:06:54 GMT-0500 (Central Daylight Time),624254.1000000015,A,button,I,n,74,1,883.2000000029802,623370.8999999985,8005,WL,A,2.0
5,2.4660000801086426,learn,60000.0,Wed Oct 30 2024 14:06:54 GMT-0500 (Central Daylight Time),624537.200000003,A,buttonenter,I,enter,264,1,1166.3000000044703,623370.8999999985,8005,WL,A,2.0
5,2.749000072479248,learn,60000.0,Wed Oct 30 2024 14:06:54 GMT-0500 (Central Daylight Time),624820.3999999985,A,m,I,m,276,1,282.8999999985099,624537.5,8005,WL,A,3.0
5,2.866000175476074,learn,60000.0,Wed Oct 30 2024 14:06:54 GMT-0500 (Central Daylight Time),624937.3000000045,A,me,I,e,97,1,399.80000000447035,624537.5,8005,WL,A,3.0
5,2.9170000553131104,learn,60000.0,Wed Oct 30 2024 14:06:54 GMT-0500 (Central Daylight Time),624987.8000000045,A,mea,I,a,44,1,450.30000000447035,624537.5,8005,WL,A,3.0
5,3.067000150680542,learn,60000.0,Wed Oct 30 2024 14:06:54 GMT-0500 (Central Daylight Time),625138.3000000045,A,mead,I,d,138,1,600.8000000044703,624537.5,8005,WL,A,3.0
5,3.183000087738037,learn,60000.0,Wed Oct 30 2024 14:06:54 GMT-0500 (Central Daylight Time),625253.8000000045,A,meado,I,o,99,1,716.3000000044703,624537.5,8005,WL,A,3.0
5,3.2830002307891846,learn,60000.0,Wed Oct 30 2024 14:06:54 GMT-0500 (Central Daylight Time),625353.700000003,A,meadow,I,w,88,1,816.2000000029802,624537.5,8005,WL,A,3.0
5,3.383000135421753,learn,60000.0,Wed Oct 30 2024 14:06:54 GMT-0500 (Central Daylight Time),625453.5,A,meadowenter,I,enter,92,1,916.0,624537.5,8005,WL,A,3.0
5,3.499000072479248,learn,60000.0,Wed Oct 30 2024 14:06:54 GMT-0500 (Central Daylight Time),625570.200000003,A,b,I,b,112,1,116.20000000298023,625454.0,8005,WL,A,4.0
5,3.633000135421753,learn,60000.0,Wed Oct 30 2024 14:06:54 GMT-0500 (Central Daylight Time),625703.5,A,bo,I,o,116,1,249.5,625454.0,8005,WL,A,4.0
5,3.7660000324249268,learn,60000.0,Wed Oct 30 2024 14:06:54 GMT-0500 (Central Daylight Time),625836.8000000045,A,boo,I,o,126,1,382.80000000447035,625454.0,8005,WL,A,4.0
5,3.866000175476074,learn,60000.0,Wed Oct 30 2024 14:06:54 GMT-0500 (Central Daylight Time),625937.0,A,book,I,k,89,1,483.0,625454.0,8005,WL,A,4.0
5,4.016000032424927,learn,60000.0,Wed Oct 30 2024 14:06:54 GMT-0500 (Central Daylight Time),626086.8000000045,A,bookenter,I,enter,133,1,632.8000000044703,625454.0,8005,WL,A,4.0
5,4.132000207901001,learn,60000.0,Wed Oct 30 2024 14:06:54 GMT-0500 (Central Daylight Time),626203.5,A,t,I,t,103,1,116.5,626087.0,8005,WL,A,5.0
5,4.266000032424927,learn,60000.0,Wed Oct 30 2024 14:06:54 GMT-0500 (Central Daylight Time),626336.6000000015,A,tr,I,r,122,1,249.60000000149012,626087.0,8005,WL,A,5.0
5,4.31600022315979,learn,60000.0,Wed Oct 30 2024 14:06:54 GMT-0500 (Central Daylight Time),626386.5,A,tra,I,a,45,1,299.5,626087.0,8005,WL,A,5.0
5,4.39900016784668,learn,60000.0,Wed Oct 30 2024 14:06:54 GMT-0500 (Central Daylight Time),626470.1000000015,A,trai,I,i,67,1,383.1000000014901,626087.0,8005,WL,A,5.0
5,4.466000080108643,learn,60000.0,Wed Oct 30 2024 14:06:54 GMT-0500 (Central Daylight Time),626536.6000000015,A,train,I,n,55,1,449.6000000014901,626087.0,8005,WL,A,5.0
5,4.64900016784668,learn,60000.0,Wed Oct 30 2024 14:06:54 GMT-0500 (Central Daylight Time),626720.0,A,trainenter,I,enter,165,1,633.0,626087.0,8005,WL,A,5.0
5,5.465000152587891,learn,60000.0,Wed Oct 30 2024 14:06:54 GMT-0500 (Central Daylight Time),627536.200000003,A,h,I,h,798,1,815.8999999985099,626720.3000000045,8005,WL,A,6.0
5,5.515000104904175,learn,60000.0,Wed Oct 30 2024 14:06:54 GMT-0500 (Central Daylight Time),627586.3000000045,A,ha,I,a,29,1,866.0,626720.3000000045,8005,WL,A,6.0
5,5.582000017166138,learn,60000.0,Wed Oct 30 2024 14:06:54 GMT-0500 (Central Daylight Time),627652.8000000045,A,har,I,r,59,1,932.5,626720.3000000045,8005,WL,A,6.0
5,5.699000120162964,learn,60000.0,Wed Oct 30 2024 14:06:54 GMT-0500 (Central Daylight Time),627769.6000000015,A,harp,I,p,105,1,1049.2999999970198,626720.3000000045,8005,WL,A,6.0
5,5.89900016784668,learn,60000.0,Wed Oct 30 2024 14:06:54 GMT-0500 (Central Daylight Time),627969.5,A,harpenter,I,enter,180,1,1249.1999999955297,626720.3000000045,8005,WL,A,6.0
5,6.182000160217285,learn,60000.0,Wed Oct 30 2024 14:06:54 GMT-0500 (Central Daylight Time),628252.700000003,A,c,I,c,268,1,282.8999999985099,627969.8000000045,8005,WL,A,7.0
5,6.66100001335144,learn,60000.0,Wed Oct 30 2024 14:06:54 GMT-0500 (Central Daylight Time),628731.8999999985,A,ch,I,h,458,1,762.0999999940395,627969.8000000045,8005,WL,A,7.0
5,6.682000160217285,learn,60000.0,Wed Oct 30 2024 14:06:54 GMT-0500 (Central Daylight Time),628753.0,A,chi,I,i,9,1,783.1999999955297,627969.8000000045,8005,WL,A,7.0
5,6.7820000648498535,learn,60000.0,Wed Oct 30 2024 14:06:54 GMT-0500 (Central Daylight Time),628852.6000000015,A,chim,I,m,93,1,882.7999999970198,627969.8000000045,8005,WL,A,7.0
5,6.965000152587891,learn,60000.0,Wed Oct 30 2024 14:06:54 GMT-0500 (Central Daylight Time),629035.8000000045,A,chimn,I,n,177,1,1066.0,627969.8000000045,8005,WL,A,7.0
5,7.065000057220459,learn,60000.0,Wed Oct 30 2024 14:06:54 GMT-0500 (Central Daylight Time),629135.8999999985,A,chimne,I,e,90,1,1166.0999999940395,627969.8000000045,8005,WL,A,7.0
5,7.215000152587891,learn,60000.0,Wed Oct 30 2024 14:06:54 GMT-0500 (Central Daylight Time),629285.8000000045,A,chimney,I,y,142,1,1316.0,627969.8000000045,8005,WL,A,7.0
5,7.331000089645386,learn,60000.0,Wed Oct 30 2024 14:06:54 GMT-0500 (Central Daylight Time),629402.3999999985,A,chimneyenter,I,enter,104,1,1432.5999999940395,627969.8000000045,8005,WL,A,7.0
5,7.698000192642212,learn,60000.0,Wed Oct 30 2024 14:06:54 GMT-0500 (Central Daylight Time),629769.1000000015,A,l,I,l,355,1,366.3999999985099,629402.700000003,8005,WL,A,8.0
5,7.882000207901001,learn,60000.0,Wed Oct 30 2024 14:06:54 GMT-0500 (Central Daylight Time),629953.5,A,lo,I,o,173,1,550.7999999970198,629402.700000003,8005,WL,A,8.0
5,7.965000152587891,learn,60000.0,Wed Oct 30 2024 14:06:54 GMT-0500 (Central Daylight Time),630035.5,A,log,I,g,76,1,632.7999999970198,629402.700000003,8005,WL,A,8.0
5,8.098000049591064,learn,60000.0,Wed Oct 30 2024 14:06:54 GMT-0500 (Central Daylight Time),630168.8000000045,A,logenter,I,enter,122,1,766.1000000014901,629402.700000003,8005,WL,A,8.0
5,8.264000177383423,learn,60000.0,Wed Oct 30 2024 14:06:54 GMT-0500 (Central Daylight Time),630335.3000000045,A,r,I,r,157,1,166.20000000298023,630169.1000000015,8005,WL,A,9.0
5,8.398000001907349,learn,60000.0,Wed Oct 30 2024 14:06:54 GMT-0500 (Central Daylight Time),630468.700000003,A,ru,I,u,118,1,299.6000000014901,630169.1000000015,8005,WL,A,9.0
5,8.598000049591064,learn,60000.0,Wed Oct 30 2024 14:06:54 GMT-0500 (Central Daylight Time),630668.6000000015,A,rug,I,g,185,1,499.5,630169.1000000015,8005,WL,A,9.0
5,8.864000082015991,learn,60000.0,Wed Oct 30 2024 14:06:54 GMT-0500 (Central Daylight Time),630935.0,A,rugenter,I,enter,249,1,765.8999999985099,630169.1000000015,8005,WL,A,9.0
5,9.231000185012817,learn,60000.0,Wed Oct 30 2024 14:06:54 GMT-0500 (Central Daylight Time),631301.8000000045,A,k,I,k,359,1,366.6000000014901,630935.200000003,8005,WL,A,10.0
5,9.331000089645386,learn,60000.0,Wed Oct 30 2024 14:06:54 GMT-0500 (Central Daylight Time),631401.8000000045,A,ke,I,e,88,1,466.6000000014901,630935.200000003,8005,WL,A,10.0
5,9.499000072479248,learn,60000.0,Wed Oct 30 2024 14:06:54 GMT-0500 (Central Daylight Time),631569.5,A,key,I,y,148,1,634.2999999970198,630935.200000003,8005,WL,A,10.0
5,9.597000122070312,learn,60000.0,Wed Oct 30 2024 14:06:54 GMT-0500 (Central Daylight Time),631668.3000000045,A,keyenter,I,enter,84,1,733.1000000014901,630935.200000003,8005,WL,A,10.0
5,12.014000177383423,learn,60000.0,Wed Oct 30 2024 14:06:54 GMT-0500 (Central Daylight Time),634085.3000000045,A,f,I,f,2401,1,2416.7000000029802,631668.6000000015,8005,WL,A,11.0
5,12.080000162124634,learn,60000.0,Wed Oct 30 2024 14:06:54 GMT-0500 (Central Daylight Time),634150.8000000045,A,fi,I,i,56,1,2482.2000000029802,631668.6000000015,8005,WL,A,11.0
5,12.163000106811523,learn,60000.0,Wed Oct 30 2024 14:06:54 GMT-0500 (Central Daylight Time),634234.200000003,A,fin,I,n,79,1,2565.60000000149,631668.6000000015,8005,WL,A,11.0
5,12.213000059127808,learn,60000.0,Wed Oct 30 2024 14:06:54 GMT-0500 (Central Daylight Time),634284.200000003,A,fing,I,g,44,1,2615.60000000149,631668.6000000015,8005,WL,A,11.0
5,12.36300015449524,learn,60000.0,Wed Oct 30 2024 14:06:54 GMT-0500 (Central Daylight Time),634434.0,A,finge,I,e,137,1,2765.39999999851,631668.6000000015,8005,WL,A,11.0
5,12.397000074386597,learn,60000.0,Wed Oct 30 2024 14:06:54 GMT-0500 (Central Daylight Time),634468.0,A,finger,I,r,28,1,2799.39999999851,631668.6000000015,8005,WL,A,11.0
5,12.496000051498413,learn,60000.0,Wed Oct 30 2024 14:06:54 GMT-0500 (Central Daylight Time),634567.3999999985,A,fingerenter,I,enter,90,1,2898.7999999970198,631668.6000000015,8005,WL,A,11.0
5,13.213000059127808,learn,60000.0,Wed Oct 30 2024 14:06:54 GMT-0500 (Central Daylight Time),635283.8999999985,A,a,I,a,710,1,716.1999999955297,634567.700000003,8005,WL,A,12.0
5,13.313000202178955,learn,60000.0,Wed Oct 30 2024 14:06:54 GMT-0500 (Central Daylight Time),635384.1000000015,A,ap,I,p,82,1,816.3999999985099,634567.700000003,8005,WL,A,12.0
5,13.430000066757202,learn,60000.0,Wed Oct 30 2024 14:06:54 GMT-0500 (Central Daylight Time),635500.5,A,app,I,p,110,1,932.7999999970198,634567.700000003,8005,WL,A,12.0
5,13.59600019454956,learn,60000.0,Wed Oct 30 2024 14:06:54 GMT-0500 (Central Daylight Time),635667.0,A,appl,I,l,153,1,1099.2999999970198,634567.700000003,8005,WL,A,12.0
5,13.663000106811523,learn,60000.0,Wed Oct 30 2024 14:06:54 GMT-0500 (Central Daylight Time),635733.6000000015,A,apple,I,e,51,1,1165.8999999985099,634567.700000003,8005,WL,A,12.0
5,13.746000051498413,learn,60000.0,Wed Oct 30 2024 14:06:54 GMT-0500 (Central Daylight Time),635817.200000003,A,appleenter,I,enter,72,1,1249.5,634567.700000003,8005,WL,A,12.0
5,21.544000148773193,learn,60000.0,Wed Oct 30 2024 14:06:54 GMT-0500 (Central Daylight Time),643614.6000000015,A,g,I,g,7789,1,7797.10000000149,635817.5,8005,WL,A,13.0
5,21.627000093460083,learn,60000.0,Wed Oct 30 2024 14:06:54 GMT-0500 (Central Daylight Time),643697.8999999985,A,go,I,o,63,1,7880.39999999851,635817.5,8005,WL,A,13.0
5,21.794000148773193,learn,60000.0,Wed Oct 30 2024 14:06:54 GMT-0500 (Central Daylight Time),643864.5,A,gol,I,l,156,1,8047.0,635817.5,8005,WL,A,13.0
5,21.861000061035156,learn,60000.0,Wed Oct 30 2024 14:06:54 GMT-0500 (Central Daylight Time),643932.200000003,A,gold,I,d,61,1,8114.70000000298,635817.5,8005,WL,A,13.0
5,21.960000038146973,learn,60000.0,Wed Oct 30 2024 14:06:54 GMT-0500 (Central Daylight Time),644031.200000003,A,goldenter,I,enter,89,1,8213.70000000298,635817.5,8005,WL,A,13.0
5,25.659000158309937,learn,60000.0,Wed Oct 30 2024 14:06:54 GMT-0500 (Central Daylight Time),647730.200000003,A,s,I,s,3679,1,3698.7000000029802,644031.5,8005,WL,A,14.0
5,25.692000150680542,learn,60000.0,Wed Oct 30 2024 14:06:54 GMT-0500 (Central Daylight Time),647763.200000003,A,sa,I,a,27,1,3731.7000000029802,644031.5,8005,WL,A,14.0
5,25.826000213623047,learn,60000.0,Wed Oct 30 2024 14:06:54 GMT-0500 (Central Daylight Time),647896.8000000045,A,sal,I,l,115,1,3865.3000000044703,644031.5,8005,WL,A,14.0
5,26.04200005531311,learn,60000.0,Wed Oct 30 2024 14:06:54 GMT-0500 (Central Daylight Time),648113.200000003,A,salt,I,t,205,1,4081.7000000029802,644031.5,8005,WL,A,14.0
5,26.159000158309937,learn,60000.0,Wed Oct 30 2024 14:06:54 GMT-0500 (Central Daylight Time),648230.0,A,saltenter,I,enter,100,1,4198.5,644031.5,8005,WL,A,14.0
5,37.22200012207031,learn,60000.0,Wed Oct 30 2024 14:06:54 GMT-0500 (Central Daylight Time),659293.1000000015,A,g,I,g,11048,1,11062.70000000298,648230.3999999985,8005,WL,A,15.0
5,37.33800005912781,learn,60000.0,Wed Oct 30 2024 14:06:54 GMT-0500 (Central Daylight Time),659409.3999999985,A,go,I,o,96,1,11179.0,648230.3999999985,8005,WL,A,15.0
5,37.50500011444092,learn,60000.0,Wed Oct 30 2024 14:06:54 GMT-0500 (Central Daylight Time),659576.200000003,A,gol,I,l,148,1,11345.80000000447,648230.3999999985,8005,WL,A,15.0
5,37.58800005912781,learn,60000.0,Wed Oct 30 2024 14:06:54 GMT-0500 (Central Daylight Time),659659.5,A,gold,I,d,77,1,11429.10000000149,648230.3999999985,8005,WL,A,15.0
5,38.12100005149841,learn,60000.0,Wed Oct 30 2024 14:06:54 GMT-0500 (Central Daylight Time),660192.700000003,A,goldenter,I,enter,514,1,11962.30000000447,648230.3999999985,8005,WL,A,15.0
6,0.5490000247955322,distr,59450.99997520447,Wed Oct 30 2024 14:06:54 GMT-0500 (Central Daylight Time),729320.8000000045,B,c,I,c,531,1,549.5,728771.3000000045,8005,WL,A,1.0
6,0.6500000953674316,distr,59349.99990463257,Wed Oct 30 2024 14:06:54 GMT-0500 (Central Daylight Time),729421.200000003,B,ch,I,h,85,1,649.8999999985099,728771.3000000045,8005,WL,A,1.0
6,0.8500001430511475,distr,59149.99985694885,Wed Oct 30 2024 14:06:54 GMT-0500 (Central Daylight Time),729621.1000000015,B,chi,I,i,184,1,849.7999999970198,728771.3000000045,8005,WL,A,1.0
6,1.2330000400543213,distr,58766.99995994568,Wed Oct 30 2024 14:06:54 GMT-0500 (Central Daylight Time),730004.0,B,ch,I,backspace,377,1,1232.6999999955297,728771.3000000045,8005,WL,A,1.0
6,1.315999984741211,distr,58684.00001525879,Wed Oct 30 2024 14:06:54 GMT-0500 (Central Daylight Time),730087.5,B,cha,I,a,73,1,1316.1999999955297,728771.3000000045,8005,WL,A,1.0
6,1.433000087738037,distr,58566.99991226196,Wed Oct 30 2024 14:06:54 GMT-0500 (Central Daylight Time),730204.1000000015,B,chai,I,i,102,1,1432.7999999970198,728771.3000000045,8005,WL,A,1.0
6,1.5490000247955322,distr,58450.99997520447,Wed Oct 30 2024 14:06:54 GMT-0500 (Central Daylight Time),730320.8000000045,B,chair,I,r,105,1,1549.5,728771.3000000045,8005,WL,A,1.0
6,2.4660000801086426,distr,57533.99991989136,Wed Oct 30 2024 14:06:54 GMT-0500 (Central Daylight Time),731237.1000000015,B,chairenter,I,enter,901,1,2465.7999999970198,728771.3000000045,8005,WL,A,1.0
6,2.683000087738037,distr,57316.99991226196,Wed Oct 30 2024 14:06:54 GMT-0500 (Central Daylight Time),731453.8000000045,B,j,I,j,208,1,216.40000000596046,731237.3999999985,8005,WL,A,2.0
6,2.815000057220459,distr,57184.99994277954,Wed Oct 30 2024 14:06:54 GMT-0500 (Central Daylight Time),731586.8000000045,B,ju,I,u,119,1,349.40000000596046,731237.3999999985,8005,WL,A,2.0
6,2.9160001277923584,distr,57083.99987220764,Wed Oct 30 2024 14:06:54 GMT-0500 (Central Daylight Time),731687.1000000015,B,jud,I,d,90,1,449.70000000298023,731237.3999999985,8005,WL,A,2.0
6,3.0820000171661377,distr,56917.99998283386,Wed Oct 30 2024 14:06:54 GMT-0500 (Central Daylight Time),731853.6000000015,B,judg,I,g,159,1,616.2000000029802,731237.3999999985,8005,WL,A,2.0
6,3.182000160217285,distr,56817.999839782715,Wed Oct 30 2024 14:06:54 GMT-0500 (Central Daylight Time),731953.5,B,judge,I,e,79,1,716.1000000014901,731237.3999999985,8005,WL,A,2.0
6,3.3320000171661377,distr,56667.99998283386,Wed Oct 30 2024 14:06:54 GMT-0500 (Central Daylight Time),732103.200000003,B,judgeenter,I,enter,140,1,865.8000000044703,731237.3999999985,8005,WL,A,2.0
6,3.3990001678466797,distr,56600.99983215332,Wed Oct 30 2024 14:06:54 GMT-0500 (Central Daylight Time),732170.0,B,c,I,c,62,1,66.5,732103.5,8005,WL,A,3.0
6,3.5480000972747803,distr,56451.99990272522,Wed Oct 30 2024 14:06:54 GMT-0500 (Central Daylight Time),732319.8000000045,B,co,I,o,131,1,216.30000000447035,732103.5,8005,WL,A,3.0
6,3.6480000019073486,distr,56351.99999809265,Wed Oct 30 2024 14:06:54 GMT-0500 (Central Daylight Time),732419.8000000045,B,coa,I,a,94,1,316.30000000447035,732103.5,8005,WL,A,3.0
6,3.765000104904175,distr,56234.999895095825,Wed Oct 30 2024 14:06:54 GMT-0500 (Central Daylight Time),732536.700000003,B,coat,I,t,98,1,433.20000000298023,732103.5,8005,WL,A,3.0
6,4.131999969482422,distr,55868.00003051758,Wed Oct 30 2024 14:06:54 GMT-0500 (Central Daylight Time),732903.0,B,coatenter,I,enter,349,1,799.5,732103.5,8005,WL,A,3.0
6,4.332000017166138,distr,55667.99998283386,Wed Oct 30 2024 14:06:54 GMT-0500 (Central Daylight Time),733102.8999999985,B,b,I,b,182,1,199.69999999552965,732903.200000003,8005,WL,A,4.0
6,4.432000160217285,distr,55567.999839782715,Wed Oct 30 2024 14:06:54 GMT-0500 (Central Daylight Time),733202.8000000045,B,bo,I,o,87,1,299.6000000014901,732903.200000003,8005,WL,A,4.0
6,4.5320000648498535,distr,55467.99993515015,Wed Oct 30 2024 14:06:54 GMT-0500 (Central Daylight Time),733303.700000003,B,bow,I,w,91,1,400.5,732903.200000003,8005,WL,A,4.0
6,4.648000001907349,distr,55351.99999809265,Wed Oct 30 2024 14:06:54 GMT-0500 (Central Daylight Time),733419.3999999985,B,bowl,I,l,102,1,516.1999999955297,732903.200000003,8005,WL,A,4.0
6,4.815000057220459,distr,55184.99994277954,Wed Oct 30 2024 14:06:54 GMT-0500 (Central Daylight Time),733586.3000000045,B,bowlenter,I,enter,146,1,683.1000000014901,732903.200000003,8005,WL,A,4.0
6,4.982000112533569,distr,55017.99988746643,Wed Oct 30 2024 14:06:54 GMT-0500 (Central Daylight Time),733752.8999999985,B,m,I,m,156,1,166.39999999850988,733586.5,8005,WL,A,5.0
6,5.065000057220459,distr,54934.99994277954,Wed Oct 30 2024 14:06:54 GMT-0500 (Central Daylight Time),733835.8999999985,B,me,I,e,67,1,249.39999999850988,733586.5,8005,WL,A,5.0
6,5.13100004196167,distr,54868.99995803833,Wed Oct 30 2024 14:06:54 GMT-0500 (Central Daylight Time),733902.700000003,B,mea,I,a,50,1,316.20000000298023,733586.5,8005,WL,A,5.0
6,5.414999961853027,distr,54585.00003814697,Wed Oct 30 2024 14:06:54 GMT-0500 (Central Daylight Time),734186.1000000015,B,meal,I,l,271,1,599.6000000014901,733586.5,8005,WL,A,5.0
6,5.63100004196167,distr,54368.99995803833,Wed Oct 30 2024 14:06:54 GMT-0500 (Central Daylight Time),734402.6000000015,B,mealenter,I,enter,211,1,816.1000000014901,733586.5,8005,WL,A,5.0
6,6.215000152587891,distr,53784.99984741211,Wed Oct 30 2024 14:06:54 GMT-0500 (Central Daylight Time),734986.200000003,B,b,I,b,563,1,583.3000000044703,734402.8999999985,8005,WL,A,6.0
6,6.315000057220459,distr,53684.99994277954,Wed Oct 30 2024 14:06:54 GMT-0500 (Central Daylight Time),735086.700000003,B,bo,I,o,92,1,683.8000000044703,734402.8999999985,8005,WL,A,6.0
6,6.414000034332275,distr,53585.999965667725,Wed Oct 30 2024 14:06:54 GMT-0500 (Central Daylight Time),735185.6000000015,B,bot,I,t,78,1,782.7000000029802,734402.8999999985,8005,WL,A,6.0
6,6.514000177383423,distr,53485.99982261658,Wed Oct 30 2024 14:06:54 GMT-0500 (Central Daylight Time),735285.5,B,bott,I,t,92,1,882.6000000014901,734402.8999999985,8005,WL,A,6.0
6,6.614000082015991,distr,53385.99991798401,Wed Oct 30 2024 14:06:54 GMT-0500 (Central Daylight Time),735385.3000000045,B,bottl,I,l,79,1,982.4000000059605,734402.8999999985,8005,WL,A,6.0
6,6.8470001220703125,distr,53152.99987792969,Wed Oct 30 2024 14:06:54 GMT-0500 (Central Daylight Time),735618.6000000015,B,bottle,I,e,221,1,1215.7000000029802,734402.8999999985,8005,WL,A,6.0
6,6.980999946594238,distr,53019.00005340576,Wed Oct 30 2024 14:06:54 GMT-0500 (Central Daylight Time),735751.8999999985,B,bottleenter,I,enter,123,1,1349.0,734402.8999999985,8005,WL,A,6.0
6,7.996999979019165,distr,52003.000020980835,Wed Oct 30 2024 14:06:54 GMT-0500 (Central Daylight Time),736768.3000000045,B,p,I,p,998,1,1016.1000000014901,735752.200000003,8005,WL,A,7.0
6,8.19700002670288,distr,51802.99997329712,Wed Oct 30 2024 14:06:54 GMT-0500 (Central Daylight Time),736968.200000003,B,pl,I,l,181,1,1216.0,735752.200000003,8005,WL,A,7.0
6,8.27999997138977,distr,51720.00002861023,Wed Oct 30 2024 14:06:54 GMT-0500 (Central Daylight Time),737051.6000000015,B,pla,I,a,76,1,1299.3999999985099,735752.200000003,8005,WL,A,7.0
6,8.397000074386597,distr,51602.9999256134,Wed Oct 30 2024 14:06:54 GMT-0500 (Central Daylight Time),737168.1000000015,B,plan,I,n,98,1,1415.8999999985099,735752.200000003,8005,WL,A,7.0
6,8.480000019073486,distr,51519.999980926514,Wed Oct 30 2024 14:06:54 GMT-0500 (Central Daylight Time),737251.6000000015,B,plane,I,e,77,1,1499.3999999985099,735752.200000003,8005,WL,A,7.0
6,8.61300015449524,distr,51386.99984550476,Wed Oct 30 2024 14:06:54 GMT-0500 (Central Daylight Time),737384.8000000045,B,planeenter,I,enter,113,1,1632.6000000014901,735752.200000003,8005,WL,A,7.0
6,9.547000169754028,distr,50452.99983024597,Wed Oct 30 2024 14:06:54 GMT-0500 (Central Daylight Time),738318.200000003,B,c,I,c,917,1,933.2000000029802,737385.0,8005,WL,A,8.0
6,9.63100004196167,distr,50368.99995803833,Wed Oct 30 2024 14:06:54 GMT-0500 (Central Daylight Time),738402.6000000015,B,co,I,o,72,1,1017.6000000014901,737385.0,8005,WL,A,8.0
6,9.69700002670288,distr,50302.99997329712,Wed Oct 30 2024 14:06:54 GMT-0500 (Central Daylight Time),738468.1000000015,B,cou,I,u,51,1,1083.1000000014901,737385.0,8005,WL,A,8.0
6,9.88100004196167,distr,50118.99995803833,Wed Oct 30 2024 14:06:54 GMT-0500 (Central Daylight Time),738652.3000000045,B,coun,I,n,177,1,1267.3000000044703,737385.0,8005,WL,A,8.0
6,9.96399998664856,distr,50036.00001335144,Wed Oct 30 2024 14:06:54 GMT-0500 (Central Daylight Time),738734.8999999985,B,count,I,t,74,1,1349.8999999985099,737385.0,8005,WL,A,8.0
6,10.163000106811523,distr,49836.99989318848,Wed Oct 30 2024 14:06:54 GMT-0500 (Central Daylight Time),738934.700000003,B,county,I,y,191,1,1549.7000000029802,737385.0,8005,WL,A,8.0
6,11.496000051498413,distr,48503.99994850159,Wed Oct 30 2024 14:06:54 GMT-0500 (Central Daylight Time),740267.6000000015,B,countyenter,I,enter,1327,1,2882.60000000149,737385.0,8005,WL,A,8.0
6,11.646000146865845,distr,48353.999853134155,Wed Oct 30 2024 14:06:54 GMT-0500 (Central Daylight Time),740417.700000003,B,d,I,d,130,1,149.70000000298023,740268.0,8005,WL,A,9.0
6,11.730000019073486,distr,48269.999980926514,Wed Oct 30 2024 14:06:54 GMT-0500 (Central Daylight Time),740501.0,B,da,I,a,68,1,233.0,740268.0,8005,WL,A,9.0
6,11.896000146865845,distr,48103.999853134155,Wed Oct 30 2024 14:06:54 GMT-0500 (Central Daylight Time),740667.5,B,daw,I,w,153,1,399.5,740268.0,8005,WL,A,9.0
6,11.963000059127808,distr,48036.99994087219,Wed Oct 30 2024 14:06:54 GMT-0500 (Central Daylight Time),740734.1000000015,B,dawn,I,n,58,1,466.1000000014901,740268.0,8005,WL,A,9.0
6,12.146000146865845,distr,47853.999853134155,Wed Oct 30 2024 14:06:54 GMT-0500 (Central Daylight Time),740917.3000000045,B,dawnenter,I,enter,168,1,649.3000000044703,740268.0,8005,WL,A,9.0
6,22.776999950408936,distr,37223.000049591064,Wed Oct 30 2024 14:06:54 GMT-0500 (Central Daylight Time),751548.3999999985,B,enter,I,enter,10625,1,10630.79999999702,740917.6000000015,8005,WL,A,10.0
6,22.943000078201294,distr,37056.999921798706,Wed Oct 30 2024 14:06:54 GMT-0500 (Central Daylight Time),751714.0,B,enter,I,enter,145,1,165.19999999552965,751548.8000000045,8005,WL,A,11.0
6,23.30900001525879,distr,36690.99998474121,Wed Oct 30 2024 14:06:54 GMT-0500 (Central Daylight Time),752080.5,B,enter,I,enter,347,1,365.8999999985099,751714.6000000015,8005,WL,A,12.0
6,23.625,distr,36375.0,Wed Oct 30 2024 14:06:54 GMT-0500 (Central Daylight Time),752396.700000003,B,enter,I,enter,301,1,315.80000000447035,752080.8999999985,8005,WL,A,13.0
6,24.04200005531311,distr,35957.99994468689,Wed Oct 30 2024 14:06:54 GMT-0500 (Central Daylight Time),752813.700000003,B,enter,I,enter,409,1,416.70000000298023,752397.0,8005,WL,A,14.0
6,24.64199995994568,distr,35358.00004005432,Wed Oct 30 2024 14:06:54 GMT-0500 (Central Daylight Time),753413.5,B,enter,I,enter,584,1,599.3999999985099,752814.1000000015,8005,WL,A,15.0
7,11.246000051498413,immed,48753.99994850159,Wed Oct 30 2024 14:06:54 GMT-0500 (Central Daylight Time),765276.200000003,A,m,I,m,11233,1,11246.20000000298,754030.0,8005,WL,A,1.0
7,11.312999963760376,immed,48687.000036239624,Wed Oct 30 2024 14:06:54 GMT-0500 (Central Daylight Time),765342.8999999985,A,me,I,e,57,1,11312.89999999851,754030.0,8005,WL,A,1.0
7,11.361999988555908,immed,48638.00001144409,Wed Oct 30 2024 14:06:54 GMT-0500 (Central Daylight Time),765392.8000000045,A,mea,I,a,39,1,11362.80000000447,754030.0,8005,WL,A,1.0
7,11.546000003814697,immed,48453.9999961853,Wed Oct 30 2024 14:06:54 GMT-0500 (Central Daylight Time),765576.1000000015,A,mead,I,d,173,1,11546.10000000149,754030.0,8005,WL,A,1.0
7,11.661999940872192,immed,48338.00005912781,Wed Oct 30 2024 14:06:54 GMT-0500 (Central Daylight Time),765692.700000003,A,meado,I,o,101,1,11662.70000000298,754030.0,8005,WL,A,1.0
7,11.746000051498413,immed,48253.99994850159,Wed Oct 30 2024 14:06:54 GMT-0500 (Central Daylight Time),765776.1000000015,A,meadow,I,w,73,1,11746.10000000149,754030.0,8005,WL,A,1.0
7,13.161999940872192,immed,46838.00005912781,Wed Oct 30 2024 14:06:54 GMT-0500 (Central Daylight Time),767192.5,A,meadowenter,I,enter,1397,1,13162.5,754030.0,8005,WL,A,1.0
7,19.960999965667725,immed,40039.000034332275,Wed Oct 30 2024 14:06:54 GMT-0500 (Central Daylight Time),773991.6000000015,A,m,I,m,6781,1,6798.70000000298,767192.8999999985,8005,WL,A,2.0
7,20.026000022888184,immed,39973.99997711182,Wed Oct 30 2024 14:06:54 GMT-0500 (Central Daylight Time),774056.8000000045,A,me,I,e,53,1,6863.9000000059605,767192.8999999985,8005,WL,A,2.0
7,20.109999895095825,immed,39890.000104904175,Wed Oct 30 2024 14:06:54 GMT-0500 (Central Daylight Time),774140.200000003,A,mea,I,a,69,1,6947.30000000447,767192.8999999985,8005,WL,A,2.0
7,20.276999950408936,immed,39723.000049591064,Wed Oct 30 2024 14:06:54 GMT-0500 (Central Daylight Time),774307.200000003,A,mead,I,d,153,1,7114.30000000447,767192.8999999985,8005,WL,A,2.0
7,20.41000008583069,immed,39589.99991416931,Wed Oct 30 2024 14:06:54 GMT-0500 (Central Daylight Time),774440.200000003,A,meado,I,o,115,1,7247.30000000447,767192.8999999985,8005,WL,A,2.0
7,20.493000030517578,immed,39506.99996948242,Wed Oct 30 2024 14:06:54 GMT-0500 (Central Daylight Time),774523.6000000015,A,meadow,I,w,69,1,7330.70000000298,767192.8999999985,8005,WL,A,2.0
7,20.609999895095825,immed,39390.000104904175,Wed Oct 30 2024 14:06:54 GMT-0500 (Central Daylight Time),774640.3000000045,A,meadowenter,I,enter,106,1,7447.4000000059605,767192.8999999985,8005,WL,A,2.0
7,20.710000038146973,immed,39289.99996185303,Wed Oct 30 2024 14:06:54 GMT-0500 (Central Daylight Time),774740.3000000045,A,b,I,b,94,1,99.80000000447035,774640.5,8005,WL,A,3.0
7,20.859999895095825,immed,39140.000104904175,Wed Oct 30 2024 14:06:54 GMT-0500 (Central Daylight Time),774890.200000003,A,bo,I,o,145,1,249.70000000298023,774640.5,8005,WL,A,3.0
7,20.993000030517578,immed,39006.99996948242,Wed Oct 30 2024 14:06:54 GMT-0500 (Central Daylight Time),775023.200000003,A,boo,I,o,124,1,382.70000000298023,774640.5,8005,WL,A,3.0
7,21.092999935150146,immed,38907.00006484985,Wed Oct 30 2024 14:06:54 GMT-0500 (Central Daylight Time),775123.3999999985,A,book,I,k,86,1,482.8999999985099,774640.5,8005,WL,A,3.0
7,21.293999910354614,immed,38706.000089645386,Wed Oct 30 2024 14:06:54 GMT-0500 (Central Daylight Time),775324.3999999985,A,bookenter,I,enter,194,1,683.8999999985099,774640.5,8005,WL,A,3.0
7,21.39199995994568,immed,38608.00004005432,Wed Oct 30 2024 14:06:54 GMT-0500 (Central Daylight Time),775422.8000000045,A,s,I,s,89,1,98.10000000149012,775324.700000003,8005,WL,A,4.0
7,21.460000038146973,immed,38539.99996185303,Wed Oct 30 2024 14:06:54 GMT-0500 (Central Daylight Time),775490.1000000015,A,sa,I,a,46,1,165.39999999850988,775324.700000003,8005,WL,A,4.0
7,21.592000007629395,immed,38407.999992370605,Wed Oct 30 2024 14:06:54 GMT-0500 (Central Daylight Time),775623.1000000015,A,sal,I,l,124,1,298.3999999985099,775324.700000003,8005,WL,A,4.0
7,21.743000030517578,immed,38256.99996948242,Wed Oct 30 2024 14:06:54 GMT-0500 (Central Daylight Time),775773.0,A,salt,I,t,134,1,448.29999999701977,775324.700000003,8005,WL,A,4.0
7,21.842000007629395,immed,38157.999992370605,Wed Oct 30 2024 14:06:54 GMT-0500 (Central Daylight Time),775873.0,A,saltenter,I,enter,80,1,548.2999999970198,775324.700000003,8005,WL,A,4.0
7,22.408999919891357,immed,37591.00008010864,Wed Oct 30 2024 14:06:54 GMT-0500 (Central Daylight Time),776439.700000003,A,g,I,g,548,1,566.2000000029802,775873.5,8005,WL,A,5.0
7,22.509000062942505,immed,37490.999937057495,Wed Oct 30 2024 14:06:54 GMT-0500 (Central Daylight Time),776539.6000000015,A,go,I,o,86,1,666.1000000014901,775873.5,8005,WL,A,5.0
7,22.676000118255615,immed,37323.999881744385,Wed Oct 30 2024 14:06:54 GMT-0500 (Central Daylight Time),776706.1000000015,A,gol,I,l,162,1,832.6000000014901,775873.5,8005,WL,A,5.0
7,22.776000022888184,immed,37223.99997711182,Wed Oct 30 2024 14:06:54 GMT-0500 (Central Daylight Time),776806.5,A,gold,I,d,83,1,933.0,775873.5,8005,WL,A,5.0
7,22.89199995994568,immed,37108.00004005432,Wed Oct 30 2024 14:06:54 GMT-0500 (Central Daylight Time),776923.0,A,goldenter,I,enter,103,1,1049.5,775873.5,8005,WL,A,5.0
7,24.941999912261963,immed,35058.00008773804,Wed Oct 30 2024 14:06:54 GMT-0500 (Central Daylight Time),778972.200000003,A,t,I,t,2035,1,2048.89999999851,776923.3000000045,8005,WL,A,6.0
7,25.075000047683716,immed,34924.999952316284,Wed Oct 30 2024 14:06:54 GMT-0500 (Central Daylight Time),779105.5,A,tr,I,r,122,1,2182.1999999955297,776923.3000000045,8005,WL,A,6.0
7,25.14199995994568,immed,34858.00004005432,Wed Oct 30 2024 14:06:54 GMT-0500 (Central Daylight Time),779172.200000003,A,tra,I,a,52,1,2248.89999999851,776923.3000000045,8005,WL,A,6.0
7,25.242000102996826,immed,34757.999897003174,Wed Oct 30 2024 14:06:54 GMT-0500 (Central Daylight Time),779272.1000000015,A,trai,I,i,89,1,2348.7999999970198,776923.3000000045,8005,WL,A,6.0
7,25.308000087738037,immed,34691.99991226196,Wed Oct 30 2024 14:06:54 GMT-0500 (Central Daylight Time),779338.700000003,A,train,I,n,54,1,2415.39999999851,776923.3000000045,8005,WL,A,6.0
7,25.45799994468689,immed,34542.00005531311,Wed Oct 30 2024 14:06:54 GMT-0500 (Central Daylight Time),779488.700000003,A,trainenter,I,enter,139,1,2565.39999999851,776923.3000000045,8005,WL,A,6.0
7,30.407000064849854,immed,29592.999935150146,Wed Oct 30 2024 14:06:54 GMT-0500 (Central Daylight Time),784437.3000000045,A,r,I,r,4933,1,4948.20000000298,779489.1000000015,8005,WL,A,7.0
7,30.52300000190735,immed,29476.99999809265,Wed Oct 30 2024 14:06:54 GMT-0500 (Central Daylight Time),784553.6000000015,A,ra,I,a,96,1,5064.5,779489.1000000015,8005,WL,A,7.0
7,30.707000017166138,immed,29292.999982833862,Wed Oct 30 2024 14:06:54 GMT-0500 (Central Daylight Time),784737.1000000015,A,rat,I,t,164,1,5248.0,779489.1000000015,8005,WL,A,7.0
7,30.806999921798706,immed,29193.000078201294,Wed Oct 30 2024 14:06:54 GMT-0500 (Central Daylight Time),784837.1000000015,A,ratt,I,t,93,1,5348.0,779489.1000000015,8005,WL,A,7.0
7,30.94099998474121,immed,29059.00001525879,Wed Oct 30 2024 14:06:54 GMT-0500 (Central Daylight Time),784971.3999999985,A,rattl,I,l,113,1,5482.29999999702,779489.1000000015,8005,WL,A,7.0
7,31.055999994277954,immed,28944.000005722046,Wed Oct 30 2024 14:06:54 GMT-0500 (Central Daylight Time),785086.8999999985,A,rattle,I,e,98,1,5597.79999999702,779489.1000000015,8005,WL,A,7.0
7,31.155999898910522,immed,28844.000101089478,Wed Oct 30 2024 14:06:54 GMT-0500 (Central Daylight Time),785186.6000000015,A,rattleenter,I,enter,95,1,5697.5,779489.1000000015,8005,WL,A,7.0
7,31.27300000190735,immed,28726.99999809265,Wed Oct 30 2024 14:06:54 GMT-0500 (Central Daylight Time),785303.3999999985,A,a,I,a,99,1,116.5,785186.8999999985,8005,WL,A,8.0
7,31.390000104904175,immed,28609.999895095825,Wed Oct 30 2024 14:06:54 GMT-0500 (Central Daylight Time),785420.1000000015,A,ap,I,p,110,1,233.20000000298023,785186.8999999985,8005,WL,A,8.0
7,31.539999961853027,immed,28460.000038146973,Wed Oct 30 2024 14:06:54 GMT-0500 (Central Daylight Time),785570.6000000015,A,app,I,p,145,1,383.70000000298023,785186.8999999985,8005,WL,A,8.0
7,31.740000009536743,immed,28259.999990463257,Wed Oct 30 2024 14:06:54 GMT-0500 (Central Daylight Time),785770.0,A,appl,I,l,179,1,583.1000000014901,785186.8999999985,8005,WL,A,8.0
7,31.805999994277954,immed,28194.000005722046,Wed Oct 30 2024 14:06:54 GMT-0500 (Central Daylight Time),785836.700000003,A,apple,I,e,60,1,649.8000000044703,785186.8999999985,8005,WL,A,8.0
7,31.94000005722046,immed,28059.99994277954,Wed Oct 30 2024 14:06:54 GMT-0500 (Central Daylight Time),785970.200000003,A,appleenter,I,enter,113,1,783.3000000044703,785186.8999999985,8005,WL,A,8.0
7,32.039000034332275,immed,27960.999965667725,Wed Oct 30 2024 14:06:54 GMT-0500 (Central Daylight Time),786069.8999999985,A,f,I,f,84,1,99.39999999850988,785970.5,8005,WL,A,9.0
7,32.15599989891052,immed,27844.000101089478,Wed Oct 30 2024 14:06:54 GMT-0500 (Central Daylight Time),786186.5,A,fi,I,i,104,1,216.0,785970.5,8005,WL,A,9.0
7,32.23900008201599,immed,27760.99991798401,Wed Oct 30 2024 14:06:54 GMT-0500 (Central Daylight Time),786269.8999999985,A,fin,I,n,67,1,299.3999999985099,785970.5,8005,WL,A,9.0
7,32.27300000190735,immed,27726.99999809265,Wed Oct 30 2024 14:06:54 GMT-0500 (Central Daylight Time),786303.1000000015,A,fing,I,g,24,1,332.6000000014901,785970.5,8005,WL,A,9.0
7,32.40599989891052,immed,27594.000101089478,Wed Oct 30 2024 14:06:54 GMT-0500 (Central Daylight Time),786436.3999999985,A,finge,I,e,119,1,465.8999999985099,785970.5,8005,WL,A,9.0
7,32.456000089645386,immed,27543.999910354614,Wed Oct 30 2024 14:06:54 GMT-0500 (Central Daylight Time),786486.200000003,A,finger,I,r,41,1,515.7000000029802,785970.5,8005,WL,A,9.0
7,32.50600004196167,immed,27493.99995803833,Wed Oct 30 2024 14:06:54 GMT-0500 (Central Daylight Time),786536.3999999985,A,fingerenter,I,enter,40,1,565.8999999985099,785970.5,8005,WL,A,9.0
7,35.48799991607666,immed,24512.00008392334,Wed Oct 30 2024 14:06:54 GMT-0500 (Central Daylight Time),789518.8999999985,A,k,I,k,2974,1,2982.1999999955297,786536.700000003,8005,WL,A,10.0
7,35.57200002670288,immed,24427.99997329712,Wed Oct 30 2024 14:06:54 GMT-0500 (Central Daylight Time),789602.200000003,A,ke,I,e,79,1,3065.5,786536.700000003,8005,WL,A,10.0
7,35.75600004196167,immed,24243.99995803833,Wed Oct 30 2024 14:06:54 GMT-0500 (Central Daylight Time),789786.700000003,A,key,I,y,171,1,3250.0,786536.700000003,8005,WL,A,10.0
7,35.83800005912781,immed,24161.999940872192,Wed Oct 30 2024 14:06:54 GMT-0500 (Central Daylight Time),789868.700000003,A,keyenter,I,enter,75,1,3332.0,786536.700000003,8005,WL,A,10.0
7,35.97199988365173,immed,24028.000116348267,Wed Oct 30 2024 14:06:54 GMT-0500 (Central Daylight Time),790002.3000000045,A,r,I,r,121,1,133.10000000149012,789869.200000003,8005,WL,A,11.0
7,36.08800005912781,immed,23911.999940872192,Wed Oct 30 2024 14:06:54 GMT-0500 (Central Daylight Time),790118.8999999985,A,ru,I,u,99,1,249.69999999552965,789869.200000003,8005,WL,A,11.0
7,36.2039999961853,immed,23796.000003814697,Wed Oct 30 2024 14:06:54 GMT-0500 (Central Daylight Time),790235.0,A,rug,I,g,111,1,365.79999999701977,789869.200000003,8005,WL,A,11.0
7,36.37100005149841,immed,23628.999948501587,Wed Oct 30 2024 14:06:54 GMT-0500 (Central Daylight Time),790402.0,A,rugenter,I,enter,147,1,532.7999999970198,789869.200000003,8005,WL,A,11.0
7,36.72099995613098,immed,23279.00004386902,Wed Oct 30 2024 14:06:54 GMT-0500 (Central Daylight Time),790751.8999999985,A,l,I,l,332,1,349.59999999403954,790402.3000000045,8005,WL,A,12.0
7,36.88800001144409,immed,23111.99998855591,Wed Oct 30 2024 14:06:54 GMT-0500 (Central Daylight Time),790918.3000000045,A,lo,I,o,150,1,516.0,790402.3000000045,8005,WL,A,12.0
7,36.97099995613098,immed,23029.00004386902,Wed Oct 30 2024 14:06:54 GMT-0500 (Central Daylight Time),791001.700000003,A,log,I,g,71,1,599.3999999985099,790402.3000000045,8005,WL,A,12.0
7,37.08800005912781,immed,22911.999940872192,Wed Oct 30 2024 14:06:54 GMT-0500 (Central Daylight Time),791118.5,A,logenter,I,enter,100,1,716.1999999955297,790402.3000000045,8005,WL,A,12.0
7,37.204999923706055,immed,22795.000076293945,Wed Oct 30 2024 14:06:54 GMT-0500 (Central Daylight Time),791235.1000000015,A,c,I,c,103,1,116.39999999850988,791118.700000003,8005,WL,A,13.0
7,37.37100005149841,immed,22628.999948501587,Wed Oct 30 2024 14:06:54 GMT-0500 (Central Daylight Time),791401.6000000015,A,ch,I,h,155,1,282.8999999985099,791118.700000003,8005,WL,A,13.0
