acc_sum,block,block_c,condition,correct,correct_response,datetime,endtime,flanker,jitter,project,response,response_test_buffer_response,response_test_target_response,response_time,response_time_test_buffer_response,response_time_test_target_response,row_sel,session_number,start_end,starttime,subject_id,target,task,task_vers,time_test_buffer,time_test_buffer_response,time_test_constants,time_test_flanker,time_test_jitter,time_test_logger,time_test_target,time_test_target_response,time_test_variables,trial
1,prac,1,inc,1,m,Wed Mar 19 2025 11:31:31 GMT-0500 (Central Daylight Time),107240.0,kind,900,O,m,,,659,,,2,1,2858.5,104381.5,7089,rock,AF,B,,,,,,,,,,1
1,prac,1,con,0,z,Wed Mar 19 2025 11:31:31 GMT-0500 (Central Daylight Time),110005.30000001192,brutal,800,O,m,,,645,,,13,1,2744.800000011921,107260.5,7089,brutal,AF,B,,,,,,,,,,2
2,prac,1,con,1,m,Wed Mar 19 2025 11:31:31 GMT-0500 (Central Daylight Time),112771.19999998808,step,800,O,m,,,647,,,1,1,2741.800000011921,110029.39999997616,7089,step,AF,B,,,,,,,,,,3
3,prac,1,con,1,m,Wed Mar 19 2025 11:31:31 GMT-0500 (Central Daylight Time),115520.30000001192,bell,1000,O,m,,,425,,,3,1,2724.400000035763,112795.89999997616,7089,bell,AF,B,,,,,,,,,,4
4,prac,1,con,1,m,Wed Mar 19 2025 11:31:31 GMT-0500 (Central Daylight Time),118485.80000001192,remote,1000,O,m,,,643,,,7,1,2947.0,115538.80000001192,7089,remote,AF,B,,,,,,,,,,5
5,prac,1,inc,1,m,Wed Mar 19 2025 11:31:31 GMT-0500 (Central Daylight Time),121601.60000002384,brutal,1100,O,m,,,683,,,8,1,3094.600000023842,118507.0,7089,window,AF,B,,,,,,,,,,6
6,prac,1,con,1,z,Wed Mar 19 2025 11:31:31 GMT-0500 (Central Daylight Time),124333.89999997616,rage,1000,O,z,,,403,,,15,1,2708.2999999523163,121625.60000002384,7089,rage,AF,B,,,,,,,,,,7
7,prac,1,con,1,z,Wed Mar 19 2025 11:31:31 GMT-0500 (Central Daylight Time),126866.39999997616,elated,800,O,z,,,406,,,9,1,2509.599999964237,124356.80000001192,7089,elated,AF,B,,,,,,,,,,8
8,prac,1,inc,1,z,Wed Mar 19 2025 11:31:31 GMT-0500 (Central Daylight Time),129898.89999997616,napkin,1100,O,z,,,598,,,12,1,3009.5,126889.39999997616,7089,friend,AF,B,,,,,,,,,,9
9,prac,1,inc,1,m,Wed Mar 19 2025 11:31:31 GMT-0500 (Central Daylight Time),132831.0,elated,900,O,m,,,702,,,6,1,2908.800000011921,129922.19999998808,7089,napkin,AF,B,,,,,,,,,,10
9,prac,1,inc,0,z,Wed Mar 19 2025 11:31:31 GMT-0500 (Central Daylight Time),135913.69999998808,window,1100,O,m,,,649,,,16,1,3062.899999976158,132850.80000001192,7089,temper,AF,B,,,,,,,,,,11
10,prac,1,con,1,z,Wed Mar 19 2025 11:31:31 GMT-0500 (Central Daylight Time),138662.60000002384,love,1000,O,z,,,419,,,11,1,2726.300000011921,135936.30000001192,7089,love,AF,B,,,,,,,,,,12
11,prac,1,inc,1,z,Wed Mar 19 2025 11:31:31 GMT-0500 (Central Daylight Time),141444.80000001192,film,900,O,z,,,554,,,14,1,2759.900000035763,138684.89999997616,7089,hate,AF,B,,,,,,,,,,13
12,prac,1,con,1,m,Wed Mar 19 2025 11:31:31 GMT-0500 (Central Daylight Time),144144.19999998808,jacket,800,O,m,,,575,,,5,1,2682.199999988079,141462.0,7089,jacket,AF,B,,,,,,,,,,14
13,prac,1,inc,1,m,Wed Mar 19 2025 11:31:31 GMT-0500 (Central Daylight Time),147309.89999997616,hate,1100,O,m,,,743,,,4,1,3142.599999964237,144167.30000001192,7089,film,AF,B,,,,,,,,,,15
14,prac,1,inc,1,z,Wed Mar 19 2025 11:31:31 GMT-0500 (Central Daylight Time),150058.89999997616,rock,900,O,z,,,530,,,10,1,2726.5,147332.39999997616,7089,kind,AF,B,,,,,,,,,,16
1,test,1,con,1,m,Wed Mar 19 2025 11:31:31 GMT-0500 (Central Daylight Time),164487.5,step,900,O,m,m,None,703,504.0,199.0,66,1,2146.5,162341.0,7089,step,AF,B,155064,155064,153433,154347,153435,155580,154864,154864,155579,1
2,test,1,con,1,m,Wed Mar 19 2025 11:31:31 GMT-0500 (Central Daylight Time),166620.10000002384,remote,1000,O,m,m,None,573,374.0,199.0,115,1,2110.400000035763,164509.69999998808,7089,remote,AF,B,157330,157330,155602,156613,155604,157712,157130,157130,157712,2
3,test,1,inc,1,m,Wed Mar 19 2025 11:31:31 GMT-0500 (Central Daylight Time),168785.69999998808,love,1000,O,m,m,None,608,393.0,215.0,79,1,2142.699999988079,166643.0,7089,rock,AF,B,159479,159479,157735,158746,157736,159878,159263,159263,159878,3
4,test,1,inc,1,m,Wed Mar 19 2025 11:31:31 GMT-0500 (Central Daylight Time),170718.60000002384,elated,800,O,m,m,None,571,372.0,199.0,125,1,1913.7000000476837,168804.89999997616,7089,window,AF,B,161428,161428,159897,160712,159898,161811,161228,161228,161811,4
5,test,1,inc,1,m,Wed Mar 19 2025 11:31:31 GMT-0500 (Central Daylight Time),172701.19999998808,kind,900,O,m,m,None,530,331.0,199.0,78,1,1961.0999999642372,170740.10000002384,7089,rock,AF,B,163461,163461,161832,162745,161834,163793,163261,163261,163793,5
6,test,1,inc,1,z,Wed Mar 19 2025 11:31:31 GMT-0500 (Central Daylight Time),174767.19999998808,rock,900,O,z,z,None,603,404.0,199.0,54,1,2044.0999999642372,172723.10000002384,7089,rage,AF,B,165444,165444,163815,164727,163817,165859,165244,165244,165859,6
7,test,1,inc,1,m,Wed Mar 19 2025 11:31:31 GMT-0500 (Central Daylight Time),176916.39999997616,love,1000,O,m,m,None,589,374.0,215.0,87,1,2127.5,174788.89999997616,7089,bell,AF,B,167626,167626,165881,166893,165882,168009,167410,167410,168008,7
8,test,1,inc,1,m,Wed Mar 19 2025 11:31:31 GMT-0500 (Central Daylight Time),179165.69999998808,hate,1100,O,m,m,None,588,389.0,199.0,72,1,2227.5,176938.19999998808,7089,step,AF,B,169859,169859,168030,169142,168032,170258,169659,169659,170258,8
9,test,1,inc,1,z,Wed Mar 19 2025 11:31:31 GMT-0500 (Central Daylight Time),181065.0,rock,900,O,z,z,None,435,236.0,199.0,22,1,1877.699999988079,179187.30000001192,7089,love,AF,B,171908,171908,170279,171192,170281,172157,171708,171708,172157,9
10,test,1,con,1,z,Wed Mar 19 2025 11:31:31 GMT-0500 (Central Daylight Time),182864.5,love,800,O,z,z,None,435,236.0,199.0,17,1,1776.3999999761581,181088.10000002384,7089,love,AF,B,173708,173708,172180,172991,172181,173957,173508,173508,173957,10
11,test,1,inc,1,m,Wed Mar 19 2025 11:31:31 GMT-0500 (Central Daylight Time),185030.30000001192,friend,1100,O,m,m,None,512,313.0,199.0,104,1,2142.600000023842,182887.69999998808,7089,jacket,AF,B,175807,175807,173980,175090,173982,176122,175607,175607,176122,11
12,test,1,con,1,z,Wed Mar 19 2025 11:31:31 GMT-0500 (Central Daylight Time),186946.60000002384,friend,900,O,z,z,None,450,251.0,199.0,26,1,1896.4000000357628,185050.19999998808,7089,friend,AF,B,177773,177773,176142,177056,176143,178039,177573,177573,178039,12
13,test,1,inc,1,z,Wed Mar 19 2025 11:31:31 GMT-0500 (Central Daylight Time),189079.19999998808,remote,1000,O,z,z,None,578,379.0,199.0,63,1,2111.599999964237,186967.60000002384,7089,temper,AF,B,179789,179789,178060,179073,178061,180171,179589,179589,180171,13
14,test,1,con,1,m,Wed Mar 19 2025 11:31:31 GMT-0500 (Central Daylight Time),191195.10000002384,window,1000,O,m,m,None,549,350.0,199.0,123,1,2096.100000023842,189099.0,7089,window,AF,B,181922,181922,180191,181205,180192,182287,181722,181722,182287,14
15,test,1,con,1,z,Wed Mar 19 2025 11:31:31 GMT-0500 (Central Daylight Time),193061.10000002384,hate,900,O,z,z,None,405,190.0,215.0,42,1,1845.0,191216.10000002384,7089,hate,AF,B,183954,183954,182308,183221,182310,184153,183738,183738,184153,15
16,test,1,inc,1,m,Wed Mar 19 2025 11:31:31 GMT-0500 (Central Daylight Time),195010.60000002384,elated,800,O,m,m,None,591,392.0,199.0,117,1,1928.300000011921,193082.30000001192,7089,remote,AF,B,185703,185704,184174,184987,184176,186103,185504,185504,186103,16
17,test,1,inc,1,m,Wed Mar 19 2025 11:31:31 GMT-0500 (Central Daylight Time),197076.39999997616,brutal,900,O,m,m,None,606,407.0,199.0,102,1,2043.7999999523163,195032.60000002384,7089,jacket,AF,B,187753,187753,186125,187037,186126,188169,187553,187553,188168,17
18,test,1,con,1,z,Wed Mar 19 2025 11:31:31 GMT-0500 (Central Daylight Time),199109.10000002384,hate,1000,O,z,z,None,471,256.0,215.0,43,1,2012.0,197097.10000002384,7089,hate,AF,B,189936,189936,188189,189203,188191,190201,189720,189720,190201,18
19,test,1,inc,1,z,Wed Mar 19 2025 11:31:31 GMT-0500 (Central Daylight Time),201091.39999997616,rock,900,O,z,z,None,522,307.0,215.0,46,1,1961.5999999642372,199129.80000001192,7089,hate,AF,B,191868,191868,190222,191135,190224,192184,191652,191652,192183,19
20,test,1,inc,1,m,Wed Mar 19 2025 11:31:31 GMT-0500 (Central Daylight Time),203126.30000001192,brutal,900,O,m,m,None,599,400.0,199.0,110,1,2022.300000011921,201104.0,7089,napkin,AF,B,193818,193818,192196,193101,192197,194218,193618,193618,194218,20
21,test,1,con,1,z,Wed Mar 19 2025 11:31:31 GMT-0500 (Central Daylight Time),205007.30000001192,brutal,900,O,z,z,None,428,229.0,199.0,34,1,1859.300000011921,203148.0,7089,brutal,AF,B,195867,195867,194240,195151,194242,196100,195667,195667,196099,21
22,test,1,con,1,z,Wed Mar 19 2025 11:31:31 GMT-0500 (Central Daylight Time),207090.0,temper,1100,O,z,z,None,427,228.0,199.0,60,1,2059.600000023842,205030.39999997616,7089,temper,AF,B,197948,197948,196122,197233,196123,198182,197749,197749,198182,22
23,test,1,inc,1,m,Wed Mar 19 2025 11:31:31 GMT-0500 (Central Daylight Time),208972.69999998808,elated,800,O,m,m,None,523,323.0,200.0,109,1,1860.800000011921,207111.89999997616,7089,napkin,AF,B,199733,199733,198204,199016,198206,200065,199533,199533,200065,23
24,test,1,inc,1,m,Wed Mar 19 2025 11:31:31 GMT-0500 (Central Daylight Time),211171.69999998808,temper,1000,O,m,m,None,640,441.0,199.0,119,1,2177.199999988079,208994.5,7089,remote,AF,B,201815,201815,200087,201099,200088,202264,201615,201615,202264,24
25,test,1,con,1,m,Wed Mar 19 2025 11:31:31 GMT-0500 (Central Daylight Time),213354.69999998808,jacket,1000,O,m,m,None,616,401.0,215.0,99,1,2162.599999964237,211192.10000002384,7089,jacket,AF,B,204031,204031,202284,203298,202286,204447,203815,203815,204447,25
26,test,1,con,1,z,Wed Mar 19 2025 11:31:31 GMT-0500 (Central Daylight Time),215320.5,love,1000,O,z,z,None,403,204.0,199.0,19,1,1944.300000011921,213376.19999998808,7089,love,AF,B,206196,206196,204468,205481,204470,206413,205997,205997,206413,26
27,test,1,con,1,z,Wed Mar 19 2025 11:31:31 GMT-0500 (Central Daylight Time),217453.39999997616,rage,1100,O,z,z,None,471,257.0,214.0,52,1,2112.199999988079,215341.19999998808,7089,rage,AF,B,208279,208279,206433,207547,206435,208546,208064,208064,208545,27
28,test,1,con,1,z,Wed Mar 19 2025 11:31:31 GMT-0500 (Central Daylight Time),219435.80000001192,kind,1000,O,z,z,None,423,224.0,199.0,11,1,1960.5,217475.30000001192,7089,kind,AF,B,210295,210296,208567,209579,208569,210528,210096,210096,210528,28
29,test,1,con,1,z,Wed Mar 19 2025 11:31:31 GMT-0500 (Central Daylight Time),221435.10000002384,temper,800,O,z,z,None,632,417.0,215.0,57,1,1978.800000011921,219456.30000001192,7089,temper,AF,B,212095,212095,210548,211362,210550,212527,211879,211879,212527,29
30,test,1,con,1,m,Wed Mar 19 2025 11:31:31 GMT-0500 (Central Daylight Time),223617.89999997616,napkin,1100,O,m,m,None,519,319.0,200.0,108,1,2162.2999999523163,221455.60000002384,7089,napkin,AF,B,214377,214377,212548,213660,212549,214710,214176,214176,214710,30
31,test,1,con,1,z,Wed Mar 19 2025 11:31:31 GMT-0500 (Central Daylight Time),225667.0,elated,1100,O,z,z,None,391,192.0,199.0,4,1,2028.1000000238419,223638.89999997616,7089,elated,AF,B,216560,216560,214731,215844,214732,216759,216360,216360,216759,31
32,test,1,con,1,m,Wed Mar 19 2025 11:31:31 GMT-0500 (Central Daylight Time),227383.30000001192,bell,800,O,m,m,None,362,163.0,199.0,81,1,1693.199999988079,225690.10000002384,7089,bell,AF,B,218309,218309,216782,217593,216784,218475,218110,218110,218475,32
33,test,1,con,1,m,Wed Mar 19 2025 11:31:31 GMT-0500 (Central Daylight Time),229232.69999998808,film,900,O,m,m,None,385,186.0,199.0,90,1,1829.0999999642372,227403.60000002384,7089,film,AF,B,220126,220126,218496,219409,218497,220325,219926,219926,220325,33
34,test,1,inc,1,z,Wed Mar 19 2025 11:31:31 GMT-0500 (Central Daylight Time),231048.5,step,800,O,z,z,None,452,253.0,199.0,53,1,1795.699999988079,229252.80000001192,7089,rage,AF,B,221875,221875,220345,221159,220346,222141,221675,221675,222141,34
35,test,1,inc,1,m,Wed Mar 19 2025 11:31:31 GMT-0500 (Central Daylight Time),233148.0,temper,1000,O,m,m,None,539,324.0,215.0,127,1,2078.300000011921,231069.69999998808,7089,window,AF,B,223908,223908,222162,223175,222163,224240,223692,223692,224240,35
36,test,1,inc,1,z,Wed Mar 19 2025 11:31:31 GMT-0500 (Central Daylight Time),235030.69999998808,jacket,800,O,z,z,None,528,313.0,215.0,5,1,1862.5999999642372,233168.10000002384,7089,elated,AF,B,225807,225807,224260,225074,224262,226123,225591,225591,226123,36
37,test,1,inc,1,z,Wed Mar 19 2025 11:31:31 GMT-0500 (Central Daylight Time),237180.10000002384,window,1100,O,z,z,None,482,283.0,199.0,64,1,2129.5,235050.60000002384,7089,temper,AF,B,227973,227973,226143,227257,226144,228272,227773,227773,228272,37
38,test,1,inc,1,z,Wed Mar 19 2025 11:31:31 GMT-0500 (Central Daylight Time),239262.5,remote,1000,O,z,z,None,522,323.0,199.0,39,1,2062.899999976158,237199.60000002384,7089,brutal,AF,B,230022,230022,228292,229306,228293,230355,229822,229822,230355,38
39,test,1,inc,1,z,Wed Mar 19 2025 11:31:31 GMT-0500 (Central Daylight Time),241262.10000002384,remote,1000,O,z,z,None,438,223.0,215.0,7,1,1978.6000000238419,239283.5,7089,elated,AF,B,232121,232121,230376,231388,230377,232354,231905,231906,232354,39
40,test,1,inc,1,z,Wed Mar 19 2025 11:31:31 GMT-0500 (Central Daylight Time),243211.30000001192,bell,1000,O,z,z,None,383,184.0,199.0,47,1,1928.6000000238419,241282.69999998808,7089,hate,AF,B,234104,234104,232375,233388,232376,234303,233905,233905,234303,40
41,test,1,inc,1,m,Wed Mar 19 2025 11:31:31 GMT-0500 (Central Daylight Time),245409.89999997616,friend,1100,O,m,m,None,540,341.0,199.0,120,1,2179.0,243230.89999997616,7089,remote,AF,B,236153,236154,234323,235437,234325,236502,235954,235954,236502,41
42,test,1,con,1,m,Wed Mar 19 2025 11:31:31 GMT-0500 (Central Daylight Time),247293.39999997616,napkin,900,O,m,m,None,438,223.0,215.0,106,1,1877.8999999761581,245415.5,7089,napkin,AF,B,238153,238153,236508,237420,236508,238386,237936,237937,238385,42
43,test,1,con,1,m,Wed Mar 19 2025 11:31:31 GMT-0500 (Central Daylight Time),249109.5,film,800,O,m,m,None,455,256.0,199.0,89,1,1794.3999999761581,247315.10000002384,7089,film,AF,B,239936,239936,238407,239219,238409,240202,239736,239736,240201,43
44,test,1,inc,1,z,Wed Mar 19 2025 11:31:31 GMT-0500 (Central Daylight Time),251042.19999998808,rock,900,O,z,z,None,475,276.0,199.0,14,1,1911.8999999761581,249130.30000001192,7089,kind,AF,B,241852,241852,240222,241135,240224,242134,241652,241652,242134,44
45,test,1,inc,1,z,Wed Mar 19 2025 11:31:31 GMT-0500 (Central Daylight Time),252941.60000002384,jacket,800,O,z,z,None,539,340.0,199.0,61,1,1878.800000011921,251062.80000001192,7089,temper,AF,B,243684,243684,242155,242968,242156,244034,243485,243485,244034,45
46,test,1,con,1,m,Wed Mar 19 2025 11:31:31 GMT-0500 (Central Daylight Time),255040.80000001192,step,800,O,m,m,None,735,536.0,199.0,65,1,2079.199999988079,252961.60000002384,7089,step,AF,B,245584,245584,244054,244867,244055,246133,245384,245384,246133,46
47,test,1,con,1,z,Wed Mar 19 2025 11:31:31 GMT-0500 (Central Daylight Time),256773.30000001192,brutal,800,O,z,z,None,380,181.0,199.0,33,1,1710.0,255063.30000001192,7089,brutal,AF,B,247683,247683,246155,246967,246157,247865,247483,247483,247865,47
48,test,1,con,1,m,Wed Mar 19 2025 11:31:31 GMT-0500 (Central Daylight Time),258856.5,film,1100,O,m,m,None,421,222.0,199.0,92,1,2063.0,256793.5,7089,film,AF,B,249714,249714,247886,249000,247887,249949,249515,249515,249948,48
49,test,1,inc,1,m,Wed Mar 19 2025 11:31:31 GMT-0500 (Central Daylight Time),261105.60000002384,hate,1100,O,m,m,None,586,387.0,199.0,96,1,2229.100000023842,258876.5,7089,film,AF,B,251798,251798,249969,251082,249970,252198,251599,251599,252198,49
50,test,1,inc,1,m,Wed Mar 19 2025 11:31:31 GMT-0500 (Central Daylight Time),263304.8000000119,rage,800,O,m,m,None,843,644.0,199.0,77,1,2177.900000035763,261126.89999997616,7089,rock,AF,B,253748,253748,252219,253032,252220,254397,253548,253548,254397,50
51,test,1,inc,1,m,Wed Mar 19 2025 11:31:31 GMT-0500 (Central Daylight Time),265604.10000002384,hate,1100,O,m,m,None,632,433.0,199.0,88,1,2279.5,263324.60000002384,7089,bell,AF,B,256247,256247,254417,255531,254418,256696,256047,256047,256696,51
52,test,1,con,1,z,Wed Mar 19 2025 11:31:31 GMT-0500 (Central Daylight Time),267820.6999999881,temper,1000,O,z,z,None,666,466.0,200.0,59,1,2196.800000011921,265623.89999997616,7089,temper,AF,B,258446,258446,256716,257730,256718,258913,258245,258245,258913,52
53,test,1,inc,1,m,Wed Mar 19 2025 11:31:31 GMT-0500 (Central Daylight Time),270152.5,hate,1100,O,m,m,None,669,470.0,199.0,80,1,2313.399999976158,267839.10000002384,7089,rock,AF,B,260762,260762,258931,260046,258932,261245,260562,260562,261245,53
54,test,1,inc,1,z,Wed Mar 19 2025 11:31:31 GMT-0500 (Central Daylight Time),271985.39999997616,jacket,800,O,z,z,None,477,278.0,199.0,29,1,1812.7999999523163,270172.60000002384,7089,friend,AF,B,262795,262795,261265,262079,261267,263078,262595,262595,263077,54
55,test,1,inc,1,z,Wed Mar 19 2025 11:31:31 GMT-0500 (Central Daylight Time),273868.39999997616,step,800,O,z,z,None,515,316.0,199.0,13,1,1862.3999999761581,272006.0,7089,kind,AF,B,264628,264628,263098,263911,263099,264960,264428,264428,264960,55
56,test,1,inc,1,m,Wed Mar 19 2025 11:31:31 GMT-0500 (Central Daylight Time),276050.0,temper,1000,O,m,m,None,615,400.0,215.0,111,1,2161.600000023842,273888.39999997616,7089,napkin,AF,B,266727,266727,264980,265994,264982,267142,266511,266511,267142,56
56,test,1,inc,0,m,Wed Mar 19 2025 11:31:31 GMT-0500 (Central Daylight Time),277799.39999997616,rage,800,O,z,z,None,410,195.0,215.0,85,1,1740.7999999523163,276058.60000002384,7089,bell,AF,B,268693,268693,267151,267960,267151,268892,268477,268477,268891,57
57,test,1,inc,1,m,Wed Mar 19 2025 11:31:31 GMT-0500 (Central Daylight Time),279849.39999997616,love,1000,O,m,m,None,509,310.0,199.0,95,1,2038.699999988079,277810.6999999881,7089,film,AF,B,270626,270626,268903,269910,268904,270941,270426,270426,270941,58
58,test,1,con,1,z,Wed Mar 19 2025 11:31:31 GMT-0500 (Central Daylight Time),282231.89999997616,hate,1100,O,z,z,None,729,530.0,199.0,44,1,2363.599999964237,279868.3000000119,7089,hate,AF,B,272791,272791,270960,272075,270961,273324,272592,272592,273324,59
59,test,1,inc,1,m,Wed Mar 19 2025 11:31:31 GMT-0500 (Central Daylight Time),284331.39999997616,love,1000,O,m,m,None,540,325.0,215.0,71,1,2078.899999976158,282252.5,7089,step,AF,B,275091,275091,273344,274358,273346,275424,274875,274875,275423,60
60,test,1,con,1,m,Wed Mar 19 2025 11:31:31 GMT-0500 (Central Daylight Time),286230.60000002384,rock,800,O,m,m,None,545,346.0,199.0,73,1,1877.5,284353.10000002384,7089,rock,AF,B,276973,276974,275445,276257,275447,277323,276774,276774,277323,61
61,test,1,con,1,z,Wed Mar 19 2025 11:31:31 GMT-0500 (Central Daylight Time),288063.5,temper,900,O,z,z,None,370,171.0,199.0,58,1,1812.5,286251.0,7089,temper,AF,B,278973,278973,277343,278257,277345,279156,278773,278773,279156,62
62,test,1,con,1,m,Wed Mar 19 2025 11:31:31 GMT-0500 (Central Daylight Time),290029.39999997616,rock,900,O,m,m,None,505,306.0,199.0,74,1,1945.3999999761581,288084.0,7089,rock,AF,B,280805,280806,279176,280089,279178,281121,280606,280606,281121,63
63,test,1,inc,1,z,Wed Mar 19 2025 11:31:31 GMT-0500 (Central Daylight Time),291928.8000000119,napkin,900,O,z,z,None,435,236.0,199.0,62,1,1879.1000000238419,290049.6999999881,7089,temper,AF,B,282772,282772,281142,282055,281143,283021,282572,282572,283021,64
63,test,1,inc,0,z,Wed Mar 19 2025 11:31:31 GMT-0500 (Central Daylight Time),294044.6999999881,film,1100,O,m,m,None,449,250.0,199.0,48,1,2093.300000011921,291951.39999997616,7089,hate,AF,B,284871,284871,283043,284155,283045,285137,284671,284671,285137,65
64,test,1,inc,1,z,Wed Mar 19 2025 11:31:31 GMT-0500 (Central Daylight Time),296060.6999999881,napkin,900,O,z,z,None,556,357.0,199.0,30,1,1995.699999988079,294065.0,7089,friend,AF,B,286787,286787,285157,286071,285159,287153,286587,286587,287153,66
65,test,1,inc,1,m,Wed Mar 19 2025 11:31:31 GMT-0500 (Central Daylight Time),298109.8000000119,rage,800,O,m,m,None,688,489.0,199.0,69,1,2028.6000000238419,296081.1999999881,7089,step,AF,B,288703,288703,287173,287987,287175,289202,288503,288503,289202,67
66,test,1,inc,1,m,Wed Mar 19 2025 11:31:31 GMT-0500 (Central Daylight Time),300043.0,elated,800,O,m,m,None,567,368.0,199.0,101,1,1913.0,298130.0,7089,jacket,AF,B,290752,290752,289222,290036,289224,291135,290553,290553,291135,68
67,test,1,inc,1,m,Wed Mar 19 2025 11:31:31 GMT-0500 (Central Daylight Time),302308.6999999881,friend,1100,O,m,m,None,599,400.0,199.0,128,1,2245.399999976158,300063.3000000119,7089,window,AF,B,292984,292984,291155,292269,291157,293401,292785,292785,293401,69
68,test,1,con,1,z,Wed Mar 19 2025 11:31:31 GMT-0500 (Central Daylight Time),304357.89999997616,brutal,1100,O,z,z,None,389,190.0,199.0,36,1,2028.7999999523163,302329.10000002384,7089,brutal,AF,B,295251,295251,293421,294534,293423,295450,295051,295051,295450,70
69,test,1,con,1,z,Wed Mar 19 2025 11:31:31 GMT-0500 (Central Daylight Time),306190.10000002384,kind,900,O,z,z,None,378,179.0,199.0,10,1,1811.800000011921,304378.3000000119,7089,kind,AF,B,297100,297100,295470,296384,295472,297282,296900,296900,297282,71
70,test,1,con,1,z,Wed Mar 19 2025 11:31:31 GMT-0500 (Central Daylight Time),308156.8000000119,friend,1000,O,z,z,None,422,207.0,215.0,27,1,1956.9000000357628,306199.89999997616,7089,friend,AF,B,299033,299033,297292,298300,297293,299249,298817,298817,299249,72
71,test,1,con,1,m,Wed Mar 19 2025 11:31:31 GMT-0500 (Central Daylight Time),310089.5,remote,800,O,m,m,None,568,369.0,199.0,113,1,1913.3999999761581,308176.10000002384,7089,remote,AF,B,300799,300799,299268,300083,299270,301182,300599,300599,301181,73
72,test,1,inc,1,z,Wed Mar 19 2025 11:31:31 GMT-0500 (Central Daylight Time),312072.10000002384,bell,1000,O,z,z,None,427,228.0,199.0,23,1,1962.1000000238419,310110.0,7089,love,AF,B,302932,302932,301202,302215,301204,303164,302732,302732,303164,74
73,test,1,inc,1,m,Wed Mar 19 2025 11:31:31 GMT-0500 (Central Daylight Time),314204.6999999881,friend,1100,O,m,m,None,472,257.0,215.0,112,1,2112.399999976158,312092.3000000119,7089,napkin,AF,B,305031,305031,303184,304298,303186,305297,304815,304815,305297,75
74,test,1,con,1,m,Wed Mar 19 2025 11:31:31 GMT-0500 (Central Daylight Time),316337.60000002384,napkin,1000,O,m,m,None,576,361.0,215.0,107,1,2111.600000023842,314226.0,7089,napkin,AF,B,307063,307064,305318,306331,305320,307430,306847,306848,307430,76
75,test,1,con,1,m,Wed Mar 19 2025 11:31:31 GMT-0500 (Central Daylight Time),318386.0,film,1000,O,m,m,None,482,283.0,199.0,91,1,2028.5,316357.5,7089,film,AF,B,309179,309180,307450,308463,307451,309478,308980,308980,309478,77
76,test,1,inc,1,m,Wed Mar 19 2025 11:31:31 GMT-0500 (Central Daylight Time),320385.1999999881,brutal,900,O,m,m,None,552,352.0,200.0,126,1,1993.5999999642372,318391.60000002384,7089,window,AF,B,311111,311111,309484,310395,309484,311477,310911,310911,311477,78
77,test,1,inc,1,z,Wed Mar 19 2025 11:31:31 GMT-0500 (Central Daylight Time),322568.5,film,1100,O,z,z,None,538,338.0,200.0,16,1,2176.899999976158,320391.60000002384,7089,kind,AF,B,313310,313310,311484,312594,311484,313661,313110,313110,313661,79
78,test,1,con,1,z,Wed Mar 19 2025 11:31:31 GMT-0500 (Central Daylight Time),324368.10000002384,kind,800,O,z,z,None,435,220.0,215.0,9,1,1779.6000000238419,322588.5,7089,kind,AF,B,315227,315228,313681,314495,313682,315460,315012,315012,315460,80
79,test,1,inc,1,z,Wed Mar 19 2025 11:31:31 GMT-0500 (Central Daylight Time),326484.0,bell,1000,O,z,z,None,549,350.0,199.0,15,1,2095.800000011921,324388.1999999881,7089,kind,AF,B,317210,317210,315480,316494,315482,317576,317011,317011,317576,81
79,test,1,con,0,m,Wed Mar 19 2025 11:31:31 GMT-0500 (Central Daylight Time),328583.60000002384,step,1100,O,z,z,None,436,221.0,215.0,68,1,2079.7000000476837,326503.89999997616,7089,step,AF,B,319443,319443,317596,318710,317597,319676,319227,319227,319676,82
80,test,1,inc,1,m,Wed Mar 19 2025 11:31:31 GMT-0500 (Central Daylight Time),330733.1999999881,kind,900,O,m,m,None,697,498.0,199.0,94,1,2127.800000011921,328605.39999997616,7089,film,AF,B,321326,321326,319697,320610,319699,321825,321126,321126,321825,83
81,test,1,con,1,z,Wed Mar 19 2025 11:31:31 GMT-0500 (Central Daylight Time),333015.39999997616,rage,1000,O,z,z,None,728,529.0,199.0,51,1,2262.7999999523163,330752.60000002384,7089,rage,AF,B,323575,323575,321845,322859,321846,324108,323375,323375,324107,84
82,test,1,inc,1,m,Wed Mar 19 2025 11:31:31 GMT-0500 (Central Daylight Time),334931.3000000119,rage,800,O,m,m,None,557,358.0,199.0,93,1,1895.199999988079,333036.10000002384,7089,film,AF,B,325658,325658,324128,324941,324130,326023,325458,325458,326023,85
83,test,1,con,1,m,Wed Mar 19 2025 11:31:31 GMT-0500 (Central Daylight Time),337063.8000000119,napkin,800,O,m,m,None,778,579.0,199.0,105,1,2111.900000035763,334951.89999997616,7089,napkin,AF,B,327573,327574,326044,326857,326045,328156,327374,327374,328156,86
84,test,1,con,1,z,Wed Mar 19 2025 11:31:31 GMT-0500 (Central Daylight Time),338880.0,friend,800,O,z,z,None,460,245.0,215.0,25,1,1796.800000011921,337083.1999999881,7089,friend,AF,B,329723,329723,328175,328990,328177,329972,329507,329507,329972,87
85,test,1,con,1,m,Wed Mar 19 2025 11:31:31 GMT-0500 (Central Daylight Time),340996.0,jacket,1100,O,m,m,None,456,241.0,215.0,100,1,2096.600000023842,338899.39999997616,7089,jacket,AF,B,331839,331839,329991,331106,329993,332088,331622,331623,332088,88
86,test,1,con,1,z,Wed Mar 19 2025 11:31:31 GMT-0500 (Central Daylight Time),342995.1999999881,rage,900,O,z,z,None,541,326.0,215.0,50,1,1979.5,341015.6999999881,7089,rage,AF,B,333754,333754,332108,333022,332109,334087,333539,333539,334087,89
87,test,1,con,1,m,Wed Mar 19 2025 11:31:31 GMT-0500 (Central Daylight Time),345078.1999999881,rock,1000,O,m,m,None,522,323.0,199.0,75,1,2061.099999964237,343017.10000002384,7089,rock,AF,B,335837,335837,334109,335121,334111,336170,335638,335638,336170,90
88,test,1,inc,1,z,Wed Mar 19 2025 11:31:31 GMT-0500 (Central Daylight Time),347143.8000000119,remote,1000,O,z,z,None,511,296.0,215.0,31,1,2046.5,345097.3000000119,7089,friend,AF,B,337937,337937,336189,337204,336191,338236,337720,337721,338236,91
89,test,1,inc,1,z,Wed Mar 19 2025 11:31:31 GMT-0500 (Central Daylight Time),349126.6999999881,step,800,O,z,z,None,628,413.0,215.0,45,1,1965.8999999761581,347160.8000000119,7089,hate,AF,B,339803,339803,338253,339069,338254,340219,339587,339587,340219,92
90,test,1,con,1,m,Wed Mar 19 2025 11:31:31 GMT-0500 (Central Daylight Time),351409.1999999881,step,1000,O,m,m,None,718,519.0,199.0,67,1,2262.199999988079,349147.0,7089,step,AF,B,341969,341969,340239,341253,340241,342501,341769,341769,342501,93
91,test,1,inc,1,z,Wed Mar 19 2025 11:31:31 GMT-0500 (Central Daylight Time),353258.6999999881,step,800,O,z,z,None,483,284.0,199.0,21,1,1828.8999999761581,351429.8000000119,7089,love,AF,B,344051,344052,342522,343335,342523,344351,343852,343852,344351,94
92,test,1,con,1,m,Wed Mar 19 2025 11:31:31 GMT-0500 (Central Daylight Time),355324.8000000119,bell,1100,O,m,m,None,398,183.0,215.0,84,1,2046.6000000238419,353278.1999999881,7089,bell,AF,B,346217,346217,344370,345484,344371,346417,346002,346002,346417,95
93,test,1,inc,1,z,Wed Mar 19 2025 11:31:31 GMT-0500 (Central Daylight Time),357507.1999999881,window,1100,O,z,z,None,517,318.0,199.0,8,1,2162.800000011921,355344.39999997616,7089,elated,AF,B,348267,348267,346436,347551,346438,348599,348067,348067,348599,96
94,test,1,con,1,m,Wed Mar 19 2025 11:31:31 GMT-0500 (Central Daylight Time),359589.60000002384,bell,1000,O,m,m,None,530,331.0,199.0,83,1,2061.7000000476837,357527.89999997616,7089,bell,AF,B,350349,350349,348620,349633,348621,350682,350150,350150,350682,97
95,test,1,inc,1,z,Wed Mar 19 2025 11:31:31 GMT-0500 (Central Daylight Time),361672.5,window,1100,O,z,z,None,427,228.0,199.0,40,1,2063.699999988079,359608.8000000119,7089,brutal,AF,B,352532,352532,350701,351816,350702,352765,352332,352332,352765,98
96,test,1,con,1,m,Wed Mar 19 2025 11:31:31 GMT-0500 (Central Daylight Time),363738.39999997616,window,900,O,m,m,None,599,400.0,199.0,122,1,2046.0,361692.39999997616,7089,window,AF,B,354415,354416,352784,353699,352786,354831,354215,354215,354830,99
97,test,1,con,1,m,Wed Mar 19 2025 11:31:31 GMT-0500 (Central Daylight Time),365637.6999999881,jacket,900,O,m,m,None,446,247.0,199.0,98,1,1883.800000011921,363753.89999997616,7089,jacket,AF,B,356481,356481,354846,355765,354847,356730,356281,356281,356730,100
98,test,1,inc,1,z,Wed Mar 19 2025 11:31:31 GMT-0500 (Central Daylight Time),367820.39999997616,window,1100,O,z,z,None,524,325.0,199.0,32,1,2161.5,365658.89999997616,7089,friend,AF,B,358580,358580,356751,357864,356752,358913,358380,358380,358912,101
99,test,1,con,1,m,Wed Mar 19 2025 11:31:31 GMT-0500 (Central Daylight Time),369653.1999999881,jacket,800,O,m,m,None,472,273.0,199.0,97,1,1813.3999999761581,367839.8000000119,7089,jacket,AF,B,360463,360463,358932,359747,358934,360745,360263,360263,360745,102
100,test,1,con,1,z,Wed Mar 19 2025 11:31:31 GMT-0500 (Central Daylight Time),371819.10000002384,friend,1100,O,z,z,None,499,300.0,199.0,28,1,2146.600000023842,369672.5,7089,friend,AF,B,362595,362595,360765,361879,360766,362911,362396,362396,362911,103
101,test,1,inc,1,z,Wed Mar 19 2025 11:31:31 GMT-0500 (Central Daylight Time),373835.6999999881,napkin,900,O,z,z,None,549,350.0,199.0,38,1,1995.8999999761581,371839.8000000119,7089,brutal,AF,B,364562,364562,362932,363845,362933,364928,364362,364362,364928,104
102,test,1,con,1,z,Wed Mar 19 2025 11:31:31 GMT-0500 (Central Daylight Time),375984.60000002384,rage,800,O,z,z,None,794,595.0,199.0,49,1,2128.400000035763,373856.1999999881,7089,rage,AF,B,366477,366477,364948,365761,364950,367077,366278,366278,367077,105
103,test,1,inc,1,m,Wed Mar 19 2025 11:31:31 GMT-0500 (Central Daylight Time),377984.0,brutal,900,O,m,m,None,545,346.0,199.0,118,1,1980.1000000238419,376003.89999997616,7089,remote,AF,B,368727,368727,367096,368010,367098,369076,368527,368527,369076,106
104,test,1,inc,1,z,Wed Mar 19 2025 11:31:31 GMT-0500 (Central Daylight Time),380099.8000000119,film,1100,O,z,z,None,457,258.0,199.0,24,1,2095.800000011921,378004.0,7089,love,AF,B,370926,370926,369096,370210,369098,371192,370726,370726,371192,107
105,test,1,con,1,z,Wed Mar 19 2025 11:31:31 GMT-0500 (Central Daylight Time),382049.1999999881,love,900,O,z,z,None,485,286.0,199.0,18,1,1928.800000011921,380120.39999997616,7089,love,AF,B,372842,372842,371212,372126,371214,373141,372642,372642,373141,108
106,test,1,con,1,m,Wed Mar 19 2025 11:31:31 GMT-0500 (Central Daylight Time),384165.60000002384,rock,1100,O,m,m,None,465,266.0,199.0,76,1,2095.900000035763,382069.6999999881,7089,rock,AF,B,374991,374991,373162,374275,373163,375258,374792,374792,375258,109
107,test,1,con,1,z,Wed Mar 19 2025 11:31:31 GMT-0500 (Central Daylight Time),386181.1999999881,elated,1000,O,z,z,None,456,257.0,199.0,3,1,1995.699999988079,384185.5,7089,elated,AF,B,377007,377007,375278,376291,375280,377273,376808,376808,377273,110
108,test,1,con,1,m,Wed Mar 19 2025 11:31:31 GMT-0500 (Central Daylight Time),388147.1999999881,bell,900,O,m,m,None,502,302.0,200.0,82,1,1945.5999999642372,386201.60000002384,7089,bell,AF,B,378922,378922,377294,378207,377295,379239,378722,378722,379239,111
109,test,1,inc,1,m,Wed Mar 19 2025 11:31:31 GMT-0500 (Central Daylight Time),390279.8000000119,temper,1000,O,m,m,None,578,379.0,199.0,103,1,2112.400000035763,388167.39999997616,7089,jacket,AF,B,380989,380989,379259,380273,379261,381372,380790,380790,381372,112
109,test,1,con,0,m,Wed Mar 19 2025 11:31:31 GMT-0500 (Central Daylight Time),392345.8000000119,remote,1100,O,z,z,None,409,210.0,199.0,116,1,2046.300000011921,390299.5,7089,remote,AF,B,383222,383222,381392,382506,381393,383438,383022,383022,383438,113
110,test,1,con,1,z,Wed Mar 19 2025 11:31:31 GMT-0500 (Central Daylight Time),394578.39999997616,kind,1100,O,z,z,None,575,376.0,199.0,12,1,2212.899999976158,392365.5,7089,kind,AF,B,385288,385288,383458,384572,383459,385671,385088,385088,385670,114
111,test,1,inc,1,m,Wed Mar 19 2025 11:31:31 GMT-0500 (Central Daylight Time),396611.1999999881,kind,900,O,m,m,None,574,375.0,199.0,70,1,2012.3999999761581,394598.8000000119,7089,step,AF,B,387320,387321,385691,386604,385692,387703,387121,387121,387703,115
112,test,1,inc,1,z,Wed Mar 19 2025 11:31:31 GMT-0500 (Central Daylight Time),398494.0,jacket,800,O,z,z,None,523,324.0,199.0,37,1,1861.6000000238419,396632.39999997616,7089,brutal,AF,B,389253,389253,387724,388537,387726,389586,389054,389054,389586,116
113,test,1,inc,1,z,Wed Mar 19 2025 11:31:31 GMT-0500 (Central Daylight Time),401193.0,film,1100,O,z,z,None,1035,836.0,199.0,56,1,2679.199999988079,398513.8000000119,7089,rage,AF,B,391436,391436,389606,390720,389607,392285,391236,391236,392285,117
114,test,1,con,1,z,Wed Mar 19 2025 11:31:31 GMT-0500 (Central Daylight Time),403042.39999997616,elated,800,O,z,z,None,484,285.0,199.0,1,1,1829.2999999523163,401213.10000002384,7089,elated,AF,B,393835,393835,392305,393119,392307,394135,393635,393635,394134,118
115,test,1,con,1,m,Wed Mar 19 2025 11:31:31 GMT-0500 (Central Daylight Time),405207.8000000119,window,1100,O,m,m,None,509,310.0,199.0,124,1,2145.300000011921,403062.5,7089,window,AF,B,395984,395985,394155,395268,394156,396300,395785,395785,396300,119
116,test,1,inc,1,z,Wed Mar 19 2025 11:31:31 GMT-0500 (Central Daylight Time),407107.5,napkin,900,O,z,z,None,457,258.0,199.0,6,1,1887.8999999761581,405219.60000002384,7089,elated,AF,B,397934,397934,396312,397217,396313,398200,397734,397734,398199,120
117,test,1,con,1,m,Wed Mar 19 2025 11:31:31 GMT-0500 (Central Daylight Time),409290.1999999881,remote,900,O,m,m,None,718,519.0,199.0,114,1,2163.699999988079,407126.5,7089,remote,AF,B,399850,399850,398219,399134,398220,400382,399650,399650,400382,121
118,test,1,con,1,z,Wed Mar 19 2025 11:31:31 GMT-0500 (Central Daylight Time),411106.3000000119,hate,800,O,z,z,None,451,252.0,199.0,41,1,1796.0,409310.3000000119,7089,hate,AF,B,401932,401932,400402,401216,400404,402198,401733,401733,402198,122
119,test,1,con,1,z,Wed Mar 19 2025 11:31:31 GMT-0500 (Central Daylight Time),413372.10000002384,love,1100,O,z,z,None,607,392.0,215.0,20,1,2244.7000000476837,411127.39999997616,7089,love,AF,B,404064,404064,402219,403332,402221,404464,403849,403849,404464,123
120,test,1,con,1,z,Wed Mar 19 2025 11:31:31 GMT-0500 (Central Daylight Time),415288.3000000119,elated,900,O,z,z,None,461,262.0,199.0,2,1,1896.6000000238419,413391.6999999881,7089,elated,AF,B,406114,406114,404484,405398,404485,406380,405915,405915,406380,124
121,test,1,inc,1,z,Wed Mar 19 2025 11:31:31 GMT-0500 (Central Daylight Time),417671.3000000119,bell,1000,O,z,z,None,821,622.0,199.0,55,1,2362.900000035763,415308.39999997616,7089,rage,AF,B,408130,408130,406400,407414,406402,408763,407931,407931,408763,125
122,test,1,inc,1,m,Wed Mar 19 2025 11:31:31 GMT-0500 (Central Daylight Time),419653.60000002384,kind,900,O,m,m,None,531,332.0,199.0,86,1,1963.0,417690.60000002384,7089,bell,AF,B,410413,410413,408783,409697,408784,410746,410213,410213,410746,126
123,test,1,con,1,z,Wed Mar 19 2025 11:31:31 GMT-0500 (Central Daylight Time),421786.0,brutal,1000,O,z,z,None,567,368.0,199.0,35,1,2113.5,419672.5,7089,brutal,AF,B,412495,412496,410764,411780,410765,412878,412296,412296,412878,127
124,test,1,con,1,m,Wed Mar 19 2025 11:31:31 GMT-0500 (Central Daylight Time),423668.8000000119,window,800,O,m,m,None,523,324.0,199.0,121,1,1863.5,421805.3000000119,7089,window,AF,B,414428,414428,412897,413712,412899,414761,414229,414229,414761,128
