block_c,block_dur,condition,countdown,datetime,endtime,list,multichar_response,project,response,response_time,session_number,start_end,starttime,subject_id,task,task_vers,trial
,,,,Mon Nov 04 2024 16:01:37 GMT-0600 (Central Standard Time),,,,O,space,668,1,,,7035,WL,B,
prac,,0,,Mon Nov 04 2024 16:01:37 GMT-0600 (Central Standard Time),,NA,b,O,b,3401,1,,,7035,WL,B,1.0
prac,,0,,Mon Nov 04 2024 16:01:37 GMT-0600 (Central Standard Time),,NA,bo,O,o,463,1,,,7035,WL,B,1.0
prac,,0,,Mon Nov 04 2024 16:01:37 GMT-0600 (Central Standard Time),,NA,boo,O,o,98,1,,,7035,WL,B,1.0
prac,,0,,Mon Nov 04 2024 16:01:37 GMT-0600 (Central Standard Time),,NA,boos,O,s,166,1,,,7035,WL,B,1.0
prac,,0,,Mon Nov 04 2024 16:01:37 GMT-0600 (Central Standard Time),,NA,boost,O,t,176,1,,,7035,WL,B,1.0
prac,,0,,Mon Nov 04 2024 16:01:37 GMT-0600 (Central Standard Time),,NA,boostenter,O,enter,1197,1,,,7035,WL,B,1.0
1,3.8329999446868896,learn,56167.00005531311,Mon Nov 04 2024 16:01:37 GMT-0600 (Central Standard Time),161000.20000004768,A,s,O,s,3790,1,3831.4000000953674,157168.79999995232,7035,WL,B,1.0
1,4.065999984741211,learn,55934.00001525879,Mon Nov 04 2024 16:01:37 GMT-0600 (Central Standard Time),161233.59999990463,A,st,O,t,197,1,4064.7999999523163,157168.79999995232,7035,WL,B,1.0
1,4.2820000648498535,learn,55717.99993515015,Mon Nov 04 2024 16:01:37 GMT-0600 (Central Standard Time),161449.20000004768,A,str,O,r,186,1,4280.400000095367,157168.79999995232,7035,WL,B,1.0
1,4.582000017166138,learn,55417.99998283386,Mon Nov 04 2024 16:01:37 GMT-0600 (Central Standard Time),161749.59999990463,A,stre,O,e,268,1,4580.799999952316,157168.79999995232,7035,WL,B,1.0
1,4.749000072479248,learn,55250.99992752075,Mon Nov 04 2024 16:01:37 GMT-0600 (Central Standard Time),161916.29999995232,A,stree,O,e,130,1,4747.5,157168.79999995232,7035,WL,B,1.0
1,4.98199987411499,learn,55018.00012588501,Mon Nov 04 2024 16:01:37 GMT-0600 (Central Standard Time),162149.20000004768,A,street,O,t,199,1,4980.400000095367,157168.79999995232,7035,WL,B,1.0
1,6.46399998664856,learn,53536.00001335144,Mon Nov 04 2024 16:01:37 GMT-0600 (Central Standard Time),163631.40000009537,A,streetenter,O,enter,1439,1,6462.600000143051,157168.79999995232,7035,WL,B,1.0
1,8.414000034332275,learn,51585.999965667725,Mon Nov 04 2024 16:01:37 GMT-0600 (Central Standard Time),165581.59999990463,A,f,O,f,1937,1,1949.6999998092651,163631.90000009537,7035,WL,B,2.0
1,9.063999891281128,learn,50936.00010871887,Mon Nov 04 2024 16:01:37 GMT-0600 (Central Standard Time),166231.5,A,,O,backspace,607,1,2599.5999999046326,163631.90000009537,7035,WL,B,2.0
1,9.480999946594238,learn,50519.00005340576,Mon Nov 04 2024 16:01:37 GMT-0600 (Central Standard Time),166648.0,A,g,O,g,375,1,3016.0999999046326,163631.90000009537,7035,WL,B,2.0
1,9.79699993133545,learn,50203.00006866455,Mon Nov 04 2024 16:01:37 GMT-0600 (Central Standard Time),166964.70000004768,A,gr,O,r,291,1,3332.7999999523163,163631.90000009537,7035,WL,B,2.0
1,10.02999997138977,learn,49970.00002861023,Mon Nov 04 2024 16:01:37 GMT-0600 (Central Standard Time),167197.5,A,gra,O,a,199,1,3565.5999999046326,163631.90000009537,7035,WL,B,2.0
1,10.146999835968018,learn,49853.00016403198,Mon Nov 04 2024 16:01:37 GMT-0600 (Central Standard Time),167314.09999990463,A,gras,O,s,87,1,3682.199999809265,163631.90000009537,7035,WL,B,2.0
1,10.363999843597412,learn,49636.00015640259,Mon Nov 04 2024 16:01:37 GMT-0600 (Central Standard Time),167531.09999990463,A,grass,O,s,186,1,3899.199999809265,163631.90000009537,7035,WL,B,2.0
1,10.895999908447266,learn,49104.000091552734,Mon Nov 04 2024 16:01:37 GMT-0600 (Central Standard Time),168063.0,A,grassenter,O,enter,504,1,4431.099999904633,163631.90000009537,7035,WL,B,2.0
1,11.77999997138977,learn,48220.00002861023,Mon Nov 04 2024 16:01:37 GMT-0600 (Central Standard Time),168947.20000004768,A,d,O,d,866,1,883.7999999523163,168063.40000009537,7035,WL,B,3.0
1,11.963000059127808,learn,48036.99994087219,Mon Nov 04 2024 16:01:37 GMT-0600 (Central Standard Time),169130.40000009537,A,do,O,o,146,1,1067.0,168063.40000009537,7035,WL,B,3.0
1,12.11299991607666,learn,47887.00008392334,Mon Nov 04 2024 16:01:37 GMT-0600 (Central Standard Time),169280.29999995232,A,doo,O,o,116,1,1216.8999998569489,168063.40000009537,7035,WL,B,3.0
1,12.312999963760376,learn,47687.000036239624,Mon Nov 04 2024 16:01:37 GMT-0600 (Central Standard Time),169480.20000004768,A,door,O,r,159,1,1416.7999999523163,168063.40000009537,7035,WL,B,3.0
1,12.944999933242798,learn,47055.0000667572,Mon Nov 04 2024 16:01:37 GMT-0600 (Central Standard Time),170112.40000009537,A,doorenter,O,enter,605,1,2049.0,168063.40000009537,7035,WL,B,3.0
1,13.345999956130981,learn,46654.00004386902,Mon Nov 04 2024 16:01:37 GMT-0600 (Central Standard Time),170513.40000009537,A,a,O,a,384,1,400.5,170112.90000009537,7035,WL,B,4.0
1,13.496000051498413,learn,46503.99994850159,Mon Nov 04 2024 16:01:37 GMT-0600 (Central Standard Time),170663.40000009537,A,ar,O,r,108,1,550.5,170112.90000009537,7035,WL,B,4.0
1,13.711999893188477,learn,46288.00010681152,Mon Nov 04 2024 16:01:37 GMT-0600 (Central Standard Time),170879.90000009537,A,arm,O,m,186,1,767.0,170112.90000009537,7035,WL,B,4.0
1,14.378999948501587,learn,45621.00005149841,Mon Nov 04 2024 16:01:37 GMT-0600 (Central Standard Time),171546.29999995232,A,armenter,O,enter,629,1,1433.3999998569489,170112.90000009537,7035,WL,B,4.0
1,15.994999885559082,learn,44005.00011444092,Mon Nov 04 2024 16:01:37 GMT-0600 (Central Standard Time),173162.20000004768,A,p,O,p,1607,1,1615.6000001430511,171546.59999990463,7035,WL,B,5.0
1,16.227999925613403,learn,43772.0000743866,Mon Nov 04 2024 16:01:37 GMT-0600 (Central Standard Time),173395.5,A,pu,O,u,193,1,1848.9000000953674,171546.59999990463,7035,WL,B,5.0
1,16.42799997329712,learn,43572.00002670288,Mon Nov 04 2024 16:01:37 GMT-0600 (Central Standard Time),173595.59999990463,A,pup,O,p,180,1,2049.0,171546.59999990463,7035,WL,B,5.0
1,16.744999885559082,learn,43255.00011444092,Mon Nov 04 2024 16:01:37 GMT-0600 (Central Standard Time),173912.20000004768,A,pupi,O,i,281,1,2365.600000143051,171546.59999990463,7035,WL,B,5.0
1,16.994999885559082,learn,43005.00011444092,Mon Nov 04 2024 16:01:37 GMT-0600 (Central Standard Time),174162.20000004768,A,pupil,O,l,214,1,2615.600000143051,171546.59999990463,7035,WL,B,5.0
1,17.477999925613403,learn,42522.0000743866,Mon Nov 04 2024 16:01:37 GMT-0600 (Central Standard Time),174645.20000004768,A,pupilenter,O,enter,447,1,3098.600000143051,171546.59999990463,7035,WL,B,5.0
1,17.8439998626709,learn,42156.0001373291,Mon Nov 04 2024 16:01:37 GMT-0600 (Central Standard Time),175011.79999995232,A,s,O,s,348,1,366.2000000476837,174645.59999990463,7035,WL,B,6.0
1,17.960999965667725,learn,42039.000034332275,Mon Nov 04 2024 16:01:37 GMT-0600 (Central Standard Time),175128.59999990463,A,st,O,t,89,1,483.0,174645.59999990463,7035,WL,B,6.0
1,18.14400005340576,learn,41855.99994659424,Mon Nov 04 2024 16:01:37 GMT-0600 (Central Standard Time),175311.70000004768,A,sta,O,a,148,1,666.1000001430511,174645.59999990463,7035,WL,B,6.0
1,18.293999910354614,learn,41706.000089645386,Mon Nov 04 2024 16:01:37 GMT-0600 (Central Standard Time),175461.70000004768,A,star,O,r,117,1,816.1000001430511,174645.59999990463,7035,WL,B,6.0
1,18.825999975204468,learn,41174.00002479553,Mon Nov 04 2024 16:01:37 GMT-0600 (Central Standard Time),175993.79999995232,A,starenter,O,enter,496,1,1348.2000000476837,174645.59999990463,7035,WL,B,6.0
1,23.259999990463257,learn,36740.00000953674,Mon Nov 04 2024 16:01:37 GMT-0600 (Central Standard Time),180426.79999995232,A,w,O,w,4416,1,4432.700000047684,175994.09999990463,7035,WL,B,7.0
1,23.376999855041504,learn,36623.000144958496,Mon Nov 04 2024 16:01:37 GMT-0600 (Central Standard Time),180543.59999990463,A,wi,O,i,77,1,4549.5,175994.09999990463,7035,WL,B,7.0
1,23.542999982833862,learn,36457.00001716614,Mon Nov 04 2024 16:01:37 GMT-0600 (Central Standard Time),180710.0,A,win,O,n,134,1,4715.900000095367,175994.09999990463,7035,WL,B,7.0
1,23.658999919891357,learn,36341.00008010864,Mon Nov 04 2024 16:01:37 GMT-0600 (Central Standard Time),180826.29999995232,A,wind,O,d,89,1,4832.200000047684,175994.09999990463,7035,WL,B,7.0
1,23.80999994277954,learn,36190.00005722046,Mon Nov 04 2024 16:01:37 GMT-0600 (Central Standard Time),180976.70000004768,A,windo,O,o,125,1,4982.600000143051,175994.09999990463,7035,WL,B,7.0
1,24.292999982833862,learn,35707.00001716614,Mon Nov 04 2024 16:01:37 GMT-0600 (Central Standard Time),181459.90000009537,A,window,O,w,445,1,5465.800000190735,175994.09999990463,7035,WL,B,7.0
1,24.64199995994568,learn,35358.00004005432,Mon Nov 04 2024 16:01:37 GMT-0600 (Central Standard Time),181808.5,A,windowenter,O,enter,321,1,5814.400000095367,175994.09999990463,7035,WL,B,7.0
1,28.674000024795532,learn,31325.999975204468,Mon Nov 04 2024 16:01:37 GMT-0600 (Central Standard Time),185841.20000004768,A,w,O,w,4025,1,4032.2999999523163,181808.90000009537,7035,WL,B,8.0
1,28.807999849319458,learn,31192.000150680542,Mon Nov 04 2024 16:01:37 GMT-0600 (Central Standard Time),185974.79999995232,A,wi,O,i,92,1,4165.899999856949,181808.90000009537,7035,WL,B,8.0
1,28.95799994468689,learn,31042.00005531311,Mon Nov 04 2024 16:01:37 GMT-0600 (Central Standard Time),186124.70000004768,A,wif,O,f,120,1,4315.799999952316,181808.90000009537,7035,WL,B,8.0
1,29.10800004005432,learn,30891.99995994568,Mon Nov 04 2024 16:01:37 GMT-0600 (Central Standard Time),186274.79999995232,A,wife,O,e,123,1,4465.899999856949,181808.90000009537,7035,WL,B,8.0
1,29.58999991416931,learn,30410.00008583069,Mon Nov 04 2024 16:01:37 GMT-0600 (Central Standard Time),186756.90000009537,A,wifeenter,O,enter,451,1,4948.0,181808.90000009537,7035,WL,B,8.0
1,45.234999895095825,learn,14765.000104904175,Mon Nov 04 2024 16:01:37 GMT-0600 (Central Standard Time),202401.79999995232,A,enter,O,enter,15628,1,15644.599999904633,186757.20000004768,7035,WL,B,9.0
1,46.45099997520447,learn,13549.000024795532,Mon Nov 04 2024 16:01:37 GMT-0600 (Central Standard Time),203618.09999990463,A,enter,O,enter,1207,1,1216.0,202402.09999990463,7035,WL,B,10.0
1,46.817999839782715,learn,13182.000160217285,Mon Nov 04 2024 16:01:37 GMT-0600 (Central Standard Time),203984.59999990463,A,enter,O,enter,359,1,366.19999980926514,203618.40000009537,7035,WL,B,11.0
1,47.18400001525879,learn,12815.999984741211,Mon Nov 04 2024 16:01:37 GMT-0600 (Central Standard Time),204351.0,A,enter,O,enter,360,1,366.09999990463257,203984.90000009537,7035,WL,B,12.0
1,47.68400001525879,learn,12315.999984741211,Mon Nov 04 2024 16:01:37 GMT-0600 (Central Standard Time),204850.90000009537,A,enter,O,enter,490,1,499.60000014305115,204351.29999995232,7035,WL,B,13.0
1,48.151000022888184,learn,11848.999977111816,Mon Nov 04 2024 16:01:37 GMT-0600 (Central Standard Time),205317.40000009537,A,enter,O,enter,445,1,466.0,204851.40000009537,7035,WL,B,14.0
1,48.53399991989136,learn,11466.000080108643,Mon Nov 04 2024 16:01:37 GMT-0600 (Central Standard Time),205700.70000004768,A,enter,O,enter,363,1,382.90000009536743,205317.79999995232,7035,WL,B,15.0
2,2.5139999389648438,learn,57486.000061035156,Mon Nov 04 2024 16:01:37 GMT-0600 (Central Standard Time),277227.09999990463,A,g,O,g,2478,1,2513.2999999523163,274713.7999999523,7035,WL,B,1.0
2,2.7639999389648438,learn,57236.000061035156,Mon Nov 04 2024 16:01:37 GMT-0600 (Central Standard Time),277476.90000009537,A,gr,O,r,228,1,2763.100000143051,274713.7999999523,7035,WL,B,1.0
2,2.9800000190734863,learn,57019.999980926514,Mon Nov 04 2024 16:01:37 GMT-0600 (Central Standard Time),277693.59999990463,A,gra,O,a,203,1,2979.7999999523163,274713.7999999523,7035,WL,B,1.0
2,3.3470001220703125,learn,56652.99987792969,Mon Nov 04 2024 16:01:37 GMT-0600 (Central Standard Time),278060.0,A,gras,O,s,354,1,3346.2000000476837,274713.7999999523,7035,WL,B,1.0
2,3.562999963760376,learn,56437.000036239624,Mon Nov 04 2024 16:01:37 GMT-0600 (Central Standard Time),278276.7000000477,A,grass,O,s,195,1,3562.9000000953674,274713.7999999523,7035,WL,B,1.0
2,4.046999931335449,learn,55953.00006866455,Mon Nov 04 2024 16:01:37 GMT-0600 (Central Standard Time),278760.0,A,grassenter,O,enter,476,1,4046.2000000476837,274713.7999999523,7035,WL,B,1.0
2,5.647000074386597,learn,54352.9999256134,Mon Nov 04 2024 16:01:37 GMT-0600 (Central Standard Time),280360.5,A,s,O,s,1586,1,1600.2999999523163,278760.2000000477,7035,WL,B,2.0
2,5.880000114440918,learn,54119.99988555908,Mon Nov 04 2024 16:01:37 GMT-0600 (Central Standard Time),280593.7999999523,A,st,O,t,199,1,1833.5999999046326,278760.2000000477,7035,WL,B,2.0
2,6.079999923706055,learn,53920.000076293945,Mon Nov 04 2024 16:01:37 GMT-0600 (Central Standard Time),280793.40000009537,A,str,O,r,173,1,2033.2000000476837,278760.2000000477,7035,WL,B,2.0
2,6.2799999713897705,learn,53720.00002861023,Mon Nov 04 2024 16:01:37 GMT-0600 (Central Standard Time),280993.09999990463,A,stre,O,e,179,1,2232.899999856949,278760.2000000477,7035,WL,B,2.0
2,6.546999931335449,learn,53453.00006866455,Mon Nov 04 2024 16:01:37 GMT-0600 (Central Standard Time),281260.2000000477,A,stree,O,e,232,1,2500.0,278760.2000000477,7035,WL,B,2.0
2,6.746999979019165,learn,53253.000020980835,Mon Nov 04 2024 16:01:37 GMT-0600 (Central Standard Time),281460.2000000477,A,street,O,t,172,1,2700.0,278760.2000000477,7035,WL,B,2.0
2,7.046000003814697,learn,52953.9999961853,Mon Nov 04 2024 16:01:37 GMT-0600 (Central Standard Time),281758.90000009537,A,streetenter,O,enter,273,1,2998.7000000476837,278760.2000000477,7035,WL,B,2.0
2,7.397000074386597,learn,52602.9999256134,Mon Nov 04 2024 16:01:37 GMT-0600 (Central Standard Time),282110.09999990463,A,d,O,d,331,1,350.89999985694885,281759.2000000477,7035,WL,B,3.0
2,7.546999931335449,learn,52453.00006866455,Mon Nov 04 2024 16:01:37 GMT-0600 (Central Standard Time),282260.0,A,do,O,o,119,1,500.7999999523163,281759.2000000477,7035,WL,B,3.0
2,7.746000051498413,learn,52253.99994850159,Mon Nov 04 2024 16:01:37 GMT-0600 (Central Standard Time),282459.90000009537,A,doo,O,o,175,1,700.7000000476837,281759.2000000477,7035,WL,B,3.0
2,7.963000059127808,learn,52036.99994087219,Mon Nov 04 2024 16:01:37 GMT-0600 (Central Standard Time),282676.2000000477,A,door,O,r,187,1,917.0,281759.2000000477,7035,WL,B,3.0
2,8.26200008392334,learn,51737.99991607666,Mon Nov 04 2024 16:01:37 GMT-0600 (Central Standard Time),282975.2999999523,A,doorenter,O,enter,270,1,1216.0999999046326,281759.2000000477,7035,WL,B,3.0
2,8.546000003814697,learn,51453.9999961853,Mon Nov 04 2024 16:01:37 GMT-0600 (Central Standard Time),283259.5,A,a,O,a,267,1,283.90000009536743,282975.59999990463,7035,WL,B,4.0
2,8.729000091552734,learn,51270.999908447266,Mon Nov 04 2024 16:01:37 GMT-0600 (Central Standard Time),283442.90000009537,A,ar,O,r,156,1,467.30000019073486,282975.59999990463,7035,WL,B,4.0
2,9.095999956130981,learn,50904.00004386902,Mon Nov 04 2024 16:01:37 GMT-0600 (Central Standard Time),283809.5,A,arm,O,m,333,1,833.9000000953674,282975.59999990463,7035,WL,B,4.0
2,10.74399995803833,learn,49256.00004196167,Mon Nov 04 2024 16:01:37 GMT-0600 (Central Standard Time),285457.7999999523,A,armenter,O,enter,1613,1,2482.2000000476837,282975.59999990463,7035,WL,B,4.0
2,11.82800006866455,learn,48171.99993133545,Mon Nov 04 2024 16:01:37 GMT-0600 (Central Standard Time),286541.7999999523,A,w,O,w,1072,1,1083.7000000476837,285458.09999990463,7035,WL,B,5.0
2,11.977999925613403,learn,48022.0000743866,Mon Nov 04 2024 16:01:37 GMT-0600 (Central Standard Time),286691.7999999523,A,wi,O,i,115,1,1233.7000000476837,285458.09999990463,7035,WL,B,5.0
2,12.161999940872192,learn,47838.00005912781,Mon Nov 04 2024 16:01:37 GMT-0600 (Central Standard Time),286875.09999990463,A,win,O,n,156,1,1417.0,285458.09999990463,7035,WL,B,5.0
2,12.24399995803833,learn,47756.00004196167,Mon Nov 04 2024 16:01:37 GMT-0600 (Central Standard Time),286957.7000000477,A,wind,O,d,54,1,1499.6000001430511,285458.09999990463,7035,WL,B,5.0
2,12.394000053405762,learn,47605.99994659424,Mon Nov 04 2024 16:01:37 GMT-0600 (Central Standard Time),287107.5,A,windo,O,o,123,1,1649.4000000953674,285458.09999990463,7035,WL,B,5.0
2,13.07800006866455,learn,46921.99993133545,Mon Nov 04 2024 16:01:37 GMT-0600 (Central Standard Time),287791.40000009537,A,windoq,O,q,657,1,2333.300000190735,285458.09999990463,7035,WL,B,5.0
2,13.811000108718872,learn,46188.99989128113,Mon Nov 04 2024 16:01:37 GMT-0600 (Central Standard Time),288524.2000000477,A,windo,O,backspace,703,1,3066.100000143051,285458.09999990463,7035,WL,B,5.0
2,14.194000005722046,learn,45805.999994277954,Mon Nov 04 2024 16:01:37 GMT-0600 (Central Standard Time),288907.7000000477,A,window,O,w,358,1,3449.600000143051,285458.09999990463,7035,WL,B,5.0
2,14.360000133514404,learn,45639.999866485596,Mon Nov 04 2024 16:01:37 GMT-0600 (Central Standard Time),289073.2999999523,A,windowenter,O,enter,131,1,3615.2000000476837,285458.09999990463,7035,WL,B,5.0
2,15.293999910354614,learn,44706.000089645386,Mon Nov 04 2024 16:01:37 GMT-0600 (Central Standard Time),290007.09999990463,A,w,O,w,921,1,933.5,289073.59999990463,7035,WL,B,6.0
2,15.427000045776367,learn,44572.99995422363,Mon Nov 04 2024 16:01:37 GMT-0600 (Central Standard Time),290140.40000009537,A,wi,O,i,96,1,1066.8000001907349,289073.59999990463,7035,WL,B,6.0
2,15.577000141143799,learn,44422.9998588562,Mon Nov 04 2024 16:01:37 GMT-0600 (Central Standard Time),290290.7000000477,A,wif,O,f,124,1,1217.1000001430511,289073.59999990463,7035,WL,B,6.0
2,15.710000038146973,learn,44289.99996185303,Mon Nov 04 2024 16:01:37 GMT-0600 (Central Standard Time),290423.90000009537,A,wife,O,e,101,1,1350.3000001907349,289073.59999990463,7035,WL,B,6.0
2,16.075999975204468,learn,43924.00002479553,Mon Nov 04 2024 16:01:37 GMT-0600 (Central Standard Time),290789.5,A,wifeenter,O,enter,324,1,1715.9000000953674,289073.59999990463,7035,WL,B,6.0
2,18.926000118255615,learn,41073.999881744385,Mon Nov 04 2024 16:01:37 GMT-0600 (Central Standard Time),293639.5,A,c,O,c,2827,1,2849.7999999523163,290789.7000000477,7035,WL,B,7.0
2,19.05900001525879,learn,40940.99998474121,Mon Nov 04 2024 16:01:37 GMT-0600 (Central Standard Time),293772.09999990463,A,ci,O,i,93,1,2982.399999856949,290789.7000000477,7035,WL,B,7.0
2,19.2260000705719,learn,40773.9999294281,Mon Nov 04 2024 16:01:37 GMT-0600 (Central Standard Time),293939.2999999523,A,cit,O,t,150,1,3149.5999999046326,290789.7000000477,7035,WL,B,7.0
2,19.358999967575073,learn,40641.00003242493,Mon Nov 04 2024 16:01:37 GMT-0600 (Central Standard Time),294072.59999990463,A,city,O,y,94,1,3282.899999856949,290789.7000000477,7035,WL,B,7.0
2,19.924999952316284,learn,40075.000047683716,Mon Nov 04 2024 16:01:37 GMT-0600 (Central Standard Time),294638.2000000477,A,cityenter,O,enter,535,1,3848.5,290789.7000000477,7035,WL,B,7.0
2,22.574000120162964,learn,37425.999879837036,Mon Nov 04 2024 16:01:37 GMT-0600 (Central Standard Time),297287.2000000477,A,p,O,p,2627,1,2648.7999999523163,294638.40000009537,7035,WL,B,8.0
2,22.808000087738037,learn,37191.99991226196,Mon Nov 04 2024 16:01:37 GMT-0600 (Central Standard Time),297521.2000000477,A,pu,O,u,227,1,2882.7999999523163,294638.40000009537,7035,WL,B,8.0
2,23.258000135421753,learn,36741.99986457825,Mon Nov 04 2024 16:01:37 GMT-0600 (Central Standard Time),297971.2999999523,A,pup,O,p,414,1,3332.899999856949,294638.40000009537,7035,WL,B,8.0
2,24.008000135421753,learn,35991.99986457825,Mon Nov 04 2024 16:01:37 GMT-0600 (Central Standard Time),298721.0,A,pupi,O,i,723,1,4082.5999999046326,294638.40000009537,7035,WL,B,8.0
2,24.240999937057495,learn,35759.000062942505,Mon Nov 04 2024 16:01:37 GMT-0600 (Central Standard Time),298954.7999999523,A,pupil,O,l,198,1,4316.399999856949,294638.40000009537,7035,WL,B,8.0
2,24.52300000190735,learn,35476.99999809265,Mon Nov 04 2024 16:01:37 GMT-0600 (Central Standard Time),299236.59999990463,A,pupilenter,O,enter,252,1,4598.199999809265,294638.40000009537,7035,WL,B,8.0
2,28.44000005722046,learn,31559.99994277954,Mon Nov 04 2024 16:01:37 GMT-0600 (Central Standard Time),303153.2000000477,A,f,O,f,3909,1,3916.2999999523163,299236.90000009537,7035,WL,B,9.0
2,28.58999991416931,learn,31410.00008583069,Mon Nov 04 2024 16:01:37 GMT-0600 (Central Standard Time),303302.90000009537,A,fi,O,i,115,1,4066.0,299236.90000009537,7035,WL,B,9.0
2,28.740000009536743,learn,31259.999990463257,Mon Nov 04 2024 16:01:37 GMT-0600 (Central Standard Time),303452.5,A,fir,O,r,116,1,4215.599999904633,299236.90000009537,7035,WL,B,9.0
2,28.83999991416931,learn,31160.00008583069,Mon Nov 04 2024 16:01:37 GMT-0600 (Central Standard Time),303552.7000000477,A,fire,O,e,66,1,4315.799999952316,299236.90000009537,7035,WL,B,9.0
2,29.08999991416931,learn,30910.00008583069,Mon Nov 04 2024 16:01:37 GMT-0600 (Central Standard Time),303802.90000009537,A,fireenter,O,enter,223,1,4566.0,299236.90000009537,7035,WL,B,9.0
2,29.69000005722046,learn,30309.99994277954,Mon Nov 04 2024 16:01:37 GMT-0600 (Central Standard Time),304402.59999990463,A,c,O,c,591,1,599.3999998569489,303803.2000000477,7035,WL,B,10.0
2,29.85599994659424,learn,30144.00005340576,Mon Nov 04 2024 16:01:37 GMT-0600 (Central Standard Time),304569.2000000477,A,ca,O,a,133,1,766.0,303803.2000000477,7035,WL,B,10.0
2,30.055999994277954,learn,29944.000005722046,Mon Nov 04 2024 16:01:37 GMT-0600 (Central Standard Time),304769.2000000477,A,cab,O,b,165,1,966.0,303803.2000000477,7035,WL,B,10.0
2,30.27300000190735,learn,29726.99999809265,Mon Nov 04 2024 16:01:37 GMT-0600 (Central Standard Time),304985.7000000477,A,cabi,O,i,182,1,1182.5,303803.2000000477,7035,WL,B,10.0
2,30.456000089645386,learn,29543.999910354614,Mon Nov 04 2024 16:01:37 GMT-0600 (Central Standard Time),305168.7000000477,A,cabin,O,n,157,1,1365.5,303803.2000000477,7035,WL,B,10.0
2,30.871999979019165,learn,29128.000020980835,Mon Nov 04 2024 16:01:37 GMT-0600 (Central Standard Time),305584.5,A,cabinenter,O,enter,381,1,1781.2999999523163,303803.2000000477,7035,WL,B,10.0
2,35.47099995613098,learn,24529.00004386902,Mon Nov 04 2024 16:01:37 GMT-0600 (Central Standard Time),310184.40000009537,A,c,O,c,4578,1,4599.600000143051,305584.7999999523,7035,WL,B,11.0
2,35.6710000038147,learn,24328.999996185303,Mon Nov 04 2024 16:01:37 GMT-0600 (Central Standard Time),310384.2999999523,A,ca,O,a,177,1,4799.5,305584.7999999523,7035,WL,B,11.0
2,35.854000091552734,learn,24145.999908447266,Mon Nov 04 2024 16:01:37 GMT-0600 (Central Standard Time),310567.0,A,cab,O,b,143,1,4982.200000047684,305584.7999999523,7035,WL,B,11.0
2,36.07100009918213,learn,23928.99990081787,Mon Nov 04 2024 16:01:37 GMT-0600 (Central Standard Time),310783.90000009537,A,cabi,O,i,176,1,5199.100000143051,305584.7999999523,7035,WL,B,11.0
2,36.23699998855591,learn,23763.00001144409,Mon Nov 04 2024 16:01:37 GMT-0600 (Central Standard Time),310950.2999999523,A,cabin,O,n,137,1,5365.5,305584.7999999523,7035,WL,B,11.0
2,36.6029999256134,learn,23397.000074386597,Mon Nov 04 2024 16:01:37 GMT-0600 (Central Standard Time),311316.0,A,cabinenter,O,enter,336,1,5731.200000047684,305584.7999999523,7035,WL,B,11.0
2,45.73399996757507,learn,14266.000032424927,Mon Nov 04 2024 16:01:37 GMT-0600 (Central Standard Time),320447.2000000477,A,a,O,a,9118,1,9130.900000095367,311316.2999999523,7035,WL,B,12.0
2,45.901000022888184,learn,14098.999977111816,Mon Nov 04 2024 16:01:37 GMT-0600 (Central Standard Time),320613.90000009537,A,ar,O,r,128,1,9297.600000143051,311316.2999999523,7035,WL,B,12.0
2,46.134000062942505,learn,13865.999937057495,Mon Nov 04 2024 16:01:37 GMT-0600 (Central Standard Time),320847.09999990463,A,arm,O,m,205,1,9530.799999952316,311316.2999999523,7035,WL,B,12.0
2,46.76699995994568,learn,13233.000040054321,Mon Nov 04 2024 16:01:37 GMT-0600 (Central Standard Time),321480.2999999523,A,armenter,O,enter,608,1,10164.0,311316.2999999523,7035,WL,B,12.0
2,55.914000034332275,learn,4085.9999656677246,Mon Nov 04 2024 16:01:37 GMT-0600 (Central Standard Time),330627.2999999523,A,l,O,l,9138,1,9146.700000047684,321480.59999990463,7035,WL,B,13.0
2,56.06400012969971,learn,3935.999870300293,Mon Nov 04 2024 16:01:37 GMT-0600 (Central Standard Time),330777.09999990463,A,la,O,a,117,1,9296.5,321480.59999990463,7035,WL,B,13.0
2,56.61299991607666,learn,3387.00008392334,Mon Nov 04 2024 16:01:37 GMT-0600 (Central Standard Time),331326.0,A,lak,O,k,509,1,9845.400000095367,321480.59999990463,7035,WL,B,13.0
2,56.746999979019165,learn,3253.000020980835,Mon Nov 04 2024 16:01:37 GMT-0600 (Central Standard Time),331460.2999999523,A,lake,O,e,116,1,9979.700000047684,321480.59999990463,7035,WL,B,13.0
2,56.980000019073486,learn,3019.9999809265137,Mon Nov 04 2024 16:01:37 GMT-0600 (Central Standard Time),331692.5,A,lakeenter,O,enter,197,1,10211.900000095367,321480.59999990463,7035,WL,B,13.0
2,60.01300001144409,learn,-13.000011444091797,Mon Nov 04 2024 16:01:37 GMT-0600 (Central Standard Time),334726.09999990463,A,None,O,None,3027,1,3033.2999999523163,331692.7999999523,7035,WL,B,14.0
3,1.1500000953674316,learn,58849.99990463257,Mon Nov 04 2024 16:01:37 GMT-0600 (Central Standard Time),404619.90000009537,A,p,O,p,1116,1,1149.5,403470.40000009537,7035,WL,B,1.0
3,1.4170000553131104,learn,58582.99994468689,Mon Nov 04 2024 16:01:37 GMT-0600 (Central Standard Time),404886.2999999523,A,pi,O,i,227,1,1415.8999998569489,403470.40000009537,7035,WL,B,1.0
3,1.6000001430511475,learn,58399.99985694885,Mon Nov 04 2024 16:01:37 GMT-0600 (Central Standard Time),405069.5,A,pip,O,p,145,1,1599.0999999046326,403470.40000009537,7035,WL,B,1.0
3,1.75,learn,58250.0,Mon Nov 04 2024 16:01:37 GMT-0600 (Central Standard Time),405219.2999999523,A,pipe,O,e,122,1,1748.8999998569489,403470.40000009537,7035,WL,B,1.0
3,2.199000120162964,learn,57800.999879837036,Mon Nov 04 2024 16:01:37 GMT-0600 (Central Standard Time),405668.09999990463,A,pipeenter,O,enter,419,1,2197.699999809265,403470.40000009537,7035,WL,B,1.0
3,2.7320001125335693,learn,57267.99988746643,Mon Nov 04 2024 16:01:37 GMT-0600 (Central Standard Time),406201.2999999523,A,s,O,s,516,1,533.0,405668.2999999523,7035,WL,B,2.0
3,2.881999969482422,learn,57118.00003051758,Mon Nov 04 2024 16:01:37 GMT-0600 (Central Standard Time),406351.2000000477,A,sk,O,k,134,1,682.9000000953674,405668.2999999523,7035,WL,B,2.0
3,3.065000057220459,learn,56934.99994277954,Mon Nov 04 2024 16:01:37 GMT-0600 (Central Standard Time),406534.5,A,ski,O,i,168,1,866.2000000476837,405668.2999999523,7035,WL,B,2.0
3,3.248000144958496,learn,56751.999855041504,Mon Nov 04 2024 16:01:37 GMT-0600 (Central Standard Time),406717.7000000477,A,skin,O,n,161,1,1049.4000000953674,405668.2999999523,7035,WL,B,2.0
3,3.498000144958496,learn,56501.999855041504,Mon Nov 04 2024 16:01:37 GMT-0600 (Central Standard Time),406967.7000000477,A,skinenter,O,enter,233,1,1299.4000000953674,405668.2999999523,7035,WL,B,2.0
3,3.9160001277923584,learn,56083.99987220764,Mon Nov 04 2024 16:01:37 GMT-0600 (Central Standard Time),407385.5,A,s,O,s,403,1,417.59999990463257,406967.90000009537,7035,WL,B,3.0
3,4.065999984741211,learn,55934.00001525879,Mon Nov 04 2024 16:01:37 GMT-0600 (Central Standard Time),407535.2000000477,A,st,O,t,119,1,567.2999999523163,406967.90000009537,7035,WL,B,3.0
3,4.315999984741211,learn,55684.00001525879,Mon Nov 04 2024 16:01:37 GMT-0600 (Central Standard Time),407785.2000000477,A,str,O,r,215,1,817.2999999523163,406967.90000009537,7035,WL,B,3.0
3,4.516000032424927,learn,55483.99996757507,Mon Nov 04 2024 16:01:37 GMT-0600 (Central Standard Time),407985.2000000477,A,stre,O,e,163,1,1017.2999999523163,406967.90000009537,7035,WL,B,3.0
3,4.715000152587891,learn,55284.99984741211,Mon Nov 04 2024 16:01:37 GMT-0600 (Central Standard Time),408184.7999999523,A,stree,O,e,173,1,1216.8999998569489,406967.90000009537,7035,WL,B,3.0
3,4.949000120162964,learn,55050.999879837036,Mon Nov 04 2024 16:01:37 GMT-0600 (Central Standard Time),408418.2999999523,A,street,O,t,198,1,1450.3999998569489,406967.90000009537,7035,WL,B,3.0
3,5.281000137329102,learn,54718.9998626709,Mon Nov 04 2024 16:01:37 GMT-0600 (Central Standard Time),408750.59999990463,A,streetenter,O,enter,300,1,1782.6999998092651,406967.90000009537,7035,WL,B,3.0
3,6.082000017166138,learn,53917.99998283386,Mon Nov 04 2024 16:01:37 GMT-0600 (Central Standard Time),409551.09999990463,A,g,O,g,780,1,800.1999998092651,408750.90000009537,7035,WL,B,4.0
3,6.2820000648498535,learn,53717.99993515015,Mon Nov 04 2024 16:01:37 GMT-0600 (Central Standard Time),409751.2000000477,A,gr,O,r,161,1,1000.2999999523163,408750.90000009537,7035,WL,B,4.0
3,6.482000112533569,learn,53517.99988746643,Mon Nov 04 2024 16:01:37 GMT-0600 (Central Standard Time),409951.09999990463,A,gra,O,a,160,1,1200.1999998092651,408750.90000009537,7035,WL,B,4.0
3,6.697999954223633,learn,53302.00004577637,Mon Nov 04 2024 16:01:37 GMT-0600 (Central Standard Time),410167.7999999523,A,gras,O,s,177,1,1416.8999998569489,408750.90000009537,7035,WL,B,4.0
3,6.865000009536743,learn,53134.99999046326,Mon Nov 04 2024 16:01:37 GMT-0600 (Central Standard Time),410334.2999999523,A,grass,O,s,128,1,1583.3999998569489,408750.90000009537,7035,WL,B,4.0
3,7.031000137329102,learn,52968.9998626709,Mon Nov 04 2024 16:01:37 GMT-0600 (Central Standard Time),410500.09999990463,A,grassenter,O,enter,129,1,1749.1999998092651,408750.90000009537,7035,WL,B,4.0
3,7.29800009727478,learn,52701.99990272522,Mon Nov 04 2024 16:01:37 GMT-0600 (Central Standard Time),410767.40000009537,A,d,O,d,246,1,267.0,410500.40000009537,7035,WL,B,5.0
3,7.465000152587891,learn,52534.99984741211,Mon Nov 04 2024 16:01:37 GMT-0600 (Central Standard Time),410934.09999990463,A,do,O,o,129,1,433.69999980926514,410500.40000009537,7035,WL,B,5.0
3,7.648000001907349,learn,52351.99999809265,Mon Nov 04 2024 16:01:37 GMT-0600 (Central Standard Time),411117.40000009537,A,doo,O,o,154,1,617.0,410500.40000009537,7035,WL,B,5.0
3,7.815000057220459,learn,52184.99994277954,Mon Nov 04 2024 16:01:37 GMT-0600 (Central Standard Time),411284.2000000477,A,door,O,r,130,1,783.7999999523163,410500.40000009537,7035,WL,B,5.0
3,8.064000129699707,learn,51935.99987030029,Mon Nov 04 2024 16:01:37 GMT-0600 (Central Standard Time),411533.09999990463,A,doorenter,O,enter,211,1,1032.6999998092651,410500.40000009537,7035,WL,B,5.0
3,8.398000001907349,learn,51601.99999809265,Mon Nov 04 2024 16:01:37 GMT-0600 (Central Standard Time),411867.09999990463,A,w,O,w,324,1,333.7999999523163,411533.2999999523,7035,WL,B,6.0
3,8.547000169754028,learn,51452.99983024597,Mon Nov 04 2024 16:01:37 GMT-0600 (Central Standard Time),412016.7999999523,A,wi,O,i,125,1,483.5,411533.2999999523,7035,WL,B,6.0
3,8.730000019073486,learn,51269.999980926514,Mon Nov 04 2024 16:01:37 GMT-0600 (Central Standard Time),412199.7999999523,A,win,O,n,151,1,666.5,411533.2999999523,7035,WL,B,6.0
3,8.848000049591064,learn,51151.999950408936,Mon Nov 04 2024 16:01:37 GMT-0600 (Central Standard Time),412317.5,A,wind,O,d,88,1,784.2000000476837,411533.2999999523,7035,WL,B,6.0
3,9.147000074386597,learn,50852.9999256134,Mon Nov 04 2024 16:01:37 GMT-0600 (Central Standard Time),412616.7000000477,A,windo,O,o,275,1,1083.4000000953674,411533.2999999523,7035,WL,B,6.0
3,9.297000169754028,learn,50702.99983024597,Mon Nov 04 2024 16:01:37 GMT-0600 (Central Standard Time),412766.7000000477,A,window,O,w,111,1,1233.4000000953674,411533.2999999523,7035,WL,B,6.0
3,9.630000114440918,learn,50369.99988555908,Mon Nov 04 2024 16:01:37 GMT-0600 (Central Standard Time),413099.09999990463,A,windowenter,O,enter,295,1,1565.7999999523163,411533.2999999523,7035,WL,B,6.0
3,10.331000089645386,learn,49668.999910354614,Mon Nov 04 2024 16:01:37 GMT-0600 (Central Standard Time),413800.0,A,a,O,a,687,1,700.5999999046326,413099.40000009537,7035,WL,B,7.0
3,10.531000137329102,learn,49468.9998626709,Mon Nov 04 2024 16:01:37 GMT-0600 (Central Standard Time),414000.09999990463,A,ar,O,r,159,1,900.6999998092651,413099.40000009537,7035,WL,B,7.0
3,10.914000034332275,learn,49085.999965667725,Mon Nov 04 2024 16:01:37 GMT-0600 (Central Standard Time),414382.90000009537,A,arm,O,m,351,1,1283.5,413099.40000009537,7035,WL,B,7.0
3,11.712000131607056,learn,48287.999868392944,Mon Nov 04 2024 16:01:37 GMT-0600 (Central Standard Time),415181.7000000477,A,armenter,O,enter,762,1,2082.2999999523163,413099.40000009537,7035,WL,B,7.0
3,13.996000051498413,learn,46003.99994850159,Mon Nov 04 2024 16:01:37 GMT-0600 (Central Standard Time),417465.2999999523,A,w,O,w,2268,1,2283.2000000476837,415182.09999990463,7035,WL,B,8.0
3,14.128999948501587,learn,45871.00005149841,Mon Nov 04 2024 16:01:37 GMT-0600 (Central Standard Time),417598.59999990463,A,wi,O,i,102,1,2416.5,415182.09999990463,7035,WL,B,8.0
3,14.279000043869019,learn,45720.99995613098,Mon Nov 04 2024 16:01:37 GMT-0600 (Central Standard Time),417748.59999990463,A,wif,O,f,110,1,2566.5,415182.09999990463,7035,WL,B,8.0
3,14.529000043869019,learn,45470.99995613098,Mon Nov 04 2024 16:01:37 GMT-0600 (Central Standard Time),417998.5,A,wife,O,e,210,1,2816.4000000953674,415182.09999990463,7035,WL,B,8.0
3,15.028000116348267,learn,44971.99988365173,Mon Nov 04 2024 16:01:37 GMT-0600 (Central Standard Time),418497.2999999523,A,wifeenter,O,enter,473,1,3315.2000000476837,415182.09999990463,7035,WL,B,8.0
3,15.979000091552734,learn,44020.999908447266,Mon Nov 04 2024 16:01:37 GMT-0600 (Central Standard Time),419448.2000000477,A,p,O,p,936,1,950.6000001430511,418497.59999990463,7035,WL,B,9.0
3,16.361999988555908,learn,43638.00001144409,Mon Nov 04 2024 16:01:37 GMT-0600 (Central Standard Time),419831.2000000477,A,pu,O,u,362,1,1333.6000001430511,418497.59999990463,7035,WL,B,9.0
3,16.562000036239624,learn,43437.999963760376,Mon Nov 04 2024 16:01:37 GMT-0600 (Central Standard Time),420031.09999990463,A,pup,O,p,168,1,1533.5,418497.59999990463,7035,WL,B,9.0
3,16.828999996185303,learn,43171.0000038147,Mon Nov 04 2024 16:01:37 GMT-0600 (Central Standard Time),420297.90000009537,A,pupi,O,i,232,1,1800.3000001907349,418497.59999990463,7035,WL,B,9.0
3,17.046000003814697,learn,42953.9999961853,Mon Nov 04 2024 16:01:37 GMT-0600 (Central Standard Time),420514.40000009537,A,pupil,O,l,182,1,2016.8000001907349,418497.59999990463,7035,WL,B,9.0
3,17.34500002861023,learn,42654.99997138977,Mon Nov 04 2024 16:01:37 GMT-0600 (Central Standard Time),420813.40000009537,A,pupilenter,O,enter,261,1,2315.800000190735,418497.59999990463,7035,WL,B,9.0
3,19.278000116348267,learn,40721.99988365173,Mon Nov 04 2024 16:01:37 GMT-0600 (Central Standard Time),422747.0,A,c,O,c,1924,1,1933.4000000953674,420813.59999990463,7035,WL,B,10.0
3,19.39400005340576,learn,40605.99994659424,Mon Nov 04 2024 16:01:37 GMT-0600 (Central Standard Time),422862.7999999523,A,ci,O,i,91,1,2049.2000000476837,420813.59999990463,7035,WL,B,10.0
3,19.526999950408936,learn,40473.000049591064,Mon Nov 04 2024 16:01:37 GMT-0600 (Central Standard Time),422995.7999999523,A,cit,O,t,119,1,2182.2000000476837,420813.59999990463,7035,WL,B,10.0
3,19.66100001335144,learn,40338.99998664856,Mon Nov 04 2024 16:01:37 GMT-0600 (Central Standard Time),423130.09999990463,A,city,O,y,117,1,2316.5,420813.59999990463,7035,WL,B,10.0
3,20.0770001411438,learn,39922.9998588562,Mon Nov 04 2024 16:01:37 GMT-0600 (Central Standard Time),423545.7000000477,A,cityenter,O,enter,389,1,2732.100000143051,420813.59999990463,7035,WL,B,10.0
3,21.128000020980835,learn,38871.999979019165,Mon Nov 04 2024 16:01:37 GMT-0600 (Central Standard Time),424596.40000009537,A,c,O,c,1041,1,1050.5,423545.90000009537,7035,WL,B,11.0
3,21.276999950408936,learn,38723.000049591064,Mon Nov 04 2024 16:01:37 GMT-0600 (Central Standard Time),424745.7000000477,A,ca,O,a,123,1,1199.7999999523163,423545.90000009537,7035,WL,B,11.0
3,21.444000005722046,learn,38555.999994277954,Mon Nov 04 2024 16:01:37 GMT-0600 (Central Standard Time),424912.7999999523,A,cab,O,b,141,1,1366.8999998569489,423545.90000009537,7035,WL,B,11.0
3,21.66100001335144,learn,38338.99998664856,Mon Nov 04 2024 16:01:37 GMT-0600 (Central Standard Time),425129.59999990463,A,cabi,O,i,187,1,1583.6999998092651,423545.90000009537,7035,WL,B,11.0
3,21.844000101089478,learn,38155.99989891052,Mon Nov 04 2024 16:01:37 GMT-0600 (Central Standard Time),425312.5,A,cabin,O,n,158,1,1766.5999999046326,423545.90000009537,7035,WL,B,11.0
3,22.176000118255615,learn,37823.999881744385,Mon Nov 04 2024 16:01:37 GMT-0600 (Central Standard Time),425645.0,A,cabinenter,O,enter,292,1,2099.0999999046326,423545.90000009537,7035,WL,B,11.0
3,22.844000101089478,learn,37155.99989891052,Mon Nov 04 2024 16:01:37 GMT-0600 (Central Standard Time),426312.40000009537,A,l,O,l,645,1,667.1000001430511,425645.2999999523,7035,WL,B,12.0
3,23.009999990463257,learn,36990.00000953674,Mon Nov 04 2024 16:01:37 GMT-0600 (Central Standard Time),426479.2000000477,A,la,O,a,136,1,833.9000000953674,425645.2999999523,7035,WL,B,12.0
3,23.110000133514404,learn,36889.999866485596,Mon Nov 04 2024 16:01:37 GMT-0600 (Central Standard Time),426578.7999999523,A,las,O,s,64,1,933.5,425645.2999999523,7035,WL,B,12.0
3,23.3270001411438,learn,36672.9998588562,Mon Nov 04 2024 16:01:37 GMT-0600 (Central Standard Time),426795.7999999523,A,lase,O,e,185,1,1150.5,425645.2999999523,7035,WL,B,12.0
3,23.776999950408936,learn,36223.000049591064,Mon Nov 04 2024 16:01:37 GMT-0600 (Central Standard Time),427245.40000009537,A,las,O,backspace,419,1,1600.1000001430511,425645.2999999523,7035,WL,B,12.0
3,23.960000038146973,learn,36039.99996185303,Mon Nov 04 2024 16:01:37 GMT-0600 (Central Standard Time),427428.7999999523,A,la,O,backspace,155,1,1783.5,425645.2999999523,7035,WL,B,12.0
3,24.7260000705719,learn,35273.9999294281,Mon Nov 04 2024 16:01:37 GMT-0600 (Central Standard Time),428195.0,A,lak,O,k,738,1,2549.7000000476837,425645.2999999523,7035,WL,B,12.0
3,24.9760000705719,learn,35023.9999294281,Mon Nov 04 2024 16:01:37 GMT-0600 (Central Standard Time),428445.2000000477,A,lake,O,e,215,1,2799.9000000953674,425645.2999999523,7035,WL,B,12.0
3,25.192000150680542,learn,34807.99984931946,Mon Nov 04 2024 16:01:37 GMT-0600 (Central Standard Time),428660.7999999523,A,lakeenter,O,enter,176,1,3015.5,425645.2999999523,7035,WL,B,12.0
3,25.95900011062622,learn,34040.99988937378,Mon Nov 04 2024 16:01:37 GMT-0600 (Central Standard Time),429428.09999990463,A,c,O,c,749,1,766.8999998569489,428661.2000000477,7035,WL,B,13.0
3,26.12600016593933,learn,33873.99983406067,Mon Nov 04 2024 16:01:37 GMT-0600 (Central Standard Time),429594.7999999523,A,cl,O,l,132,1,933.5999999046326,428661.2000000477,7035,WL,B,13.0
3,26.325999975204468,learn,33674.00002479553,Mon Nov 04 2024 16:01:37 GMT-0600 (Central Standard Time),429794.7000000477,A,clo,O,o,173,1,1133.5,428661.2000000477,7035,WL,B,13.0
3,26.475000143051147,learn,33524.99985694885,Mon Nov 04 2024 16:01:37 GMT-0600 (Central Standard Time),429944.40000009537,A,cloc,O,c,124,1,1283.2000000476837,428661.2000000477,7035,WL,B,13.0
3,26.62600016593933,learn,33373.99983406067,Mon Nov 04 2024 16:01:37 GMT-0600 (Central Standard Time),430094.59999990463,A,clock,O,k,112,1,1433.3999998569489,428661.2000000477,7035,WL,B,13.0
3,27.391000032424927,learn,32608.999967575073,Mon Nov 04 2024 16:01:37 GMT-0600 (Central Standard Time),430860.0,A,clockenter,O,enter,728,1,2198.7999999523163,428661.2000000477,7035,WL,B,13.0
3,28.157999992370605,learn,31842.000007629395,Mon Nov 04 2024 16:01:37 GMT-0600 (Central Standard Time),431627.2999999523,A,f,O,f,748,1,767.0999999046326,430860.2000000477,7035,WL,B,14.0
3,28.259000062942505,learn,31740.999937057495,Mon Nov 04 2024 16:01:37 GMT-0600 (Central Standard Time),431727.40000009537,A,fi,O,i,61,1,867.2000000476837,430860.2000000477,7035,WL,B,14.0
3,28.35800004005432,learn,31641.99995994568,Mon Nov 04 2024 16:01:37 GMT-0600 (Central Standard Time),431827.2999999523,A,fir,O,r,71,1,967.0999999046326,430860.2000000477,7035,WL,B,14.0
3,28.475000143051147,learn,31524.999856948853,Mon Nov 04 2024 16:01:37 GMT-0600 (Central Standard Time),431944.0,A,fire,O,e,88,1,1083.7999999523163,430860.2000000477,7035,WL,B,14.0
3,28.756999969482422,learn,31243.000030517578,Mon Nov 04 2024 16:01:37 GMT-0600 (Central Standard Time),432226.2000000477,A,fireenter,O,enter,255,1,1366.0,430860.2000000477,7035,WL,B,14.0
3,36.43900012969971,learn,23560.999870300293,Mon Nov 04 2024 16:01:37 GMT-0600 (Central Standard Time),439908.2000000477,A,c,O,c,7672,1,7681.700000047684,432226.5,7035,WL,B,15.0
3,36.555999994277954,learn,23444.000005722046,Mon Nov 04 2024 16:01:37 GMT-0600 (Central Standard Time),440025.0,A,cl,O,l,91,1,7798.5,432226.5,7035,WL,B,15.0
3,36.7720000743866,learn,23227.999925613403,Mon Nov 04 2024 16:01:37 GMT-0600 (Central Standard Time),440240.90000009537,A,clo,O,o,181,1,8014.400000095367,432226.5,7035,WL,B,15.0
3,36.83800005912781,learn,23161.999940872192,Mon Nov 04 2024 16:01:37 GMT-0600 (Central Standard Time),440307.2000000477,A,cloc,O,c,40,1,8080.700000047684,432226.5,7035,WL,B,15.0
3,36.98900008201599,learn,23010.99991798401,Mon Nov 04 2024 16:01:37 GMT-0600 (Central Standard Time),440457.59999990463,A,clock,O,k,126,1,8231.099999904633,432226.5,7035,WL,B,15.0
3,37.28800010681152,learn,22711.999893188477,Mon Nov 04 2024 16:01:37 GMT-0600 (Central Standard Time),440756.7000000477,A,clockenter,O,enter,276,1,8530.200000047684,432226.5,7035,WL,B,15.0
4,1.0490000247955322,learn,58950.99997520447,Mon Nov 04 2024 16:01:37 GMT-0600 (Central Standard Time),508818.5,A,s,O,s,1015,1,1048.7999999523163,507769.7000000477,7035,WL,B,1.0
4,1.315999984741211,learn,58684.00001525879,Mon Nov 04 2024 16:01:37 GMT-0600 (Central Standard Time),509085.2000000477,A,st,O,t,229,1,1315.5,507769.7000000477,7035,WL,B,1.0
4,1.5329999923706055,learn,58467.000007629395,Mon Nov 04 2024 16:01:37 GMT-0600 (Central Standard Time),509301.7999999523,A,sta,O,a,179,1,1532.0999999046326,507769.7000000477,7035,WL,B,1.0
4,1.6319999694824219,learn,58368.00003051758,Mon Nov 04 2024 16:01:37 GMT-0600 (Central Standard Time),509401.5,A,star,O,r,72,1,1631.7999999523163,507769.7000000477,7035,WL,B,1.0
4,2.247999906539917,learn,57752.00009346008,Mon Nov 04 2024 16:01:37 GMT-0600 (Central Standard Time),510017.2999999523,A,starenter,O,enter,589,1,2247.5999999046326,507769.7000000477,7035,WL,B,1.0
4,3.0160000324249268,learn,56983.99996757507,Mon Nov 04 2024 16:01:37 GMT-0600 (Central Standard Time),510784.7999999523,A,p,O,p,752,1,767.2000000476837,510017.59999990463,7035,WL,B,2.0
4,3.2649998664855957,learn,56735.000133514404,Mon Nov 04 2024 16:01:37 GMT-0600 (Central Standard Time),511034.7999999523,A,pi,O,i,221,1,1017.2000000476837,510017.59999990463,7035,WL,B,2.0
4,3.431999921798706,learn,56568.000078201294,Mon Nov 04 2024 16:01:37 GMT-0600 (Central Standard Time),511200.90000009537,A,pip,O,p,140,1,1183.3000001907349,510017.59999990463,7035,WL,B,2.0
4,3.615000009536743,learn,56384.99999046326,Mon Nov 04 2024 16:01:37 GMT-0600 (Central Standard Time),511384.40000009537,A,pipe,O,e,143,1,1366.8000001907349,510017.59999990463,7035,WL,B,2.0
4,3.9639999866485596,learn,56036.00001335144,Mon Nov 04 2024 16:01:37 GMT-0600 (Central Standard Time),511733.2999999523,A,pipeenter,O,enter,317,1,1715.7000000476837,510017.59999990463,7035,WL,B,2.0
4,4.513999938964844,learn,55486.000061035156,Mon Nov 04 2024 16:01:37 GMT-0600 (Central Standard Time),512283.2000000477,A,s,O,s,539,1,549.7000000476837,511733.5,7035,WL,B,3.0
4,4.681999921798706,learn,55318.000078201294,Mon Nov 04 2024 16:01:37 GMT-0600 (Central Standard Time),512450.7999999523,A,sk,O,k,158,1,717.2999999523163,511733.5,7035,WL,B,3.0
4,4.865000009536743,learn,55134.99999046326,Mon Nov 04 2024 16:01:37 GMT-0600 (Central Standard Time),512634.0,A,ski,O,i,157,1,900.5,511733.5,7035,WL,B,3.0
4,5.047999858856201,learn,54952.0001411438,Mon Nov 04 2024 16:01:37 GMT-0600 (Central Standard Time),512817.2999999523,A,skin,O,n,152,1,1083.7999999523163,511733.5,7035,WL,B,3.0
4,5.329999923706055,learn,54670.000076293945,Mon Nov 04 2024 16:01:37 GMT-0600 (Central Standard Time),513099.59999990463,A,skinenter,O,enter,257,1,1366.0999999046326,511733.5,7035,WL,B,3.0
4,5.613999843597412,learn,54386.00015640259,Mon Nov 04 2024 16:01:37 GMT-0600 (Central Standard Time),513382.7999999523,A,s,O,s,277,1,283.0,513099.7999999523,7035,WL,B,4.0
4,5.763000011444092,learn,54236.99998855591,Mon Nov 04 2024 16:01:37 GMT-0600 (Central Standard Time),513532.7000000477,A,st,O,t,136,1,432.90000009536743,513099.7999999523,7035,WL,B,4.0
4,6.0309998989105225,learn,53969.00010108948,Mon Nov 04 2024 16:01:37 GMT-0600 (Central Standard Time),513800.7000000477,A,str,O,r,261,1,700.9000000953674,513099.7999999523,7035,WL,B,4.0
4,6.303999900817871,learn,53696.00009918213,Mon Nov 04 2024 16:01:37 GMT-0600 (Central Standard Time),514073.2000000477,A,stre,O,e,240,1,973.4000000953674,513099.7999999523,7035,WL,B,4.0
4,6.5309998989105225,learn,53469.00010108948,Mon Nov 04 2024 16:01:37 GMT-0600 (Central Standard Time),514300.0,A,stree,O,e,199,1,1200.2000000476837,513099.7999999523,7035,WL,B,4.0
4,6.680999994277954,learn,53319.000005722046,Mon Nov 04 2024 16:01:37 GMT-0600 (Central Standard Time),514449.7999999523,A,street,O,t,124,1,1350.0,513099.7999999523,7035,WL,B,4.0
4,7.013000011444092,learn,52986.99998855591,Mon Nov 04 2024 16:01:37 GMT-0600 (Central Standard Time),514782.2999999523,A,streetenter,O,enter,300,1,1682.5,513099.7999999523,7035,WL,B,4.0
4,7.496999979019165,learn,52503.000020980835,Mon Nov 04 2024 16:01:37 GMT-0600 (Central Standard Time),515266.59999990463,A,g,O,g,468,1,484.0,514782.59999990463,7035,WL,B,5.0
4,7.679999828338623,learn,52320.00017166138,Mon Nov 04 2024 16:01:37 GMT-0600 (Central Standard Time),515449.40000009537,A,gr,O,r,158,1,666.8000001907349,514782.59999990463,7035,WL,B,5.0
4,7.863999843597412,learn,52136.00015640259,Mon Nov 04 2024 16:01:37 GMT-0600 (Central Standard Time),515633.2999999523,A,gra,O,a,144,1,850.7000000476837,514782.59999990463,7035,WL,B,5.0
4,8.063999891281128,learn,51936.00010871887,Mon Nov 04 2024 16:01:37 GMT-0600 (Central Standard Time),515832.90000009537,A,gras,O,s,168,1,1050.3000001907349,514782.59999990463,7035,WL,B,5.0
4,8.246999979019165,learn,51753.000020980835,Mon Nov 04 2024 16:01:37 GMT-0600 (Central Standard Time),516016.09999990463,A,grass,O,s,143,1,1233.5,514782.59999990463,7035,WL,B,5.0
4,8.46399998664856,learn,51536.00001335144,Mon Nov 04 2024 16:01:37 GMT-0600 (Central Standard Time),516232.90000009537,A,grassenter,O,enter,191,1,1450.3000001907349,514782.59999990463,7035,WL,B,5.0
4,8.996999979019165,learn,51003.000020980835,Mon Nov 04 2024 16:01:37 GMT-0600 (Central Standard Time),516766.09999990463,A,d,O,d,521,1,532.8999998569489,516233.2000000477,7035,WL,B,6.0
4,9.162999868392944,learn,50837.000131607056,Mon Nov 04 2024 16:01:37 GMT-0600 (Central Standard Time),516932.7000000477,A,do,O,o,138,1,699.5,516233.2000000477,7035,WL,B,6.0
4,9.346999883651733,learn,50653.00011634827,Mon Nov 04 2024 16:01:37 GMT-0600 (Central Standard Time),517115.90000009537,A,doo,O,o,155,1,882.7000000476837,516233.2000000477,7035,WL,B,6.0
4,9.462999820709229,learn,50537.00017929077,Mon Nov 04 2024 16:01:37 GMT-0600 (Central Standard Time),517232.7000000477,A,door,O,r,92,1,999.5,516233.2000000477,7035,WL,B,6.0
4,9.712999820709229,learn,50287.00017929077,Mon Nov 04 2024 16:01:37 GMT-0600 (Central Standard Time),517482.59999990463,A,doorenter,O,enter,222,1,1249.3999998569489,516233.2000000477,7035,WL,B,6.0
4,10.162999868392944,learn,49837.000131607056,Mon Nov 04 2024 16:01:37 GMT-0600 (Central Standard Time),517932.40000009537,A,w,O,w,440,1,449.60000014305115,517482.7999999523,7035,WL,B,7.0
4,10.312999963760376,learn,49687.000036239624,Mon Nov 04 2024 16:01:37 GMT-0600 (Central Standard Time),518082.09999990463,A,wi,O,i,116,1,599.2999999523163,517482.7999999523,7035,WL,B,7.0
4,10.629999876022339,learn,49370.00012397766,Mon Nov 04 2024 16:01:37 GMT-0600 (Central Standard Time),518398.7999999523,A,win,O,n,285,1,916.0,517482.7999999523,7035,WL,B,7.0
4,10.796000003814697,learn,49203.9999961853,Mon Nov 04 2024 16:01:37 GMT-0600 (Central Standard Time),518565.59999990463,A,wind,O,d,132,1,1082.7999999523163,517482.7999999523,7035,WL,B,7.0
4,11.029000043869019,learn,48970.99995613098,Mon Nov 04 2024 16:01:37 GMT-0600 (Central Standard Time),518798.7999999523,A,windo,O,o,194,1,1316.0,517482.7999999523,7035,WL,B,7.0
4,11.145999908447266,learn,48854.000091552734,Mon Nov 04 2024 16:01:37 GMT-0600 (Central Standard Time),518915.40000009537,A,window,O,w,86,1,1432.6000001430511,517482.7999999523,7035,WL,B,7.0
4,11.59500002861023,learn,48404.99997138977,Mon Nov 04 2024 16:01:37 GMT-0600 (Central Standard Time),519364.2000000477,A,windowenter,O,enter,411,1,1881.4000000953674,517482.7999999523,7035,WL,B,7.0
4,12.661999940872192,learn,47338.00005912781,Mon Nov 04 2024 16:01:37 GMT-0600 (Central Standard Time),520431.5,A,a,O,a,1046,1,1067.0,519364.5,7035,WL,B,8.0
4,12.812000036239624,learn,47187.999963760376,Mon Nov 04 2024 16:01:37 GMT-0600 (Central Standard Time),520581.2000000477,A,ar,O,r,121,1,1216.7000000476837,519364.5,7035,WL,B,8.0
4,13.044999837875366,learn,46955.000162124634,Mon Nov 04 2024 16:01:37 GMT-0600 (Central Standard Time),520814.7000000477,A,arm,O,m,195,1,1450.2000000476837,519364.5,7035,WL,B,8.0
4,13.378000020980835,learn,46621.999979019165,Mon Nov 04 2024 16:01:37 GMT-0600 (Central Standard Time),521147.0,A,armenter,O,enter,305,1,1782.5,519364.5,7035,WL,B,8.0
4,14.562000036239624,learn,45437.999963760376,Mon Nov 04 2024 16:01:37 GMT-0600 (Central Standard Time),522331.0,A,c,O,c,1167,1,1183.7999999523163,521147.2000000477,7035,WL,B,9.0
4,14.67799997329712,learn,45322.00002670288,Mon Nov 04 2024 16:01:37 GMT-0600 (Central Standard Time),522447.5,A,ci,O,i,76,1,1300.2999999523163,521147.2000000477,7035,WL,B,9.0
4,14.827999830245972,learn,45172.00016975403,Mon Nov 04 2024 16:01:37 GMT-0600 (Central Standard Time),522597.5,A,cit,O,t,124,1,1450.2999999523163,521147.2000000477,7035,WL,B,9.0
4,14.92799997329712,learn,45072.00002670288,Mon Nov 04 2024 16:01:37 GMT-0600 (Central Standard Time),522697.0,A,city,O,y,65,1,1549.7999999523163,521147.2000000477,7035,WL,B,9.0
4,15.24399995803833,learn,44756.00004196167,Mon Nov 04 2024 16:01:37 GMT-0600 (Central Standard Time),523013.09999990463,A,cityenter,O,enter,276,1,1865.8999998569489,521147.2000000477,7035,WL,B,9.0
4,15.628000020980835,learn,44371.999979019165,Mon Nov 04 2024 16:01:37 GMT-0600 (Central Standard Time),523397.40000009537,A,w,O,w,364,1,384.10000014305115,523013.2999999523,7035,WL,B,10.0
4,15.760999917984009,learn,44239.00008201599,Mon Nov 04 2024 16:01:37 GMT-0600 (Central Standard Time),523530.2999999523,A,wi,O,i,99,1,517.0,523013.2999999523,7035,WL,B,10.0
4,15.894000053405762,learn,44105.99994659424,Mon Nov 04 2024 16:01:37 GMT-0600 (Central Standard Time),523663.7000000477,A,wif,O,f,98,1,650.4000000953674,523013.2999999523,7035,WL,B,10.0
4,16.043999910354614,learn,43956.000089645386,Mon Nov 04 2024 16:01:37 GMT-0600 (Central Standard Time),523813.7999999523,A,wife,O,e,112,1,800.5,523013.2999999523,7035,WL,B,10.0
4,16.276999950408936,learn,43723.000049591064,Mon Nov 04 2024 16:01:37 GMT-0600 (Central Standard Time),524046.0,A,wifeenter,O,enter,202,1,1032.7000000476837,523013.2999999523,7035,WL,B,10.0
4,17.210999965667725,learn,42789.000034332275,Mon Nov 04 2024 16:01:37 GMT-0600 (Central Standard Time),524980.5999999046,A,p,O,p,916,1,934.3999998569489,524046.2000000477,7035,WL,B,11.0
4,17.526999950408936,learn,42473.000049591064,Mon Nov 04 2024 16:01:37 GMT-0600 (Central Standard Time),525296.5999999046,A,pu,O,u,283,1,1250.3999998569489,524046.2000000477,7035,WL,B,11.0
4,17.793999910354614,learn,42206.000089645386,Mon Nov 04 2024 16:01:37 GMT-0600 (Central Standard Time),525563.2000000477,A,pup,O,p,234,1,1517.0,524046.2000000477,7035,WL,B,11.0
4,18.07699990272522,learn,41923.00009727478,Mon Nov 04 2024 16:01:37 GMT-0600 (Central Standard Time),525846.4000000954,A,pupi,O,i,254,1,1800.2000000476837,524046.2000000477,7035,WL,B,11.0
4,18.30999994277954,learn,41690.00005722046,Mon Nov 04 2024 16:01:37 GMT-0600 (Central Standard Time),526079.2000000477,A,pupil,O,l,201,1,2033.0,524046.2000000477,7035,WL,B,11.0
4,19.39199995994568,learn,40608.00004005432,Mon Nov 04 2024 16:01:37 GMT-0600 (Central Standard Time),527161.5999999046,A,pupilenter,O,enter,1064,1,3115.399999856949,524046.2000000477,7035,WL,B,11.0
4,20.45899987220764,learn,39541.00012779236,Mon Nov 04 2024 16:01:37 GMT-0600 (Central Standard Time),528228.4000000954,A,c,O,c,1057,1,1066.4000000953674,527162.0,7035,WL,B,12.0
4,20.575999975204468,learn,39424.00002479553,Mon Nov 04 2024 16:01:37 GMT-0600 (Central Standard Time),528345.4000000954,A,cl,O,l,101,1,1183.4000000953674,527162.0,7035,WL,B,12.0
4,20.825999975204468,learn,39174.00002479553,Mon Nov 04 2024 16:01:37 GMT-0600 (Central Standard Time),528595.2999999523,A,cli,O,i,223,1,1433.2999999523163,527162.0,7035,WL,B,12.0
4,21.22599983215332,learn,38774.00016784668,Mon Nov 04 2024 16:01:37 GMT-0600 (Central Standard Time),528995.4000000954,A,cl,O,backspace,375,1,1833.4000000953674,527162.0,7035,WL,B,12.0
4,21.692999839782715,learn,38307.000160217285,Mon Nov 04 2024 16:01:37 GMT-0600 (Central Standard Time),529462.0,A,cli,O,i,435,1,2300.0,527162.0,7035,WL,B,12.0
4,22.14299988746643,learn,37857.00011253357,Mon Nov 04 2024 16:01:37 GMT-0600 (Central Standard Time),529911.9000000954,A,cl,O,backspace,419,1,2749.9000000953674,527162.0,7035,WL,B,12.0
4,22.774999856948853,learn,37225.00014305115,Mon Nov 04 2024 16:01:37 GMT-0600 (Central Standard Time),530544.5999999046,A,clo,O,o,609,1,3382.5999999046326,527162.0,7035,WL,B,12.0
4,22.941999912261963,learn,37058.00008773804,Mon Nov 04 2024 16:01:37 GMT-0600 (Central Standard Time),530711.5,A,cloc,O,c,128,1,3549.5,527162.0,7035,WL,B,12.0
4,23.04199981689453,learn,36958.00018310547,Mon Nov 04 2024 16:01:37 GMT-0600 (Central Standard Time),530811.0,A,clock,O,k,72,1,3649.0,527162.0,7035,WL,B,12.0
4,23.590999841690063,learn,36409.00015830994,Mon Nov 04 2024 16:01:37 GMT-0600 (Central Standard Time),531360.2999999523,A,clockenter,O,enter,516,1,4198.299999952316,527162.0,7035,WL,B,12.0
4,24.79199981689453,learn,35208.00018310547,Mon Nov 04 2024 16:01:37 GMT-0600 (Central Standard Time),532560.9000000954,A,c,O,c,1185,1,1200.4000000953674,531360.5,7035,WL,B,13.0
4,24.941999912261963,learn,35058.00008773804,Mon Nov 04 2024 16:01:37 GMT-0600 (Central Standard Time),532710.9000000954,A,ca,O,a,111,1,1350.4000000953674,531360.5,7035,WL,B,13.0
4,25.075000047683716,learn,34924.999952316284,Mon Nov 04 2024 16:01:37 GMT-0600 (Central Standard Time),532844.2999999523,A,cab,O,b,106,1,1483.7999999523163,531360.5,7035,WL,B,13.0
4,25.274999856948853,learn,34725.00014305115,Mon Nov 04 2024 16:01:37 GMT-0600 (Central Standard Time),533044.0999999046,A,cabi,O,i,171,1,1683.5999999046326,531360.5,7035,WL,B,13.0
4,25.45799994468689,learn,34542.00005531311,Mon Nov 04 2024 16:01:37 GMT-0600 (Central Standard Time),533227.2999999523,A,cabin,O,n,148,1,1866.7999999523163,531360.5,7035,WL,B,13.0
4,25.756999969482422,learn,34243.00003051758,Mon Nov 04 2024 16:01:37 GMT-0600 (Central Standard Time),533526.2000000477,A,cabinenter,O,enter,260,1,2165.7000000476837,531360.5,7035,WL,B,13.0
4,26.19099998474121,learn,33809.00001525879,Mon Nov 04 2024 16:01:37 GMT-0600 (Central Standard Time),533960.7000000477,A,l,O,l,427,1,434.2000000476837,533526.5,7035,WL,B,14.0
4,26.391000032424927,learn,33608.99996757507,Mon Nov 04 2024 16:01:37 GMT-0600 (Central Standard Time),534160.0999999046,A,la,O,a,160,1,633.5999999046326,533526.5,7035,WL,B,14.0
4,26.507999897003174,learn,33492.000102996826,Mon Nov 04 2024 16:01:37 GMT-0600 (Central Standard Time),534277.0,A,las,O,s,81,1,750.5,533526.5,7035,WL,B,14.0
4,26.62399983406067,learn,33376.00016593933,Mon Nov 04 2024 16:01:37 GMT-0600 (Central Standard Time),534393.5,A,lask,O,k,84,1,867.0,533526.5,7035,WL,B,14.0
4,26.990999937057495,learn,33009.000062942505,Mon Nov 04 2024 16:01:37 GMT-0600 (Central Standard Time),534760.2999999523,A,las,O,backspace,335,1,1233.7999999523163,533526.5,7035,WL,B,14.0
4,27.156999826431274,learn,32843.000173568726,Mon Nov 04 2024 16:01:37 GMT-0600 (Central Standard Time),534926.7000000477,A,la,O,backspace,128,1,1400.2000000476837,533526.5,7035,WL,B,14.0
4,27.406999826431274,learn,32593.000173568726,Mon Nov 04 2024 16:01:37 GMT-0600 (Central Standard Time),535176.5999999046,A,lak,O,k,221,1,1650.0999999046326,533526.5,7035,WL,B,14.0
4,27.573999881744385,learn,32426.000118255615,Mon Nov 04 2024 16:01:37 GMT-0600 (Central Standard Time),535343.2999999523,A,lake,O,e,125,1,1816.7999999523163,533526.5,7035,WL,B,14.0
4,27.740000009536743,learn,32259.999990463257,Mon Nov 04 2024 16:01:37 GMT-0600 (Central Standard Time),535508.9000000954,A,lakeenter,O,enter,136,1,1982.4000000953674,533526.5,7035,WL,B,14.0
4,28.37399983406067,learn,31626.00016593933,Mon Nov 04 2024 16:01:37 GMT-0600 (Central Standard Time),536143.0999999046,A,f,O,f,622,1,633.8999998569489,535509.2000000477,7035,WL,B,15.0
4,28.5239999294281,learn,31476.0000705719,Mon Nov 04 2024 16:01:37 GMT-0600 (Central Standard Time),536293.0,A,fi,O,i,112,1,783.7999999523163,535509.2000000477,7035,WL,B,15.0
4,28.62399983406067,learn,31376.00016593933,Mon Nov 04 2024 16:01:37 GMT-0600 (Central Standard Time),536393.0,A,fir,O,r,67,1,883.7999999523163,535509.2000000477,7035,WL,B,15.0
4,28.806999921798706,learn,31193.000078201294,Mon Nov 04 2024 16:01:37 GMT-0600 (Central Standard Time),536576.2000000477,A,fire,O,e,152,1,1067.0,535509.2000000477,7035,WL,B,15.0
4,29.188999891281128,learn,30811.000108718872,Mon Nov 04 2024 16:01:37 GMT-0600 (Central Standard Time),536958.5,A,fireenter,O,enter,353,1,1449.2999999523163,535509.2000000477,7035,WL,B,15.0
5,1.7819998264312744,learn,60000.0,Mon Nov 04 2024 16:01:37 GMT-0600 (Central Standard Time),606602.5999999046,A,s,O,s,1765,1,1782.3999998569489,604820.2000000477,7035,WL,B,1.0
5,2.0329999923706055,learn,60000.0,Mon Nov 04 2024 16:01:37 GMT-0600 (Central Standard Time),606853.4000000954,A,st,O,t,224,1,2033.2000000476837,604820.2000000477,7035,WL,B,1.0
5,2.382999897003174,learn,60000.0,Mon Nov 04 2024 16:01:37 GMT-0600 (Central Standard Time),607202.7999999523,A,str,O,r,324,1,2382.5999999046326,604820.2000000477,7035,WL,B,1.0
5,2.565999984741211,learn,60000.0,Mon Nov 04 2024 16:01:37 GMT-0600 (Central Standard Time),607386.2000000477,A,stre,O,e,153,1,2566.0,604820.2000000477,7035,WL,B,1.0
5,3.048999786376953,learn,60000.0,Mon Nov 04 2024 16:01:37 GMT-0600 (Central Standard Time),607869.2999999523,A,stret,O,t,455,1,3049.0999999046326,604820.2000000477,7035,WL,B,1.0
5,3.615999937057495,learn,60000.0,Mon Nov 04 2024 16:01:37 GMT-0600 (Central Standard Time),608436.0,A,stre,O,backspace,538,1,3615.7999999523163,604820.2000000477,7035,WL,B,1.0
5,3.7319998741149902,learn,60000.0,Mon Nov 04 2024 16:01:37 GMT-0600 (Central Standard Time),608552.5999999046,A,stree,O,e,83,1,3732.399999856949,604820.2000000477,7035,WL,B,1.0
5,3.865999937057495,learn,60000.0,Mon Nov 04 2024 16:01:37 GMT-0600 (Central Standard Time),608685.7999999523,A,street,O,t,107,1,3865.5999999046326,604820.2000000477,7035,WL,B,1.0
5,4.2149999141693115,learn,60000.0,Mon Nov 04 2024 16:01:37 GMT-0600 (Central Standard Time),609034.7000000477,A,streetenter,O,enter,314,1,4214.5,604820.2000000477,7035,WL,B,1.0
5,5.148999929428101,learn,60000.0,Mon Nov 04 2024 16:01:37 GMT-0600 (Central Standard Time),609968.7999999523,A,g,O,g,919,1,933.8999998569489,609034.9000000954,7035,WL,B,2.0
5,5.381999969482422,learn,60000.0,Mon Nov 04 2024 16:01:37 GMT-0600 (Central Standard Time),610201.7999999523,A,gr,O,r,207,1,1166.8999998569489,609034.9000000954,7035,WL,B,2.0
5,5.614999771118164,learn,60000.0,Mon Nov 04 2024 16:01:37 GMT-0600 (Central Standard Time),610435.2000000477,A,gra,O,a,209,1,1400.2999999523163,609034.9000000954,7035,WL,B,2.0
5,5.831999778747559,learn,60000.0,Mon Nov 04 2024 16:01:37 GMT-0600 (Central Standard Time),610651.9000000954,A,gras,O,s,189,1,1617.0,609034.9000000954,7035,WL,B,2.0
5,6.047999858856201,learn,60000.0,Mon Nov 04 2024 16:01:37 GMT-0600 (Central Standard Time),610868.4000000954,A,grass,O,s,193,1,1833.5,609034.9000000954,7035,WL,B,2.0
5,6.263999938964844,learn,60000.0,Mon Nov 04 2024 16:01:37 GMT-0600 (Central Standard Time),611084.0,A,grassenter,O,enter,187,1,2049.0999999046326,609034.9000000954,7035,WL,B,2.0
5,6.597999811172485,learn,60000.0,Mon Nov 04 2024 16:01:37 GMT-0600 (Central Standard Time),611418.0999999046,A,d,O,d,317,1,333.89999985694885,611084.2000000477,7035,WL,B,3.0
5,6.7149999141693115,learn,60000.0,Mon Nov 04 2024 16:01:37 GMT-0600 (Central Standard Time),611535.0,A,do,O,o,87,1,450.7999999523163,611084.2000000477,7035,WL,B,3.0
5,6.930999994277954,learn,60000.0,Mon Nov 04 2024 16:01:37 GMT-0600 (Central Standard Time),611751.4000000954,A,doo,O,o,184,1,667.2000000476837,611084.2000000477,7035,WL,B,3.0
5,7.114999771118164,learn,60000.0,Mon Nov 04 2024 16:01:37 GMT-0600 (Central Standard Time),611934.7999999523,A,door,O,r,153,1,850.5999999046326,611084.2000000477,7035,WL,B,3.0
5,7.546999931335449,learn,60000.0,Mon Nov 04 2024 16:01:37 GMT-0600 (Central Standard Time),612366.9000000954,A,doorenter,O,enter,401,1,1282.7000000476837,611084.2000000477,7035,WL,B,3.0
5,7.997999906539917,learn,60000.0,Mon Nov 04 2024 16:01:37 GMT-0600 (Central Standard Time),612818.0,A,w,O,w,435,1,450.7999999523163,612367.2000000477,7035,WL,B,4.0
5,8.13099980354309,learn,60000.0,Mon Nov 04 2024 16:01:37 GMT-0600 (Central Standard Time),612951.0,A,wi,O,i,94,1,583.7999999523163,612367.2000000477,7035,WL,B,4.0
5,8.313999891281128,learn,60000.0,Mon Nov 04 2024 16:01:37 GMT-0600 (Central Standard Time),613134.2999999523,A,win,O,n,144,1,767.0999999046326,612367.2000000477,7035,WL,B,4.0
5,8.413999795913696,learn,60000.0,Mon Nov 04 2024 16:01:37 GMT-0600 (Central Standard Time),613234.0999999046,A,wind,O,d,66,1,866.8999998569489,612367.2000000477,7035,WL,B,4.0
5,8.596999883651733,learn,60000.0,Mon Nov 04 2024 16:01:37 GMT-0600 (Central Standard Time),613417.5999999046,A,windo,O,o,156,1,1050.3999998569489,612367.2000000477,7035,WL,B,4.0
5,8.730999946594238,learn,60000.0,Mon Nov 04 2024 16:01:37 GMT-0600 (Central Standard Time),613551.5999999046,A,window,O,w,96,1,1184.3999998569489,612367.2000000477,7035,WL,B,4.0
5,8.979999780654907,learn,60000.0,Mon Nov 04 2024 16:01:37 GMT-0600 (Central Standard Time),613799.9000000954,A,windowenter,O,enter,224,1,1432.7000000476837,612367.2000000477,7035,WL,B,4.0
5,9.996999979019165,learn,60000.0,Mon Nov 04 2024 16:01:37 GMT-0600 (Central Standard Time),614816.7000000477,A,a,O,a,1010,1,1016.7000000476837,613800.0,7035,WL,B,5.0
5,10.196999788284302,learn,60000.0,Mon Nov 04 2024 16:01:37 GMT-0600 (Central Standard Time),615017.0999999046,A,ar,O,r,176,1,1217.0999999046326,613800.0,7035,WL,B,5.0
5,10.662999868392944,learn,60000.0,Mon Nov 04 2024 16:01:37 GMT-0600 (Central Standard Time),615483.7000000477,A,arm,O,m,439,1,1683.7000000476837,613800.0,7035,WL,B,5.0
5,10.911999940872192,learn,60000.0,Mon Nov 04 2024 16:01:37 GMT-0600 (Central Standard Time),615732.5,A,armenter,O,enter,212,1,1932.5,613800.0,7035,WL,B,5.0
5,11.129999876022339,learn,60000.0,Mon Nov 04 2024 16:01:37 GMT-0600 (Central Standard Time),615950.0999999046,A,s,O,s,198,1,217.29999995231628,615732.7999999523,7035,WL,B,6.0
5,11.562999963760376,learn,60000.0,Mon Nov 04 2024 16:01:37 GMT-0600 (Central Standard Time),616383.2999999523,A,st,O,t,401,1,650.5,615732.7999999523,7035,WL,B,6.0
5,11.762999773025513,learn,60000.0,Mon Nov 04 2024 16:01:37 GMT-0600 (Central Standard Time),616583.2000000477,A,sta,O,a,170,1,850.4000000953674,615732.7999999523,7035,WL,B,6.0
5,11.895999908447266,learn,60000.0,Mon Nov 04 2024 16:01:37 GMT-0600 (Central Standard Time),616716.5999999046,A,star,O,r,98,1,983.7999999523163,615732.7999999523,7035,WL,B,6.0
5,12.361999988555908,learn,60000.0,Mon Nov 04 2024 16:01:37 GMT-0600 (Central Standard Time),617182.0,A,starenter,O,enter,425,1,1449.2000000476837,615732.7999999523,7035,WL,B,6.0
5,13.444999933242798,learn,60000.0,Mon Nov 04 2024 16:01:37 GMT-0600 (Central Standard Time),618265.7000000477,A,s,O,s,1076,1,1083.4000000953674,617182.2999999523,7035,WL,B,7.0
5,13.595999956130981,learn,60000.0,Mon Nov 04 2024 16:01:37 GMT-0600 (Central Standard Time),618415.7999999523,A,sk,O,k,111,1,1233.5,617182.2999999523,7035,WL,B,7.0
5,13.77899980545044,learn,60000.0,Mon Nov 04 2024 16:01:37 GMT-0600 (Central Standard Time),618599.0999999046,A,ski,O,i,142,1,1416.7999999523163,617182.2999999523,7035,WL,B,7.0
5,13.995999813079834,learn,60000.0,Mon Nov 04 2024 16:01:37 GMT-0600 (Central Standard Time),618815.7999999523,A,skin,O,n,185,1,1633.5,617182.2999999523,7035,WL,B,7.0
5,14.293999910354614,learn,60000.0,Mon Nov 04 2024 16:01:37 GMT-0600 (Central Standard Time),619114.5999999046,A,skinenter,O,enter,264,1,1932.2999999523163,617182.2999999523,7035,WL,B,7.0
5,15.461999893188477,learn,60000.0,Mon Nov 04 2024 16:01:37 GMT-0600 (Central Standard Time),620281.7999999523,A,l,O,l,1152,1,1166.8999998569489,619114.9000000954,7035,WL,B,8.0
5,15.577999830245972,learn,60000.0,Mon Nov 04 2024 16:01:37 GMT-0600 (Central Standard Time),620398.5,A,la,O,a,78,1,1283.5999999046326,619114.9000000954,7035,WL,B,8.0
5,16.527999877929688,learn,60000.0,Mon Nov 04 2024 16:01:37 GMT-0600 (Central Standard Time),621348.2999999523,A,lak,O,k,921,1,2233.399999856949,619114.9000000954,7035,WL,B,8.0
5,16.82799983024597,learn,60000.0,Mon Nov 04 2024 16:01:37 GMT-0600 (Central Standard Time),621648.0,A,lake,O,e,264,1,2533.0999999046326,619114.9000000954,7035,WL,B,8.0
5,17.026999950408936,learn,60000.0,Mon Nov 04 2024 16:01:37 GMT-0600 (Central Standard Time),621846.9000000954,A,lakeenter,O,enter,180,1,2732.0,619114.9000000954,7035,WL,B,8.0
5,17.394999980926514,learn,60000.0,Mon Nov 04 2024 16:01:37 GMT-0600 (Central Standard Time),622214.9000000954,A,c,O,c,346,1,367.7000000476837,621847.2000000477,7035,WL,B,9.0
5,17.51099991798401,learn,60000.0,Mon Nov 04 2024 16:01:37 GMT-0600 (Central Standard Time),622331.2999999523,A,ca,O,a,92,1,484.09999990463257,621847.2000000477,7035,WL,B,9.0
5,17.694000005722046,learn,60000.0,Mon Nov 04 2024 16:01:37 GMT-0600 (Central Standard Time),622514.5999999046,A,cab,O,b,157,1,667.3999998569489,621847.2000000477,7035,WL,B,9.0
5,19.32699990272522,learn,60000.0,Mon Nov 04 2024 16:01:37 GMT-0600 (Central Standard Time),624147.4000000954,A,cabi,O,i,1608,1,2300.2000000476837,621847.2000000477,7035,WL,B,9.0
5,19.49399995803833,learn,60000.0,Mon Nov 04 2024 16:01:37 GMT-0600 (Central Standard Time),624314.0,A,cabin,O,n,133,1,2466.7999999523163,621847.2000000477,7035,WL,B,9.0
5,20.45899987220764,learn,60000.0,Mon Nov 04 2024 16:01:37 GMT-0600 (Central Standard Time),625279.4000000954,A,cabinenter,O,enter,933,1,3432.2000000476837,621847.2000000477,7035,WL,B,9.0
5,21.009999990463257,learn,60000.0,Mon Nov 04 2024 16:01:37 GMT-0600 (Central Standard Time),625830.0,A,w,O,w,539,1,550.2000000476837,625279.7999999523,7035,WL,B,10.0
5,21.176999807357788,learn,60000.0,Mon Nov 04 2024 16:01:37 GMT-0600 (Central Standard Time),625996.7999999523,A,wi,O,i,130,1,717.0,625279.7999999523,7035,WL,B,10.0
5,21.30999994277954,learn,60000.0,Mon Nov 04 2024 16:01:37 GMT-0600 (Central Standard Time),626130.0999999046,A,wif,O,f,100,1,850.2999999523163,625279.7999999523,7035,WL,B,10.0
5,21.47599983215332,learn,60000.0,Mon Nov 04 2024 16:01:37 GMT-0600 (Central Standard Time),626296.4000000954,A,wife,O,e,127,1,1016.6000001430511,625279.7999999523,7035,WL,B,10.0
5,21.80899977684021,learn,60000.0,Mon Nov 04 2024 16:01:37 GMT-0600 (Central Standard Time),626628.9000000954,A,wifeenter,O,enter,306,1,1349.1000001430511,625279.7999999523,7035,WL,B,10.0
5,22.39299988746643,learn,60000.0,Mon Nov 04 2024 16:01:37 GMT-0600 (Central Standard Time),627213.0999999046,A,p,O,p,573,1,584.0,626629.0999999046,7035,WL,B,11.0
5,22.876999855041504,learn,60000.0,Mon Nov 04 2024 16:01:37 GMT-0600 (Central Standard Time),627696.9000000954,A,pu,O,u,458,1,1067.8000001907349,626629.0999999046,7035,WL,B,11.0
5,23.375999927520752,learn,60000.0,Mon Nov 04 2024 16:01:37 GMT-0600 (Central Standard Time),628195.9000000954,A,pup,O,p,470,1,1566.8000001907349,626629.0999999046,7035,WL,B,11.0
5,23.675999879837036,learn,60000.0,Mon Nov 04 2024 16:01:37 GMT-0600 (Central Standard Time),628496.0,A,pupi,O,i,258,1,1866.9000000953674,626629.0999999046,7035,WL,B,11.0
5,23.825999975204468,learn,60000.0,Mon Nov 04 2024 16:01:37 GMT-0600 (Central Standard Time),628645.9000000954,A,pupil,O,l,120,1,2016.8000001907349,626629.0999999046,7035,WL,B,11.0
5,24.090999841690063,learn,60000.0,Mon Nov 04 2024 16:01:37 GMT-0600 (Central Standard Time),628911.4000000954,A,pupilenter,O,enter,242,1,2282.300000190735,626629.0999999046,7035,WL,B,11.0
5,24.625,learn,60000.0,Mon Nov 04 2024 16:01:37 GMT-0600 (Central Standard Time),629445.5999999046,A,c,O,c,523,1,533.8999998569489,628911.7000000477,7035,WL,B,12.0
5,24.70799994468689,learn,60000.0,Mon Nov 04 2024 16:01:37 GMT-0600 (Central Standard Time),629528.5999999046,A,ci,O,i,58,1,616.8999998569489,628911.7000000477,7035,WL,B,12.0
5,24.89199995994568,learn,60000.0,Mon Nov 04 2024 16:01:37 GMT-0600 (Central Standard Time),629712.5999999046,A,cit,O,t,160,1,800.8999998569489,628911.7000000477,7035,WL,B,12.0
5,24.97499990463257,learn,60000.0,Mon Nov 04 2024 16:01:37 GMT-0600 (Central Standard Time),629794.9000000954,A,city,O,y,55,1,883.2000000476837,628911.7000000477,7035,WL,B,12.0
5,25.37399983406067,learn,60000.0,Mon Nov 04 2024 16:01:37 GMT-0600 (Central Standard Time),630194.4000000954,A,cityenter,O,enter,375,1,1282.7000000476837,628911.7000000477,7035,WL,B,12.0
5,25.774999856948853,learn,60000.0,Mon Nov 04 2024 16:01:37 GMT-0600 (Central Standard Time),630595.2000000477,A,f,O,f,391,1,400.5,630194.7000000477,7035,WL,B,13.0
5,25.907999992370605,learn,60000.0,Mon Nov 04 2024 16:01:37 GMT-0600 (Central Standard Time),630728.4000000954,A,fi,O,i,94,1,533.7000000476837,630194.7000000477,7035,WL,B,13.0
5,26.0239999294281,learn,60000.0,Mon Nov 04 2024 16:01:37 GMT-0600 (Central Standard Time),630844.5,A,fir,O,r,80,1,649.7999999523163,630194.7000000477,7035,WL,B,13.0
5,26.125,learn,60000.0,Mon Nov 04 2024 16:01:37 GMT-0600 (Central Standard Time),630944.7999999523,A,fire,O,e,89,1,750.0999999046326,630194.7000000477,7035,WL,B,13.0
5,26.590999841690063,learn,60000.0,Mon Nov 04 2024 16:01:37 GMT-0600 (Central Standard Time),631410.7000000477,A,fireenter,O,enter,439,1,1216.0,630194.7000000477,7035,WL,B,13.0
5,27.340999841690063,learn,60000.0,Mon Nov 04 2024 16:01:37 GMT-0600 (Central Standard Time),632161.0,A,c,O,c,744,1,750.0999999046326,631410.9000000954,7035,WL,B,14.0
5,27.45799994468689,learn,60000.0,Mon Nov 04 2024 16:01:37 GMT-0600 (Central Standard Time),632278.2999999523,A,cl,O,l,90,1,867.3999998569489,631410.9000000954,7035,WL,B,14.0
5,27.673999786376953,learn,60000.0,Mon Nov 04 2024 16:01:37 GMT-0600 (Central Standard Time),632494.7000000477,A,clo,O,o,187,1,1083.7999999523163,631410.9000000954,7035,WL,B,14.0
5,27.7739999294281,learn,60000.0,Mon Nov 04 2024 16:01:37 GMT-0600 (Central Standard Time),632594.2999999523,A,cloc,O,c,75,1,1183.3999998569489,631410.9000000954,7035,WL,B,14.0
5,27.906999826431274,learn,60000.0,Mon Nov 04 2024 16:01:37 GMT-0600 (Central Standard Time),632726.7999999523,A,clock,O,k,107,1,1315.8999998569489,631410.9000000954,7035,WL,B,14.0
5,28.222999811172485,learn,60000.0,Mon Nov 04 2024 16:01:37 GMT-0600 (Central Standard Time),633043.2999999523,A,clockenter,O,enter,297,1,1632.3999998569489,631410.9000000954,7035,WL,B,14.0
5,29.0239999294281,learn,60000.0,Mon Nov 04 2024 16:01:37 GMT-0600 (Central Standard Time),633844.2000000477,A,p,O,p,783,1,800.7000000476837,633043.5,7035,WL,B,15.0
5,29.27300000190735,learn,60000.0,Mon Nov 04 2024 16:01:37 GMT-0600 (Central Standard Time),634093.0,A,pi,O,i,217,1,1049.5,633043.5,7035,WL,B,15.0
5,29.44099998474121,learn,60000.0,Mon Nov 04 2024 16:01:37 GMT-0600 (Central Standard Time),634260.9000000954,A,pip,O,p,149,1,1217.4000000953674,633043.5,7035,WL,B,15.0
5,29.555999994277954,learn,60000.0,Mon Nov 04 2024 16:01:37 GMT-0600 (Central Standard Time),634376.5,A,pipe,O,e,86,1,1333.0,633043.5,7035,WL,B,15.0
5,29.77300000190735,learn,60000.0,Mon Nov 04 2024 16:01:37 GMT-0600 (Central Standard Time),634593.0,A,pipeenter,O,enter,197,1,1549.5,633043.5,7035,WL,B,15.0
6,1.0160000324249268,distr,58983.99996757507,Mon Nov 04 2024 16:01:37 GMT-0600 (Central Standard Time),716083.9000000954,B,b,O,b,984,1,1016.1000001430511,715067.7999999523,7035,WL,B,1.0
6,1.1489999294281006,distr,58851.0000705719,Mon Nov 04 2024 16:01:37 GMT-0600 (Central Standard Time),716216.7999999523,B,ba,O,a,108,1,1149.0,715067.7999999523,7035,WL,B,1.0
6,1.2660000324249268,distr,58733.99996757507,Mon Nov 04 2024 16:01:37 GMT-0600 (Central Standard Time),716333.7999999523,B,bab,O,b,88,1,1266.0,715067.7999999523,7035,WL,B,1.0
6,1.5829999446868896,distr,58417.00005531311,Mon Nov 04 2024 16:01:37 GMT-0600 (Central Standard Time),716650.2999999523,B,baby,O,y,281,1,1582.5,715067.7999999523,7035,WL,B,1.0
6,1.8650000095367432,distr,58134.99999046326,Mon Nov 04 2024 16:01:37 GMT-0600 (Central Standard Time),716932.5,B,babyenter,O,enter,256,1,1864.7000000476837,715067.7999999523,7035,WL,B,1.0
6,2.2309999465942383,distr,57769.00005340576,Mon Nov 04 2024 16:01:37 GMT-0600 (Central Standard Time),717299.0999999046,B,o,O,o,356,1,366.2999999523163,716932.7999999523,7035,WL,B,2.0
6,2.431999921798706,distr,57568.000078201294,Mon Nov 04 2024 16:01:37 GMT-0600 (Central Standard Time),717500.0,B,oc,O,c,183,1,567.2000000476837,716932.7999999523,7035,WL,B,2.0
6,2.5480000972747803,distr,57451.99990272522,Mon Nov 04 2024 16:01:37 GMT-0600 (Central Standard Time),717615.7000000477,B,oce,O,e,90,1,682.9000000953674,716932.7999999523,7035,WL,B,2.0
6,2.815999984741211,distr,57184.00001525879,Mon Nov 04 2024 16:01:37 GMT-0600 (Central Standard Time),717883.2000000477,B,ocea,O,a,240,1,950.4000000953674,716932.7999999523,7035,WL,B,2.0
6,2.9489998817443848,distr,57051.000118255615,Mon Nov 04 2024 16:01:37 GMT-0600 (Central Standard Time),718016.5999999046,B,ocean,O,n,102,1,1083.7999999523163,716932.7999999523,7035,WL,B,2.0
6,3.365000009536743,distr,56634.99999046326,Mon Nov 04 2024 16:01:37 GMT-0600 (Central Standard Time),718432.2000000477,B,oceanenter,O,enter,380,1,1499.4000000953674,716932.7999999523,7035,WL,B,2.0
6,4.499000072479248,distr,55500.99992752075,Mon Nov 04 2024 16:01:37 GMT-0600 (Central Standard Time),719566.5,B,s,O,s,1114,1,1134.0,718432.5,7035,WL,B,3.0
6,4.697999954223633,distr,55302.00004577637,Mon Nov 04 2024 16:01:37 GMT-0600 (Central Standard Time),719766.0999999046,B,st,O,t,162,1,1333.5999999046326,718432.5,7035,WL,B,3.0
6,4.8480000495910645,distr,55151.999950408936,Mon Nov 04 2024 16:01:37 GMT-0600 (Central Standard Time),719915.7999999523,B,ste,O,e,116,1,1483.2999999523163,718432.5,7035,WL,B,3.0
6,5.014999866485596,distr,54985.000133514404,Mon Nov 04 2024 16:01:37 GMT-0600 (Central Standard Time),720082.5999999046,B,stea,O,a,135,1,1650.0999999046326,718432.5,7035,WL,B,3.0
6,5.181999921798706,distr,54818.000078201294,Mon Nov 04 2024 16:01:37 GMT-0600 (Central Standard Time),720248.9000000954,B,steam,O,m,142,1,1816.4000000953674,718432.5,7035,WL,B,3.0
6,5.5320000648498535,distr,54467.99993515015,Mon Nov 04 2024 16:01:37 GMT-0600 (Central Standard Time),720599.0999999046,B,steamy,O,y,323,1,2166.5999999046326,718432.5,7035,WL,B,3.0
6,6.013999938964844,distr,53986.000061035156,Mon Nov 04 2024 16:01:37 GMT-0600 (Central Standard Time),721081.2000000477,B,steamyenter,O,enter,448,1,2648.7000000476837,718432.5,7035,WL,B,3.0
6,6.381999969482422,distr,53618.00003051758,Mon Nov 04 2024 16:01:37 GMT-0600 (Central Standard Time),721448.7000000477,B,f,O,f,353,1,367.2999999523163,721081.4000000954,7035,WL,B,4.0
6,6.664999961853027,distr,53335.00003814697,Mon Nov 04 2024 16:01:37 GMT-0600 (Central Standard Time),721732.0999999046,B,fi,O,i,258,1,650.6999998092651,721081.4000000954,7035,WL,B,4.0
6,7.115000009536743,distr,52884.99999046326,Mon Nov 04 2024 16:01:37 GMT-0600 (Central Standard Time),722181.7999999523,B,f,O,backspace,412,1,1100.3999998569489,721081.4000000954,7035,WL,B,4.0
6,7.331000089645386,distr,52668.999910354614,Mon Nov 04 2024 16:01:37 GMT-0600 (Central Standard Time),722398.4000000954,B,fr,O,r,187,1,1317.0,721081.4000000954,7035,WL,B,4.0
6,7.46399998664856,distr,52536.00001335144,Mon Nov 04 2024 16:01:37 GMT-0600 (Central Standard Time),722531.5999999046,B,fri,O,i,97,1,1450.1999998092651,721081.4000000954,7035,WL,B,4.0
6,7.614000082015991,distr,52385.99991798401,Mon Nov 04 2024 16:01:37 GMT-0600 (Central Standard Time),722681.5999999046,B,frie,O,e,117,1,1600.1999998092651,721081.4000000954,7035,WL,B,4.0
6,7.79800009727478,distr,52201.99990272522,Mon Nov 04 2024 16:01:37 GMT-0600 (Central Standard Time),722864.9000000954,B,frien,O,n,151,1,1783.5,721081.4000000954,7035,WL,B,4.0
6,8.013999938964844,distr,51986.000061035156,Mon Nov 04 2024 16:01:37 GMT-0600 (Central Standard Time),723081.0,B,friend,O,d,190,1,1999.5999999046326,721081.4000000954,7035,WL,B,4.0
6,8.27999997138977,distr,51720.00002861023,Mon Nov 04 2024 16:01:37 GMT-0600 (Central Standard Time),723347.0999999046,B,friendenter,O,enter,239,1,2265.699999809265,721081.4000000954,7035,WL,B,4.0
6,8.648000001907349,distr,51351.99999809265,Mon Nov 04 2024 16:01:37 GMT-0600 (Central Standard Time),723714.7000000477,B,p,O,p,359,1,367.2999999523163,723347.4000000954,7035,WL,B,5.0
6,8.829999923706055,distr,51170.000076293945,Mon Nov 04 2024 16:01:37 GMT-0600 (Central Standard Time),723897.5999999046,B,pa,O,a,157,1,550.1999998092651,723347.4000000954,7035,WL,B,5.0
6,9.081000089645386,distr,50918.999910354614,Mon Nov 04 2024 16:01:37 GMT-0600 (Central Standard Time),724147.7999999523,B,pal,O,l,223,1,800.3999998569489,723347.4000000954,7035,WL,B,5.0
6,9.230000019073486,distr,50769.999980926514,Mon Nov 04 2024 16:01:37 GMT-0600 (Central Standard Time),724297.2999999523,B,pala,O,a,128,1,949.8999998569489,723347.4000000954,7035,WL,B,5.0
6,9.879999876022339,distr,50120.00012397766,Mon Nov 04 2024 16:01:37 GMT-0600 (Central Standard Time),724947.0,B,palac,O,c,625,1,1599.5999999046326,723347.4000000954,7035,WL,B,5.0
6,10.063999891281128,distr,49936.00010871887,Mon Nov 04 2024 16:01:37 GMT-0600 (Central Standard Time),725130.9000000954,B,palace,O,e,167,1,1783.5,723347.4000000954,7035,WL,B,5.0
6,10.412999868392944,distr,49587.000131607056,Mon Nov 04 2024 16:01:37 GMT-0600 (Central Standard Time),725479.7999999523,B,palaceenter,O,enter,324,1,2132.399999856949,723347.4000000954,7035,WL,B,5.0
6,11.180000066757202,distr,48819.9999332428,Mon Nov 04 2024 16:01:37 GMT-0600 (Central Standard Time),726247.0999999046,B,b,O,b,754,1,767.0999999046326,725480.0,7035,WL,B,6.0
6,11.44700002670288,distr,48552.99997329712,Mon Nov 04 2024 16:01:37 GMT-0600 (Central Standard Time),726513.7999999523,B,bu,O,u,232,1,1033.7999999523163,725480.0,7035,WL,B,6.0
6,11.52999997138977,distr,48470.00002861023,Mon Nov 04 2024 16:01:37 GMT-0600 (Central Standard Time),726596.9000000954,B,bui,O,i,55,1,1116.9000000953674,725480.0,7035,WL,B,6.0
6,11.730000019073486,distr,48269.999980926514,Mon Nov 04 2024 16:01:37 GMT-0600 (Central Standard Time),726797.0999999046,B,buil,O,l,172,1,1317.0999999046326,725480.0,7035,WL,B,6.0
6,11.845999956130981,distr,48154.00004386902,Mon Nov 04 2024 16:01:37 GMT-0600 (Central Standard Time),726913.2000000477,B,build,O,d,91,1,1433.2000000476837,725480.0,7035,WL,B,6.0
6,11.946000099182129,distr,48053.99990081787,Mon Nov 04 2024 16:01:37 GMT-0600 (Central Standard Time),727013.4000000954,B,buildi,O,i,71,1,1533.4000000953674,725480.0,7035,WL,B,6.0
6,12.180000066757202,distr,47819.9999332428,Mon Nov 04 2024 16:01:37 GMT-0600 (Central Standard Time),727247.0,B,buildin,O,n,195,1,1767.0,725480.0,7035,WL,B,6.0
6,12.246000051498413,distr,47753.99994850159,Mon Nov 04 2024 16:01:37 GMT-0600 (Central Standard Time),727312.5999999046,B,building,O,g,31,1,1832.5999999046326,725480.0,7035,WL,B,6.0
6,12.529000043869019,distr,47470.99995613098,Mon Nov 04 2024 16:01:37 GMT-0600 (Central Standard Time),727595.7000000477,B,buildingenter,O,enter,267,1,2115.7000000476837,725480.0,7035,WL,B,6.0
6,27.825000047683716,distr,32174.999952316284,Mon Nov 04 2024 16:01:37 GMT-0600 (Central Standard Time),742891.7000000477,B,l,O,l,15287,1,15295.799999952316,727595.9000000954,7035,WL,B,7.0
6,28.073999881744385,distr,31926.000118255615,Mon Nov 04 2024 16:01:37 GMT-0600 (Central Standard Time),743141.7000000477,B,li,O,i,220,1,15545.799999952316,727595.9000000954,7035,WL,B,7.0
6,28.2739999294281,distr,31726.0000705719,Mon Nov 04 2024 16:01:37 GMT-0600 (Central Standard Time),743341.5,B,lip,O,p,171,1,15745.599999904633,727595.9000000954,7035,WL,B,7.0
6,28.806999921798706,distr,31193.000078201294,Mon Nov 04 2024 16:01:37 GMT-0600 (Central Standard Time),743873.7000000477,B,lipenter,O,enter,499,1,16277.799999952316,727595.9000000954,7035,WL,B,7.0
6,32.19000005722046,distr,27809.99994277954,Mon Nov 04 2024 16:01:37 GMT-0600 (Central Standard Time),747257.0999999046,B,d,O,d,3369,1,3383.199999809265,743873.9000000954,7035,WL,B,8.0
6,33.055999994277954,distr,26944.000005722046,Mon Nov 04 2024 16:01:37 GMT-0600 (Central Standard Time),748123.2000000477,B,dr,O,r,838,1,4249.299999952316,743873.9000000954,7035,WL,B,8.0
6,33.206000089645386,distr,26793.999910354614,Mon Nov 04 2024 16:01:37 GMT-0600 (Central Standard Time),748272.7999999523,B,dre,O,e,126,1,4398.899999856949,743873.9000000954,7035,WL,B,8.0
6,33.555999994277954,distr,26444.000005722046,Mon Nov 04 2024 16:01:37 GMT-0600 (Central Standard Time),748623.0,B,dres,O,s,312,1,4749.099999904633,743873.9000000954,7035,WL,B,8.0
6,33.723000049591064,distr,26276.999950408936,Mon Nov 04 2024 16:01:37 GMT-0600 (Central Standard Time),748789.7999999523,B,dress,O,s,129,1,4915.899999856949,743873.9000000954,7035,WL,B,8.0
6,33.92199993133545,distr,26078.00006866455,Mon Nov 04 2024 16:01:37 GMT-0600 (Central Standard Time),748988.5999999046,B,dressenter,O,enter,162,1,5114.699999809265,743873.9000000954,7035,WL,B,8.0
6,35.73900008201599,distr,24260.99991798401,Mon Nov 04 2024 16:01:37 GMT-0600 (Central Standard Time),750805.7000000477,B,r,O,r,1798,1,1816.7999999523163,748988.9000000954,7035,WL,B,9.0
6,35.90499997138977,distr,24095.00002861023,Mon Nov 04 2024 16:01:37 GMT-0600 (Central Standard Time),750972.4000000954,B,ro,O,o,130,1,1983.5,748988.9000000954,7035,WL,B,9.0
6,36.037999868392944,distr,23962.000131607056,Mon Nov 04 2024 16:01:37 GMT-0600 (Central Standard Time),751105.7000000477,B,roc,O,c,98,1,2116.7999999523163,748988.9000000954,7035,WL,B,9.0
6,36.15400004386902,distr,23845.99995613098,Mon Nov 04 2024 16:01:37 GMT-0600 (Central Standard Time),751221.5,B,rock,O,k,82,1,2232.5999999046326,748988.9000000954,7035,WL,B,9.0
6,36.4210000038147,distr,23578.999996185303,Mon Nov 04 2024 16:01:37 GMT-0600 (Central Standard Time),751487.9000000954,B,rockenter,O,enter,248,1,2499.0,748988.9000000954,7035,WL,B,9.0
6,46.43400001525879,distr,13565.999984741211,Mon Nov 04 2024 16:01:37 GMT-0600 (Central Standard Time),761501.2000000477,B,enter,O,enter,10002,1,10013.100000143051,751488.0999999046,7035,WL,B,10.0
6,46.81699991226196,distr,13183.000087738037,Mon Nov 04 2024 16:01:37 GMT-0600 (Central Standard Time),761884.4000000954,B,enter,O,enter,372,1,382.90000009536743,761501.5,7035,WL,B,11.0
6,47.08399987220764,distr,12916.000127792358,Mon Nov 04 2024 16:01:37 GMT-0600 (Central Standard Time),762151.0,B,enter,O,enter,261,1,266.2999999523163,761884.7000000477,7035,WL,B,12.0
6,47.33399987220764,distr,12666.000127792358,Mon Nov 04 2024 16:01:37 GMT-0600 (Central Standard Time),762400.9000000954,B,enter,O,enter,234,1,249.60000014305115,762151.2999999523,7035,WL,B,13.0
6,47.66700005531311,distr,12332.99994468689,Mon Nov 04 2024 16:01:37 GMT-0600 (Central Standard Time),762734.0,B,enter,O,enter,320,1,332.7999999523163,762401.2000000477,7035,WL,B,14.0
6,48.09999990463257,distr,11900.000095367432,Mon Nov 04 2024 16:01:37 GMT-0600 (Central Standard Time),763167.2999999523,B,enter,O,enter,411,1,432.89999985694885,762734.4000000954,7035,WL,B,15.0
7,1.932999849319458,immed,58067.00015068054,Mon Nov 04 2024 16:01:37 GMT-0600 (Central Standard Time),779479.7999999523,A,s,O,s,1900,1,1932.2999999523163,777547.5,7035,WL,B,1.0
7,2.1489999294281006,immed,57851.0000705719,Mon Nov 04 2024 16:01:37 GMT-0600 (Central Standard Time),779696.0,A,st,O,t,177,1,2148.5,777547.5,7035,WL,B,1.0
7,2.3489999771118164,immed,57651.00002288818,Mon Nov 04 2024 16:01:37 GMT-0600 (Central Standard Time),779896.4000000954,A,str,O,r,178,1,2348.9000000953674,777547.5,7035,WL,B,1.0
7,2.4660000801086426,immed,57533.99991989136,Mon Nov 04 2024 16:01:37 GMT-0600 (Central Standard Time),780012.9000000954,A,stre,O,e,88,1,2465.4000000953674,777547.5,7035,WL,B,1.0
7,2.6659998893737793,immed,57334.00011062622,Mon Nov 04 2024 16:01:37 GMT-0600 (Central Standard Time),780212.7000000477,A,stree,O,e,163,1,2665.2000000476837,777547.5,7035,WL,B,1.0
7,2.882999897003174,immed,57117.000102996826,Mon Nov 04 2024 16:01:37 GMT-0600 (Central Standard Time),780429.0999999046,A,street,O,t,185,1,2881.5999999046326,777547.5,7035,WL,B,1.0
7,3.181999921798706,immed,56818.000078201294,Mon Nov 04 2024 16:01:37 GMT-0600 (Central Standard Time),780728.2000000477,A,streetenter,O,enter,265,1,3180.7000000476837,777547.5,7035,WL,B,1.0
7,3.5820000171661377,immed,56417.99998283386,Mon Nov 04 2024 16:01:37 GMT-0600 (Central Standard Time),781129.2000000477,A,g,O,g,386,1,400.7999999523163,780728.4000000954,7035,WL,B,2.0
7,3.7820000648498535,immed,56217.99993515015,Mon Nov 04 2024 16:01:37 GMT-0600 (Central Standard Time),781328.7999999523,A,gr,O,r,176,1,600.3999998569489,780728.4000000954,7035,WL,B,2.0
7,3.9489998817443848,immed,56051.000118255615,Mon Nov 04 2024 16:01:37 GMT-0600 (Central Standard Time),781495.7000000477,A,gra,O,a,135,1,767.2999999523163,780728.4000000954,7035,WL,B,2.0
7,4.148999929428101,immed,55851.0000705719,Mon Nov 04 2024 16:01:37 GMT-0600 (Central Standard Time),781695.5999999046,A,gras,O,s,163,1,967.1999998092651,780728.4000000954,7035,WL,B,2.0
7,4.365000009536743,immed,55634.99999046326,Mon Nov 04 2024 16:01:37 GMT-0600 (Central Standard Time),781912.0999999046,A,grass,O,s,184,1,1183.6999998092651,780728.4000000954,7035,WL,B,2.0
7,4.563999891281128,immed,55436.00010871887,Mon Nov 04 2024 16:01:37 GMT-0600 (Central Standard Time),782111.0999999046,A,grassenter,O,enter,176,1,1382.6999998092651,780728.4000000954,7035,WL,B,2.0
7,5.2820000648498535,immed,54717.99993515015,Mon Nov 04 2024 16:01:37 GMT-0600 (Central Standard Time),782828.5,A,w,O,w,707,1,717.2000000476837,782111.2999999523,7035,WL,B,3.0
7,5.381999969482422,immed,54618.00003051758,Mon Nov 04 2024 16:01:37 GMT-0600 (Central Standard Time),782928.5999999046,A,wi,O,i,77,1,817.2999999523163,782111.2999999523,7035,WL,B,3.0
7,5.582000017166138,immed,54417.99998283386,Mon Nov 04 2024 16:01:37 GMT-0600 (Central Standard Time),783128.4000000954,A,win,O,n,159,1,1017.1000001430511,782111.2999999523,7035,WL,B,3.0
7,5.681999921798706,immed,54318.000078201294,Mon Nov 04 2024 16:01:37 GMT-0600 (Central Standard Time),783228.2999999523,A,wind,O,d,63,1,1117.0,782111.2999999523,7035,WL,B,3.0
7,5.815000057220459,immed,54184.99994277954,Mon Nov 04 2024 16:01:37 GMT-0600 (Central Standard Time),783361.5999999046,A,windo,O,o,101,1,1250.2999999523163,782111.2999999523,7035,WL,B,3.0
7,5.914000034332275,immed,54085.999965667725,Mon Nov 04 2024 16:01:37 GMT-0600 (Central Standard Time),783461.0999999046,A,window,O,w,60,1,1349.7999999523163,782111.2999999523,7035,WL,B,3.0
7,6.246999979019165,immed,53753.000020980835,Mon Nov 04 2024 16:01:37 GMT-0600 (Central Standard Time),783793.9000000954,A,windowenter,O,enter,300,1,1682.6000001430511,782111.2999999523,7035,WL,B,3.0
7,6.764999866485596,immed,53235.000133514404,Mon Nov 04 2024 16:01:37 GMT-0600 (Central Standard Time),784311.2999999523,A,d,O,d,504,1,517.2000000476837,783794.0999999046,7035,WL,B,4.0
7,7.080999851226807,immed,52919.00014877319,Mon Nov 04 2024 16:01:37 GMT-0600 (Central Standard Time),784628.0,A,dd,O,d,282,1,833.9000000953674,783794.0999999046,7035,WL,B,4.0
7,7.5980000495910645,immed,52401.999950408936,Mon Nov 04 2024 16:01:37 GMT-0600 (Central Standard Time),785144.2000000477,A,d,O,backspace,484,1,1350.1000001430511,783794.0999999046,7035,WL,B,4.0
7,7.96399998664856,immed,52036.00001335144,Mon Nov 04 2024 16:01:37 GMT-0600 (Central Standard Time),785511.0,A,do,O,o,327,1,1716.9000000953674,783794.0999999046,7035,WL,B,4.0
7,8.180999994277954,immed,51819.000005722046,Mon Nov 04 2024 16:01:37 GMT-0600 (Central Standard Time),785727.5,A,doo,O,o,177,1,1933.4000000953674,783794.0999999046,7035,WL,B,4.0
7,8.414000034332275,immed,51585.999965667725,Mon Nov 04 2024 16:01:37 GMT-0600 (Central Standard Time),785960.7999999523,A,door,O,r,197,1,2166.7000000476837,783794.0999999046,7035,WL,B,4.0
7,8.562999963760376,immed,51437.000036239624,Mon Nov 04 2024 16:01:37 GMT-0600 (Central Standard Time),786109.7999999523,A,doorenter,O,enter,119,1,2315.7000000476837,783794.0999999046,7035,WL,B,4.0
7,9.346999883651733,immed,50653.00011634827,Mon Nov 04 2024 16:01:37 GMT-0600 (Central Standard Time),786893.7999999523,A,w,O,w,773,1,783.7999999523163,786110.0,7035,WL,B,5.0
7,9.480000019073486,immed,50519.999980926514,Mon Nov 04 2024 16:01:37 GMT-0600 (Central Standard Time),787027.0999999046,A,wi,O,i,101,1,917.0999999046326,786110.0,7035,WL,B,5.0
7,9.596999883651733,immed,50403.00011634827,Mon Nov 04 2024 16:01:37 GMT-0600 (Central Standard Time),787143.7000000477,A,wif,O,f,76,1,1033.7000000476837,786110.0,7035,WL,B,5.0
7,9.746999979019165,immed,50253.000020980835,Mon Nov 04 2024 16:01:37 GMT-0600 (Central Standard Time),787293.5,A,wife,O,e,112,1,1183.5,786110.0,7035,WL,B,5.0
7,9.914000034332275,immed,50085.999965667725,Mon Nov 04 2024 16:01:37 GMT-0600 (Central Standard Time),787460.5,A,wifeenter,O,enter,137,1,1350.5,786110.0,7035,WL,B,5.0
7,10.629999876022339,immed,49370.00012397766,Mon Nov 04 2024 16:01:37 GMT-0600 (Central Standard Time),788177.0999999046,A,s,O,s,709,1,716.2999999523163,787460.7999999523,7035,WL,B,6.0
7,11.062999963760376,immed,48937.000036239624,Mon Nov 04 2024 16:01:37 GMT-0600 (Central Standard Time),788610.0,A,,O,backspace,398,1,1149.2000000476837,787460.7999999523,7035,WL,B,6.0
7,11.680000066757202,immed,48319.9999332428,Mon Nov 04 2024 16:01:37 GMT-0600 (Central Standard Time),789226.2000000477,A,p,O,p,584,1,1765.4000000953674,787460.7999999523,7035,WL,B,6.0
7,11.94599986076355,immed,48054.00013923645,Mon Nov 04 2024 16:01:37 GMT-0600 (Central Standard Time),789493.0999999046,A,pu,O,u,237,1,2032.2999999523163,787460.7999999523,7035,WL,B,6.0
7,12.213000059127808,immed,47786.99994087219,Mon Nov 04 2024 16:01:37 GMT-0600 (Central Standard Time),789759.5,A,pup,O,p,227,1,2298.7000000476837,787460.7999999523,7035,WL,B,6.0
7,12.44599986076355,immed,47554.00013923645,Mon Nov 04 2024 16:01:37 GMT-0600 (Central Standard Time),789992.5999999046,A,pupi,O,i,209,1,2531.7999999523163,787460.7999999523,7035,WL,B,6.0
7,12.645999908447266,immed,47354.000091552734,Mon Nov 04 2024 16:01:37 GMT-0600 (Central Standard Time),790192.7999999523,A,pupil,O,l,168,1,2732.0,787460.7999999523,7035,WL,B,6.0
7,12.961999893188477,immed,47038.00010681152,Mon Nov 04 2024 16:01:37 GMT-0600 (Central Standard Time),790508.2999999523,A,pupilenter,O,enter,279,1,3047.5,787460.7999999523,7035,WL,B,6.0
7,13.246000051498413,immed,46753.99994850159,Mon Nov 04 2024 16:01:37 GMT-0600 (Central Standard Time),790792.5999999046,A,s,O,s,270,1,284.0,790508.5999999046,7035,WL,B,7.0
7,13.411999940872192,immed,46588.00005912781,Mon Nov 04 2024 16:01:37 GMT-0600 (Central Standard Time),790959.2000000477,A,st,O,t,127,1,450.60000014305115,790508.5999999046,7035,WL,B,7.0
7,13.628999948501587,immed,46371.00005149841,Mon Nov 04 2024 16:01:37 GMT-0600 (Central Standard Time),791176.0,A,sta,O,a,176,1,667.4000000953674,790508.5999999046,7035,WL,B,7.0
7,13.779000043869019,immed,46220.99995613098,Mon Nov 04 2024 16:01:37 GMT-0600 (Central Standard Time),791325.9000000954,A,star,O,r,113,1,817.3000001907349,790508.5999999046,7035,WL,B,7.0
7,14.144999980926514,immed,45855.000019073486,Mon Nov 04 2024 16:01:37 GMT-0600 (Central Standard Time),791691.2999999523,A,starenter,O,enter,338,1,1182.7000000476837,790508.5999999046,7035,WL,B,7.0
7,14.529000043869019,immed,45470.99995613098,Mon Nov 04 2024 16:01:37 GMT-0600 (Central Standard Time),792075.4000000954,A,l,O,l,367,1,383.90000009536743,791691.5,7035,WL,B,8.0
7,14.711999893188477,immed,45288.00010681152,Mon Nov 04 2024 16:01:37 GMT-0600 (Central Standard Time),792258.7999999523,A,la,O,a,148,1,567.2999999523163,791691.5,7035,WL,B,8.0
7,14.878999948501587,immed,45121.00005149841,Mon Nov 04 2024 16:01:37 GMT-0600 (Central Standard Time),792425.2999999523,A,lak,O,k,133,1,733.7999999523163,791691.5,7035,WL,B,8.0
7,15.01199984550476,immed,44988.00015449524,Mon Nov 04 2024 16:01:37 GMT-0600 (Central Standard Time),792558.7000000477,A,lake,O,e,95,1,867.2000000476837,791691.5,7035,WL,B,8.0
7,15.277999877929688,immed,44722.00012207031,Mon Nov 04 2024 16:01:37 GMT-0600 (Central Standard Time),792824.2000000477,A,lakeenter,O,enter,240,1,1132.7000000476837,791691.5,7035,WL,B,8.0
7,15.92799997329712,immed,44072.00002670288,Mon Nov 04 2024 16:01:37 GMT-0600 (Central Standard Time),793474.9000000954,A,c,O,c,633,1,650.3000001907349,792824.5999999046,7035,WL,B,9.0
7,16.09500002861023,immed,43904.99997138977,Mon Nov 04 2024 16:01:37 GMT-0600 (Central Standard Time),793641.7000000477,A,ca,O,a,132,1,817.1000001430511,792824.5999999046,7035,WL,B,9.0
7,16.57800006866455,immed,43421.99993133545,Mon Nov 04 2024 16:01:37 GMT-0600 (Central Standard Time),794124.7000000477,A,cab,O,b,455,1,1300.1000001430511,792824.5999999046,7035,WL,B,9.0
7,16.795000076293945,immed,43204.999923706055,Mon Nov 04 2024 16:01:37 GMT-0600 (Central Standard Time),794341.5,A,cabi,O,i,190,1,1516.9000000953674,792824.5999999046,7035,WL,B,9.0
7,16.961999893188477,immed,43038.00010681152,Mon Nov 04 2024 16:01:37 GMT-0600 (Central Standard Time),794508.0999999046,A,cabin,O,n,139,1,1683.5,792824.5999999046,7035,WL,B,9.0
7,17.24399995803833,immed,42756.00004196167,Mon Nov 04 2024 16:01:37 GMT-0600 (Central Standard Time),794790.2999999523,A,cabinenter,O,enter,250,1,1965.7000000476837,792824.5999999046,7035,WL,B,9.0
7,17.644999980926514,immed,42355.000019073486,Mon Nov 04 2024 16:01:37 GMT-0600 (Central Standard Time),795191.0999999046,A,f,O,f,379,1,400.5,794790.5999999046,7035,WL,B,10.0
7,17.74399995803833,immed,42256.00004196167,Mon Nov 04 2024 16:01:37 GMT-0600 (Central Standard Time),795291.0,A,fi,O,i,74,1,500.40000009536743,794790.5999999046,7035,WL,B,10.0
7,17.878000020980835,immed,42121.999979019165,Mon Nov 04 2024 16:01:37 GMT-0600 (Central Standard Time),795424.2999999523,A,fir,O,r,102,1,633.7000000476837,794790.5999999046,7035,WL,B,10.0
7,17.99399995803833,immed,42006.00004196167,Mon Nov 04 2024 16:01:37 GMT-0600 (Central Standard Time),795541.2000000477,A,fire,O,e,81,1,750.6000001430511,794790.5999999046,7035,WL,B,10.0
7,18.30999994277954,immed,41690.00005722046,Mon Nov 04 2024 16:01:37 GMT-0600 (Central Standard Time),795856.5,A,fireenter,O,enter,283,1,1065.9000000953674,794790.5999999046,7035,WL,B,10.0
7,18.776999950408936,immed,41223.000049591064,Mon Nov 04 2024 16:01:37 GMT-0600 (Central Standard Time),796324.0,A,p,O,p,450,1,467.2000000476837,795856.7999999523,7035,WL,B,11.0
7,19.5939998626709,immed,40406.0001373291,Mon Nov 04 2024 16:01:37 GMT-0600 (Central Standard Time),797140.5999999046,A,pi,O,i,780,1,1283.7999999523163,795856.7999999523,7035,WL,B,11.0
7,19.759999990463257,immed,40240.00000953674,Mon Nov 04 2024 16:01:37 GMT-0600 (Central Standard Time),797307.0999999046,A,pip,O,p,141,1,1450.2999999523163,795856.7999999523,7035,WL,B,11.0
7,19.90999984741211,immed,40090.00015258789,Mon Nov 04 2024 16:01:37 GMT-0600 (Central Standard Time),797457.0,A,pipe,O,e,121,1,1600.2000000476837,795856.7999999523,7035,WL,B,11.0
7,20.14299988746643,immed,39857.00011253357,Mon Nov 04 2024 16:01:37 GMT-0600 (Central Standard Time),797689.2999999523,A,pipeenter,O,enter,204,1,1832.5,795856.7999999523,7035,WL,B,11.0
7,20.325999975204468,immed,39674.00002479553,Mon Nov 04 2024 16:01:37 GMT-0600 (Central Standard Time),797873.0999999046,A,c,O,c,177,1,183.59999990463257,797689.5,7035,WL,B,12.0
7,20.47699999809265,immed,39523.00000190735,Mon Nov 04 2024 16:01:37 GMT-0600 (Central Standard Time),798023.5,A,cl,O,l,121,1,334.0,797689.5,7035,WL,B,12.0
7,20.710000038146973,immed,39289.99996185303,Mon Nov 04 2024 16:01:37 GMT-0600 (Central Standard Time),798256.7999999523,A,clo,O,o,210,1,567.2999999523163,797689.5,7035,WL,B,12.0
7,20.842999935150146,immed,39157.00006484985,Mon Nov 04 2024 16:01:37 GMT-0600 (Central Standard Time),798390.0999999046,A,cloc,O,c,103,1,700.5999999046326,797689.5,7035,WL,B,12.0
7,20.993000030517578,immed,39006.99996948242,Mon Nov 04 2024 16:01:37 GMT-0600 (Central Standard Time),798540.0,A,clock,O,k,123,1,850.5,797689.5,7035,WL,B,12.0
7,21.658999919891357,immed,38341.00008010864,Mon Nov 04 2024 16:01:37 GMT-0600 (Central Standard Time),799205.4000000954,A,clockenter,O,enter,635,1,1515.9000000953674,797689.5,7035,WL,B,12.0
7,24.075999975204468,immed,35924.00002479553,Mon Nov 04 2024 16:01:37 GMT-0600 (Central Standard Time),801622.4000000954,A,a,O,a,2404,1,2416.800000190735,799205.5999999046,7035,WL,B,13.0
7,24.759000062942505,immed,35240.999937057495,Mon Nov 04 2024 16:01:37 GMT-0600 (Central Standard Time),802305.4000000954,A,ar,O,r,650,1,3099.800000190735,799205.5999999046,7035,WL,B,13.0
7,24.941999912261963,immed,35058.00008773804,Mon Nov 04 2024 16:01:37 GMT-0600 (Central Standard Time),802488.5999999046,A,arm,O,m,159,1,3283.0,799205.5999999046,7035,WL,B,13.0
7,25.20799994468689,immed,34792.00005531311,Mon Nov 04 2024 16:01:37 GMT-0600 (Central Standard Time),802754.2999999523,A,armenter,O,enter,239,1,3548.7000000476837,799205.5999999046,7035,WL,B,13.0
7,25.524999856948853,immed,34475.00014305115,Mon Nov 04 2024 16:01:37 GMT-0600 (Central Standard Time),803071.7999999523,A,s,O,s,296,1,317.2999999523163,802754.5,7035,WL,B,14.0
7,25.625999927520752,immed,34374.00007247925,Mon Nov 04 2024 16:01:37 GMT-0600 (Central Standard Time),803172.2999999523,A,sk,O,k,73,1,417.7999999523163,802754.5,7035,WL,B,14.0
7,25.842000007629395,immed,34157.999992370605,Mon Nov 04 2024 16:01:37 GMT-0600 (Central Standard Time),803388.5999999046,A,ski,O,i,179,1,634.0999999046326,802754.5,7035,WL,B,14.0
7,26.024999856948853,immed,33975.00014305115,Mon Nov 04 2024 16:01:37 GMT-0600 (Central Standard Time),803571.7000000477,A,skin,O,n,148,1,817.2000000476837,802754.5,7035,WL,B,14.0
7,26.407000064849854,immed,33592.99993515015,Mon Nov 04 2024 16:01:37 GMT-0600 (Central Standard Time),803953.9000000954,A,skinenter,O,enter,349,1,1199.4000000953674,802754.5,7035,WL,B,14.0
7,30.907000064849854,immed,29092.999935150146,Mon Nov 04 2024 16:01:37 GMT-0600 (Central Standard Time),808453.5999999046,A,s,O,s,4488,1,4499.399999856949,803954.2000000477,7035,WL,B,15.0
7,31.157000064849854,immed,28842.999935150146,Mon Nov 04 2024 16:01:37 GMT-0600 (Central Standard Time),808703.2999999523,A,st,O,t,213,1,4749.099999904633,803954.2000000477,7035,WL,B,15.0
7,31.33999991416931,immed,28660.00008583069,Mon Nov 04 2024 16:01:37 GMT-0600 (Central Standard Time),808886.7000000477,A,sta,O,a,154,1,4932.5,803954.2000000477,7035,WL,B,15.0
7,31.438999891281128,immed,28561.000108718872,Mon Nov 04 2024 16:01:37 GMT-0600 (Central Standard Time),808985.9000000954,A,star,O,r,66,1,5031.700000047684,803954.2000000477,7035,WL,B,15.0
7,31.772000074386597,immed,28227.999925613403,Mon Nov 04 2024 16:01:37 GMT-0600 (Central Standard Time),809318.7999999523,A,starenter,O,enter,322,1,5364.599999904633,803954.2000000477,7035,WL,B,15.0
