block_c,block_dur,condition,countdown,datetime,endtime,list,multichar_response,project,response,response_time,session_number,start_end,starttime,subject_id,task,task_vers,trial
,,,,Wed Mar 05 2025 18:01:51 GMT-0600 (Central Standard Time),,,,O,space,1396,1,,,7083,WL,A,
prac,,0,,Wed Mar 05 2025 18:01:51 GMT-0600 (Central Standard Time),,NA,b,O,b,2146,1,,,7083,WL,A,1.0
prac,,0,,Wed Mar 05 2025 18:01:51 GMT-0600 (Central Standard Time),,NA,bo,O,o,231,1,,,7083,WL,A,1.0
prac,,0,,Wed Mar 05 2025 18:01:51 GMT-0600 (Central Standard Time),,NA,boo,O,o,182,1,,,7083,WL,A,1.0
prac,,0,,Wed Mar 05 2025 18:01:51 GMT-0600 (Central Standard Time),,NA,boos,O,s,166,1,,,7083,WL,A,1.0
prac,,0,,Wed Mar 05 2025 18:01:51 GMT-0600 (Central Standard Time),,NA,boost,O,t,79,1,,,7083,WL,A,1.0
prac,,0,,Wed Mar 05 2025 18:01:51 GMT-0600 (Central Standard Time),,NA,boostenter,O,enter,1196,1,,,7083,WL,A,1.0
1,2.499000072479248,learn,57500.99992752075,Wed Mar 05 2025 18:01:51 GMT-0600 (Central Standard Time),151277.59999999404,A,h,O,h,2482,1,2499.0999999940395,148778.5,7083,WL,A,1.0
1,2.7160000801086426,learn,57283.99991989136,Wed Mar 05 2025 18:01:51 GMT-0600 (Central Standard Time),151494.0,A,ha,O,a,198,1,2715.5,148778.5,7083,WL,A,1.0
1,2.8489999771118164,learn,57151.00002288818,Wed Mar 05 2025 18:01:51 GMT-0600 (Central Standard Time),151626.90000000596,A,har,O,r,126,1,2848.4000000059605,148778.5,7083,WL,A,1.0
1,3.199000120162964,learn,56800.999879837036,Wed Mar 05 2025 18:01:51 GMT-0600 (Central Standard Time),151977.0,A,harp,O,p,330,1,3198.5,148778.5,7083,WL,A,1.0
1,4.248000144958496,learn,55751.999855041504,Wed Mar 05 2025 18:01:51 GMT-0600 (Central Standard Time),153026.5,A,harpenter,O,enter,1044,1,4248.0,148778.5,7083,WL,A,1.0
1,5.581000089645386,learn,54418.999910354614,Wed Mar 05 2025 18:01:51 GMT-0600 (Central Standard Time),154359.5,A,m,O,m,1322,1,1332.7000000178814,153026.79999998212,7083,WL,A,2.0
1,5.697999954223633,learn,54302.00004577637,Wed Mar 05 2025 18:01:51 GMT-0600 (Central Standard Time),154476.09999999404,A,me,O,e,101,1,1449.300000011921,153026.79999998212,7083,WL,A,2.0
1,5.8480000495910645,learn,54151.999950408936,Wed Mar 05 2025 18:01:51 GMT-0600 (Central Standard Time),154626.5,A,mea,O,a,128,1,1599.7000000178814,153026.79999998212,7083,WL,A,2.0
1,6.065000057220459,learn,53934.99994277954,Wed Mar 05 2025 18:01:51 GMT-0600 (Central Standard Time),154842.69999998808,A,mead,O,d,210,1,1815.9000000059605,153026.79999998212,7083,WL,A,2.0
1,6.197999954223633,learn,53802.00004577637,Wed Mar 05 2025 18:01:51 GMT-0600 (Central Standard Time),154976.09999999404,A,meado,O,o,122,1,1949.300000011921,153026.79999998212,7083,WL,A,2.0
1,6.331000089645386,learn,53668.999910354614,Wed Mar 05 2025 18:01:51 GMT-0600 (Central Standard Time),155109.5,A,meadow,O,w,116,1,2082.7000000178814,153026.79999998212,7083,WL,A,2.0
1,6.680999994277954,learn,53319.000005722046,Wed Mar 05 2025 18:01:51 GMT-0600 (Central Standard Time),155459.19999998808,A,meadowenter,O,enter,335,1,2432.4000000059605,153026.79999998212,7083,WL,A,2.0
1,7.013999938964844,learn,52986.000061035156,Wed Mar 05 2025 18:01:51 GMT-0600 (Central Standard Time),155792.5,A,t,O,t,321,1,332.80000001192093,155459.69999998808,7083,WL,A,3.0
1,7.230999946594238,learn,52769.00005340576,Wed Mar 05 2025 18:01:51 GMT-0600 (Central Standard Time),156009.09999999404,A,tr,O,r,196,1,549.4000000059605,155459.69999998808,7083,WL,A,3.0
1,7.38100004196167,learn,52618.99995803833,Wed Mar 05 2025 18:01:51 GMT-0600 (Central Standard Time),156159.0,A,tra,O,a,131,1,699.3000000119209,155459.69999998808,7083,WL,A,3.0
1,7.581000089645386,learn,52418.999910354614,Wed Mar 05 2025 18:01:51 GMT-0600 (Central Standard Time),156359.0,A,trai,O,i,181,1,899.3000000119209,155459.69999998808,7083,WL,A,3.0
1,7.71399998664856,learn,52286.00001335144,Wed Mar 05 2025 18:01:51 GMT-0600 (Central Standard Time),156492.40000000596,A,train,O,n,118,1,1032.7000000178814,155459.69999998808,7083,WL,A,3.0
1,8.031000137329102,learn,51968.9998626709,Wed Mar 05 2025 18:01:51 GMT-0600 (Central Standard Time),156808.79999998212,A,trainenter,O,enter,304,1,1349.0999999940395,155459.69999998808,7083,WL,A,3.0
1,8.297000169754028,learn,51702.99983024597,Wed Mar 05 2025 18:01:51 GMT-0600 (Central Standard Time),157075.29999998212,A,s,O,s,260,1,266.09999999403954,156809.19999998808,7083,WL,A,4.0
1,8.496999979019165,learn,51503.000020980835,Wed Mar 05 2025 18:01:51 GMT-0600 (Central Standard Time),157275.29999998212,A,sa,O,a,185,1,466.09999999403954,156809.19999998808,7083,WL,A,4.0
1,8.63100004196167,learn,51368.99995803833,Wed Mar 05 2025 18:01:51 GMT-0600 (Central Standard Time),157408.59999999404,A,sal,O,l,113,1,599.4000000059605,156809.19999998808,7083,WL,A,4.0
1,8.763999938964844,learn,51236.000061035156,Wed Mar 05 2025 18:01:51 GMT-0600 (Central Standard Time),157542.0,A,salt,O,t,116,1,732.8000000119209,156809.19999998808,7083,WL,A,4.0
1,9.77999997138977,learn,50220.00002861023,Wed Mar 05 2025 18:01:51 GMT-0600 (Central Standard Time),158558.40000000596,A,saltenter,O,enter,999,1,1749.2000000178814,156809.19999998808,7083,WL,A,4.0
1,11.413000106811523,learn,48586.99989318848,Wed Mar 05 2025 18:01:51 GMT-0600 (Central Standard Time),160191.09999999404,A,k,O,k,1624,1,1632.300000011921,158558.79999998212,7083,WL,A,5.0
1,11.546000003814697,learn,48453.9999961853,Wed Mar 05 2025 18:01:51 GMT-0600 (Central Standard Time),160324.29999998212,A,ke,O,e,126,1,1765.5,158558.79999998212,7083,WL,A,5.0
1,11.830000162124634,learn,48169.999837875366,Wed Mar 05 2025 18:01:51 GMT-0600 (Central Standard Time),160607.59999999404,A,key,O,y,272,1,2048.800000011921,158558.79999998212,7083,WL,A,5.0
1,12.296000003814697,learn,47703.9999961853,Wed Mar 05 2025 18:01:51 GMT-0600 (Central Standard Time),161074.29999998212,A,keyenter,O,enter,461,1,2515.5,158558.79999998212,7083,WL,A,5.0
1,12.946000099182129,learn,47053.99990081787,Wed Mar 05 2025 18:01:51 GMT-0600 (Central Standard Time),161723.90000000596,A,b,O,b,635,1,649.4000000059605,161074.5,7083,WL,A,6.0
1,13.078999996185303,learn,46921.0000038147,Wed Mar 05 2025 18:01:51 GMT-0600 (Central Standard Time),161857.29999998212,A,bo,O,o,112,1,782.7999999821186,161074.5,7083,WL,A,6.0
1,13.229000091552734,learn,46770.999908447266,Wed Mar 05 2025 18:01:51 GMT-0600 (Central Standard Time),162007.09999999404,A,boo,O,o,132,1,932.5999999940395,161074.5,7083,WL,A,6.0
1,13.42900013923645,learn,46570.99986076355,Wed Mar 05 2025 18:01:51 GMT-0600 (Central Standard Time),162207.09999999404,A,book,O,k,182,1,1132.5999999940395,161074.5,7083,WL,A,6.0
1,13.611999988555908,learn,46388.00001144409,Wed Mar 05 2025 18:01:51 GMT-0600 (Central Standard Time),162390.40000000596,A,bookenter,O,enter,174,1,1315.9000000059605,161074.5,7083,WL,A,6.0
1,13.962000131607056,learn,46037.999868392944,Wed Mar 05 2025 18:01:51 GMT-0600 (Central Standard Time),162740.19999998808,A,a,O,a,334,1,349.40000000596046,162390.79999998212,7083,WL,A,7.0
1,14.111999988555908,learn,45888.00001144409,Wed Mar 05 2025 18:01:51 GMT-0600 (Central Standard Time),162890.19999998808,A,ap,O,p,129,1,499.40000000596046,162390.79999998212,7083,WL,A,7.0
1,14.245000123977661,learn,45754.99987602234,Wed Mar 05 2025 18:01:51 GMT-0600 (Central Standard Time),163023.40000000596,A,app,O,p,122,1,632.6000000238419,162390.79999998212,7083,WL,A,7.0
1,14.445000171661377,learn,45554.99982833862,Wed Mar 05 2025 18:01:51 GMT-0600 (Central Standard Time),163223.40000000596,A,appl,O,l,189,1,832.6000000238419,162390.79999998212,7083,WL,A,7.0
1,14.578999996185303,learn,45421.0000038147,Wed Mar 05 2025 18:01:51 GMT-0600 (Central Standard Time),163356.69999998808,A,apply,O,y,117,1,965.9000000059605,162390.79999998212,7083,WL,A,7.0
1,15.09500002861023,learn,44904.99997138977,Wed Mar 05 2025 18:01:51 GMT-0600 (Central Standard Time),163873.09999999404,A,appl,O,backspace,504,1,1482.300000011921,162390.79999998212,7083,WL,A,7.0
1,15.27999997138977,learn,44720.00002861023,Wed Mar 05 2025 18:01:51 GMT-0600 (Central Standard Time),164057.79999998212,A,apple,O,e,172,1,1667.0,162390.79999998212,7083,WL,A,7.0
1,15.945000171661377,learn,44054.99982833862,Wed Mar 05 2025 18:01:51 GMT-0600 (Central Standard Time),164723.19999998808,A,appleenter,O,enter,651,1,2332.4000000059605,162390.79999998212,7083,WL,A,7.0
1,20.74399995803833,learn,39256.00004196167,Wed Mar 05 2025 18:01:51 GMT-0600 (Central Standard Time),169521.69999998808,A,k,O,k,4777,1,4798.199999988079,164723.5,7083,WL,A,8.0
1,20.860000133514404,learn,39139.999866485596,Wed Mar 05 2025 18:01:51 GMT-0600 (Central Standard Time),169638.19999998808,A,ke,O,e,99,1,4914.699999988079,164723.5,7083,WL,A,8.0
1,21.47699999809265,learn,38523.00000190735,Wed Mar 05 2025 18:01:51 GMT-0600 (Central Standard Time),170254.59999999404,A,k,O,backspace,607,1,5531.0999999940395,164723.5,7083,WL,A,8.0
1,21.66000008583069,learn,38339.99991416931,Wed Mar 05 2025 18:01:51 GMT-0600 (Central Standard Time),170437.90000000596,A,,O,backspace,174,1,5714.4000000059605,164723.5,7083,WL,A,8.0
1,23.926000118255615,learn,36073.999881744385,Wed Mar 05 2025 18:01:51 GMT-0600 (Central Standard Time),172703.79999998212,A,r,O,r,2255,1,7980.299999982119,164723.5,7083,WL,A,8.0
1,24.075999975204468,learn,35924.00002479553,Wed Mar 05 2025 18:01:51 GMT-0600 (Central Standard Time),172853.69999998808,A,ru,O,u,132,1,8130.199999988079,164723.5,7083,WL,A,8.0
1,24.193000078201294,learn,35806.999921798706,Wed Mar 05 2025 18:01:51 GMT-0600 (Central Standard Time),172970.79999998212,A,rug,O,g,103,1,8247.299999982119,164723.5,7083,WL,A,8.0
1,24.610000133514404,learn,35389.999866485596,Wed Mar 05 2025 18:01:51 GMT-0600 (Central Standard Time),173388.09999999404,A,rugenter,O,enter,410,1,8664.59999999404,164723.5,7083,WL,A,8.0
1,25.54100012779236,learn,34458.99987220764,Wed Mar 05 2025 18:01:51 GMT-0600 (Central Standard Time),174320.0,A,f,O,f,921,1,931.3000000119209,173388.69999998808,7083,WL,A,9.0
1,25.641000032424927,learn,34358.99996757507,Wed Mar 05 2025 18:01:51 GMT-0600 (Central Standard Time),174419.90000000596,A,fl,O,l,93,1,1031.2000000178814,173388.69999998808,7083,WL,A,9.0
1,25.79200005531311,learn,34207.99994468689,Wed Mar 05 2025 18:01:51 GMT-0600 (Central Standard Time),174570.19999998808,A,flo,O,o,145,1,1181.5,173388.69999998808,7083,WL,A,9.0
1,25.875,learn,34125.0,Wed Mar 05 2025 18:01:51 GMT-0600 (Central Standard Time),174653.29999998212,A,flow,O,w,67,1,1264.5999999940395,173388.69999998808,7083,WL,A,9.0
1,25.94099998474121,learn,34059.00001525879,Wed Mar 05 2025 18:01:51 GMT-0600 (Central Standard Time),174719.90000000596,A,flowe,O,e,56,1,1331.2000000178814,173388.69999998808,7083,WL,A,9.0
1,26.008000135421753,learn,33991.99986457825,Wed Mar 05 2025 18:01:51 GMT-0600 (Central Standard Time),174786.29999998212,A,flower,O,r,53,1,1397.5999999940395,173388.69999998808,7083,WL,A,9.0
1,26.391000032424927,learn,33608.99996757507,Wed Mar 05 2025 18:01:51 GMT-0600 (Central Standard Time),175169.59999999404,A,flowerenter,O,enter,371,1,1780.9000000059605,173388.69999998808,7083,WL,A,9.0
1,29.457000017166138,learn,30542.999982833862,Wed Mar 05 2025 18:01:51 GMT-0600 (Central Standard Time),178235.29999998212,A,f,O,f,3052,1,3065.2999999821186,175170.0,7083,WL,A,10.0
1,29.574000120162964,learn,30425.999879837036,Wed Mar 05 2025 18:01:51 GMT-0600 (Central Standard Time),178352.19999998808,A,fi,O,i,106,1,3182.199999988079,175170.0,7083,WL,A,10.0
1,29.707000017166138,learn,30292.999982833862,Wed Mar 05 2025 18:01:51 GMT-0600 (Central Standard Time),178485.40000000596,A,fin,O,n,125,1,3315.4000000059605,175170.0,7083,WL,A,10.0
1,29.807000160217285,learn,30192.999839782715,Wed Mar 05 2025 18:01:51 GMT-0600 (Central Standard Time),178585.29999998212,A,fing,O,g,88,1,3415.2999999821186,175170.0,7083,WL,A,10.0
1,29.94000005722046,learn,30059.99994277954,Wed Mar 05 2025 18:01:51 GMT-0600 (Central Standard Time),178718.5,A,finge,O,e,116,1,3548.5,175170.0,7083,WL,A,10.0
1,30.006999969482422,learn,29993.000030517578,Wed Mar 05 2025 18:01:51 GMT-0600 (Central Standard Time),178785.5,A,finger,O,r,55,1,3615.5,175170.0,7083,WL,A,10.0
1,31.25600004196167,learn,28743.99995803833,Wed Mar 05 2025 18:01:51 GMT-0600 (Central Standard Time),180034.69999998808,A,fingerenter,O,enter,1243,1,4864.699999988079,175170.0,7083,WL,A,10.0
1,31.69000005722046,learn,28309.99994277954,Wed Mar 05 2025 18:01:51 GMT-0600 (Central Standard Time),180468.09999999404,A,b,O,b,419,1,433.09999999403954,180035.0,7083,WL,A,11.0
1,31.805999994277954,learn,28194.000005722046,Wed Mar 05 2025 18:01:51 GMT-0600 (Central Standard Time),180584.69999998808,A,bu,O,u,105,1,549.6999999880791,180035.0,7083,WL,A,11.0
1,31.94000005722046,learn,28059.99994277954,Wed Mar 05 2025 18:01:51 GMT-0600 (Central Standard Time),180718.09999999404,A,but,O,t,124,1,683.0999999940395,180035.0,7083,WL,A,11.0
1,32.10599994659424,learn,27894.00005340576,Wed Mar 05 2025 18:01:51 GMT-0600 (Central Standard Time),180884.59999999404,A,butt,O,t,159,1,849.5999999940395,180035.0,7083,WL,A,11.0
1,32.18900012969971,learn,27810.999870300293,Wed Mar 05 2025 18:01:51 GMT-0600 (Central Standard Time),180967.90000000596,A,butto,O,o,73,1,932.9000000059605,180035.0,7083,WL,A,11.0
1,32.305999994277954,learn,27694.000005722046,Wed Mar 05 2025 18:01:51 GMT-0600 (Central Standard Time),181084.5,A,button,O,n,109,1,1049.5,180035.0,7083,WL,A,11.0
1,32.85599994659424,learn,27144.00005340576,Wed Mar 05 2025 18:01:51 GMT-0600 (Central Standard Time),181634.5,A,buttonenter,O,enter,528,1,1599.5,180035.0,7083,WL,A,11.0
1,46.068000078201294,learn,13931.999921798706,Wed Mar 05 2025 18:01:51 GMT-0600 (Central Standard Time),194846.90000000596,A,t,O,t,13203,1,13212.0,181634.90000000596,7083,WL,A,12.0
1,46.718000173568726,learn,13281.999826431274,Wed Mar 05 2025 18:01:51 GMT-0600 (Central Standard Time),195496.59999999404,A,tr,O,r,638,1,13861.699999988079,181634.90000000596,7083,WL,A,12.0
1,47.36800003051758,learn,12631.999969482422,Wed Mar 05 2025 18:01:51 GMT-0600 (Central Standard Time),196146.40000000596,A,tre,O,e,644,1,14511.5,181634.90000000596,7083,WL,A,12.0
1,49.78400015830994,learn,10215.999841690063,Wed Mar 05 2025 18:01:51 GMT-0600 (Central Standard Time),198562.40000000596,A,tree,O,e,2402,1,16927.5,181634.90000000596,7083,WL,A,12.0
1,52.25,learn,7750.0,Wed Mar 05 2025 18:01:51 GMT-0600 (Central Standard Time),201028.09999999404,A,treeenter,O,enter,2449,1,19393.19999998808,181634.90000000596,7083,WL,A,12.0
1,60.013999938964844,learn,-13.99993896484375,Wed Mar 05 2025 18:01:51 GMT-0600 (Central Standard Time),208792.79999998212,A,None,O,None,7760,1,7764.299999982119,201028.5,7083,WL,A,13.0
2,0.6330001354217529,learn,59366.99986457825,Wed Mar 05 2025 18:01:51 GMT-0600 (Central Standard Time),287201.2999999821,A,g,O,g,619,1,633.2999999821186,286568.0,7083,WL,A,1.0
2,0.75,learn,59250.0,Wed Mar 05 2025 18:01:51 GMT-0600 (Central Standard Time),287317.90000000596,A,go,O,o,107,1,749.9000000059605,286568.0,7083,WL,A,1.0
2,0.9660000801086426,learn,59033.99991989136,Wed Mar 05 2025 18:01:51 GMT-0600 (Central Standard Time),287534.1999999881,A,gol,O,l,207,1,966.1999999880791,286568.0,7083,WL,A,1.0
2,1.1159999370574951,learn,58884.000062942505,Wed Mar 05 2025 18:01:51 GMT-0600 (Central Standard Time),287684.40000000596,A,gold,O,d,142,1,1116.4000000059605,286568.0,7083,WL,A,1.0
2,1.8499999046325684,learn,58150.00009536743,Wed Mar 05 2025 18:01:51 GMT-0600 (Central Standard Time),288417.7999999821,A,goldenter,O,enter,711,1,1849.7999999821186,286568.0,7083,WL,A,1.0
2,2.299999952316284,learn,57700.000047683716,Wed Mar 05 2025 18:01:51 GMT-0600 (Central Standard Time),288868.2999999821,A,h,O,h,443,1,450.19999998807907,288418.09999999404,7083,WL,A,2.0
2,2.4160001277923584,learn,57583.99987220764,Wed Mar 05 2025 18:01:51 GMT-0600 (Central Standard Time),288984.09999999404,A,ha,O,a,97,1,566.0,288418.09999999404,7083,WL,A,2.0
2,2.5160000324249268,learn,57483.99996757507,Wed Mar 05 2025 18:01:51 GMT-0600 (Central Standard Time),289084.09999999404,A,har,O,r,93,1,666.0,288418.09999999404,7083,WL,A,2.0
2,2.749000072479248,learn,57250.99992752075,Wed Mar 05 2025 18:01:51 GMT-0600 (Central Standard Time),289317.09999999404,A,harp,O,p,225,1,899.0,288418.09999999404,7083,WL,A,2.0
2,3.0320000648498535,learn,56967.99993515015,Wed Mar 05 2025 18:01:51 GMT-0600 (Central Standard Time),289600.5,A,harpenter,O,enter,272,1,1182.4000000059605,288418.09999999404,7083,WL,A,2.0
2,3.249000072479248,learn,56750.99992752075,Wed Mar 05 2025 18:01:51 GMT-0600 (Central Standard Time),289817.1999999881,A,b,O,b,205,1,216.2999999821186,289600.90000000596,7083,WL,A,3.0
2,3.381999969482422,learn,56618.00003051758,Wed Mar 05 2025 18:01:51 GMT-0600 (Central Standard Time),289950.2999999821,A,bu,O,u,124,1,349.39999997615814,289600.90000000596,7083,WL,A,3.0
2,3.499000072479248,learn,56500.99992752075,Wed Mar 05 2025 18:01:51 GMT-0600 (Central Standard Time),290066.7999999821,A,but,O,t,111,1,465.89999997615814,289600.90000000596,7083,WL,A,3.0
2,3.681999921798706,learn,56318.000078201294,Wed Mar 05 2025 18:01:51 GMT-0600 (Central Standard Time),290250.2999999821,A,butt,O,t,170,1,649.3999999761581,289600.90000000596,7083,WL,A,3.0
2,3.7660000324249268,learn,56233.99996757507,Wed Mar 05 2025 18:01:51 GMT-0600 (Central Standard Time),290333.7999999821,A,butto,O,o,75,1,732.8999999761581,289600.90000000596,7083,WL,A,3.0
2,3.949000120162964,learn,56050.999879837036,Wed Mar 05 2025 18:01:51 GMT-0600 (Central Standard Time),290516.90000000596,A,button,O,n,167,1,916.0,289600.90000000596,7083,WL,A,3.0
2,4.115000009536743,learn,55884.99999046326,Wed Mar 05 2025 18:01:51 GMT-0600 (Central Standard Time),290683.5,A,buttonenter,O,enter,160,1,1082.5999999940395,289600.90000000596,7083,WL,A,3.0
2,4.449000120162964,learn,55550.999879837036,Wed Mar 05 2025 18:01:51 GMT-0600 (Central Standard Time),291016.5,A,r,O,r,314,1,332.80000001192093,290683.6999999881,7083,WL,A,4.0
2,4.631999969482422,learn,55368.00003051758,Wed Mar 05 2025 18:01:51 GMT-0600 (Central Standard Time),291200.0,A,ra,O,a,163,1,516.3000000119209,290683.6999999881,7083,WL,A,4.0
2,4.7820000648498535,learn,55217.99993515015,Wed Mar 05 2025 18:01:51 GMT-0600 (Central Standard Time),291350.09999999404,A,rat,O,t,141,1,666.4000000059605,290683.6999999881,7083,WL,A,4.0
2,4.947999954223633,learn,55052.00004577637,Wed Mar 05 2025 18:01:51 GMT-0600 (Central Standard Time),291516.5,A,ratt,O,t,151,1,832.8000000119209,290683.6999999881,7083,WL,A,4.0
2,5.065000057220459,learn,54934.99994277954,Wed Mar 05 2025 18:01:51 GMT-0600 (Central Standard Time),291633.1999999881,A,rattl,O,l,97,1,949.5,290683.6999999881,7083,WL,A,4.0
2,5.164999961853027,learn,54835.00003814697,Wed Mar 05 2025 18:01:51 GMT-0600 (Central Standard Time),291733.0,A,rattle,O,e,92,1,1049.300000011921,290683.6999999881,7083,WL,A,4.0
2,5.29800009727478,learn,54701.99990272522,Wed Mar 05 2025 18:01:51 GMT-0600 (Central Standard Time),291866.5,A,rattleenter,O,enter,112,1,1182.800000011921,290683.6999999881,7083,WL,A,4.0
2,5.615000009536743,learn,54384.99999046326,Wed Mar 05 2025 18:01:51 GMT-0600 (Central Standard Time),292182.90000000596,A,r,O,r,299,1,316.10000002384186,291866.7999999821,7083,WL,A,5.0
2,5.865000009536743,learn,54134.99999046326,Wed Mar 05 2025 18:01:51 GMT-0600 (Central Standard Time),292433.0,A,ru,O,u,238,1,566.2000000178814,291866.7999999821,7083,WL,A,5.0
2,6.04800009727478,learn,53951.99990272522,Wed Mar 05 2025 18:01:51 GMT-0600 (Central Standard Time),292616.1999999881,A,rug,O,g,164,1,749.4000000059605,291866.7999999821,7083,WL,A,5.0
2,6.265000104904175,learn,53734.999895095825,Wed Mar 05 2025 18:01:51 GMT-0600 (Central Standard Time),292832.7999999821,A,rugenter,O,enter,197,1,966.0,291866.7999999821,7083,WL,A,5.0
2,6.531000137329102,learn,53468.9998626709,Wed Mar 05 2025 18:01:51 GMT-0600 (Central Standard Time),293099.09999999404,A,m,O,m,260,1,265.90000000596046,292833.1999999881,7083,WL,A,6.0
2,6.664999961853027,learn,53335.00003814697,Wed Mar 05 2025 18:01:51 GMT-0600 (Central Standard Time),293232.7999999821,A,me,O,e,122,1,399.59999999403954,292833.1999999881,7083,WL,A,6.0
2,6.7820000648498535,learn,53217.99993515015,Wed Mar 05 2025 18:01:51 GMT-0600 (Central Standard Time),293349.59999999404,A,mea,O,a,100,1,516.4000000059605,292833.1999999881,7083,WL,A,6.0
2,6.9649999141693115,learn,53035.00008583069,Wed Mar 05 2025 18:01:51 GMT-0600 (Central Standard Time),293532.6999999881,A,mead,O,d,176,1,699.5,292833.1999999881,7083,WL,A,6.0
2,7.065000057220459,learn,52934.99994277954,Wed Mar 05 2025 18:01:51 GMT-0600 (Central Standard Time),293632.5,A,meado,O,o,88,1,799.3000000119209,292833.1999999881,7083,WL,A,6.0
2,7.180999994277954,learn,52819.000005722046,Wed Mar 05 2025 18:01:51 GMT-0600 (Central Standard Time),293749.09999999404,A,meadow,O,w,109,1,915.9000000059605,292833.1999999881,7083,WL,A,6.0
2,7.38100004196167,learn,52618.99995803833,Wed Mar 05 2025 18:01:51 GMT-0600 (Central Standard Time),293949.09999999404,A,meadowenter,O,enter,192,1,1115.9000000059605,292833.1999999881,7083,WL,A,6.0
2,7.730999946594238,learn,52269.00005340576,Wed Mar 05 2025 18:01:51 GMT-0600 (Central Standard Time),294299.09999999404,A,t,O,t,336,1,349.69999998807907,293949.40000000596,7083,WL,A,7.0
2,7.914000034332275,learn,52085.999965667725,Wed Mar 05 2025 18:01:51 GMT-0600 (Central Standard Time),294482.1999999881,A,tr,O,r,170,1,532.7999999821186,293949.40000000596,7083,WL,A,7.0
2,8.013999938964844,learn,51986.000061035156,Wed Mar 05 2025 18:01:51 GMT-0600 (Central Standard Time),294582.09999999404,A,tre,O,e,83,1,632.6999999880791,293949.40000000596,7083,WL,A,7.0
2,8.164000034332275,learn,51835.999965667725,Wed Mar 05 2025 18:01:51 GMT-0600 (Central Standard Time),294732.09999999404,A,tree,O,e,143,1,782.6999999880791,293949.40000000596,7083,WL,A,7.0
2,8.314000129699707,learn,51685.99987030029,Wed Mar 05 2025 18:01:51 GMT-0600 (Central Standard Time),294882.7999999821,A,treeenter,O,enter,137,1,933.3999999761581,293949.40000000596,7083,WL,A,7.0
2,8.579999923706055,learn,51420.000076293945,Wed Mar 05 2025 18:01:51 GMT-0600 (Central Standard Time),295148.7999999821,A,a,O,a,255,1,265.5,294883.2999999821,7083,WL,A,8.0
2,8.71399998664856,learn,51286.00001335144,Wed Mar 05 2025 18:01:51 GMT-0600 (Central Standard Time),295282.1999999881,A,ap,O,p,112,1,398.90000000596046,294883.2999999821,7083,WL,A,8.0
2,8.847000122070312,learn,51152.99987792969,Wed Mar 05 2025 18:01:51 GMT-0600 (Central Standard Time),295415.40000000596,A,app,O,p,115,1,532.1000000238419,294883.2999999821,7083,WL,A,8.0
2,9.097000122070312,learn,50902.99987792969,Wed Mar 05 2025 18:01:51 GMT-0600 (Central Standard Time),295665.2999999821,A,appl,O,l,230,1,782.0,294883.2999999821,7083,WL,A,8.0
2,9.246999979019165,learn,50753.000020980835,Wed Mar 05 2025 18:01:51 GMT-0600 (Central Standard Time),295815.2999999821,A,apple,O,e,132,1,932.0,294883.2999999821,7083,WL,A,8.0
2,9.597000122070312,learn,50402.99987792969,Wed Mar 05 2025 18:01:51 GMT-0600 (Central Standard Time),296165.09999999404,A,appleenter,O,enter,334,1,1281.800000011921,294883.2999999821,7083,WL,A,8.0
2,9.812999963760376,learn,50187.000036239624,Wed Mar 05 2025 18:01:51 GMT-0600 (Central Standard Time),296381.6999999881,A,l,O,l,200,1,216.2999999821186,296165.40000000596,7083,WL,A,9.0
2,9.996999979019165,learn,50003.000020980835,Wed Mar 05 2025 18:01:51 GMT-0600 (Central Standard Time),296565.0,A,lo,O,o,167,1,399.59999999403954,296165.40000000596,7083,WL,A,9.0
2,10.145999908447266,learn,49854.000091552734,Wed Mar 05 2025 18:01:51 GMT-0600 (Central Standard Time),296714.90000000596,A,log,O,g,136,1,549.5,296165.40000000596,7083,WL,A,9.0
2,10.446000099182129,learn,49553.99990081787,Wed Mar 05 2025 18:01:51 GMT-0600 (Central Standard Time),297015.0,A,logenter,O,enter,290,1,849.5999999940395,296165.40000000596,7083,WL,A,9.0
2,12.328999996185303,learn,47671.0000038147,Wed Mar 05 2025 18:01:51 GMT-0600 (Central Standard Time),298897.6999999881,A,m,O,m,1871,1,1882.4000000059605,297015.2999999821,7083,WL,A,10.0
2,12.480000019073486,learn,47519.999980926514,Wed Mar 05 2025 18:01:51 GMT-0600 (Central Standard Time),299048.6999999881,A,me,O,e,131,1,2033.4000000059605,297015.2999999821,7083,WL,A,10.0
2,12.645999908447266,learn,47354.000091552734,Wed Mar 05 2025 18:01:51 GMT-0600 (Central Standard Time),299214.1999999881,A,mea,O,a,156,1,2198.9000000059605,297015.2999999821,7083,WL,A,10.0
2,12.828999996185303,learn,47171.0000038147,Wed Mar 05 2025 18:01:51 GMT-0600 (Central Standard Time),299397.40000000596,A,mead,O,d,175,1,2382.100000023842,297015.2999999821,7083,WL,A,10.0
2,12.946000099182129,learn,47053.99990081787,Wed Mar 05 2025 18:01:51 GMT-0600 (Central Standard Time),299514.40000000596,A,meado,O,o,112,1,2499.100000023842,297015.2999999821,7083,WL,A,10.0
2,13.046000003814697,learn,46953.9999961853,Wed Mar 05 2025 18:01:51 GMT-0600 (Central Standard Time),299614.09999999404,A,meadow,O,w,83,1,2598.800000011921,297015.2999999821,7083,WL,A,10.0
2,13.729000091552734,learn,46270.999908447266,Wed Mar 05 2025 18:01:51 GMT-0600 (Central Standard Time),300297.0,A,meadowenter,O,enter,663,1,3281.7000000178814,297015.2999999821,7083,WL,A,10.0
2,13.92799997329712,learn,46072.00002670288,Wed Mar 05 2025 18:01:51 GMT-0600 (Central Standard Time),300497.0,A,t,O,t,180,1,199.5,300297.5,7083,WL,A,11.0
2,14.111999988555908,learn,45888.00001144409,Wed Mar 05 2025 18:01:51 GMT-0600 (Central Standard Time),300680.40000000596,A,tr,O,r,164,1,382.90000000596046,300297.5,7083,WL,A,11.0
2,14.17799997329712,learn,45822.00002670288,Wed Mar 05 2025 18:01:51 GMT-0600 (Central Standard Time),300746.7999999821,A,tra,O,a,61,1,449.2999999821186,300297.5,7083,WL,A,11.0
2,14.312000036239624,learn,45687.999963760376,Wed Mar 05 2025 18:01:51 GMT-0600 (Central Standard Time),300880.2999999821,A,trai,O,i,114,1,582.7999999821186,300297.5,7083,WL,A,11.0
2,14.378999948501587,learn,45621.00005149841,Wed Mar 05 2025 18:01:51 GMT-0600 (Central Standard Time),300948.0,A,train,O,n,61,1,650.5,300297.5,7083,WL,A,11.0
2,14.57800006866455,learn,45421.99993133545,Wed Mar 05 2025 18:01:51 GMT-0600 (Central Standard Time),301146.6999999881,A,trainenter,O,enter,192,1,849.1999999880791,300297.5,7083,WL,A,11.0
2,14.82800006866455,learn,45171.99993133545,Wed Mar 05 2025 18:01:51 GMT-0600 (Central Standard Time),301397.0,A,s,O,s,235,1,250.0,301147.0,7083,WL,A,12.0
2,15.01200008392334,learn,44987.99991607666,Wed Mar 05 2025 18:01:51 GMT-0600 (Central Standard Time),301580.09999999404,A,sa,O,a,168,1,433.09999999403954,301147.0,7083,WL,A,12.0
2,15.128000020980835,learn,44871.999979019165,Wed Mar 05 2025 18:01:51 GMT-0600 (Central Standard Time),301696.59999999404,A,sal,O,l,97,1,549.5999999940395,301147.0,7083,WL,A,12.0
2,15.227999925613403,learn,44772.0000743866,Wed Mar 05 2025 18:01:51 GMT-0600 (Central Standard Time),301796.6999999881,A,salt,O,t,93,1,649.6999999880791,301147.0,7083,WL,A,12.0
2,15.51200008392334,learn,44487.99991607666,Wed Mar 05 2025 18:01:51 GMT-0600 (Central Standard Time),302080.2999999821,A,saltenter,O,enter,273,1,933.2999999821186,301147.0,7083,WL,A,12.0
2,18.127000093460083,learn,41872.99990653992,Wed Mar 05 2025 18:01:51 GMT-0600 (Central Standard Time),304695.90000000596,A,b,O,b,2605,1,2615.4000000059605,302080.5,7083,WL,A,13.0
2,18.24399995803833,learn,41756.00004196167,Wed Mar 05 2025 18:01:51 GMT-0600 (Central Standard Time),304812.2999999821,A,bo,O,o,101,1,2731.7999999821186,302080.5,7083,WL,A,13.0
2,18.39400005340576,learn,41605.99994659424,Wed Mar 05 2025 18:01:51 GMT-0600 (Central Standard Time),304962.40000000596,A,boo,O,o,130,1,2881.9000000059605,302080.5,7083,WL,A,13.0
2,18.561000108718872,learn,41438.99989128113,Wed Mar 05 2025 18:01:51 GMT-0600 (Central Standard Time),305129.2999999821,A,book,O,k,155,1,3048.7999999821186,302080.5,7083,WL,A,13.0
2,18.776999950408936,learn,41223.000049591064,Wed Mar 05 2025 18:01:51 GMT-0600 (Central Standard Time),305345.59999999404,A,bookenter,O,enter,204,1,3265.0999999940395,302080.5,7083,WL,A,13.0
2,19.01099991798401,learn,40989.00008201599,Wed Mar 05 2025 18:01:51 GMT-0600 (Central Standard Time),305579.90000000596,A,f,O,f,227,1,234.0,305345.90000000596,7083,WL,A,14.0
2,19.127000093460083,learn,40872.99990653992,Wed Mar 05 2025 18:01:51 GMT-0600 (Central Standard Time),305695.59999999404,A,fl,O,l,97,1,349.69999998807907,305345.90000000596,7083,WL,A,14.0
2,19.276999950408936,learn,40723.000049591064,Wed Mar 05 2025 18:01:51 GMT-0600 (Central Standard Time),305845.40000000596,A,flo,O,o,142,1,499.5,305345.90000000596,7083,WL,A,14.0
2,19.39400005340576,learn,40605.99994659424,Wed Mar 05 2025 18:01:51 GMT-0600 (Central Standard Time),305962.1999999881,A,flow,O,w,96,1,616.2999999821186,305345.90000000596,7083,WL,A,14.0
2,19.41000008583069,learn,40589.99991416931,Wed Mar 05 2025 18:01:51 GMT-0600 (Central Standard Time),305978.5,A,flowe,O,e,11,1,632.5999999940395,305345.90000000596,7083,WL,A,14.0
2,19.493000030517578,learn,40506.99996948242,Wed Mar 05 2025 18:01:51 GMT-0600 (Central Standard Time),306061.90000000596,A,flower,O,r,75,1,716.0,305345.90000000596,7083,WL,A,14.0
2,19.793999910354614,learn,40206.000089645386,Wed Mar 05 2025 18:01:51 GMT-0600 (Central Standard Time),306362.0,A,flowerenter,O,enter,287,1,1016.0999999940395,305345.90000000596,7083,WL,A,14.0
2,27.45799994468689,learn,32542.00005531311,Wed Mar 05 2025 18:01:51 GMT-0600 (Central Standard Time),314026.09999999404,A,k,O,k,7651,1,7663.699999988079,306362.40000000596,7083,WL,A,15.0
2,27.52500009536743,learn,32474.99990463257,Wed Mar 05 2025 18:01:51 GMT-0600 (Central Standard Time),314093.0,A,ke,O,e,51,1,7730.5999999940395,306362.40000000596,7083,WL,A,15.0
2,27.69099998474121,learn,32309.00001525879,Wed Mar 05 2025 18:01:51 GMT-0600 (Central Standard Time),314259.40000000596,A,key,O,y,152,1,7897.0,306362.40000000596,7083,WL,A,15.0
2,27.874000072479248,learn,32125.999927520752,Wed Mar 05 2025 18:01:51 GMT-0600 (Central Standard Time),314442.6999999881,A,keyenter,O,enter,178,1,8080.299999982119,306362.40000000596,7083,WL,A,15.0
3,0.6499998569488525,learn,59350.00014305115,Wed Mar 05 2025 18:01:51 GMT-0600 (Central Standard Time),383271.09999999404,A,b,O,b,633,1,649.6999999880791,382621.40000000596,7083,WL,A,1.0
3,0.9670000076293945,learn,59032.999992370605,Wed Mar 05 2025 18:01:51 GMT-0600 (Central Standard Time),383587.6999999881,A,bo,O,o,310,1,966.2999999821186,382621.40000000596,7083,WL,A,1.0
3,1.1499998569488525,learn,58850.00014305115,Wed Mar 05 2025 18:01:51 GMT-0600 (Central Standard Time),383771.0,A,boo,O,o,162,1,1149.5999999940395,382621.40000000596,7083,WL,A,1.0
3,1.366999864578247,learn,58633.00013542175,Wed Mar 05 2025 18:01:51 GMT-0600 (Central Standard Time),383987.90000000596,A,book,O,k,202,1,1366.5,382621.40000000596,7083,WL,A,1.0
3,1.5829999446868896,learn,58417.00005531311,Wed Mar 05 2025 18:01:51 GMT-0600 (Central Standard Time),384204.40000000596,A,bookenter,O,enter,201,1,1583.0,382621.40000000596,7083,WL,A,1.0
3,1.8829998970031738,learn,58117.000102996826,Wed Mar 05 2025 18:01:51 GMT-0600 (Central Standard Time),384504.09999999404,A,m,O,m,281,1,299.30000001192093,384204.7999999821,7083,WL,A,2.0
3,2.0160000324249268,learn,57983.99996757507,Wed Mar 05 2025 18:01:51 GMT-0600 (Central Standard Time),384637.1999999881,A,me,O,e,125,1,432.40000000596046,384204.7999999821,7083,WL,A,2.0
3,2.1659998893737793,learn,57834.00011062622,Wed Mar 05 2025 18:01:51 GMT-0600 (Central Standard Time),384787.1999999881,A,mea,O,a,136,1,582.4000000059605,384204.7999999821,7083,WL,A,2.0
3,2.382999897003174,learn,57617.000102996826,Wed Mar 05 2025 18:01:51 GMT-0600 (Central Standard Time),385004.1999999881,A,mead,O,d,202,1,799.4000000059605,384204.7999999821,7083,WL,A,2.0
3,2.5160000324249268,learn,57483.99996757507,Wed Mar 05 2025 18:01:51 GMT-0600 (Central Standard Time),385137.2999999821,A,meado,O,o,113,1,932.5,384204.7999999821,7083,WL,A,2.0
3,2.6499998569488525,learn,57350.00014305115,Wed Mar 05 2025 18:01:51 GMT-0600 (Central Standard Time),385270.59999999404,A,meadow,O,w,116,1,1065.800000011921,384204.7999999821,7083,WL,A,2.0
3,2.9660000801086426,learn,57033.99991989136,Wed Mar 05 2025 18:01:51 GMT-0600 (Central Standard Time),385587.0,A,meadowenter,O,enter,302,1,1382.2000000178814,384204.7999999821,7083,WL,A,2.0
3,3.299999952316284,learn,56700.000047683716,Wed Mar 05 2025 18:01:51 GMT-0600 (Central Standard Time),385920.5,A,f,O,f,322,1,333.09999999403954,385587.40000000596,7083,WL,A,3.0
3,3.431999921798706,learn,56568.000078201294,Wed Mar 05 2025 18:01:51 GMT-0600 (Central Standard Time),386053.40000000596,A,fl,O,l,125,1,466.0,385587.40000000596,7083,WL,A,3.0
3,3.5989999771118164,learn,56401.00002288818,Wed Mar 05 2025 18:01:51 GMT-0600 (Central Standard Time),386220.09999999404,A,flo,O,o,160,1,632.6999999880791,385587.40000000596,7083,WL,A,3.0
3,3.7330000400543213,learn,56266.99995994568,Wed Mar 05 2025 18:01:51 GMT-0600 (Central Standard Time),386353.5,A,flow,O,w,121,1,766.0999999940395,385587.40000000596,7083,WL,A,3.0
3,3.7660000324249268,learn,56233.99996757507,Wed Mar 05 2025 18:01:51 GMT-0600 (Central Standard Time),386386.59999999404,A,flowe,O,e,28,1,799.1999999880791,385587.40000000596,7083,WL,A,3.0
3,3.865999937057495,learn,56134.000062942505,Wed Mar 05 2025 18:01:51 GMT-0600 (Central Standard Time),386486.7999999821,A,flower,O,r,91,1,899.3999999761581,385587.40000000596,7083,WL,A,3.0
3,4.098999977111816,learn,55901.00002288818,Wed Mar 05 2025 18:01:51 GMT-0600 (Central Standard Time),386720.1999999881,A,flowerenter,O,enter,222,1,1132.7999999821186,385587.40000000596,7083,WL,A,3.0
3,4.299000024795532,learn,55700.99997520447,Wed Mar 05 2025 18:01:51 GMT-0600 (Central Standard Time),386920.0,A,t,O,t,181,1,199.40000000596046,386720.59999999404,7083,WL,A,4.0
3,4.466000080108643,learn,55533.99991989136,Wed Mar 05 2025 18:01:51 GMT-0600 (Central Standard Time),387086.90000000596,A,tr,O,r,149,1,366.30000001192093,386720.59999999404,7083,WL,A,4.0
3,4.566999912261963,learn,55433.00008773804,Wed Mar 05 2025 18:01:51 GMT-0600 (Central Standard Time),387187.6999999881,A,tra,O,a,86,1,467.09999999403954,386720.59999999404,7083,WL,A,4.0
3,4.716000080108643,learn,55283.99991989136,Wed Mar 05 2025 18:01:51 GMT-0600 (Central Standard Time),387336.6999999881,A,trai,O,i,129,1,616.0999999940395,386720.59999999404,7083,WL,A,4.0
3,4.764999866485596,learn,55235.000133514404,Wed Mar 05 2025 18:01:51 GMT-0600 (Central Standard Time),387386.2999999821,A,train,O,n,36,1,665.6999999880791,386720.59999999404,7083,WL,A,4.0
3,5.016000032424927,learn,54983.99996757507,Wed Mar 05 2025 18:01:51 GMT-0600 (Central Standard Time),387636.6999999881,A,trainenter,O,enter,235,1,916.0999999940395,386720.59999999404,7083,WL,A,4.0
3,5.264999866485596,learn,54735.000133514404,Wed Mar 05 2025 18:01:51 GMT-0600 (Central Standard Time),387886.40000000596,A,s,O,s,240,1,249.40000000596046,387637.0,7083,WL,A,5.0
3,5.448999881744385,learn,54551.000118255615,Wed Mar 05 2025 18:01:51 GMT-0600 (Central Standard Time),388069.59999999404,A,sa,O,a,167,1,432.59999999403954,387637.0,7083,WL,A,5.0
3,5.565999984741211,learn,54434.00001525879,Wed Mar 05 2025 18:01:51 GMT-0600 (Central Standard Time),388186.5,A,sal,O,l,96,1,549.5,387637.0,7083,WL,A,5.0
3,5.681999921798706,learn,54318.000078201294,Wed Mar 05 2025 18:01:51 GMT-0600 (Central Standard Time),388302.90000000596,A,salt,O,t,99,1,665.9000000059605,387637.0,7083,WL,A,5.0
3,5.9649999141693115,learn,54035.00008583069,Wed Mar 05 2025 18:01:51 GMT-0600 (Central Standard Time),388586.2999999821,A,saltenter,O,enter,278,1,949.2999999821186,387637.0,7083,WL,A,5.0
3,6.197999954223633,learn,53802.00004577637,Wed Mar 05 2025 18:01:51 GMT-0600 (Central Standard Time),388819.40000000596,A,g,O,g,227,1,232.90000000596046,388586.5,7083,WL,A,6.0
3,6.315000057220459,learn,53684.99994277954,Wed Mar 05 2025 18:01:51 GMT-0600 (Central Standard Time),388935.90000000596,A,go,O,o,106,1,349.40000000596046,388586.5,7083,WL,A,6.0
3,6.48199987411499,learn,53518.00012588501,Wed Mar 05 2025 18:01:51 GMT-0600 (Central Standard Time),389103.0,A,gol,O,l,157,1,516.5,388586.5,7083,WL,A,6.0
3,6.615000009536743,learn,53384.99999046326,Wed Mar 05 2025 18:01:51 GMT-0600 (Central Standard Time),389236.40000000596,A,gold,O,d,118,1,649.9000000059605,388586.5,7083,WL,A,6.0
3,6.747999906539917,learn,53252.00009346008,Wed Mar 05 2025 18:01:51 GMT-0600 (Central Standard Time),389369.2999999821,A,goldenter,O,enter,111,1,782.7999999821186,388586.5,7083,WL,A,6.0
3,6.98199987411499,learn,53018.00012588501,Wed Mar 05 2025 18:01:51 GMT-0600 (Central Standard Time),389602.59999999404,A,h,O,h,220,1,233.0,389369.59999999404,7083,WL,A,7.0
3,7.115000009536743,learn,52884.99999046326,Wed Mar 05 2025 18:01:51 GMT-0600 (Central Standard Time),389735.7999999821,A,ha,O,a,123,1,366.19999998807907,389369.59999999404,7083,WL,A,7.0
3,7.247999906539917,learn,52752.00009346008,Wed Mar 05 2025 18:01:51 GMT-0600 (Central Standard Time),389869.09999999404,A,har,O,r,125,1,499.5,389369.59999999404,7083,WL,A,7.0
3,7.480999946594238,learn,52519.00005340576,Wed Mar 05 2025 18:01:51 GMT-0600 (Central Standard Time),390102.2999999821,A,harp,O,p,224,1,732.6999999880791,389369.59999999404,7083,WL,A,7.0
3,7.730999946594238,learn,52269.00005340576,Wed Mar 05 2025 18:01:51 GMT-0600 (Central Standard Time),390352.1999999881,A,harpenter,O,enter,239,1,982.5999999940395,389369.59999999404,7083,WL,A,7.0
3,8.115000009536743,learn,51884.99999046326,Wed Mar 05 2025 18:01:51 GMT-0600 (Central Standard Time),390735.59999999404,A,r,O,r,365,1,383.0,390352.59999999404,7083,WL,A,8.0
3,8.263999938964844,learn,51736.000061035156,Wed Mar 05 2025 18:01:51 GMT-0600 (Central Standard Time),390885.2999999821,A,ra,O,a,133,1,532.6999999880791,390352.59999999404,7083,WL,A,8.0
3,8.365000009536743,learn,51634.99999046326,Wed Mar 05 2025 18:01:51 GMT-0600 (Central Standard Time),390985.59999999404,A,rat,O,t,80,1,633.0,390352.59999999404,7083,WL,A,8.0
3,8.530999898910522,learn,51469.00010108948,Wed Mar 05 2025 18:01:51 GMT-0600 (Central Standard Time),391152.0,A,ratt,O,t,148,1,799.4000000059605,390352.59999999404,7083,WL,A,8.0
3,8.664000034332275,learn,51335.999965667725,Wed Mar 05 2025 18:01:51 GMT-0600 (Central Standard Time),391285.2999999821,A,rattl,O,l,117,1,932.6999999880791,390352.59999999404,7083,WL,A,8.0
3,8.780999898910522,learn,51219.00010108948,Wed Mar 05 2025 18:01:51 GMT-0600 (Central Standard Time),391401.7999999821,A,rattle,O,e,96,1,1049.199999988079,390352.59999999404,7083,WL,A,8.0
3,8.88100004196167,learn,51118.99995803833,Wed Mar 05 2025 18:01:51 GMT-0600 (Central Standard Time),391501.7999999821,A,rattleenter,O,enter,92,1,1149.199999988079,390352.59999999404,7083,WL,A,8.0
3,9.096999883651733,learn,50903.00011634827,Wed Mar 05 2025 18:01:51 GMT-0600 (Central Standard Time),391718.40000000596,A,r,O,r,208,1,216.40000000596046,391502.0,7083,WL,A,9.0
3,9.230999946594238,learn,50769.00005340576,Wed Mar 05 2025 18:01:51 GMT-0600 (Central Standard Time),391851.6999999881,A,ru,O,u,127,1,349.69999998807907,391502.0,7083,WL,A,9.0
3,9.397000074386597,learn,50602.9999256134,Wed Mar 05 2025 18:01:51 GMT-0600 (Central Standard Time),392018.40000000596,A,rug,O,g,154,1,516.4000000059605,391502.0,7083,WL,A,9.0
3,9.79699993133545,learn,50203.00006866455,Wed Mar 05 2025 18:01:51 GMT-0600 (Central Standard Time),392418.1999999881,A,rugenter,O,enter,387,1,916.1999999880791,391502.0,7083,WL,A,9.0
3,10.29699993133545,learn,49703.00006866455,Wed Mar 05 2025 18:01:51 GMT-0600 (Central Standard Time),392918.09999999404,A,a,O,a,483,1,499.5,392418.59999999404,7083,WL,A,10.0
3,10.414000034332275,learn,49585.999965667725,Wed Mar 05 2025 18:01:51 GMT-0600 (Central Standard Time),393034.5,A,ap,O,p,111,1,615.9000000059605,392418.59999999404,7083,WL,A,10.0
3,10.563999891281128,learn,49436.00010871887,Wed Mar 05 2025 18:01:51 GMT-0600 (Central Standard Time),393184.7999999821,A,app,O,p,131,1,766.1999999880791,392418.59999999404,7083,WL,A,10.0
3,10.730000019073486,learn,49269.999980926514,Wed Mar 05 2025 18:01:51 GMT-0600 (Central Standard Time),393351.1999999881,A,appl,O,l,156,1,932.5999999940395,392418.59999999404,7083,WL,A,10.0
3,10.846999883651733,learn,49153.00011634827,Wed Mar 05 2025 18:01:51 GMT-0600 (Central Standard Time),393468.0,A,apple,O,e,102,1,1049.4000000059605,392418.59999999404,7083,WL,A,10.0
3,11.147000074386597,learn,48852.9999256134,Wed Mar 05 2025 18:01:51 GMT-0600 (Central Standard Time),393767.90000000596,A,appleenter,O,enter,281,1,1349.300000011921,392418.59999999404,7083,WL,A,10.0
3,11.397000074386597,learn,48602.9999256134,Wed Mar 05 2025 18:01:51 GMT-0600 (Central Standard Time),394017.59999999404,A,k,O,k,237,1,249.30000001192093,393768.2999999821,7083,WL,A,11.0
3,11.496999979019165,learn,48503.000020980835,Wed Mar 05 2025 18:01:51 GMT-0600 (Central Standard Time),394117.90000000596,A,ke,O,e,84,1,349.60000002384186,393768.2999999821,7083,WL,A,11.0
3,11.69700002670288,learn,48302.99997329712,Wed Mar 05 2025 18:01:51 GMT-0600 (Central Standard Time),394317.6999999881,A,key,O,y,183,1,549.4000000059605,393768.2999999821,7083,WL,A,11.0
3,12.312999963760376,learn,47687.000036239624,Wed Mar 05 2025 18:01:51 GMT-0600 (Central Standard Time),394934.0,A,keyenter,O,enter,608,1,1165.7000000178814,393768.2999999821,7083,WL,A,11.0
3,13.796000003814697,learn,46203.9999961853,Wed Mar 05 2025 18:01:51 GMT-0600 (Central Standard Time),396417.5,A,t,O,t,1464,1,1483.2000000178814,394934.2999999821,7083,WL,A,12.0
3,13.963000059127808,learn,46036.99994087219,Wed Mar 05 2025 18:01:51 GMT-0600 (Central Standard Time),396583.59999999404,A,tr,O,r,156,1,1649.300000011921,394934.2999999821,7083,WL,A,12.0
3,14.062999963760376,learn,45937.000036239624,Wed Mar 05 2025 18:01:51 GMT-0600 (Central Standard Time),396683.6999999881,A,tra,O,a,86,1,1749.4000000059605,394934.2999999821,7083,WL,A,12.0
3,14.178999900817871,learn,45821.00009918213,Wed Mar 05 2025 18:01:51 GMT-0600 (Central Standard Time),396800.40000000596,A,trai,O,i,106,1,1866.1000000238419,394934.2999999821,7083,WL,A,12.0
3,14.246000051498413,learn,45753.99994850159,Wed Mar 05 2025 18:01:51 GMT-0600 (Central Standard Time),396867.1999999881,A,train,O,n,53,1,1932.9000000059605,394934.2999999821,7083,WL,A,12.0
3,14.546000003814697,learn,45453.9999961853,Wed Mar 05 2025 18:01:51 GMT-0600 (Central Standard Time),397166.90000000596,A,trainenter,O,enter,282,1,2232.600000023842,394934.2999999821,7083,WL,A,12.0
3,14.796000003814697,learn,45203.9999961853,Wed Mar 05 2025 18:01:51 GMT-0600 (Central Standard Time),397416.90000000596,A,c,O,c,231,1,249.7000000178814,397167.1999999881,7083,WL,A,13.0
3,14.895999908447266,learn,45104.000091552734,Wed Mar 05 2025 18:01:51 GMT-0600 (Central Standard Time),397516.59999999404,A,ch,O,h,92,1,349.40000000596046,397167.1999999881,7083,WL,A,13.0
3,15.046000003814697,learn,44953.9999961853,Wed Mar 05 2025 18:01:51 GMT-0600 (Central Standard Time),397666.5,A,chi,O,i,144,1,499.30000001192093,397167.1999999881,7083,WL,A,13.0
3,15.246000051498413,learn,44753.99994850159,Wed Mar 05 2025 18:01:51 GMT-0600 (Central Standard Time),397866.59999999404,A,chim,O,m,187,1,699.4000000059605,397167.1999999881,7083,WL,A,13.0
3,15.444999933242798,learn,44555.0000667572,Wed Mar 05 2025 18:01:51 GMT-0600 (Central Standard Time),398066.40000000596,A,chimn,O,n,195,1,899.2000000178814,397167.1999999881,7083,WL,A,13.0
3,15.51200008392334,learn,44487.99991607666,Wed Mar 05 2025 18:01:51 GMT-0600 (Central Standard Time),398133.09999999404,A,chimne,O,e,51,1,965.9000000059605,397167.1999999881,7083,WL,A,13.0
3,15.694999933242798,learn,44305.0000667572,Wed Mar 05 2025 18:01:51 GMT-0600 (Central Standard Time),398316.1999999881,A,chimney,O,y,168,1,1149.0,397167.1999999881,7083,WL,A,13.0
3,16.562000036239624,learn,43437.999963760376,Wed Mar 05 2025 18:01:51 GMT-0600 (Central Standard Time),399182.90000000596,A,chimneyenter,O,enter,857,1,2015.7000000178814,397167.1999999881,7083,WL,A,13.0
3,20.444000005722046,learn,39555.999994277954,Wed Mar 05 2025 18:01:51 GMT-0600 (Central Standard Time),403065.09999999404,A,h,O,h,3871,1,3881.9000000059605,399183.1999999881,7083,WL,A,14.0
3,20.543999910354614,learn,39456.000089645386,Wed Mar 05 2025 18:01:51 GMT-0600 (Central Standard Time),403165.09999999404,A,ha,O,a,92,1,3981.9000000059605,399183.1999999881,7083,WL,A,14.0
3,20.64400005340576,learn,39355.99994659424,Wed Mar 05 2025 18:01:51 GMT-0600 (Central Standard Time),403264.6999999881,A,har,O,r,88,1,4081.5,399183.1999999881,7083,WL,A,14.0
3,20.859999895095825,learn,39140.000104904175,Wed Mar 05 2025 18:01:51 GMT-0600 (Central Standard Time),403481.40000000596,A,harp,O,p,196,1,4298.200000017881,399183.1999999881,7083,WL,A,14.0
3,22.292999982833862,learn,37707.00001716614,Wed Mar 05 2025 18:01:51 GMT-0600 (Central Standard Time),404914.2999999821,A,harpenter,O,enter,1412,1,5731.0999999940395,399183.1999999881,7083,WL,A,14.0
3,23.092999935150146,learn,36907.00006484985,Wed Mar 05 2025 18:01:51 GMT-0600 (Central Standard Time),405714.1999999881,A,r,O,r,787,1,799.5,404914.6999999881,7083,WL,A,15.0
3,23.210000038146973,learn,36789.99996185303,Wed Mar 05 2025 18:01:51 GMT-0600 (Central Standard Time),405830.7999999821,A,ru,O,u,107,1,916.0999999940395,404914.6999999881,7083,WL,A,15.0
3,23.342999935150146,learn,36657.00006484985,Wed Mar 05 2025 18:01:51 GMT-0600 (Central Standard Time),405964.0,A,rug,O,g,126,1,1049.300000011921,404914.6999999881,7083,WL,A,15.0
3,23.9760000705719,learn,36023.9999294281,Wed Mar 05 2025 18:01:51 GMT-0600 (Central Standard Time),406597.09999999404,A,rugenter,O,enter,617,1,1682.4000000059605,404914.6999999881,7083,WL,A,15.0
4,0.9169998168945312,learn,59083.00018310547,Wed Mar 05 2025 18:01:51 GMT-0600 (Central Standard Time),475442.40000000596,A,b,O,b,912,1,916.2000000178814,474526.1999999881,7083,WL,A,1.0
4,1.066999912261963,learn,58933.00008773804,Wed Mar 05 2025 18:01:51 GMT-0600 (Central Standard Time),475592.1999999881,A,bo,O,o,138,1,1066.0,474526.1999999881,7083,WL,A,1.0
4,1.2170000076293945,learn,58782.999992370605,Wed Mar 05 2025 18:01:51 GMT-0600 (Central Standard Time),475742.5,A,boo,O,o,133,1,1216.300000011921,474526.1999999881,7083,WL,A,1.0
4,1.5,learn,58500.0,Wed Mar 05 2025 18:01:51 GMT-0600 (Central Standard Time),476025.40000000596,A,book,O,k,271,1,1499.2000000178814,474526.1999999881,7083,WL,A,1.0
4,2.0829999446868896,learn,57917.00005531311,Wed Mar 05 2025 18:01:51 GMT-0600 (Central Standard Time),476608.59999999404,A,bookenter,O,enter,572,1,2082.4000000059605,474526.1999999881,7083,WL,A,1.0
4,2.4659998416900635,learn,57534.00015830994,Wed Mar 05 2025 18:01:51 GMT-0600 (Central Standard Time),476991.7999999821,A,f,O,f,364,1,382.7999999821186,476609.0,7083,WL,A,2.0
4,2.549999952316284,learn,57450.000047683716,Wed Mar 05 2025 18:01:51 GMT-0600 (Central Standard Time),477075.09999999404,A,fl,O,l,69,1,466.09999999403954,476609.0,7083,WL,A,2.0
4,2.7159998416900635,learn,57284.00015830994,Wed Mar 05 2025 18:01:51 GMT-0600 (Central Standard Time),477241.7999999821,A,flo,O,o,154,1,632.7999999821186,476609.0,7083,WL,A,2.0
4,2.8329999446868896,learn,57167.00005531311,Wed Mar 05 2025 18:01:51 GMT-0600 (Central Standard Time),477358.1999999881,A,flow,O,w,99,1,749.1999999880791,476609.0,7083,WL,A,2.0
4,2.8999998569488525,learn,57100.00014305115,Wed Mar 05 2025 18:01:51 GMT-0600 (Central Standard Time),477425.09999999404,A,flowe,O,e,47,1,816.0999999940395,476609.0,7083,WL,A,2.0
4,2.9659998416900635,learn,57034.00015830994,Wed Mar 05 2025 18:01:51 GMT-0600 (Central Standard Time),477491.7999999821,A,flower,O,r,60,1,882.7999999821186,476609.0,7083,WL,A,2.0
4,3.4489998817443848,learn,56551.000118255615,Wed Mar 05 2025 18:01:51 GMT-0600 (Central Standard Time),477974.90000000596,A,flowerenter,O,enter,465,1,1365.9000000059605,476609.0,7083,WL,A,2.0
4,3.7990000247955322,learn,56200.99997520447,Wed Mar 05 2025 18:01:51 GMT-0600 (Central Standard Time),478324.59999999404,A,t,O,t,335,1,349.40000000596046,477975.1999999881,7083,WL,A,3.0
4,3.9659998416900635,learn,56034.00015830994,Wed Mar 05 2025 18:01:51 GMT-0600 (Central Standard Time),478491.0,A,tr,O,r,161,1,515.8000000119209,477975.1999999881,7083,WL,A,3.0
4,4.08299994468689,learn,55917.00005531311,Wed Mar 05 2025 18:01:51 GMT-0600 (Central Standard Time),478608.1999999881,A,tra,O,a,106,1,633.0,477975.1999999881,7083,WL,A,3.0
4,4.198999881744385,learn,55801.000118255615,Wed Mar 05 2025 18:01:51 GMT-0600 (Central Standard Time),478724.59999999404,A,trai,O,i,101,1,749.4000000059605,477975.1999999881,7083,WL,A,3.0
4,4.2829999923706055,learn,55717.000007629395,Wed Mar 05 2025 18:01:51 GMT-0600 (Central Standard Time),478808.0,A,train,O,n,73,1,832.8000000119209,477975.1999999881,7083,WL,A,3.0
4,4.498999834060669,learn,55501.00016593933,Wed Mar 05 2025 18:01:51 GMT-0600 (Central Standard Time),479024.59999999404,A,trainenter,O,enter,205,1,1049.4000000059605,477975.1999999881,7083,WL,A,3.0
4,4.748999834060669,learn,55251.00016593933,Wed Mar 05 2025 18:01:51 GMT-0600 (Central Standard Time),479274.40000000596,A,m,O,m,245,1,249.60000002384186,479024.7999999821,7083,WL,A,4.0
4,4.881999969482422,learn,55118.00003051758,Wed Mar 05 2025 18:01:51 GMT-0600 (Central Standard Time),479407.59999999404,A,me,O,e,115,1,382.80000001192093,479024.7999999821,7083,WL,A,4.0
4,4.998999834060669,learn,55001.00016593933,Wed Mar 05 2025 18:01:51 GMT-0600 (Central Standard Time),479524.2999999821,A,mea,O,a,110,1,499.5,479024.7999999821,7083,WL,A,4.0
4,5.181999921798706,learn,54818.000078201294,Wed Mar 05 2025 18:01:51 GMT-0600 (Central Standard Time),479707.5,A,mead,O,d,177,1,682.7000000178814,479024.7999999821,7083,WL,A,4.0
4,5.299000024795532,learn,54700.99997520447,Wed Mar 05 2025 18:01:51 GMT-0600 (Central Standard Time),479824.2999999821,A,meado,O,o,106,1,799.5,479024.7999999821,7083,WL,A,4.0
4,5.414999961853027,learn,54585.00003814697,Wed Mar 05 2025 18:01:51 GMT-0600 (Central Standard Time),479940.90000000596,A,meadow,O,w,101,1,916.1000000238419,479024.7999999821,7083,WL,A,4.0
4,5.648999929428101,learn,54351.0000705719,Wed Mar 05 2025 18:01:51 GMT-0600 (Central Standard Time),480174.09999999404,A,meadowenter,O,enter,224,1,1149.300000011921,479024.7999999821,7083,WL,A,4.0
4,5.931999921798706,learn,54068.000078201294,Wed Mar 05 2025 18:01:51 GMT-0600 (Central Standard Time),480457.40000000596,A,r,O,r,271,1,282.90000000596046,480174.5,7083,WL,A,5.0
4,6.082000017166138,learn,53917.99998283386,Wed Mar 05 2025 18:01:51 GMT-0600 (Central Standard Time),480607.2999999821,A,ru,O,u,132,1,432.7999999821186,480174.5,7083,WL,A,5.0
4,6.248999834060669,learn,53751.00016593933,Wed Mar 05 2025 18:01:51 GMT-0600 (Central Standard Time),480774.0,A,rug,O,g,158,1,599.5,480174.5,7083,WL,A,5.0
4,6.631999969482422,learn,53368.00003051758,Wed Mar 05 2025 18:01:51 GMT-0600 (Central Standard Time),481157.1999999881,A,rugenter,O,enter,376,1,982.6999999880791,480174.5,7083,WL,A,5.0
4,6.931999921798706,learn,53068.000078201294,Wed Mar 05 2025 18:01:51 GMT-0600 (Central Standard Time),481457.40000000596,A,s,O,s,280,1,299.90000000596046,481157.5,7083,WL,A,6.0
4,7.115000009536743,learn,52884.99999046326,Wed Mar 05 2025 18:01:51 GMT-0600 (Central Standard Time),481640.1999999881,A,sa,O,a,164,1,482.69999998807907,481157.5,7083,WL,A,6.0
4,7.2149999141693115,learn,52785.00008583069,Wed Mar 05 2025 18:01:51 GMT-0600 (Central Standard Time),481740.2999999821,A,sal,O,l,93,1,582.7999999821186,481157.5,7083,WL,A,6.0
4,7.3480000495910645,learn,52651.999950408936,Wed Mar 05 2025 18:01:51 GMT-0600 (Central Standard Time),481873.5,A,salt,O,t,121,1,716.0,481157.5,7083,WL,A,6.0
4,7.547999858856201,learn,52452.0001411438,Wed Mar 05 2025 18:01:51 GMT-0600 (Central Standard Time),482073.59999999404,A,saltenter,O,enter,180,1,916.0999999940395,481157.5,7083,WL,A,6.0
4,7.898000001907349,learn,52101.99999809265,Wed Mar 05 2025 18:01:51 GMT-0600 (Central Standard Time),482423.40000000596,A,c,O,c,332,1,349.40000000596046,482074.0,7083,WL,A,7.0
4,8.013999938964844,learn,51986.000061035156,Wed Mar 05 2025 18:01:51 GMT-0600 (Central Standard Time),482540.0,A,ch,O,h,110,1,466.0,482074.0,7083,WL,A,7.0
4,8.164999961853027,learn,51835.00003814697,Wed Mar 05 2025 18:01:51 GMT-0600 (Central Standard Time),482690.0,A,chi,O,i,137,1,616.0,482074.0,7083,WL,A,7.0
4,8.365000009536743,learn,51634.99999046326,Wed Mar 05 2025 18:01:51 GMT-0600 (Central Standard Time),482890.0,A,chim,O,m,187,1,816.0,482074.0,7083,WL,A,7.0
4,8.563999891281128,learn,51436.00010871887,Wed Mar 05 2025 18:01:51 GMT-0600 (Central Standard Time),483089.90000000596,A,chimn,O,n,179,1,1015.9000000059605,482074.0,7083,WL,A,7.0
4,8.613999843597412,learn,51386.00015640259,Wed Mar 05 2025 18:01:51 GMT-0600 (Central Standard Time),483139.7999999821,A,chimne,O,e,44,1,1065.7999999821186,482074.0,7083,WL,A,7.0
4,8.797999858856201,learn,51202.0001411438,Wed Mar 05 2025 18:01:51 GMT-0600 (Central Standard Time),483323.0,A,chimney,O,y,177,1,1249.0,482074.0,7083,WL,A,7.0
4,9.096999883651733,learn,50903.00011634827,Wed Mar 05 2025 18:01:51 GMT-0600 (Central Standard Time),483622.90000000596,A,chimneyenter,O,enter,290,1,1548.9000000059605,482074.0,7083,WL,A,7.0
4,9.414000034332275,learn,50585.999965667725,Wed Mar 05 2025 18:01:51 GMT-0600 (Central Standard Time),483939.7999999821,A,g,O,g,302,1,316.59999999403954,483623.1999999881,7083,WL,A,8.0
4,9.513999938964844,learn,50486.000061035156,Wed Mar 05 2025 18:01:51 GMT-0600 (Central Standard Time),484039.5,A,go,O,o,81,1,416.30000001192093,483623.1999999881,7083,WL,A,8.0
4,9.680999994277954,learn,50319.000005722046,Wed Mar 05 2025 18:01:51 GMT-0600 (Central Standard Time),484206.0,A,gol,O,l,150,1,582.8000000119209,483623.1999999881,7083,WL,A,8.0
4,9.813999891281128,learn,50186.00010871887,Wed Mar 05 2025 18:01:51 GMT-0600 (Central Standard Time),484339.6999999881,A,gold,O,d,119,1,716.5,483623.1999999881,7083,WL,A,8.0
4,9.96399998664856,learn,50036.00001335144,Wed Mar 05 2025 18:01:51 GMT-0600 (Central Standard Time),484489.2999999821,A,goldenter,O,enter,137,1,866.0999999940395,483623.1999999881,7083,WL,A,8.0
4,10.230999946594238,learn,49769.00005340576,Wed Mar 05 2025 18:01:51 GMT-0600 (Central Standard Time),484756.0,A,r,O,r,252,1,266.40000000596046,484489.59999999404,7083,WL,A,9.0
4,10.396999835968018,learn,49603.00016403198,Wed Mar 05 2025 18:01:51 GMT-0600 (Central Standard Time),484922.5,A,ra,O,a,161,1,432.90000000596046,484489.59999999404,7083,WL,A,9.0
4,10.563999891281128,learn,49436.00010871887,Wed Mar 05 2025 18:01:51 GMT-0600 (Central Standard Time),485089.40000000596,A,rat,O,t,155,1,599.8000000119209,484489.59999999404,7083,WL,A,9.0
4,10.71399998664856,learn,49286.00001335144,Wed Mar 05 2025 18:01:51 GMT-0600 (Central Standard Time),485239.2999999821,A,ratt,O,t,140,1,749.6999999880791,484489.59999999404,7083,WL,A,9.0
4,10.848000049591064,learn,49151.999950408936,Wed Mar 05 2025 18:01:51 GMT-0600 (Central Standard Time),485373.6999999881,A,rattl,O,l,118,1,884.0999999940395,484489.59999999404,7083,WL,A,9.0
4,10.96399998664856,learn,49036.00001335144,Wed Mar 05 2025 18:01:51 GMT-0600 (Central Standard Time),485489.1999999881,A,rattle,O,e,103,1,999.5999999940395,484489.59999999404,7083,WL,A,9.0
4,11.846999883651733,learn,48153.00011634827,Wed Mar 05 2025 18:01:51 GMT-0600 (Central Standard Time),486372.09999999404,A,rattleenter,O,enter,868,1,1882.5,484489.59999999404,7083,WL,A,9.0
4,16.394999980926514,learn,43605.000019073486,Wed Mar 05 2025 18:01:51 GMT-0600 (Central Standard Time),490920.7999999821,A,r,O,r,4537,1,4548.399999976158,486372.40000000596,7083,WL,A,10.0
4,16.544999837875366,learn,43455.000162124634,Wed Mar 05 2025 18:01:51 GMT-0600 (Central Standard Time),491070.7999999821,A,ru,O,u,140,1,4698.399999976158,486372.40000000596,7083,WL,A,10.0
4,16.77900004386902,learn,43220.99995613098,Wed Mar 05 2025 18:01:51 GMT-0600 (Central Standard Time),491304.09999999404,A,rug,O,g,223,1,4931.699999988079,486372.40000000596,7083,WL,A,10.0
4,16.944999933242798,learn,43055.0000667572,Wed Mar 05 2025 18:01:51 GMT-0600 (Central Standard Time),491470.59999999404,A,rugenter,O,enter,150,1,5098.199999988079,486372.40000000596,7083,WL,A,10.0
4,17.09500002861023,learn,42904.99997138977,Wed Mar 05 2025 18:01:51 GMT-0600 (Central Standard Time),491620.5,A,f,O,f,135,1,149.59999999403954,491470.90000000596,7083,WL,A,11.0
4,17.227999925613403,learn,42772.0000743866,Wed Mar 05 2025 18:01:51 GMT-0600 (Central Standard Time),491753.7999999821,A,fi,O,i,113,1,282.89999997615814,491470.90000000596,7083,WL,A,11.0
4,17.32799983024597,learn,42672.00016975403,Wed Mar 05 2025 18:01:51 GMT-0600 (Central Standard Time),491853.6999999881,A,fin,O,n,84,1,382.7999999821186,491470.90000000596,7083,WL,A,11.0
4,17.444999933242798,learn,42555.0000667572,Wed Mar 05 2025 18:01:51 GMT-0600 (Central Standard Time),491970.6999999881,A,fing,O,g,97,1,499.7999999821186,491470.90000000596,7083,WL,A,11.0
4,17.628000020980835,learn,42371.999979019165,Wed Mar 05 2025 18:01:51 GMT-0600 (Central Standard Time),492153.7999999821,A,finge,O,e,163,1,682.8999999761581,491470.90000000596,7083,WL,A,11.0
4,17.66100001335144,learn,42338.99998664856,Wed Mar 05 2025 18:01:51 GMT-0600 (Central Standard Time),492186.6999999881,A,finger,O,r,28,1,715.7999999821186,491470.90000000596,7083,WL,A,11.0
4,18.378000020980835,learn,41621.999979019165,Wed Mar 05 2025 18:01:51 GMT-0600 (Central Standard Time),492903.5,A,fingerenter,O,enter,699,1,1432.5999999940395,491470.90000000596,7083,WL,A,11.0
4,19.49399995803833,learn,40506.00004196167,Wed Mar 05 2025 18:01:51 GMT-0600 (Central Standard Time),494019.90000000596,A,a,O,a,1102,1,1116.1000000238419,492903.7999999821,7083,WL,A,12.0
4,19.727999925613403,learn,40272.0000743866,Wed Mar 05 2025 18:01:51 GMT-0600 (Central Standard Time),494253.09999999404,A,ap,O,p,217,1,1349.300000011921,492903.7999999821,7083,WL,A,12.0
4,19.893999814987183,learn,40106.00018501282,Wed Mar 05 2025 18:01:51 GMT-0600 (Central Standard Time),494419.7999999821,A,app,O,p,152,1,1516.0,492903.7999999821,7083,WL,A,12.0
4,20.07799983024597,learn,39922.00016975403,Wed Mar 05 2025 18:01:51 GMT-0600 (Central Standard Time),494603.0,A,appl,O,l,170,1,1699.2000000178814,492903.7999999821,7083,WL,A,12.0
4,20.227999925613403,learn,39772.0000743866,Wed Mar 05 2025 18:01:51 GMT-0600 (Central Standard Time),494752.90000000596,A,apple,O,e,138,1,1849.1000000238419,492903.7999999821,7083,WL,A,12.0
4,20.560999870300293,learn,39439.00012969971,Wed Mar 05 2025 18:01:51 GMT-0600 (Central Standard Time),495086.1999999881,A,appleenter,O,enter,324,1,2182.4000000059605,492903.7999999821,7083,WL,A,12.0
4,35.00600004196167,learn,24993.99995803833,Wed Mar 05 2025 18:01:51 GMT-0600 (Central Standard Time),509531.40000000596,A,k,O,k,14431,1,14444.90000000596,495086.5,7083,WL,A,13.0
4,35.139999866485596,learn,24860.000133514404,Wed Mar 05 2025 18:01:51 GMT-0600 (Central Standard Time),509665.0,A,ke,O,e,113,1,14578.5,495086.5,7083,WL,A,13.0
4,35.33899998664856,learn,24661.00001335144,Wed Mar 05 2025 18:01:51 GMT-0600 (Central Standard Time),509864.7999999821,A,key,O,y,188,1,14778.299999982119,495086.5,7083,WL,A,13.0
4,35.90599989891052,learn,24094.000101089478,Wed Mar 05 2025 18:01:51 GMT-0600 (Central Standard Time),510431.2999999821,A,keyenter,O,enter,557,1,15344.799999982119,495086.5,7083,WL,A,13.0
4,36.47199988365173,learn,23528.000116348267,Wed Mar 05 2025 18:01:51 GMT-0600 (Central Standard Time),510997.7999999821,A,l,O,l,550,1,566.2999999821186,510431.5,7083,WL,A,14.0
4,36.621999979019165,learn,23378.000020980835,Wed Mar 05 2025 18:01:51 GMT-0600 (Central Standard Time),511147.59999999404,A,lo,O,o,136,1,716.0999999940395,510431.5,7083,WL,A,14.0
4,36.75600004196167,learn,23243.99995803833,Wed Mar 05 2025 18:01:51 GMT-0600 (Central Standard Time),511281.1999999881,A,log,O,g,114,1,849.6999999880791,510431.5,7083,WL,A,14.0
4,36.92199993133545,learn,23078.00006866455,Wed Mar 05 2025 18:01:51 GMT-0600 (Central Standard Time),511447.59999999404,A,logenter,O,enter,156,1,1016.0999999940395,510431.5,7083,WL,A,14.0
4,43.58699989318848,learn,16413.000106811523,Wed Mar 05 2025 18:01:51 GMT-0600 (Central Standard Time),518112.1999999881,A,t,O,t,6653,1,6664.299999982119,511447.90000000596,7083,WL,A,15.0
4,43.753000020980835,learn,16246.999979019165,Wed Mar 05 2025 18:01:51 GMT-0600 (Central Standard Time),518278.7999999821,A,tr,O,r,157,1,6830.899999976158,511447.90000000596,7083,WL,A,15.0
4,43.853999853134155,learn,16146.000146865845,Wed Mar 05 2025 18:01:51 GMT-0600 (Central Standard Time),518379.0,A,tra,O,a,86,1,6931.0999999940395,511447.90000000596,7083,WL,A,15.0
4,43.98699998855591,learn,16013.000011444092,Wed Mar 05 2025 18:01:51 GMT-0600 (Central Standard Time),518512.2999999821,A,trai,O,i,115,1,7064.399999976158,511447.90000000596,7083,WL,A,15.0
4,44.0699999332428,learn,15930.000066757202,Wed Mar 05 2025 18:01:51 GMT-0600 (Central Standard Time),518595.1999999881,A,train,O,n,69,1,7147.299999982119,511447.90000000596,7083,WL,A,15.0
4,44.38699984550476,learn,15613.00015449524,Wed Mar 05 2025 18:01:51 GMT-0600 (Central Standard Time),518911.90000000596,A,trainenter,O,enter,298,1,7464.0,511447.90000000596,7083,WL,A,15.0
5,0.6180000305175781,learn,60000.0,Wed Mar 05 2025 18:01:51 GMT-0600 (Central Standard Time),586425.5,A,b,O,b,598,1,617.7000000178814,585807.7999999821,7083,WL,A,1.0
5,0.7330000400543213,learn,60000.0,Wed Mar 05 2025 18:01:51 GMT-0600 (Central Standard Time),586541.0,A,bo,O,o,107,1,733.2000000178814,585807.7999999821,7083,WL,A,1.0
5,0.9000000953674316,learn,60000.0,Wed Mar 05 2025 18:01:51 GMT-0600 (Central Standard Time),586707.400000006,A,boo,O,o,152,1,899.6000000238419,585807.7999999821,7083,WL,A,1.0
5,1.1000001430511475,learn,60000.0,Wed Mar 05 2025 18:01:51 GMT-0600 (Central Standard Time),586907.1999999881,A,book,O,k,186,1,1099.4000000059605,585807.7999999821,7083,WL,A,1.0
5,1.56600022315979,learn,60000.0,Wed Mar 05 2025 18:01:51 GMT-0600 (Central Standard Time),587374.0,A,bookenter,O,enter,450,1,1566.2000000178814,585807.7999999821,7083,WL,A,1.0
5,1.883000135421753,learn,60000.0,Wed Mar 05 2025 18:01:51 GMT-0600 (Central Standard Time),587690.599999994,A,f,O,f,296,1,316.30000001192093,587374.2999999821,7083,WL,A,2.0
5,1.9660000801086426,learn,60000.0,Wed Mar 05 2025 18:01:51 GMT-0600 (Central Standard Time),587773.7999999821,A,fl,O,l,67,1,399.5,587374.2999999821,7083,WL,A,2.0
5,2.116000175476074,learn,60000.0,Wed Mar 05 2025 18:01:51 GMT-0600 (Central Standard Time),587923.599999994,A,flo,O,o,144,1,549.3000000119209,587374.2999999821,7083,WL,A,2.0
5,2.249000072479248,learn,60000.0,Wed Mar 05 2025 18:01:51 GMT-0600 (Central Standard Time),588056.7999999821,A,flow,O,w,114,1,682.5,587374.2999999821,7083,WL,A,2.0
5,2.2990000247955322,learn,60000.0,Wed Mar 05 2025 18:01:51 GMT-0600 (Central Standard Time),588107.099999994,A,flowe,O,e,37,1,732.8000000119209,587374.2999999821,7083,WL,A,2.0
5,2.3990001678466797,learn,60000.0,Wed Mar 05 2025 18:01:51 GMT-0600 (Central Standard Time),588206.7999999821,A,flower,O,r,90,1,832.5,587374.2999999821,7083,WL,A,2.0
5,3.2160000801086426,learn,60000.0,Wed Mar 05 2025 18:01:51 GMT-0600 (Central Standard Time),589023.1999999881,A,flowerenter,O,enter,798,1,1648.9000000059605,587374.2999999821,7083,WL,A,2.0
5,3.7320001125335693,learn,60000.0,Wed Mar 05 2025 18:01:51 GMT-0600 (Central Standard Time),589539.900000006,A,m,O,m,510,1,516.4000000059605,589023.5,7083,WL,A,3.0
5,3.866000175476074,learn,60000.0,Wed Mar 05 2025 18:01:51 GMT-0600 (Central Standard Time),589673.1999999881,A,me,O,e,113,1,649.6999999880791,589023.5,7083,WL,A,3.0
5,3.9650001525878906,learn,60000.0,Wed Mar 05 2025 18:01:51 GMT-0600 (Central Standard Time),589772.7999999821,A,mea,O,a,92,1,749.2999999821186,589023.5,7083,WL,A,3.0
5,4.14900016784668,learn,60000.0,Wed Mar 05 2025 18:01:51 GMT-0600 (Central Standard Time),589956.2999999821,A,mead,O,d,177,1,932.7999999821186,589023.5,7083,WL,A,3.0
5,4.249000072479248,learn,60000.0,Wed Mar 05 2025 18:01:51 GMT-0600 (Central Standard Time),590056.400000006,A,meado,O,o,81,1,1032.9000000059605,589023.5,7083,WL,A,3.0
5,4.3490002155303955,learn,60000.0,Wed Mar 05 2025 18:01:51 GMT-0600 (Central Standard Time),590156.1999999881,A,meadow,O,w,85,1,1132.699999988079,589023.5,7083,WL,A,3.0
5,4.582000017166138,learn,60000.0,Wed Mar 05 2025 18:01:51 GMT-0600 (Central Standard Time),590389.599999994,A,meadowenter,O,enter,217,1,1366.0999999940395,589023.5,7083,WL,A,3.0
5,4.832000017166138,learn,60000.0,Wed Mar 05 2025 18:01:51 GMT-0600 (Central Standard Time),590639.5,A,r,O,r,232,1,249.59999999403954,590389.900000006,7083,WL,A,4.0
5,4.948000192642212,learn,60000.0,Wed Mar 05 2025 18:01:51 GMT-0600 (Central Standard Time),590756.099999994,A,ru,O,u,102,1,366.19999998807907,590389.900000006,7083,WL,A,4.0
5,5.14900016784668,learn,60000.0,Wed Mar 05 2025 18:01:51 GMT-0600 (Central Standard Time),590956.1999999881,A,rug,O,g,185,1,566.2999999821186,590389.900000006,7083,WL,A,4.0
5,5.448000192642212,learn,60000.0,Wed Mar 05 2025 18:01:51 GMT-0600 (Central Standard Time),591256.0,A,rugenter,O,enter,289,1,866.0999999940395,590389.900000006,7083,WL,A,4.0
5,5.680999994277954,learn,60000.0,Wed Mar 05 2025 18:01:51 GMT-0600 (Central Standard Time),591489.0,A,t,O,t,222,1,232.80000001192093,591256.1999999881,7083,WL,A,5.0
5,5.8480000495910645,learn,60000.0,Wed Mar 05 2025 18:01:51 GMT-0600 (Central Standard Time),591655.7999999821,A,tr,O,r,156,1,399.59999999403954,591256.1999999881,7083,WL,A,5.0
5,5.948000192642212,learn,60000.0,Wed Mar 05 2025 18:01:51 GMT-0600 (Central Standard Time),591755.7999999821,A,tra,O,a,94,1,499.59999999403954,591256.1999999881,7083,WL,A,5.0
5,6.065000057220459,learn,60000.0,Wed Mar 05 2025 18:01:51 GMT-0600 (Central Standard Time),591872.5,A,trai,O,i,98,1,616.3000000119209,591256.1999999881,7083,WL,A,5.0
5,6.13100004196167,learn,60000.0,Wed Mar 05 2025 18:01:51 GMT-0600 (Central Standard Time),591938.900000006,A,train,O,n,61,1,682.7000000178814,591256.1999999881,7083,WL,A,5.0
5,6.709000110626221,learn,60000.0,Wed Mar 05 2025 18:01:51 GMT-0600 (Central Standard Time),592517.1999999881,A,trains,O,s,573,1,1261.0,591256.1999999881,7083,WL,A,5.0
5,7.414000034332275,learn,60000.0,Wed Mar 05 2025 18:01:51 GMT-0600 (Central Standard Time),593222.0,A,train,O,backspace,696,1,1965.800000011921,591256.1999999881,7083,WL,A,5.0
5,7.781000137329102,learn,60000.0,Wed Mar 05 2025 18:01:51 GMT-0600 (Central Standard Time),593588.400000006,A,trainenter,O,enter,351,1,2332.2000000178814,591256.1999999881,7083,WL,A,5.0
5,8.148000001907349,learn,60000.0,Wed Mar 05 2025 18:01:51 GMT-0600 (Central Standard Time),593955.1999999881,A,s,O,s,353,1,366.5,593588.6999999881,7083,WL,A,6.0
5,8.331000089645386,learn,60000.0,Wed Mar 05 2025 18:01:51 GMT-0600 (Central Standard Time),594138.5,A,sa,O,a,162,1,549.8000000119209,593588.6999999881,7083,WL,A,6.0
5,8.44700002670288,learn,60000.0,Wed Mar 05 2025 18:01:51 GMT-0600 (Central Standard Time),594255.0,A,sal,O,l,107,1,666.3000000119209,593588.6999999881,7083,WL,A,6.0
5,8.580000162124634,learn,60000.0,Wed Mar 05 2025 18:01:51 GMT-0600 (Central Standard Time),594388.2999999821,A,salt,O,t,118,1,799.5999999940395,593588.6999999881,7083,WL,A,6.0
5,9.813000202178955,learn,60000.0,Wed Mar 05 2025 18:01:51 GMT-0600 (Central Standard Time),595621.400000006,A,saltenter,O,enter,1225,1,2032.7000000178814,593588.6999999881,7083,WL,A,6.0
5,10.11300015449524,learn,60000.0,Wed Mar 05 2025 18:01:51 GMT-0600 (Central Standard Time),595921.1999999881,A,f,O,f,280,1,299.5,595621.6999999881,7083,WL,A,7.0
5,10.230000019073486,learn,60000.0,Wed Mar 05 2025 18:01:51 GMT-0600 (Central Standard Time),596037.900000006,A,fi,O,i,100,1,416.2000000178814,595621.6999999881,7083,WL,A,7.0
5,10.331000089645386,learn,60000.0,Wed Mar 05 2025 18:01:51 GMT-0600 (Central Standard Time),596138.6999999881,A,fin,O,n,88,1,517.0,595621.6999999881,7083,WL,A,7.0
5,10.463000059127808,learn,60000.0,Wed Mar 05 2025 18:01:51 GMT-0600 (Central Standard Time),596271.1999999881,A,fing,O,g,114,1,649.5,595621.6999999881,7083,WL,A,7.0
5,10.61300015449524,learn,60000.0,Wed Mar 05 2025 18:01:51 GMT-0600 (Central Standard Time),596421.099999994,A,finge,O,e,134,1,799.4000000059605,595621.6999999881,7083,WL,A,7.0
5,10.663000106811523,learn,60000.0,Wed Mar 05 2025 18:01:51 GMT-0600 (Central Standard Time),596470.900000006,A,finger,O,r,40,1,849.2000000178814,595621.6999999881,7083,WL,A,7.0
5,10.946000099182129,learn,60000.0,Wed Mar 05 2025 18:01:51 GMT-0600 (Central Standard Time),596754.1999999881,A,fingerenter,O,enter,262,1,1132.5,595621.6999999881,7083,WL,A,7.0
5,11.146000146865845,learn,60000.0,Wed Mar 05 2025 18:01:51 GMT-0600 (Central Standard Time),596954.1999999881,A,a,O,a,179,1,199.59999999403954,596754.599999994,7083,WL,A,8.0
5,11.330000162124634,learn,60000.0,Wed Mar 05 2025 18:01:51 GMT-0600 (Central Standard Time),597137.400000006,A,ap,O,p,171,1,382.80000001192093,596754.599999994,7083,WL,A,8.0
5,11.53000020980835,learn,60000.0,Wed Mar 05 2025 18:01:51 GMT-0600 (Central Standard Time),597337.599999994,A,app,O,p,180,1,583.0,596754.599999994,7083,WL,A,8.0
5,11.713000059127808,learn,60000.0,Wed Mar 05 2025 18:01:51 GMT-0600 (Central Standard Time),597520.599999994,A,appl,O,l,172,1,766.0,596754.599999994,7083,WL,A,8.0
5,11.880000114440918,learn,60000.0,Wed Mar 05 2025 18:01:51 GMT-0600 (Central Standard Time),597687.400000006,A,apple,O,e,149,1,932.8000000119209,596754.599999994,7083,WL,A,8.0
5,12.729000091552734,learn,60000.0,Wed Mar 05 2025 18:01:51 GMT-0600 (Central Standard Time),598537.0,A,appleenter,O,enter,837,1,1782.4000000059605,596754.599999994,7083,WL,A,8.0
5,13.379000186920166,learn,60000.0,Wed Mar 05 2025 18:01:51 GMT-0600 (Central Standard Time),599186.5,A,l,O,l,644,1,649.0999999940395,598537.400000006,7083,WL,A,9.0
5,13.546000003814697,learn,60000.0,Wed Mar 05 2025 18:01:51 GMT-0600 (Central Standard Time),599353.5,A,lo,O,o,155,1,816.0999999940395,598537.400000006,7083,WL,A,9.0
5,13.695000171661377,learn,60000.0,Wed Mar 05 2025 18:01:51 GMT-0600 (Central Standard Time),599503.400000006,A,log,O,g,140,1,966.0,598537.400000006,7083,WL,A,9.0
5,14.01200008392334,learn,60000.0,Wed Mar 05 2025 18:01:51 GMT-0600 (Central Standard Time),599820.0,A,logenter,O,enter,310,1,1282.5999999940395,598537.400000006,7083,WL,A,9.0
5,14.495000123977661,learn,60000.0,Wed Mar 05 2025 18:01:51 GMT-0600 (Central Standard Time),600303.1999999881,A,h,O,h,466,1,482.90000000596046,599820.2999999821,7083,WL,A,10.0
5,14.578999996185303,learn,60000.0,Wed Mar 05 2025 18:01:51 GMT-0600 (Central Standard Time),600386.400000006,A,ha,O,a,70,1,566.1000000238419,599820.2999999821,7083,WL,A,10.0
5,14.695000171661377,learn,60000.0,Wed Mar 05 2025 18:01:51 GMT-0600 (Central Standard Time),600503.2999999821,A,har,O,r,107,1,683.0,599820.2999999821,7083,WL,A,10.0
5,14.82800006866455,learn,60000.0,Wed Mar 05 2025 18:01:51 GMT-0600 (Central Standard Time),600636.400000006,A,harp,O,p,126,1,816.1000000238419,599820.2999999821,7083,WL,A,10.0
5,15.062000036239624,learn,60000.0,Wed Mar 05 2025 18:01:51 GMT-0600 (Central Standard Time),600869.7999999821,A,harpenter,O,enter,225,1,1049.5,599820.2999999821,7083,WL,A,10.0
5,15.462000131607056,learn,60000.0,Wed Mar 05 2025 18:01:51 GMT-0600 (Central Standard Time),601269.5,A,g,O,g,391,1,399.40000000596046,600870.099999994,7083,WL,A,11.0
5,15.545000076293945,learn,60000.0,Wed Mar 05 2025 18:01:51 GMT-0600 (Central Standard Time),601352.7999999821,A,go,O,o,72,1,482.69999998807907,600870.099999994,7083,WL,A,11.0
5,15.712000131607056,learn,60000.0,Wed Mar 05 2025 18:01:51 GMT-0600 (Central Standard Time),601519.2999999821,A,gol,O,l,149,1,649.1999999880791,600870.099999994,7083,WL,A,11.0
5,15.795000076293945,learn,60000.0,Wed Mar 05 2025 18:01:51 GMT-0600 (Central Standard Time),601602.5,A,gold,O,d,78,1,732.4000000059605,600870.099999994,7083,WL,A,11.0
5,16.16200017929077,learn,60000.0,Wed Mar 05 2025 18:01:51 GMT-0600 (Central Standard Time),601969.5,A,goldenter,O,enter,347,1,1099.4000000059605,600870.099999994,7083,WL,A,11.0
5,16.478000164031982,learn,60000.0,Wed Mar 05 2025 18:01:51 GMT-0600 (Central Standard Time),602285.900000006,A,r,O,r,300,1,316.10000002384186,601969.7999999821,7083,WL,A,12.0
5,16.628000020980835,learn,60000.0,Wed Mar 05 2025 18:01:51 GMT-0600 (Central Standard Time),602435.7999999821,A,ra,O,a,135,1,466.0,601969.7999999821,7083,WL,A,12.0
5,16.778000116348267,learn,60000.0,Wed Mar 05 2025 18:01:51 GMT-0600 (Central Standard Time),602585.7999999821,A,rat,O,t,138,1,616.0,601969.7999999821,7083,WL,A,12.0
5,16.945000171661377,learn,60000.0,Wed Mar 05 2025 18:01:51 GMT-0600 (Central Standard Time),602752.5,A,ratt,O,t,148,1,782.7000000178814,601969.7999999821,7083,WL,A,12.0
5,17.094000101089478,learn,60000.0,Wed Mar 05 2025 18:01:51 GMT-0600 (Central Standard Time),602902.400000006,A,rattl,O,l,133,1,932.6000000238419,601969.7999999821,7083,WL,A,12.0
5,17.24500012397766,learn,60000.0,Wed Mar 05 2025 18:01:51 GMT-0600 (Central Standard Time),603052.5,A,rattle,O,e,135,1,1082.7000000178814,601969.7999999821,7083,WL,A,12.0
5,18.777000188827515,learn,60000.0,Wed Mar 05 2025 18:01:51 GMT-0600 (Central Standard Time),604585.2999999821,A,rattleenter,O,enter,1513,1,2615.5,601969.7999999821,7083,WL,A,12.0
5,21.343000173568726,learn,60000.0,Wed Mar 05 2025 18:01:51 GMT-0600 (Central Standard Time),607151.099999994,A,c,O,c,2556,1,2565.5,604585.599999994,7083,WL,A,13.0
5,21.47699999809265,learn,60000.0,Wed Mar 05 2025 18:01:51 GMT-0600 (Central Standard Time),607284.400000006,A,ch,O,h,118,1,2698.800000011921,604585.599999994,7083,WL,A,13.0
5,21.64300012588501,learn,60000.0,Wed Mar 05 2025 18:01:51 GMT-0600 (Central Standard Time),607450.6999999881,A,chi,O,i,161,1,2865.0999999940395,604585.599999994,7083,WL,A,13.0
5,21.87600016593933,learn,60000.0,Wed Mar 05 2025 18:01:51 GMT-0600 (Central Standard Time),607684.099999994,A,chim,O,m,227,1,3098.5,604585.599999994,7083,WL,A,13.0
5,22.12600016593933,learn,60000.0,Wed Mar 05 2025 18:01:51 GMT-0600 (Central Standard Time),607934.1999999881,A,chimn,O,n,233,1,3348.5999999940395,604585.599999994,7083,WL,A,13.0
5,22.210000038146973,learn,60000.0,Wed Mar 05 2025 18:01:51 GMT-0600 (Central Standard Time),608017.5,A,chimne,O,e,71,1,3431.9000000059605,604585.599999994,7083,WL,A,13.0
5,22.41000008583069,learn,60000.0,Wed Mar 05 2025 18:01:51 GMT-0600 (Central Standard Time),608217.2999999821,A,chimney,O,y,188,1,3631.699999988079,604585.599999994,7083,WL,A,13.0
5,24.142000198364258,learn,60000.0,Wed Mar 05 2025 18:01:51 GMT-0600 (Central Standard Time),609950.099999994,A,chimneyenter,O,enter,1716,1,5364.5,604585.599999994,7083,WL,A,13.0
5,25.29200005531311,learn,60000.0,Wed Mar 05 2025 18:01:51 GMT-0600 (Central Standard Time),611099.6999999881,A,k,O,k,1136,1,1149.2999999821186,609950.400000006,7083,WL,A,14.0
5,25.375,learn,60000.0,Wed Mar 05 2025 18:01:51 GMT-0600 (Central Standard Time),611183.099999994,A,ke,O,e,74,1,1232.699999988079,609950.400000006,7083,WL,A,14.0
5,25.55900001525879,learn,60000.0,Wed Mar 05 2025 18:01:51 GMT-0600 (Central Standard Time),611366.400000006,A,key,O,y,174,1,1416.0,609950.400000006,7083,WL,A,14.0
5,26.10800004005432,learn,60000.0,Wed Mar 05 2025 18:01:51 GMT-0600 (Central Standard Time),611916.099999994,A,keyenter,O,enter,535,1,1965.699999988079,609950.400000006,7083,WL,A,14.0
5,36.373000144958496,learn,60000.0,Wed Mar 05 2025 18:01:51 GMT-0600 (Central Standard Time),622180.6999999881,A,h,O,h,10257,1,10264.299999982119,611916.400000006,7083,WL,A,15.0
5,36.48900008201599,learn,60000.0,Wed Mar 05 2025 18:01:51 GMT-0600 (Central Standard Time),622296.5,A,ha,O,a,104,1,10380.09999999404,611916.400000006,7083,WL,A,15.0
5,36.605000019073486,learn,60000.0,Wed Mar 05 2025 18:01:51 GMT-0600 (Central Standard Time),622412.900000006,A,har,O,r,101,1,10496.5,611916.400000006,7083,WL,A,15.0
5,36.771000146865845,learn,60000.0,Wed Mar 05 2025 18:01:51 GMT-0600 (Central Standard Time),622579.400000006,A,harp,O,p,160,1,10663.0,611916.400000006,7083,WL,A,15.0
5,37.90500020980835,learn,60000.0,Wed Mar 05 2025 18:01:51 GMT-0600 (Central Standard Time),623712.5,A,harpenter,O,enter,1114,1,11796.09999999404,611916.400000006,7083,WL,A,15.0
6,0.7819998264312744,distr,59218.000173568726,Wed Mar 05 2025 18:01:51 GMT-0600 (Central Standard Time),714334.2999999821,B,i,O,i,766,1,781.6999999880791,713552.599999994,7083,WL,A,1.0
6,0.9649999141693115,distr,59035.00008583069,Wed Mar 05 2025 18:01:51 GMT-0600 (Central Standard Time),714517.1999999881,B,in,O,n,174,1,964.5999999940395,713552.599999994,7083,WL,A,1.0
6,1.1489999294281006,distr,58851.0000705719,Wed Mar 05 2025 18:01:51 GMT-0600 (Central Standard Time),714700.900000006,B,ins,O,s,176,1,1148.300000011921,713552.599999994,7083,WL,A,1.0
6,1.3320000171661377,distr,58667.99998283386,Wed Mar 05 2025 18:01:51 GMT-0600 (Central Standard Time),714883.900000006,B,inse,O,e,168,1,1331.300000011921,713552.599999994,7083,WL,A,1.0
6,1.6489999294281006,distr,58351.0000705719,Wed Mar 05 2025 18:01:51 GMT-0600 (Central Standard Time),715200.6999999881,B,insec,O,c,306,1,1648.0999999940395,713552.599999994,7083,WL,A,1.0
6,1.931999921798706,distr,58068.000078201294,Wed Mar 05 2025 18:01:51 GMT-0600 (Central Standard Time),715483.7999999821,B,insect,O,t,269,1,1931.199999988079,713552.599999994,7083,WL,A,1.0
6,2.380999803543091,distr,57619.00019645691,Wed Mar 05 2025 18:01:51 GMT-0600 (Central Standard Time),715933.400000006,B,insectenter,O,enter,433,1,2380.800000011921,713552.599999994,7083,WL,A,1.0
6,2.6649999618530273,distr,57335.00003814697,Wed Mar 05 2025 18:01:51 GMT-0600 (Central Standard Time),716217.0,B,j,O,j,272,1,283.30000001192093,715933.6999999881,7083,WL,A,2.0
6,2.865000009536743,distr,57134.99999046326,Wed Mar 05 2025 18:01:51 GMT-0600 (Central Standard Time),716416.900000006,B,ju,O,u,188,1,483.2000000178814,715933.6999999881,7083,WL,A,2.0
6,2.997999906539917,distr,57002.00009346008,Wed Mar 05 2025 18:01:51 GMT-0600 (Central Standard Time),716550.0,B,jud,O,d,117,1,616.3000000119209,715933.6999999881,7083,WL,A,2.0
6,3.2309999465942383,distr,56769.00005340576,Wed Mar 05 2025 18:01:51 GMT-0600 (Central Standard Time),716783.400000006,B,judg,O,g,215,1,849.7000000178814,715933.6999999881,7083,WL,A,2.0
6,3.4639999866485596,distr,56536.00001335144,Wed Mar 05 2025 18:01:51 GMT-0600 (Central Standard Time),717016.400000006,B,judge,O,e,214,1,1082.7000000178814,715933.6999999881,7083,WL,A,2.0
6,4.063999891281128,distr,55936.00010871887,Wed Mar 05 2025 18:01:51 GMT-0600 (Central Standard Time),717616.2999999821,B,judgeenter,O,enter,581,1,1682.5999999940395,715933.6999999881,7083,WL,A,2.0
6,4.313999891281128,distr,55686.00010871887,Wed Mar 05 2025 18:01:51 GMT-0600 (Central Standard Time),717866.2999999821,B,b,O,b,229,1,249.69999998807907,717616.599999994,7083,WL,A,3.0
6,4.480999946594238,distr,55519.00005340576,Wed Mar 05 2025 18:01:51 GMT-0600 (Central Standard Time),718033.0,B,bo,O,o,147,1,416.40000000596046,717616.599999994,7083,WL,A,3.0
6,4.646999835968018,distr,55353.00016403198,Wed Mar 05 2025 18:01:51 GMT-0600 (Central Standard Time),718199.5,B,bow,O,w,156,1,582.9000000059605,717616.599999994,7083,WL,A,3.0
6,4.896999835968018,distr,55103.00016403198,Wed Mar 05 2025 18:01:51 GMT-0600 (Central Standard Time),718449.5,B,bowl,O,l,238,1,832.9000000059605,717616.599999994,7083,WL,A,3.0
6,5.146999835968018,distr,54853.00016403198,Wed Mar 05 2025 18:01:51 GMT-0600 (Central Standard Time),718699.400000006,B,bowlenter,O,enter,236,1,1082.800000011921,717616.599999994,7083,WL,A,3.0
6,5.46399998664856,distr,54536.00001335144,Wed Mar 05 2025 18:01:51 GMT-0600 (Central Standard Time),719016.0,B,d,O,d,306,1,316.30000001192093,718699.6999999881,7083,WL,A,4.0
6,5.679999828338623,distr,54320.00017166138,Wed Mar 05 2025 18:01:51 GMT-0600 (Central Standard Time),719232.400000006,B,da,O,a,205,1,532.7000000178814,718699.6999999881,7083,WL,A,4.0
6,5.896999835968018,distr,54103.00016403198,Wed Mar 05 2025 18:01:51 GMT-0600 (Central Standard Time),719449.099999994,B,daw,O,w,205,1,749.4000000059605,718699.6999999881,7083,WL,A,4.0
6,6.329999923706055,distr,53670.000076293945,Wed Mar 05 2025 18:01:51 GMT-0600 (Central Standard Time),719882.2999999821,B,dawn,O,n,420,1,1182.5999999940395,718699.6999999881,7083,WL,A,4.0
6,6.996999979019165,distr,53003.000020980835,Wed Mar 05 2025 18:01:51 GMT-0600 (Central Standard Time),720548.6999999881,B,dawnenter,O,enter,651,1,1849.0,718699.6999999881,7083,WL,A,4.0
6,8.480000019073486,distr,51519.999980926514,Wed Mar 05 2025 18:01:51 GMT-0600 (Central Standard Time),722031.599999994,B,c,O,c,1464,1,1482.5999999940395,720549.0,7083,WL,A,5.0
6,8.69599986076355,distr,51304.00013923645,Wed Mar 05 2025 18:01:51 GMT-0600 (Central Standard Time),722248.099999994,B,ch,O,h,206,1,1699.0999999940395,720549.0,7083,WL,A,5.0
6,8.94599986076355,distr,51054.00013923645,Wed Mar 05 2025 18:01:51 GMT-0600 (Central Standard Time),722498.400000006,B,cha,O,a,245,1,1949.4000000059605,720549.0,7083,WL,A,5.0
6,9.495999813079834,distr,50504.000186920166,Wed Mar 05 2025 18:01:51 GMT-0600 (Central Standard Time),723048.099999994,B,chai,O,i,531,1,2499.0999999940395,720549.0,7083,WL,A,5.0
6,10.178999900817871,distr,49821.00009918213,Wed Mar 05 2025 18:01:51 GMT-0600 (Central Standard Time),723731.2999999821,B,chair,O,r,669,1,3182.2999999821186,720549.0,7083,WL,A,5.0
6,11.628999948501587,distr,48371.00005149841,Wed Mar 05 2025 18:01:51 GMT-0600 (Central Standard Time),725180.900000006,B,chairenter,O,enter,1434,1,4631.9000000059605,720549.0,7083,WL,A,5.0
6,11.944999933242798,distr,48055.0000667572,Wed Mar 05 2025 18:01:51 GMT-0600 (Central Standard Time),725497.1999999881,B,s,O,s,305,1,315.90000000596046,725181.2999999821,7083,WL,A,6.0
6,12.161999940872192,distr,47838.00005912781,Wed Mar 05 2025 18:01:51 GMT-0600 (Central Standard Time),725713.900000006,B,se,O,e,204,1,532.6000000238419,725181.2999999821,7083,WL,A,6.0
6,12.361999988555908,distr,47638.00001144409,Wed Mar 05 2025 18:01:51 GMT-0600 (Central Standard Time),725913.7999999821,B,see,O,e,188,1,732.5,725181.2999999821,7083,WL,A,6.0
6,12.67799997329712,distr,47322.00002670288,Wed Mar 05 2025 18:01:51 GMT-0600 (Central Standard Time),726230.2999999821,B,seed,O,d,308,1,1049.0,725181.2999999821,7083,WL,A,6.0
6,12.994999885559082,distr,47005.00011444092,Wed Mar 05 2025 18:01:51 GMT-0600 (Central Standard Time),726547.0,B,seedenter,O,enter,303,1,1365.7000000178814,725181.2999999821,7083,WL,A,6.0
6,13.227999925613403,distr,46772.0000743866,Wed Mar 05 2025 18:01:51 GMT-0600 (Central Standard Time),726780.099999994,B,m,O,m,226,1,232.80000001192093,726547.2999999821,7083,WL,A,7.0
6,13.378000020980835,distr,46621.999979019165,Wed Mar 05 2025 18:01:51 GMT-0600 (Central Standard Time),726930.099999994,B,me,O,e,137,1,382.80000001192093,726547.2999999821,7083,WL,A,7.0
6,13.544999837875366,distr,46455.000162124634,Wed Mar 05 2025 18:01:51 GMT-0600 (Central Standard Time),727096.900000006,B,mea,O,a,147,1,549.6000000238419,726547.2999999821,7083,WL,A,7.0
6,13.977999925613403,distr,46022.0000743866,Wed Mar 05 2025 18:01:51 GMT-0600 (Central Standard Time),727530.0,B,meal,O,l,412,1,982.7000000178814,726547.2999999821,7083,WL,A,7.0
6,14.510999917984009,distr,45489.00008201599,Wed Mar 05 2025 18:01:51 GMT-0600 (Central Standard Time),728063.099999994,B,mealenter,O,enter,515,1,1515.800000011921,726547.2999999821,7083,WL,A,7.0
6,14.777999877929688,distr,45222.00012207031,Wed Mar 05 2025 18:01:51 GMT-0600 (Central Standard Time),728329.900000006,B,c,O,c,254,1,266.40000000596046,728063.5,7083,WL,A,8.0
6,14.893999814987183,distr,45106.00018501282,Wed Mar 05 2025 18:01:51 GMT-0600 (Central Standard Time),728446.1999999881,B,co,O,o,108,1,382.69999998807907,728063.5,7083,WL,A,8.0
6,14.978999853134155,distr,45021.000146865845,Wed Mar 05 2025 18:01:51 GMT-0600 (Central Standard Time),728530.7999999821,B,coa,O,a,71,1,467.2999999821186,728063.5,7083,WL,A,8.0
6,15.176999807357788,distr,44823.00019264221,Wed Mar 05 2025 18:01:51 GMT-0600 (Central Standard Time),728729.5,B,coat,O,t,187,1,666.0,728063.5,7083,WL,A,8.0
6,16.609999895095825,distr,43390.000104904175,Wed Mar 05 2025 18:01:51 GMT-0600 (Central Standard Time),730162.400000006,B,coatenter,O,enter,1420,1,2098.9000000059605,728063.5,7083,WL,A,8.0
6,18.959999799728394,distr,41040.00020027161,Wed Mar 05 2025 18:01:51 GMT-0600 (Central Standard Time),732511.7999999821,B,s,O,s,2331,1,2349.0999999940395,730162.6999999881,7083,WL,A,9.0
6,19.092999935150146,distr,40907.00006484985,Wed Mar 05 2025 18:01:51 GMT-0600 (Central Standard Time),732645.099999994,B,sh,O,h,126,1,2482.4000000059605,730162.6999999881,7083,WL,A,9.0
6,19.20899987220764,distr,40791.00012779236,Wed Mar 05 2025 18:01:51 GMT-0600 (Central Standard Time),732761.6999999881,B,she,O,e,104,1,2599.0,730162.6999999881,7083,WL,A,9.0
6,19.360999822616577,distr,40639.00017738342,Wed Mar 05 2025 18:01:51 GMT-0600 (Central Standard Time),732912.900000006,B,shee,O,e,139,1,2750.2000000178814,730162.6999999881,7083,WL,A,9.0
6,19.575999975204468,distr,40424.00002479553,Wed Mar 05 2025 18:01:51 GMT-0600 (Central Standard Time),733128.099999994,B,sheep,O,p,196,1,2965.4000000059605,730162.6999999881,7083,WL,A,9.0
6,19.80900001525879,distr,40190.99998474121,Wed Mar 05 2025 18:01:51 GMT-0600 (Central Standard Time),733361.400000006,B,sheepenter,O,enter,213,1,3198.7000000178814,730162.6999999881,7083,WL,A,9.0
6,20.155999898910522,distr,39844.00010108948,Wed Mar 05 2025 18:01:51 GMT-0600 (Central Standard Time),733707.7999999821,B,b,O,b,342,1,346.09999999403954,733361.6999999881,7083,WL,A,10.0
6,20.241999864578247,distr,39758.00013542175,Wed Mar 05 2025 18:01:51 GMT-0600 (Central Standard Time),733794.2999999821,B,bo,O,o,73,1,432.59999999403954,733361.6999999881,7083,WL,A,10.0
6,20.526000022888184,distr,39473.99997711182,Wed Mar 05 2025 18:01:51 GMT-0600 (Central Standard Time),734077.7999999821,B,bot,O,t,267,1,716.0999999940395,733361.6999999881,7083,WL,A,10.0
6,20.691999912261963,distr,39308.00008773804,Wed Mar 05 2025 18:01:51 GMT-0600 (Central Standard Time),734244.400000006,B,bott,O,t,152,1,882.7000000178814,733361.6999999881,7083,WL,A,10.0
6,20.825999975204468,distr,39174.00002479553,Wed Mar 05 2025 18:01:51 GMT-0600 (Central Standard Time),734377.900000006,B,bottl,O,l,121,1,1016.2000000178814,733361.6999999881,7083,WL,A,10.0
6,20.941999912261963,distr,39058.00008773804,Wed Mar 05 2025 18:01:51 GMT-0600 (Central Standard Time),734494.5,B,bottle,O,e,100,1,1132.800000011921,733361.6999999881,7083,WL,A,10.0
6,21.092000007629395,distr,38907.999992370605,Wed Mar 05 2025 18:01:51 GMT-0600 (Central Standard Time),734644.400000006,B,bottleenter,O,enter,143,1,1282.7000000178814,733361.6999999881,7083,WL,A,10.0
6,26.539999961853027,distr,33460.00003814697,Wed Mar 05 2025 18:01:51 GMT-0600 (Central Standard Time),740092.599999994,B,c,O,c,5441,1,5447.9000000059605,734644.6999999881,7083,WL,A,11.0
6,26.87399983406067,distr,33126.00016593933,Wed Mar 05 2025 18:01:51 GMT-0600 (Central Standard Time),740426.099999994,B,co,O,o,312,1,5781.4000000059605,734644.6999999881,7083,WL,A,11.0
6,26.957000017166138,distr,33042.99998283386,Wed Mar 05 2025 18:01:51 GMT-0600 (Central Standard Time),740509.1999999881,B,cou,O,u,75,1,5864.5,734644.6999999881,7083,WL,A,11.0
6,27.223999977111816,distr,32776.00002288818,Wed Mar 05 2025 18:01:51 GMT-0600 (Central Standard Time),740775.900000006,B,coun,O,n,256,1,6131.200000017881,734644.6999999881,7083,WL,A,11.0
6,27.473999977111816,distr,32526.000022888184,Wed Mar 05 2025 18:01:51 GMT-0600 (Central Standard Time),741025.6999999881,B,count,O,t,229,1,6381.0,734644.6999999881,7083,WL,A,11.0
6,27.806999921798706,distr,32193.000078201294,Wed Mar 05 2025 18:01:51 GMT-0600 (Central Standard Time),741359.0,B,county,O,y,324,1,6714.300000011921,734644.6999999881,7083,WL,A,11.0
6,28.639999866485596,distr,31360.000133514404,Wed Mar 05 2025 18:01:51 GMT-0600 (Central Standard Time),742192.0,B,countyenter,O,enter,814,1,7547.300000011921,734644.6999999881,7083,WL,A,11.0
6,60.013999938964844,distr,-13.99993896484375,Wed Mar 05 2025 18:01:51 GMT-0600 (Central Standard Time),773565.6999999881,B,None,O,None,31369,1,31373.29999998212,742192.400000006,7083,WL,A,12.0
7,0.8010001182556152,immed,59198.999881744385,Wed Mar 05 2025 18:01:51 GMT-0600 (Central Standard Time),796859.2999999821,A,g,O,g,781,1,800.8999999761581,796058.400000006,7083,WL,A,1.0
7,0.9500000476837158,immed,59049.999952316284,Wed Mar 05 2025 18:01:51 GMT-0600 (Central Standard Time),797008.099999994,A,go,O,o,138,1,949.6999999880791,796058.400000006,7083,WL,A,1.0
7,1.2160000801086426,immed,58783.99991989136,Wed Mar 05 2025 18:01:51 GMT-0600 (Central Standard Time),797274.6999999881,A,gol,O,l,253,1,1216.2999999821186,796058.400000006,7083,WL,A,1.0
7,1.5160000324249268,immed,58483.99996757507,Wed Mar 05 2025 18:01:51 GMT-0600 (Central Standard Time),797574.599999994,A,gold,O,d,283,1,1516.199999988079,796058.400000006,7083,WL,A,1.0
7,1.9500000476837158,immed,58049.999952316284,Wed Mar 05 2025 18:01:51 GMT-0600 (Central Standard Time),798008.099999994,A,goldenter,O,enter,423,1,1949.699999988079,796058.400000006,7083,WL,A,1.0
7,2.3330001831054688,immed,57666.99981689453,Wed Mar 05 2025 18:01:51 GMT-0600 (Central Standard Time),798390.900000006,A,h,O,h,373,1,382.5,798008.400000006,7083,WL,A,2.0
7,2.5160000324249268,immed,57483.99996757507,Wed Mar 05 2025 18:01:51 GMT-0600 (Central Standard Time),798574.2999999821,A,ha,O,a,174,1,565.8999999761581,798008.400000006,7083,WL,A,2.0
7,2.6490001678466797,immed,57350.99983215332,Wed Mar 05 2025 18:01:51 GMT-0600 (Central Standard Time),798707.599999994,A,har,O,r,119,1,699.1999999880791,798008.400000006,7083,WL,A,2.0
7,2.949000120162964,immed,57050.999879837036,Wed Mar 05 2025 18:01:51 GMT-0600 (Central Standard Time),799007.7999999821,A,harp,O,p,290,1,999.3999999761581,798008.400000006,7083,WL,A,2.0
7,3.366000175476074,immed,56633.999824523926,Wed Mar 05 2025 18:01:51 GMT-0600 (Central Standard Time),799423.900000006,A,harpenter,O,enter,406,1,1415.5,798008.400000006,7083,WL,A,2.0
7,3.6660001277923584,immed,56333.99987220764,Wed Mar 05 2025 18:01:51 GMT-0600 (Central Standard Time),799723.7999999821,A,k,O,k,285,1,299.69999998807907,799424.099999994,7083,WL,A,3.0
7,3.7990000247955322,immed,56200.99997520447,Wed Mar 05 2025 18:01:51 GMT-0600 (Central Standard Time),799857.400000006,A,ke,O,e,122,1,433.30000001192093,799424.099999994,7083,WL,A,3.0
7,3.999000072479248,immed,56000.99992752075,Wed Mar 05 2025 18:01:51 GMT-0600 (Central Standard Time),800057.099999994,A,key,O,y,180,1,633.0,799424.099999994,7083,WL,A,3.0
7,4.2820000648498535,immed,55717.99993515015,Wed Mar 05 2025 18:01:51 GMT-0600 (Central Standard Time),800340.1999999881,A,keyenter,O,enter,276,1,916.0999999940395,799424.099999994,7083,WL,A,3.0
7,4.5990002155303955,immed,55400.999784469604,Wed Mar 05 2025 18:01:51 GMT-0600 (Central Standard Time),800656.7999999821,A,f,O,f,297,1,316.39999997615814,800340.400000006,7083,WL,A,4.0
7,4.749000072479248,immed,55250.99992752075,Wed Mar 05 2025 18:01:51 GMT-0600 (Central Standard Time),800807.0,A,fi,O,i,132,1,466.59999999403954,800340.400000006,7083,WL,A,4.0
7,4.89900016784668,immed,55100.99983215332,Wed Mar 05 2025 18:01:51 GMT-0600 (Central Standard Time),800957.0,A,fin,O,n,134,1,616.5999999940395,800340.400000006,7083,WL,A,4.0
7,5.065000057220459,immed,54934.99994277954,Wed Mar 05 2025 18:01:51 GMT-0600 (Central Standard Time),801123.7999999821,A,fing,O,g,152,1,783.3999999761581,800340.400000006,7083,WL,A,4.0
7,5.232000112533569,immed,54767.99988746643,Wed Mar 05 2025 18:01:51 GMT-0600 (Central Standard Time),801290.1999999881,A,finge,O,e,154,1,949.7999999821186,800340.400000006,7083,WL,A,4.0
7,5.315000057220459,immed,54684.99994277954,Wed Mar 05 2025 18:01:51 GMT-0600 (Central Standard Time),801373.2999999821,A,finger,O,r,67,1,1032.8999999761581,800340.400000006,7083,WL,A,4.0
7,5.565000057220459,immed,54434.99994277954,Wed Mar 05 2025 18:01:51 GMT-0600 (Central Standard Time),801623.2999999821,A,fingerenter,O,enter,240,1,1282.8999999761581,800340.400000006,7083,WL,A,4.0
7,5.7820000648498535,immed,54217.99993515015,Wed Mar 05 2025 18:01:51 GMT-0600 (Central Standard Time),801840.0,A,a,O,a,198,1,216.40000000596046,801623.599999994,7083,WL,A,5.0
7,5.948000192642212,immed,54051.99980735779,Wed Mar 05 2025 18:01:51 GMT-0600 (Central Standard Time),802006.599999994,A,ap,O,p,149,1,383.0,801623.599999994,7083,WL,A,5.0
7,6.0980000495910645,immed,53901.999950408936,Wed Mar 05 2025 18:01:51 GMT-0600 (Central Standard Time),802156.400000006,A,app,O,p,143,1,532.8000000119209,801623.599999994,7083,WL,A,5.0
7,6.2820000648498535,immed,53717.99993515015,Wed Mar 05 2025 18:01:51 GMT-0600 (Central Standard Time),802339.7999999821,A,appl,O,l,169,1,716.1999999880791,801623.599999994,7083,WL,A,5.0
7,6.398000001907349,immed,53601.99999809265,Wed Mar 05 2025 18:01:51 GMT-0600 (Central Standard Time),802456.400000006,A,apply,O,y,98,1,832.8000000119209,801623.599999994,7083,WL,A,5.0
7,7.0980000495910645,immed,52901.999950408936,Wed Mar 05 2025 18:01:51 GMT-0600 (Central Standard Time),803156.1999999881,A,appl,O,backspace,685,1,1532.5999999940395,801623.599999994,7083,WL,A,5.0
7,7.248000144958496,immed,52751.999855041504,Wed Mar 05 2025 18:01:51 GMT-0600 (Central Standard Time),803306.099999994,A,apple,O,e,129,1,1682.5,801623.599999994,7083,WL,A,5.0
7,7.514000177383423,immed,52485.99982261658,Wed Mar 05 2025 18:01:51 GMT-0600 (Central Standard Time),803572.7999999821,A,appleenter,O,enter,251,1,1949.199999988079,801623.599999994,7083,WL,A,5.0
7,7.781000137329102,immed,52218.9998626709,Wed Mar 05 2025 18:01:51 GMT-0600 (Central Standard Time),803839.1999999881,A,s,O,s,257,1,266.09999999403954,803573.099999994,7083,WL,A,6.0
7,7.96399998664856,immed,52036.00001335144,Wed Mar 05 2025 18:01:51 GMT-0600 (Central Standard Time),804022.599999994,A,sa,O,a,166,1,449.5,803573.099999994,7083,WL,A,6.0
7,8.178000211715698,immed,51821.9997882843,Wed Mar 05 2025 18:01:51 GMT-0600 (Central Standard Time),804236.0,A,sat,O,t,209,1,662.9000000059605,803573.099999994,7083,WL,A,6.0
7,8.434000015258789,immed,51565.99998474121,Wed Mar 05 2025 18:01:51 GMT-0600 (Central Standard Time),804492.1999999881,A,satenter,O,enter,234,1,919.0999999940395,803573.099999994,7083,WL,A,6.0
7,9.38100004196167,immed,50618.99995803833,Wed Mar 05 2025 18:01:51 GMT-0600 (Central Standard Time),805438.900000006,A,t,O,t,937,1,946.5,804492.400000006,7083,WL,A,7.0
7,9.547000169754028,immed,50452.99983024597,Wed Mar 05 2025 18:01:51 GMT-0600 (Central Standard Time),805605.5,A,tr,O,r,159,1,1113.0999999940395,804492.400000006,7083,WL,A,7.0
7,9.647000074386597,immed,50352.9999256134,Wed Mar 05 2025 18:01:51 GMT-0600 (Central Standard Time),805705.5,A,tra,O,a,80,1,1213.0999999940395,804492.400000006,7083,WL,A,7.0
7,9.747000217437744,immed,50252.999782562256,Wed Mar 05 2025 18:01:51 GMT-0600 (Central Standard Time),805805.400000006,A,trai,O,i,92,1,1313.0,804492.400000006,7083,WL,A,7.0
7,9.830000162124634,immed,50169.999837875366,Wed Mar 05 2025 18:01:51 GMT-0600 (Central Standard Time),805888.6999999881,A,train,O,n,64,1,1396.2999999821186,804492.400000006,7083,WL,A,7.0
7,10.314000129699707,immed,49685.99987030029,Wed Mar 05 2025 18:01:51 GMT-0600 (Central Standard Time),806372.099999994,A,trainenter,O,enter,469,1,1879.699999988079,804492.400000006,7083,WL,A,7.0
7,12.59600019454956,immed,47403.99980545044,Wed Mar 05 2025 18:01:51 GMT-0600 (Central Standard Time),808654.6999999881,A,r,O,r,2273,1,2282.4000000059605,806372.2999999821,7083,WL,A,8.0
7,12.713000059127808,immed,47286.99994087219,Wed Mar 05 2025 18:01:51 GMT-0600 (Central Standard Time),808770.7999999821,A,ru,O,u,111,1,2398.5,806372.2999999821,7083,WL,A,8.0
7,12.84600019454956,immed,47153.99980545044,Wed Mar 05 2025 18:01:51 GMT-0600 (Central Standard Time),808904.599999994,A,rug,O,g,115,1,2532.300000011921,806372.2999999821,7083,WL,A,8.0
7,13.111999988555908,immed,46888.00001144409,Wed Mar 05 2025 18:01:51 GMT-0600 (Central Standard Time),809170.7999999821,A,rugenter,O,enter,261,1,2798.5,806372.2999999821,7083,WL,A,8.0
7,13.379000186920166,immed,46620.999813079834,Wed Mar 05 2025 18:01:51 GMT-0600 (Central Standard Time),809437.7999999821,A,m,O,m,251,1,266.7999999821186,809171.0,7083,WL,A,9.0
7,13.480000019073486,immed,46519.999980926514,Wed Mar 05 2025 18:01:51 GMT-0600 (Central Standard Time),809538.0,A,me,O,e,87,1,367.0,809171.0,7083,WL,A,9.0
7,13.59600019454956,immed,46403.99980545044,Wed Mar 05 2025 18:01:51 GMT-0600 (Central Standard Time),809654.1999999881,A,mea,O,a,107,1,483.19999998807907,809171.0,7083,WL,A,9.0
7,13.779000043869019,immed,46220.99995613098,Wed Mar 05 2025 18:01:51 GMT-0600 (Central Standard Time),809837.400000006,A,mead,O,d,167,1,666.4000000059605,809171.0,7083,WL,A,9.0
7,13.896000146865845,immed,46103.999853134155,Wed Mar 05 2025 18:01:51 GMT-0600 (Central Standard Time),809954.400000006,A,meado,O,o,112,1,783.4000000059605,809171.0,7083,WL,A,9.0
7,13.979000091552734,immed,46020.999908447266,Wed Mar 05 2025 18:01:51 GMT-0600 (Central Standard Time),810037.400000006,A,meadow,O,w,75,1,866.4000000059605,809171.0,7083,WL,A,9.0
7,14.361999988555908,immed,45638.00001144409,Wed Mar 05 2025 18:01:51 GMT-0600 (Central Standard Time),810420.599999994,A,meadowenter,O,enter,376,1,1249.5999999940395,809171.0,7083,WL,A,9.0
7,14.59600019454956,immed,45403.99980545044,Wed Mar 05 2025 18:01:51 GMT-0600 (Central Standard Time),810654.0,A,b,O,b,217,1,233.09999999403954,810420.900000006,7083,WL,A,10.0
7,14.712000131607056,immed,45287.999868392944,Wed Mar 05 2025 18:01:51 GMT-0600 (Central Standard Time),810770.599999994,A,bo,O,o,96,1,349.69999998807907,810420.900000006,7083,WL,A,10.0
7,14.861999988555908,immed,45138.00001144409,Wed Mar 05 2025 18:01:51 GMT-0600 (Central Standard Time),810920.2999999821,A,boo,O,o,139,1,499.39999997615814,810420.900000006,7083,WL,A,10.0
7,15.01200008392334,immed,44987.99991607666,Wed Mar 05 2025 18:01:51 GMT-0600 (Central Standard Time),811070.5,A,book,O,k,141,1,649.5999999940395,810420.900000006,7083,WL,A,10.0
7,15.229000091552734,immed,44770.999908447266,Wed Mar 05 2025 18:01:51 GMT-0600 (Central Standard Time),811286.900000006,A,bookenter,O,enter,207,1,866.0,810420.900000006,7083,WL,A,10.0
7,15.462000131607056,immed,44537.999868392944,Wed Mar 05 2025 18:01:51 GMT-0600 (Central Standard Time),811520.1999999881,A,f,O,f,223,1,233.0,811287.1999999881,7083,WL,A,11.0
7,15.662000179290771,immed,44337.99982070923,Wed Mar 05 2025 18:01:51 GMT-0600 (Central Standard Time),811720.099999994,A,fl,O,l,181,1,432.90000000596046,811287.1999999881,7083,WL,A,11.0
7,15.861999988555908,immed,44138.00001144409,Wed Mar 05 2025 18:01:51 GMT-0600 (Central Standard Time),811920.1999999881,A,flo,O,o,181,1,633.0,811287.1999999881,7083,WL,A,11.0
7,15.978000164031982,immed,44021.99983596802,Wed Mar 05 2025 18:01:51 GMT-0600 (Central Standard Time),812036.7999999821,A,flow,O,w,101,1,749.5999999940395,811287.1999999881,7083,WL,A,11.0
7,16.02900004386902,immed,43970.99995613098,Wed Mar 05 2025 18:01:51 GMT-0600 (Central Standard Time),812087.400000006,A,flowe,O,e,40,1,800.2000000178814,811287.1999999881,7083,WL,A,11.0
7,16.111999988555908,immed,43888.00001144409,Wed Mar 05 2025 18:01:51 GMT-0600 (Central Standard Time),812170.1999999881,A,flower,O,r,78,1,883.0,811287.1999999881,7083,WL,A,11.0
7,17.378000020980835,immed,42621.999979019165,Wed Mar 05 2025 18:01:51 GMT-0600 (Central Standard Time),813436.2999999821,A,flowerenter,O,enter,1251,1,2149.0999999940395,811287.1999999881,7083,WL,A,11.0
7,22.526000022888184,immed,37473.99997711182,Wed Mar 05 2025 18:01:51 GMT-0600 (Central Standard Time),818584.6999999881,A,c,O,c,5137,1,5148.0999999940395,813436.599999994,7083,WL,A,12.0
7,22.677000045776367,immed,37322.99995422363,Wed Mar 05 2025 18:01:51 GMT-0600 (Central Standard Time),818734.900000006,A,ch,O,h,140,1,5298.300000011921,813436.599999994,7083,WL,A,12.0
7,22.860000133514404,immed,37139.999866485596,Wed Mar 05 2025 18:01:51 GMT-0600 (Central Standard Time),818917.900000006,A,chi,O,i,174,1,5481.300000011921,813436.599999994,7083,WL,A,12.0
7,23.076000213623047,immed,36923.99978637695,Wed Mar 05 2025 18:01:51 GMT-0600 (Central Standard Time),819134.5,A,chim,O,m,208,1,5697.9000000059605,813436.599999994,7083,WL,A,12.0
