block_c,block_dur,condition,countdown,datetime,endtime,list,multichar_response,project,response,response_time,session_number,start_end,starttime,subject_id,task,task_vers,trial
,,,,Tue Sep 24 2024 17:14:58 GMT-0500 (Central Daylight Time),,,,O,space,1003,1,,,7019,WL,C,
prac,,0,,Tue Sep 24 2024 17:14:58 GMT-0500 (Central Daylight Time),,NA,b,O,b,4402,1,,,7019,WL,C,1.0
prac,,0,,Tue Sep 24 2024 17:14:58 GMT-0500 (Central Daylight Time),,NA,bo,O,o,375,1,,,7019,WL,C,1.0
prac,,0,,Tue Sep 24 2024 17:14:58 GMT-0500 (Central Daylight Time),,NA,boo,O,o,201,1,,,7019,WL,C,1.0
prac,,0,,Tue Sep 24 2024 17:14:58 GMT-0500 (Central Daylight Time),,NA,boos,O,s,144,1,,,7019,WL,C,1.0
prac,,0,,Tue Sep 24 2024 17:14:58 GMT-0500 (Central Daylight Time),,NA,boost,O,t,194,1,,,7019,WL,C,1.0
prac,,0,,Tue Sep 24 2024 17:14:58 GMT-0500 (Central Daylight Time),,NA,boostenter,O,enter,3403,1,,,7019,WL,C,1.0
1,1.366999864578247,learn,58633.00013542175,Tue Sep 24 2024 17:14:58 GMT-0500 (Central Daylight Time),152319.80000001192,A,t,O,t,1357,1,1366.4000000357628,150953.39999997616,7019,WL,C,1.0
1,1.7849998474121094,learn,58215.00015258789,Tue Sep 24 2024 17:14:58 GMT-0500 (Central Daylight Time),152737.39999997616,A,to,O,o,405,1,1784.0,150953.39999997616,7019,WL,C,1.0
1,3.3989999294281006,learn,56601.0000705719,Tue Sep 24 2024 17:14:58 GMT-0500 (Central Daylight Time),154352.09999996424,A,tow,O,w,1596,1,3398.699999988079,150953.39999997616,7019,WL,C,1.0
1,3.6659998893737793,learn,56334.00011062622,Tue Sep 24 2024 17:14:58 GMT-0500 (Central Daylight Time),154618.59999996424,A,towe,O,e,253,1,3665.199999988079,150953.39999997616,7019,WL,C,1.0
1,3.799999952316284,learn,56200.000047683716,Tue Sep 24 2024 17:14:58 GMT-0500 (Central Daylight Time),154752.19999998808,A,tower,O,r,115,1,3798.800000011921,150953.39999997616,7019,WL,C,1.0
1,8.648000001907349,learn,51351.99999809265,Tue Sep 24 2024 17:14:58 GMT-0500 (Central Daylight Time),159600.59999996424,A,towerenter,O,enter,4830,1,8647.199999988079,150953.39999997616,7019,WL,C,1.0
1,9.556999921798706,learn,50443.000078201294,Tue Sep 24 2024 17:14:58 GMT-0500 (Central Daylight Time),160509.59999996424,A,w,O,w,903,1,908.2999999523163,159601.30000001192,7019,WL,C,2.0
1,9.681999921798706,learn,50318.000078201294,Tue Sep 24 2024 17:14:58 GMT-0500 (Central Daylight Time),160634.69999998808,A,wh,O,h,119,1,1033.3999999761581,159601.30000001192,7019,WL,C,2.0
1,9.830999851226807,learn,50169.00014877319,Tue Sep 24 2024 17:14:58 GMT-0500 (Central Daylight Time),160783.39999997616,A,whe,O,e,139,1,1182.0999999642372,159601.30000001192,7019,WL,C,2.0
1,10.196999788284302,learn,49803.0002117157,Tue Sep 24 2024 17:14:58 GMT-0500 (Central Daylight Time),161150.0,A,whea,O,a,351,1,1548.699999988079,159601.30000001192,7019,WL,C,2.0
1,10.430999994277954,learn,49569.000005722046,Tue Sep 24 2024 17:14:58 GMT-0500 (Central Daylight Time),161383.30000001192,A,wheat,O,t,224,1,1782.0,159601.30000001192,7019,WL,C,2.0
1,10.929999828338623,learn,49070.00017166138,Tue Sep 24 2024 17:14:58 GMT-0500 (Central Daylight Time),161883.09999996424,A,wheatenter,O,enter,478,1,2281.7999999523163,159601.30000001192,7019,WL,C,2.0
1,12.845999956130981,learn,47154.00004386902,Tue Sep 24 2024 17:14:58 GMT-0500 (Central Daylight Time),163799.09999996424,A,q,O,q,1899,1,1915.3999999761581,161883.69999998808,7019,WL,C,3.0
1,13.046000003814697,learn,46953.9999961853,Tue Sep 24 2024 17:14:58 GMT-0500 (Central Daylight Time),163999.09999996424,A,qu,O,u,191,1,2115.399999976158,161883.69999998808,7019,WL,C,3.0
1,13.27999997138977,learn,46720.00002861023,Tue Sep 24 2024 17:14:58 GMT-0500 (Central Daylight Time),164232.30000001192,A,que,O,e,223,1,2348.600000023842,161883.69999998808,7019,WL,C,3.0
1,13.513000011444092,learn,46486.99998855591,Tue Sep 24 2024 17:14:58 GMT-0500 (Central Daylight Time),164465.59999996424,A,quee,O,e,212,1,2581.899999976158,161883.69999998808,7019,WL,C,3.0
1,13.69599986076355,learn,46304.00013923645,Tue Sep 24 2024 17:14:58 GMT-0500 (Central Daylight Time),164648.89999997616,A,queen,O,n,173,1,2765.199999988079,161883.69999998808,7019,WL,C,3.0
1,14.345999956130981,learn,45654.00004386902,Tue Sep 24 2024 17:14:58 GMT-0500 (Central Daylight Time),165298.80000001192,A,queenenter,O,enter,637,1,3415.100000023842,161883.69999998808,7019,WL,C,3.0
1,15.145999908447266,learn,44854.000091552734,Tue Sep 24 2024 17:14:58 GMT-0500 (Central Daylight Time),166098.39999997616,A,s,O,s,787,1,799.1999999880791,165299.19999998808,7019,WL,C,4.0
1,15.361999988555908,learn,44638.00001144409,Tue Sep 24 2024 17:14:58 GMT-0500 (Central Daylight Time),166315.0,A,su,O,u,204,1,1015.8000000119209,165299.19999998808,7019,WL,C,4.0
1,15.76199984550476,learn,44238.00015449524,Tue Sep 24 2024 17:14:58 GMT-0500 (Central Daylight Time),166715.0,A,sug,O,g,394,1,1415.800000011921,165299.19999998808,7019,WL,C,4.0
1,15.928999900817871,learn,44071.00009918213,Tue Sep 24 2024 17:14:58 GMT-0500 (Central Daylight Time),166881.69999998808,A,suga,O,a,147,1,1582.5,165299.19999998808,7019,WL,C,4.0
1,16.52899980545044,learn,43471.00019454956,Tue Sep 24 2024 17:14:58 GMT-0500 (Central Daylight Time),167481.30000001192,A,sugar,O,r,581,1,2182.100000023842,165299.19999998808,7019,WL,C,4.0
1,16.861999988555908,learn,43138.00001144409,Tue Sep 24 2024 17:14:58 GMT-0500 (Central Daylight Time),167814.59999996424,A,sugarenter,O,enter,317,1,2515.399999976158,165299.19999998808,7019,WL,C,4.0
1,17.461999893188477,learn,42538.00010681152,Tue Sep 24 2024 17:14:58 GMT-0500 (Central Daylight Time),168414.39999997616,A,h,O,h,591,1,599.3999999761581,167815.0,7019,WL,C,5.0
1,17.57799983024597,learn,42422.00016975403,Tue Sep 24 2024 17:14:58 GMT-0500 (Central Daylight Time),168530.80000001192,A,ho,O,o,112,1,715.8000000119209,167815.0,7019,WL,C,5.0
1,17.811999797821045,learn,42188.000202178955,Tue Sep 24 2024 17:14:58 GMT-0500 (Central Daylight Time),168764.30000001192,A,hom,O,m,219,1,949.3000000119209,167815.0,7019,WL,C,5.0
1,18.01099991798401,learn,41989.00008201599,Tue Sep 24 2024 17:14:58 GMT-0500 (Central Daylight Time),168964.09999996424,A,home,O,e,194,1,1149.0999999642372,167815.0,7019,WL,C,5.0
1,18.57799983024597,learn,41422.00016975403,Tue Sep 24 2024 17:14:58 GMT-0500 (Central Daylight Time),169531.0,A,homeenter,O,enter,546,1,1716.0,167815.0,7019,WL,C,5.0
1,19.16100001335144,learn,40838.99998664856,Tue Sep 24 2024 17:14:58 GMT-0500 (Central Daylight Time),170113.80000001192,A,b,O,b,571,1,582.4000000357628,169531.39999997616,7019,WL,C,6.0
1,19.32799983024597,learn,40672.00016975403,Tue Sep 24 2024 17:14:58 GMT-0500 (Central Daylight Time),170280.59999996424,A,bo,O,o,155,1,749.1999999880791,169531.39999997616,7019,WL,C,6.0
1,19.610999822616577,learn,40389.00017738342,Tue Sep 24 2024 17:14:58 GMT-0500 (Central Daylight Time),170563.59999996424,A,boy,O,y,278,1,1032.199999988079,169531.39999997616,7019,WL,C,6.0
1,20.060999870300293,learn,39939.00012969971,Tue Sep 24 2024 17:14:58 GMT-0500 (Central Daylight Time),171013.69999998808,A,boyenter,O,enter,435,1,1482.300000011921,169531.39999997616,7019,WL,C,6.0
1,20.526999950408936,learn,39473.000049591064,Tue Sep 24 2024 17:14:58 GMT-0500 (Central Daylight Time),171480.0,A,d,O,d,455,1,465.9000000357628,171014.09999996424,7019,WL,C,7.0
1,20.610999822616577,learn,39389.00017738342,Tue Sep 24 2024 17:14:58 GMT-0500 (Central Daylight Time),171563.30000001192,A,do,O,o,77,1,549.2000000476837,171014.09999996424,7019,WL,C,7.0
1,20.8439998626709,learn,39156.0001373291,Tue Sep 24 2024 17:14:58 GMT-0500 (Central Daylight Time),171796.5,A,doc,O,c,219,1,782.4000000357628,171014.09999996424,7019,WL,C,7.0
1,21.05999994277954,learn,38940.00005722046,Tue Sep 24 2024 17:14:58 GMT-0500 (Central Daylight Time),172013.09999996424,A,doct,O,t,210,1,999.0,171014.09999996424,7019,WL,C,7.0
1,21.15999984741211,learn,38840.00015258789,Tue Sep 24 2024 17:14:58 GMT-0500 (Central Daylight Time),172113.30000001192,A,docto,O,o,81,1,1099.2000000476837,171014.09999996424,7019,WL,C,7.0
1,21.293999910354614,learn,38706.000089645386,Tue Sep 24 2024 17:14:58 GMT-0500 (Central Daylight Time),172246.39999997616,A,doctor,O,r,125,1,1232.300000011921,171014.09999996424,7019,WL,C,7.0
1,21.676999807357788,learn,38323.00019264221,Tue Sep 24 2024 17:14:58 GMT-0500 (Central Daylight Time),172630.0,A,doctorenter,O,enter,368,1,1615.9000000357628,171014.09999996424,7019,WL,C,7.0
1,22.009999990463257,learn,37990.00000953674,Tue Sep 24 2024 17:14:58 GMT-0500 (Central Daylight Time),172962.80000001192,A,s,O,s,327,1,332.4000000357628,172630.39999997616,7019,WL,C,8.0
1,22.209999799728394,learn,37790.00020027161,Tue Sep 24 2024 17:14:58 GMT-0500 (Central Daylight Time),173163.09999996424,A,sh,O,h,187,1,532.6999999880791,172630.39999997616,7019,WL,C,8.0
1,22.3439998626709,learn,37656.0001373291,Tue Sep 24 2024 17:14:58 GMT-0500 (Central Daylight Time),173296.39999997616,A,sho,O,o,123,1,666.0,172630.39999997616,7019,WL,C,8.0
1,22.526999950408936,learn,37473.000049591064,Tue Sep 24 2024 17:14:58 GMT-0500 (Central Daylight Time),173479.59999996424,A,shor,O,r,166,1,849.1999999880791,172630.39999997616,7019,WL,C,8.0
1,22.609999895095825,learn,37390.000104904175,Tue Sep 24 2024 17:14:58 GMT-0500 (Central Daylight Time),173563.0,A,shore,O,e,79,1,932.6000000238419,172630.39999997616,7019,WL,C,8.0
1,23.026000022888184,learn,36973.99997711182,Tue Sep 24 2024 17:14:58 GMT-0500 (Central Daylight Time),173979.09999996424,A,shoreenter,O,enter,411,1,1348.699999988079,172630.39999997616,7019,WL,C,8.0
1,24.39299988746643,learn,35607.00011253357,Tue Sep 24 2024 17:14:58 GMT-0500 (Central Daylight Time),175345.69999998808,A,c,O,c,1347,1,1366.300000011921,173979.39999997616,7019,WL,C,9.0
1,24.509999990463257,learn,35490.00000953674,Tue Sep 24 2024 17:14:58 GMT-0500 (Central Daylight Time),175462.30000001192,A,ca,O,a,109,1,1482.9000000357628,173979.39999997616,7019,WL,C,9.0
1,24.742999792099,learn,35257.000207901,Tue Sep 24 2024 17:14:58 GMT-0500 (Central Daylight Time),175695.5,A,cat,O,t,216,1,1716.1000000238419,173979.39999997616,7019,WL,C,9.0
1,24.875999927520752,learn,35124.00007247925,Tue Sep 24 2024 17:14:58 GMT-0500 (Central Daylight Time),175828.80000001192,A,catt,O,t,126,1,1849.4000000357628,173979.39999997616,7019,WL,C,9.0
1,25.092999935150146,learn,34907.00006484985,Tue Sep 24 2024 17:14:58 GMT-0500 (Central Daylight Time),176045.39999997616,A,cattl,O,l,202,1,2066.0,173979.39999997616,7019,WL,C,9.0
1,25.22599983215332,learn,34774.00016784668,Tue Sep 24 2024 17:14:58 GMT-0500 (Central Daylight Time),176178.59999996424,A,cattle,O,e,112,1,2199.199999988079,173979.39999997616,7019,WL,C,9.0
1,25.608999967575073,learn,34391.00003242493,Tue Sep 24 2024 17:14:58 GMT-0500 (Central Daylight Time),176561.80000001192,A,cattleenter,O,enter,372,1,2582.400000035763,173979.39999997616,7019,WL,C,9.0
1,30.390999794006348,learn,29609.000205993652,Tue Sep 24 2024 17:14:58 GMT-0500 (Central Daylight Time),181343.69999998808,A,enter,O,enter,4765,1,4781.600000023842,176562.09999996424,7019,WL,C,10.0
1,31.073999881744385,learn,28926.000118255615,Tue Sep 24 2024 17:14:58 GMT-0500 (Central Daylight Time),182026.80000001192,A,enter,O,enter,671,1,682.7000000476837,181344.09999996424,7019,WL,C,11.0
1,31.539999961853027,learn,28460.000038146973,Tue Sep 24 2024 17:14:58 GMT-0500 (Central Daylight Time),182493.30000001192,A,enter,O,enter,452,1,466.10000002384186,182027.19999998808,7019,WL,C,12.0
1,32.03999996185303,learn,27960.000038146973,Tue Sep 24 2024 17:14:58 GMT-0500 (Central Daylight Time),182993.09999996424,A,enter,O,enter,489,1,499.39999997615814,182493.69999998808,7019,WL,C,13.0
1,32.406999826431274,learn,27593.000173568726,Tue Sep 24 2024 17:14:58 GMT-0500 (Central Daylight Time),183359.89999997616,A,enter,O,enter,357,1,366.30000001192093,182993.59999996424,7019,WL,C,14.0
1,32.74000000953674,learn,27259.999990463257,Tue Sep 24 2024 17:14:58 GMT-0500 (Central Daylight Time),183693.0,A,enter,O,enter,326,1,332.69999998807907,183360.30000001192,7019,WL,C,15.0
2,1.432999849319458,learn,58567.00015068054,Tue Sep 24 2024 17:14:58 GMT-0500 (Central Daylight Time),253037.80000001192,A,t,O,t,1426,1,1432.6000000238419,251605.19999998808,7019,WL,C,1.0
2,1.5829999446868896,learn,58417.00005531311,Tue Sep 24 2024 17:14:58 GMT-0500 (Central Daylight Time),253187.69999998808,A,to,O,o,136,1,1582.5,251605.19999998808,7019,WL,C,1.0
2,1.7990000247955322,learn,58200.99997520447,Tue Sep 24 2024 17:14:58 GMT-0500 (Central Daylight Time),253404.39999997616,A,tow,O,w,203,1,1799.199999988079,251605.19999998808,7019,WL,C,1.0
2,1.8989999294281006,learn,58101.0000705719,Tue Sep 24 2024 17:14:58 GMT-0500 (Central Daylight Time),253504.39999997616,A,towe,O,e,90,1,1899.199999988079,251605.19999998808,7019,WL,C,1.0
2,2.0490000247955322,learn,57950.99997520447,Tue Sep 24 2024 17:14:58 GMT-0500 (Central Daylight Time),253654.19999998808,A,tower,O,r,134,1,2049.0,251605.19999998808,7019,WL,C,1.0
2,2.4489998817443848,learn,57551.000118255615,Tue Sep 24 2024 17:14:58 GMT-0500 (Central Daylight Time),254054.0,A,towerenter,O,enter,391,1,2448.800000011921,251605.19999998808,7019,WL,C,1.0
2,2.9609999656677246,learn,57039.000034332275,Tue Sep 24 2024 17:14:58 GMT-0500 (Central Daylight Time),254566.0,A,w,O,w,508,1,511.69999998807907,254054.30000001192,7019,WL,C,2.0
2,3.2339999675750732,learn,56766.00003242493,Tue Sep 24 2024 17:14:58 GMT-0500 (Central Daylight Time),254839.09999996424,A,wh,O,h,263,1,784.7999999523163,254054.30000001192,7019,WL,C,2.0
2,3.3989999294281006,learn,56601.0000705719,Tue Sep 24 2024 17:14:58 GMT-0500 (Central Daylight Time),255004.0,A,whe,O,e,152,1,949.6999999880791,254054.30000001192,7019,WL,C,2.0
2,3.5820000171661377,learn,56417.99998283386,Tue Sep 24 2024 17:14:58 GMT-0500 (Central Daylight Time),255187.19999998808,A,whea,O,a,170,1,1132.8999999761581,254054.30000001192,7019,WL,C,2.0
2,3.7649998664855957,learn,56235.000133514404,Tue Sep 24 2024 17:14:58 GMT-0500 (Central Daylight Time),255370.5,A,wheat,O,t,162,1,1316.199999988079,254054.30000001192,7019,WL,C,2.0
2,3.9819998741149902,learn,56018.00012588501,Tue Sep 24 2024 17:14:58 GMT-0500 (Central Daylight Time),255587.0,A,wheatenter,O,enter,212,1,1532.699999988079,254054.30000001192,7019,WL,C,2.0
2,4.514999866485596,learn,55485.000133514404,Tue Sep 24 2024 17:14:58 GMT-0500 (Central Daylight Time),256120.19999998808,A,q,O,q,523,1,532.8999999761581,255587.30000001192,7019,WL,C,3.0
2,4.697999954223633,learn,55302.00004577637,Tue Sep 24 2024 17:14:58 GMT-0500 (Central Daylight Time),256303.59999996424,A,qu,O,u,166,1,716.2999999523163,255587.30000001192,7019,WL,C,3.0
2,4.815000057220459,learn,55184.99994277954,Tue Sep 24 2024 17:14:58 GMT-0500 (Central Daylight Time),256420.09999996424,A,que,O,e,110,1,832.7999999523163,255587.30000001192,7019,WL,C,3.0
2,4.98199987411499,learn,55018.00012588501,Tue Sep 24 2024 17:14:58 GMT-0500 (Central Daylight Time),256587.30000001192,A,quee,O,e,162,1,1000.0,255587.30000001192,7019,WL,C,3.0
2,5.148000001907349,learn,54851.99999809265,Tue Sep 24 2024 17:14:58 GMT-0500 (Central Daylight Time),256753.39999997616,A,queen,O,n,155,1,1166.0999999642372,255587.30000001192,7019,WL,C,3.0
2,5.63100004196167,learn,54368.99995803833,Tue Sep 24 2024 17:14:58 GMT-0500 (Central Daylight Time),257236.5,A,queenenter,O,enter,469,1,1649.199999988079,255587.30000001192,7019,WL,C,3.0
2,6.180999994277954,learn,53819.000005722046,Tue Sep 24 2024 17:14:58 GMT-0500 (Central Daylight Time),257786.5,A,s,O,s,530,1,549.6999999880791,257236.80000001192,7019,WL,C,4.0
2,6.2820000648498535,learn,53717.99993515015,Tue Sep 24 2024 17:14:58 GMT-0500 (Central Daylight Time),257887.30000001192,A,su,O,u,91,1,650.5,257236.80000001192,7019,WL,C,4.0
2,6.547999858856201,learn,53452.0001411438,Tue Sep 24 2024 17:14:58 GMT-0500 (Central Daylight Time),258152.59999996424,A,sug,O,g,247,1,915.7999999523163,257236.80000001192,7019,WL,C,4.0
2,6.797999858856201,learn,53202.0001411438,Tue Sep 24 2024 17:14:58 GMT-0500 (Central Daylight Time),258402.80000001192,A,suga,O,a,238,1,1166.0,257236.80000001192,7019,WL,C,4.0
2,6.96399998664856,learn,53036.00001335144,Tue Sep 24 2024 17:14:58 GMT-0500 (Central Daylight Time),258569.59999996424,A,sugar,O,r,156,1,1332.7999999523163,257236.80000001192,7019,WL,C,4.0
2,7.197999954223633,learn,52802.00004577637,Tue Sep 24 2024 17:14:58 GMT-0500 (Central Daylight Time),258802.69999998808,A,sugarenter,O,enter,228,1,1565.8999999761581,257236.80000001192,7019,WL,C,4.0
2,7.63100004196167,learn,52368.99995803833,Tue Sep 24 2024 17:14:58 GMT-0500 (Central Daylight Time),259235.89999997616,A,h,O,h,420,1,432.89999997615814,258803.0,7019,WL,C,5.0
2,7.763999938964844,learn,52236.000061035156,Tue Sep 24 2024 17:14:58 GMT-0500 (Central Daylight Time),259369.09999996424,A,ho,O,o,122,1,566.0999999642372,258803.0,7019,WL,C,5.0
2,7.947000026702881,learn,52052.99997329712,Tue Sep 24 2024 17:14:58 GMT-0500 (Central Daylight Time),259552.5,A,hom,O,m,165,1,749.5,258803.0,7019,WL,C,5.0
2,8.079999923706055,learn,51920.000076293945,Tue Sep 24 2024 17:14:58 GMT-0500 (Central Daylight Time),259685.59999996424,A,home,O,e,125,1,882.5999999642372,258803.0,7019,WL,C,5.0
2,8.563999891281128,learn,51436.00010871887,Tue Sep 24 2024 17:14:58 GMT-0500 (Central Daylight Time),260168.89999997616,A,homeenter,O,enter,473,1,1365.8999999761581,258803.0,7019,WL,C,5.0
2,8.96399998664856,learn,51036.00001335144,Tue Sep 24 2024 17:14:58 GMT-0500 (Central Daylight Time),260568.69999998808,A,b,O,b,390,1,399.5,260169.19999998808,7019,WL,C,6.0
2,9.079999923706055,learn,50920.000076293945,Tue Sep 24 2024 17:14:58 GMT-0500 (Central Daylight Time),260685.39999997616,A,bo,O,o,110,1,516.1999999880791,260169.19999998808,7019,WL,C,6.0
2,9.29699993133545,learn,50703.00006866455,Tue Sep 24 2024 17:14:58 GMT-0500 (Central Daylight Time),260902.0,A,boy,O,y,201,1,732.8000000119209,260169.19999998808,7019,WL,C,6.0
2,9.680000066757202,learn,50319.9999332428,Tue Sep 24 2024 17:14:58 GMT-0500 (Central Daylight Time),261285.39999997616,A,boyenter,O,enter,377,1,1116.199999988079,260169.19999998808,7019,WL,C,6.0
2,9.980000019073486,learn,50019.999980926514,Tue Sep 24 2024 17:14:58 GMT-0500 (Central Daylight Time),261585.39999997616,A,d,O,d,289,1,299.69999998807907,261285.69999998808,7019,WL,C,7.0
2,10.098000049591064,learn,49901.999950408936,Tue Sep 24 2024 17:14:58 GMT-0500 (Central Daylight Time),261703.0,A,do,O,o,109,1,417.30000001192093,261285.69999998808,7019,WL,C,7.0
2,10.329999923706055,learn,49670.000076293945,Tue Sep 24 2024 17:14:58 GMT-0500 (Central Daylight Time),261934.80000001192,A,doc,O,c,223,1,649.1000000238419,261285.69999998808,7019,WL,C,7.0
2,10.730000019073486,learn,49269.999980926514,Tue Sep 24 2024 17:14:58 GMT-0500 (Central Daylight Time),262335.0,A,doct,O,t,383,1,1049.300000011921,261285.69999998808,7019,WL,C,7.0
2,10.86299991607666,learn,49137.00008392334,Tue Sep 24 2024 17:14:58 GMT-0500 (Central Daylight Time),262468.1999999881,A,docto,O,o,126,1,1182.5,261285.69999998808,7019,WL,C,7.0
2,10.980000019073486,learn,49019.999980926514,Tue Sep 24 2024 17:14:58 GMT-0500 (Central Daylight Time),262584.8000000119,A,doctor,O,r,105,1,1299.1000000238419,261285.69999998808,7019,WL,C,7.0
2,11.595999956130981,learn,48404.00004386902,Tue Sep 24 2024 17:14:58 GMT-0500 (Central Daylight Time),263201.59999996424,A,doctorenter,O,enter,597,1,1915.8999999761581,261285.69999998808,7019,WL,C,7.0
2,12.162999868392944,learn,47837.000131607056,Tue Sep 24 2024 17:14:58 GMT-0500 (Central Daylight Time),263767.8000000119,A,c,O,c,549,1,566.0,263201.8000000119,7019,WL,C,8.0
2,12.296000003814697,learn,47703.9999961853,Tue Sep 24 2024 17:14:58 GMT-0500 (Central Daylight Time),263900.89999997616,A,ca,O,a,127,1,699.0999999642372,263201.8000000119,7019,WL,C,8.0
2,12.395999908447266,learn,47604.000091552734,Tue Sep 24 2024 17:14:58 GMT-0500 (Central Daylight Time),264001.1999999881,A,cam,O,m,81,1,799.3999999761581,263201.8000000119,7019,WL,C,8.0
2,12.529000043869019,learn,47470.99995613098,Tue Sep 24 2024 17:14:58 GMT-0500 (Central Daylight Time),264134.39999997616,A,camp,O,p,116,1,932.5999999642372,263201.8000000119,7019,WL,C,8.0
2,13.078999996185303,learn,46921.0000038147,Tue Sep 24 2024 17:14:58 GMT-0500 (Central Daylight Time),264684.09999996424,A,campenter,O,enter,536,1,1482.2999999523163,263201.8000000119,7019,WL,C,8.0
2,13.595999956130981,learn,46404.00004386902,Tue Sep 24 2024 17:14:58 GMT-0500 (Central Daylight Time),265200.6999999881,A,f,O,f,507,1,516.3000000119209,264684.39999997616,7019,WL,C,9.0
2,13.711999893188477,learn,46288.00010681152,Tue Sep 24 2024 17:14:58 GMT-0500 (Central Daylight Time),265317.1999999881,A,fl,O,l,102,1,632.8000000119209,264684.39999997616,7019,WL,C,9.0
2,13.861999988555908,learn,46138.00001144409,Tue Sep 24 2024 17:14:58 GMT-0500 (Central Daylight Time),265467.1999999881,A,fla,O,a,145,1,782.8000000119209,264684.39999997616,7019,WL,C,9.0
2,14.029000043869019,learn,45970.99995613098,Tue Sep 24 2024 17:14:58 GMT-0500 (Central Daylight Time),265633.89999997616,A,flag,O,g,155,1,949.5,264684.39999997616,7019,WL,C,9.0
2,14.51199984550476,learn,45488.00015449524,Tue Sep 24 2024 17:14:58 GMT-0500 (Central Daylight Time),266117.1999999881,A,flagenter,O,enter,477,1,1432.800000011921,264684.39999997616,7019,WL,C,9.0
2,14.828999996185303,learn,45171.0000038147,Tue Sep 24 2024 17:14:58 GMT-0500 (Central Daylight Time),266433.6999999881,A,s,O,s,297,1,316.19999998807907,266117.5,7019,WL,C,10.0
2,14.994999885559082,learn,45005.00011444092,Tue Sep 24 2024 17:14:58 GMT-0500 (Central Daylight Time),266600.09999996424,A,sh,O,h,157,1,482.5999999642372,266117.5,7019,WL,C,10.0
2,15.144999980926514,learn,44855.000019073486,Tue Sep 24 2024 17:14:58 GMT-0500 (Central Daylight Time),266750.1999999881,A,sho,O,o,134,1,632.6999999880791,266117.5,7019,WL,C,10.0
2,15.277999877929688,learn,44722.00012207031,Tue Sep 24 2024 17:14:58 GMT-0500 (Central Daylight Time),266883.3000000119,A,shor,O,r,128,1,765.8000000119209,266117.5,7019,WL,C,10.0
2,15.34500002861023,learn,44654.99997138977,Tue Sep 24 2024 17:14:58 GMT-0500 (Central Daylight Time),266950.09999996424,A,shore,O,e,58,1,832.5999999642372,266117.5,7019,WL,C,10.0
2,15.944999933242798,learn,44055.0000667572,Tue Sep 24 2024 17:14:58 GMT-0500 (Central Daylight Time),267549.8000000119,A,shoreenter,O,enter,593,1,1432.300000011921,266117.5,7019,WL,C,10.0
2,16.34500002861023,learn,43654.99997138977,Tue Sep 24 2024 17:14:58 GMT-0500 (Central Daylight Time),267949.8000000119,A,b,O,b,392,1,399.60000002384186,267550.1999999881,7019,WL,C,11.0
2,16.49399995803833,learn,43506.00004196167,Tue Sep 24 2024 17:14:58 GMT-0500 (Central Daylight Time),268099.5,A,bo,O,o,144,1,549.3000000119209,267550.1999999881,7019,WL,C,11.0
2,16.67799997329712,learn,43322.00002670288,Tue Sep 24 2024 17:14:58 GMT-0500 (Central Daylight Time),268283.0,A,bod,O,d,179,1,732.8000000119209,267550.1999999881,7019,WL,C,11.0
2,16.861000061035156,learn,43138.999938964844,Tue Sep 24 2024 17:14:58 GMT-0500 (Central Daylight Time),268466.39999997616,A,body,O,y,171,1,916.1999999880791,267550.1999999881,7019,WL,C,11.0
2,17.310999870300293,learn,42689.00012969971,Tue Sep 24 2024 17:14:58 GMT-0500 (Central Daylight Time),268916.09999996424,A,bodyenter,O,enter,435,1,1365.8999999761581,267550.1999999881,7019,WL,C,11.0
2,20.927000045776367,learn,39072.99995422363,Tue Sep 24 2024 17:14:58 GMT-0500 (Central Daylight Time),272531.8000000119,A,c,O,c,3602,1,3615.300000011921,268916.5,7019,WL,C,12.0
2,21.009999990463257,learn,38990.00000953674,Tue Sep 24 2024 17:14:58 GMT-0500 (Central Daylight Time),272615.0,A,co,O,o,75,1,3698.5,268916.5,7019,WL,C,12.0
2,21.210000038146973,learn,38789.99996185303,Tue Sep 24 2024 17:14:58 GMT-0500 (Central Daylight Time),272815.09999996424,A,cor,O,r,191,1,3898.599999964237,268916.5,7019,WL,C,12.0
2,21.325999975204468,learn,38674.00002479553,Tue Sep 24 2024 17:14:58 GMT-0500 (Central Daylight Time),272931.59999996424,A,corn,O,n,103,1,4015.099999964237,268916.5,7019,WL,C,12.0
2,21.7260000705719,learn,38273.9999294281,Tue Sep 24 2024 17:14:58 GMT-0500 (Central Daylight Time),273331.3000000119,A,cornenter,O,enter,394,1,4414.800000011921,268916.5,7019,WL,C,12.0
2,25.97499990463257,learn,34025.00009536743,Tue Sep 24 2024 17:14:58 GMT-0500 (Central Daylight Time),277580.09999996424,A,enter,O,enter,4234,1,4248.5,273331.59999996424,7019,WL,C,13.0
2,26.842000007629395,learn,33157.999992370605,Tue Sep 24 2024 17:14:58 GMT-0500 (Central Daylight Time),278446.6999999881,A,enter,O,enter,850,1,866.1999999880791,277580.5,7019,WL,C,14.0
2,28.806999921798706,learn,31193.000078201294,Tue Sep 24 2024 17:14:58 GMT-0500 (Central Daylight Time),280412.5,A,enter,O,enter,1959,1,1965.5,278447.0,7019,WL,C,15.0
3,1.4000000953674316,learn,58599.99990463257,Tue Sep 24 2024 17:14:58 GMT-0500 (Central Daylight Time),348124.6999999881,A,t,O,t,1386,1,1399.6000000238419,346725.09999996424,7019,WL,C,1.0
3,1.5339999198913574,learn,58466.00008010864,Tue Sep 24 2024 17:14:58 GMT-0500 (Central Daylight Time),348257.89999997616,A,to,O,o,113,1,1532.800000011921,346725.09999996424,7019,WL,C,1.0
3,1.7829999923706055,learn,58217.000007629395,Tue Sep 24 2024 17:14:58 GMT-0500 (Central Daylight Time),348507.8000000119,A,tow,O,w,236,1,1782.7000000476837,346725.09999996424,7019,WL,C,1.0
3,1.8329999446868896,learn,58167.00005531311,Tue Sep 24 2024 17:14:58 GMT-0500 (Central Daylight Time),348557.59999996424,A,towe,O,e,34,1,1832.5,346725.09999996424,7019,WL,C,1.0
3,1.9790000915527344,learn,58020.999908447266,Tue Sep 24 2024 17:14:58 GMT-0500 (Central Daylight Time),348703.6999999881,A,tower,O,r,141,1,1978.6000000238419,346725.09999996424,7019,WL,C,1.0
3,2.2829999923706055,learn,57717.000007629395,Tue Sep 24 2024 17:14:58 GMT-0500 (Central Daylight Time),349007.3000000119,A,towerenter,O,enter,293,1,2282.2000000476837,346725.09999996424,7019,WL,C,1.0
3,2.7660000324249268,learn,57233.99996757507,Tue Sep 24 2024 17:14:58 GMT-0500 (Central Daylight Time),349490.6999999881,A,w,O,w,478,1,483.19999998807907,349007.5,7019,WL,C,2.0
3,3.0160000324249268,learn,56983.99996757507,Tue Sep 24 2024 17:14:58 GMT-0500 (Central Daylight Time),349740.6999999881,A,wh,O,h,243,1,733.1999999880791,349007.5,7019,WL,C,2.0
3,3.1500000953674316,learn,56849.99990463257,Tue Sep 24 2024 17:14:58 GMT-0500 (Central Daylight Time),349873.89999997616,A,whe,O,e,113,1,866.3999999761581,349007.5,7019,WL,C,2.0
3,3.3340001106262207,learn,56665.99988937378,Tue Sep 24 2024 17:14:58 GMT-0500 (Central Daylight Time),350058.5,A,whea,O,a,171,1,1051.0,349007.5,7019,WL,C,2.0
3,3.5829999446868896,learn,56417.00005531311,Tue Sep 24 2024 17:14:58 GMT-0500 (Central Daylight Time),350307.3000000119,A,wheat,O,t,228,1,1299.800000011921,349007.5,7019,WL,C,2.0
3,3.7660000324249268,learn,56233.99996757507,Tue Sep 24 2024 17:14:58 GMT-0500 (Central Daylight Time),350490.89999997616,A,wheatenter,O,enter,163,1,1483.3999999761581,349007.5,7019,WL,C,2.0
3,4.2820000648498535,learn,55717.99993515015,Tue Sep 24 2024 17:14:58 GMT-0500 (Central Daylight Time),351007.0,A,q,O,q,499,1,515.8000000119209,350491.1999999881,7019,WL,C,3.0
3,4.433000087738037,learn,55566.99991226196,Tue Sep 24 2024 17:14:58 GMT-0500 (Central Daylight Time),351157.0,A,qu,O,u,144,1,665.8000000119209,350491.1999999881,7019,WL,C,3.0
3,4.58299994468689,learn,55417.00005531311,Tue Sep 24 2024 17:14:58 GMT-0500 (Central Daylight Time),351307.0,A,que,O,e,129,1,815.8000000119209,350491.1999999881,7019,WL,C,3.0
3,4.733000040054321,learn,55266.99995994568,Tue Sep 24 2024 17:14:58 GMT-0500 (Central Daylight Time),351457.09999996424,A,quee,O,e,130,1,965.8999999761581,350491.1999999881,7019,WL,C,3.0
3,4.865999937057495,learn,55134.000062942505,Tue Sep 24 2024 17:14:58 GMT-0500 (Central Daylight Time),351590.1999999881,A,queen,O,n,116,1,1099.0,350491.1999999881,7019,WL,C,3.0
3,5.181999921798706,learn,54818.000078201294,Tue Sep 24 2024 17:14:58 GMT-0500 (Central Daylight Time),351906.8000000119,A,queenenter,O,enter,304,1,1415.6000000238419,350491.1999999881,7019,WL,C,3.0
3,5.615000009536743,learn,54384.99999046326,Tue Sep 24 2024 17:14:58 GMT-0500 (Central Daylight Time),352339.6999999881,A,s,O,s,428,1,432.60000002384186,351907.09999996424,7019,WL,C,4.0
3,5.815999984741211,learn,54184.00001525879,Tue Sep 24 2024 17:14:58 GMT-0500 (Central Daylight Time),352539.89999997616,A,su,O,u,187,1,632.8000000119209,351907.09999996424,7019,WL,C,4.0
3,6.0320000648498535,learn,53967.99993515015,Tue Sep 24 2024 17:14:58 GMT-0500 (Central Daylight Time),352756.59999996424,A,sug,O,g,203,1,849.5,351907.09999996424,7019,WL,C,4.0
3,6.181999921798706,learn,53818.000078201294,Tue Sep 24 2024 17:14:58 GMT-0500 (Central Daylight Time),352906.39999997616,A,suga,O,a,129,1,999.3000000119209,351907.09999996424,7019,WL,C,4.0
3,6.299000024795532,learn,53700.99997520447,Tue Sep 24 2024 17:14:58 GMT-0500 (Central Daylight Time),353023.09999996424,A,sugar,O,r,100,1,1116.0,351907.09999996424,7019,WL,C,4.0
3,6.5320000648498535,learn,53467.99993515015,Tue Sep 24 2024 17:14:58 GMT-0500 (Central Daylight Time),353256.3000000119,A,sugarenter,O,enter,216,1,1349.2000000476837,351907.09999996424,7019,WL,C,4.0
3,6.914999961853027,learn,53085.00003814697,Tue Sep 24 2024 17:14:58 GMT-0500 (Central Daylight Time),353639.6999999881,A,h,O,h,373,1,383.0,353256.6999999881,7019,WL,C,5.0
3,7.015000104904175,learn,52984.999895095825,Tue Sep 24 2024 17:14:58 GMT-0500 (Central Daylight Time),353739.8000000119,A,ho,O,o,86,1,483.10000002384186,353256.6999999881,7019,WL,C,5.0
3,7.197999954223633,learn,52802.00004577637,Tue Sep 24 2024 17:14:58 GMT-0500 (Central Daylight Time),353922.8000000119,A,hom,O,m,170,1,666.1000000238419,353256.6999999881,7019,WL,C,5.0
3,7.3480000495910645,learn,52651.999950408936,Tue Sep 24 2024 17:14:58 GMT-0500 (Central Daylight Time),354072.8000000119,A,home,O,e,139,1,816.1000000238419,353256.6999999881,7019,WL,C,5.0
3,7.664999961853027,learn,52335.00003814697,Tue Sep 24 2024 17:14:58 GMT-0500 (Central Daylight Time),354389.39999997616,A,homeenter,O,enter,302,1,1132.699999988079,353256.6999999881,7019,WL,C,5.0
3,7.997999906539917,learn,52002.00009346008,Tue Sep 24 2024 17:14:58 GMT-0500 (Central Daylight Time),354722.6999999881,A,b,O,b,312,1,332.89999997615814,354389.8000000119,7019,WL,C,6.0
3,8.098000049591064,learn,51901.999950408936,Tue Sep 24 2024 17:14:58 GMT-0500 (Central Daylight Time),354822.39999997616,A,bo,O,o,91,1,432.5999999642372,354389.8000000119,7019,WL,C,6.0
3,8.29800009727478,learn,51701.99990272522,Tue Sep 24 2024 17:14:58 GMT-0500 (Central Daylight Time),355022.39999997616,A,boy,O,y,192,1,632.5999999642372,354389.8000000119,7019,WL,C,6.0
3,8.697999954223633,learn,51302.00004577637,Tue Sep 24 2024 17:14:58 GMT-0500 (Central Daylight Time),355422.39999997616,A,boyenter,O,enter,391,1,1032.5999999642372,354389.8000000119,7019,WL,C,6.0
3,9.21399998664856,learn,50786.00001335144,Tue Sep 24 2024 17:14:58 GMT-0500 (Central Daylight Time),355938.8000000119,A,d,O,d,503,1,516.1000000238419,355422.6999999881,7019,WL,C,7.0
3,9.398000001907349,learn,50601.99999809265,Tue Sep 24 2024 17:14:58 GMT-0500 (Central Daylight Time),356122.1999999881,A,do,O,o,172,1,699.5,355422.6999999881,7019,WL,C,7.0
3,9.598000049591064,learn,50401.999950408936,Tue Sep 24 2024 17:14:58 GMT-0500 (Central Daylight Time),356322.0,A,doc,O,c,188,1,899.3000000119209,355422.6999999881,7019,WL,C,7.0
3,9.897000074386597,learn,50102.9999256134,Tue Sep 24 2024 17:14:58 GMT-0500 (Central Daylight Time),356621.59999996424,A,doct,O,t,291,1,1198.8999999761581,355422.6999999881,7019,WL,C,7.0
3,9.996999979019165,learn,50003.000020980835,Tue Sep 24 2024 17:14:58 GMT-0500 (Central Daylight Time),356721.89999997616,A,docto,O,o,80,1,1299.199999988079,355422.6999999881,7019,WL,C,7.0
3,10.19700002670288,learn,49802.99997329712,Tue Sep 24 2024 17:14:58 GMT-0500 (Central Daylight Time),356921.6999999881,A,doctor,O,r,179,1,1499.0,355422.6999999881,7019,WL,C,7.0
3,10.54699993133545,learn,49453.00006866455,Tue Sep 24 2024 17:14:58 GMT-0500 (Central Daylight Time),357271.89999997616,A,doctorenter,O,enter,330,1,1849.199999988079,355422.6999999881,7019,WL,C,7.0
3,11.331000089645386,learn,48668.999910354614,Tue Sep 24 2024 17:14:58 GMT-0500 (Central Daylight Time),358056.0,A,c,O,c,766,1,783.8000000119209,357272.1999999881,7019,WL,C,8.0
3,11.513999938964844,learn,48486.000061035156,Tue Sep 24 2024 17:14:58 GMT-0500 (Central Daylight Time),358238.0,A,ca,O,a,174,1,965.8000000119209,357272.1999999881,7019,WL,C,8.0
3,11.630000114440918,learn,48369.99988555908,Tue Sep 24 2024 17:14:58 GMT-0500 (Central Daylight Time),358354.8000000119,A,cam,O,m,95,1,1082.6000000238419,357272.1999999881,7019,WL,C,8.0
3,11.763999938964844,learn,48236.000061035156,Tue Sep 24 2024 17:14:58 GMT-0500 (Central Daylight Time),358488.1999999881,A,camp,O,p,124,1,1216.0,357272.1999999881,7019,WL,C,8.0
3,12.180000066757202,learn,47819.9999332428,Tue Sep 24 2024 17:14:58 GMT-0500 (Central Daylight Time),358904.39999997616,A,campenter,O,enter,406,1,1632.199999988079,357272.1999999881,7019,WL,C,8.0
3,12.663000106811523,learn,47336.99989318848,Tue Sep 24 2024 17:14:58 GMT-0500 (Central Daylight Time),359387.5,A,f,O,f,476,1,482.60000002384186,358904.89999997616,7019,WL,C,9.0
3,12.79699993133545,learn,47203.00006866455,Tue Sep 24 2024 17:14:58 GMT-0500 (Central Daylight Time),359521.09999996424,A,fa,O,a,122,1,616.1999999880791,358904.89999997616,7019,WL,C,9.0
3,12.86299991607666,learn,47137.00008392334,Tue Sep 24 2024 17:14:58 GMT-0500 (Central Daylight Time),359587.39999997616,A,fal,O,l,61,1,682.5,358904.89999997616,7019,WL,C,9.0
3,13.145999908447266,learn,46854.000091552734,Tue Sep 24 2024 17:14:58 GMT-0500 (Central Daylight Time),359871.0,A,falg,O,g,267,1,966.1000000238419,358904.89999997616,7019,WL,C,9.0
3,14.081000089645386,learn,45918.999910354614,Tue Sep 24 2024 17:14:58 GMT-0500 (Central Daylight Time),360805.0,A,fal,O,backspace,927,1,1900.1000000238419,358904.89999997616,7019,WL,C,9.0
3,14.279000043869019,learn,45720.99995613098,Tue Sep 24 2024 17:14:58 GMT-0500 (Central Daylight Time),361003.6999999881,A,fa,O,backspace,193,1,2098.800000011921,358904.89999997616,7019,WL,C,9.0
3,14.779000043869019,learn,45220.99995613098,Tue Sep 24 2024 17:14:58 GMT-0500 (Central Daylight Time),361503.8000000119,A,f,O,backspace,491,1,2598.900000035763,358904.89999997616,7019,WL,C,9.0
3,15.111999988555908,learn,44888.00001144409,Tue Sep 24 2024 17:14:58 GMT-0500 (Central Daylight Time),361836.8000000119,A,fl,O,l,319,1,2931.900000035763,358904.89999997616,7019,WL,C,9.0
3,15.395999908447266,learn,44604.000091552734,Tue Sep 24 2024 17:14:58 GMT-0500 (Central Daylight Time),362120.1999999881,A,fla,O,a,273,1,3215.300000011921,358904.89999997616,7019,WL,C,9.0
3,15.595999956130981,learn,44404.00004386902,Tue Sep 24 2024 17:14:58 GMT-0500 (Central Daylight Time),362320.3000000119,A,flag,O,g,190,1,3415.400000035763,358904.89999997616,7019,WL,C,9.0
3,15.861999988555908,learn,44138.00001144409,Tue Sep 24 2024 17:14:58 GMT-0500 (Central Daylight Time),362586.89999997616,A,flagenter,O,enter,246,1,3682.0,358904.89999997616,7019,WL,C,9.0
3,16.312000036239624,learn,43687.999963760376,Tue Sep 24 2024 17:14:58 GMT-0500 (Central Daylight Time),363036.39999997616,A,l,O,l,443,1,449.19999998807907,362587.1999999881,7019,WL,C,10.0
3,16.430000066757202,learn,43569.9999332428,Tue Sep 24 2024 17:14:58 GMT-0500 (Central Daylight Time),363154.59999996424,A,le,O,e,113,1,567.3999999761581,362587.1999999881,7019,WL,C,10.0
3,16.694999933242798,learn,43305.0000667572,Tue Sep 24 2024 17:14:58 GMT-0500 (Central Daylight Time),363419.6999999881,A,let,O,t,251,1,832.5,362587.1999999881,7019,WL,C,10.0
3,16.894999980926514,learn,43105.000019073486,Tue Sep 24 2024 17:14:58 GMT-0500 (Central Daylight Time),363619.5,A,lett,O,t,194,1,1032.300000011921,362587.1999999881,7019,WL,C,10.0
3,17.32800006866455,learn,42671.99993133545,Tue Sep 24 2024 17:14:58 GMT-0500 (Central Daylight Time),364053.0,A,lette,O,e,426,1,1465.800000011921,362587.1999999881,7019,WL,C,10.0
3,17.411999940872192,learn,42588.00005912781,Tue Sep 24 2024 17:14:58 GMT-0500 (Central Daylight Time),364136.1999999881,A,letter,O,r,66,1,1549.0,362587.1999999881,7019,WL,C,10.0
3,17.878000020980835,learn,42121.999979019165,Tue Sep 24 2024 17:14:58 GMT-0500 (Central Daylight Time),364602.8000000119,A,letterenter,O,enter,462,1,2015.6000000238419,362587.1999999881,7019,WL,C,10.0
3,19.278000116348267,learn,40721.99988365173,Tue Sep 24 2024 17:14:58 GMT-0500 (Central Daylight Time),366002.3000000119,A,b,O,b,1379,1,1399.300000011921,364603.0,7019,WL,C,11.0
3,19.39400005340576,learn,40605.99994659424,Tue Sep 24 2024 17:14:58 GMT-0500 (Central Daylight Time),366118.8000000119,A,bo,O,o,100,1,1515.800000011921,364603.0,7019,WL,C,11.0
3,19.528000116348267,learn,40471.99988365173,Tue Sep 24 2024 17:14:58 GMT-0500 (Central Daylight Time),366252.3000000119,A,bod,O,d,127,1,1649.300000011921,364603.0,7019,WL,C,11.0
3,19.710999965667725,learn,40289.000034332275,Tue Sep 24 2024 17:14:58 GMT-0500 (Central Daylight Time),366435.89999997616,A,body,O,y,170,1,1832.8999999761581,364603.0,7019,WL,C,11.0
3,20.094000101089478,learn,39905.99989891052,Tue Sep 24 2024 17:14:58 GMT-0500 (Central Daylight Time),366818.6999999881,A,bodyenter,O,enter,371,1,2215.699999988079,364603.0,7019,WL,C,11.0
3,23.092999935150146,learn,36907.00006484985,Tue Sep 24 2024 17:14:58 GMT-0500 (Central Daylight Time),369817.6999999881,A,n,O,n,2979,1,2998.600000023842,366819.09999996424,7019,WL,C,12.0
3,23.210000038146973,learn,36789.99996185303,Tue Sep 24 2024 17:14:58 GMT-0500 (Central Daylight Time),369934.39999997616,A,na,O,a,109,1,3115.300000011921,366819.09999996424,7019,WL,C,12.0
3,23.342999935150146,learn,36657.00006484985,Tue Sep 24 2024 17:14:58 GMT-0500 (Central Daylight Time),370067.5,A,nai,O,i,127,1,3248.400000035763,366819.09999996424,7019,WL,C,12.0
3,23.55999994277954,learn,36440.00005722046,Tue Sep 24 2024 17:14:58 GMT-0500 (Central Daylight Time),370284.39999997616,A,nail,O,l,211,1,3465.300000011921,366819.09999996424,7019,WL,C,12.0
3,24.092999935150146,learn,35907.00006484985,Tue Sep 24 2024 17:14:58 GMT-0500 (Central Daylight Time),370817.6999999881,A,nailenter,O,enter,514,1,3998.600000023842,366819.09999996424,7019,WL,C,12.0
3,26.875,learn,33125.0,Tue Sep 24 2024 17:14:58 GMT-0500 (Central Daylight Time),373599.8000000119,A,c,O,c,2764,1,2781.900000035763,370817.89999997616,7019,WL,C,13.0
3,27.22499990463257,learn,32775.00009536743,Tue Sep 24 2024 17:14:58 GMT-0500 (Central Daylight Time),373949.89999997616,A,ca,O,a,343,1,3132.0,370817.89999997616,7019,WL,C,13.0
3,30.223999977111816,learn,29776.000022888184,Tue Sep 24 2024 17:14:58 GMT-0500 (Central Daylight Time),376948.89999997616,A,cat,O,t,2985,1,6131.0,370817.89999997616,7019,WL,C,13.0
3,30.391000032424927,learn,29608.999967575073,Tue Sep 24 2024 17:14:58 GMT-0500 (Central Daylight Time),377115.1999999881,A,catt,O,t,162,1,6297.300000011921,370817.89999997616,7019,WL,C,13.0
3,30.473999977111816,learn,29526.000022888184,Tue Sep 24 2024 17:14:58 GMT-0500 (Central Daylight Time),377198.89999997616,A,cattl,O,l,67,1,6381.0,370817.89999997616,7019,WL,C,13.0
3,30.674000024795532,learn,29325.999975204468,Tue Sep 24 2024 17:14:58 GMT-0500 (Central Daylight Time),377398.6999999881,A,cattle,O,e,192,1,6580.800000011921,370817.89999997616,7019,WL,C,13.0
3,30.924000024795532,learn,29075.999975204468,Tue Sep 24 2024 17:14:58 GMT-0500 (Central Daylight Time),377648.6999999881,A,cattleenter,O,enter,232,1,6830.800000011921,370817.89999997616,7019,WL,C,13.0
3,32.473999977111816,learn,27526.000022888184,Tue Sep 24 2024 17:14:58 GMT-0500 (Central Daylight Time),379198.09999996424,A,c,O,c,1534,1,1549.199999988079,377648.89999997616,7019,WL,C,14.0
3,32.5239999294281,learn,27476.0000705719,Tue Sep 24 2024 17:14:58 GMT-0500 (Central Daylight Time),379248.0,A,co,O,o,40,1,1599.1000000238419,377648.89999997616,7019,WL,C,14.0
3,32.79099988937378,learn,27209.00011062622,Tue Sep 24 2024 17:14:58 GMT-0500 (Central Daylight Time),379515.0,A,cor,O,r,247,1,1866.1000000238419,377648.89999997616,7019,WL,C,14.0
3,32.890000104904175,learn,27109.999895095825,Tue Sep 24 2024 17:14:58 GMT-0500 (Central Daylight Time),379614.8000000119,A,corn,O,n,84,1,1965.9000000357628,377648.89999997616,7019,WL,C,14.0
3,33.28999996185303,learn,26710.000038146973,Tue Sep 24 2024 17:14:58 GMT-0500 (Central Daylight Time),380014.8000000119,A,cornenter,O,enter,384,1,2365.900000035763,377648.89999997616,7019,WL,C,14.0
3,35.65599989891052,learn,24344.000101089478,Tue Sep 24 2024 17:14:58 GMT-0500 (Central Daylight Time),382380.59999996424,A,enter,O,enter,2360,1,2365.599999964237,380015.0,7019,WL,C,15.0
4,1.5999999046325684,learn,58400.00009536743,Tue Sep 24 2024 17:14:58 GMT-0500 (Central Daylight Time),450709.1999999881,A,t,O,t,1594,1,1599.3999999761581,449109.8000000119,7019,WL,C,1.0
4,1.75,learn,58250.0,Tue Sep 24 2024 17:14:58 GMT-0500 (Central Daylight Time),450859.09999996424,A,to,O,o,145,1,1749.2999999523163,449109.8000000119,7019,WL,C,1.0
4,2.0160000324249268,learn,57983.99996757507,Tue Sep 24 2024 17:14:58 GMT-0500 (Central Daylight Time),451125.8000000119,A,tow,O,w,259,1,2016.0,449109.8000000119,7019,WL,C,1.0
4,2.065999984741211,learn,57934.00001525879,Tue Sep 24 2024 17:14:58 GMT-0500 (Central Daylight Time),451175.59999996424,A,towe,O,e,40,1,2065.7999999523163,449109.8000000119,7019,WL,C,1.0
4,2.2160000801086426,learn,57783.99991989136,Tue Sep 24 2024 17:14:58 GMT-0500 (Central Daylight Time),451325.59999996424,A,tower,O,r,134,1,2215.7999999523163,449109.8000000119,7019,WL,C,1.0
4,2.5490000247955322,learn,57450.99997520447,Tue Sep 24 2024 17:14:58 GMT-0500 (Central Daylight Time),451658.8000000119,A,towerenter,O,enter,320,1,2549.0,449109.8000000119,7019,WL,C,1.0
4,3.132999897003174,learn,56867.000102996826,Tue Sep 24 2024 17:14:58 GMT-0500 (Central Daylight Time),452242.09999996424,A,w,O,w,571,1,583.0,451659.09999996424,7019,WL,C,2.0
4,3.5490000247955322,learn,56450.99997520447,Tue Sep 24 2024 17:14:58 GMT-0500 (Central Daylight Time),452658.39999997616,A,wh,O,h,404,1,999.3000000119209,451659.09999996424,7019,WL,C,2.0
4,3.7320001125335693,learn,56267.99988746643,Tue Sep 24 2024 17:14:58 GMT-0500 (Central Daylight Time),452841.8000000119,A,whe,O,e,163,1,1182.7000000476837,451659.09999996424,7019,WL,C,2.0
4,3.9660000801086426,learn,56033.99991989136,Tue Sep 24 2024 17:14:58 GMT-0500 (Central Daylight Time),453075.1999999881,A,whea,O,a,213,1,1416.1000000238419,451659.09999996424,7019,WL,C,2.0
4,4.148999929428101,learn,55851.0000705719,Tue Sep 24 2024 17:14:58 GMT-0500 (Central Daylight Time),453258.39999997616,A,wheat,O,t,170,1,1599.300000011921,451659.09999996424,7019,WL,C,2.0
4,4.249000072479248,learn,55750.99992752075,Tue Sep 24 2024 17:14:58 GMT-0500 (Central Daylight Time),453358.09999996424,A,wheatenter,O,enter,91,1,1699.0,451659.09999996424,7019,WL,C,2.0
4,4.7820000648498535,learn,55217.99993515015,Tue Sep 24 2024 17:14:58 GMT-0500 (Central Daylight Time),453891.39999997616,A,q,O,q,520,1,533.0999999642372,453358.3000000119,7019,WL,C,3.0
4,4.931999921798706,learn,55068.000078201294,Tue Sep 24 2024 17:14:58 GMT-0500 (Central Daylight Time),454041.5,A,qu,O,u,139,1,683.1999999880791,453358.3000000119,7019,WL,C,3.0
4,5.065000057220459,learn,54934.99994277954,Tue Sep 24 2024 17:14:58 GMT-0500 (Central Daylight Time),454174.6999999881,A,que,O,e,125,1,816.3999999761581,453358.3000000119,7019,WL,C,3.0
4,5.232000112533569,learn,54767.99988746643,Tue Sep 24 2024 17:14:58 GMT-0500 (Central Daylight Time),454341.1999999881,A,quee,O,e,159,1,982.8999999761581,453358.3000000119,7019,WL,C,3.0
4,5.365000009536743,learn,54634.99999046326,Tue Sep 24 2024 17:14:58 GMT-0500 (Central Daylight Time),454474.3000000119,A,queen,O,n,121,1,1116.0,453358.3000000119,7019,WL,C,3.0
4,5.681999921798706,learn,54318.000078201294,Tue Sep 24 2024 17:14:58 GMT-0500 (Central Daylight Time),454791.09999996424,A,queenenter,O,enter,307,1,1432.7999999523163,453358.3000000119,7019,WL,C,3.0
4,6.2149999141693115,learn,53785.00008583069,Tue Sep 24 2024 17:14:58 GMT-0500 (Central Daylight Time),455324.5,A,s,O,s,520,1,533.1000000238419,454791.39999997616,7019,WL,C,4.0
4,6.4649999141693115,learn,53535.00008583069,Tue Sep 24 2024 17:14:58 GMT-0500 (Central Daylight Time),455574.39999997616,A,su,O,u,233,1,783.0,454791.39999997616,7019,WL,C,4.0
4,6.648000001907349,learn,53351.99999809265,Tue Sep 24 2024 17:14:58 GMT-0500 (Central Daylight Time),455757.5,A,sug,O,g,175,1,966.1000000238419,454791.39999997616,7019,WL,C,4.0
4,6.79800009727478,learn,53201.99990272522,Tue Sep 24 2024 17:14:58 GMT-0500 (Central Daylight Time),455907.3000000119,A,suga,O,a,145,1,1115.9000000357628,454791.39999997616,7019,WL,C,4.0
4,6.915999889373779,learn,53084.00011062622,Tue Sep 24 2024 17:14:58 GMT-0500 (Central Daylight Time),456025.1999999881,A,sugar,O,r,106,1,1233.800000011921,454791.39999997616,7019,WL,C,4.0
4,7.197999954223633,learn,52802.00004577637,Tue Sep 24 2024 17:14:58 GMT-0500 (Central Daylight Time),456307.1999999881,A,sugarenter,O,enter,277,1,1515.800000011921,454791.39999997616,7019,WL,C,4.0
4,7.614000082015991,learn,52385.99991798401,Tue Sep 24 2024 17:14:58 GMT-0500 (Central Daylight Time),456723.8000000119,A,h,O,h,411,1,416.4000000357628,456307.39999997616,7019,WL,C,5.0
4,7.747999906539917,learn,52252.00009346008,Tue Sep 24 2024 17:14:58 GMT-0500 (Central Daylight Time),456857.1999999881,A,ho,O,o,114,1,549.8000000119209,456307.39999997616,7019,WL,C,5.0
4,7.88100004196167,learn,52118.99995803833,Tue Sep 24 2024 17:14:58 GMT-0500 (Central Daylight Time),456990.5,A,hom,O,m,125,1,683.1000000238419,456307.39999997616,7019,WL,C,5.0
4,8.063999891281128,learn,51936.00010871887,Tue Sep 24 2024 17:14:58 GMT-0500 (Central Daylight Time),457173.6999999881,A,home,O,e,175,1,866.3000000119209,456307.39999997616,7019,WL,C,5.0
4,8.496999979019165,learn,51503.000020980835,Tue Sep 24 2024 17:14:58 GMT-0500 (Central Daylight Time),457606.8000000119,A,homeenter,O,enter,425,1,1299.4000000357628,456307.39999997616,7019,WL,C,5.0
4,9.263999938964844,learn,50736.000061035156,Tue Sep 24 2024 17:14:58 GMT-0500 (Central Daylight Time),458373.3000000119,A,b,O,b,751,1,766.2000000476837,457607.09999996424,7019,WL,C,6.0
4,9.380000114440918,learn,50619.99988555908,Tue Sep 24 2024 17:14:58 GMT-0500 (Central Daylight Time),458489.8000000119,A,bo,O,o,95,1,882.7000000476837,457607.09999996424,7019,WL,C,6.0
4,9.597000122070312,learn,50402.99987792969,Tue Sep 24 2024 17:14:58 GMT-0500 (Central Daylight Time),458706.6999999881,A,boy,O,y,204,1,1099.6000000238419,457607.09999996424,7019,WL,C,6.0
4,9.980000019073486,learn,50019.999980926514,Tue Sep 24 2024 17:14:58 GMT-0500 (Central Daylight Time),459089.59999996424,A,boyenter,O,enter,363,1,1482.5,457607.09999996424,7019,WL,C,6.0
4,10.413000106811523,learn,49586.99989318848,Tue Sep 24 2024 17:14:58 GMT-0500 (Central Daylight Time),459523.0,A,d,O,d,421,1,433.0,459090.0,7019,WL,C,7.0
4,10.52999997138977,learn,49470.00002861023,Tue Sep 24 2024 17:14:58 GMT-0500 (Central Daylight Time),459639.59999996424,A,do,O,o,107,1,549.5999999642372,459090.0,7019,WL,C,7.0
4,10.730000019073486,learn,49269.999980926514,Tue Sep 24 2024 17:14:58 GMT-0500 (Central Daylight Time),459839.5,A,doc,O,c,183,1,749.5,459090.0,7019,WL,C,7.0
4,11.013000011444092,learn,48986.99998855591,Tue Sep 24 2024 17:14:58 GMT-0500 (Central Daylight Time),460122.8000000119,A,doct,O,t,262,1,1032.800000011921,459090.0,7019,WL,C,7.0
4,11.097000122070312,learn,48902.99987792969,Tue Sep 24 2024 17:14:58 GMT-0500 (Central Daylight Time),460206.3000000119,A,docto,O,o,76,1,1116.300000011921,459090.0,7019,WL,C,7.0
4,11.263000011444092,learn,48736.99998855591,Tue Sep 24 2024 17:14:58 GMT-0500 (Central Daylight Time),460373.0,A,doctor,O,r,153,1,1283.0,459090.0,7019,WL,C,7.0
4,11.595999956130981,learn,48404.00004386902,Tue Sep 24 2024 17:14:58 GMT-0500 (Central Daylight Time),460705.8000000119,A,doctorenter,O,enter,321,1,1615.800000011921,459090.0,7019,WL,C,7.0
4,12.062999963760376,learn,47937.000036239624,Tue Sep 24 2024 17:14:58 GMT-0500 (Central Daylight Time),461172.59999996424,A,f,O,f,461,1,466.5,460706.09999996424,7019,WL,C,8.0
4,12.196000099182129,learn,47803.99990081787,Tue Sep 24 2024 17:14:58 GMT-0500 (Central Daylight Time),461305.5,A,fl,O,l,121,1,599.4000000357628,460706.09999996424,7019,WL,C,8.0
4,12.328999996185303,learn,47671.0000038147,Tue Sep 24 2024 17:14:58 GMT-0500 (Central Daylight Time),461439.0,A,fla,O,a,124,1,732.9000000357628,460706.09999996424,7019,WL,C,8.0
4,12.546000003814697,learn,47453.9999961853,Tue Sep 24 2024 17:14:58 GMT-0500 (Central Daylight Time),461655.5,A,flag,O,g,207,1,949.4000000357628,460706.09999996424,7019,WL,C,8.0
4,12.828999996185303,learn,47171.0000038147,Tue Sep 24 2024 17:14:58 GMT-0500 (Central Daylight Time),461938.89999997616,A,flagenter,O,enter,271,1,1232.800000011921,460706.09999996424,7019,WL,C,8.0
4,13.312999963760376,learn,46687.000036239624,Tue Sep 24 2024 17:14:58 GMT-0500 (Central Daylight Time),462422.09999996424,A,c,O,c,475,1,482.7999999523163,461939.3000000119,7019,WL,C,9.0
4,13.446000099182129,learn,46553.99990081787,Tue Sep 24 2024 17:14:58 GMT-0500 (Central Daylight Time),462555.3000000119,A,ca,O,a,120,1,616.0,461939.3000000119,7019,WL,C,9.0
4,13.578999996185303,learn,46421.0000038147,Tue Sep 24 2024 17:14:58 GMT-0500 (Central Daylight Time),462688.5,A,cam,O,m,122,1,749.1999999880791,461939.3000000119,7019,WL,C,9.0
4,13.746000051498413,learn,46253.99994850159,Tue Sep 24 2024 17:14:58 GMT-0500 (Central Daylight Time),462855.1999999881,A,camp,O,p,150,1,915.8999999761581,461939.3000000119,7019,WL,C,9.0
4,14.295000076293945,learn,45704.999923706055,Tue Sep 24 2024 17:14:58 GMT-0500 (Central Daylight Time),463405.0,A,campenter,O,enter,535,1,1465.699999988079,461939.3000000119,7019,WL,C,9.0
4,14.979000091552734,learn,45020.999908447266,Tue Sep 24 2024 17:14:58 GMT-0500 (Central Daylight Time),464088.1999999881,A,l,O,l,674,1,682.8999999761581,463405.3000000119,7019,WL,C,10.0
4,15.194999933242798,learn,44805.0000667572,Tue Sep 24 2024 17:14:58 GMT-0500 (Central Daylight Time),464304.8000000119,A,le,O,e,198,1,899.5,463405.3000000119,7019,WL,C,10.0
4,15.729000091552734,learn,44270.999908447266,Tue Sep 24 2024 17:14:58 GMT-0500 (Central Daylight Time),464838.89999997616,A,let,O,t,517,1,1433.5999999642372,463405.3000000119,7019,WL,C,10.0
4,15.911999940872192,learn,44088.00005912781,Tue Sep 24 2024 17:14:58 GMT-0500 (Central Daylight Time),465021.39999997616,A,lett,O,t,167,1,1616.0999999642372,463405.3000000119,7019,WL,C,10.0
4,15.995000123977661,learn,44004.99987602234,Tue Sep 24 2024 17:14:58 GMT-0500 (Central Daylight Time),465104.39999997616,A,lette,O,e,64,1,1699.0999999642372,463405.3000000119,7019,WL,C,10.0
4,16.111999988555908,learn,43888.00001144409,Tue Sep 24 2024 17:14:58 GMT-0500 (Central Daylight Time),465221.09999996424,A,letter,O,r,110,1,1815.7999999523163,463405.3000000119,7019,WL,C,10.0
4,16.74500012397766,learn,43254.99987602234,Tue Sep 24 2024 17:14:58 GMT-0500 (Central Daylight Time),465854.39999997616,A,letterenter,O,enter,616,1,2449.099999964237,463405.3000000119,7019,WL,C,10.0
4,17.47099995613098,learn,42529.00004386902,Tue Sep 24 2024 17:14:58 GMT-0500 (Central Daylight Time),466580.3000000119,A,o,O,o,721,1,725.7000000476837,465854.59999996424,7019,WL,C,11.0
4,17.694999933242798,learn,42305.0000667572,Tue Sep 24 2024 17:14:58 GMT-0500 (Central Daylight Time),466804.39999997616,A,or,O,r,210,1,949.8000000119209,465854.59999996424,7019,WL,C,11.0
4,17.844000101089478,learn,42155.99989891052,Tue Sep 24 2024 17:14:58 GMT-0500 (Central Daylight Time),466953.89999997616,A,orn,O,n,129,1,1099.300000011921,465854.59999996424,7019,WL,C,11.0
4,18.57800006866455,learn,41421.99993133545,Tue Sep 24 2024 17:14:58 GMT-0500 (Central Daylight Time),467687.09999996424,A,or,O,backspace,717,1,1832.5,465854.59999996424,7019,WL,C,11.0
4,18.76099991798401,learn,41239.00008201599,Tue Sep 24 2024 17:14:58 GMT-0500 (Central Daylight Time),467870.59999996424,A,o,O,backspace,175,1,2016.0,465854.59999996424,7019,WL,C,11.0
4,18.944000005722046,learn,41055.999994277954,Tue Sep 24 2024 17:14:58 GMT-0500 (Central Daylight Time),468053.59999996424,A,,O,backspace,167,1,2199.0,465854.59999996424,7019,WL,C,11.0
4,19.32699990272522,learn,40673.00009727478,Tue Sep 24 2024 17:14:58 GMT-0500 (Central Daylight Time),468436.8000000119,A,c,O,c,377,1,2582.2000000476837,465854.59999996424,7019,WL,C,11.0
4,19.39400005340576,learn,40605.99994659424,Tue Sep 24 2024 17:14:58 GMT-0500 (Central Daylight Time),468503.59999996424,A,co,O,o,57,1,2649.0,465854.59999996424,7019,WL,C,11.0
4,19.66100001335144,learn,40338.99998664856,Tue Sep 24 2024 17:14:58 GMT-0500 (Central Daylight Time),468770.1999999881,A,cor,O,r,255,1,2915.600000023842,465854.59999996424,7019,WL,C,11.0
4,19.76099991798401,learn,40239.00008201599,Tue Sep 24 2024 17:14:58 GMT-0500 (Central Daylight Time),468870.09999996424,A,corn,O,n,92,1,3015.5,465854.59999996424,7019,WL,C,11.0
4,20.24399995803833,learn,39756.00004196167,Tue Sep 24 2024 17:14:58 GMT-0500 (Central Daylight Time),469353.3000000119,A,cornenter,O,enter,465,1,3498.7000000476837,465854.59999996424,7019,WL,C,11.0
4,20.64400005340576,learn,39355.99994659424,Tue Sep 24 2024 17:14:58 GMT-0500 (Central Daylight Time),469753.09999996424,A,c,O,c,381,1,399.2999999523163,469353.8000000119,7019,WL,C,12.0
4,20.80999994277954,learn,39190.00005722046,Tue Sep 24 2024 17:14:58 GMT-0500 (Central Daylight Time),469919.6999999881,A,ca,O,a,148,1,565.8999999761581,469353.8000000119,7019,WL,C,12.0
4,21.009999990463257,learn,38990.00000953674,Tue Sep 24 2024 17:14:58 GMT-0500 (Central Daylight Time),470119.8000000119,A,cat,O,t,191,1,766.0,469353.8000000119,7019,WL,C,12.0
4,21.177000045776367,learn,38822.99995422363,Tue Sep 24 2024 17:14:58 GMT-0500 (Central Daylight Time),470286.39999997616,A,catt,O,t,159,1,932.5999999642372,469353.8000000119,7019,WL,C,12.0
4,21.278000116348267,learn,38721.99988365173,Tue Sep 24 2024 17:14:58 GMT-0500 (Central Daylight Time),470387.39999997616,A,cattl,O,l,87,1,1033.5999999642372,469353.8000000119,7019,WL,C,12.0
4,21.427000045776367,learn,38572.99995422363,Tue Sep 24 2024 17:14:58 GMT-0500 (Central Daylight Time),470536.09999996424,A,cattle,O,e,139,1,1182.2999999523163,469353.8000000119,7019,WL,C,12.0
4,21.792999982833862,learn,38207.00001716614,Tue Sep 24 2024 17:14:58 GMT-0500 (Central Daylight Time),470902.59999996424,A,cattleenter,O,enter,350,1,1548.7999999523163,469353.8000000119,7019,WL,C,12.0
4,22.30999994277954,learn,37690.00005722046,Tue Sep 24 2024 17:14:58 GMT-0500 (Central Daylight Time),471419.1999999881,A,s,O,s,496,1,516.1999999880791,470903.0,7019,WL,C,13.0
4,22.509999990463257,learn,37490.00000953674,Tue Sep 24 2024 17:14:58 GMT-0500 (Central Daylight Time),471619.0,A,sh,O,h,187,1,716.0,470903.0,7019,WL,C,13.0
4,22.625999927520752,learn,37374.00007247925,Tue Sep 24 2024 17:14:58 GMT-0500 (Central Daylight Time),471735.8000000119,A,sho,O,o,108,1,832.8000000119209,470903.0,7019,WL,C,13.0
4,22.776000022888184,learn,37223.99997711182,Tue Sep 24 2024 17:14:58 GMT-0500 (Central Daylight Time),471885.6999999881,A,shor,O,r,142,1,982.6999999880791,470903.0,7019,WL,C,13.0
4,22.842999935150146,learn,37157.00006484985,Tue Sep 24 2024 17:14:58 GMT-0500 (Central Daylight Time),471952.3000000119,A,shore,O,e,49,1,1049.300000011921,470903.0,7019,WL,C,13.0
4,23.158999919891357,learn,36841.00008010864,Tue Sep 24 2024 17:14:58 GMT-0500 (Central Daylight Time),472268.89999997616,A,shoreenter,O,enter,302,1,1365.8999999761581,470903.0,7019,WL,C,13.0
4,23.509000062942505,learn,36490.999937057495,Tue Sep 24 2024 17:14:58 GMT-0500 (Central Daylight Time),472618.59999996424,A,n,O,n,345,1,349.2999999523163,472269.3000000119,7019,WL,C,14.0
4,23.693000078201294,learn,36306.999921798706,Tue Sep 24 2024 17:14:58 GMT-0500 (Central Daylight Time),472802.0,A,na,O,a,163,1,532.6999999880791,472269.3000000119,7019,WL,C,14.0
4,23.776000022888184,learn,36223.99997711182,Tue Sep 24 2024 17:14:58 GMT-0500 (Central Daylight Time),472885.5,A,nai,O,i,69,1,616.1999999880791,472269.3000000119,7019,WL,C,14.0
4,23.9760000705719,learn,36023.9999294281,Tue Sep 24 2024 17:14:58 GMT-0500 (Central Daylight Time),473085.39999997616,A,nail,O,l,192,1,816.0999999642372,472269.3000000119,7019,WL,C,14.0
4,24.408999919891357,learn,35591.00008010864,Tue Sep 24 2024 17:14:58 GMT-0500 (Central Daylight Time),473518.5,A,nailenter,O,enter,425,1,1249.199999988079,472269.3000000119,7019,WL,C,14.0
4,32.25600004196167,learn,27743.99995803833,Tue Sep 24 2024 17:14:58 GMT-0500 (Central Daylight Time),481365.89999997616,A,enter,O,enter,7832,1,7847.0,473518.89999997616,7019,WL,C,15.0
5,1.5,learn,60000.0,Tue Sep 24 2024 17:14:58 GMT-0500 (Central Daylight Time),548478.6999999881,A,t,O,t,1483,1,1499.800000011921,546978.8999999762,7019,WL,C,1.0
5,1.616999864578247,learn,60000.0,Tue Sep 24 2024 17:14:58 GMT-0500 (Central Daylight Time),548595.0,A,to,O,o,112,1,1616.1000000238419,546978.8999999762,7019,WL,C,1.0
5,1.815999984741211,learn,60000.0,Tue Sep 24 2024 17:14:58 GMT-0500 (Central Daylight Time),548794.6999999881,A,tow,O,w,180,1,1815.800000011921,546978.8999999762,7019,WL,C,1.0
5,1.8999998569488525,learn,60000.0,Tue Sep 24 2024 17:14:58 GMT-0500 (Central Daylight Time),548878.3000000119,A,towe,O,e,68,1,1899.4000000357628,546978.8999999762,7019,WL,C,1.0
5,2.0169999599456787,learn,60000.0,Tue Sep 24 2024 17:14:58 GMT-0500 (Central Daylight Time),548994.8999999762,A,tower,O,r,104,1,2016.0,546978.8999999762,7019,WL,C,1.0
5,2.3509998321533203,learn,60000.0,Tue Sep 24 2024 17:14:58 GMT-0500 (Central Daylight Time),549329.3000000119,A,towerenter,O,enter,324,1,2350.400000035763,546978.8999999762,7019,WL,C,1.0
5,2.9499998092651367,learn,60000.0,Tue Sep 24 2024 17:14:58 GMT-0500 (Central Daylight Time),549928.0999999642,A,w,O,w,580,1,598.5,549329.5999999642,7019,WL,C,2.0
5,3.4159998893737793,learn,60000.0,Tue Sep 24 2024 17:14:58 GMT-0500 (Central Daylight Time),550394.5999999642,A,wh,O,h,446,1,1065.0,549329.5999999642,7019,WL,C,2.0
5,3.5329999923706055,learn,60000.0,Tue Sep 24 2024 17:14:58 GMT-0500 (Central Daylight Time),550510.8999999762,A,whe,O,e,100,1,1181.300000011921,549329.5999999642,7019,WL,C,2.0
5,3.732999801635742,learn,60000.0,Tue Sep 24 2024 17:14:58 GMT-0500 (Central Daylight Time),550710.8999999762,A,whea,O,a,183,1,1381.300000011921,549329.5999999642,7019,WL,C,2.0
5,3.882999897003174,learn,60000.0,Tue Sep 24 2024 17:14:58 GMT-0500 (Central Daylight Time),550860.8999999762,A,wheat,O,t,143,1,1531.300000011921,549329.5999999642,7019,WL,C,2.0
5,4.065999984741211,learn,60000.0,Tue Sep 24 2024 17:14:58 GMT-0500 (Central Daylight Time),551044.1999999881,A,wheatenter,O,enter,178,1,1714.6000000238419,549329.5999999642,7019,WL,C,2.0
5,4.665999889373779,learn,60000.0,Tue Sep 24 2024 17:14:58 GMT-0500 (Central Daylight Time),551644.0,A,q,O,q,586,1,599.6000000238419,551044.3999999762,7019,WL,C,3.0
5,4.881999969482422,learn,60000.0,Tue Sep 24 2024 17:14:58 GMT-0500 (Central Daylight Time),551860.5,A,qu,O,u,201,1,816.1000000238419,551044.3999999762,7019,WL,C,3.0
5,4.948999881744385,learn,60000.0,Tue Sep 24 2024 17:14:58 GMT-0500 (Central Daylight Time),551927.5,A,que,O,e,49,1,883.1000000238419,551044.3999999762,7019,WL,C,3.0
5,5.131999969482422,learn,60000.0,Tue Sep 24 2024 17:14:58 GMT-0500 (Central Daylight Time),552110.5999999642,A,quee,O,e,167,1,1066.199999988079,551044.3999999762,7019,WL,C,3.0
5,5.248999834060669,learn,60000.0,Tue Sep 24 2024 17:14:58 GMT-0500 (Central Daylight Time),552227.3000000119,A,queen,O,n,96,1,1182.9000000357628,551044.3999999762,7019,WL,C,3.0
5,5.582000017166138,learn,60000.0,Tue Sep 24 2024 17:14:58 GMT-0500 (Central Daylight Time),552560.5,A,queenenter,O,enter,315,1,1516.1000000238419,551044.3999999762,7019,WL,C,3.0
5,5.898999929428101,learn,60000.0,Tue Sep 24 2024 17:14:58 GMT-0500 (Central Daylight Time),552876.8999999762,A,s,O,s,309,1,316.0999999642372,552560.8000000119,7019,WL,C,4.0
5,6.098999977111816,learn,60000.0,Tue Sep 24 2024 17:14:58 GMT-0500 (Central Daylight Time),553076.8999999762,A,su,O,u,193,1,516.0999999642372,552560.8000000119,7019,WL,C,4.0
5,6.281999826431274,learn,60000.0,Tue Sep 24 2024 17:14:58 GMT-0500 (Central Daylight Time),553260.3000000119,A,sug,O,g,169,1,699.5,552560.8000000119,7019,WL,C,4.0
5,6.398999929428101,learn,60000.0,Tue Sep 24 2024 17:14:58 GMT-0500 (Central Daylight Time),553377.0999999642,A,suga,O,a,106,1,816.2999999523163,552560.8000000119,7019,WL,C,4.0
5,6.498999834060669,learn,60000.0,Tue Sep 24 2024 17:14:58 GMT-0500 (Central Daylight Time),553477.0,A,sugar,O,r,85,1,916.1999999880791,552560.8000000119,7019,WL,C,4.0
5,6.781999826431274,learn,60000.0,Tue Sep 24 2024 17:14:58 GMT-0500 (Central Daylight Time),553760.0999999642,A,sugarenter,O,enter,274,1,1199.2999999523163,552560.8000000119,7019,WL,C,4.0
5,7.182999849319458,learn,60000.0,Tue Sep 24 2024 17:14:58 GMT-0500 (Central Daylight Time),554161.0,A,h,O,h,382,1,400.60000002384186,553760.3999999762,7019,WL,C,5.0
5,7.31499981880188,learn,60000.0,Tue Sep 24 2024 17:14:58 GMT-0500 (Central Daylight Time),554293.1999999881,A,ho,O,o,124,1,532.8000000119209,553760.3999999762,7019,WL,C,5.0
5,7.4659998416900635,learn,60000.0,Tue Sep 24 2024 17:14:58 GMT-0500 (Central Daylight Time),554444.0999999642,A,hom,O,m,144,1,683.6999999880791,553760.3999999762,7019,WL,C,5.0
5,7.664999961853027,learn,60000.0,Tue Sep 24 2024 17:14:58 GMT-0500 (Central Daylight Time),554643.0999999642,A,home,O,e,179,1,882.6999999880791,553760.3999999762,7019,WL,C,5.0
5,8.031999826431274,learn,60000.0,Tue Sep 24 2024 17:14:58 GMT-0500 (Central Daylight Time),555010.3999999762,A,homeenter,O,enter,363,1,1250.0,553760.3999999762,7019,WL,C,5.0
5,9.063999891281128,learn,60000.0,Tue Sep 24 2024 17:14:58 GMT-0500 (Central Daylight Time),556042.6999999881,A,b,O,b,1020,1,1032.1000000238419,555010.5999999642,7019,WL,C,6.0
5,9.148000001907349,learn,60000.0,Tue Sep 24 2024 17:14:58 GMT-0500 (Central Daylight Time),556126.0,A,bo,O,o,75,1,1115.4000000357628,555010.5999999642,7019,WL,C,6.0
5,9.363999843597412,learn,60000.0,Tue Sep 24 2024 17:14:58 GMT-0500 (Central Daylight Time),556342.5999999642,A,boy,O,y,200,1,1332.0,555010.5999999642,7019,WL,C,6.0
5,9.730999946594238,learn,60000.0,Tue Sep 24 2024 17:14:58 GMT-0500 (Central Daylight Time),556709.1999999881,A,boyenter,O,enter,351,1,1698.6000000238419,555010.5999999642,7019,WL,C,6.0
5,10.013999938964844,learn,60000.0,Tue Sep 24 2024 17:14:58 GMT-0500 (Central Daylight Time),556992.3000000119,A,d,O,d,274,1,282.7000000476837,556709.5999999642,7019,WL,C,7.0
5,10.13099980354309,learn,60000.0,Tue Sep 24 2024 17:14:58 GMT-0500 (Central Daylight Time),557109.0,A,do,O,o,110,1,399.4000000357628,556709.5999999642,7019,WL,C,7.0
5,10.330999851226807,learn,60000.0,Tue Sep 24 2024 17:14:58 GMT-0500 (Central Daylight Time),557308.8999999762,A,doc,O,c,194,1,599.3000000119209,556709.5999999642,7019,WL,C,7.0
5,10.54699993133545,learn,60000.0,Tue Sep 24 2024 17:14:58 GMT-0500 (Central Daylight Time),557525.6999999881,A,doct,O,t,209,1,816.1000000238419,556709.5999999642,7019,WL,C,7.0
5,10.613999843597412,learn,60000.0,Tue Sep 24 2024 17:14:58 GMT-0500 (Central Daylight Time),557592.0999999642,A,docto,O,o,56,1,882.5,556709.5999999642,7019,WL,C,7.0
5,10.780999898910522,learn,60000.0,Tue Sep 24 2024 17:14:58 GMT-0500 (Central Daylight Time),557758.8999999762,A,doctor,O,r,157,1,1049.300000011921,556709.5999999642,7019,WL,C,7.0
5,11.079999923706055,learn,60000.0,Tue Sep 24 2024 17:14:58 GMT-0500 (Central Daylight Time),558058.5999999642,A,doctorenter,O,enter,295,1,1349.0,556709.5999999642,7019,WL,C,7.0
5,11.480000019073486,learn,60000.0,Tue Sep 24 2024 17:14:58 GMT-0500 (Central Daylight Time),558458.6999999881,A,f,O,f,388,1,399.80000001192093,558058.8999999762,7019,WL,C,8.0
5,11.629999876022339,learn,60000.0,Tue Sep 24 2024 17:14:58 GMT-0500 (Central Daylight Time),558608.8000000119,A,fl,O,l,132,1,549.9000000357628,558058.8999999762,7019,WL,C,8.0
5,11.846999883651733,learn,60000.0,Tue Sep 24 2024 17:14:58 GMT-0500 (Central Daylight Time),558825.0,A,fla,O,a,198,1,766.1000000238419,558058.8999999762,7019,WL,C,8.0
5,12.146999835968018,learn,60000.0,Tue Sep 24 2024 17:14:58 GMT-0500 (Central Daylight Time),559124.8999999762,A,flag,O,g,286,1,1066.0,558058.8999999762,7019,WL,C,8.0
5,12.54699993133545,learn,60000.0,Tue Sep 24 2024 17:14:58 GMT-0500 (Central Daylight Time),559524.8999999762,A,flagenter,O,enter,393,1,1466.0,558058.8999999762,7019,WL,C,8.0
5,12.946999788284302,learn,60000.0,Tue Sep 24 2024 17:14:58 GMT-0500 (Central Daylight Time),559924.8999999762,A,c,O,c,385,1,399.69999998807907,559525.1999999881,7019,WL,C,9.0
5,13.079999923706055,learn,60000.0,Tue Sep 24 2024 17:14:58 GMT-0500 (Central Daylight Time),560058.1999999881,A,ca,O,a,122,1,533.0,559525.1999999881,7019,WL,C,9.0
5,13.19599986076355,learn,60000.0,Tue Sep 24 2024 17:14:58 GMT-0500 (Central Daylight Time),560174.5999999642,A,cam,O,m,99,1,649.3999999761581,559525.1999999881,7019,WL,C,9.0
5,13.329999923706055,learn,60000.0,Tue Sep 24 2024 17:14:58 GMT-0500 (Central Daylight Time),560308.0999999642,A,camp,O,p,127,1,782.8999999761581,559525.1999999881,7019,WL,C,9.0
5,13.846999883651733,learn,60000.0,Tue Sep 24 2024 17:14:58 GMT-0500 (Central Daylight Time),560824.8999999762,A,campenter,O,enter,506,1,1299.699999988079,559525.1999999881,7019,WL,C,9.0
5,14.212999820709229,learn,60000.0,Tue Sep 24 2024 17:14:58 GMT-0500 (Central Daylight Time),561191.1999999881,A,n,O,n,348,1,366.0,560825.1999999881,7019,WL,C,10.0
5,14.36299991607666,learn,60000.0,Tue Sep 24 2024 17:14:58 GMT-0500 (Central Daylight Time),561340.8999999762,A,na,O,a,135,1,515.6999999880791,560825.1999999881,7019,WL,C,10.0
5,14.462999820709229,learn,60000.0,Tue Sep 24 2024 17:14:58 GMT-0500 (Central Daylight Time),561441.0,A,nai,O,i,89,1,615.8000000119209,560825.1999999881,7019,WL,C,10.0
5,14.712999820709229,learn,60000.0,Tue Sep 24 2024 17:14:58 GMT-0500 (Central Daylight Time),561691.0,A,nail,O,l,230,1,865.8000000119209,560825.1999999881,7019,WL,C,10.0
5,15.111999988555908,learn,60000.0,Tue Sep 24 2024 17:14:58 GMT-0500 (Central Daylight Time),562090.8000000119,A,nailenter,O,enter,386,1,1265.6000000238419,560825.1999999881,7019,WL,C,10.0
5,15.878999948501587,learn,60000.0,Tue Sep 24 2024 17:14:58 GMT-0500 (Central Daylight Time),562857.0999999642,A,l,O,l,748,1,766.0,562091.0999999642,7019,WL,C,11.0
5,16.02899980545044,learn,60000.0,Tue Sep 24 2024 17:14:58 GMT-0500 (Central Daylight Time),563007.0999999642,A,le,O,e,134,1,916.0,562091.0999999642,7019,WL,C,11.0
5,16.27899980545044,learn,60000.0,Tue Sep 24 2024 17:14:58 GMT-0500 (Central Daylight Time),563257.0999999642,A,let,O,t,239,1,1166.0,562091.0999999642,7019,WL,C,11.0
5,16.44599986076355,learn,60000.0,Tue Sep 24 2024 17:14:58 GMT-0500 (Central Daylight Time),563424.6999999881,A,lett,O,t,156,1,1333.6000000238419,562091.0999999642,7019,WL,C,11.0
5,16.944999933242798,learn,60000.0,Tue Sep 24 2024 17:14:58 GMT-0500 (Central Daylight Time),563923.5,A,lette,O,e,485,1,1832.4000000357628,562091.0999999642,7019,WL,C,11.0
5,17.027999877929688,learn,60000.0,Tue Sep 24 2024 17:14:58 GMT-0500 (Central Daylight Time),564006.6999999881,A,letter,O,r,66,1,1915.6000000238419,562091.0999999642,7019,WL,C,11.0
5,17.311999797821045,learn,60000.0,Tue Sep 24 2024 17:14:58 GMT-0500 (Central Daylight Time),564289.8999999762,A,letterenter,O,enter,263,1,2198.800000011921,562091.0999999642,7019,WL,C,11.0
5,17.82799983024597,learn,60000.0,Tue Sep 24 2024 17:14:58 GMT-0500 (Central Daylight Time),564806.5,A,c,O,c,508,1,516.3000000119209,564290.1999999881,7019,WL,C,12.0
5,17.91100001335144,learn,60000.0,Tue Sep 24 2024 17:14:58 GMT-0500 (Central Daylight Time),564889.5999999642,A,co,O,o,63,1,599.3999999761581,564290.1999999881,7019,WL,C,12.0
5,18.194999933242798,learn,60000.0,Tue Sep 24 2024 17:14:58 GMT-0500 (Central Daylight Time),565173.0999999642,A,cor,O,r,276,1,882.8999999761581,564290.1999999881,7019,WL,C,12.0
5,18.360999822616577,learn,60000.0,Tue Sep 24 2024 17:14:58 GMT-0500 (Central Daylight Time),565339.5999999642,A,corn,O,n,147,1,1049.3999999761581,564290.1999999881,7019,WL,C,12.0
5,19.277999877929688,learn,60000.0,Tue Sep 24 2024 17:14:58 GMT-0500 (Central Daylight Time),566256.0999999642,A,cornenter,O,enter,906,1,1965.8999999761581,564290.1999999881,7019,WL,C,12.0
5,21.49399995803833,learn,60000.0,Tue Sep 24 2024 17:14:58 GMT-0500 (Central Daylight Time),568472.1999999881,A,s,O,s,2199,1,2215.800000011921,566256.3999999762,7019,WL,C,13.0
5,21.609999895095825,learn,60000.0,Tue Sep 24 2024 17:14:58 GMT-0500 (Central Daylight Time),568588.8000000119,A,sh,O,h,110,1,2332.400000035763,566256.3999999762,7019,WL,C,13.0
5,21.759999990463257,learn,60000.0,Tue Sep 24 2024 17:14:58 GMT-0500 (Central Daylight Time),568738.5,A,sho,O,o,137,1,2482.100000023842,566256.3999999762,7019,WL,C,13.0
5,21.859999895095825,learn,60000.0,Tue Sep 24 2024 17:14:58 GMT-0500 (Central Daylight Time),568838.6999999881,A,shor,O,r,92,1,2582.300000011921,566256.3999999762,7019,WL,C,13.0
5,21.959999799728394,learn,60000.0,Tue Sep 24 2024 17:14:58 GMT-0500 (Central Daylight Time),568938.6999999881,A,shore,O,e,79,1,2682.300000011921,566256.3999999762,7019,WL,C,13.0
5,22.509999990463257,learn,60000.0,Tue Sep 24 2024 17:14:58 GMT-0500 (Central Daylight Time),569488.5,A,shoreenter,O,enter,532,1,3232.100000023842,566256.3999999762,7019,WL,C,13.0
5,23.109999895095825,learn,60000.0,Tue Sep 24 2024 17:14:58 GMT-0500 (Central Daylight Time),570088.1999999881,A,b,O,b,589,1,599.3000000119209,569488.8999999762,7019,WL,C,14.0
5,23.209999799728394,learn,60000.0,Tue Sep 24 2024 17:14:58 GMT-0500 (Central Daylight Time),570188.3000000119,A,bo,O,o,86,1,699.4000000357628,569488.8999999762,7019,WL,C,14.0
5,23.375999927520752,learn,60000.0,Tue Sep 24 2024 17:14:58 GMT-0500 (Central Daylight Time),570354.5999999642,A,bod,O,d,145,1,865.6999999880791,569488.8999999762,7019,WL,C,14.0
5,23.508999824523926,learn,60000.0,Tue Sep 24 2024 17:14:58 GMT-0500 (Central Daylight Time),570487.6999999881,A,body,O,y,114,1,998.8000000119209,569488.8999999762,7019,WL,C,14.0
5,23.89299988746643,learn,60000.0,Tue Sep 24 2024 17:14:58 GMT-0500 (Central Daylight Time),570871.3000000119,A,bodyenter,O,enter,373,1,1382.4000000357628,569488.8999999762,7019,WL,C,14.0
5,27.05900001525879,learn,60000.0,Tue Sep 24 2024 17:14:58 GMT-0500 (Central Daylight Time),574037.0,A,f,O,f,3150,1,3165.400000035763,570871.5999999642,7019,WL,C,15.0
5,28.557999849319458,learn,60000.0,Tue Sep 24 2024 17:14:58 GMT-0500 (Central Daylight Time),575536.5999999642,A,,O,backspace,1489,1,4665.0,570871.5999999642,7019,WL,C,15.0
5,30.107999801635742,learn,60000.0,Tue Sep 24 2024 17:14:58 GMT-0500 (Central Daylight Time),577086.1999999881,A,enter,O,enter,1542,1,6214.600000023842,570871.5999999642,7019,WL,C,15.0
6,1.249000072479248,distr,58750.99992752075,Tue Sep 24 2024 17:14:58 GMT-0500 (Central Daylight Time),661342.8000000119,B,s,O,s,1234,1,1249.4000000357628,660093.3999999762,7019,WL,C,1.0
6,1.3659999370574951,distr,58634.000062942505,Tue Sep 24 2024 17:14:58 GMT-0500 (Central Daylight Time),661459.3000000119,B,sk,O,k,111,1,1365.9000000357628,660093.3999999762,7019,WL,C,1.0
6,1.7160000801086426,distr,58283.99991989136,Tue Sep 24 2024 17:14:58 GMT-0500 (Central Daylight Time),661809.3999999762,B,sky,O,y,339,1,1716.0,660093.3999999762,7019,WL,C,1.0
6,2.117000102996826,distr,57882.999897003174,Tue Sep 24 2024 17:14:58 GMT-0500 (Central Daylight Time),662210.5,B,skyenter,O,enter,381,1,2117.100000023842,660093.3999999762,7019,WL,C,1.0
6,2.6489999294281006,distr,57351.0000705719,Tue Sep 24 2024 17:14:58 GMT-0500 (Central Daylight Time),662742.5,B,d,O,d,524,1,531.6999999880791,662210.8000000119,7019,WL,C,2.0
6,2.8489999771118164,distr,57151.00002288818,Tue Sep 24 2024 17:14:58 GMT-0500 (Central Daylight Time),662942.5,B,do,O,o,183,1,731.6999999880791,662210.8000000119,7019,WL,C,2.0
6,3.131999969482422,distr,56868.00003051758,Tue Sep 24 2024 17:14:58 GMT-0500 (Central Daylight Time),663225.5999999642,B,dol,O,l,263,1,1014.7999999523163,662210.8000000119,7019,WL,C,2.0
6,3.2990000247955322,distr,56700.99997520447,Tue Sep 24 2024 17:14:58 GMT-0500 (Central Daylight Time),663392.3000000119,B,doll,O,l,156,1,1181.5,662210.8000000119,7019,WL,C,2.0
6,3.3989999294281006,distr,56601.0000705719,Tue Sep 24 2024 17:14:58 GMT-0500 (Central Daylight Time),663492.1999999881,B,dolla,O,a,94,1,1281.3999999761581,662210.8000000119,7019,WL,C,2.0
6,3.5989999771118164,distr,56401.00002288818,Tue Sep 24 2024 17:14:58 GMT-0500 (Central Daylight Time),663692.0999999642,B,dollar,O,r,185,1,1481.2999999523163,662210.8000000119,7019,WL,C,2.0
6,3.865999937057495,distr,56134.000062942505,Tue Sep 24 2024 17:14:58 GMT-0500 (Central Daylight Time),663959.8999999762,B,dollarenter,O,enter,257,1,1749.0999999642372,662210.8000000119,7019,WL,C,2.0
6,4.382999897003174,distr,55617.000102996826,Tue Sep 24 2024 17:14:58 GMT-0500 (Central Daylight Time),664476.3000000119,B,v,O,v,510,1,516.2000000476837,663960.0999999642,7019,WL,C,3.0
6,4.497999906539917,distr,55502.00009346008,Tue Sep 24 2024 17:14:58 GMT-0500 (Central Daylight Time),664591.5999999642,B,va,O,a,98,1,631.5,663960.0999999642,7019,WL,C,3.0
6,4.615000009536743,distr,55384.99999046326,Tue Sep 24 2024 17:14:58 GMT-0500 (Central Daylight Time),664708.5,B,val,O,l,102,1,748.4000000357628,663960.0999999642,7019,WL,C,3.0
6,4.815000057220459,distr,55184.99994277954,Tue Sep 24 2024 17:14:58 GMT-0500 (Central Daylight Time),664908.5,B,vall,O,l,186,1,948.4000000357628,663960.0999999642,7019,WL,C,3.0
6,4.9649999141693115,distr,55035.00008583069,Tue Sep 24 2024 17:14:58 GMT-0500 (Central Daylight Time),665058.3999999762,B,valle,O,e,138,1,1098.300000011921,663960.0999999642,7019,WL,C,3.0
6,5.466000080108643,distr,54533.99991989136,Tue Sep 24 2024 17:14:58 GMT-0500 (Central Daylight Time),665559.3000000119,B,valley,O,y,484,1,1599.2000000476837,663960.0999999642,7019,WL,C,3.0
6,5.999000072479248,distr,54000.99992752075,Tue Sep 24 2024 17:14:58 GMT-0500 (Central Daylight Time),666092.3999999762,B,valleyenter,O,enter,526,1,2132.300000011921,663960.0999999642,7019,WL,C,3.0
6,6.747999906539917,distr,53252.00009346008,Tue Sep 24 2024 17:14:58 GMT-0500 (Central Daylight Time),666841.1999999881,B,h,O,h,738,1,748.6000000238419,666092.5999999642,7019,WL,C,4.0
6,6.898000001907349,distr,53101.99999809265,Tue Sep 24 2024 17:14:58 GMT-0500 (Central Daylight Time),666991.1999999881,B,ha,O,a,133,1,898.6000000238419,666092.5999999642,7019,WL,C,4.0
6,7.063999891281128,distr,52936.00010871887,Tue Sep 24 2024 17:14:58 GMT-0500 (Central Daylight Time),667157.6999999881,B,hal,O,l,158,1,1065.1000000238419,666092.5999999642,7019,WL,C,4.0
6,7.263999938964844,distr,52736.000061035156,Tue Sep 24 2024 17:14:58 GMT-0500 (Central Daylight Time),667357.6999999881,B,hall,O,l,185,1,1265.1000000238419,666092.5999999642,7019,WL,C,4.0
6,7.846999883651733,distr,52153.00011634827,Tue Sep 24 2024 17:14:58 GMT-0500 (Central Daylight Time),667940.8999999762,B,hallenter,O,enter,577,1,1848.300000011921,666092.5999999642,7019,WL,C,4.0
6,9.081000089645386,distr,50918.999910354614,Tue Sep 24 2024 17:14:58 GMT-0500 (Central Daylight Time),669174.5999999642,B,m,O,m,1217,1,1233.3999999761581,667941.1999999881,7019,WL,C,5.0
6,9.329999923706055,distr,50670.000076293945,Tue Sep 24 2024 17:14:58 GMT-0500 (Central Daylight Time),669423.8000000119,B,mo,O,o,240,1,1482.6000000238419,667941.1999999881,7019,WL,C,5.0
6,9.44700002670288,distr,50552.99997329712,Tue Sep 24 2024 17:14:58 GMT-0500 (Central Daylight Time),669540.3999999762,B,mon,O,n,102,1,1599.199999988079,667941.1999999881,7019,WL,C,5.0
6,9.596999883651733,distr,50403.00011634827,Tue Sep 24 2024 17:14:58 GMT-0500 (Central Daylight Time),669690.3000000119,B,mone,O,e,138,1,1749.1000000238419,667941.1999999881,7019,WL,C,5.0
6,9.913000106811523,distr,50086.99989318848,Tue Sep 24 2024 17:14:58 GMT-0500 (Central Daylight Time),670006.8999999762,B,money,O,y,300,1,2065.699999988079,667941.1999999881,7019,WL,C,5.0
6,10.346999883651733,distr,49653.00011634827,Tue Sep 24 2024 17:14:58 GMT-0500 (Central Daylight Time),670440.0999999642,B,moneyenter,O,enter,424,1,2498.899999976158,667941.1999999881,7019,WL,C,5.0
6,10.879999876022339,distr,49120.00012397766,Tue Sep 24 2024 17:14:58 GMT-0500 (Central Daylight Time),670973.3000000119,B,m,O,m,526,1,532.9000000357628,670440.3999999762,7019,WL,C,6.0
6,11.046000003814697,distr,48953.9999961853,Tue Sep 24 2024 17:14:58 GMT-0500 (Central Daylight Time),671139.5999999642,B,mo,O,o,161,1,699.1999999880791,670440.3999999762,7019,WL,C,6.0
6,11.279000043869019,distr,48720.99995613098,Tue Sep 24 2024 17:14:58 GMT-0500 (Central Daylight Time),671373.0,B,mot,O,t,218,1,932.6000000238419,670440.3999999762,7019,WL,C,6.0
6,11.413000106811523,distr,48586.99989318848,Tue Sep 24 2024 17:14:58 GMT-0500 (Central Daylight Time),671506.5,B,moth,O,h,113,1,1066.1000000238419,670440.3999999762,7019,WL,C,6.0
6,11.463000059127808,distr,48536.99994087219,Tue Sep 24 2024 17:14:58 GMT-0500 (Central Daylight Time),671556.3999999762,B,mothe,O,e,43,1,1116.0,670440.3999999762,7019,WL,C,6.0
6,11.578999996185303,distr,48421.0000038147,Tue Sep 24 2024 17:14:58 GMT-0500 (Central Daylight Time),671672.8999999762,B,mother,O,r,98,1,1232.5,670440.3999999762,7019,WL,C,6.0
6,11.96399998664856,distr,48036.00001335144,Tue Sep 24 2024 17:14:58 GMT-0500 (Central Daylight Time),672057.5,B,motherenter,O,enter,373,1,1617.1000000238419,670440.3999999762,7019,WL,C,6.0
6,13.578999996185303,distr,46421.0000038147,Tue Sep 24 2024 17:14:58 GMT-0500 (Central Daylight Time),673672.3999999762,B,enter,O,enter,1596,1,1614.5,672057.8999999762,7019,WL,C,7.0
6,13.911999940872192,distr,46088.00005912781,Tue Sep 24 2024 17:14:58 GMT-0500 (Central Daylight Time),674005.5,B,enter,O,enter,317,1,332.69999998807907,673672.8000000119,7019,WL,C,8.0
6,14.178999900817871,distr,45821.00009918213,Tue Sep 24 2024 17:14:58 GMT-0500 (Central Daylight Time),674272.1999999881,B,enter,O,enter,248,1,266.30000001192093,674005.8999999762,7019,WL,C,9.0
6,14.42799997329712,distr,45572.00002670288,Tue Sep 24 2024 17:14:58 GMT-0500 (Central Daylight Time),674522.0,B,enter,O,enter,238,1,249.4000000357628,674272.5999999642,7019,WL,C,10.0
6,14.611999988555908,distr,45388.00001144409,Tue Sep 24 2024 17:14:58 GMT-0500 (Central Daylight Time),674705.3999999762,B,enter,O,enter,173,1,183.0,674522.3999999762,7019,WL,C,11.0
6,14.82800006866455,distr,45171.99993133545,Tue Sep 24 2024 17:14:58 GMT-0500 (Central Daylight Time),674921.6999999881,B,enter,O,enter,196,1,215.89999997615814,674705.8000000119,7019,WL,C,12.0
6,15.045000076293945,distr,44954.999923706055,Tue Sep 24 2024 17:14:58 GMT-0500 (Central Daylight Time),675138.5999999642,B,enter,O,enter,196,1,216.5,674922.0999999642,7019,WL,C,13.0
6,15.244999885559082,distr,44755.00011444092,Tue Sep 24 2024 17:14:58 GMT-0500 (Central Daylight Time),675338.3000000119,B,enter,O,enter,179,1,199.30000001192093,675139.0,7019,WL,C,14.0
6,15.59500002861023,distr,44404.99997138977,Tue Sep 24 2024 17:14:58 GMT-0500 (Central Daylight Time),675688.3999999762,B,enter,O,enter,339,1,349.69999998807907,675338.6999999881,7019,WL,C,15.0
7,27.907999992370605,immed,32092.000007629395,Tue Sep 24 2024 17:14:58 GMT-0500 (Central Daylight Time),705245.8000000119,A,w,O,w,27893,1,27907.900000035763,677337.8999999762,7019,WL,C,1.0
7,28.14199995994568,immed,31858.00004005432,Tue Sep 24 2024 17:14:58 GMT-0500 (Central Daylight Time),705479.3999999762,A,wh,O,h,216,1,28141.5,677337.8999999762,7019,WL,C,1.0
7,28.258000135421753,immed,31741.999864578247,Tue Sep 24 2024 17:14:58 GMT-0500 (Central Daylight Time),705595.1999999881,A,whe,O,e,110,1,28257.30000001192,677337.8999999762,7019,WL,C,1.0
7,28.508000135421753,immed,31491.999864578247,Tue Sep 24 2024 17:14:58 GMT-0500 (Central Daylight Time),705845.8999999762,A,whea,O,a,235,1,28508.0,677337.8999999762,7019,WL,C,1.0
7,28.740999937057495,immed,31259.000062942505,Tue Sep 24 2024 17:14:58 GMT-0500 (Central Daylight Time),706078.6999999881,A,wheat,O,t,216,1,28740.80000001192,677337.8999999762,7019,WL,C,1.0
7,29.808000087738037,immed,30191.999912261963,Tue Sep 24 2024 17:14:58 GMT-0500 (Central Daylight Time),707145.0999999642,A,wheatenter,O,enter,1055,1,29807.19999998808,677337.8999999762,7019,WL,C,1.0
7,32.69000005722046,immed,27309.99994277954,Tue Sep 24 2024 17:14:58 GMT-0500 (Central Daylight Time),710027.3999999762,A,s,O,s,2876,1,2882.0,707145.3999999762,7019,WL,C,2.0
7,32.873000144958496,immed,27126.999855041504,Tue Sep 24 2024 17:14:58 GMT-0500 (Central Daylight Time),710210.8000000119,A,su,O,u,178,1,3065.400000035763,707145.3999999762,7019,WL,C,2.0
7,33.02300000190735,immed,26976.99999809265,Tue Sep 24 2024 17:14:58 GMT-0500 (Central Daylight Time),710360.8000000119,A,sug,O,g,131,1,3215.400000035763,707145.3999999762,7019,WL,C,2.0
7,33.17300009727478,immed,26826.99990272522,Tue Sep 24 2024 17:14:58 GMT-0500 (Central Daylight Time),710510.6999999881,A,suga,O,a,134,1,3365.300000011921,707145.3999999762,7019,WL,C,2.0
7,33.305999994277954,immed,26694.000005722046,Tue Sep 24 2024 17:14:58 GMT-0500 (Central Daylight Time),710644.0,A,sugar,O,r,127,1,3498.600000023842,707145.3999999762,7019,WL,C,2.0
7,33.890000104904175,immed,26109.999895095825,Tue Sep 24 2024 17:14:58 GMT-0500 (Central Daylight Time),711227.0999999642,A,sugarenter,O,enter,579,1,4081.699999988079,707145.3999999762,7019,WL,C,2.0
7,34.4060001373291,immed,25593.9998626709,Tue Sep 24 2024 17:14:58 GMT-0500 (Central Daylight Time),711743.6999999881,A,q,O,q,507,1,516.3999999761581,711227.3000000119,7019,WL,C,3.0
7,34.57299995422363,immed,25427.000045776367,Tue Sep 24 2024 17:14:58 GMT-0500 (Central Daylight Time),711910.5,A,qu,O,u,150,1,683.1999999880791,711227.3000000119,7019,WL,C,3.0
7,34.706000089645386,immed,25293.999910354614,Tue Sep 24 2024 17:14:58 GMT-0500 (Central Daylight Time),712043.6999999881,A,que,O,e,120,1,816.3999999761581,711227.3000000119,7019,WL,C,3.0
7,34.888999938964844,immed,25111.000061035156,Tue Sep 24 2024 17:14:58 GMT-0500 (Central Daylight Time),712226.8999999762,A,quee,O,e,179,1,999.5999999642372,711227.3000000119,7019,WL,C,3.0
7,35.056999921798706,immed,24943.000078201294,Tue Sep 24 2024 17:14:58 GMT-0500 (Central Daylight Time),712394.3000000119,A,queen,O,n,147,1,1167.0,711227.3000000119,7019,WL,C,3.0
7,35.555999994277954,immed,24444.000005722046,Tue Sep 24 2024 17:14:58 GMT-0500 (Central Daylight Time),712893.6999999881,A,queenenter,O,enter,491,1,1666.3999999761581,711227.3000000119,7019,WL,C,3.0
7,38.22200012207031,immed,21777.999877929688,Tue Sep 24 2024 17:14:58 GMT-0500 (Central Daylight Time),715559.3000000119,A,b,O,b,2648,1,2665.400000035763,712893.8999999762,7019,WL,C,4.0
7,38.33800005912781,immed,21661.999940872192,Tue Sep 24 2024 17:14:58 GMT-0500 (Central Daylight Time),715675.6999999881,A,bo,O,o,110,1,2781.800000011921,712893.8999999762,7019,WL,C,4.0
7,38.63800001144409,immed,21361.99998855591,Tue Sep 24 2024 17:14:58 GMT-0500 (Central Daylight Time),715975.8999999762,A,boy,O,y,283,1,3082.0,712893.8999999762,7019,WL,C,4.0
7,39.105000019073486,immed,20894.999980926514,Tue Sep 24 2024 17:14:58 GMT-0500 (Central Daylight Time),716442.0999999642,A,boyenter,O,enter,446,1,3548.199999988079,712893.8999999762,7019,WL,C,4.0
7,39.98699998855591,immed,20013.00001144409,Tue Sep 24 2024 17:14:58 GMT-0500 (Central Daylight Time),717325.3000000119,A,d,O,d,875,1,882.9000000357628,716442.3999999762,7019,WL,C,5.0
7,40.087000131607056,immed,19912.999868392944,Tue Sep 24 2024 17:14:58 GMT-0500 (Central Daylight Time),717425.3000000119,A,do,O,o,87,1,982.9000000357628,716442.3999999762,7019,WL,C,5.0
7,40.30299997329712,immed,19697.00002670288,Tue Sep 24 2024 17:14:58 GMT-0500 (Central Daylight Time),717641.8000000119,A,doc,O,c,196,1,1199.4000000357628,716442.3999999762,7019,WL,C,5.0
7,40.5699999332428,immed,19430.000066757202,Tue Sep 24 2024 17:14:58 GMT-0500 (Central Daylight Time),717908.5,A,doct,O,t,252,1,1466.1000000238419,716442.3999999762,7019,WL,C,5.0
7,40.63700008392334,immed,19362.99991607666,Tue Sep 24 2024 17:14:58 GMT-0500 (Central Daylight Time),717975.3000000119,A,docto,O,o,58,1,1532.9000000357628,716442.3999999762,7019,WL,C,5.0
7,40.80299997329712,immed,19197.00002670288,Tue Sep 24 2024 17:14:58 GMT-0500 (Central Daylight Time),718141.5999999642,A,doctor,O,r,159,1,1699.199999988079,716442.3999999762,7019,WL,C,5.0
7,41.253000020980835,immed,18746.999979019165,Tue Sep 24 2024 17:14:58 GMT-0500 (Central Daylight Time),718591.5999999642,A,doctorenter,O,enter,433,1,2149.199999988079,716442.3999999762,7019,WL,C,5.0
7,41.6029999256134,immed,18397.000074386597,Tue Sep 24 2024 17:14:58 GMT-0500 (Central Daylight Time),718941.5999999642,A,f,O,f,342,1,349.69999998807907,718591.8999999762,7019,WL,C,6.0
7,41.72000002861023,immed,18279.99997138977,Tue Sep 24 2024 17:14:58 GMT-0500 (Central Daylight Time),719058.0999999642,A,fa,O,a,104,1,466.19999998807907,718591.8999999762,7019,WL,C,6.0
7,41.78600001335144,immed,18213.99998664856,Tue Sep 24 2024 17:14:58 GMT-0500 (Central Daylight Time),719124.8000000119,A,fal,O,l,61,1,532.9000000357628,718591.8999999762,7019,WL,C,6.0
7,42.43600010871887,immed,17563.999891281128,Tue Sep 24 2024 17:14:58 GMT-0500 (Central Daylight Time),719774.5999999642,A,fa,O,backspace,642,1,1182.699999988079,718591.8999999762,7019,WL,C,6.0
7,42.585999965667725,immed,17414.000034332275,Tue Sep 24 2024 17:14:58 GMT-0500 (Central Daylight Time),719924.5,A,f,O,backspace,136,1,1332.6000000238419,718591.8999999762,7019,WL,C,6.0
7,42.819000005722046,immed,17180.999994277954,Tue Sep 24 2024 17:14:58 GMT-0500 (Central Daylight Time),720157.6999999881,A,fl,O,l,218,1,1565.800000011921,718591.8999999762,7019,WL,C,6.0
7,42.9520001411438,immed,17047.9998588562,Tue Sep 24 2024 17:14:58 GMT-0500 (Central Daylight Time),720290.8999999762,A,fla,O,a,120,1,1699.0,718591.8999999762,7019,WL,C,6.0
7,43.13599991798401,immed,16864.00008201599,Tue Sep 24 2024 17:14:58 GMT-0500 (Central Daylight Time),720474.1999999881,A,flag,O,g,164,1,1882.300000011921,718591.8999999762,7019,WL,C,6.0
7,43.401999950408936,immed,16598.000049591064,Tue Sep 24 2024 17:14:58 GMT-0500 (Central Daylight Time),720741.0,A,flagenter,O,enter,253,1,2149.100000023842,718591.8999999762,7019,WL,C,6.0
7,43.71900010108948,immed,16280.999898910522,Tue Sep 24 2024 17:14:58 GMT-0500 (Central Daylight Time),721057.5999999642,A,c,O,c,304,1,316.2999999523163,720741.3000000119,7019,WL,C,7.0
7,43.83500003814697,immed,16164.999961853027,Tue Sep 24 2024 17:14:58 GMT-0500 (Central Daylight Time),721174.0,A,ca,O,a,101,1,432.69999998807907,720741.3000000119,7019,WL,C,7.0
7,43.91900014877319,immed,16080.999851226807,Tue Sep 24 2024 17:14:58 GMT-0500 (Central Daylight Time),721257.5999999642,A,cam,O,m,72,1,516.2999999523163,720741.3000000119,7019,WL,C,7.0
7,44.08500003814697,immed,15914.999961853027,Tue Sep 24 2024 17:14:58 GMT-0500 (Central Daylight Time),721424.0,A,camp,O,p,149,1,682.6999999880791,720741.3000000119,7019,WL,C,7.0
7,44.7020001411438,immed,15297.999858856201,Tue Sep 24 2024 17:14:58 GMT-0500 (Central Daylight Time),722040.5999999642,A,campenter,O,enter,598,1,1299.2999999523163,720741.3000000119,7019,WL,C,7.0
7,46.38499999046326,immed,13615.000009536743,Tue Sep 24 2024 17:14:58 GMT-0500 (Central Daylight Time),723723.3999999762,A,n,O,n,1662,1,1682.5,722040.8999999762,7019,WL,C,8.0
7,46.551000118255615,immed,13448.999881744385,Tue Sep 24 2024 17:14:58 GMT-0500 (Central Daylight Time),723889.8000000119,A,na,O,a,146,1,1848.9000000357628,722040.8999999762,7019,WL,C,8.0
7,46.66799998283386,immed,13332.000017166138,Tue Sep 24 2024 17:14:58 GMT-0500 (Central Daylight Time),724006.5999999642,A,nai,O,i,101,1,1965.699999988079,722040.8999999762,7019,WL,C,8.0
7,46.884000062942505,immed,13115.999937057495,Tue Sep 24 2024 17:14:58 GMT-0500 (Central Daylight Time),724223.0999999642,A,nail,O,l,208,1,2182.199999988079,722040.8999999762,7019,WL,C,8.0
7,47.41799998283386,immed,12582.000017166138,Tue Sep 24 2024 17:14:58 GMT-0500 (Central Daylight Time),724756.3999999762,A,nailenter,O,enter,519,1,2715.5,722040.8999999762,7019,WL,C,8.0
7,48.30200004577637,immed,11697.999954223633,Tue Sep 24 2024 17:14:58 GMT-0500 (Central Daylight Time),725641.0,A,b,O,b,865,1,884.3000000119209,724756.6999999881,7019,WL,C,9.0
7,48.43400001525879,immed,11565.999984741211,Tue Sep 24 2024 17:14:58 GMT-0500 (Central Daylight Time),725772.5,A,bo,O,o,125,1,1015.8000000119209,724756.6999999881,7019,WL,C,9.0
7,48.60000014305115,immed,11399.999856948853,Tue Sep 24 2024 17:14:58 GMT-0500 (Central Daylight Time),725939.0999999642,A,bod,O,d,154,1,1182.3999999761581,724756.6999999881,7019,WL,C,9.0
7,48.78399991989136,immed,11216.000080108643,Tue Sep 24 2024 17:14:58 GMT-0500 (Central Daylight Time),726122.6999999881,A,body,O,y,163,1,1366.0,724756.6999999881,7019,WL,C,9.0
7,49.367000102996826,immed,10632.999897003174,Tue Sep 24 2024 17:14:58 GMT-0500 (Central Daylight Time),726705.5999999642,A,bodyenter,O,enter,563,1,1948.8999999761581,724756.6999999881,7019,WL,C,9.0
7,49.717000007629395,immed,10282.999992370605,Tue Sep 24 2024 17:14:58 GMT-0500 (Central Daylight Time),727055.5,A,c,O,c,340,1,349.5,726706.0,7019,WL,C,10.0
7,49.85000014305115,immed,10149.999856948853,Tue Sep 24 2024 17:14:58 GMT-0500 (Central Daylight Time),727188.5999999642,A,ca,O,a,119,1,482.5999999642372,726706.0,7019,WL,C,10.0
7,50.049999952316284,immed,9950.000047683716,Tue Sep 24 2024 17:14:58 GMT-0500 (Central Daylight Time),727389.0999999642,A,cat,O,t,186,1,683.0999999642372,726706.0,7019,WL,C,10.0
7,50.217000007629395,immed,9782.999992370605,Tue Sep 24 2024 17:14:58 GMT-0500 (Central Daylight Time),727555.5,A,catt,O,t,152,1,849.5,726706.0,7019,WL,C,10.0
7,50.299999952316284,immed,9700.000047683716,Tue Sep 24 2024 17:14:58 GMT-0500 (Central Daylight Time),727638.8000000119,A,cattl,O,l,74,1,932.8000000119209,726706.0,7019,WL,C,10.0
7,50.467000007629395,immed,9532.999992370605,Tue Sep 24 2024 17:14:58 GMT-0500 (Central Daylight Time),727805.3999999762,A,cattle,O,e,159,1,1099.3999999761581,726706.0,7019,WL,C,10.0
7,50.799999952316284,immed,9200.000047683716,Tue Sep 24 2024 17:14:58 GMT-0500 (Central Daylight Time),728138.6999999881,A,cattleenter,O,enter,312,1,1432.699999988079,726706.0,7019,WL,C,10.0
7,51.15000009536743,immed,8849.999904632568,Tue Sep 24 2024 17:14:58 GMT-0500 (Central Daylight Time),728488.3999999762,A,s,O,s,331,1,349.30000001192093,728139.0999999642,7019,WL,C,11.0
7,51.33299994468689,immed,8667.00005531311,Tue Sep 24 2024 17:14:58 GMT-0500 (Central Daylight Time),728671.6999999881,A,sh,O,h,174,1,532.6000000238419,728139.0999999642,7019,WL,C,11.0
7,51.43300008773804,immed,8566.999912261963,Tue Sep 24 2024 17:14:58 GMT-0500 (Central Daylight Time),728771.5,A,sho,O,o,94,1,632.4000000357628,728139.0999999642,7019,WL,C,11.0
7,51.56699991226196,immed,8433.000087738037,Tue Sep 24 2024 17:14:58 GMT-0500 (Central Daylight Time),728905.5,A,shor,O,r,115,1,766.4000000357628,728139.0999999642,7019,WL,C,11.0
7,51.615999937057495,immed,8384.000062942505,Tue Sep 24 2024 17:14:58 GMT-0500 (Central Daylight Time),728954.8000000119,A,shore,O,e,45,1,815.7000000476837,728139.0999999642,7019,WL,C,11.0
7,52.049999952316284,immed,7950.000047683716,Tue Sep 24 2024 17:14:58 GMT-0500 (Central Daylight Time),729388.1999999881,A,shoreenter,O,enter,428,1,1249.1000000238419,728139.0999999642,7019,WL,C,11.0
7,53.99900007247925,immed,6000.999927520752,Tue Sep 24 2024 17:14:58 GMT-0500 (Central Daylight Time),731337.6999999881,A,enter,O,enter,1930,1,1949.199999988079,729388.5,7019,WL,C,12.0
7,54.265000104904175,immed,5734.999895095825,Tue Sep 24 2024 17:14:58 GMT-0500 (Central Daylight Time),731603.8000000119,A,enter,O,enter,252,1,265.80000001192093,731338.0,7019,WL,C,13.0
7,54.449000120162964,immed,5550.999879837036,Tue Sep 24 2024 17:14:58 GMT-0500 (Central Daylight Time),731787.0999999642,A,enter,O,enter,179,1,183.0999999642372,731604.0,7019,WL,C,14.0
7,54.6489999294281,immed,5351.000070571899,Tue Sep 24 2024 17:14:58 GMT-0500 (Central Daylight Time),731987.1999999881,A,enter,O,enter,187,1,199.69999998807907,731787.5,7019,WL,C,15.0
