Q,Q1,Q2,Q3,Q4,acc_sum,block,block_c,correct,correct_response,datetime,endtime,project,response,response_time,row_sel,session_number,squiggle1,squiggle1x,squiggle1y,squiggle2,squiggle2x,squiggle2y,squiggle3,squiggle3x,squiggle3y,squiggle4,squiggle4x,squiggle4y,start_end,starttime,subject_id,target_congruent,task,task_vers,testsquiggle,testsquigglex,testsquiggley,time_practice_delay,time_practice_fixation,time_practice_stimuli,time_practice_study,time_test_delay,time_test_fixation,time_test_stimuli,time_test_study,trial
1,1,0,0,0,0,prac,1,0,z,Fri Oct 11 2024 16:50:01 GMT-0500 (Central Daylight Time),164027.90000000596,O,None,2015,1,1,116.bmp,-120,-120,117.bmp,120,-120,118.bmp,-120,120,119.bmp,120,120,10826.80000000447,153201.1000000015,7025,yes,SM,A,116.bmp,-120,-120,154233,148205,156250,150219,,,,,1
3,0,0,1,0,0,prac,1,0,m,Fri Oct 11 2024 16:50:01 GMT-0500 (Central Daylight Time),174307.80000000447,O,z,1455,2,1,120.bmp,-120,-120,121.bmp,120,-120,122.bmp,-120,120,123.bmp,120,120,10275.60000000149,164032.20000000298,7025,no,SM,A,123.bmp,-120,120,165063,159036,167079,161048,,,,,2
4,0,0,0,1,1,prac,1,1,m,Fri Oct 11 2024 16:50:01 GMT-0500 (Central Daylight Time),184238.1000000015,O,m,1094,3,1,124.bmp,-120,-120,125.bmp,120,-120,126.bmp,-120,120,127.bmp,120,120,9926.69999999553,174311.40000000596,7025,no,SM,A,124.bmp,120,120,175368,169316,177376,171328,,,,,3
2,0,1,0,0,1,prac,1,0,z,Fri Oct 11 2024 16:50:01 GMT-0500 (Central Daylight Time),194651.5,O,m,1596,4,1,128.bmp,-120,-120,129.bmp,120,-120,130.bmp,-120,120,131.bmp,120,120,10410.09999999404,184241.40000000596,7025,yes,SM,A,129.bmp,120,-120,185274,179246,187290,181259,,,,,4
3,0,0,1,0,2,prac,1,1,z,Fri Oct 11 2024 16:50:01 GMT-0500 (Central Daylight Time),204698.20000000298,O,z,1231,5,1,132.bmp,-120,-120,133.bmp,120,-120,134.bmp,-120,120,135.bmp,120,120,10043.39999999851,194654.80000000447,7025,yes,SM,A,134.bmp,-120,120,195687,189659,197703,191673,,,,,5
1,1,0,0,0,3,prac,1,1,m,Fri Oct 11 2024 16:50:01 GMT-0500 (Central Daylight Time),214946.1000000015,O,m,1432,6,1,136.bmp,-120,-120,137.bmp,120,-120,138.bmp,-120,120,139.bmp,120,120,10244.5,204701.6000000015,7025,no,SM,A,139.bmp,-120,-120,205734,199706,207750,201718,,,,,6
2,0,1,0,0,4,prac,1,1,m,Fri Oct 11 2024 16:50:01 GMT-0500 (Central Daylight Time),225275.20000000298,O,m,1505,7,1,140.bmp,-120,-120,141.bmp,120,-120,142.bmp,-120,120,143.bmp,120,120,10325.39999999851,214949.80000000447,7025,no,SM,A,140.bmp,120,-120,215980,209954,217997,211965,,,,,7
4,0,0,0,1,5,prac,1,1,z,Fri Oct 11 2024 16:50:01 GMT-0500 (Central Daylight Time),236005.30000000447,O,z,1886,8,1,144.bmp,-120,-120,145.bmp,120,-120,146.bmp,-120,120,147.bmp,120,120,10726.30000000447,225279.0,7025,yes,SM,A,147.bmp,120,120,226327,220283,228343,222325,,,,,8
4,0,0,0,1,1,test,1,1,m,Fri Oct 11 2024 16:50:01 GMT-0500 (Central Daylight Time),265312.5,O,m,1692,1,1,148.bmp,-120,-120,149.bmp,120,-120,150.bmp,-120,120,143.bmp,120,120,9744.39999999851,255568.1000000015,7025,no,SM,A,150.bmp,120,120,226327,220283,228343,222325,256601.0,250572.0,258618.0,252586.0,1
2,0,1,0,0,1,test,1,0,m,Fri Oct 11 2024 16:50:01 GMT-0500 (Central Daylight Time),275360.80000000447,O,None,2001,2,1,101.bmp,-120,-120,102.bmp,120,-120,103.bmp,-120,120,104.bmp,120,120,10044.70000000298,265316.1000000015,7025,no,SM,A,103.bmp,120,-120,226327,220283,228343,222325,266348.0,260320.0,268364.0,262333.0,2
1,1,0,0,0,2,test,1,1,z,Fri Oct 11 2024 16:50:01 GMT-0500 (Central Daylight Time),284273.5,O,z,859,3,1,105.bmp,-120,-120,106.bmp,120,-120,107.bmp,-120,120,108.bmp,120,120,8909.09999999404,275364.40000000596,7025,yes,SM,A,105.bmp,-120,-120,226327,220283,228343,222325,276395.0,270369.0,278411.0,272379.0,3
3,0,0,1,0,2,test,1,0,m,Fri Oct 11 2024 16:50:01 GMT-0500 (Central Daylight Time),293870.30000000447,O,z,1537,4,1,109.bmp,-120,-120,110.bmp,120,-120,111.bmp,-120,120,112.bmp,120,120,9593.60000000149,284276.700000003,7025,no,SM,A,109.bmp,-120,120,226327,220283,228343,222325,285309.0,279281.0,287325.0,281294.0,4
2,0,1,0,0,3,test,1,1,z,Fri Oct 11 2024 16:50:01 GMT-0500 (Central Daylight Time),303700.5,O,z,1772,5,1,113.bmp,-120,-120,114.bmp,120,-120,115.bmp,-120,120,116.bmp,120,120,9827.09999999404,293873.40000000596,7025,yes,SM,A,114.bmp,120,-120,226327,220283,228343,222325,294906.0,288878.0,296922.0,290891.0,5
3,0,0,1,0,3,test,1,0,z,Fri Oct 11 2024 16:50:01 GMT-0500 (Central Daylight Time),313764.0,O,None,2016,6,1,117.bmp,-120,-120,118.bmp,120,-120,119.bmp,-120,120,120.bmp,120,120,10060.39999999851,303703.6000000015,7025,yes,SM,A,119.bmp,-120,120,226327,220283,228343,222325,304736.0,298708.0,306752.0,300721.0,6
4,0,0,0,1,4,test,1,1,z,Fri Oct 11 2024 16:50:01 GMT-0500 (Central Daylight Time),322728.0,O,z,910,7,1,121.bmp,-120,-120,122.bmp,120,-120,123.bmp,-120,120,124.bmp,120,120,8960.79999999702,313767.200000003,7025,yes,SM,A,124.bmp,120,120,226327,220283,228343,222325,314800.0,308771.0,316816.0,310784.0,7
2,0,1,0,0,5,test,1,1,m,Fri Oct 11 2024 16:50:01 GMT-0500 (Central Daylight Time),332241.6000000015,O,m,1457,8,1,125.bmp,-120,-120,126.bmp,120,-120,127.bmp,-120,120,128.bmp,120,120,9510.5,322731.1000000015,7025,no,SM,A,125.bmp,120,-120,226327,220283,228343,222325,323763.0,317735.0,325781.0,319748.0,8
3,0,0,1,0,6,test,1,1,m,Fri Oct 11 2024 16:50:01 GMT-0500 (Central Daylight Time),341456.5,O,m,1153,9,1,129.bmp,-120,-120,130.bmp,120,-120,131.bmp,-120,120,132.bmp,120,120,9210.89999999851,332245.6000000015,7025,no,SM,A,130.bmp,-120,120,226327,220283,228343,222325,333277.0,327250.0,335293.0,329262.0,9
4,0,0,0,1,6,test,1,0,z,Fri Oct 11 2024 16:50:01 GMT-0500 (Central Daylight Time),351519.0,O,None,2016,10,1,137.bmp,-120,-120,138.bmp,120,-120,139.bmp,-120,120,140.bmp,120,120,10059.19999999553,341459.80000000447,7025,yes,SM,A,140.bmp,120,120,226327,220283,228343,222325,342491.0,336464.0,344507.0,338476.0,10
3,0,0,1,0,7,test,1,1,z,Fri Oct 11 2024 16:50:01 GMT-0500 (Central Daylight Time),360632.700000003,O,z,1060,11,1,133.bmp,-120,-120,134.bmp,120,-120,135.bmp,-120,120,136.bmp,120,120,9105.70000000298,351527.0,7025,yes,SM,A,135.bmp,-120,120,226327,220283,228343,222325,352554.0,346531.0,354571.0,348540.0,11
2,0,1,0,0,8,test,1,1,m,Fri Oct 11 2024 16:50:01 GMT-0500 (Central Daylight Time),369746.40000000596,O,m,1050,12,1,141.bmp,-120,-120,142.bmp,120,-120,143.bmp,-120,120,144.bmp,120,120,9109.80000000447,360636.6000000015,7025,no,SM,A,141.bmp,120,-120,226327,220283,228343,222325,361668.0,355641.0,363685.0,357653.0,12
3,0,0,1,0,9,test,1,1,m,Fri Oct 11 2024 16:50:01 GMT-0500 (Central Daylight Time),378977.0,O,m,1176,13,1,145.bmp,-120,-120,146.bmp,120,-120,147.bmp,-120,120,148.bmp,120,120,9227.29999999702,369749.700000003,7025,no,SM,A,146.bmp,-120,120,226327,220283,228343,222325,370782.0,364754.0,372798.0,366766.0,13
1,1,0,0,0,10,test,1,1,z,Fri Oct 11 2024 16:50:01 GMT-0500 (Central Daylight Time),388057.5,O,z,1025,14,1,149.bmp,-120,-120,150.bmp,120,-120,104.bmp,-120,120,101.bmp,120,120,9077.29999999702,378980.200000003,7025,yes,SM,A,149.bmp,-120,-120,226327,220283,228343,222325,380013.0,373984.0,382029.0,375997.0,14
4,0,0,0,1,10,test,1,0,m,Fri Oct 11 2024 16:50:01 GMT-0500 (Central Daylight Time),397221.0,O,z,1105,15,1,110.bmp,-120,-120,111.bmp,120,-120,112.bmp,-120,120,113.bmp,120,120,9159.89999999851,388061.1000000015,7025,no,SM,A,111.bmp,120,120,226327,220283,228343,222325,389093.0,383065.0,391109.0,385078.0,15
1,1,0,0,0,11,test,1,1,m,Fri Oct 11 2024 16:50:01 GMT-0500 (Central Daylight Time),406434.700000003,O,m,1164,16,1,102.bmp,-120,-120,103.bmp,120,-120,104.bmp,-120,120,105.bmp,120,120,9210.60000000149,397224.1000000015,7025,no,SM,A,105.bmp,-120,-120,226327,220283,228343,222325,398257.0,392228.0,400274.0,394241.0,16
3,0,0,1,0,11,test,1,0,m,Fri Oct 11 2024 16:50:01 GMT-0500 (Central Daylight Time),416381.80000000447,O,z,1895,17,1,122.bmp,-120,-120,123.bmp,120,-120,124.bmp,-120,120,125.bmp,120,120,9944.10000000149,406437.700000003,7025,no,SM,A,122.bmp,-120,120,226327,220283,228343,222325,407472.0,401442.0,409487.0,403455.0,17
1,1,0,0,0,12,test,1,1,z,Fri Oct 11 2024 16:50:01 GMT-0500 (Central Daylight Time),425580.0,O,z,1164,18,1,106.bmp,-120,-120,107.bmp,120,-120,108.bmp,-120,120,109.bmp,120,120,9194.79999999702,416385.200000003,7025,yes,SM,A,106.bmp,-120,-120,226327,220283,228343,222325,417417.0,411389.0,419418.0,413402.0,18
2,0,1,0,0,12,test,1,0,z,Fri Oct 11 2024 16:50:01 GMT-0500 (Central Daylight Time),434792.80000000447,O,m,1151,19,1,126.bmp,-120,-120,127.bmp,120,-120,128.bmp,-120,120,129.bmp,120,120,9209.30000000447,425583.5,7025,yes,SM,A,127.bmp,120,-120,226327,220283,228343,222325,426615.0,420588.0,428631.0,422599.0,19
3,0,0,1,0,13,test,1,1,z,Fri Oct 11 2024 16:50:01 GMT-0500 (Central Daylight Time),444139.90000000596,O,z,1288,20,1,130.bmp,-120,-120,131.bmp,120,-120,132.bmp,-120,120,133.bmp,120,120,9343.90000000596,434796.0,7025,yes,SM,A,132.bmp,-120,120,226327,220283,228343,222325,435828.0,429800.0,437846.0,431813.0,20
1,1,0,0,0,14,test,1,1,m,Fri Oct 11 2024 16:50:01 GMT-0500 (Central Daylight Time),453303.6000000015,O,m,1102,21,1,114.bmp,-120,-120,115.bmp,120,-120,116.bmp,-120,120,117.bmp,120,120,9160.89999999851,444142.700000003,7025,no,SM,A,116.bmp,-120,-120,226327,220283,228343,222325,445175.0,439147.0,447192.0,441160.0,21
4,0,0,0,1,15,test,1,1,z,Fri Oct 11 2024 16:50:01 GMT-0500 (Central Daylight Time),463233.80000000447,O,z,1875,22,1,118.bmp,-120,-120,119.bmp,120,-120,120.bmp,-120,120,121.bmp,120,120,9926.80000000447,453307.0,7025,yes,SM,A,121.bmp,120,120,226327,220283,228343,222325,454339.0,448311.0,456355.0,450324.0,22
1,1,0,0,0,15,test,1,0,m,Fri Oct 11 2024 16:50:01 GMT-0500 (Central Daylight Time),473297.30000000447,O,None,2015,23,1,134.bmp,-120,-120,135.bmp,120,-120,136.bmp,-120,120,137.bmp,120,120,10060.0,463237.30000000447,7025,no,SM,A,137.bmp,-120,-120,226327,220283,228343,222325,464270.0,458242.0,466286.0,460254.0,23
2,0,1,0,0,16,test,1,1,z,Fri Oct 11 2024 16:50:01 GMT-0500 (Central Daylight Time),482377.700000003,O,z,1017,24,1,142.bmp,-120,-120,143.bmp,120,-120,144.bmp,-120,120,145.bmp,120,120,9077.20000000298,473300.5,7025,yes,SM,A,143.bmp,120,-120,226327,220283,228343,222325,474333.0,468305.0,476349.0,470318.0,24
4,0,0,0,1,16,test,1,0,m,Fri Oct 11 2024 16:50:01 GMT-0500 (Central Daylight Time),492024.90000000596,O,z,1584,25,1,146.bmp,-120,-120,147.bmp,120,-120,148.bmp,-120,120,149.bmp,120,120,9644.0,482380.90000000596,7025,no,SM,A,148.bmp,120,120,226327,220283,228343,222325,483415.0,477385.0,485430.0,479398.0,25
1,1,0,0,0,16,test,1,0,z,Fri Oct 11 2024 16:50:01 GMT-0500 (Central Daylight Time),501538.6000000015,O,m,1465,26,1,138.bmp,-120,-120,139.bmp,120,-120,140.bmp,-120,120,141.bmp,120,120,9510.60000000149,492028.0,7025,yes,SM,A,138.bmp,-120,-120,226327,220283,228343,222325,493060.0,487032.0,495077.0,489045.0,26
4,0,0,0,1,17,test,1,1,z,Fri Oct 11 2024 16:50:01 GMT-0500 (Central Daylight Time),510569.1000000015,O,z,887,27,1,150.bmp,-120,-120,111.bmp,120,-120,101.bmp,-120,120,102.bmp,120,120,9027.29999999702,501541.80000000447,7025,yes,SM,A,102.bmp,120,120,226327,220283,228343,222325,502574.0,496546.0,504671.0,498559.0,27
3,0,0,1,0,18,test,1,1,m,Fri Oct 11 2024 16:50:01 GMT-0500 (Central Daylight Time),520282.5,O,m,1665,28,1,103.bmp,-120,-120,104.bmp,120,-120,105.bmp,-120,120,106.bmp,120,120,9710.29999999702,510572.200000003,7025,no,SM,A,103.bmp,-120,120,226327,220283,228343,222325,511605.0,505577.0,513621.0,507589.0,28
2,0,1,0,0,19,test,1,1,z,Fri Oct 11 2024 16:50:01 GMT-0500 (Central Daylight Time),530046.200000003,O,z,1703,29,1,107.bmp,-120,-120,108.bmp,120,-120,109.bmp,-120,120,110.bmp,120,120,9760.79999999702,520285.40000000596,7025,yes,SM,A,108.bmp,120,-120,226327,220283,228343,222325,521318.0,515290.0,523335.0,517303.0,29
3,0,0,1,0,20,test,1,1,z,Fri Oct 11 2024 16:50:01 GMT-0500 (Central Daylight Time),539276.5,O,z,1179,30,1,111.bmp,-120,-120,112.bmp,120,-120,113.bmp,-120,120,114.bmp,120,120,9227.0,530049.5,7025,yes,SM,A,113.bmp,-120,120,226327,220283,228343,222325,531082.0,525054.0,533099.0,527066.0,30
1,1,0,0,0,21,test,1,1,z,Fri Oct 11 2024 16:50:01 GMT-0500 (Central Daylight Time),549091.5,O,z,1757,31,1,115.bmp,-120,-120,116.bmp,120,-120,117.bmp,-120,120,118.bmp,120,120,9811.79999999702,539279.700000003,7025,yes,SM,A,115.bmp,-120,-120,226327,220283,228343,222325,540312.0,534284.0,542329.0,536297.0,31
2,0,1,0,0,21,test,1,0,m,Fri Oct 11 2024 16:50:01 GMT-0500 (Central Daylight Time),559154.8000000045,O,None,2017,32,1,119.bmp,-120,-120,120.bmp,120,-120,121.bmp,-120,120,122.bmp,120,120,10060.10000000149,549094.700000003,7025,no,SM,A,119.bmp,120,-120,226327,220283,228343,222325,550126.0,544099.0,552142.0,546111.0,32
4,0,0,0,1,21,test,1,0,z,Fri Oct 11 2024 16:50:01 GMT-0500 (Central Daylight Time),569000.6000000015,O,m,1784,33,1,131.bmp,-120,-120,132.bmp,120,-120,133.bmp,-120,120,134.bmp,120,120,9842.89999999851,559157.700000003,7025,yes,SM,A,134.bmp,120,120,226327,220283,228343,222325,560189.0,554162.0,562206.0,556174.0,33
2,0,1,0,0,22,test,1,1,z,Fri Oct 11 2024 16:50:01 GMT-0500 (Central Daylight Time),578214.5,O,z,1153,34,1,123.bmp,-120,-120,124.bmp,120,-120,125.bmp,-120,120,126.bmp,120,120,9211.19999999553,569003.3000000045,7025,yes,SM,A,124.bmp,120,-120,226327,220283,228343,222325,570037.0,564007.0,572053.0,566021.0,34
4,0,0,0,1,22,test,1,0,m,Fri Oct 11 2024 16:50:01 GMT-0500 (Central Daylight Time),588327.900000006,O,z,1943,35,1,127.bmp,-120,-120,128.bmp,120,-120,129.bmp,-120,120,130.bmp,120,120,10110.10000000149,578217.8000000045,7025,no,SM,A,129.bmp,120,120,226327,220283,228343,222325,579367.0,573222.0,581383.0,575362.0,35
3,0,0,1,0,22,test,1,0,m,Fri Oct 11 2024 16:50:01 GMT-0500 (Central Daylight Time),598391.5,O,None,2015,36,1,135.bmp,-120,-120,136.bmp,120,-120,137.bmp,-120,120,138.bmp,120,120,10060.59999999404,588330.900000006,7025,no,SM,A,135.bmp,-120,120,226327,220283,228343,222325,589364.0,583335.0,591380.0,585349.0,36
1,1,0,0,0,23,test,1,1,m,Fri Oct 11 2024 16:50:01 GMT-0500 (Central Daylight Time),607938.5,O,m,1499,37,1,139.bmp,-120,-120,140.bmp,120,-120,141.bmp,-120,120,142.bmp,120,120,9544.29999999702,598394.200000003,7025,no,SM,A,140.bmp,-120,-120,226327,220283,228343,222325,599427.0,593398.0,601443.0,595412.0,37
2,0,1,0,0,24,test,1,1,m,Fri Oct 11 2024 16:50:01 GMT-0500 (Central Daylight Time),617235.6000000015,O,m,1248,38,1,143.bmp,-120,-120,144.bmp,120,-120,145.bmp,-120,120,146.bmp,120,120,9293.79999999702,607941.8000000045,7025,no,SM,A,145.bmp,120,-120,226327,220283,228343,222325,608974.0,602946.0,610990.0,604959.0,38
4,0,0,0,1,24,test,1,0,z,Fri Oct 11 2024 16:50:01 GMT-0500 (Central Daylight Time),627297.6000000015,O,None,2015,39,1,147.bmp,-120,-120,148.bmp,120,-120,149.bmp,-120,120,150.bmp,120,120,10057.89999999851,617239.700000003,7025,yes,SM,A,150.bmp,120,120,226327,220283,228343,222325,618271.0,612244.0,620287.0,614256.0,39
3,0,0,1,0,25,test,1,1,m,Fri Oct 11 2024 16:50:01 GMT-0500 (Central Daylight Time),636830.8000000045,O,m,1479,40,1,104.bmp,-120,-120,105.bmp,120,-120,106.bmp,-120,120,107.bmp,120,120,9528.89999999851,627301.900000006,7025,no,SM,A,105.bmp,-120,120,226327,220283,228343,222325,628335.0,622306.0,630351.0,624319.0,40
1,1,0,0,0,26,test,1,1,z,Fri Oct 11 2024 16:50:01 GMT-0500 (Central Daylight Time),645976.5,O,z,1092,41,1,108.bmp,-120,-120,109.bmp,120,-120,110.bmp,-120,120,111.bmp,120,120,9142.09999999404,636834.400000006,7025,yes,SM,A,108.bmp,-120,-120,226327,220283,228343,222325,637865.0,631839.0,639882.0,633850.0,41
4,0,0,0,1,27,test,1,1,z,Fri Oct 11 2024 16:50:01 GMT-0500 (Central Daylight Time),655090.6000000015,O,z,1066,42,1,112.bmp,-120,-120,113.bmp,120,-120,114.bmp,-120,120,115.bmp,120,120,9111.10000000149,645979.5,7025,yes,SM,A,115.bmp,120,120,226327,220283,228343,222325,647012.0,640984.0,649028.0,642997.0,42
1,1,0,0,0,28,test,1,1,z,Fri Oct 11 2024 16:50:01 GMT-0500 (Central Daylight Time),664737.3000000045,O,z,1584,43,1,116.bmp,-120,-120,117.bmp,120,-120,118.bmp,-120,120,119.bmp,120,120,9643.80000000447,655093.5,7025,yes,SM,A,116.bmp,-120,-120,226327,220283,228343,222325,656126.0,650098.0,658142.0,652111.0,43
4,0,0,0,1,28,test,1,0,m,Fri Oct 11 2024 16:50:01 GMT-0500 (Central Daylight Time),674801.1000000015,O,None,2016,44,1,104.bmp,-120,-120,101.bmp,120,-120,102.bmp,-120,120,103.bmp,120,120,10060.69999999553,664740.400000006,7025,no,SM,A,104.bmp,120,120,226327,220283,228343,222325,665773.0,659745.0,667789.0,661758.0,44
1,1,0,0,0,28,test,1,0,m,Fri Oct 11 2024 16:50:01 GMT-0500 (Central Daylight Time),684114.700000003,O,z,1265,45,1,128.bmp,-120,-120,129.bmp,120,-120,130.bmp,-120,120,131.bmp,120,120,9309.60000000149,674805.1000000015,7025,no,SM,A,131.bmp,-120,-120,226327,220283,228343,222325,675836.0,669809.0,677853.0,671821.0,45
1,1,0,0,0,29,test,1,1,m,Fri Oct 11 2024 16:50:01 GMT-0500 (Central Daylight Time),694162.6000000015,O,m,1991,46,1,120.bmp,-120,-120,121.bmp,120,-120,122.bmp,-120,120,123.bmp,120,120,10045.0,684117.6000000015,7025,no,SM,A,121.bmp,-120,-120,226327,220283,228343,222325,685150.0,679122.0,687167.0,681135.0,46
3,0,0,1,0,30,test,1,1,z,Fri Oct 11 2024 16:50:01 GMT-0500 (Central Daylight Time),703358.6000000015,O,z,1145,47,1,124.bmp,-120,-120,125.bmp,120,-120,126.bmp,-120,120,127.bmp,120,120,9193.0,694165.6000000015,7025,yes,SM,A,126.bmp,-120,120,226327,220283,228343,222325,695197.0,689170.0,697213.0,691182.0,47
3,0,0,1,0,31,test,1,1,z,Fri Oct 11 2024 16:50:01 GMT-0500 (Central Daylight Time),712572.200000003,O,z,1156,48,1,140.bmp,-120,-120,141.bmp,120,-120,142.bmp,-120,120,143.bmp,120,120,9210.79999999702,703361.400000006,7025,yes,SM,A,142.bmp,-120,120,226327,220283,228343,222325,704394.0,698366.0,706410.0,700380.0,48
2,0,1,0,0,32,test,1,1,z,Fri Oct 11 2024 16:50:01 GMT-0500 (Central Daylight Time),722052.6000000015,O,z,1430,49,1,136.bmp,-120,-120,137.bmp,120,-120,138.bmp,-120,120,139.bmp,120,120,9476.79999999702,712575.8000000045,7025,yes,SM,A,137.bmp,120,-120,226327,220283,228343,222325,713608.0,707580.0,715624.0,709593.0,49
3,0,0,1,0,33,test,1,1,m,Fri Oct 11 2024 16:50:01 GMT-0500 (Central Daylight Time),731666.400000006,O,m,1558,50,1,132.bmp,-120,-120,133.bmp,120,-120,134.bmp,-120,120,135.bmp,120,120,9611.10000000149,722055.3000000045,7025,no,SM,A,132.bmp,-120,120,226327,220283,228343,222325,723089.0,717060.0,725104.0,719073.0,50
2,0,1,0,0,33,test,1,0,z,Fri Oct 11 2024 16:50:01 GMT-0500 (Central Daylight Time),741730.0,O,None,2016,51,1,144.bmp,-120,-120,145.bmp,120,-120,146.bmp,-120,120,147.bmp,120,120,10060.69999999553,731669.3000000045,7025,yes,SM,A,145.bmp,120,-120,226327,220283,228343,222325,732702.0,726674.0,734718.0,728687.0,51
4,0,0,0,1,34,test,1,1,m,Fri Oct 11 2024 16:50:01 GMT-0500 (Central Daylight Time),750927.0,O,m,1136,52,1,148.bmp,-120,-120,149.bmp,120,-120,150.bmp,-120,120,131.bmp,120,120,9194.0,741733.0,7025,no,SM,A,148.bmp,120,120,226327,220283,228343,222325,742765.0,736737.0,744782.0,738750.0,52
3,0,0,1,0,35,test,1,1,z,Fri Oct 11 2024 16:50:01 GMT-0500 (Central Daylight Time),759941.0,O,z,963,53,1,101.bmp,-120,-120,102.bmp,120,-120,103.bmp,-120,120,104.bmp,120,120,9010.59999999404,750930.400000006,7025,yes,SM,A,103.bmp,-120,120,226327,220283,228343,222325,751963.0,745935.0,753979.0,747948.0,53
1,1,0,0,0,36,test,1,1,m,Fri Oct 11 2024 16:50:01 GMT-0500 (Central Daylight Time),769737.700000003,O,m,1733,54,1,105.bmp,-120,-120,106.bmp,120,-120,107.bmp,-120,120,108.bmp,120,120,9793.29999999702,759944.400000006,7025,no,SM,A,107.bmp,-120,-120,226327,220283,228343,222325,760978.0,754949.0,762993.0,756961.0,54
4,0,0,0,1,37,test,1,1,z,Fri Oct 11 2024 16:50:01 GMT-0500 (Central Daylight Time),779284.900000006,O,z,1504,55,1,109.bmp,-120,-120,110.bmp,120,-120,111.bmp,-120,120,112.bmp,120,120,9544.30000000447,769740.6000000015,7025,yes,SM,A,112.bmp,120,120,226327,220283,228343,222325,770773.0,764745.0,772774.0,766758.0,55
2,0,1,0,0,38,test,1,1,m,Fri Oct 11 2024 16:50:01 GMT-0500 (Central Daylight Time),788431.900000006,O,m,1093,56,1,113.bmp,-120,-120,114.bmp,120,-120,115.bmp,-120,120,116.bmp,120,120,9143.60000000149,779288.3000000045,7025,no,SM,A,113.bmp,120,-120,226327,220283,228343,222325,780321.0,774293.0,782337.0,776305.0,56
4,0,0,0,1,39,test,1,1,m,Fri Oct 11 2024 16:50:01 GMT-0500 (Central Daylight Time),797829.0,O,m,1346,57,1,117.bmp,-120,-120,118.bmp,120,-120,119.bmp,-120,120,120.bmp,120,120,9393.89999999851,788435.1000000015,7025,no,SM,A,118.bmp,120,120,226327,220283,228343,222325,789468.0,783439.0,791484.0,785452.0,57
3,0,0,1,0,40,test,1,1,z,Fri Oct 11 2024 16:50:01 GMT-0500 (Central Daylight Time),807042.8000000045,O,z,1157,58,1,121.bmp,-120,-120,122.bmp,120,-120,123.bmp,-120,120,124.bmp,120,120,9210.80000000447,797832.0,7025,yes,SM,A,123.bmp,-120,120,226327,220283,228343,222325,798865.0,792836.0,800881.0,794849.0,58
2,0,1,0,0,40,test,1,0,m,Fri Oct 11 2024 16:50:01 GMT-0500 (Central Daylight Time),816239.900000006,O,z,1144,59,1,125.bmp,-120,-120,126.bmp,120,-120,127.bmp,-120,120,128.bmp,120,120,9194.30000000447,807045.6000000015,7025,no,SM,A,128.bmp,120,-120,226327,220283,228343,222325,808078.0,802050.0,810095.0,804063.0,59
1,1,0,0,0,41,test,1,1,z,Fri Oct 11 2024 16:50:01 GMT-0500 (Central Daylight Time),825037.1000000015,O,z,746,60,1,129.bmp,-120,-120,130.bmp,120,-120,131.bmp,-120,120,132.bmp,120,120,8793.89999999851,816243.200000003,7025,yes,SM,A,129.bmp,-120,-120,226327,220283,228343,222325,817276.0,811247.0,819292.0,813261.0,60
2,0,1,0,0,41,test,1,0,z,Fri Oct 11 2024 16:50:01 GMT-0500 (Central Daylight Time),834950.700000003,O,m,1861,61,1,133.bmp,-120,-120,134.bmp,120,-120,135.bmp,-120,120,136.bmp,120,120,9910.5,825040.200000003,7025,yes,SM,A,134.bmp,120,-120,226327,220283,228343,222325,826073.0,820044.0,828089.0,822057.0,61
4,0,0,0,1,42,test,1,1,z,Fri Oct 11 2024 16:50:01 GMT-0500 (Central Daylight Time),844214.3000000045,O,z,1211,62,1,141.bmp,-120,-120,142.bmp,120,-120,143.bmp,-120,120,144.bmp,120,120,9260.80000000447,834953.5,7025,yes,SM,A,144.bmp,120,120,226327,220283,228343,222325,835986.0,829958.0,838003.0,831971.0,62
1,1,0,0,0,43,test,1,1,m,Fri Oct 11 2024 16:50:01 GMT-0500 (Central Daylight Time),853694.6000000015,O,m,1420,63,1,145.bmp,-120,-120,146.bmp,120,-120,147.bmp,-120,120,148.bmp,120,120,9477.89999999851,844216.700000003,7025,no,SM,A,145.bmp,-120,120,226327,220283,228343,222325,845250.0,839221.0,847266.0,841235.0,63
2,0,1,0,0,44,test,1,1,z,Fri Oct 11 2024 16:50:01 GMT-0500 (Central Daylight Time),863259.6000000015,O,z,1508,64,1,149.bmp,-120,-120,150.bmp,120,-120,112.bmp,-120,120,101.bmp,120,120,9562.0,853697.6000000015,7025,yes,SM,A,150.bmp,120,-120,226327,220283,228343,222325,854731.0,848702.0,856746.0,850715.0,64
4,0,0,0,1,45,test,1,1,m,Fri Oct 11 2024 16:50:01 GMT-0500 (Central Daylight Time),872722.200000003,O,m,1409,65,1,102.bmp,-120,-120,103.bmp,120,-120,104.bmp,-120,120,105.bmp,120,120,9459.5,863262.700000003,7025,no,SM,A,104.bmp,120,120,226327,220283,228343,222325,864294.0,858267.0,866310.0,860279.0,65
3,0,0,1,0,45,test,1,0,m,Fri Oct 11 2024 16:50:01 GMT-0500 (Central Daylight Time),882785.700000003,O,None,2016,66,1,106.bmp,-120,-120,107.bmp,120,-120,108.bmp,-120,120,109.bmp,120,120,10059.10000000149,872726.6000000015,7025,no,SM,A,109.bmp,-120,120,226327,220283,228343,222325,873758.0,867731.0,875774.0,869742.0,66
2,0,1,0,0,46,test,1,1,m,Fri Oct 11 2024 16:50:01 GMT-0500 (Central Daylight Time),892549.200000003,O,m,1704,67,1,137.bmp,-120,-120,138.bmp,120,-120,139.bmp,-120,120,140.bmp,120,120,9760.0,882789.200000003,7025,no,SM,A,139.bmp,120,-120,226327,220283,228343,222325,883821.0,877793.0,885838.0,879806.0,67
3,0,0,1,0,47,test,1,1,z,Fri Oct 11 2024 16:50:01 GMT-0500 (Central Daylight Time),901829.6000000015,O,z,1221,68,1,110.bmp,-120,-120,111.bmp,120,-120,112.bmp,-120,120,113.bmp,120,120,9277.60000000149,892552.0,7025,yes,SM,A,112.bmp,-120,120,226327,220283,228343,222325,893585.0,887556.0,895601.0,889570.0,68
1,1,0,0,0,48,test,1,1,m,Fri Oct 11 2024 16:50:01 GMT-0500 (Central Daylight Time),911243.6000000015,O,m,1356,69,1,114.bmp,-120,-120,115.bmp,120,-120,116.bmp,-120,120,117.bmp,120,120,9410.60000000149,901833.0,7025,no,SM,A,115.bmp,-120,-120,226327,220283,228343,222325,902866.0,896837.0,904881.0,898850.0,69
2,0,1,0,0,49,test,1,1,m,Fri Oct 11 2024 16:50:01 GMT-0500 (Central Daylight Time),920690.5,O,m,1391,70,1,118.bmp,-120,-120,119.bmp,120,-120,120.bmp,-120,120,121.bmp,120,120,9442.79999999702,911247.700000003,7025,no,SM,A,120.bmp,120,-120,226327,220283,228343,222325,912279.0,906252.0,914295.0,908264.0,70
4,0,0,0,1,50,test,1,1,z,Fri Oct 11 2024 16:50:01 GMT-0500 (Central Daylight Time),930121.1000000015,O,z,1376,71,1,122.bmp,-120,-120,123.bmp,120,-120,124.bmp,-120,120,125.bmp,120,120,9427.29999999702,920693.8000000045,7025,yes,SM,A,125.bmp,120,120,226327,220283,228343,222325,921726.0,915698.0,923742.0,917711.0,71
1,1,0,0,0,51,test,1,1,z,Fri Oct 11 2024 16:50:01 GMT-0500 (Central Daylight Time),938951.6000000015,O,z,769,72,1,126.bmp,-120,-120,127.bmp,120,-120,128.bmp,-120,120,129.bmp,120,120,8827.0,930124.6000000015,7025,yes,SM,A,126.bmp,-120,-120,226327,220283,228343,222325,931158.0,925129.0,933173.0,927141.0,72
2,0,1,0,0,52,test,1,1,z,Fri Oct 11 2024 16:50:01 GMT-0500 (Central Daylight Time),947898.5,O,z,884,73,1,130.bmp,-120,-120,131.bmp,120,-120,132.bmp,-120,120,133.bmp,120,120,8944.0,938954.5,7025,yes,SM,A,131.bmp,120,-120,226327,220283,228343,222325,939987.0,933959.0,942003.0,935972.0,73
4,0,0,0,1,53,test,1,1,m,Fri Oct 11 2024 16:50:01 GMT-0500 (Central Daylight Time),956933.3000000045,O,m,977,74,1,134.bmp,-120,-120,135.bmp,120,-120,136.bmp,-120,120,137.bmp,120,120,9031.89999999851,947901.400000006,7025,no,SM,A,136.bmp,120,120,226327,220283,228343,222325,948934.0,942906.0,950951.0,944919.0,74
2,0,1,0,0,54,test,1,1,m,Fri Oct 11 2024 16:50:01 GMT-0500 (Central Daylight Time),966044.200000003,O,m,1057,75,1,138.bmp,-120,-120,139.bmp,120,-120,140.bmp,-120,120,141.bmp,120,120,9108.10000000149,956936.1000000015,7025,no,SM,A,141.bmp,120,-120,226327,220283,228343,222325,957965.0,951940.0,959981.0,953949.0,75
1,1,0,0,0,55,test,1,1,z,Fri Oct 11 2024 16:50:01 GMT-0500 (Central Daylight Time),975056.6000000015,O,z,959,76,1,142.bmp,-120,-120,143.bmp,120,-120,144.bmp,-120,120,145.bmp,120,120,9009.39999999851,966047.200000003,7025,yes,SM,A,142.bmp,-120,-120,226327,220283,228343,222325,967080.0,961051.0,969095.0,963063.0,76
3,0,0,1,0,56,test,1,1,z,Fri Oct 11 2024 16:50:01 GMT-0500 (Central Daylight Time),984205.200000003,O,z,1090,77,1,150.bmp,-120,-120,111.bmp,120,-120,101.bmp,-120,120,102.bmp,120,120,9145.5,975059.700000003,7025,yes,SM,A,101.bmp,-120,120,226327,220283,228343,222325,976093.0,970064.0,978108.0,972077.0,77
1,1,0,0,0,57,test,1,1,m,Fri Oct 11 2024 16:50:01 GMT-0500 (Central Daylight Time),993550.8000000045,O,m,1295,78,1,146.bmp,-120,-120,147.bmp,120,-120,148.bmp,-120,120,149.bmp,120,120,9337.80000000447,984213.0,7025,no,SM,A,147.bmp,-120,-120,226327,220283,228343,222325,985240.0,979217.0,987256.0,981225.0,78
4,0,0,0,1,58,test,1,1,m,Fri Oct 11 2024 16:50:01 GMT-0500 (Central Daylight Time),1003064.6000000015,O,m,1459,79,1,107.bmp,-120,-120,108.bmp,120,-120,109.bmp,-120,120,110.bmp,120,120,9509.60000000149,993555.0,7025,no,SM,A,107.bmp,120,120,226327,220283,228343,222325,994587.0,988559.0,996603.0,990571.0,79
3,0,0,1,0,59,test,1,1,m,Fri Oct 11 2024 16:50:01 GMT-0500 (Central Daylight Time),1012362.900000006,O,m,1234,80,1,103.bmp,-120,-120,104.bmp,120,-120,105.bmp,-120,120,106.bmp,120,120,9294.90000000596,1003068.0,7025,no,SM,A,106.bmp,-120,120,226327,220283,228343,222325,1004100.0,998072.0,1006116.0,1000085.0,80
