Number,acc_sum,block,block_c,block_cond,con_img,correct,correct_response,datetime,endtime,jitter,project,response,response_time,row_sel,session_number,start_end,starttime,subject_id,task,task_vers,trial
2,0,prac,1,A,circle.png,0,z,Thu Apr 17 2025 16:26:10 GMT-0500 (Central Daylight Time),72521.60000000149,2000,O,None,1514,2,1,4292.89999999851,68228.70000000298,7111,NTS,C,1
4,1,prac,1,A,circle.png,1,z,Thu Apr 17 2025 16:26:10 GMT-0500 (Central Daylight Time),75787.10000000149,1400,O,z,1072,4,1,3259.2999999970198,72527.80000000447,7111,NTS,C,2
3,2,prac,1,A,circle.png,1,z,Thu Apr 17 2025 16:26:10 GMT-0500 (Central Daylight Time),78952.70000000298,1200,O,z,1078,3,1,3160.2999999970198,75792.40000000596,7111,NTS,C,3
4,3,prac,1,A,circle.png,1,z,Thu Apr 17 2025 16:26:10 GMT-0500 (Central Daylight Time),81670.0,1400,O,z,537,4,1,2711.0999999940395,78958.90000000596,7111,NTS,C,4
8,4,prac,1,A,circle.png,1,m,Thu Apr 17 2025 16:26:10 GMT-0500 (Central Daylight Time),84817.90000000596,1600,O,m,764,7,1,3141.5,81676.40000000596,7111,NTS,C,5
6,5,prac,1,A,circle.png,1,m,Thu Apr 17 2025 16:26:10 GMT-0500 (Central Daylight Time),88400.0,1900,O,m,892,5,1,3576.5999999940395,84823.40000000596,7111,NTS,C,6
1,6,prac,1,A,circle.png,1,z,Thu Apr 17 2025 16:26:10 GMT-0500 (Central Daylight Time),91116.20000000298,1000,O,z,930,1,1,2710.7000000029802,88405.5,7111,NTS,C,7
2,7,prac,1,A,circle.png,1,z,Thu Apr 17 2025 16:26:10 GMT-0500 (Central Daylight Time),94731.30000000447,2000,O,z,822,2,1,3609.89999999851,91121.40000000596,7111,NTS,C,8
9,8,prac,1,A,circle.png,1,m,Thu Apr 17 2025 16:26:10 GMT-0500 (Central Daylight Time),98013.80000000447,1500,O,m,995,8,1,3277.10000000149,94736.70000000298,7111,NTS,C,9
8,9,prac,1,A,circle.png,1,m,Thu Apr 17 2025 16:26:10 GMT-0500 (Central Daylight Time),101396.0,1600,O,m,997,7,1,3376.5999999940395,98019.40000000596,7111,NTS,C,10
1,10,prac,1,A,circle.png,1,z,Thu Apr 17 2025 16:26:10 GMT-0500 (Central Daylight Time),103778.90000000596,1000,O,z,598,1,1,2377.9000000059605,101401.0,7111,NTS,C,11
7,11,prac,1,A,circle.png,1,m,Thu Apr 17 2025 16:26:10 GMT-0500 (Central Daylight Time),107477.60000000149,1700,O,m,1203,6,1,3693.0,103784.60000000149,7111,NTS,C,12
7,1,prac,1,B,triangle.png,1,z,Thu Apr 17 2025 16:26:10 GMT-0500 (Central Daylight Time),139300.90000000596,2000,O,z,1237,6,1,4027.7000000029802,135273.20000000298,7111,NTS,C,1
6,2,prac,1,B,triangle.png,1,m,Thu Apr 17 2025 16:26:10 GMT-0500 (Central Daylight Time),142433.1000000015,1000,O,m,1333,5,1,3126.89999999851,139306.20000000298,7111,NTS,C,2
9,3,prac,1,B,triangle.png,1,z,Thu Apr 17 2025 16:26:10 GMT-0500 (Central Daylight Time),145682.20000000298,1400,O,z,1065,8,1,3244.0,142438.20000000298,7111,NTS,C,3
1,4,prac,1,B,triangle.png,1,z,Thu Apr 17 2025 16:26:10 GMT-0500 (Central Daylight Time),149748.70000000298,1900,O,z,1243,1,1,4061.60000000149,145687.1000000015,7111,NTS,C,4
1,5,prac,1,B,triangle.png,1,z,Thu Apr 17 2025 16:26:10 GMT-0500 (Central Daylight Time),153396.40000000596,1900,O,z,963,1,1,3642.2000000029802,149754.20000000298,7111,NTS,C,5
4,6,prac,1,B,triangle.png,1,m,Thu Apr 17 2025 16:26:10 GMT-0500 (Central Daylight Time),157061.90000000596,1500,O,m,1377,4,1,3660.2000000029802,153401.70000000298,7111,NTS,C,6
3,7,prac,1,B,triangle.png,1,z,Thu Apr 17 2025 16:26:10 GMT-0500 (Central Daylight Time),160294.40000000596,1600,O,z,844,3,1,3227.2000000029802,157067.20000000298,7111,NTS,C,7
3,8,prac,1,B,triangle.png,1,z,Thu Apr 17 2025 16:26:10 GMT-0500 (Central Daylight Time),163643.5,1600,O,z,956,3,1,3343.89999999851,160299.6000000015,7111,NTS,C,8
9,9,prac,1,B,triangle.png,1,z,Thu Apr 17 2025 16:26:10 GMT-0500 (Central Daylight Time),166909.0,1400,O,z,1078,8,1,3260.5999999940395,163648.40000000596,7111,NTS,C,9
4,10,prac,1,B,triangle.png,1,m,Thu Apr 17 2025 16:26:10 GMT-0500 (Central Daylight Time),170057.90000000596,1500,O,m,850,4,1,3144.0,166913.90000000596,7111,NTS,C,10
2,10,prac,1,B,triangle.png,0,m,Thu Apr 17 2025 16:26:10 GMT-0500 (Central Daylight Time),174056.5,1700,O,None,1515,2,1,3993.0999999940395,170063.40000000596,7111,NTS,C,11
8,11,prac,1,B,triangle.png,1,m,Thu Apr 17 2025 16:26:10 GMT-0500 (Central Daylight Time),177389.0,1200,O,m,1346,7,1,3327.39999999851,174061.6000000015,7111,NTS,C,12
1,1,test,1,A,circle.png,1,z,Thu Apr 17 2025 16:26:10 GMT-0500 (Central Daylight Time),205780.1000000015,1000,O,z,1357,1,1,2378.6999999955297,203401.40000000596,7111,NTS,C,1
1,2,test,1,A,circle.png,1,z,Thu Apr 17 2025 16:26:10 GMT-0500 (Central Daylight Time),207879.40000000596,1000,O,z,1078,1,1,2095.5,205783.90000000596,7111,NTS,C,2
2,3,test,1,A,circle.png,1,z,Thu Apr 17 2025 16:26:10 GMT-0500 (Central Daylight Time),211295.0,2000,O,z,1395,2,1,3411.7999999970198,207883.20000000298,7111,NTS,C,3
9,4,test,1,A,circle.png,1,m,Thu Apr 17 2025 16:26:10 GMT-0500 (Central Daylight Time),213610.70000000298,1500,O,m,791,8,1,2312.10000000149,211298.6000000015,7111,NTS,C,4
4,5,test,1,A,circle.png,1,z,Thu Apr 17 2025 16:26:10 GMT-0500 (Central Daylight Time),215810.1000000015,1400,O,z,767,4,1,2195.60000000149,213614.5,7111,NTS,C,5
7,6,test,1,A,circle.png,1,m,Thu Apr 17 2025 16:26:10 GMT-0500 (Central Daylight Time),218537.5,1700,O,m,1010,6,1,2723.7999999970198,215813.70000000298,7111,NTS,C,6
8,7,test,1,A,circle.png,1,m,Thu Apr 17 2025 16:26:10 GMT-0500 (Central Daylight Time),220908.5,1600,O,m,748,7,1,2366.6999999955297,218541.80000000447,7111,NTS,C,7
3,8,test,1,A,circle.png,1,z,Thu Apr 17 2025 16:26:10 GMT-0500 (Central Daylight Time),223008.0,1200,O,z,869,3,1,2096.0,220912.0,7111,NTS,C,8
2,9,test,1,A,circle.png,1,z,Thu Apr 17 2025 16:26:10 GMT-0500 (Central Daylight Time),225923.5,2000,O,z,898,2,1,2911.7999999970198,223011.70000000298,7111,NTS,C,9
8,10,test,1,A,circle.png,1,m,Thu Apr 17 2025 16:26:10 GMT-0500 (Central Daylight Time),228272.70000000298,1600,O,m,718,7,1,2345.60000000149,225927.1000000015,7111,NTS,C,10
3,11,test,1,A,circle.png,1,z,Thu Apr 17 2025 16:26:10 GMT-0500 (Central Daylight Time),230239.0,1200,O,z,745,3,1,1962.6999999955297,228276.30000000447,7111,NTS,C,11
1,12,test,1,A,circle.png,1,z,Thu Apr 17 2025 16:26:10 GMT-0500 (Central Daylight Time),232071.80000000447,1000,O,z,811,1,1,1828.8999999985099,230242.90000000596,7111,NTS,C,12
6,13,test,1,A,circle.png,1,m,Thu Apr 17 2025 16:26:10 GMT-0500 (Central Daylight Time),234754.1000000015,1900,O,m,749,5,1,2678.6999999955297,232075.40000000596,7111,NTS,C,13
2,14,test,1,A,circle.png,1,z,Thu Apr 17 2025 16:26:10 GMT-0500 (Central Daylight Time),237470.0,2000,O,z,688,2,1,2711.89999999851,234758.1000000015,7111,NTS,C,14
1,15,test,1,A,circle.png,1,z,Thu Apr 17 2025 16:26:10 GMT-0500 (Central Daylight Time),239136.0,1000,O,z,636,1,1,1662.0,237474.0,7111,NTS,C,15
7,16,test,1,A,circle.png,1,m,Thu Apr 17 2025 16:26:10 GMT-0500 (Central Daylight Time),241619.0,1700,O,m,766,6,1,2479.5,239139.5,7111,NTS,C,16
9,17,test,1,A,circle.png,1,m,Thu Apr 17 2025 16:26:10 GMT-0500 (Central Daylight Time),243984.70000000298,1500,O,m,843,8,1,2362.2000000029802,241622.5,7111,NTS,C,17
7,18,test,1,A,circle.png,1,m,Thu Apr 17 2025 16:26:10 GMT-0500 (Central Daylight Time),246433.80000000447,1700,O,m,726,6,1,2445.5,243988.30000000447,7111,NTS,C,18
4,19,test,1,A,circle.png,1,z,Thu Apr 17 2025 16:26:10 GMT-0500 (Central Daylight Time),248949.6000000015,1400,O,z,1096,4,1,2512.2999999970198,246437.30000000447,7111,NTS,C,19
2,20,test,1,A,circle.png,1,z,Thu Apr 17 2025 16:26:10 GMT-0500 (Central Daylight Time),251799.0,2000,O,z,821,2,1,2845.2999999970198,248953.70000000298,7111,NTS,C,20
6,21,test,1,A,circle.png,1,m,Thu Apr 17 2025 16:26:10 GMT-0500 (Central Daylight Time),254414.70000000298,1900,O,m,695,5,1,2611.7000000029802,251803.0,7111,NTS,C,21
4,22,test,1,A,circle.png,1,z,Thu Apr 17 2025 16:26:10 GMT-0500 (Central Daylight Time),256747.20000000298,1400,O,z,907,4,1,2328.7999999970198,254418.40000000596,7111,NTS,C,22
6,23,test,1,A,circle.png,1,m,Thu Apr 17 2025 16:26:10 GMT-0500 (Central Daylight Time),259863.30000000447,1900,O,m,1187,5,1,3112.5,256750.80000000447,7111,NTS,C,23
9,24,test,1,A,circle.png,1,m,Thu Apr 17 2025 16:26:10 GMT-0500 (Central Daylight Time),262195.6000000015,1500,O,m,807,8,1,2328.7999999970198,259866.80000000447,7111,NTS,C,24
7,1,test,1,B,triangle.png,1,z,Thu Apr 17 2025 16:26:10 GMT-0500 (Central Daylight Time),272960.0,2000,O,z,1170,6,1,3196.6999999955297,269763.30000000447,7111,NTS,C,1
8,2,test,1,B,triangle.png,1,m,Thu Apr 17 2025 16:26:10 GMT-0500 (Central Daylight Time),275391.6000000015,1700,O,m,712,15,1,2427.1999999955297,272964.40000000596,7111,NTS,C,2
3,3,test,1,B,triangle.png,1,z,Thu Apr 17 2025 16:26:10 GMT-0500 (Central Daylight Time),277640.80000000447,1600,O,z,627,3,1,2245.7000000029802,275395.1000000015,7111,NTS,C,3
2,4,test,1,B,triangle.png,1,m,Thu Apr 17 2025 16:26:10 GMT-0500 (Central Daylight Time),279789.90000000596,1200,O,m,922,10,1,2144.9000000059605,277645.0,7111,NTS,C,4
1,5,test,1,B,triangle.png,1,z,Thu Apr 17 2025 16:26:10 GMT-0500 (Central Daylight Time),282357.0,1900,O,z,648,1,1,2563.39999999851,279793.6000000015,7111,NTS,C,5
9,5,test,1,B,triangle.png,0,z,Thu Apr 17 2025 16:26:10 GMT-0500 (Central Daylight Time),285788.30000000447,1900,O,None,1515,16,1,3427.60000000149,282360.700000003,7111,NTS,C,6
3,6,test,1,B,triangle.png,1,z,Thu Apr 17 2025 16:26:10 GMT-0500 (Central Daylight Time),289017.40000000596,2000,O,z,1212,11,1,3225.7000000029802,285791.700000003,7111,NTS,C,7
3,7,test,1,B,triangle.png,1,z,Thu Apr 17 2025 16:26:10 GMT-0500 (Central Daylight Time),291453.1000000015,1600,O,z,806,3,1,2431.6999999955297,289021.40000000596,7111,NTS,C,8
6,8,test,1,B,triangle.png,1,m,Thu Apr 17 2025 16:26:10 GMT-0500 (Central Daylight Time),293236.1000000015,1000,O,m,757,5,1,1779.0,291457.1000000015,7111,NTS,C,9
7,9,test,1,B,triangle.png,1,z,Thu Apr 17 2025 16:26:10 GMT-0500 (Central Daylight Time),296051.40000000596,1600,O,z,1198,14,1,2811.4000000059605,293240.0,7111,NTS,C,10
6,10,test,1,B,triangle.png,1,m,Thu Apr 17 2025 16:26:10 GMT-0500 (Central Daylight Time),298301.0,1500,O,m,723,13,1,2245.89999999851,296055.1000000015,7111,NTS,C,11
1,11,test,1,B,triangle.png,1,z,Thu Apr 17 2025 16:26:10 GMT-0500 (Central Daylight Time),300333.6000000015,1400,O,z,613,9,1,2029.0,298304.6000000015,7111,NTS,C,12
2,12,test,1,B,triangle.png,1,m,Thu Apr 17 2025 16:26:10 GMT-0500 (Central Daylight Time),302532.90000000596,1200,O,m,973,10,1,2195.9000000059605,300337.0,7111,NTS,C,13
7,13,test,1,B,triangle.png,1,z,Thu Apr 17 2025 16:26:10 GMT-0500 (Central Daylight Time),304965.5,1600,O,z,805,14,1,2429.0999999940395,302536.40000000596,7111,NTS,C,14
8,14,test,1,B,triangle.png,1,m,Thu Apr 17 2025 16:26:10 GMT-0500 (Central Daylight Time),307048.30000000447,1200,O,m,861,7,1,2078.8000000044703,304969.5,7111,NTS,C,15
6,15,test,1,B,triangle.png,1,m,Thu Apr 17 2025 16:26:10 GMT-0500 (Central Daylight Time),309214.200000003,1500,O,m,638,13,1,2162.10000000149,307052.1000000015,7111,NTS,C,16
2,15,test,1,B,triangle.png,0,m,Thu Apr 17 2025 16:26:10 GMT-0500 (Central Daylight Time),311996.700000003,1700,O,z,1064,2,1,2779.0,309217.700000003,7111,NTS,C,17
9,16,test,1,B,triangle.png,1,z,Thu Apr 17 2025 16:26:10 GMT-0500 (Central Daylight Time),315195.6000000015,1900,O,z,1266,16,1,3195.39999999851,312000.200000003,7111,NTS,C,18
7,17,test,1,B,triangle.png,1,z,Thu Apr 17 2025 16:26:10 GMT-0500 (Central Daylight Time),318028.0,2000,O,z,807,6,1,2828.7999999970198,315199.200000003,7111,NTS,C,19
2,18,test,1,B,triangle.png,1,m,Thu Apr 17 2025 16:26:10 GMT-0500 (Central Daylight Time),320594.1000000015,1700,O,m,834,2,1,2562.5,318031.6000000015,7111,NTS,C,20
4,19,test,1,B,triangle.png,1,m,Thu Apr 17 2025 16:26:10 GMT-0500 (Central Daylight Time),322393.30000000447,1000,O,m,768,12,1,1795.2000000029802,320598.1000000015,7111,NTS,C,21
4,20,test,1,B,triangle.png,1,m,Thu Apr 17 2025 16:26:10 GMT-0500 (Central Daylight Time),324576.0,1500,O,m,661,4,1,2179.0,322397.0,7111,NTS,C,22
9,21,test,1,B,triangle.png,1,z,Thu Apr 17 2025 16:26:10 GMT-0500 (Central Daylight Time),327008.6000000015,1400,O,z,1002,8,1,2429.0,324579.6000000015,7111,NTS,C,23
4,22,test,1,B,triangle.png,1,m,Thu Apr 17 2025 16:26:10 GMT-0500 (Central Daylight Time),329158.200000003,1000,O,m,1130,12,1,2146.0,327012.200000003,7111,NTS,C,24
6,0,prac,1,C,circle.png,0,m,Thu Apr 17 2025 16:26:10 GMT-0500 (Central Daylight Time),382008.0,2000,O,None,1516,5,1,4293.69999999553,377714.30000000447,7111,NTS,C,1
3,1,prac,1,C,triangle.png,1,z,Thu Apr 17 2025 16:26:10 GMT-0500 (Central Daylight Time),385423.6000000015,1500,O,z,1126,3,1,3410.5,382013.1000000015,7111,NTS,C,2
7,1,prac,1,C,triangle.png,0,z,Thu Apr 17 2025 16:26:10 GMT-0500 (Central Daylight Time),388306.1000000015,1200,O,m,899,6,1,2877.6999999955297,385428.40000000596,7111,NTS,C,3
4,2,prac,1,C,circle.png,1,z,Thu Apr 17 2025 16:26:10 GMT-0500 (Central Daylight Time),391221.90000000596,1000,O,z,1120,4,1,2911.0,388310.90000000596,7111,NTS,C,4
4,2,prac,1,C,circle.png,0,z,Thu Apr 17 2025 16:26:10 GMT-0500 (Central Daylight Time),394521.0,1000,O,None,1515,4,1,3294.2999999970198,391226.700000003,7111,NTS,C,5
7,2,prac,1,C,triangle.png,0,z,Thu Apr 17 2025 16:26:10 GMT-0500 (Central Daylight Time),397769.700000003,1200,O,m,1257,6,1,3243.5,394526.200000003,7111,NTS,C,6
8,2,prac,1,C,triangle.png,0,m,Thu Apr 17 2025 16:26:10 GMT-0500 (Central Daylight Time),401468.80000000447,1400,O,None,1516,7,1,3694.0,397774.80000000447,7111,NTS,C,7
1,3,prac,1,C,circle.png,1,z,Thu Apr 17 2025 16:26:10 GMT-0500 (Central Daylight Time),404367.80000000447,1700,O,z,410,1,1,2893.7000000029802,401474.1000000015,7111,NTS,C,8
3,3,prac,1,C,triangle.png,0,z,Thu Apr 17 2025 16:26:10 GMT-0500 (Central Daylight Time),408166.40000000596,1500,O,None,1515,3,1,3793.60000000149,404372.80000000447,7111,NTS,C,9
9,3,prac,1,C,circle.png,0,m,Thu Apr 17 2025 16:26:10 GMT-0500 (Central Daylight Time),411915.5,1900,O,z,1064,8,1,3744.1999999955297,408171.30000000447,7111,NTS,C,10
9,3,prac,1,C,circle.png,0,m,Thu Apr 17 2025 16:26:10 GMT-0500 (Central Daylight Time),416114.0,1900,O,None,1516,8,1,4193.19999999553,411920.80000000447,7111,NTS,C,11
2,3,prac,1,C,triangle.png,0,m,Thu Apr 17 2025 16:26:10 GMT-0500 (Central Daylight Time),419363.200000003,1600,O,z,857,2,1,3244.10000000149,416119.1000000015,7111,NTS,C,12
6,0,prac,2,C,circle.png,0,m,Thu Apr 17 2025 16:26:10 GMT-0500 (Central Daylight Time),431426.200000003,2000,O,z,532,5,1,3311.10000000149,428115.1000000015,7111,NTS,C,1
7,1,prac,2,C,triangle.png,1,z,Thu Apr 17 2025 16:26:10 GMT-0500 (Central Daylight Time),434441.5,1200,O,z,1032,6,1,3010.0999999940395,431431.40000000596,7111,NTS,C,2
3,2,prac,2,C,triangle.png,1,z,Thu Apr 17 2025 16:26:10 GMT-0500 (Central Daylight Time),437907.30000000447,1500,O,z,1173,3,1,3461.10000000149,434446.200000003,7111,NTS,C,3
1,2,prac,2,C,circle.png,0,z,Thu Apr 17 2025 16:26:10 GMT-0500 (Central Daylight Time),441073.0,1700,O,m,667,1,1,3160.7999999970198,437912.200000003,7111,NTS,C,4
8,2,prac,2,C,triangle.png,0,m,Thu Apr 17 2025 16:26:10 GMT-0500 (Central Daylight Time),444255.30000000447,1400,O,z,985,7,1,3177.3000000044703,441078.0,7111,NTS,C,5
8,3,prac,2,C,triangle.png,1,m,Thu Apr 17 2025 16:26:10 GMT-0500 (Central Daylight Time),447537.200000003,1400,O,m,1099,7,1,3277.0,444260.200000003,7111,NTS,C,6
3,4,prac,2,C,triangle.png,1,z,Thu Apr 17 2025 16:26:10 GMT-0500 (Central Daylight Time),451153.30000000447,1500,O,z,1317,3,1,3610.7000000029802,447542.6000000015,7111,NTS,C,7
6,4,prac,2,C,circle.png,0,m,Thu Apr 17 2025 16:26:10 GMT-0500 (Central Daylight Time),455451.80000000447,2000,O,None,1515,5,1,4293.80000000447,451158.0,7111,NTS,C,8
4,4,prac,2,C,circle.png,0,z,Thu Apr 17 2025 16:26:10 GMT-0500 (Central Daylight Time),457851.0,1000,O,m,606,4,1,2393.89999999851,455457.1000000015,7111,NTS,C,9
9,4,prac,2,C,circle.png,0,m,Thu Apr 17 2025 16:26:10 GMT-0500 (Central Daylight Time),461866.40000000596,1900,O,z,1331,8,1,4010.60000000149,457855.80000000447,7111,NTS,C,10
2,5,prac,2,C,triangle.png,1,m,Thu Apr 17 2025 16:26:10 GMT-0500 (Central Daylight Time),465382.90000000596,1600,O,m,1120,2,1,3511.60000000149,461871.30000000447,7111,NTS,C,11
1,6,prac,2,C,circle.png,1,z,Thu Apr 17 2025 16:26:10 GMT-0500 (Central Daylight Time),468664.5,1700,O,z,784,1,1,3276.7999999970198,465387.700000003,7111,NTS,C,12
2,1,test,1,C,circle.png,1,z,Thu Apr 17 2025 16:26:10 GMT-0500 (Central Daylight Time),499871.1000000015,1700,O,z,1487,18,1,3212.2999999970198,496658.80000000447,7111,NTS,C,1
6,1,test,1,C,circle.png,0,m,Thu Apr 17 2025 16:26:10 GMT-0500 (Central Daylight Time),503303.40000000596,1900,O,None,1515,21,1,3427.9000000059605,499875.5,7111,NTS,C,2
6,2,test,1,C,circle.png,1,m,Thu Apr 17 2025 16:26:10 GMT-0500 (Central Daylight Time),505252.80000000447,1900,O,m,23,5,1,1945.7000000029802,503307.1000000015,7111,NTS,C,3
1,2,test,1,C,circle.png,0,z,Thu Apr 17 2025 16:26:10 GMT-0500 (Central Daylight Time),507785.200000003,1000,O,None,1515,1,1,2528.60000000149,505256.6000000015,7111,NTS,C,4
3,2,test,1,C,circle.png,0,z,Thu Apr 17 2025 16:26:10 GMT-0500 (Central Daylight Time),510917.700000003,1600,O,None,1516,11,1,3128.2000000029802,507789.5,7111,NTS,C,5
4,2,test,1,C,triangle.png,0,m,Thu Apr 17 2025 16:26:10 GMT-0500 (Central Daylight Time),513950.0,1500,O,None,1516,20,1,3028.5999999940395,510921.40000000596,7111,NTS,C,6
7,2,test,1,C,triangle.png,0,z,Thu Apr 17 2025 16:26:10 GMT-0500 (Central Daylight Time),516366.0,1700,O,m,696,22,1,2412.39999999851,513953.6000000015,7111,NTS,C,7
9,2,test,1,C,triangle.png,0,z,Thu Apr 17 2025 16:26:10 GMT-0500 (Central Daylight Time),519298.30000000447,1400,O,None,1515,16,1,2928.5,516369.80000000447,7111,NTS,C,8
3,3,test,1,C,circle.png,1,z,Thu Apr 17 2025 16:26:10 GMT-0500 (Central Daylight Time),522264.0,1600,O,z,1336,19,1,2962.0,519302.0,7111,NTS,C,9
7,3,test,1,C,triangle.png,0,z,Thu Apr 17 2025 16:26:10 GMT-0500 (Central Daylight Time),525179.700000003,1700,O,m,1199,6,1,2911.5,522268.200000003,7111,NTS,C,10
9,3,test,1,C,circle.png,0,m,Thu Apr 17 2025 16:26:10 GMT-0500 (Central Daylight Time),528095.6000000015,1500,O,z,1386,8,1,2912.5,525183.1000000015,7111,NTS,C,11
6,3,test,1,C,triangle.png,0,m,Thu Apr 17 2025 16:26:10 GMT-0500 (Central Daylight Time),530628.200000003,1000,O,None,1515,13,1,2528.10000000149,528100.1000000015,7111,NTS,C,12
8,3,test,1,C,circle.png,0,m,Thu Apr 17 2025 16:26:10 GMT-0500 (Central Daylight Time),532610.900000006,1200,O,z,758,15,1,1979.0,530631.900000006,7111,NTS,C,13
4,3,test,1,C,triangle.png,0,m,Thu Apr 17 2025 16:26:10 GMT-0500 (Central Daylight Time),535643.200000003,1500,O,None,1515,12,1,3028.5,532614.700000003,7111,NTS,C,14
7,3,test,1,C,circle.png,0,m,Thu Apr 17 2025 16:26:10 GMT-0500 (Central Daylight Time),538392.3000000045,2000,O,z,727,14,1,2745.3000000044703,535647.0,7111,NTS,C,15
1,3,test,1,C,triangle.png,0,z,Thu Apr 17 2025 16:26:10 GMT-0500 (Central Daylight Time),541824.6000000015,1900,O,None,1515,17,1,3427.1999999955297,538397.400000006,7111,NTS,C,16
8,3,test,1,C,triangle.png,0,m,Thu Apr 17 2025 16:26:10 GMT-0500 (Central Daylight Time),544956.900000006,1600,O,None,1516,7,1,3128.5,541828.400000006,7111,NTS,C,17
9,3,test,1,C,circle.png,0,m,Thu Apr 17 2025 16:26:10 GMT-0500 (Central Daylight Time),548053.6000000015,1500,O,None,1580,24,1,3092.1999999955297,544961.400000006,7111,NTS,C,18
4,4,test,1,C,circle.png,1,z,Thu Apr 17 2025 16:26:10 GMT-0500 (Central Daylight Time),550338.8000000045,1400,O,z,850,4,1,2281.5,548057.3000000045,7111,NTS,C,19
3,4,test,1,C,triangle.png,0,z,Thu Apr 17 2025 16:26:10 GMT-0500 (Central Daylight Time),552354.6000000015,1200,O,m,783,3,1,2012.1000000014901,550342.5,7111,NTS,C,20
2,5,test,1,C,circle.png,1,z,Thu Apr 17 2025 16:26:10 GMT-0500 (Central Daylight Time),555503.700000003,1700,O,z,1420,10,1,3145.60000000149,552358.1000000015,7111,NTS,C,21
1,6,test,1,C,triangle.png,1,z,Thu Apr 17 2025 16:26:10 GMT-0500 (Central Daylight Time),558602.8000000045,1900,O,z,1175,9,1,3095.39999999851,555507.400000006,7111,NTS,C,22
2,7,test,1,C,triangle.png,1,m,Thu Apr 17 2025 16:26:10 GMT-0500 (Central Daylight Time),561951.700000003,2000,O,m,1327,2,1,3345.2999999970198,558606.400000006,7111,NTS,C,23
8,7,test,1,C,triangle.png,0,m,Thu Apr 17 2025 16:26:10 GMT-0500 (Central Daylight Time),564784.1000000015,1600,O,z,1211,23,1,2828.60000000149,561955.5,7111,NTS,C,24
3,0,test,2,C,circle.png,0,z,Thu Apr 17 2025 16:26:10 GMT-0500 (Central Daylight Time),573431.6000000015,1600,O,None,1516,19,1,3129.39999999851,570302.200000003,7111,NTS,C,1
8,1,test,2,C,circle.png,1,m,Thu Apr 17 2025 16:26:10 GMT-0500 (Central Daylight Time),575815.400000006,1200,O,m,1155,23,1,2379.9000000059605,573435.5,7111,NTS,C,2
9,1,test,2,C,triangle.png,0,z,Thu Apr 17 2025 16:26:10 GMT-0500 (Central Daylight Time),578746.400000006,1400,O,None,1515,24,1,2927.0,575819.400000006,7111,NTS,C,3
8,1,test,2,C,circle.png,0,m,Thu Apr 17 2025 16:26:10 GMT-0500 (Central Daylight Time),581479.0,1200,O,None,1516,15,1,2728.7999999970198,578750.200000003,7111,NTS,C,4
4,2,test,2,C,circle.png,1,z,Thu Apr 17 2025 16:26:10 GMT-0500 (Central Daylight Time),584294.700000003,1400,O,z,1395,4,1,2812.0,581482.700000003,7111,NTS,C,5
2,2,test,2,C,triangle.png,0,m,Thu Apr 17 2025 16:26:10 GMT-0500 (Central Daylight Time),587827.0,2000,O,None,1516,2,1,3528.2999999970198,584298.700000003,7111,NTS,C,6
1,2,test,2,C,triangle.png,0,z,Thu Apr 17 2025 16:26:10 GMT-0500 (Central Daylight Time),591259.3000000045,1900,O,None,1516,17,1,3428.39999999851,587830.900000006,7111,NTS,C,7
2,3,test,2,C,circle.png,1,z,Thu Apr 17 2025 16:26:10 GMT-0500 (Central Daylight Time),594341.5,1700,O,z,1355,10,1,3077.7999999970198,591263.700000003,7111,NTS,C,8
9,3,test,2,C,triangle.png,0,z,Thu Apr 17 2025 16:26:10 GMT-0500 (Central Daylight Time),597074.0,1400,O,m,1309,16,1,2728.5,594345.5,7111,NTS,C,9
9,3,test,2,C,circle.png,0,m,Thu Apr 17 2025 16:26:10 GMT-0500 (Central Daylight Time),600106.3000000045,1500,O,None,1515,8,1,3028.60000000149,597077.700000003,7111,NTS,C,10
2,4,test,2,C,circle.png,1,z,Thu Apr 17 2025 16:26:10 GMT-0500 (Central Daylight Time),603106.6000000015,1700,O,z,1276,18,1,2996.7999999970198,600109.8000000045,7111,NTS,C,11
3,4,test,2,C,triangle.png,0,z,Thu Apr 17 2025 16:26:10 GMT-0500 (Central Daylight Time),605838.0,1200,O,None,1516,3,1,2727.89999999851,603110.1000000015,7111,NTS,C,12
6,5,test,2,C,triangle.png,1,m,Thu Apr 17 2025 16:26:10 GMT-0500 (Central Daylight Time),607887.1000000015,1000,O,m,1028,21,1,2045.5,605841.6000000015,7111,NTS,C,13
1,6,test,2,C,triangle.png,1,z,Thu Apr 17 2025 16:26:10 GMT-0500 (Central Daylight Time),610852.900000006,1900,O,z,1039,9,1,2962.10000000149,607890.8000000045,7111,NTS,C,14
1,7,test,2,C,circle.png,1,z,Thu Apr 17 2025 16:26:10 GMT-0500 (Central Daylight Time),613019.0,1000,O,z,1141,1,1,2162.39999999851,610856.6000000015,7111,NTS,C,15
6,8,test,2,C,triangle.png,1,m,Thu Apr 17 2025 16:26:10 GMT-0500 (Central Daylight Time),615151.900000006,1000,O,m,1103,13,1,2129.2000000029802,613022.700000003,7111,NTS,C,16
7,8,test,2,C,triangle.png,0,z,Thu Apr 17 2025 16:26:10 GMT-0500 (Central Daylight Time),618384.0,1700,O,None,1516,6,1,3228.2999999970198,615155.700000003,7111,NTS,C,17
7,9,test,2,C,circle.png,1,m,Thu Apr 17 2025 16:26:10 GMT-0500 (Central Daylight Time),621299.5,2000,O,m,898,14,1,2911.5999999940395,618387.900000006,7111,NTS,C,18
8,9,test,2,C,triangle.png,0,m,Thu Apr 17 2025 16:26:10 GMT-0500 (Central Daylight Time),624265.6000000015,1600,O,z,1341,7,1,2962.6999999955297,621302.900000006,7111,NTS,C,19
4,9,test,2,C,triangle.png,0,m,Thu Apr 17 2025 16:26:10 GMT-0500 (Central Daylight Time),627297.8000000045,1500,O,None,1516,20,1,3028.39999999851,624269.400000006,7111,NTS,C,20
3,9,test,2,C,circle.png,0,z,Thu Apr 17 2025 16:26:10 GMT-0500 (Central Daylight Time),630430.5,1600,O,None,1515,11,1,3129.1999999955297,627301.3000000045,7111,NTS,C,21
7,10,test,2,C,circle.png,1,m,Thu Apr 17 2025 16:26:10 GMT-0500 (Central Daylight Time),633562.5,2000,O,m,1108,22,1,3127.89999999851,630434.6000000015,7111,NTS,C,22
4,10,test,2,C,triangle.png,0,m,Thu Apr 17 2025 16:26:10 GMT-0500 (Central Daylight Time),636595.0,1500,O,None,1516,12,1,3028.7999999970198,633566.200000003,7111,NTS,C,23
6,10,test,2,C,circle.png,0,m,Thu Apr 17 2025 16:26:10 GMT-0500 (Central Daylight Time),640027.200000003,1900,O,None,1516,5,1,3428.39999999851,636598.8000000045,7111,NTS,C,24
7,0,test,3,C,triangle.png,0,z,Thu Apr 17 2025 16:26:10 GMT-0500 (Central Daylight Time),647574.900000006,1700,O,None,1516,22,1,3228.10000000149,644346.8000000045,7111,NTS,C,1
2,1,test,3,C,circle.png,1,z,Thu Apr 17 2025 16:26:10 GMT-0500 (Central Daylight Time),650557.3000000045,1700,O,z,1255,10,1,2977.89999999851,647579.400000006,7111,NTS,C,2
6,2,test,3,C,circle.png,1,m,Thu Apr 17 2025 16:26:10 GMT-0500 (Central Daylight Time),653439.700000003,1900,O,m,961,5,1,2878.7000000029802,650561.0,7111,NTS,C,3
3,3,test,3,C,triangle.png,1,z,Thu Apr 17 2025 16:26:10 GMT-0500 (Central Daylight Time),655655.700000003,1200,O,z,994,3,1,2212.2999999970198,653443.400000006,7111,NTS,C,4
3,4,test,3,C,triangle.png,1,z,Thu Apr 17 2025 16:26:10 GMT-0500 (Central Daylight Time),657721.700000003,1200,O,z,843,19,1,2062.2999999970198,655659.400000006,7111,NTS,C,5
4,5,test,3,C,triangle.png,1,m,Thu Apr 17 2025 16:26:10 GMT-0500 (Central Daylight Time),660187.5,1500,O,m,949,12,1,2462.0999999940395,657725.400000006,7111,NTS,C,6
1,6,test,3,C,circle.png,1,z,Thu Apr 17 2025 16:26:10 GMT-0500 (Central Daylight Time),661936.900000006,1000,O,z,718,17,1,1745.9000000059605,660191.0,7111,NTS,C,7
6,7,test,3,C,circle.png,1,m,Thu Apr 17 2025 16:26:10 GMT-0500 (Central Daylight Time),664819.400000006,1900,O,m,966,21,1,2878.60000000149,661940.8000000045,7111,NTS,C,8
6,7,test,3,C,triangle.png,0,m,Thu Apr 17 2025 16:26:10 GMT-0500 (Central Daylight Time),667452.1000000015,1000,O,None,1505,13,1,2629.2999999970198,664822.8000000045,7111,NTS,C,9
8,8,test,3,C,circle.png,1,m,Thu Apr 17 2025 16:26:10 GMT-0500 (Central Daylight Time),670034.5,1200,O,m,1358,15,1,2578.6999999955297,667455.8000000045,7111,NTS,C,10
8,9,test,3,C,triangle.png,1,m,Thu Apr 17 2025 16:26:10 GMT-0500 (Central Daylight Time),672933.5,1600,O,m,1272,7,1,2893.39999999851,670040.1000000015,7111,NTS,C,11
7,10,test,3,C,circle.png,1,m,Thu Apr 17 2025 16:26:10 GMT-0500 (Central Daylight Time),675882.5,2000,O,m,917,14,1,2944.89999999851,672937.6000000015,7111,NTS,C,12
2,10,test,3,C,triangle.png,0,m,Thu Apr 17 2025 16:26:10 GMT-0500 (Central Daylight Time),679414.700000003,2000,O,None,1516,18,1,3528.5,675886.200000003,7111,NTS,C,13
2,11,test,3,C,triangle.png,1,m,Thu Apr 17 2025 16:26:10 GMT-0500 (Central Daylight Time),682747.200000003,2000,O,m,1300,2,1,3328.7999999970198,679418.400000006,7111,NTS,C,14
4,11,test,3,C,circle.png,0,z,Thu Apr 17 2025 16:26:10 GMT-0500 (Central Daylight Time),685679.400000006,1400,O,None,1515,20,1,2928.4000000059605,682751.0,7111,NTS,C,15
1,12,test,3,C,circle.png,1,z,Thu Apr 17 2025 16:26:10 GMT-0500 (Central Daylight Time),687762.200000003,1000,O,z,1050,1,1,2078.2000000029802,685684.0,7111,NTS,C,16
1,12,test,3,C,triangle.png,0,z,Thu Apr 17 2025 16:26:10 GMT-0500 (Central Daylight Time),691194.400000006,1900,O,None,1515,9,1,3428.3000000044703,687766.1000000015,7111,NTS,C,17
4,13,test,3,C,circle.png,1,z,Thu Apr 17 2025 16:26:10 GMT-0500 (Central Daylight Time),694077.1000000015,1400,O,z,1455,4,1,2878.89999999851,691198.200000003,7111,NTS,C,18
9,13,test,3,C,triangle.png,0,z,Thu Apr 17 2025 16:26:10 GMT-0500 (Central Daylight Time),696475.900000006,1400,O,m,981,16,1,2395.10000000149,694080.8000000045,7111,NTS,C,19
8,13,test,3,C,triangle.png,0,m,Thu Apr 17 2025 16:26:10 GMT-0500 (Central Daylight Time),699608.6000000015,1600,O,None,1516,23,1,3129.1999999955297,696479.400000006,7111,NTS,C,20
9,14,test,3,C,circle.png,1,m,Thu Apr 17 2025 16:26:10 GMT-0500 (Central Daylight Time),701174.6000000015,1500,O,m,37,8,1,1562.2999999970198,699612.3000000045,7111,NTS,C,21
3,14,test,3,C,circle.png,0,z,Thu Apr 17 2025 16:26:10 GMT-0500 (Central Daylight Time),704307.3000000045,1600,O,None,1516,11,1,3128.8000000044703,701178.5,7111,NTS,C,22
9,14,test,3,C,circle.png,0,m,Thu Apr 17 2025 16:26:10 GMT-0500 (Central Daylight Time),707339.5,1500,O,None,1515,24,1,3028.39999999851,704311.1000000015,7111,NTS,C,23
7,14,test,3,C,triangle.png,0,z,Thu Apr 17 2025 16:26:10 GMT-0500 (Central Daylight Time),710571.900000006,1700,O,None,1516,6,1,3228.60000000149,707343.3000000045,7111,NTS,C,24
6,1,test,4,C,circle.png,1,m,Thu Apr 17 2025 16:26:10 GMT-0500 (Central Daylight Time),719035.900000006,1900,O,m,1433,5,1,3362.5,715673.400000006,7111,NTS,C,1
3,2,test,4,C,triangle.png,1,z,Thu Apr 17 2025 16:26:10 GMT-0500 (Central Daylight Time),721751.700000003,1200,O,z,1486,3,1,2709.7000000029802,719042.0,7111,NTS,C,2
4,3,test,4,C,triangle.png,1,m,Thu Apr 17 2025 16:26:10 GMT-0500 (Central Daylight Time),724350.900000006,1500,O,m,1079,12,1,2595.3000000044703,721755.6000000015,7111,NTS,C,3
2,4,test,4,C,circle.png,1,z,Thu Apr 17 2025 16:26:10 GMT-0500 (Central Daylight Time),727416.5,1700,O,z,1336,10,1,3061.39999999851,724355.1000000015,7111,NTS,C,4
1,5,test,4,C,triangle.png,1,z,Thu Apr 17 2025 16:26:10 GMT-0500 (Central Daylight Time),730749.0,1900,O,z,1414,9,1,3328.6999999955297,727420.3000000045,7111,NTS,C,5
1,6,test,4,C,circle.png,1,z,Thu Apr 17 2025 16:26:10 GMT-0500 (Central Daylight Time),732915.0,1000,O,z,1133,17,1,2162.2999999970198,730752.700000003,7111,NTS,C,6
3,7,test,4,C,circle.png,1,z,Thu Apr 17 2025 16:26:10 GMT-0500 (Central Daylight Time),735514.0,1600,O,z,976,11,1,2595.0999999940395,732918.900000006,7111,NTS,C,7
9,7,test,4,C,triangle.png,0,z,Thu Apr 17 2025 16:26:10 GMT-0500 (Central Daylight Time),738096.400000006,1400,O,m,1160,16,1,2578.8000000044703,735517.6000000015,7111,NTS,C,8
8,8,test,4,C,circle.png,1,m,Thu Apr 17 2025 16:26:10 GMT-0500 (Central Daylight Time),740479.200000003,1200,O,m,1162,15,1,2379.0,738100.200000003,7111,NTS,C,9
2,8,test,4,C,triangle.png,0,m,Thu Apr 17 2025 16:26:10 GMT-0500 (Central Daylight Time),744011.3000000045,2000,O,None,1515,18,1,3528.5,740482.8000000045,7111,NTS,C,10
4,9,test,4,C,circle.png,1,z,Thu Apr 17 2025 16:26:10 GMT-0500 (Central Daylight Time),746643.8000000045,1400,O,z,1207,20,1,2628.8000000044703,744015.0,7111,NTS,C,11
7,10,test,4,C,circle.png,1,m,Thu Apr 17 2025 16:26:10 GMT-0500 (Central Daylight Time),749659.3000000045,2000,O,m,999,14,1,3011.8000000044703,746647.5,7111,NTS,C,12
3,11,test,4,C,triangle.png,1,z,Thu Apr 17 2025 16:26:10 GMT-0500 (Central Daylight Time),752326.400000006,1200,O,z,1447,19,1,2663.3000000044703,749663.1000000015,7111,NTS,C,13
1,12,test,4,C,circle.png,1,z,Thu Apr 17 2025 16:26:10 GMT-0500 (Central Daylight Time),754141.400000006,1000,O,z,797,1,1,1811.1000000014901,752330.3000000045,7111,NTS,C,14
4,13,test,4,C,circle.png,1,z,Thu Apr 17 2025 16:26:10 GMT-0500 (Central Daylight Time),756507.6000000015,1400,O,z,933,4,1,2362.2999999970198,754145.3000000045,7111,NTS,C,15
7,14,test,4,C,triangle.png,1,z,Thu Apr 17 2025 16:26:10 GMT-0500 (Central Daylight Time),759524.1000000015,1700,O,z,1291,22,1,3012.6999999955297,756511.400000006,7111,NTS,C,16
8,15,test,4,C,triangle.png,1,m,Thu Apr 17 2025 16:26:10 GMT-0500 (Central Daylight Time),762355.5,1600,O,m,1207,23,1,2827.1999999955297,759528.3000000045,7111,NTS,C,17
9,16,test,4,C,circle.png,1,m,Thu Apr 17 2025 16:26:10 GMT-0500 (Central Daylight Time),765171.400000006,1500,O,m,1299,8,1,2812.10000000149,762359.3000000045,7111,NTS,C,18
8,16,test,4,C,triangle.png,0,m,Thu Apr 17 2025 16:26:10 GMT-0500 (Central Daylight Time),768087.0,1600,O,z,1287,7,1,2912.0,765175.0,7111,NTS,C,19
9,17,test,4,C,circle.png,1,m,Thu Apr 17 2025 16:26:10 GMT-0500 (Central Daylight Time),770869.6000000015,1500,O,m,1255,24,1,2778.7999999970198,768090.8000000045,7111,NTS,C,20
2,17,test,4,C,triangle.png,0,m,Thu Apr 17 2025 16:26:10 GMT-0500 (Central Daylight Time),774401.6000000015,2000,O,None,1516,2,1,3528.39999999851,770873.200000003,7111,NTS,C,21
7,18,test,4,C,triangle.png,1,z,Thu Apr 17 2025 16:26:10 GMT-0500 (Central Daylight Time),777451.0,1700,O,z,1316,6,1,3045.5999999940395,774405.400000006,7111,NTS,C,22
6,19,test,4,C,triangle.png,1,m,Thu Apr 17 2025 16:26:10 GMT-0500 (Central Daylight Time),779616.900000006,1000,O,m,1143,13,1,2161.8000000044703,777455.1000000015,7111,NTS,C,23
6,20,test,4,C,circle.png,1,m,Thu Apr 17 2025 16:26:10 GMT-0500 (Central Daylight Time),782765.900000006,1900,O,m,1221,21,1,3145.0,779620.900000006,7111,NTS,C,24
