acc_sum,block,block_c,block_cond,con_img,correct,correct_response,datetime,endtime,face,jitter,line,project,response,response_time,row_sel,session_number,start_end,starttime,subject_id,task,task_vers,trial
1,prac,1,A,haborder.png,1,z,Wed Nov 06 2024 14:17:32 GMT-0600 (Central Standard Time),48609.200000047684,CFD-WF-023-013-A.jpg,1000,solid,O,z,951,12,1,2782.7000000476837,45826.5,7033,ATS,C,1
2,prac,1,A,haborder.png,1,m,Wed Nov 06 2024 14:17:32 GMT-0600 (Central Standard Time),52091.200000047684,CFD-BF-019-004-HC.jpg,2000,solid,O,m,657,5,1,6264.700000047684,45826.5,7033,ATS,C,2
3,prac,1,A,haborder.png,1,z,Wed Nov 06 2024 14:17:32 GMT-0600 (Central Standard Time),55639.90000009537,CFD-BM-043-014-A.jpg,1600,solid,O,z,1135,2,1,9813.400000095367,45826.5,7033,ATS,C,3
4,prac,1,A,haborder.png,1,z,Wed Nov 06 2024 14:17:32 GMT-0600 (Central Standard Time),59455.40000009537,CFD-WM-036-018-A.jpg,1900,solid,O,z,1093,8,1,13628.900000095367,45826.5,7033,ATS,C,4
5,prac,1,A,haborder.png,1,m,Wed Nov 06 2024 14:17:32 GMT-0600 (Central Standard Time),62587.60000014305,CFD-WM-035-036-HC.jpg,1700,solid,O,m,614,9,1,16761.10000014305,45826.5,7033,ATS,C,5
6,prac,1,A,haborder.png,1,z,Wed Nov 06 2024 14:17:32 GMT-0600 (Central Standard Time),65136.700000047684,CFD-BF-031-020-A.jpg,1000,solid,O,z,718,4,1,19310.200000047684,45826.5,7033,ATS,C,6
7,prac,1,A,haborder.png,1,m,Wed Nov 06 2024 14:17:32 GMT-0600 (Central Standard Time),68269.10000014305,CFD-BM-034-035-HC.jpg,1700,solid,O,m,613,1,1,22442.60000014305,45826.5,7033,ATS,C,7
8,prac,1,A,haborder.png,1,m,Wed Nov 06 2024 14:17:32 GMT-0600 (Central Standard Time),71218.20000004768,CFD-WF-013-009-HC.jpg,1500,solid,O,m,626,11,1,25391.700000047684,45826.5,7033,ATS,C,8
9,prac,1,A,haborder.png,1,z,Wed Nov 06 2024 14:17:32 GMT-0600 (Central Standard Time),74317.0,CFD-WF-037-016-A.jpg,1600,solid,O,z,672,10,1,28490.5,45826.5,7033,ATS,C,9
10,prac,1,A,haborder.png,1,m,Wed Nov 06 2024 14:17:32 GMT-0600 (Central Standard Time),77366.10000014305,CFD-BM-022-004-HC.jpg,1500,solid,O,m,729,3,1,31539.60000014305,45826.5,7033,ATS,C,10
11,prac,1,A,haborder.png,1,m,Wed Nov 06 2024 14:17:32 GMT-0600 (Central Standard Time),80182.10000014305,CFD-WM-028-005-HC.jpg,1400,solid,O,m,597,7,1,34355.60000014305,45826.5,7033,ATS,C,11
12,prac,1,A,haborder.png,1,z,Wed Nov 06 2024 14:17:32 GMT-0600 (Central Standard Time),82880.79999995232,CFD-BF-002-018-A.jpg,1200,solid,O,z,677,6,1,37054.299999952316,45826.5,7033,ATS,C,12
1,prac,1,B,mfborder.png,1,m,Wed Nov 06 2024 14:17:32 GMT-0600 (Central Standard Time),105990.0,CFD-WM-036-018-A.jpg,1700,9,O,m,1228,dash,1,3748.7999999523163,102241.20000004768,7033,ATS,C,1
2,prac,1,B,mfborder.png,1,z,Wed Nov 06 2024 14:17:32 GMT-0600 (Central Standard Time),109222.10000014305,CFD-WF-037-016-A.jpg,1500,11,O,z,904,dash,1,6980.900000095367,102241.20000004768,7033,ATS,C,2
3,prac,1,B,mfborder.png,1,m,Wed Nov 06 2024 14:17:32 GMT-0600 (Central Standard Time),113036.79999995232,CFD-BM-022-004-HC.jpg,1700,1,O,m,1303,dash,1,10795.599999904633,102241.20000004768,7033,ATS,C,3
4,prac,1,B,mfborder.png,1,m,Wed Nov 06 2024 14:17:32 GMT-0600 (Central Standard Time),115703.5,CFD-WM-034-040-A.jpg,1200,6,O,m,670,dash,1,13462.299999952316,102241.20000004768,7033,ATS,C,4
5,prac,1,B,mfborder.png,1,m,Wed Nov 06 2024 14:17:32 GMT-0600 (Central Standard Time),118818.60000014305,CFD-WM-035-036-HC.jpg,1600,10,O,m,682,dash,1,16577.400000095367,102241.20000004768,7033,ATS,C,5
6,prac,1,B,mfborder.png,1,z,Wed Nov 06 2024 14:17:32 GMT-0600 (Central Standard Time),121585.0,CFD-BF-019-004-HC.jpg,1400,7,O,z,559,dash,1,19343.799999952316,102241.20000004768,7033,ATS,C,6
7,prac,1,B,mfborder.png,1,z,Wed Nov 06 2024 14:17:32 GMT-0600 (Central Standard Time),124483.90000009537,CFD-WF-013-009-HC.jpg,1000,12,O,z,1072,dash,1,22242.700000047684,102241.20000004768,7033,ATS,C,7
8,prac,1,B,mfborder.png,1,z,Wed Nov 06 2024 14:17:32 GMT-0600 (Central Standard Time),128081.70000004768,CFD-WF-001-010-HC.jpg,1900,8,O,z,865,dash,1,25840.5,102241.20000004768,7033,ATS,C,8
9,prac,1,B,mfborder.png,1,m,Wed Nov 06 2024 14:17:32 GMT-0600 (Central Standard Time),131231.79999995232,CFD-BM-021-026-A.jpg,1600,2,O,m,752,dash,1,28990.599999904633,102241.20000004768,7033,ATS,C,9
10,prac,1,B,mfborder.png,1,m,Wed Nov 06 2024 14:17:32 GMT-0600 (Central Standard Time),134947.10000014305,CFD-BM-043-014-A.jpg,2000,5,O,m,882,dash,1,32705.900000095367,102241.20000004768,7033,ATS,C,10
11,prac,1,B,mfborder.png,1,z,Wed Nov 06 2024 14:17:32 GMT-0600 (Central Standard Time),138196.20000004768,CFD-BF-042-031-HC.jpg,1500,3,O,z,922,dash,1,35955.0,102241.20000004768,7033,ATS,C,11
12,prac,1,B,mfborder.png,1,z,Wed Nov 06 2024 14:17:32 GMT-0600 (Central Standard Time),140628.40000009537,CFD-BF-031-020-A.jpg,1000,4,O,z,605,dash,1,38387.200000047684,102241.20000004768,7033,ATS,C,12
1,test,1,A,haborder.png,1,m,Wed Nov 06 2024 14:17:32 GMT-0600 (Central Standard Time),159055.79999995232,CFD-WM-035-036-HC.jpg,1700,solid,O,m,961,9,1,2698.5,156357.29999995232,7033,ATS,C,1
2,test,1,A,haborder.png,1,m,Wed Nov 06 2024 14:17:32 GMT-0600 (Central Standard Time),161255.20000004768,CFD-WF-013-009-HC.jpg,1500,solid,O,m,654,11,1,4897.900000095367,156357.29999995232,7033,ATS,C,2
3,test,1,A,haborder.png,1,m,Wed Nov 06 2024 14:17:32 GMT-0600 (Central Standard Time),163420.90000009537,CFD-BM-022-004-HC.jpg,1500,solid,O,m,630,3,1,7063.600000143051,156357.29999995232,7033,ATS,C,3
4,test,1,A,haborder.png,1,m,Wed Nov 06 2024 14:17:32 GMT-0600 (Central Standard Time),165536.10000014305,CFD-WF-013-009-HC.jpg,1500,solid,O,m,567,11,1,9178.800000190735,156357.29999995232,7033,ATS,C,4
5,test,1,A,haborder.png,1,z,Wed Nov 06 2024 14:17:32 GMT-0600 (Central Standard Time),168069.5,CFD-WM-036-018-A.jpg,1900,solid,O,z,615,8,1,11712.200000047684,156357.29999995232,7033,ATS,C,5
6,test,1,A,haborder.png,1,z,Wed Nov 06 2024 14:17:32 GMT-0600 (Central Standard Time),170669.20000004768,CFD-BM-043-014-A.jpg,1600,solid,O,z,965,2,1,14311.900000095367,156357.29999995232,7033,ATS,C,6
7,test,1,A,haborder.png,1,m,Wed Nov 06 2024 14:17:32 GMT-0600 (Central Standard Time),173217.70000004768,CFD-BF-019-004-HC.jpg,2000,solid,O,m,509,5,1,16860.400000095367,156357.29999995232,7033,ATS,C,7
8,test,1,A,haborder.png,1,m,Wed Nov 06 2024 14:17:32 GMT-0600 (Central Standard Time),175933.29999995232,CFD-BF-019-004-HC.jpg,2000,solid,O,m,680,5,1,19576.0,156357.29999995232,7033,ATS,C,8
9,test,1,A,haborder.png,1,z,Wed Nov 06 2024 14:17:32 GMT-0600 (Central Standard Time),177666.20000004768,CFD-BF-031-020-A.jpg,1000,solid,O,z,684,4,1,21308.900000095367,156357.29999995232,7033,ATS,C,9
10,test,1,A,haborder.png,1,z,Wed Nov 06 2024 14:17:32 GMT-0600 (Central Standard Time),180248.60000014305,CFD-WF-037-016-A.jpg,1600,solid,O,z,945,10,1,23891.300000190735,156357.29999995232,7033,ATS,C,10
11,test,1,A,haborder.png,1,z,Wed Nov 06 2024 14:17:32 GMT-0600 (Central Standard Time),181998.20000004768,CFD-WF-023-013-A.jpg,1000,solid,O,z,713,12,1,25640.900000095367,156357.29999995232,7033,ATS,C,11
12,test,1,A,haborder.png,1,z,Wed Nov 06 2024 14:17:32 GMT-0600 (Central Standard Time),183680.90000009537,CFD-BF-031-020-A.jpg,1000,solid,O,z,643,4,1,27323.60000014305,156357.29999995232,7033,ATS,C,12
13,test,1,A,haborder.png,1,m,Wed Nov 06 2024 14:17:32 GMT-0600 (Central Standard Time),185662.60000014305,CFD-WM-028-005-HC.jpg,1400,solid,O,m,545,7,1,29305.300000190735,156357.29999995232,7033,ATS,C,13
14,test,1,A,haborder.png,1,m,Wed Nov 06 2024 14:17:32 GMT-0600 (Central Standard Time),188029.5,CFD-BM-034-035-HC.jpg,1700,solid,O,m,640,1,1,31672.200000047684,156357.29999995232,7033,ATS,C,14
15,test,1,A,haborder.png,1,z,Wed Nov 06 2024 14:17:32 GMT-0600 (Central Standard Time),190362.20000004768,CFD-BM-043-014-A.jpg,1600,solid,O,z,684,2,1,34004.90000009537,156357.29999995232,7033,ATS,C,15
16,test,1,A,haborder.png,1,z,Wed Nov 06 2024 14:17:32 GMT-0600 (Central Standard Time),192378.10000014305,CFD-BF-002-018-A.jpg,1200,solid,O,z,769,6,1,36020.800000190735,156357.29999995232,7033,ATS,C,16
17,test,1,A,haborder.png,1,m,Wed Nov 06 2024 14:17:32 GMT-0600 (Central Standard Time),194861.0,CFD-BM-034-035-HC.jpg,1700,solid,O,m,748,1,1,38503.700000047684,156357.29999995232,7033,ATS,C,17
18,test,1,A,haborder.png,1,z,Wed Nov 06 2024 14:17:32 GMT-0600 (Central Standard Time),197476.5,CFD-WM-036-018-A.jpg,1900,solid,O,z,673,8,1,41119.200000047684,156357.29999995232,7033,ATS,C,18
19,test,1,A,haborder.png,1,z,Wed Nov 06 2024 14:17:32 GMT-0600 (Central Standard Time),199475.90000009537,CFD-BF-002-018-A.jpg,1200,solid,O,z,749,6,1,43118.60000014305,156357.29999995232,7033,ATS,C,19
20,test,1,A,haborder.png,1,z,Wed Nov 06 2024 14:17:32 GMT-0600 (Central Standard Time),201841.40000009537,CFD-WF-037-016-A.jpg,1600,solid,O,z,718,10,1,45484.10000014305,156357.29999995232,7033,ATS,C,20
21,test,1,A,haborder.png,1,m,Wed Nov 06 2024 14:17:32 GMT-0600 (Central Standard Time),204224.20000004768,CFD-BM-022-004-HC.jpg,1500,solid,O,m,836,3,1,47866.90000009537,156357.29999995232,7033,ATS,C,21
22,test,1,A,haborder.png,1,m,Wed Nov 06 2024 14:17:32 GMT-0600 (Central Standard Time),206640.0,CFD-WM-028-005-HC.jpg,1400,solid,O,m,971,7,1,50282.700000047684,156357.29999995232,7033,ATS,C,22
23,test,1,A,haborder.png,1,m,Wed Nov 06 2024 14:17:32 GMT-0600 (Central Standard Time),209038.70000004768,CFD-WM-035-036-HC.jpg,1700,solid,O,m,661,9,1,52681.40000009537,156357.29999995232,7033,ATS,C,23
24,test,1,A,haborder.png,1,z,Wed Nov 06 2024 14:17:32 GMT-0600 (Central Standard Time),210738.5,CFD-WF-023-013-A.jpg,1000,solid,O,z,675,12,1,54381.200000047684,156357.29999995232,7033,ATS,C,24
1,test,1,B,mfborder.png,1,m,Wed Nov 06 2024 14:17:32 GMT-0600 (Central Standard Time),226217.0,CFD-WM-036-018-A.jpg,1700,dash,O,m,768,9,1,2515.2999999523163,223701.70000004768,7033,ATS,C,1
2,test,1,B,mfborder.png,1,z,Wed Nov 06 2024 14:17:32 GMT-0600 (Central Standard Time),227883.40000009537,CFD-WF-013-009-HC.jpg,1000,dash,O,z,617,12,1,4181.700000047684,223701.70000004768,7033,ATS,C,2
3,test,1,B,mfborder.png,1,m,Wed Nov 06 2024 14:17:32 GMT-0600 (Central Standard Time),230315.60000014305,CFD-BM-021-026-A.jpg,1600,dash,O,m,791,2,1,6613.900000095367,223701.70000004768,7033,ATS,C,3
4,test,1,B,mfborder.png,1,z,Wed Nov 06 2024 14:17:32 GMT-0600 (Central Standard Time),232514.70000004768,CFD-WF-037-016-A.jpg,1500,dash,O,z,658,11,1,8813.0,223701.70000004768,7033,ATS,C,4
5,test,1,B,mfborder.png,1,m,Wed Nov 06 2024 14:17:32 GMT-0600 (Central Standard Time),234531.0,CFD-WM-034-040-A.jpg,1200,dash,O,m,776,6,1,10829.299999952316,223701.70000004768,7033,ATS,C,5
6,test,1,B,mfborder.png,1,m,Wed Nov 06 2024 14:17:32 GMT-0600 (Central Standard Time),236797.70000004768,CFD-BM-022-004-HC.jpg,1700,dash,O,m,532,1,1,13096.0,223701.70000004768,7033,ATS,C,6
7,test,1,B,mfborder.png,1,z,Wed Nov 06 2024 14:17:32 GMT-0600 (Central Standard Time),238929.40000009537,CFD-WF-037-016-A.jpg,1500,dash,O,z,592,11,1,15227.700000047684,223701.70000004768,7033,ATS,C,7
8,test,1,B,mfborder.png,1,m,Wed Nov 06 2024 14:17:32 GMT-0600 (Central Standard Time),241595.10000014305,CFD-BM-043-014-A.jpg,2000,dash,O,m,624,5,1,17893.400000095367,223701.70000004768,7033,ATS,C,8
9,test,1,B,mfborder.png,1,z,Wed Nov 06 2024 14:17:32 GMT-0600 (Central Standard Time),243394.70000004768,CFD-BF-031-020-A.jpg,1000,dash,O,z,750,4,1,19693.0,223701.70000004768,7033,ATS,C,9
10,test,1,B,mfborder.png,1,z,Wed Nov 06 2024 14:17:32 GMT-0600 (Central Standard Time),245510.79999995232,CFD-BF-042-031-HC.jpg,1500,dash,O,z,572,3,1,21809.099999904633,223701.70000004768,7033,ATS,C,10
11,test,1,B,mfborder.png,1,z,Wed Nov 06 2024 14:17:32 GMT-0600 (Central Standard Time),247477.0,CFD-BF-019-004-HC.jpg,1400,dash,O,z,531,7,1,23775.299999952316,223701.70000004768,7033,ATS,C,11
12,test,1,B,mfborder.png,1,z,Wed Nov 06 2024 14:17:32 GMT-0600 (Central Standard Time),249042.79999995232,CFD-BF-031-020-A.jpg,1000,dash,O,z,525,4,1,25341.099999904633,223701.70000004768,7033,ATS,C,12
13,test,1,B,mfborder.png,1,m,Wed Nov 06 2024 14:17:32 GMT-0600 (Central Standard Time),250725.40000009537,CFD-WM-034-040-A.jpg,1200,dash,O,m,438,6,1,27023.700000047684,223701.70000004768,7033,ATS,C,13
14,test,1,B,mfborder.png,1,z,Wed Nov 06 2024 14:17:32 GMT-0600 (Central Standard Time),252774.60000014305,CFD-BF-019-004-HC.jpg,1400,dash,O,z,612,7,1,29072.900000095367,223701.70000004768,7033,ATS,C,14
15,test,1,B,mfborder.png,1,m,Wed Nov 06 2024 14:17:32 GMT-0600 (Central Standard Time),255074.0,CFD-BM-021-026-A.jpg,1600,dash,O,m,651,2,1,31372.299999952316,223701.70000004768,7033,ATS,C,15
16,test,1,B,mfborder.png,1,z,Wed Nov 06 2024 14:17:32 GMT-0600 (Central Standard Time),257273.40000009537,CFD-BF-042-031-HC.jpg,1500,dash,O,z,653,3,1,33571.700000047684,223701.70000004768,7033,ATS,C,16
17,test,1,B,mfborder.png,1,m,Wed Nov 06 2024 14:17:32 GMT-0600 (Central Standard Time),259572.79999995232,CFD-WM-035-036-HC.jpg,1600,dash,O,m,664,10,1,35871.09999990463,223701.70000004768,7033,ATS,C,17
18,test,1,B,mfborder.png,1,z,Wed Nov 06 2024 14:17:32 GMT-0600 (Central Standard Time),262155.2000000477,CFD-WF-001-010-HC.jpg,1900,dash,O,z,633,8,1,38453.5,223701.70000004768,7033,ATS,C,18
19,test,1,B,mfborder.png,1,z,Wed Nov 06 2024 14:17:32 GMT-0600 (Central Standard Time),264620.90000009537,CFD-WF-001-010-HC.jpg,1900,dash,O,z,531,8,1,40919.200000047684,223701.70000004768,7033,ATS,C,19
20,test,1,B,mfborder.png,1,m,Wed Nov 06 2024 14:17:32 GMT-0600 (Central Standard Time),266953.2999999523,CFD-WM-036-018-A.jpg,1700,dash,O,m,585,9,1,43251.59999990463,223701.70000004768,7033,ATS,C,20
21,test,1,B,mfborder.png,1,m,Wed Nov 06 2024 14:17:32 GMT-0600 (Central Standard Time),269303.10000014305,CFD-BM-022-004-HC.jpg,1700,dash,O,m,612,1,1,45601.40000009537,223701.70000004768,7033,ATS,C,21
22,test,1,B,mfborder.png,1,m,Wed Nov 06 2024 14:17:32 GMT-0600 (Central Standard Time),271901.5,CFD-BM-043-014-A.jpg,2000,dash,O,m,563,5,1,48199.799999952316,223701.70000004768,7033,ATS,C,22
23,test,1,B,mfborder.png,1,z,Wed Nov 06 2024 14:17:32 GMT-0600 (Central Standard Time),273784.60000014305,CFD-WF-013-009-HC.jpg,1000,dash,O,z,835,12,1,50082.90000009537,223701.70000004768,7033,ATS,C,23
24,test,1,B,mfborder.png,1,m,Wed Nov 06 2024 14:17:32 GMT-0600 (Central Standard Time),276067.2000000477,CFD-WM-035-036-HC.jpg,1600,dash,O,m,641,10,1,52365.5,223701.70000004768,7033,ATS,C,24
1,prac,1,C,mfborder.png,1,m,Wed Nov 06 2024 14:17:32 GMT-0600 (Central Standard Time),323318.7000000477,CFD-BM-034-035-HC.jpg,2000,solid,O,m,1270,10,1,4098.900000095367,319219.7999999523,7033,ATS,C,1
1,prac,1,C,haborder.png,0,z,Wed Nov 06 2024 14:17:32 GMT-0600 (Central Standard Time),327550.2999999523,CFD-BF-031-020-A.jpg,1900,dash,O,None,1515,10,1,8330.5,319219.7999999523,7033,ATS,C,2
1,prac,1,C,mfborder.png,0,m,Wed Nov 06 2024 14:17:32 GMT-0600 (Central Standard Time),331065.7000000477,CFD-BM-043-014-A.jpg,1200,dash,O,None,1515,10,1,11845.900000095367,319219.7999999523,7033,ATS,C,3
1,prac,1,C,mfborder.png,0,m,Wed Nov 06 2024 14:17:32 GMT-0600 (Central Standard Time),335081.10000014305,CFD-WM-036-018-A.jpg,1700,solid,O,None,1514,10,1,15861.300000190735,319219.7999999523,7033,ATS,C,4
1,prac,1,C,mfborder.png,0,z,Wed Nov 06 2024 14:17:32 GMT-0600 (Central Standard Time),337962.60000014305,CFD-WF-023-013-A.jpg,1500,solid,O,m,557,10,1,18742.800000190735,319219.7999999523,7033,ATS,C,5
2,prac,1,C,mfborder.png,1,z,Wed Nov 06 2024 14:17:32 GMT-0600 (Central Standard Time),341112.5,CFD-WF-013-009-HC.jpg,1600,dash,O,z,751,10,1,21892.700000047684,319219.7999999523,7033,ATS,C,6
3,prac,1,C,haborder.png,1,m,Wed Nov 06 2024 14:17:32 GMT-0600 (Central Standard Time),344328.40000009537,CFD-WM-028-005-HC.jpg,1400,solid,O,m,993,10,1,25108.60000014305,319219.7999999523,7033,ATS,C,7
3,prac,1,C,haborder.png,0,z,Wed Nov 06 2024 14:17:32 GMT-0600 (Central Standard Time),347577.10000014305,CFD-WF-037-016-A.jpg,1600,dash,O,m,833,10,1,28357.300000190735,319219.7999999523,7033,ATS,C,8
4,prac,1,C,haborder.png,1,z,Wed Nov 06 2024 14:17:32 GMT-0600 (Central Standard Time),351059.2000000477,CFD-BF-002-018-A.jpg,1700,solid,O,z,950,10,1,31839.400000095367,319219.7999999523,7033,ATS,C,9
4,prac,1,C,mfborder.png,0,z,Wed Nov 06 2024 14:17:32 GMT-0600 (Central Standard Time),354391.40000009537,CFD-BF-019-004-HC.jpg,1000,dash,O,None,1515,10,1,35171.60000014305,319219.7999999523,7033,ATS,C,10
5,prac,1,C,haborder.png,1,m,Wed Nov 06 2024 14:17:32 GMT-0600 (Central Standard Time),357423.90000009537,CFD-WM-028-005-HC.jpg,1000,dash,O,m,1202,10,1,38204.10000014305,319219.7999999523,7033,ATS,C,11
6,prac,1,C,haborder.png,1,m,Wed Nov 06 2024 14:17:32 GMT-0600 (Central Standard Time),360739.5,CFD-BM-022-004-HC.jpg,1500,solid,O,m,1014,10,1,41519.700000047684,319219.7999999523,7033,ATS,C,12
0,prac,2,C,haborder.png,0,z,Wed Nov 06 2024 14:17:32 GMT-0600 (Central Standard Time),377749.5,CFD-BF-002-018-A.jpg,1700,solid,O,None,1516,10,1,58529.700000047684,319219.7999999523,7033,ATS,C,1
0,prac,2,C,haborder.png,0,m,Wed Nov 06 2024 14:17:32 GMT-0600 (Central Standard Time),381049.2999999523,CFD-WM-028-005-HC.jpg,1000,dash,O,None,1516,10,1,61829.5,319219.7999999523,7033,ATS,C,2
1,prac,2,C,mfborder.png,1,z,Wed Nov 06 2024 14:17:32 GMT-0600 (Central Standard Time),384715.10000014305,CFD-WF-013-009-HC.jpg,1600,dash,O,z,1232,10,1,65495.300000190735,319219.7999999523,7033,ATS,C,3
2,prac,2,C,mfborder.png,1,z,Wed Nov 06 2024 14:17:32 GMT-0600 (Central Standard Time),387797.2999999523,CFD-WF-023-013-A.jpg,1500,solid,O,z,755,10,1,68577.5,319219.7999999523,7033,ATS,C,4
2,prac,2,C,haborder.png,0,z,Wed Nov 06 2024 14:17:32 GMT-0600 (Central Standard Time),391179.40000009537,CFD-WF-037-016-A.jpg,1600,dash,O,m,964,10,1,71959.60000014305,319219.7999999523,7033,ATS,C,5
3,prac,2,C,haborder.png,1,m,Wed Nov 06 2024 14:17:32 GMT-0600 (Central Standard Time),394360.7000000477,CFD-WM-028-005-HC.jpg,1400,solid,O,m,950,10,1,75140.90000009537,319219.7999999523,7033,ATS,C,6
3,prac,2,C,mfborder.png,0,m,Wed Nov 06 2024 14:17:32 GMT-0600 (Central Standard Time),398660.2000000477,CFD-BM-034-035-HC.jpg,2000,solid,O,None,1516,10,1,79440.40000009537,319219.7999999523,7033,ATS,C,7
4,prac,2,C,mfborder.png,1,m,Wed Nov 06 2024 14:17:32 GMT-0600 (Central Standard Time),401409.40000009537,CFD-BM-043-014-A.jpg,1200,dash,O,m,718,10,1,82189.60000014305,319219.7999999523,7033,ATS,C,8
4,prac,2,C,mfborder.png,0,z,Wed Nov 06 2024 14:17:32 GMT-0600 (Central Standard Time),403808.40000009537,CFD-BF-019-004-HC.jpg,1000,dash,O,m,576,10,1,84588.60000014305,319219.7999999523,7033,ATS,C,9
5,prac,2,C,haborder.png,1,m,Wed Nov 06 2024 14:17:32 GMT-0600 (Central Standard Time),407074.10000014305,CFD-BM-022-004-HC.jpg,1500,solid,O,m,958,10,1,87854.30000019073,319219.7999999523,7033,ATS,C,10
5,prac,2,C,haborder.png,0,z,Wed Nov 06 2024 14:17:32 GMT-0600 (Central Standard Time),410673.2000000477,CFD-BF-031-020-A.jpg,1900,dash,O,m,876,10,1,91453.40000009537,319219.7999999523,7033,ATS,C,11
5,prac,2,C,mfborder.png,0,m,Wed Nov 06 2024 14:17:32 GMT-0600 (Central Standard Time),414705.10000014305,CFD-WM-036-018-A.jpg,1700,solid,O,None,1516,10,1,95485.30000019073,319219.7999999523,7033,ATS,C,12
0,test,1,C,haborder.png,0,z,Wed Nov 06 2024 14:17:32 GMT-0600 (Central Standard Time),450626.60000014305,CFD-BM-021-026-A.jpg,1700,solid,O,m,1043,9,1,2782.600000143051,447844.0,7033,ATS,C,1
0,test,1,C,haborder.png,0,z,Wed Nov 06 2024 14:17:32 GMT-0600 (Central Standard Time),453575.60000014305,CFD-WM-036-018-A.jpg,1400,solid,O,None,1514,7,1,5731.600000143051,447844.0,7033,ATS,C,2
0,test,1,C,haborder.png,0,m,Wed Nov 06 2024 14:17:32 GMT-0600 (Central Standard Time),456624.7000000477,CFD-WF-001-010-HC.jpg,1500,solid,O,None,1515,11,1,8780.700000047684,447844.0,7033,ATS,C,3
1,test,1,C,haborder.png,1,z,Wed Nov 06 2024 14:17:32 GMT-0600 (Central Standard Time),459873.40000009537,CFD-BM-043-014-A.jpg,1900,solid,O,z,1311,8,1,12029.400000095367,447844.0,7033,ATS,C,4
2,test,1,C,mfborder.png,1,z,Wed Nov 06 2024 14:17:32 GMT-0600 (Central Standard Time),462805.40000009537,CFD-BF-031-020-A.jpg,1600,dash,O,z,1296,2,1,14961.400000095367,447844.0,7033,ATS,C,5
2,test,1,C,haborder.png,0,m,Wed Nov 06 2024 14:17:32 GMT-0600 (Central Standard Time),465954.7000000477,CFD-BF-019-004-HC.jpg,1600,solid,O,None,1514,10,1,18110.700000047684,447844.0,7033,ATS,C,6
2,test,1,C,mfborder.png,0,m,Wed Nov 06 2024 14:17:32 GMT-0600 (Central Standard Time),468703.90000009537,CFD-BM-022-004-HC.jpg,1200,dash,O,None,1515,6,1,20859.900000095367,447844.0,7033,ATS,C,7
2,test,1,C,haborder.png,0,z,Wed Nov 06 2024 14:17:32 GMT-0600 (Central Standard Time),471653.0,CFD-WM-036-018-A.jpg,1400,solid,O,None,1516,7,1,23809.0,447844.0,7033,ATS,C,8
2,test,1,C,haborder.png,0,m,Wed Nov 06 2024 14:17:32 GMT-0600 (Central Standard Time),474201.10000014305,CFD-WF-001-010-HC.jpg,1500,solid,O,z,1000,11,1,26357.10000014305,447844.0,7033,ATS,C,9
2,test,1,C,haborder.png,0,z,Wed Nov 06 2024 14:17:32 GMT-0600 (Central Standard Time),477434.2000000477,CFD-BM-043-014-A.jpg,1900,solid,O,m,1309,8,1,29590.200000047684,447844.0,7033,ATS,C,10
2,test,1,C,mfborder.png,0,m,Wed Nov 06 2024 14:17:32 GMT-0600 (Central Standard Time),479982.7000000477,CFD-WM-035-036-HC.jpg,1000,dash,O,None,1514,4,1,32138.700000047684,447844.0,7033,ATS,C,11
2,test,1,C,haborder.png,0,m,Wed Nov 06 2024 14:17:32 GMT-0600 (Central Standard Time),483115.7000000477,CFD-BF-019-004-HC.jpg,1600,solid,O,None,1516,10,1,35271.700000047684,447844.0,7033,ATS,C,12
3,test,1,C,mfborder.png,1,z,Wed Nov 06 2024 14:17:32 GMT-0600 (Central Standard Time),485965.2999999523,CFD-WF-037-016-A.jpg,1500,dash,O,z,1317,3,1,38121.299999952316,447844.0,7033,ATS,C,13
4,test,1,C,mfborder.png,1,m,Wed Nov 06 2024 14:17:32 GMT-0600 (Central Standard Time),488863.7999999523,CFD-WM-034-040-A.jpg,2000,dash,O,m,853,5,1,41019.799999952316,447844.0,7033,ATS,C,14
5,test,1,C,mfborder.png,1,z,Wed Nov 06 2024 14:17:32 GMT-0600 (Central Standard Time),491962.7999999523,CFD-BF-042-031-HC.jpg,1700,dash,O,z,1350,1,1,44118.799999952316,447844.0,7033,ATS,C,15
6,test,1,C,mfborder.png,1,m,Wed Nov 06 2024 14:17:32 GMT-0600 (Central Standard Time),493895.7000000477,CFD-WM-035-036-HC.jpg,1000,dash,O,m,887,4,1,46051.700000047684,447844.0,7033,ATS,C,16
7,test,1,C,mfborder.png,1,z,Wed Nov 06 2024 14:17:32 GMT-0600 (Central Standard Time),496577.60000014305,CFD-BF-031-020-A.jpg,1600,dash,O,z,1019,2,1,48733.60000014305,447844.0,7033,ATS,C,17
7,test,1,C,haborder.png,0,m,Wed Nov 06 2024 14:17:32 GMT-0600 (Central Standard Time),499110.90000009537,CFD-WF-013-009-HC.jpg,1000,solid,O,None,1515,12,1,51266.90000009537,447844.0,7033,ATS,C,18
8,test,1,C,mfborder.png,1,z,Wed Nov 06 2024 14:17:32 GMT-0600 (Central Standard Time),501676.7999999523,CFD-BF-042-031-HC.jpg,1700,dash,O,z,832,1,1,53832.799999952316,447844.0,7033,ATS,C,19
8,test,1,C,mfborder.png,0,z,Wed Nov 06 2024 14:17:32 GMT-0600 (Central Standard Time),504725.2999999523,CFD-WF-037-016-A.jpg,1500,dash,O,None,1514,3,1,56881.299999952316,447844.0,7033,ATS,C,20
9,test,1,C,mfborder.png,1,m,Wed Nov 06 2024 14:17:32 GMT-0600 (Central Standard Time),508090.90000009537,CFD-WM-034-040-A.jpg,2000,dash,O,m,1326,5,1,60246.90000009537,447844.0,7033,ATS,C,21
9,test,1,C,haborder.png,0,z,Wed Nov 06 2024 14:17:32 GMT-0600 (Central Standard Time),511340.0,CFD-BM-021-026-A.jpg,1700,solid,O,None,1515,9,1,63496.0,447844.0,7033,ATS,C,22
9,test,1,C,haborder.png,0,m,Wed Nov 06 2024 14:17:32 GMT-0600 (Central Standard Time),513888.90000009537,CFD-WF-013-009-HC.jpg,1000,solid,O,None,1517,12,1,66044.90000009537,447844.0,7033,ATS,C,23
10,test,1,C,mfborder.png,1,m,Wed Nov 06 2024 14:17:32 GMT-0600 (Central Standard Time),516104.7999999523,CFD-BM-022-004-HC.jpg,1200,dash,O,m,977,6,1,68260.79999995232,447844.0,7033,ATS,C,24
1,test,2,C,mfborder.png,1,z,Wed Nov 06 2024 14:17:32 GMT-0600 (Central Standard Time),522136.40000009537,CFD-BF-019-004-HC.jpg,1500,dash,O,z,879,3,1,2400.2000000476837,519736.2000000477,7033,ATS,C,1
1,test,2,C,haborder.png,0,z,Wed Nov 06 2024 14:17:32 GMT-0600 (Central Standard Time),525402.0,CFD-BF-002-018-A.jpg,1900,solid,O,m,1318,8,1,5665.799999952316,519736.2000000477,7033,ATS,C,2
2,test,2,C,mfborder.png,1,z,Wed Nov 06 2024 14:17:32 GMT-0600 (Central Standard Time),527884.7999999523,CFD-WF-023-013-A.jpg,1600,dash,O,z,848,2,1,8148.599999904633,519736.2000000477,7033,ATS,C,3
3,test,2,C,haborder.png,1,z,Wed Nov 06 2024 14:17:32 GMT-0600 (Central Standard Time),530816.600000143,CFD-WF-037-016-A.jpg,1700,solid,O,z,1183,9,1,11080.400000095367,519736.2000000477,7033,ATS,C,4
3,test,2,C,haborder.png,0,z,Wed Nov 06 2024 14:17:32 GMT-0600 (Central Standard Time),534065.7999999523,CFD-WF-037-016-A.jpg,1700,solid,O,None,1516,9,1,14329.599999904633,519736.2000000477,7033,ATS,C,5
4,test,2,C,haborder.png,1,m,Wed Nov 06 2024 14:17:32 GMT-0600 (Central Standard Time),536281.7000000477,CFD-WM-028-005-HC.jpg,1000,solid,O,m,1168,12,1,16545.5,519736.2000000477,7033,ATS,C,6
5,test,2,C,mfborder.png,1,m,Wed Nov 06 2024 14:17:32 GMT-0600 (Central Standard Time),539213.600000143,CFD-BM-043-014-A.jpg,2000,dash,O,m,898,5,1,19477.400000095367,519736.2000000477,7033,ATS,C,7
6,test,2,C,mfborder.png,1,z,Wed Nov 06 2024 14:17:32 GMT-0600 (Central Standard Time),541713.100000143,CFD-WF-023-013-A.jpg,1600,dash,O,z,861,2,1,21976.900000095367,519736.2000000477,7033,ATS,C,8
6,test,2,C,haborder.png,0,z,Wed Nov 06 2024 14:17:32 GMT-0600 (Central Standard Time),544662.2999999523,CFD-BF-031-020-A.jpg,1400,solid,O,None,1515,7,1,24926.099999904633,519736.2000000477,7033,ATS,C,9
6,test,2,C,mfborder.png,0,m,Wed Nov 06 2024 14:17:32 GMT-0600 (Central Standard Time),547411.9000000954,CFD-WM-036-018-A.jpg,1200,dash,O,None,1516,6,1,27675.700000047684,519736.2000000477,7033,ATS,C,10
7,test,2,C,mfborder.png,1,m,Wed Nov 06 2024 14:17:32 GMT-0600 (Central Standard Time),549627.2000000477,CFD-BM-034-035-HC.jpg,1000,dash,O,m,1166,4,1,29891.0,519736.2000000477,7033,ATS,C,11
8,test,2,C,mfborder.png,1,z,Wed Nov 06 2024 14:17:32 GMT-0600 (Central Standard Time),552525.9000000954,CFD-WF-013-009-HC.jpg,1700,dash,O,z,1164,1,1,32789.700000047684,519736.2000000477,7033,ATS,C,12
8,test,2,C,haborder.png,0,z,Wed Nov 06 2024 14:17:32 GMT-0600 (Central Standard Time),555975.4000000954,CFD-BF-002-018-A.jpg,1900,solid,O,None,1514,8,1,36239.200000047684,519736.2000000477,7033,ATS,C,13
9,test,2,C,mfborder.png,1,m,Wed Nov 06 2024 14:17:32 GMT-0600 (Central Standard Time),558108.100000143,CFD-BM-034-035-HC.jpg,1000,dash,O,m,1083,4,1,38371.90000009537,519736.2000000477,7033,ATS,C,14
9,test,2,C,haborder.png,0,m,Wed Nov 06 2024 14:17:32 GMT-0600 (Central Standard Time),560657.0,CFD-WM-028-005-HC.jpg,1000,solid,O,None,1515,12,1,40920.799999952316,519736.2000000477,7033,ATS,C,15
10,test,2,C,haborder.png,1,m,Wed Nov 06 2024 14:17:32 GMT-0600 (Central Standard Time),563173.2999999523,CFD-BM-022-004-HC.jpg,1600,solid,O,m,884,10,1,43437.09999990463,519736.2000000477,7033,ATS,C,16
11,test,2,C,mfborder.png,1,m,Wed Nov 06 2024 14:17:32 GMT-0600 (Central Standard Time),565955.2999999523,CFD-BM-043-014-A.jpg,2000,dash,O,m,734,5,1,46219.09999990463,519736.2000000477,7033,ATS,C,17
12,test,2,C,haborder.png,1,m,Wed Nov 06 2024 14:17:32 GMT-0600 (Central Standard Time),568354.2999999523,CFD-WM-028-005-HC.jpg,1500,solid,O,m,851,11,1,48618.09999990463,519736.2000000477,7033,ATS,C,18
13,test,2,C,mfborder.png,1,z,Wed Nov 06 2024 14:17:32 GMT-0600 (Central Standard Time),570753.7000000477,CFD-WF-013-009-HC.jpg,1700,dash,O,z,652,1,1,51017.5,519736.2000000477,7033,ATS,C,19
14,test,2,C,haborder.png,1,m,Wed Nov 06 2024 14:17:32 GMT-0600 (Central Standard Time),573202.7999999523,CFD-BM-022-004-HC.jpg,1600,solid,O,m,810,10,1,53466.59999990463,519736.2000000477,7033,ATS,C,20
15,test,2,C,haborder.png,1,m,Wed Nov 06 2024 14:17:32 GMT-0600 (Central Standard Time),575518.600000143,CFD-WM-028-005-HC.jpg,1500,solid,O,m,772,11,1,55782.40000009537,519736.2000000477,7033,ATS,C,21
16,test,2,C,haborder.png,1,z,Wed Nov 06 2024 14:17:32 GMT-0600 (Central Standard Time),577734.4000000954,CFD-BF-031-020-A.jpg,1400,solid,O,z,772,7,1,57998.200000047684,519736.2000000477,7033,ATS,C,22
16,test,2,C,mfborder.png,0,m,Wed Nov 06 2024 14:17:32 GMT-0600 (Central Standard Time),580150.600000143,CFD-WM-036-018-A.jpg,1200,dash,O,z,1172,6,1,60414.40000009537,519736.2000000477,7033,ATS,C,23
17,test,2,C,mfborder.png,1,z,Wed Nov 06 2024 14:17:32 GMT-0600 (Central Standard Time),582866.5,CFD-BF-019-004-HC.jpg,1500,dash,O,z,1167,3,1,63130.299999952316,519736.2000000477,7033,ATS,C,24
1,test,3,C,mfborder.png,1,z,Wed Nov 06 2024 14:17:32 GMT-0600 (Central Standard Time),586931.7999999523,CFD-WF-037-016-A.jpg,1500,dash,O,z,1000,3,1,2549.2999999523163,584382.5,7033,ATS,C,1
2,test,3,C,mfborder.png,1,m,Wed Nov 06 2024 14:17:32 GMT-0600 (Central Standard Time),588781.2000000477,CFD-WM-035-036-HC.jpg,1000,dash,O,m,806,4,1,4398.700000047684,584382.5,7033,ATS,C,2
2,test,3,C,haborder.png,0,z,Wed Nov 06 2024 14:17:32 GMT-0600 (Central Standard Time),591496.7000000477,CFD-BM-043-014-A.jpg,1900,solid,O,m,777,8,1,7114.200000047684,584382.5,7033,ATS,C,3
3,test,3,C,mfborder.png,1,z,Wed Nov 06 2024 14:17:32 GMT-0600 (Central Standard Time),594229.0,CFD-BF-031-020-A.jpg,1600,dash,O,z,1098,2,1,9846.5,584382.5,7033,ATS,C,4
4,test,3,C,mfborder.png,1,z,Wed Nov 06 2024 14:17:32 GMT-0600 (Central Standard Time),596678.100000143,CFD-BF-031-020-A.jpg,1600,dash,O,z,813,2,1,12295.600000143051,584382.5,7033,ATS,C,5
5,test,3,C,mfborder.png,1,z,Wed Nov 06 2024 14:17:32 GMT-0600 (Central Standard Time),598911.0,CFD-WF-037-016-A.jpg,1500,dash,O,z,688,3,1,14528.5,584382.5,7033,ATS,C,6
5,test,3,C,mfborder.png,0,m,Wed Nov 06 2024 14:17:32 GMT-0600 (Central Standard Time),602309.9000000954,CFD-WM-034-040-A.jpg,2000,dash,O,z,1356,5,1,17927.400000095367,584382.5,7033,ATS,C,7
6,test,3,C,mfborder.png,1,z,Wed Nov 06 2024 14:17:32 GMT-0600 (Central Standard Time),605258.100000143,CFD-BF-042-031-HC.jpg,1700,dash,O,z,1201,1,1,20875.60000014305,584382.5,7033,ATS,C,8
7,test,3,C,mfborder.png,1,m,Wed Nov 06 2024 14:17:32 GMT-0600 (Central Standard Time),607507.100000143,CFD-WM-035-036-HC.jpg,1000,dash,O,m,1224,4,1,23124.60000014305,584382.5,7033,ATS,C,9
8,test,3,C,mfborder.png,1,m,Wed Nov 06 2024 14:17:32 GMT-0600 (Central Standard Time),609456.7000000477,CFD-BM-022-004-HC.jpg,1200,dash,O,m,725,6,1,25074.200000047684,584382.5,7033,ATS,C,10
8,test,3,C,haborder.png,0,m,Wed Nov 06 2024 14:17:32 GMT-0600 (Central Standard Time),612589.0,CFD-BF-019-004-HC.jpg,1600,solid,O,None,1516,10,1,28206.5,584382.5,7033,ATS,C,11
9,test,3,C,haborder.png,1,m,Wed Nov 06 2024 14:17:32 GMT-0600 (Central Standard Time),614889.100000143,CFD-WF-001-010-HC.jpg,1500,solid,O,m,770,11,1,30506.60000014305,584382.5,7033,ATS,C,12
10,test,3,C,haborder.png,1,z,Wed Nov 06 2024 14:17:32 GMT-0600 (Central Standard Time),617487.4000000954,CFD-BM-021-026-A.jpg,1700,solid,O,z,862,9,1,33104.90000009537,584382.5,7033,ATS,C,13
11,test,3,C,haborder.png,1,z,Wed Nov 06 2024 14:17:32 GMT-0600 (Central Standard Time),620719.7000000477,CFD-BM-043-014-A.jpg,1900,solid,O,z,1311,8,1,36337.200000047684,584382.5,7033,ATS,C,14
12,test,3,C,haborder.png,1,m,Wed Nov 06 2024 14:17:32 GMT-0600 (Central Standard Time),622919.4000000954,CFD-WF-001-010-HC.jpg,1500,solid,O,m,680,11,1,38536.90000009537,584382.5,7033,ATS,C,15
13,test,3,C,mfborder.png,1,m,Wed Nov 06 2024 14:17:32 GMT-0600 (Central Standard Time),625668.9000000954,CFD-WM-034-040-A.jpg,2000,dash,O,m,716,5,1,41286.40000009537,584382.5,7033,ATS,C,16
14,test,3,C,haborder.png,1,z,Wed Nov 06 2024 14:17:32 GMT-0600 (Central Standard Time),628384.5,CFD-BM-021-026-A.jpg,1700,solid,O,z,971,9,1,44002.0,584382.5,7033,ATS,C,17
15,test,3,C,haborder.png,1,m,Wed Nov 06 2024 14:17:32 GMT-0600 (Central Standard Time),630449.7000000477,CFD-WF-013-009-HC.jpg,1000,solid,O,m,1018,12,1,46067.200000047684,584382.5,7033,ATS,C,18
16,test,3,C,haborder.png,1,z,Wed Nov 06 2024 14:17:32 GMT-0600 (Central Standard Time),632865.600000143,CFD-WM-036-018-A.jpg,1400,solid,O,z,985,7,1,48483.10000014305,584382.5,7033,ATS,C,19
17,test,3,C,mfborder.png,1,m,Wed Nov 06 2024 14:17:32 GMT-0600 (Central Standard Time),635314.7000000477,CFD-BM-022-004-HC.jpg,1200,dash,O,m,1225,6,1,50932.200000047684,584382.5,7033,ATS,C,20
18,test,3,C,mfborder.png,1,z,Wed Nov 06 2024 14:17:32 GMT-0600 (Central Standard Time),637514.100000143,CFD-BF-042-031-HC.jpg,1700,dash,O,z,468,1,1,53131.60000014305,584382.5,7033,ATS,C,21
18,test,3,C,haborder.png,0,z,Wed Nov 06 2024 14:17:32 GMT-0600 (Central Standard Time),639979.9000000954,CFD-WM-036-018-A.jpg,1400,solid,O,m,1039,7,1,55597.40000009537,584382.5,7033,ATS,C,22
18,test,3,C,haborder.png,0,m,Wed Nov 06 2024 14:17:32 GMT-0600 (Central Standard Time),642512.600000143,CFD-WF-013-009-HC.jpg,1000,solid,O,None,1515,12,1,58130.10000014305,584382.5,7033,ATS,C,23
19,test,3,C,haborder.png,1,m,Wed Nov 06 2024 14:17:32 GMT-0600 (Central Standard Time),645194.9000000954,CFD-BF-019-004-HC.jpg,1600,solid,O,m,1050,10,1,60812.40000009537,584382.5,7033,ATS,C,24
1,test,4,C,haborder.png,1,m,Wed Nov 06 2024 14:17:32 GMT-0600 (Central Standard Time),649193.600000143,CFD-BM-022-004-HC.jpg,1600,solid,O,m,976,10,1,2599.2000000476837,646594.4000000954,7033,ATS,C,1
2,test,4,C,haborder.png,1,z,Wed Nov 06 2024 14:17:32 GMT-0600 (Central Standard Time),651709.4000000954,CFD-BF-031-020-A.jpg,1400,solid,O,z,1095,7,1,5115.0,646594.4000000954,7033,ATS,C,2
3,test,4,C,haborder.png,1,m,Wed Nov 06 2024 14:17:32 GMT-0600 (Central Standard Time),653842.100000143,CFD-WM-028-005-HC.jpg,1000,solid,O,m,1109,12,1,7247.700000047684,646594.4000000954,7033,ATS,C,3
4,test,4,C,mfborder.png,1,z,Wed Nov 06 2024 14:17:32 GMT-0600 (Central Standard Time),656174.5,CFD-WF-023-013-A.jpg,1600,dash,O,z,704,2,1,9580.099999904633,646594.4000000954,7033,ATS,C,4
5,test,4,C,mfborder.png,1,z,Wed Nov 06 2024 14:17:32 GMT-0600 (Central Standard Time),658525.0,CFD-WF-013-009-HC.jpg,1700,dash,O,z,632,1,1,11930.599999904633,646594.4000000954,7033,ATS,C,5
6,test,4,C,haborder.png,1,m,Wed Nov 06 2024 14:17:32 GMT-0600 (Central Standard Time),660940.4000000954,CFD-WM-028-005-HC.jpg,1500,solid,O,m,875,11,1,14346.0,646594.4000000954,7033,ATS,C,6
7,test,4,C,haborder.png,1,z,Wed Nov 06 2024 14:17:32 GMT-0600 (Central Standard Time),663922.0,CFD-WF-037-016-A.jpg,1700,solid,O,z,1242,9,1,17327.599999904633,646594.4000000954,7033,ATS,C,7
8,test,4,C,haborder.png,1,m,Wed Nov 06 2024 14:17:32 GMT-0600 (Central Standard Time),666255.2999999523,CFD-WM-028-005-HC.jpg,1500,solid,O,m,813,11,1,19660.89999985695,646594.4000000954,7033,ATS,C,8
9,test,4,C,haborder.png,1,z,Wed Nov 06 2024 14:17:32 GMT-0600 (Central Standard Time),669187.7999999523,CFD-BF-002-018-A.jpg,1900,solid,O,z,1009,8,1,22593.39999985695,646594.4000000954,7033,ATS,C,9
10,test,4,C,haborder.png,1,z,Wed Nov 06 2024 14:17:32 GMT-0600 (Central Standard Time),671469.600000143,CFD-BF-031-020-A.jpg,1400,solid,O,z,847,7,1,24875.200000047684,646594.4000000954,7033,ATS,C,10
10,test,4,C,mfborder.png,0,m,Wed Nov 06 2024 14:17:32 GMT-0600 (Central Standard Time),674202.0,CFD-WM-036-018-A.jpg,1200,dash,O,None,1516,6,1,27607.599999904633,646594.4000000954,7033,ATS,C,11
10,test,4,C,haborder.png,0,z,Wed Nov 06 2024 14:17:32 GMT-0600 (Central Standard Time),677419.100000143,CFD-WF-037-016-A.jpg,1700,solid,O,None,1501,9,1,30824.700000047684,646594.4000000954,7033,ATS,C,12
11,test,4,C,mfborder.png,1,m,Wed Nov 06 2024 14:17:32 GMT-0600 (Central Standard Time),680134.100000143,CFD-BM-043-014-A.jpg,2000,dash,O,m,681,5,1,33539.700000047684,646594.4000000954,7033,ATS,C,13
12,test,4,C,mfborder.png,1,z,Wed Nov 06 2024 14:17:32 GMT-0600 (Central Standard Time),682315.9000000954,CFD-BF-019-004-HC.jpg,1500,dash,O,z,648,3,1,35721.5,646594.4000000954,7033,ATS,C,14
13,test,4,C,mfborder.png,1,z,Wed Nov 06 2024 14:17:32 GMT-0600 (Central Standard Time),684748.5,CFD-WF-013-009-HC.jpg,1700,dash,O,z,715,1,1,38154.09999990463,646594.4000000954,7033,ATS,C,15
14,test,4,C,mfborder.png,1,z,Wed Nov 06 2024 14:17:32 GMT-0600 (Central Standard Time),686897.7999999523,CFD-BF-019-004-HC.jpg,1500,dash,O,z,626,3,1,40303.39999985695,646594.4000000954,7033,ATS,C,16
15,test,4,C,mfborder.png,1,m,Wed Nov 06 2024 14:17:32 GMT-0600 (Central Standard Time),689097.0,CFD-BM-034-035-HC.jpg,1000,dash,O,m,1176,4,1,42502.59999990463,646594.4000000954,7033,ATS,C,17
16,test,4,C,mfborder.png,1,m,Wed Nov 06 2024 14:17:32 GMT-0600 (Central Standard Time),690930.7999999523,CFD-WM-036-018-A.jpg,1200,dash,O,m,602,6,1,44336.39999985695,646594.4000000954,7033,ATS,C,18
17,test,4,C,mfborder.png,1,m,Wed Nov 06 2024 14:17:32 GMT-0600 (Central Standard Time),692712.7000000477,CFD-BM-034-035-HC.jpg,1000,dash,O,m,744,4,1,46118.299999952316,646594.4000000954,7033,ATS,C,19
18,test,4,C,mfborder.png,1,z,Wed Nov 06 2024 14:17:32 GMT-0600 (Central Standard Time),695412.600000143,CFD-WF-023-013-A.jpg,1600,dash,O,z,1065,2,1,48818.200000047684,646594.4000000954,7033,ATS,C,20
19,test,4,C,mfborder.png,1,m,Wed Nov 06 2024 14:17:32 GMT-0600 (Central Standard Time),698278.4000000954,CFD-BM-043-014-A.jpg,2000,dash,O,m,821,5,1,51684.0,646594.4000000954,7033,ATS,C,21
20,test,4,C,haborder.png,1,z,Wed Nov 06 2024 14:17:32 GMT-0600 (Central Standard Time),701327.2000000477,CFD-BF-002-018-A.jpg,1900,solid,O,z,1113,8,1,54732.799999952316,646594.4000000954,7033,ATS,C,22
21,test,4,C,haborder.png,1,m,Wed Nov 06 2024 14:17:32 GMT-0600 (Central Standard Time),703393.2999999523,CFD-WM-028-005-HC.jpg,1000,solid,O,m,1018,12,1,56798.89999985695,646594.4000000954,7033,ATS,C,23
22,test,4,C,haborder.png,1,m,Wed Nov 06 2024 14:17:32 GMT-0600 (Central Standard Time),705792.4000000954,CFD-BM-022-004-HC.jpg,1600,solid,O,m,760,10,1,59198.0,646594.4000000954,7033,ATS,C,24
