acc_sum,block,block_c,change,condition,correct,correct_response,datetime,endtime,face,project,response,response_time,row_sel,session_number,start_end,starttime,subject_id,task,task_vers,trial
0,prac,1,,1-Back,,,Mon Mar 10 2025 15:15:47 GMT-0500 (Central Daylight Time),,012_o_f_d_a.png,O,space,13229,1,1,,,7076,VNB,C,0
1,prac,1,0.0,1-Back,1,m,Mon Mar 10 2025 15:15:47 GMT-0500 (Central Daylight Time),270911.2999999523,022_y_f_n_a.png,O,m,1087,2,1,1978.0999999642372,268933.1999999881,7076,VNB,C,1
2,prac,1,0.0,1-Back,1,m,Mon Mar 10 2025 15:15:47 GMT-0500 (Central Daylight Time),272926.59999996424,014_m_m_h_a.png,O,m,1145,3,1,2006.5,270920.09999996424,7076,VNB,C,2
3,prac,1,0.0,1-Back,1,m,Mon Mar 10 2025 15:15:47 GMT-0500 (Central Daylight Time),274844.39999997616,025_y_m_d_a.png,O,m,1069,4,1,1907.8999999761581,272936.5,7076,VNB,C,3
4,prac,1,0.0,1-Back,1,m,Mon Mar 10 2025 15:15:47 GMT-0500 (Central Daylight Time),276877.2999999523,012_o_f_n_a.png,O,m,1166,5,1,2023.0999999642372,274854.1999999881,7076,VNB,C,4
5,prac,1,1.0,1-Back,1,z,Mon Mar 10 2025 15:15:47 GMT-0500 (Central Daylight Time),278810.6999999881,025_y_m_n_a.png,O,z,1080,6,1,1924.6000000238419,276886.09999996424,7076,VNB,C,5
6,prac,1,0.0,1-Back,1,m,Mon Mar 10 2025 15:15:47 GMT-0500 (Central Daylight Time),280776.2999999523,015_o_m_h_a.png,O,m,1052,7,1,1960.5,278815.7999999523,7076,VNB,C,6
7,prac,1,0.0,1-Back,1,m,Mon Mar 10 2025 15:15:47 GMT-0500 (Central Daylight Time),282740.7999999523,019_m_f_d_a.png,O,m,1076,8,1,1955.0,280785.7999999523,7076,VNB,C,7
8,prac,1,1.0,1-Back,1,z,Mon Mar 10 2025 15:15:47 GMT-0500 (Central Daylight Time),284640.6999999881,022_y_f_d_a.png,O,z,1006,9,1,1890.199999988079,282750.5,7076,VNB,C,8
9,prac,1,0.0,1-Back,1,m,Mon Mar 10 2025 15:15:47 GMT-0500 (Central Daylight Time),286556.0,014_m_m_n_a.png,O,m,1053,10,1,1907.1000000238419,284648.89999997616,7076,VNB,C,9
10,prac,1,0.0,1-Back,1,m,Mon Mar 10 2025 15:15:47 GMT-0500 (Central Daylight Time),288473.59999996424,012_o_f_h_a.png,O,m,1039,11,1,1908.5999999642372,286565.0,7076,VNB,C,10
11,prac,1,0.0,1-Back,1,m,Mon Mar 10 2025 15:15:47 GMT-0500 (Central Daylight Time),290621.7999999523,025_y_m_d_a.png,O,m,1271,12,1,2139.599999964237,288482.1999999881,7076,VNB,C,11
0,test,1,0.0,1-Back,,,Mon Mar 10 2025 15:15:47 GMT-0500 (Central Daylight Time),290621.7999999523,022_y_f_d_a.png,O,space,10475,1,1,2139.599999964237,288482.1999999881,7076,VNB,C,0
1,test,1,0.0,1-Back,1,m,Mon Mar 10 2025 15:15:47 GMT-0500 (Central Daylight Time),315165.6999999881,019_m_f_n_a.png,O,m,1053,2,1,2060.5,313105.1999999881,7076,VNB,C,1
2,test,1,0.0,1-Back,1,m,Mon Mar 10 2025 15:15:47 GMT-0500 (Central Daylight Time),317045.7999999523,015_o_m_h_a.png,O,m,862,3,1,1873.8999999761581,315171.89999997616,7076,VNB,C,2
3,test,1,1.0,1-Back,1,z,Mon Mar 10 2025 15:15:47 GMT-0500 (Central Daylight Time),319147.0,014_m_m_h_a.png,O,z,1066,4,1,2094.2000000476837,317052.7999999523,7076,VNB,C,3
4,test,1,0.0,1-Back,1,m,Mon Mar 10 2025 15:15:47 GMT-0500 (Central Daylight Time),321327.6999999881,012_o_f_n_a.png,O,m,1159,5,1,2173.300000011921,319154.39999997616,7076,VNB,C,4
5,test,1,0.0,1-Back,1,m,Mon Mar 10 2025 15:15:47 GMT-0500 (Central Daylight Time),323394.59999996424,025_y_m_d_a.png,O,m,1048,6,1,2060.199999988079,321334.39999997616,7076,VNB,C,5
6,test,1,1.0,1-Back,1,z,Mon Mar 10 2025 15:15:47 GMT-0500 (Central Daylight Time),325578.5,019_m_f_d_a.png,O,z,1166,7,1,2177.0,323401.5,7076,VNB,C,6
7,test,1,0.0,1-Back,1,m,Mon Mar 10 2025 15:15:47 GMT-0500 (Central Daylight Time),327460.09999996424,022_y_f_h_a.png,O,m,857,8,1,1873.5999999642372,325586.5,7076,VNB,C,7
8,test,1,0.0,1-Back,1,m,Mon Mar 10 2025 15:15:47 GMT-0500 (Central Daylight Time),329575.1999999881,015_o_m_n_a.png,O,m,1084,9,1,2106.5,327468.6999999881,7076,VNB,C,8
9,test,1,0.0,1-Back,1,m,Mon Mar 10 2025 15:15:47 GMT-0500 (Central Daylight Time),331641.7999999523,025_y_m_h_a.png,O,m,1041,10,1,2060.199999988079,329581.59999996424,7076,VNB,C,9
10,test,1,0.0,1-Back,1,m,Mon Mar 10 2025 15:15:47 GMT-0500 (Central Daylight Time),333691.09999996424,015_o_m_d_a.png,O,m,1022,11,1,2042.300000011921,331648.7999999523,7076,VNB,C,10
11,test,1,1.0,1-Back,1,z,Mon Mar 10 2025 15:15:47 GMT-0500 (Central Daylight Time),335591.6999999881,012_o_f_d_a.png,O,z,878,12,1,1892.5,333699.1999999881,7076,VNB,C,11
12,test,1,0.0,1-Back,1,m,Mon Mar 10 2025 15:15:47 GMT-0500 (Central Daylight Time),337475.09999996424,014_m_m_n_a.png,O,m,867,13,1,1875.8999999761581,335599.1999999881,7076,VNB,C,12
13,test,1,1.0,1-Back,1,z,Mon Mar 10 2025 15:15:47 GMT-0500 (Central Daylight Time),339838.89999997616,022_y_f_n_a.png,O,z,1333,14,1,2356.300000011921,337482.59999996424,7076,VNB,C,13
14,test,1,0.0,1-Back,1,m,Mon Mar 10 2025 15:15:47 GMT-0500 (Central Daylight Time),341923.39999997616,019_m_f_h_a.png,O,m,1049,15,1,2076.300000011921,339847.09999996424,7076,VNB,C,14
15,test,1,0.0,1-Back,1,m,Mon Mar 10 2025 15:15:47 GMT-0500 (Central Daylight Time),344187.5,014_m_m_d_a.png,O,m,1239,16,1,2256.400000035763,341931.09999996424,7076,VNB,C,15
16,test,1,0.0,1-Back,1,m,Mon Mar 10 2025 15:15:47 GMT-0500 (Central Daylight Time),346237.39999997616,025_y_m_n_a.png,O,m,1020,17,1,2043.0,344194.39999997616,7076,VNB,C,16
17,test,1,0.0,1-Back,1,m,Mon Mar 10 2025 15:15:47 GMT-0500 (Central Daylight Time),348170.7999999523,012_o_f_h_a.png,O,m,907,18,1,1925.5999999642372,346245.1999999881,7076,VNB,C,17
0,test,2,0.0,1-Back,,,Mon Mar 10 2025 15:15:47 GMT-0500 (Central Daylight Time),348170.7999999523,025_y_m_n_a.png,O,space,2437,1,1,1925.5999999642372,346245.1999999881,7076,VNB,C,0
1,test,2,0.0,1-Back,1,m,Mon Mar 10 2025 15:15:47 GMT-0500 (Central Daylight Time),354716.89999997616,022_y_f_h_a.png,O,m,1062,2,1,2072.100000023842,352644.7999999523,7076,VNB,C,1
2,test,2,1.0,1-Back,1,m,Mon Mar 10 2025 15:15:47 GMT-0500 (Central Daylight Time),356766.6999999881,015_o_m_n_a.png,O,m,1018,3,1,2042.699999988079,354724.0,7076,VNB,C,2
3,test,2,0.0,1-Back,1,m,Mon Mar 10 2025 15:15:47 GMT-0500 (Central Daylight Time),358748.7999999523,019_m_f_d_a.png,O,m,952,4,1,1973.0,356775.7999999523,7076,VNB,C,3
4,test,2,0.0,1-Back,1,z,Mon Mar 10 2025 15:15:47 GMT-0500 (Central Daylight Time),360683.59999996424,014_m_m_d_a.png,O,z,907,5,1,1926.8999999761581,358756.6999999881,7076,VNB,C,4
5,test,2,0.0,1-Back,1,m,Mon Mar 10 2025 15:15:47 GMT-0500 (Central Daylight Time),362531.6999999881,025_y_m_h_a.png,O,m,831,6,1,1838.800000011921,360692.89999997616,7076,VNB,C,5
6,test,2,1.0,1-Back,1,z,Mon Mar 10 2025 15:15:47 GMT-0500 (Central Daylight Time),364364.0,012_o_f_h_a.png,O,z,811,7,1,1826.1000000238419,362537.89999997616,7076,VNB,C,6
7,test,2,0.0,1-Back,1,m,Mon Mar 10 2025 15:15:47 GMT-0500 (Central Daylight Time),366864.89999997616,019_m_f_n_a.png,O,m,1475,8,1,2494.0,364370.89999997616,7076,VNB,C,7
8,test,2,0.0,1-Back,1,m,Mon Mar 10 2025 15:15:47 GMT-0500 (Central Daylight Time),369013.7999999523,022_y_f_d_a.png,O,m,1128,9,1,2138.2999999523163,366875.5,7076,VNB,C,8
9,test,2,0.0,1-Back,1,m,Mon Mar 10 2025 15:15:47 GMT-0500 (Central Daylight Time),370796.6999999881,014_m_m_n_a.png,O,m,764,10,1,1775.1000000238419,369021.59999996424,7076,VNB,C,9
10,test,2,1.0,1-Back,1,m,Mon Mar 10 2025 15:15:47 GMT-0500 (Central Daylight Time),372512.2999999523,019_m_f_h_a.png,O,m,684,11,1,1707.0,370805.2999999523,7076,VNB,C,10
11,test,2,0.0,1-Back,1,z,Mon Mar 10 2025 15:15:47 GMT-0500 (Central Daylight Time),374377.39999997616,015_o_m_h_a.png,O,z,847,12,1,1856.6000000238419,372520.7999999523,7076,VNB,C,11
12,test,2,0.0,1-Back,1,m,Mon Mar 10 2025 15:15:47 GMT-0500 (Central Daylight Time),376211.2999999523,025_y_m_d_a.png,O,m,806,13,1,1831.199999988079,374380.09999996424,7076,VNB,C,12
13,test,2,0.0,1-Back,1,m,Mon Mar 10 2025 15:15:47 GMT-0500 (Central Daylight Time),378010.2999999523,012_o_f_n_a.png,O,m,773,14,1,1791.5,376218.7999999523,7076,VNB,C,13
14,test,2,0.0,1-Back,1,z,Mon Mar 10 2025 15:15:47 GMT-0500 (Central Daylight Time),380077.39999997616,022_y_f_n_a.png,O,z,1048,15,1,2059.199999988079,378018.1999999881,7076,VNB,C,14
15,test,2,1.0,1-Back,1,m,Mon Mar 10 2025 15:15:47 GMT-0500 (Central Daylight Time),381943.1999999881,014_m_m_h_a.png,O,m,844,16,1,1857.5,380085.6999999881,7076,VNB,C,15
16,test,2,0.0,1-Back,1,m,Mon Mar 10 2025 15:15:47 GMT-0500 (Central Daylight Time),384525.39999997616,012_o_f_d_a.png,O,m,1556,17,1,2575.199999988079,381950.1999999881,7076,VNB,C,16
17,test,2,1.0,1-Back,1,z,Mon Mar 10 2025 15:15:47 GMT-0500 (Central Daylight Time),386508.1999999881,015_o_m_d_a.png,O,z,955,18,1,1974.9000000357628,384533.2999999523,7076,VNB,C,17
0,test,3,1.0,1-Back,,,Mon Mar 10 2025 15:15:47 GMT-0500 (Central Daylight Time),386508.1999999881,012_o_f_h_a.png,O,space,1718,1,1,1974.9000000357628,384533.2999999523,7076,VNB,C,0
1,test,3,0.0,1-Back,1,m,Mon Mar 10 2025 15:15:47 GMT-0500 (Central Daylight Time),392455.0,019_m_f_d_a.png,O,m,1067,2,1,2088.7000000476837,390366.2999999523,7076,VNB,C,1
2,test,3,1.0,1-Back,1,m,Mon Mar 10 2025 15:15:47 GMT-0500 (Central Daylight Time),394255.2999999523,014_m_m_n_a.png,O,m,769,3,1,1793.8999999761581,392461.39999997616,7076,VNB,C,2
3,test,3,0.0,1-Back,1,z,Mon Mar 10 2025 15:15:47 GMT-0500 (Central Daylight Time),396220.89999997616,012_o_f_n_a.png,O,z,932,4,1,1957.699999988079,394263.1999999881,7076,VNB,C,3
4,test,3,1.0,1-Back,1,m,Mon Mar 10 2025 15:15:47 GMT-0500 (Central Daylight Time),398086.6999999881,015_o_m_d_a.png,O,m,842,5,1,1857.9000000357628,396228.7999999523,7076,VNB,C,4
5,test,3,0.0,1-Back,1,m,Mon Mar 10 2025 15:15:47 GMT-0500 (Central Daylight Time),400153.59999996424,022_y_f_h_a.png,O,m,1033,6,1,2058.800000011921,398094.7999999523,7076,VNB,C,5
6,test,3,0.0,1-Back,1,z,Mon Mar 10 2025 15:15:47 GMT-0500 (Central Daylight Time),401936.2999999523,025_y_m_h_a.png,O,z,758,7,1,1776.8999999761581,400159.39999997616,7076,VNB,C,6
7,test,3,0.0,1-Back,1,m,Mon Mar 10 2025 15:15:47 GMT-0500 (Central Daylight Time),403653.0,019_m_f_n_a.png,O,m,687,8,1,1709.0,401944.0,7076,VNB,C,7
8,test,3,0.0,1-Back,1,m,Mon Mar 10 2025 15:15:47 GMT-0500 (Central Daylight Time),405402.6999999881,022_y_f_d_a.png,O,m,732,9,1,1742.800000011921,403659.89999997616,7076,VNB,C,8
9,test,3,1.0,1-Back,1,m,Mon Mar 10 2025 15:15:47 GMT-0500 (Central Daylight Time),407135.89999997616,015_o_m_n_a.png,O,m,702,10,1,1726.0,405409.89999997616,7076,VNB,C,9
10,test,3,0.0,1-Back,1,m,Mon Mar 10 2025 15:15:47 GMT-0500 (Central Daylight Time),408951.59999996424,014_m_m_h_a.png,O,m,786,11,1,1809.0999999642372,407142.5,7076,VNB,C,10
11,test,3,0.0,1-Back,1,z,Mon Mar 10 2025 15:15:47 GMT-0500 (Central Daylight Time),410634.6999999881,019_m_f_h_a.png,O,z,665,12,1,1674.800000011921,408959.89999997616,7076,VNB,C,11
12,test,3,1.0,1-Back,1,m,Mon Mar 10 2025 15:15:47 GMT-0500 (Central Daylight Time),412251.1999999881,012_o_f_d_a.png,O,m,600,13,1,1609.6000000238419,410641.59999996424,7076,VNB,C,12
13,test,3,0.0,1-Back,1,z,Mon Mar 10 2025 15:15:47 GMT-0500 (Central Daylight Time),414082.7999999523,014_m_m_d_a.png,O,z,815,14,1,1825.7999999523163,412257.0,7076,VNB,C,13
14,test,3,0.0,1-Back,1,m,Mon Mar 10 2025 15:15:47 GMT-0500 (Central Daylight Time),415797.5,025_y_m_n_a.png,O,m,687,15,1,1709.4000000357628,414088.09999996424,7076,VNB,C,14
15,test,3,1.0,1-Back,1,m,Mon Mar 10 2025 15:15:47 GMT-0500 (Central Daylight Time),417683.59999996424,015_o_m_h_a.png,O,m,857,16,1,1880.0,415803.59999996424,7076,VNB,C,15
16,test,3,0.0,1-Back,1,m,Mon Mar 10 2025 15:15:47 GMT-0500 (Central Daylight Time),419547.1999999881,025_y_m_d_a.png,O,m,838,17,1,1856.0,417691.1999999881,7076,VNB,C,16
17,test,3,1.0,1-Back,1,m,Mon Mar 10 2025 15:15:47 GMT-0500 (Central Daylight Time),421846.6999999881,022_y_f_n_a.png,O,m,1279,18,1,2291.800000011921,419554.89999997616,7076,VNB,C,17
0,test,4,1.0,1-Back,,,Mon Mar 10 2025 15:15:47 GMT-0500 (Central Daylight Time),421846.6999999881,014_m_m_d_a.png,O,space,1444,1,1,2291.800000011921,419554.89999997616,7076,VNB,C,0
1,test,4,0.0,1-Back,1,z,Mon Mar 10 2025 15:15:47 GMT-0500 (Central Daylight Time),427762.39999997616,015_o_m_d_a.png,O,z,1349,2,1,2360.0,425402.39999997616,7076,VNB,C,1
2,test,4,0.0,1-Back,1,m,Mon Mar 10 2025 15:15:47 GMT-0500 (Central Daylight Time),429610.0,025_y_m_h_a.png,O,m,823,3,1,1843.2000000476837,427766.7999999523,7076,VNB,C,2
3,test,4,0.0,1-Back,1,m,Mon Mar 10 2025 15:15:47 GMT-0500 (Central Daylight Time),431444.5,019_m_f_n_a.png,O,m,806,4,1,1826.7000000476837,429617.7999999523,7076,VNB,C,3
4,test,4,1.0,1-Back,1,m,Mon Mar 10 2025 15:15:47 GMT-0500 (Central Daylight Time),433344.09999996424,012_o_f_h_a.png,O,m,877,5,1,1891.3999999761581,431452.6999999881,7076,VNB,C,4
5,test,4,0.0,1-Back,1,m,Mon Mar 10 2025 15:15:47 GMT-0500 (Central Daylight Time),435408.5,014_m_m_n_a.png,O,m,1041,6,1,2056.7000000476837,433351.7999999523,7076,VNB,C,5
6,test,4,0.0,1-Back,1,m,Mon Mar 10 2025 15:15:47 GMT-0500 (Central Daylight Time),437540.59999996424,025_y_m_d_a.png,O,m,1111,7,1,2124.0,435416.59999996424,7076,VNB,C,6
7,test,4,1.0,1-Back,1,z,Mon Mar 10 2025 15:15:47 GMT-0500 (Central Daylight Time),439292.1999999881,022_y_f_d_a.png,O,z,733,8,1,1744.199999988079,437548.0,7076,VNB,C,7
8,test,4,0.0,1-Back,1,m,Mon Mar 10 2025 15:15:47 GMT-0500 (Central Daylight Time),441139.5,019_m_f_h_a.png,O,m,821,9,1,1842.0,439297.5,7076,VNB,C,8
9,test,4,0.0,1-Back,1,z,Mon Mar 10 2025 15:15:47 GMT-0500 (Central Daylight Time),442838.5,015_o_m_h_a.png,O,z,677,10,1,1691.0,441147.5,7076,VNB,C,9
10,test,4,1.0,1-Back,1,m,Mon Mar 10 2025 15:15:47 GMT-0500 (Central Daylight Time),444589.5,012_o_f_n_a.png,O,m,729,11,1,1742.4000000357628,442847.09999996424,7076,VNB,C,10
11,test,4,0.0,1-Back,1,m,Mon Mar 10 2025 15:15:47 GMT-0500 (Central Daylight Time),446805.2999999523,019_m_f_d_a.png,O,m,1196,12,1,2208.099999964237,444597.1999999881,7076,VNB,C,11
12,test,4,0.0,1-Back,1,m,Mon Mar 10 2025 15:15:47 GMT-0500 (Central Daylight Time),448655.0,022_y_f_n_a.png,O,m,828,13,1,1840.9000000357628,446814.09999996424,7076,VNB,C,12
13,test,4,0.0,1-Back,1,m,Mon Mar 10 2025 15:15:47 GMT-0500 (Central Daylight Time),450604.0,012_o_f_d_a.png,O,m,921,14,1,1941.1000000238419,448662.89999997616,7076,VNB,C,13
14,test,4,0.0,1-Back,1,m,Mon Mar 10 2025 15:15:47 GMT-0500 (Central Daylight Time),452452.7999999523,022_y_f_h_a.png,O,m,831,15,1,1841.199999988079,450611.59999996424,7076,VNB,C,14
15,test,4,1.0,1-Back,1,z,Mon Mar 10 2025 15:15:47 GMT-0500 (Central Daylight Time),454269.89999997616,014_m_m_h_a.png,O,z,783,16,1,1813.699999988079,452456.1999999881,7076,VNB,C,15
16,test,4,0.0,1-Back,1,m,Mon Mar 10 2025 15:15:47 GMT-0500 (Central Daylight Time),456235.59999996424,015_o_m_n_a.png,O,m,938,17,1,1958.5999999642372,454277.0,7076,VNB,C,16
17,test,4,1.0,1-Back,1,z,Mon Mar 10 2025 15:15:47 GMT-0500 (Central Daylight Time),458201.1999999881,025_y_m_n_a.png,O,z,941,18,1,1958.199999988079,456243.0,7076,VNB,C,17
0,test,5,1.0,1-Back,,,Mon Mar 10 2025 15:15:47 GMT-0500 (Central Daylight Time),458201.1999999881,015_o_m_n_a.png,O,space,1488,1,1,1958.199999988079,456243.0,7076,VNB,C,0
1,test,5,1.0,1-Back,1,m,Mon Mar 10 2025 15:15:47 GMT-0500 (Central Daylight Time),463750.0,012_o_f_h_a.png,O,m,1011,2,1,2023.7000000476837,461726.2999999523,7076,VNB,C,1
2,test,5,0.0,1-Back,1,m,Mon Mar 10 2025 15:15:47 GMT-0500 (Central Daylight Time),465501.89999997616,025_y_m_d_a.png,O,m,734,3,1,1743.8999999761581,463758.0,7076,VNB,C,2
3,test,5,0.0,1-Back,1,z,Mon Mar 10 2025 15:15:47 GMT-0500 (Central Daylight Time),467381.6999999881,015_o_m_d_a.png,O,z,861,4,1,1871.6000000238419,465510.09999996424,7076,VNB,C,3
4,test,5,0.0,1-Back,1,m,Mon Mar 10 2025 15:15:47 GMT-0500 (Central Daylight Time),469181.39999997616,019_m_f_h_a.png,O,m,779,5,1,1792.0,467389.39999997616,7076,VNB,C,4
5,test,5,0.0,1-Back,1,m,Mon Mar 10 2025 15:15:47 GMT-0500 (Central Daylight Time),470963.0,022_y_f_n_a.png,O,m,754,6,1,1774.4000000357628,469188.59999996424,7076,VNB,C,5
6,test,5,1.0,1-Back,1,z,Mon Mar 10 2025 15:15:47 GMT-0500 (Central Daylight Time),473030.09999996424,012_o_f_n_a.png,O,z,1036,7,1,2059.300000011921,470970.7999999523,7076,VNB,C,6
7,test,5,0.0,1-Back,1,m,Mon Mar 10 2025 15:15:47 GMT-0500 (Central Daylight Time),474765.0,019_m_f_d_a.png,O,m,707,8,1,1728.0,473037.0,7076,VNB,C,7
8,test,5,0.0,1-Back,1,m,Mon Mar 10 2025 15:15:47 GMT-0500 (Central Daylight Time),476595.89999997616,025_y_m_h_a.png,O,m,811,9,1,1821.199999988079,474774.6999999881,7076,VNB,C,8
9,test,5,0.0,1-Back,1,m,Mon Mar 10 2025 15:15:47 GMT-0500 (Central Daylight Time),478380.2999999523,022_y_f_d_a.png,O,m,767,10,1,1778.2999999523163,476602.0,7076,VNB,C,9
10,test,5,0.0,1-Back,1,m,Mon Mar 10 2025 15:15:47 GMT-0500 (Central Daylight Time),480261.1999999881,014_m_m_n_a.png,O,m,864,11,1,1873.6000000238419,478387.59999996424,7076,VNB,C,10
11,test,5,1.0,1-Back,1,z,Mon Mar 10 2025 15:15:47 GMT-0500 (Central Daylight Time),482195.6999999881,019_m_f_n_a.png,O,z,917,12,1,1925.1000000238419,480270.59999996424,7076,VNB,C,11
12,test,5,0.0,1-Back,1,m,Mon Mar 10 2025 15:15:47 GMT-0500 (Central Daylight Time),484325.59999996424,015_o_m_h_a.png,O,m,1110,13,1,2122.0,482203.59999996424,7076,VNB,C,12
13,test,5,0.0,1-Back,1,z,Mon Mar 10 2025 15:15:47 GMT-0500 (Central Daylight Time),486227.5,014_m_m_h_a.png,O,z,882,14,1,1894.6000000238419,484332.89999997616,7076,VNB,C,13
14,test,5,1.0,1-Back,1,m,Mon Mar 10 2025 15:15:47 GMT-0500 (Central Daylight Time),488659.89999997616,012_o_f_d_a.png,O,m,1413,15,1,2423.800000011921,486236.09999996424,7076,VNB,C,14
15,test,5,0.0,1-Back,1,m,Mon Mar 10 2025 15:15:47 GMT-0500 (Central Daylight Time),490477.6999999881,025_y_m_n_a.png,O,m,801,16,1,1811.300000011921,488666.39999997616,7076,VNB,C,15
16,test,5,0.0,1-Back,1,m,Mon Mar 10 2025 15:15:47 GMT-0500 (Central Daylight Time),492258.0,022_y_f_h_a.png,O,m,766,17,1,1777.7000000476837,490480.2999999523,7076,VNB,C,16
17,test,5,0.0,1-Back,1,m,Mon Mar 10 2025 15:15:47 GMT-0500 (Central Daylight Time),494074.1999999881,014_m_m_d_a.png,O,m,791,18,1,1811.5,492262.6999999881,7076,VNB,C,17
0,prac,1,0.0,2-Back,,,Mon Mar 10 2025 15:15:47 GMT-0500 (Central Daylight Time),494074.1999999881,019_m_f_n_a.png,O,space,8792,1,1,1811.5,492262.6999999881,7076,VNB,C,0
0,prac,1,0.0,2-Back,,,Mon Mar 10 2025 15:15:47 GMT-0500 (Central Daylight Time),494074.1999999881,012_o_f_h_a.png,O,space,8792,2,1,1811.5,492262.6999999881,7076,VNB,C,0
1,prac,1,0.0,2-Back,1,m,Mon Mar 10 2025 15:15:47 GMT-0500 (Central Daylight Time),632346.3999999762,015_o_m_d_a.png,O,m,1553,3,1,2438.800000011921,629907.5999999642,7076,VNB,C,1
1,prac,1,1.0,2-Back,0,z,Mon Mar 10 2025 15:15:47 GMT-0500 (Central Daylight Time),634911.6999999881,014_m_m_h_a.png,O,m,1693,4,1,2554.600000023842,632357.0999999642,7076,VNB,C,2
1,prac,1,0.0,2-Back,0,m,Mon Mar 10 2025 15:15:47 GMT-0500 (Central Daylight Time),637812.6999999881,022_y_f_n_a.png,O,None,2016,5,1,2891.300000011921,634921.3999999762,7076,VNB,C,3
1,prac,1,1.0,2-Back,0,z,Mon Mar 10 2025 15:15:47 GMT-0500 (Central Daylight Time),639945.0999999642,015_o_m_h_a.png,O,m,1242,6,1,2121.800000011921,637823.2999999523,7076,VNB,C,4
1,prac,1,1.0,2-Back,0,z,Mon Mar 10 2025 15:15:47 GMT-0500 (Central Daylight Time),641826.6999999881,025_y_m_n_a.png,O,m,1023,7,1,1872.6000000238419,639954.0999999642,7076,VNB,C,5
2,prac,1,0.0,2-Back,1,m,Mon Mar 10 2025 15:15:47 GMT-0500 (Central Daylight Time),644226.3999999762,019_m_f_d_a.png,O,m,1505,8,1,2390.800000011921,641835.5999999642,7076,VNB,C,6
3,prac,1,0.0,2-Back,1,m,Mon Mar 10 2025 15:15:47 GMT-0500 (Central Daylight Time),646358.0,012_o_f_d_a.png,O,m,1244,9,1,2121.100000023842,644236.8999999762,7076,VNB,C,7
4,prac,1,0.0,2-Back,1,m,Mon Mar 10 2025 15:15:47 GMT-0500 (Central Daylight Time),648240.3999999762,014_m_m_h_a.png,O,m,1109,10,1,1873.6000000238419,646366.7999999523,7076,VNB,C,8
5,prac,1,1.0,2-Back,1,z,Mon Mar 10 2025 15:15:47 GMT-0500 (Central Daylight Time),649958.8999999762,022_y_f_d_a.png,O,z,844,11,1,1709.199999988079,648249.6999999881,7076,VNB,C,9
6,prac,1,0.0,2-Back,1,m,Mon Mar 10 2025 15:15:47 GMT-0500 (Central Daylight Time),651791.5,015_o_m_n_a.png,O,m,932,12,1,1823.800000011921,649967.6999999881,7076,VNB,C,10
0,prac,2,0.0,2-Back,,,Mon Mar 10 2025 15:15:47 GMT-0500 (Central Daylight Time),651791.5,019_m_f_n_a.png,O,a,5615,1,1,1823.800000011921,649967.6999999881,7076,VNB,C,0
0,prac,2,0.0,2-Back,,,Mon Mar 10 2025 15:15:47 GMT-0500 (Central Daylight Time),651791.5,012_o_f_h_a.png,O,a,5615,2,1,1823.800000011921,649967.6999999881,7076,VNB,C,0
1,prac,2,0.0,2-Back,1,m,Mon Mar 10 2025 15:15:47 GMT-0500 (Central Daylight Time),664621.0999999642,015_o_m_d_a.png,O,m,1089,3,1,1959.300000011921,662661.7999999523,7076,VNB,C,1
2,prac,2,1.0,2-Back,1,z,Mon Mar 10 2025 15:15:47 GMT-0500 (Central Daylight Time),666786.3999999762,014_m_m_h_a.png,O,z,1384,4,1,2160.699999988079,664625.6999999881,7076,VNB,C,2
2,prac,2,0.0,2-Back,0,m,Mon Mar 10 2025 15:15:47 GMT-0500 (Central Daylight Time),669251.0999999642,022_y_f_n_a.png,O,z,1570,5,1,2456.800000011921,666794.2999999523,7076,VNB,C,3
3,prac,2,1.0,2-Back,1,z,Mon Mar 10 2025 15:15:47 GMT-0500 (Central Daylight Time),671468.7999999523,015_o_m_h_a.png,O,z,1335,6,1,2208.7999999523163,669260.0,7076,VNB,C,4
3,prac,2,1.0,2-Back,0,z,Mon Mar 10 2025 15:15:47 GMT-0500 (Central Daylight Time),673150.7999999523,025_y_m_n_a.png,O,m,824,7,1,1673.8999999761581,671476.8999999762,7076,VNB,C,5
3,prac,2,0.0,2-Back,0,m,Mon Mar 10 2025 15:15:47 GMT-0500 (Central Daylight Time),675200.5,019_m_f_d_a.png,O,z,1150,8,1,2042.0,673158.5,7076,VNB,C,6
3,prac,2,0.0,2-Back,0,m,Mon Mar 10 2025 15:15:47 GMT-0500 (Central Daylight Time),677215.7999999523,012_o_f_d_a.png,O,z,1145,9,1,2007.3999999761581,675208.3999999762,7076,VNB,C,7
4,prac,2,0.0,2-Back,1,m,Mon Mar 10 2025 15:15:47 GMT-0500 (Central Daylight Time),679882.5,014_m_m_h_a.png,O,m,1881,10,1,2658.400000035763,677224.0999999642,7076,VNB,C,8
4,prac,2,1.0,2-Back,0,z,Mon Mar 10 2025 15:15:47 GMT-0500 (Central Daylight Time),681996.0999999642,022_y_f_d_a.png,O,m,1212,11,1,2106.099999964237,679890.0,7076,VNB,C,9
4,prac,2,0.0,2-Back,0,m,Mon Mar 10 2025 15:15:47 GMT-0500 (Central Daylight Time),684080.8999999762,015_o_m_n_a.png,O,z,1206,12,1,2076.100000023842,682004.7999999523,7076,VNB,C,10
0,test,1,0.0,2-Back,,,Mon Mar 10 2025 15:15:47 GMT-0500 (Central Daylight Time),684080.8999999762,025_y_m_h_a.png,O,space,8563,1,1,2076.100000023842,682004.7999999523,7076,VNB,C,0
0,test,1,0.0,2-Back,,,Mon Mar 10 2025 15:15:47 GMT-0500 (Central Daylight Time),684080.8999999762,012_o_f_n_a.png,O,space,8563,2,1,2076.100000023842,682004.7999999523,7076,VNB,C,0
1,test,1,0.0,2-Back,1,z,Mon Mar 10 2025 15:15:47 GMT-0500 (Central Daylight Time),713354.1999999881,015_o_m_h_a.png,O,z,1340,3,1,2357.199999988079,710997.0,7076,VNB,C,1
2,test,1,0.0,2-Back,1,m,Mon Mar 10 2025 15:15:47 GMT-0500 (Central Daylight Time),715736.8999999762,019_m_f_d_a.png,O,m,1358,4,1,2373.5,713363.3999999762,7076,VNB,C,2
3,test,1,1.0,2-Back,1,m,Mon Mar 10 2025 15:15:47 GMT-0500 (Central Daylight Time),718236.3999999762,025_y_m_n_a.png,O,m,1481,5,1,2495.899999976158,715740.5,7076,VNB,C,3
4,test,1,0.0,2-Back,1,z,Mon Mar 10 2025 15:15:47 GMT-0500 (Central Daylight Time),721003.0999999642,022_y_f_d_a.png,O,z,1750,6,1,2758.599999964237,718244.5,7076,VNB,C,4
5,test,1,0.0,2-Back,1,m,Mon Mar 10 2025 15:15:47 GMT-0500 (Central Daylight Time),723634.5999999642,014_m_m_h_a.png,O,m,1599,7,1,2624.0,721010.5999999642,7076,VNB,C,5
6,test,1,1.0,2-Back,1,m,Mon Mar 10 2025 15:15:47 GMT-0500 (Central Daylight Time),725833.0,022_y_f_n_a.png,O,m,1173,8,1,2190.800000011921,723642.1999999881,7076,VNB,C,6
7,test,1,0.0,2-Back,1,z,Mon Mar 10 2025 15:15:47 GMT-0500 (Central Daylight Time),728164.7999999523,012_o_f_h_a.png,O,z,1311,9,1,2325.7999999523163,725839.0,7076,VNB,C,7
8,test,1,0.0,2-Back,1,m,Mon Mar 10 2025 15:15:47 GMT-0500 (Central Daylight Time),730831.6999999881,015_o_m_d_a.png,O,m,1643,10,1,2657.100000023842,728174.5999999642,7076,VNB,C,8
9,test,1,1.0,2-Back,1,m,Mon Mar 10 2025 15:15:47 GMT-0500 (Central Daylight Time),733715.0,014_m_m_d_a.png,O,m,1864,11,1,2874.900000035763,730840.0999999642,7076,VNB,C,9
10,test,1,0.0,2-Back,1,m,Mon Mar 10 2025 15:15:47 GMT-0500 (Central Daylight Time),736263.5999999642,019_m_f_n_a.png,O,m,1518,12,1,2544.5,733719.0999999642,7076,VNB,C,10
11,test,1,0.0,2-Back,1,m,Mon Mar 10 2025 15:15:47 GMT-0500 (Central Daylight Time),738679.7999999523,022_y_f_h_a.png,O,m,1386,13,1,2407.099999964237,736272.6999999881,7076,VNB,C,11
12,test,1,0.0,2-Back,1,z,Mon Mar 10 2025 15:15:47 GMT-0500 (Central Daylight Time),740779.3999999762,014_m_m_n_a.png,O,z,1073,14,1,2091.5,738687.8999999762,7076,VNB,C,12
13,test,1,0.0,2-Back,1,m,Mon Mar 10 2025 15:15:47 GMT-0500 (Central Daylight Time),743243.6999999881,025_y_m_d_a.png,O,m,1430,15,1,2457.199999988079,740786.5,7076,VNB,C,13
14,test,1,1.0,2-Back,1,m,Mon Mar 10 2025 15:15:47 GMT-0500 (Central Daylight Time),745909.6999999881,019_m_f_h_a.png,O,m,1635,16,1,2658.699999988079,743251.0,7076,VNB,C,14
15,test,1,0.0,2-Back,1,z,Mon Mar 10 2025 15:15:47 GMT-0500 (Central Daylight Time),748294.6999999881,012_o_f_d_a.png,O,z,1364,17,1,2375.800000011921,745918.8999999762,7076,VNB,C,15
16,test,1,0.0,2-Back,1,m,Mon Mar 10 2025 15:15:47 GMT-0500 (Central Daylight Time),750341.8999999762,015_o_m_n_a.png,O,m,1029,18,1,2039.6000000238419,748302.2999999523,7076,VNB,C,16
0,test,2,0.0,2-Back,,,Mon Mar 10 2025 15:15:47 GMT-0500 (Central Daylight Time),750341.8999999762,014_m_m_h_a.png,O,space,5517,1,1,2039.6000000238419,748302.2999999523,7076,VNB,C,0
0,test,2,0.0,2-Back,,,Mon Mar 10 2025 15:15:47 GMT-0500 (Central Daylight Time),750341.8999999762,022_y_f_n_a.png,O,space,5517,2,1,2039.6000000238419,748302.2999999523,7076,VNB,C,0
1,test,2,1.0,2-Back,1,z,Mon Mar 10 2025 15:15:47 GMT-0500 (Central Daylight Time),763238.2999999523,012_o_f_h_a.png,O,z,1103,3,1,2124.899999976158,761113.3999999762,7076,VNB,C,1
2,test,2,0.0,2-Back,1,m,Mon Mar 10 2025 15:15:47 GMT-0500 (Central Daylight Time),765687.1999999881,015_o_m_d_a.png,O,m,1429,4,1,2439.800000011921,763247.3999999762,7076,VNB,C,2
3,test,2,0.0,2-Back,1,m,Mon Mar 10 2025 15:15:47 GMT-0500 (Central Daylight Time),768335.6999999881,019_m_f_d_a.png,O,m,1617,5,1,2640.600000023842,765695.0999999642,7076,VNB,C,3
4,test,2,0.0,2-Back,1,m,Mon Mar 10 2025 15:15:47 GMT-0500 (Central Daylight Time),770518.8999999762,025_y_m_h_a.png,O,m,1152,6,1,2175.899999976158,768343.0,7076,VNB,C,4
5,test,2,0.0,2-Back,1,m,Mon Mar 10 2025 15:15:47 GMT-0500 (Central Daylight Time),772637.1999999881,012_o_f_n_a.png,O,m,1099,7,1,2110.300000011921,770526.8999999762,7076,VNB,C,5
6,test,2,1.0,2-Back,1,z,Mon Mar 10 2025 15:15:47 GMT-0500 (Central Daylight Time),774567.2999999523,015_o_m_h_a.png,O,z,910,8,1,1923.0999999642372,772644.1999999881,7076,VNB,C,6
7,test,2,0.0,2-Back,1,m,Mon Mar 10 2025 15:15:47 GMT-0500 (Central Daylight Time),776883.5,022_y_f_d_a.png,O,m,1288,9,1,2309.100000023842,774574.3999999762,7076,VNB,C,7
8,test,2,0.0,2-Back,1,m,Mon Mar 10 2025 15:15:47 GMT-0500 (Central Daylight Time),779132.8999999762,025_y_m_d_a.png,O,m,1221,10,1,2241.800000011921,776891.0999999642,7076,VNB,C,8
9,test,2,0.0,2-Back,1,m,Mon Mar 10 2025 15:15:47 GMT-0500 (Central Daylight Time),781532.2999999523,014_m_m_n_a.png,O,m,1383,11,1,2390.699999988079,779141.5999999642,7076,VNB,C,9
10,test,2,0.0,2-Back,1,m,Mon Mar 10 2025 15:15:47 GMT-0500 (Central Daylight Time),783664.6999999881,019_m_f_h_a.png,O,m,1099,12,1,2125.400000035763,781539.2999999523,7076,VNB,C,10
11,test,2,1.0,2-Back,1,z,Mon Mar 10 2025 15:15:47 GMT-0500 (Central Daylight Time),785731.1999999881,015_o_m_n_a.png,O,z,1040,13,1,2059.0,783672.1999999881,7076,VNB,C,11
12,test,2,0.0,2-Back,1,m,Mon Mar 10 2025 15:15:47 GMT-0500 (Central Daylight Time),788179.2999999523,012_o_f_d_a.png,O,m,1422,14,1,2440.5,785738.7999999523,7076,VNB,C,12
13,test,2,0.0,2-Back,1,m,Mon Mar 10 2025 15:15:47 GMT-0500 (Central Daylight Time),790546.3999999762,022_y_f_h_a.png,O,m,1348,15,1,2360.899999976158,788185.5,7076,VNB,C,13
14,test,2,0.0,2-Back,1,z,Mon Mar 10 2025 15:15:47 GMT-0500 (Central Daylight Time),792460.7999999523,014_m_m_d_a.png,O,z,896,16,1,1910.0999999642372,790550.6999999881,7076,VNB,C,14
15,test,2,0.0,2-Back,1,m,Mon Mar 10 2025 15:15:47 GMT-0500 (Central Daylight Time),794427.8999999762,025_y_m_n_a.png,O,m,948,17,1,1957.8999999761581,792470.0,7076,VNB,C,15
16,test,2,1.0,2-Back,1,m,Mon Mar 10 2025 15:15:47 GMT-0500 (Central Daylight Time),796398.5,019_m_f_n_a.png,O,m,939,18,1,1962.4000000357628,794436.0999999642,7076,VNB,C,16
0,test,3,1.0,2-Back,,,Mon Mar 10 2025 15:15:47 GMT-0500 (Central Daylight Time),796398.5,015_o_m_n_a.png,O,space,1803,1,1,1962.4000000357628,794436.0999999642,7076,VNB,C,0
0,test,3,1.0,2-Back,,,Mon Mar 10 2025 15:15:47 GMT-0500 (Central Daylight Time),796398.5,012_o_f_d_a.png,O,space,1803,2,1,1962.4000000357628,794436.0999999642,7076,VNB,C,0
1,test,3,0.0,2-Back,1,m,Mon Mar 10 2025 15:15:47 GMT-0500 (Central Daylight Time),805408.0,022_y_f_h_a.png,O,m,1127,3,1,2139.0,803269.0,7076,VNB,C,1
2,test,3,0.0,2-Back,1,z,Mon Mar 10 2025 15:15:47 GMT-0500 (Central Daylight Time),807557.0,019_m_f_d_a.png,O,z,1131,4,1,2141.900000035763,805415.0999999642,7076,VNB,C,2
3,test,3,1.0,2-Back,1,m,Mon Mar 10 2025 15:15:47 GMT-0500 (Central Daylight Time),809689.6999999881,025_y_m_n_a.png,O,m,1108,5,1,2124.400000035763,807565.2999999523,7076,VNB,C,3
4,test,3,0.0,2-Back,1,m,Mon Mar 10 2025 15:15:47 GMT-0500 (Central Daylight Time),812239.3999999762,015_o_m_h_a.png,O,m,1527,6,1,2544.100000023842,809695.2999999523,7076,VNB,C,4
5,test,3,0.0,2-Back,1,z,Mon Mar 10 2025 15:15:47 GMT-0500 (Central Daylight Time),814339.2999999523,022_y_f_n_a.png,O,z,1080,7,1,2091.7999999523163,812247.5,7076,VNB,C,5
6,test,3,1.0,2-Back,1,m,Mon Mar 10 2025 15:15:47 GMT-0500 (Central Daylight Time),816522.0999999642,014_m_m_d_a.png,O,m,1161,8,1,2175.5,814346.5999999642,7076,VNB,C,6
7,test,3,0.0,2-Back,1,m,Mon Mar 10 2025 15:15:47 GMT-0500 (Central Daylight Time),818886.6999999881,025_y_m_d_a.png,O,m,1336,9,1,2357.699999988079,816529.0,7076,VNB,C,7
8,test,3,0.0,2-Back,1,m,Mon Mar 10 2025 15:15:47 GMT-0500 (Central Daylight Time),820970.0,012_o_f_h_a.png,O,m,1058,10,1,2075.7000000476837,818894.2999999523,7076,VNB,C,8
9,test,3,1.0,2-Back,1,m,Mon Mar 10 2025 15:15:47 GMT-0500 (Central Daylight Time),823136.3999999762,019_m_f_n_a.png,O,m,1134,11,1,2157.899999976158,820978.5,7076,VNB,C,9
10,test,3,1.0,2-Back,1,z,Mon Mar 10 2025 15:15:47 GMT-0500 (Central Daylight Time),825084.1999999881,014_m_m_h_a.png,O,z,930,12,1,1940.4000000357628,823143.7999999523,7076,VNB,C,10
11,test,3,0.0,2-Back,1,m,Mon Mar 10 2025 15:15:47 GMT-0500 (Central Daylight Time),827034.0999999642,022_y_f_d_a.png,O,m,917,13,1,1940.300000011921,825093.7999999523,7076,VNB,C,11
12,test,3,0.0,2-Back,1,m,Mon Mar 10 2025 15:15:47 GMT-0500 (Central Daylight Time),829485.1999999881,012_o_f_n_a.png,O,m,1433,14,1,2443.600000023842,827041.5999999642,7076,VNB,C,12
13,test,3,0.0,2-Back,1,z,Mon Mar 10 2025 15:15:47 GMT-0500 (Central Daylight Time),831434.0999999642,015_o_m_d_a.png,O,z,916,15,1,1942.5,829491.5999999642,7076,VNB,C,13
14,test,3,1.0,2-Back,1,m,Mon Mar 10 2025 15:15:47 GMT-0500 (Central Daylight Time),833450.0,019_m_f_h_a.png,O,m,998,16,1,2008.7000000476837,831441.2999999523,7076,VNB,C,14
15,test,3,0.0,2-Back,1,m,Mon Mar 10 2025 15:15:47 GMT-0500 (Central Daylight Time),835416.1999999881,014_m_m_n_a.png,O,m,943,17,1,1961.1000000238419,833455.0999999642,7076,VNB,C,15
16,test,3,0.0,2-Back,1,z,Mon Mar 10 2025 15:15:47 GMT-0500 (Central Daylight Time),837398.0,025_y_m_h_a.png,O,z,952,18,1,1974.1000000238419,835423.8999999762,7076,VNB,C,16
0,test,4,0.0,2-Back,,,Mon Mar 10 2025 15:15:47 GMT-0500 (Central Daylight Time),837398.0,019_m_f_n_a.png,O,space,1323,1,1,1974.1000000238419,835423.8999999762,7076,VNB,C,0
0,test,4,0.0,2-Back,,,Mon Mar 10 2025 15:15:47 GMT-0500 (Central Daylight Time),837398.0,015_o_m_n_a.png,O,space,1323,2,1,1974.1000000238419,835423.8999999762,7076,VNB,C,0
1,test,4,1.0,2-Back,1,m,Mon Mar 10 2025 15:15:47 GMT-0500 (Central Daylight Time),845928.1999999881,025_y_m_h_a.png,O,m,926,3,1,1941.0,843987.1999999881,7076,VNB,C,1
2,test,4,1.0,2-Back,1,m,Mon Mar 10 2025 15:15:47 GMT-0500 (Central Daylight Time),847995.0,012_o_f_d_a.png,O,m,1048,4,1,2059.800000011921,845935.1999999881,7076,VNB,C,2
3,test,4,0.0,2-Back,1,z,Mon Mar 10 2025 15:15:47 GMT-0500 (Central Daylight Time),849876.5,015_o_m_h_a.png,O,z,853,5,1,1875.300000011921,848001.1999999881,7076,VNB,C,3
4,test,4,0.0,2-Back,1,m,Mon Mar 10 2025 15:15:47 GMT-0500 (Central Daylight Time),851827.0999999642,014_m_m_n_a.png,O,m,923,6,1,1944.3999999761581,849882.6999999881,7076,VNB,C,4
5,test,4,0.0,2-Back,1,m,Mon Mar 10 2025 15:15:47 GMT-0500 (Central Daylight Time),854192.1999999881,019_m_f_d_a.png,O,m,1342,7,1,2359.100000023842,851833.0999999642,7076,VNB,C,5
6,test,4,0.0,2-Back,1,z,Mon Mar 10 2025 15:15:47 GMT-0500 (Central Daylight Time),856527.0999999642,022_y_f_n_a.png,O,z,1317,8,1,2329.199999988079,854197.8999999762,7076,VNB,C,6
7,test,4,1.0,2-Back,1,m,Mon Mar 10 2025 15:15:47 GMT-0500 (Central Daylight Time),858524.2999999523,012_o_f_h_a.png,O,m,970,9,1,1990.5999999642372,856533.6999999881,7076,VNB,C,7
8,test,4,0.0,2-Back,1,m,Mon Mar 10 2025 15:15:47 GMT-0500 (Central Daylight Time),860842.0,014_m_m_h_a.png,O,m,1300,10,1,2310.0,858532.0,7076,VNB,C,8
9,test,4,0.0,2-Back,1,m,Mon Mar 10 2025 15:15:47 GMT-0500 (Central Daylight Time),863089.2999999523,022_y_f_d_a.png,O,m,1231,11,1,2241.2999999523163,860848.0,7076,VNB,C,9
10,test,4,0.0,2-Back,1,m,Mon Mar 10 2025 15:15:47 GMT-0500 (Central Daylight Time),865121.7999999523,025_y_m_n_a.png,O,m,1006,12,1,2024.5,863097.2999999523,7076,VNB,C,10
11,test,4,0.0,2-Back,1,z,Mon Mar 10 2025 15:15:47 GMT-0500 (Central Daylight Time),867572.6999999881,015_o_m_d_a.png,O,z,1433,13,1,2443.0,865129.6999999881,7076,VNB,C,11
12,test,4,1.0,2-Back,1,m,Mon Mar 10 2025 15:15:47 GMT-0500 (Central Daylight Time),869504.5999999642,019_m_f_h_a.png,O,m,910,14,1,1922.699999988079,867581.8999999762,7076,VNB,C,12
13,test,4,1.0,2-Back,1,m,Mon Mar 10 2025 15:15:47 GMT-0500 (Central Daylight Time),871634.1999999881,022_y_f_h_a.png,O,m,1109,15,1,2122.800000011921,869511.3999999762,7076,VNB,C,13
13,test,4,0.0,2-Back,0,m,Mon Mar 10 2025 15:15:47 GMT-0500 (Central Daylight Time),874187.1999999881,012_o_f_n_a.png,O,z,1515,16,1,2546.800000011921,871640.3999999762,7076,VNB,C,14
14,test,4,0.0,2-Back,1,m,Mon Mar 10 2025 15:15:47 GMT-0500 (Central Daylight Time),876403.0999999642,025_y_m_d_a.png,O,m,1199,17,1,2206.899999976158,874196.1999999881,7076,VNB,C,15
15,test,4,1.0,2-Back,1,m,Mon Mar 10 2025 15:15:47 GMT-0500 (Central Daylight Time),878917.5,014_m_m_d_a.png,O,m,1494,18,1,2506.800000011921,876410.6999999881,7076,VNB,C,16
0,test,5,1.0,2-Back,,,Mon Mar 10 2025 15:15:47 GMT-0500 (Central Daylight Time),878917.5,022_y_f_d_a.png,O,space,1515,1,1,2506.800000011921,876410.6999999881,7076,VNB,C,0
0,test,5,1.0,2-Back,,,Mon Mar 10 2025 15:15:47 GMT-0500 (Central Daylight Time),878917.5,012_o_f_h_a.png,O,space,1515,2,1,2506.800000011921,876410.6999999881,7076,VNB,C,0
1,test,5,1.0,2-Back,1,z,Mon Mar 10 2025 15:15:47 GMT-0500 (Central Daylight Time),887931.2999999523,015_o_m_d_a.png,O,z,1206,3,1,2223.0,885708.2999999523,7076,VNB,C,1
2,test,5,1.0,2-Back,1,m,Mon Mar 10 2025 15:15:47 GMT-0500 (Central Daylight Time),890080.2999999523,019_m_f_n_a.png,O,m,1117,4,1,2141.399999976158,887938.8999999762,7076,VNB,C,2
3,test,5,0.0,2-Back,1,m,Mon Mar 10 2025 15:15:47 GMT-0500 (Central Daylight Time),892480.1999999881,014_m_m_h_a.png,O,m,1375,5,1,2392.800000011921,890087.3999999762,7076,VNB,C,3
4,test,5,0.0,2-Back,1,z,Mon Mar 10 2025 15:15:47 GMT-0500 (Central Daylight Time),894714.0999999642,022_y_f_n_a.png,O,z,1208,6,1,2226.899999976158,892487.1999999881,7076,VNB,C,4
5,test,5,0.0,2-Back,1,m,Mon Mar 10 2025 15:15:47 GMT-0500 (Central Daylight Time),896962.5999999642,012_o_f_d_a.png,O,m,1224,7,1,2241.300000011921,894721.2999999523,7076,VNB,C,5
6,test,5,0.0,2-Back,1,m,Mon Mar 10 2025 15:15:47 GMT-0500 (Central Daylight Time),899428.0999999642,015_o_m_h_a.png,O,m,1438,8,1,2457.599999964237,896970.5,7076,VNB,C,6
7,test,5,1.0,2-Back,1,z,Mon Mar 10 2025 15:15:47 GMT-0500 (Central Daylight Time),901744.5999999642,019_m_f_d_a.png,O,z,1285,9,1,2309.399999976158,899435.1999999881,7076,VNB,C,7
7,test,5,0.0,2-Back,0,m,Mon Mar 10 2025 15:15:47 GMT-0500 (Central Daylight Time),903977.0,025_y_m_n_a.png,O,z,1200,10,1,2225.5,901751.5,7076,VNB,C,8
8,test,5,0.0,2-Back,1,m,Mon Mar 10 2025 15:15:47 GMT-0500 (Central Daylight Time),906309.1999999881,014_m_m_n_a.png,O,m,1315,11,1,2324.699999988079,903984.5,7076,VNB,C,9
9,test,5,0.0,2-Back,1,m,Mon Mar 10 2025 15:15:47 GMT-0500 (Central Daylight Time),908425.5999999642,022_y_f_h_a.png,O,m,1082,12,1,2110.399999976158,906315.1999999881,7076,VNB,C,10
10,test,5,0.0,2-Back,1,m,Mon Mar 10 2025 15:15:47 GMT-0500 (Central Daylight Time),910824.5,025_y_m_d_a.png,O,m,1367,13,1,2392.0,908432.5,7076,VNB,C,11
11,test,5,1.0,2-Back,1,z,Mon Mar 10 2025 15:15:47 GMT-0500 (Central Daylight Time),912874.5,019_m_f_h_a.png,O,z,1031,14,1,2042.7000000476837,910831.7999999523,7076,VNB,C,12
12,test,5,0.0,2-Back,1,m,Mon Mar 10 2025 15:15:47 GMT-0500 (Central Daylight Time),914772.1999999881,015_o_m_n_a.png,O,m,879,15,1,1893.0,912879.1999999881,7076,VNB,C,13
13,test,5,0.0,2-Back,1,m,Mon Mar 10 2025 15:15:47 GMT-0500 (Central Daylight Time),917240.0,014_m_m_d_a.png,O,m,1435,16,1,2462.7000000476837,914777.2999999523,7076,VNB,C,14
14,test,5,0.0,2-Back,1,z,Mon Mar 10 2025 15:15:47 GMT-0500 (Central Daylight Time),919072.7999999523,012_o_f_n_a.png,O,z,800,17,1,1825.3999999761581,917247.3999999762,7076,VNB,C,15
15,test,5,1.0,2-Back,1,m,Mon Mar 10 2025 15:15:47 GMT-0500 (Central Daylight Time),921487.5,025_y_m_h_a.png,O,m,1384,18,1,2406.800000011921,919080.6999999881,7076,VNB,C,16
