block_c,block_dur,condition,countdown,datetime,endtime,list,multichar_response,project,response,response_time,session_number,start_end,starttime,subject_id,task,task_vers,trial
,,,,Tue Jan 21 2025 19:01:35 GMT-0600 (Central Standard Time),,,,I,space,438,1,,,8018,WL,B,
prac,,0,,Tue Jan 21 2025 19:01:35 GMT-0600 (Central Standard Time),,NA,b,I,b,17435,1,,,8018,WL,B,1.0
prac,,0,,Tue Jan 21 2025 19:01:35 GMT-0600 (Central Standard Time),,NA,bo,I,o,487,1,,,8018,WL,B,1.0
prac,,0,,Tue Jan 21 2025 19:01:35 GMT-0600 (Central Standard Time),,NA,boo,I,o,157,1,,,8018,WL,B,1.0
prac,,0,,Tue Jan 21 2025 19:01:35 GMT-0600 (Central Standard Time),,NA,boos,I,s,502,1,,,8018,WL,B,1.0
prac,,0,,Tue Jan 21 2025 19:01:35 GMT-0600 (Central Standard Time),,NA,boost,I,t,226,1,,,8018,WL,B,1.0
prac,,0,,Tue Jan 21 2025 19:01:35 GMT-0600 (Central Standard Time),,NA,boostenter,I,enter,4641,1,,,8018,WL,B,1.0
1,4.164999961853027,learn,55835.00003814697,Tue Jan 21 2025 19:01:35 GMT-0600 (Central Standard Time),191895.29999995232,A,s,I,s,4152,1,4164.699999988079,187730.59999996424,8018,WL,B,1.0
1,4.865000009536743,learn,55134.99999046326,Tue Jan 21 2025 19:01:35 GMT-0600 (Central Standard Time),192595.39999997616,A,st,I,t,682,1,4864.800000011921,187730.59999996424,8018,WL,B,1.0
1,5.331000089645386,learn,54668.999910354614,Tue Jan 21 2025 19:01:35 GMT-0600 (Central Standard Time),193061.69999998808,A,sta,I,a,447,1,5331.100000023842,187730.59999996424,8018,WL,B,1.0
1,5.898000001907349,learn,54101.99999809265,Tue Jan 21 2025 19:01:35 GMT-0600 (Central Standard Time),193628.29999995232,A,star,I,r,548,1,5897.699999988079,187730.59999996424,8018,WL,B,1.0
1,7.879999876022339,learn,52120.00012397766,Tue Jan 21 2025 19:01:35 GMT-0600 (Central Standard Time),195610.79999995232,A,starenter,I,enter,1974,1,7880.199999988079,187730.59999996424,8018,WL,B,1.0
1,9.680000066757202,learn,50319.9999332428,Tue Jan 21 2025 19:01:35 GMT-0600 (Central Standard Time),197410.39999997616,A,s,I,s,1792,1,1799.3999999761581,195611.0,8018,WL,B,2.0
1,10.145999908447266,learn,49854.000091552734,Tue Jan 21 2025 19:01:35 GMT-0600 (Central Standard Time),197876.89999997616,A,st,I,t,456,1,2265.899999976158,195611.0,8018,WL,B,2.0
1,10.546000003814697,learn,49453.9999961853,Tue Jan 21 2025 19:01:35 GMT-0600 (Central Standard Time),198276.79999995232,A,str,I,r,381,1,2665.7999999523163,195611.0,8018,WL,B,2.0
1,10.94599986076355,learn,49054.00013923645,Tue Jan 21 2025 19:01:35 GMT-0600 (Central Standard Time),198676.69999998808,A,stre,I,e,389,1,3065.699999988079,195611.0,8018,WL,B,2.0
1,11.128999948501587,learn,48871.00005149841,Tue Jan 21 2025 19:01:35 GMT-0600 (Central Standard Time),198860.0,A,stree,I,e,166,1,3249.0,195611.0,8018,WL,B,2.0
1,11.878999948501587,learn,48121.00005149841,Tue Jan 21 2025 19:01:35 GMT-0600 (Central Standard Time),199609.69999998808,A,street,I,t,734,1,3998.699999988079,195611.0,8018,WL,B,2.0
1,13.244999885559082,learn,46755.00011444092,Tue Jan 21 2025 19:01:35 GMT-0600 (Central Standard Time),200975.79999995232,A,streetenter,I,enter,1345,1,5364.799999952316,195611.0,8018,WL,B,2.0
1,14.57800006866455,learn,45421.99993133545,Tue Jan 21 2025 19:01:35 GMT-0600 (Central Standard Time),202308.89999997616,A,c,I,c,1314,1,1332.800000011921,200976.09999996424,8018,WL,B,3.0
1,15.128000020980835,learn,44871.999979019165,Tue Jan 21 2025 19:01:35 GMT-0600 (Central Standard Time),202858.89999997616,A,ci,I,i,542,1,1882.800000011921,200976.09999996424,8018,WL,B,3.0
1,15.59500002861023,learn,44404.99997138977,Tue Jan 21 2025 19:01:35 GMT-0600 (Central Standard Time),203325.29999995232,A,cit,I,t,448,1,2349.199999988079,200976.09999996424,8018,WL,B,3.0
1,15.92799997329712,learn,44072.00002670288,Tue Jan 21 2025 19:01:35 GMT-0600 (Central Standard Time),203658.69999998808,A,city,I,y,325,1,2682.600000023842,200976.09999996424,8018,WL,B,3.0
1,18.221999883651733,learn,41778.00011634827,Tue Jan 21 2025 19:01:35 GMT-0600 (Central Standard Time),205952.19999998808,A,cityenter,I,enter,2287,1,4976.100000023842,200976.09999996424,8018,WL,B,3.0
1,20.126999855041504,learn,39873.000144958496,Tue Jan 21 2025 19:01:35 GMT-0600 (Central Standard Time),207857.29999995232,A,f,I,f,1882,1,1904.7999999523163,205952.5,8018,WL,B,4.0
1,20.759999990463257,learn,39240.00000953674,Tue Jan 21 2025 19:01:35 GMT-0600 (Central Standard Time),208490.29999995232,A,fi,I,i,609,1,2537.7999999523163,205952.5,8018,WL,B,4.0
1,21.276000022888184,learn,38723.99997711182,Tue Jan 21 2025 19:01:35 GMT-0600 (Central Standard Time),209006.79999995232,A,fir,I,r,497,1,3054.2999999523163,205952.5,8018,WL,B,4.0
1,21.675999879837036,learn,38324.000120162964,Tue Jan 21 2025 19:01:35 GMT-0600 (Central Standard Time),209406.69999998808,A,fire,I,e,388,1,3454.199999988079,205952.5,8018,WL,B,4.0
1,22.66000008583069,learn,37339.99991416931,Tue Jan 21 2025 19:01:35 GMT-0600 (Central Standard Time),210390.89999997616,A,fireenter,I,enter,974,1,4438.399999976158,205952.5,8018,WL,B,4.0
1,23.675999879837036,learn,36324.000120162964,Tue Jan 21 2025 19:01:35 GMT-0600 (Central Standard Time),211406.09999996424,A,s,I,s,1004,1,1014.5,210391.59999996424,8018,WL,B,5.0
1,24.30900001525879,learn,35690.99998474121,Tue Jan 21 2025 19:01:35 GMT-0600 (Central Standard Time),212039.29999995232,A,sk,I,k,613,1,1647.699999988079,210391.59999996424,8018,WL,B,5.0
1,24.70899987220764,learn,35291.00012779236,Tue Jan 21 2025 19:01:35 GMT-0600 (Central Standard Time),212439.09999996424,A,ski,I,i,379,1,2047.5,210391.59999996424,8018,WL,B,5.0
1,25.54200005531311,learn,34457.99994468689,Tue Jan 21 2025 19:01:35 GMT-0600 (Central Standard Time),213272.19999998808,A,skin,I,n,821,1,2880.600000023842,210391.59999996424,8018,WL,B,5.0
1,26.874000072479248,learn,33125.99992752075,Tue Jan 21 2025 19:01:35 GMT-0600 (Central Standard Time),214605.0,A,skinenter,I,enter,1314,1,4213.400000035763,210391.59999996424,8018,WL,B,5.0
1,28.54099988937378,learn,31459.00011062622,Tue Jan 21 2025 19:01:35 GMT-0600 (Central Standard Time),216271.29999995232,A,c,I,c,1654,1,1665.8999999761581,214605.39999997616,8018,WL,B,6.0
1,29.35699987411499,learn,30643.00012588501,Tue Jan 21 2025 19:01:35 GMT-0600 (Central Standard Time),217087.39999997616,A,ca,I,a,804,1,2482.0,214605.39999997616,8018,WL,B,6.0
1,30.306999921798706,learn,29693.000078201294,Tue Jan 21 2025 19:01:35 GMT-0600 (Central Standard Time),218037.29999995232,A,cab,I,b,931,1,3431.899999976158,214605.39999997616,8018,WL,B,6.0
1,30.655999898910522,learn,29344.000101089478,Tue Jan 21 2025 19:01:35 GMT-0600 (Central Standard Time),218386.79999995232,A,cabi,I,i,341,1,3781.399999976158,214605.39999997616,8018,WL,B,6.0
1,31.139999866485596,learn,28860.000133514404,Tue Jan 21 2025 19:01:35 GMT-0600 (Central Standard Time),218870.5,A,cabin,I,n,464,1,4265.100000023842,214605.39999997616,8018,WL,B,6.0
1,32.90599989891052,learn,27094.000101089478,Tue Jan 21 2025 19:01:35 GMT-0600 (Central Standard Time),220636.5,A,cabinenter,I,enter,1749,1,6031.100000023842,214605.39999997616,8018,WL,B,6.0
1,34.58999991416931,learn,25410.00008583069,Tue Jan 21 2025 19:01:35 GMT-0600 (Central Standard Time),222320.59999996424,A,g,I,g,1671,1,1683.699999988079,220636.89999997616,8018,WL,B,7.0
1,34.97199988365173,learn,25028.000116348267,Tue Jan 21 2025 19:01:35 GMT-0600 (Central Standard Time),222702.59999996424,A,gr,I,r,361,1,2065.699999988079,220636.89999997616,8018,WL,B,7.0
1,35.388999938964844,learn,24611.000061035156,Tue Jan 21 2025 19:01:35 GMT-0600 (Central Standard Time),223119.19999998808,A,gra,I,a,396,1,2482.300000011921,220636.89999997616,8018,WL,B,7.0
1,35.687999963760376,learn,24312.000036239624,Tue Jan 21 2025 19:01:35 GMT-0600 (Central Standard Time),223418.89999997616,A,gras,I,s,285,1,2782.0,220636.89999997616,8018,WL,B,7.0
1,35.888999938964844,learn,24111.000061035156,Tue Jan 21 2025 19:01:35 GMT-0600 (Central Standard Time),223620.0,A,grass,I,s,184,1,2983.100000023842,220636.89999997616,8018,WL,B,7.0
1,36.82099986076355,learn,23179.00013923645,Tue Jan 21 2025 19:01:35 GMT-0600 (Central Standard Time),224551.79999995232,A,grassenter,I,enter,911,1,3914.899999976158,220636.89999997616,8018,WL,B,7.0
1,38.037999868392944,learn,21962.000131607056,Tue Jan 21 2025 19:01:35 GMT-0600 (Central Standard Time),225768.39999997616,A,a,I,a,1203,1,1216.1000000238419,224552.29999995232,8018,WL,B,8.0
1,38.40400004386902,learn,21595.99995613098,Tue Jan 21 2025 19:01:35 GMT-0600 (Central Standard Time),226134.79999995232,A,ar,I,r,355,1,1582.5,224552.29999995232,8018,WL,B,8.0
1,41.420000076293945,learn,18579.999923706055,Tue Jan 21 2025 19:01:35 GMT-0600 (Central Standard Time),229150.5,A,arm,I,m,2997,1,4598.200000047684,224552.29999995232,8018,WL,B,8.0
1,42.736000061035156,learn,17263.999938964844,Tue Jan 21 2025 19:01:35 GMT-0600 (Central Standard Time),230466.69999998808,A,armenter,I,enter,1309,1,5914.400000035763,224552.29999995232,8018,WL,B,8.0
1,45.401999950408936,learn,14598.000049591064,Tue Jan 21 2025 19:01:35 GMT-0600 (Central Standard Time),233132.59999996424,A,l,I,l,2657,1,2665.599999964237,230467.0,8018,WL,B,9.0
1,45.80200004577637,learn,14197.999954223633,Tue Jan 21 2025 19:01:35 GMT-0600 (Central Standard Time),233532.09999996424,A,li,I,i,390,1,3065.099999964237,230467.0,8018,WL,B,9.0
1,46.38599991798401,learn,13614.000082015991,Tue Jan 21 2025 19:01:35 GMT-0600 (Central Standard Time),234116.69999998808,A,lig,I,g,576,1,3649.699999988079,230467.0,8018,WL,B,9.0
1,46.70199990272522,learn,13298.00009727478,Tue Jan 21 2025 19:01:35 GMT-0600 (Central Standard Time),234432.19999998808,A,ligh,I,h,303,1,3965.199999988079,230467.0,8018,WL,B,9.0
1,47.300999879837036,learn,12699.000120162964,Tue Jan 21 2025 19:01:35 GMT-0600 (Central Standard Time),235031.89999997616,A,light,I,t,587,1,4564.899999976158,230467.0,8018,WL,B,9.0
1,48.3510000705719,learn,11648.9999294281,Tue Jan 21 2025 19:01:35 GMT-0600 (Central Standard Time),236081.5,A,lightenter,I,enter,1027,1,5614.5,230467.0,8018,WL,B,9.0
1,57.930999994277954,learn,2069.000005722046,Tue Jan 21 2025 19:01:35 GMT-0600 (Central Standard Time),245662.09999996424,A,w,I,w,9563,1,9580.199999988079,236081.89999997616,8018,WL,B,10.0
1,58.348000049591064,learn,1651.9999504089355,Tue Jan 21 2025 19:01:35 GMT-0600 (Central Standard Time),246078.5,A,wi,I,i,405,1,9996.600000023842,236081.89999997616,8018,WL,B,10.0
1,58.763999938964844,learn,1236.0000610351562,Tue Jan 21 2025 19:01:35 GMT-0600 (Central Standard Time),246495.0,A,win,I,n,406,1,10413.100000023842,236081.89999997616,8018,WL,B,10.0
1,59.180999994277954,learn,819.0000057220459,Tue Jan 21 2025 19:01:35 GMT-0600 (Central Standard Time),246911.59999996424,A,wind,I,d,405,1,10829.699999988079,236081.89999997616,8018,WL,B,10.0
1,59.69700002670288,learn,302.99997329711914,Tue Jan 21 2025 19:01:35 GMT-0600 (Central Standard Time),247428.09999996424,A,windo,I,o,507,1,11346.199999988079,236081.89999997616,8018,WL,B,10.0
1,60.013999938964844,learn,-13.99993896484375,Tue Jan 21 2025 19:01:35 GMT-0600 (Central Standard Time),247744.5,A,windoNone,I,None,309,1,11662.600000023842,236081.89999997616,8018,WL,B,10.0
2,1.3659999370574951,learn,58634.000062942505,Tue Jan 21 2025 19:01:35 GMT-0600 (Central Standard Time),331151.7999999523,A,c,I,c,1346,1,1366.0,329785.7999999523,8018,WL,B,1.0
2,1.682999849319458,learn,58317.00015068054,Tue Jan 21 2025 19:01:35 GMT-0600 (Central Standard Time),331468.59999996424,A,cl,I,l,300,1,1682.800000011921,329785.7999999523,8018,WL,B,1.0
2,2.115000009536743,learn,57884.99999046326,Tue Jan 21 2025 19:01:35 GMT-0600 (Central Standard Time),331901.39999997616,A,clo,I,o,414,1,2115.600000023842,329785.7999999523,8018,WL,B,1.0
2,2.8489999771118164,learn,57151.00002288818,Tue Jan 21 2025 19:01:35 GMT-0600 (Central Standard Time),332634.7999999523,A,cloc,I,c,710,1,2849.0,329785.7999999523,8018,WL,B,1.0
2,3.8489999771118164,learn,56151.00002288818,Tue Jan 21 2025 19:01:35 GMT-0600 (Central Standard Time),333634.59999996424,A,clock,I,k,985,1,3848.800000011921,329785.7999999523,8018,WL,B,1.0
2,5.247999906539917,learn,54752.00009346008,Tue Jan 21 2025 19:01:35 GMT-0600 (Central Standard Time),335034.09999996424,A,clockenter,I,enter,1376,1,5248.300000011921,329785.7999999523,8018,WL,B,1.0
2,6.680999994277954,learn,53319.000005722046,Tue Jan 21 2025 19:01:35 GMT-0600 (Central Standard Time),336466.89999997616,A,d,I,d,1417,1,1432.3999999761581,335034.5,8018,WL,B,2.0
2,7.096999883651733,learn,52903.00011634827,Tue Jan 21 2025 19:01:35 GMT-0600 (Central Standard Time),336883.1999999881,A,do,I,o,408,1,1848.699999988079,335034.5,8018,WL,B,2.0
2,7.396999835968018,learn,52603.00016403198,Tue Jan 21 2025 19:01:35 GMT-0600 (Central Standard Time),337183.39999997616,A,doo,I,o,280,1,2148.899999976158,335034.5,8018,WL,B,2.0
2,7.929999828338623,learn,52070.00017166138,Tue Jan 21 2025 19:01:35 GMT-0600 (Central Standard Time),337716.5,A,door,I,r,524,1,2682.0,335034.5,8018,WL,B,2.0
2,9.04699993133545,learn,50953.00006866455,Tue Jan 21 2025 19:01:35 GMT-0600 (Central Standard Time),338832.7999999523,A,doorenter,I,enter,1096,1,3798.2999999523163,335034.5,8018,WL,B,2.0
2,9.94599986076355,learn,50054.00013923645,Tue Jan 21 2025 19:01:35 GMT-0600 (Central Standard Time),339732.39999997616,A,s,I,s,890,1,899.1999999880791,338833.1999999881,8018,WL,B,3.0
2,10.480000019073486,learn,49519.999980926514,Tue Jan 21 2025 19:01:35 GMT-0600 (Central Standard Time),340265.5,A,sk,I,k,519,1,1432.300000011921,338833.1999999881,8018,WL,B,3.0
2,10.829999923706055,learn,49170.000076293945,Tue Jan 21 2025 19:01:35 GMT-0600 (Central Standard Time),340615.5,A,ski,I,i,329,1,1782.300000011921,338833.1999999881,8018,WL,B,3.0
2,11.27899980545044,learn,48721.00019454956,Tue Jan 21 2025 19:01:35 GMT-0600 (Central Standard Time),341065.39999997616,A,skin,I,n,427,1,2232.199999988079,338833.1999999881,8018,WL,B,3.0
2,12.145999908447266,learn,47854.000091552734,Tue Jan 21 2025 19:01:35 GMT-0600 (Central Standard Time),341931.7999999523,A,skinenter,I,enter,857,1,3098.599999964237,338833.1999999881,8018,WL,B,3.0
2,13.27899980545044,learn,46721.00019454956,Tue Jan 21 2025 19:01:35 GMT-0600 (Central Standard Time),343064.6999999881,A,f,I,f,1111,1,1132.5,341932.1999999881,8018,WL,B,4.0
2,13.811999797821045,learn,46188.000202178955,Tue Jan 21 2025 19:01:35 GMT-0600 (Central Standard Time),343597.7999999523,A,fi,I,i,524,1,1665.5999999642372,341932.1999999881,8018,WL,B,4.0
2,14.27899980545044,learn,45721.00019454956,Tue Jan 21 2025 19:01:35 GMT-0600 (Central Standard Time),344064.6999999881,A,fir,I,r,446,1,2132.5,341932.1999999881,8018,WL,B,4.0
2,14.578999996185303,learn,45421.0000038147,Tue Jan 21 2025 19:01:35 GMT-0600 (Central Standard Time),344364.5,A,fire,I,e,284,1,2432.300000011921,341932.1999999881,8018,WL,B,4.0
2,15.794999837875366,learn,44205.000162124634,Tue Jan 21 2025 19:01:35 GMT-0600 (Central Standard Time),345580.6999999881,A,fireenter,I,enter,1207,1,3648.5,341932.1999999881,8018,WL,B,4.0
2,16.960999965667725,learn,43039.000034332275,Tue Jan 21 2025 19:01:35 GMT-0600 (Central Standard Time),346747.1999999881,A,l,I,l,1144,1,1166.1000000238419,345581.09999996424,8018,WL,B,5.0
2,17.45199990272522,learn,42548.00009727478,Tue Jan 21 2025 19:01:35 GMT-0600 (Central Standard Time),347238.5,A,la,I,a,344,1,1657.4000000357628,345581.09999996424,8018,WL,B,5.0
2,17.76099991798401,learn,42239.00008201599,Tue Jan 21 2025 19:01:35 GMT-0600 (Central Standard Time),347546.7999999523,A,lak,I,k,301,1,1965.699999988079,345581.09999996424,8018,WL,B,5.0
2,18.310999870300293,learn,41689.00012969971,Tue Jan 21 2025 19:01:35 GMT-0600 (Central Standard Time),348096.59999996424,A,lake,I,e,530,1,2515.5,345581.09999996424,8018,WL,B,5.0
2,19.359999895095825,learn,40640.000104904175,Tue Jan 21 2025 19:01:35 GMT-0600 (Central Standard Time),349146.2999999523,A,lakeenter,I,enter,1026,1,3565.199999988079,345581.09999996424,8018,WL,B,5.0
2,20.05999994277954,learn,39940.00005722046,Tue Jan 21 2025 19:01:35 GMT-0600 (Central Standard Time),349846.0,A,c,I,c,689,1,699.4000000357628,349146.59999996424,8018,WL,B,6.0
2,20.459999799728394,learn,39540.00020027161,Tue Jan 21 2025 19:01:35 GMT-0600 (Central Standard Time),350245.89999997616,A,ca,I,a,388,1,1099.300000011921,349146.59999996424,8018,WL,B,6.0
2,20.825999975204468,learn,39174.00002479553,Tue Jan 21 2025 19:01:35 GMT-0600 (Central Standard Time),350612.2999999523,A,cab,I,b,350,1,1465.699999988079,349146.59999996424,8018,WL,B,6.0
2,21.192999839782715,learn,38807.000160217285,Tue Jan 21 2025 19:01:35 GMT-0600 (Central Standard Time),350978.89999997616,A,cabi,I,i,360,1,1832.300000011921,349146.59999996424,8018,WL,B,6.0
2,21.55999994277954,learn,38440.00005722046,Tue Jan 21 2025 19:01:35 GMT-0600 (Central Standard Time),351345.59999996424,A,cabin,I,n,354,1,2199.0,349146.59999996424,8018,WL,B,6.0
2,22.55900001525879,learn,37440.99998474121,Tue Jan 21 2025 19:01:35 GMT-0600 (Central Standard Time),352345.2999999523,A,cabinenter,I,enter,977,1,3198.699999988079,349146.59999996424,8018,WL,B,6.0
2,23.72599983215332,learn,36274.00016784668,Tue Jan 21 2025 19:01:35 GMT-0600 (Central Standard Time),353511.5,A,a,I,a,1145,1,1165.800000011921,352345.6999999881,8018,WL,B,7.0
2,25.274999856948853,learn,34725.00014305115,Tue Jan 21 2025 19:01:35 GMT-0600 (Central Standard Time),355061.1999999881,A,,I,backspace,1541,1,2715.5,352345.6999999881,8018,WL,B,7.0
2,26.090999841690063,learn,33909.00015830994,Tue Jan 21 2025 19:01:35 GMT-0600 (Central Standard Time),355877.39999997616,A,s,I,s,806,1,3531.699999988079,352345.6999999881,8018,WL,B,7.0
2,26.45799994468689,learn,33542.00005531311,Tue Jan 21 2025 19:01:35 GMT-0600 (Central Standard Time),356244.0,A,st,I,t,350,1,3898.300000011921,352345.6999999881,8018,WL,B,7.0
2,26.94099998474121,learn,33059.00001525879,Tue Jan 21 2025 19:01:35 GMT-0600 (Central Standard Time),356727.0,A,sta,I,a,463,1,4381.300000011921,352345.6999999881,8018,WL,B,7.0
2,27.457000017166138,learn,32542.999982833862,Tue Jan 21 2025 19:01:35 GMT-0600 (Central Standard Time),357243.39999997616,A,star,I,r,509,1,4897.699999988079,352345.6999999881,8018,WL,B,7.0
2,28.707000017166138,learn,31292.999982833862,Tue Jan 21 2025 19:01:35 GMT-0600 (Central Standard Time),358493.09999996424,A,starenter,I,enter,1232,1,6147.399999976158,352345.6999999881,8018,WL,B,7.0
2,30.52300000190735,learn,29476.99999809265,Tue Jan 21 2025 19:01:35 GMT-0600 (Central Standard Time),360309.09999996424,A,c,I,c,1798,1,1815.699999988079,358493.39999997616,8018,WL,B,8.0
2,31.02300000190735,learn,28976.99999809265,Tue Jan 21 2025 19:01:35 GMT-0600 (Central Standard Time),360809.39999997616,A,ci,I,i,477,1,2316.0,358493.39999997616,8018,WL,B,8.0
2,31.455999851226807,learn,28544.000148773193,Tue Jan 21 2025 19:01:35 GMT-0600 (Central Standard Time),361242.6999999881,A,cit,I,t,410,1,2749.300000011921,358493.39999997616,8018,WL,B,8.0
2,31.722999811172485,learn,28277.000188827515,Tue Jan 21 2025 19:01:35 GMT-0600 (Central Standard Time),361509.1999999881,A,city,I,y,249,1,3015.800000011921,358493.39999997616,8018,WL,B,8.0
2,32.788999795913696,learn,27211.000204086304,Tue Jan 21 2025 19:01:35 GMT-0600 (Central Standard Time),362575.5,A,cityenter,I,enter,1046,1,4082.100000023842,358493.39999997616,8018,WL,B,8.0
2,33.77199983596802,learn,26228.000164031982,Tue Jan 21 2025 19:01:35 GMT-0600 (Central Standard Time),363558.5,A,g,I,g,973,1,982.7000000476837,362575.7999999523,8018,WL,B,9.0
2,34.105000019073486,learn,25894.999980926514,Tue Jan 21 2025 19:01:35 GMT-0600 (Central Standard Time),363891.2999999523,A,gr,I,r,317,1,1315.5,362575.7999999523,8018,WL,B,9.0
2,34.43899989128113,learn,25561.000108718872,Tue Jan 21 2025 19:01:35 GMT-0600 (Central Standard Time),364224.6999999881,A,gra,I,a,321,1,1648.9000000357628,362575.7999999523,8018,WL,B,9.0
2,34.8219997882843,learn,25178.0002117157,Tue Jan 21 2025 19:01:35 GMT-0600 (Central Standard Time),364607.89999997616,A,gras,I,s,370,1,2032.1000000238419,362575.7999999523,8018,WL,B,9.0
2,35.0719997882843,learn,24928.0002117157,Tue Jan 21 2025 19:01:35 GMT-0600 (Central Standard Time),364858.0,A,grass,I,s,227,1,2282.2000000476837,362575.7999999523,8018,WL,B,9.0
2,35.83799982070923,learn,24162.00017929077,Tue Jan 21 2025 19:01:35 GMT-0600 (Central Standard Time),365624.5,A,grassenter,I,enter,754,1,3048.7000000476837,362575.7999999523,8018,WL,B,9.0
2,36.65499997138977,learn,23345.00002861023,Tue Jan 21 2025 19:01:35 GMT-0600 (Central Standard Time),366440.89999997616,A,a,I,a,804,1,816.1000000238419,365624.7999999523,8018,WL,B,10.0
2,37.00499987602234,learn,22995.00012397766,Tue Jan 21 2025 19:01:35 GMT-0600 (Central Standard Time),366790.7999999523,A,ar,I,r,330,1,1166.0,365624.7999999523,8018,WL,B,10.0
2,38.4539999961853,learn,21546.000003814697,Tue Jan 21 2025 19:01:35 GMT-0600 (Central Standard Time),368240.2999999523,A,arm,I,m,1436,1,2615.5,365624.7999999523,8018,WL,B,10.0
2,39.32099986076355,learn,20679.00013923645,Tue Jan 21 2025 19:01:35 GMT-0600 (Central Standard Time),369106.6999999881,A,armenter,I,enter,844,1,3481.900000035763,365624.7999999523,8018,WL,B,10.0
2,39.98699998855591,learn,20013.00001144409,Tue Jan 21 2025 19:01:35 GMT-0600 (Central Standard Time),369773.2999999523,A,p,I,p,648,1,666.1999999880791,369107.09999996424,8018,WL,B,11.0
2,40.48699998855591,learn,19513.00001144409,Tue Jan 21 2025 19:01:35 GMT-0600 (Central Standard Time),370273.0,A,pu,I,u,478,1,1165.9000000357628,369107.09999996424,8018,WL,B,11.0
2,41.014999866485596,learn,18985.000133514404,Tue Jan 21 2025 19:01:35 GMT-0600 (Central Standard Time),370800.6999999881,A,pup,I,p,520,1,1693.6000000238419,369107.09999996424,8018,WL,B,11.0
2,41.48599982261658,learn,18514.000177383423,Tue Jan 21 2025 19:01:35 GMT-0600 (Central Standard Time),371272.59999996424,A,pupi,I,i,451,1,2165.5,369107.09999996424,8018,WL,B,11.0
2,42.3529999256134,learn,17647.000074386597,Tue Jan 21 2025 19:01:35 GMT-0600 (Central Standard Time),372139.0,A,pupil,I,l,859,1,3031.900000035763,369107.09999996424,8018,WL,B,11.0
2,43.4689998626709,learn,16531.0001373291,Tue Jan 21 2025 19:01:35 GMT-0600 (Central Standard Time),373255.39999997616,A,pupilenter,I,enter,1097,1,4148.300000011921,369107.09999996424,8018,WL,B,11.0
2,44.45199990272522,learn,15548.00009727478,Tue Jan 21 2025 19:01:35 GMT-0600 (Central Standard Time),374238.5,A,w,I,w,972,1,982.7000000476837,373255.7999999523,8018,WL,B,12.0
2,44.9689998626709,learn,15031.000137329102,Tue Jan 21 2025 19:01:35 GMT-0600 (Central Standard Time),374755.0,A,wi,I,i,501,1,1499.2000000476837,373255.7999999523,8018,WL,B,12.0
2,45.51899981498718,learn,14481.000185012817,Tue Jan 21 2025 19:01:35 GMT-0600 (Central Standard Time),375305.09999996424,A,win,I,n,537,1,2049.300000011921,373255.7999999523,8018,WL,B,12.0
2,46.18499994277954,learn,13815.000057220459,Tue Jan 21 2025 19:01:35 GMT-0600 (Central Standard Time),375970.89999997616,A,wind,I,d,658,1,2715.100000023842,373255.7999999523,8018,WL,B,12.0
2,46.651999950408936,learn,13348.000049591064,Tue Jan 21 2025 19:01:35 GMT-0600 (Central Standard Time),376437.6999999881,A,windo,I,o,448,1,3181.900000035763,373255.7999999523,8018,WL,B,12.0
2,48.98399996757507,learn,11016.000032424927,Tue Jan 21 2025 19:01:35 GMT-0600 (Central Standard Time),378770.5,A,window,I,w,2318,1,5514.700000047684,373255.7999999523,8018,WL,B,12.0
2,51.049999952316284,learn,8950.000047683716,Tue Jan 21 2025 19:01:35 GMT-0600 (Central Standard Time),380836.1999999881,A,windowenter,I,enter,2050,1,7580.400000035763,373255.7999999523,8018,WL,B,12.0
2,52.41599988937378,learn,7584.000110626221,Tue Jan 21 2025 19:01:35 GMT-0600 (Central Standard Time),382202.59999996424,A,w,I,w,1351,1,1365.8999999761581,380836.6999999881,8018,WL,B,13.0
2,52.93299984931946,learn,7067.000150680542,Tue Jan 21 2025 19:01:35 GMT-0600 (Central Standard Time),382719.0,A,wi,I,i,497,1,1882.300000011921,380836.6999999881,8018,WL,B,13.0
2,53.46599984169006,learn,6534.0001583099365,Tue Jan 21 2025 19:01:35 GMT-0600 (Central Standard Time),383252.1999999881,A,wif,I,f,525,1,2415.5,380836.6999999881,8018,WL,B,13.0
2,53.948999881744385,learn,6051.000118255615,Tue Jan 21 2025 19:01:35 GMT-0600 (Central Standard Time),383735.5,A,wife,I,e,473,1,2898.800000011921,380836.6999999881,8018,WL,B,13.0
2,55.23199987411499,learn,4768.00012588501,Tue Jan 21 2025 19:01:35 GMT-0600 (Central Standard Time),385018.2999999523,A,wifeenter,I,enter,1260,1,4181.599999964237,380836.6999999881,8018,WL,B,13.0
2,57.89800000190735,learn,2101.9999980926514,Tue Jan 21 2025 19:01:35 GMT-0600 (Central Standard Time),387684.1999999881,A,s,I,s,2649,1,2665.600000023842,385018.59999996424,8018,WL,B,14.0
2,58.36500000953674,learn,1634.9999904632568,Tue Jan 21 2025 19:01:35 GMT-0600 (Central Standard Time),388150.89999997616,A,st,I,t,456,1,3132.300000011921,385018.59999996424,8018,WL,B,14.0
2,59.013999938964844,learn,986.0000610351562,Tue Jan 21 2025 19:01:35 GMT-0600 (Central Standard Time),388800.5,A,sta,I,a,636,1,3781.900000035763,385018.59999996424,8018,WL,B,14.0
2,59.33099985122681,learn,669.0001487731934,Tue Jan 21 2025 19:01:35 GMT-0600 (Central Standard Time),389117.0,A,star,I,r,299,1,4098.400000035763,385018.59999996424,8018,WL,B,14.0
2,59.98099994659424,learn,19.00005340576172,Tue Jan 21 2025 19:01:35 GMT-0600 (Central Standard Time),389766.89999997616,A,starenter,I,enter,638,1,4748.300000011921,385018.59999996424,8018,WL,B,14.0
2,60.013999938964844,learn,-13.99993896484375,Tue Jan 21 2025 19:01:35 GMT-0600 (Central Standard Time),389800.09999996424,A,None,I,None,26,1,32.89999997615814,389767.1999999881,8018,WL,B,15.0
3,1.3329999446868896,learn,58667.00005531311,Tue Jan 21 2025 19:01:35 GMT-0600 (Central Standard Time),465176.39999997616,A,c,I,c,1320,1,1332.800000011921,463843.59999996424,8018,WL,B,1.0
3,1.749000072479248,learn,58250.99992752075,Tue Jan 21 2025 19:01:35 GMT-0600 (Central Standard Time),465593.0,A,cl,I,l,404,1,1749.4000000357628,463843.59999996424,8018,WL,B,1.0
3,2.1489999294281006,learn,57851.0000705719,Tue Jan 21 2025 19:01:35 GMT-0600 (Central Standard Time),465993.0,A,clo,I,o,378,1,2149.400000035763,463843.59999996424,8018,WL,B,1.0
3,2.7160000801086426,learn,57283.99991989136,Tue Jan 21 2025 19:01:35 GMT-0600 (Central Standard Time),466559.59999996424,A,cloc,I,c,554,1,2716.0,463843.59999996424,8018,WL,B,1.0
3,3.5820000171661377,learn,56417.99998283386,Tue Jan 21 2025 19:01:35 GMT-0600 (Central Standard Time),467426.09999996424,A,clock,I,k,853,1,3582.5,463843.59999996424,8018,WL,B,1.0
3,4.815000057220459,learn,55184.99994277954,Tue Jan 21 2025 19:01:35 GMT-0600 (Central Standard Time),468658.7999999523,A,clockenter,I,enter,1217,1,4815.199999988079,463843.59999996424,8018,WL,B,1.0
3,6.081000089645386,learn,53918.999910354614,Tue Jan 21 2025 19:01:35 GMT-0600 (Central Standard Time),469925.09999996424,A,f,I,f,1248,1,1266.0,468659.09999996424,8018,WL,B,2.0
3,6.565000057220459,learn,53434.99994277954,Tue Jan 21 2025 19:01:35 GMT-0600 (Central Standard Time),470408.39999997616,A,fi,I,i,470,1,1749.300000011921,468659.09999996424,8018,WL,B,2.0
3,7.0309998989105225,learn,52969.00010108948,Tue Jan 21 2025 19:01:35 GMT-0600 (Central Standard Time),470874.89999997616,A,fir,I,r,460,1,2215.800000011921,468659.09999996424,8018,WL,B,2.0
3,7.513999938964844,learn,52486.000061035156,Tue Jan 21 2025 19:01:35 GMT-0600 (Central Standard Time),471358.09999996424,A,fire,I,e,464,1,2699.0,468659.09999996424,8018,WL,B,2.0
3,8.397000074386597,learn,51602.9999256134,Tue Jan 21 2025 19:01:35 GMT-0600 (Central Standard Time),472241.09999996424,A,fireenter,I,enter,861,1,3582.0,468659.09999996424,8018,WL,B,2.0
3,9.19700002670288,learn,50802.99997329712,Tue Jan 21 2025 19:01:35 GMT-0600 (Central Standard Time),473040.89999997616,A,s,I,s,786,1,799.3999999761581,472241.5,8018,WL,B,3.0
3,9.629999876022339,learn,50370.00012397766,Tue Jan 21 2025 19:01:35 GMT-0600 (Central Standard Time),473474.0,A,sk,I,k,410,1,1232.5,472241.5,8018,WL,B,3.0
3,9.94700002670288,learn,50052.99997329712,Tue Jan 21 2025 19:01:35 GMT-0600 (Central Standard Time),473790.5,A,ski,I,i,297,1,1549.0,472241.5,8018,WL,B,3.0
3,10.44700002670288,learn,49552.99997329712,Tue Jan 21 2025 19:01:35 GMT-0600 (Central Standard Time),474290.2999999523,A,skin,I,n,486,1,2048.7999999523163,472241.5,8018,WL,B,3.0
3,11.463000059127808,learn,48536.99994087219,Tue Jan 21 2025 19:01:35 GMT-0600 (Central Standard Time),475306.39999997616,A,skinenter,I,enter,1002,1,3064.899999976158,472241.5,8018,WL,B,3.0
3,12.162999868392944,learn,47837.000131607056,Tue Jan 21 2025 19:01:35 GMT-0600 (Central Standard Time),476006.6999999881,A,a,I,a,683,1,700.0,475306.6999999881,8018,WL,B,4.0
3,12.546000003814697,learn,47453.9999961853,Tue Jan 21 2025 19:01:35 GMT-0600 (Central Standard Time),476389.59999996424,A,ar,I,r,365,1,1082.8999999761581,475306.6999999881,8018,WL,B,4.0
3,13.59500002861023,learn,46404.99997138977,Tue Jan 21 2025 19:01:35 GMT-0600 (Central Standard Time),477439.5,A,arm,I,m,1029,1,2132.800000011921,475306.6999999881,8018,WL,B,4.0
3,14.844000101089478,learn,45155.99989891052,Tue Jan 21 2025 19:01:35 GMT-0600 (Central Standard Time),478689.09999996424,A,armenter,I,enter,1228,1,3382.399999976158,475306.6999999881,8018,WL,B,4.0
3,15.759999990463257,learn,44240.00000953674,Tue Jan 21 2025 19:01:35 GMT-0600 (Central Standard Time),479605.5,A,p,I,p,898,1,916.1000000238419,478689.39999997616,8018,WL,B,5.0
3,16.30999994277954,learn,43690.00005722046,Tue Jan 21 2025 19:01:35 GMT-0600 (Central Standard Time),480155.09999996424,A,pu,I,u,542,1,1465.699999988079,478689.39999997616,8018,WL,B,5.0
3,16.943000078201294,learn,43056.999921798706,Tue Jan 21 2025 19:01:35 GMT-0600 (Central Standard Time),480788.5,A,pup,I,p,617,1,2099.100000023842,478689.39999997616,8018,WL,B,5.0
3,17.377000093460083,learn,42622.99990653992,Tue Jan 21 2025 19:01:35 GMT-0600 (Central Standard Time),481221.59999996424,A,pupi,I,i,416,1,2532.199999988079,478689.39999997616,8018,WL,B,5.0
3,17.91000008583069,learn,42089.99991416931,Tue Jan 21 2025 19:01:35 GMT-0600 (Central Standard Time),481754.89999997616,A,pupil,I,l,526,1,3065.5,478689.39999997616,8018,WL,B,5.0
3,18.89299988746643,learn,41107.00011253357,Tue Jan 21 2025 19:01:35 GMT-0600 (Central Standard Time),482737.6999999881,A,pupilenter,I,enter,969,1,4048.300000011921,478689.39999997616,8018,WL,B,5.0
3,19.693000078201294,learn,40306.999921798706,Tue Jan 21 2025 19:01:35 GMT-0600 (Central Standard Time),483537.6999999881,A,c,I,c,778,1,799.6999999880791,482738.0,8018,WL,B,6.0
3,20.30900001525879,learn,39690.99998474121,Tue Jan 21 2025 19:01:35 GMT-0600 (Central Standard Time),484154.09999996424,A,ci,I,i,603,1,1416.0999999642372,482738.0,8018,WL,B,6.0
3,20.776000022888184,learn,39223.99997711182,Tue Jan 21 2025 19:01:35 GMT-0600 (Central Standard Time),484620.59999996424,A,cit,I,t,449,1,1882.5999999642372,482738.0,8018,WL,B,6.0
3,21.05900001525879,learn,38940.99998474121,Tue Jan 21 2025 19:01:35 GMT-0600 (Central Standard Time),484903.7999999523,A,city,I,y,262,1,2165.7999999523163,482738.0,8018,WL,B,6.0
3,21.924999952316284,learn,38075.000047683716,Tue Jan 21 2025 19:01:35 GMT-0600 (Central Standard Time),485770.2999999523,A,cityenter,I,enter,851,1,3032.2999999523163,482738.0,8018,WL,B,6.0
3,23.342000007629395,learn,36657.999992370605,Tue Jan 21 2025 19:01:35 GMT-0600 (Central Standard Time),487186.59999996424,A,l,I,l,1393,1,1416.0,485770.59999996424,8018,WL,B,7.0
3,23.757999897003174,learn,36242.000102996826,Tue Jan 21 2025 19:01:35 GMT-0600 (Central Standard Time),487603.1999999881,A,la,I,a,394,1,1832.6000000238419,485770.59999996424,8018,WL,B,7.0
3,24.719000101089478,learn,35280.99989891052,Tue Jan 21 2025 19:01:35 GMT-0600 (Central Standard Time),488564.1999999881,A,lak,I,k,954,1,2793.600000023842,485770.59999996424,8018,WL,B,7.0
3,25.19099998474121,learn,34809.00001525879,Tue Jan 21 2025 19:01:35 GMT-0600 (Central Standard Time),489035.7999999523,A,lake,I,e,455,1,3265.199999988079,485770.59999996424,8018,WL,B,7.0
3,26.174000024795532,learn,33825.99997520447,Tue Jan 21 2025 19:01:35 GMT-0600 (Central Standard Time),490018.89999997616,A,lakeenter,I,enter,976,1,4248.300000011921,485770.59999996424,8018,WL,B,7.0
3,26.7739999294281,learn,33226.0000705719,Tue Jan 21 2025 19:01:35 GMT-0600 (Central Standard Time),490618.7999999523,A,p,I,p,585,1,599.5,490019.2999999523,8018,WL,B,8.0
3,27.174000024795532,learn,32825.99997520447,Tue Jan 21 2025 19:01:35 GMT-0600 (Central Standard Time),491018.59999996424,A,pi,I,i,378,1,999.3000000119209,490019.2999999523,8018,WL,B,8.0
3,27.67300009727478,learn,32326.99990272522,Tue Jan 21 2025 19:01:35 GMT-0600 (Central Standard Time),491518.2999999523,A,pip,I,p,480,1,1499.0,490019.2999999523,8018,WL,B,8.0
3,28.256999969482422,learn,31743.000030517578,Tue Jan 21 2025 19:01:35 GMT-0600 (Central Standard Time),492101.59999996424,A,pipe,I,e,566,1,2082.300000011921,490019.2999999523,8018,WL,B,8.0
3,29.473000049591064,learn,30526.999950408936,Tue Jan 21 2025 19:01:35 GMT-0600 (Central Standard Time),493317.7999999523,A,pipeenter,I,enter,1199,1,3298.5,490019.2999999523,8018,WL,B,8.0
3,31.23900008201599,learn,28760.99991798401,Tue Jan 21 2025 19:01:35 GMT-0600 (Central Standard Time),495084.0,A,l,I,l,1751,1,1765.9000000357628,493318.09999996424,8018,WL,B,9.0
3,31.57200002670288,learn,28427.99997329712,Tue Jan 21 2025 19:01:35 GMT-0600 (Central Standard Time),495417.09999996424,A,la,I,a,319,1,2099.0,493318.09999996424,8018,WL,B,9.0
3,32.18899989128113,learn,27811.000108718872,Tue Jan 21 2025 19:01:35 GMT-0600 (Central Standard Time),496033.7999999523,A,lak,I,k,594,1,2715.699999988079,493318.09999996424,8018,WL,B,9.0
3,32.72199988365173,learn,27278.000116348267,Tue Jan 21 2025 19:01:35 GMT-0600 (Central Standard Time),496566.6999999881,A,lake,I,e,514,1,3248.600000023842,493318.09999996424,8018,WL,B,9.0
3,34.037999868392944,learn,25962.000131607056,Tue Jan 21 2025 19:01:35 GMT-0600 (Central Standard Time),497883.09999996424,A,lakeenter,I,enter,1292,1,4565.0,493318.09999996424,8018,WL,B,9.0
3,37.437000036239624,learn,22562.999963760376,Tue Jan 21 2025 19:01:35 GMT-0600 (Central Standard Time),501282.09999996424,A,d,I,d,3376,1,3398.699999988079,497883.39999997616,8018,WL,B,10.0
3,38.65299987792969,learn,21347.000122070312,Tue Jan 21 2025 19:01:35 GMT-0600 (Central Standard Time),502498.39999997616,A,do,I,o,1202,1,4615.0,497883.39999997616,8018,WL,B,10.0
3,38.90299987792969,learn,21097.000122070312,Tue Jan 21 2025 19:01:35 GMT-0600 (Central Standard Time),502748.39999997616,A,doo,I,o,233,1,4865.0,497883.39999997616,8018,WL,B,10.0
3,39.55299997329712,learn,20447.00002670288,Tue Jan 21 2025 19:01:35 GMT-0600 (Central Standard Time),503398.0,A,door,I,r,632,1,5514.600000023842,497883.39999997616,8018,WL,B,10.0
3,40.236000061035156,learn,19763.999938964844,Tue Jan 21 2025 19:01:35 GMT-0600 (Central Standard Time),504081.09999996424,A,doorenter,I,enter,661,1,6197.699999988079,497883.39999997616,8018,WL,B,10.0
3,40.85199999809265,learn,19148.00000190735,Tue Jan 21 2025 19:01:35 GMT-0600 (Central Standard Time),504697.59999996424,A,w,I,w,603,1,616.1999999880791,504081.39999997616,8018,WL,B,11.0
3,41.253000020980835,learn,18746.999979019165,Tue Jan 21 2025 19:01:35 GMT-0600 (Central Standard Time),505097.59999996424,A,wi,I,i,377,1,1016.1999999880791,504081.39999997616,8018,WL,B,11.0
3,41.63599991798401,learn,18364.00008201599,Tue Jan 21 2025 19:01:35 GMT-0600 (Central Standard Time),505480.89999997616,A,win,I,n,370,1,1399.5,504081.39999997616,8018,WL,B,11.0
3,42.13499999046326,learn,17865.000009536743,Tue Jan 21 2025 19:01:35 GMT-0600 (Central Standard Time),505980.39999997616,A,wind,I,d,490,1,1899.0,504081.39999997616,8018,WL,B,11.0
3,42.55200004577637,learn,17447.999954223633,Tue Jan 21 2025 19:01:35 GMT-0600 (Central Standard Time),506397.09999996424,A,windo,I,o,398,1,2315.699999988079,504081.39999997616,8018,WL,B,11.0
3,43.60199999809265,learn,16398.00000190735,Tue Jan 21 2025 19:01:35 GMT-0600 (Central Standard Time),507446.89999997616,A,window,I,w,1030,1,3365.5,504081.39999997616,8018,WL,B,11.0
3,45.01799988746643,learn,14982.00011253357,Tue Jan 21 2025 19:01:35 GMT-0600 (Central Standard Time),508862.89999997616,A,windowenter,I,enter,1396,1,4781.5,504081.39999997616,8018,WL,B,11.0
3,47.68400001525879,learn,12315.999984741211,Tue Jan 21 2025 19:01:35 GMT-0600 (Central Standard Time),511528.6999999881,A,s,I,s,2644,1,2665.400000035763,508863.2999999523,8018,WL,B,12.0
3,48.11199998855591,learn,11888.000011444092,Tue Jan 21 2025 19:01:35 GMT-0600 (Central Standard Time),511957.1999999881,A,st,I,t,421,1,3093.900000035763,508863.2999999523,8018,WL,B,12.0
3,48.58299994468689,learn,11417.00005531311,Tue Jan 21 2025 19:01:35 GMT-0600 (Central Standard Time),512428.5,A,sta,I,a,455,1,3565.2000000476837,508863.2999999523,8018,WL,B,12.0
3,48.93400001525879,learn,11065.999984741211,Tue Jan 21 2025 19:01:35 GMT-0600 (Central Standard Time),512778.5,A,star,I,r,343,1,3915.2000000476837,508863.2999999523,8018,WL,B,12.0
3,50.25,learn,9750.0,Tue Jan 21 2025 19:01:35 GMT-0600 (Central Standard Time),514094.7999999523,A,starenter,I,enter,1305,1,5231.5,508863.2999999523,8018,WL,B,12.0
3,59.812999963760376,learn,187.00003623962402,Tue Jan 21 2025 19:01:35 GMT-0600 (Central Standard Time),523658.39999997616,A,g,I,g,9548,1,9563.100000023842,514095.2999999523,8018,WL,B,13.0
3,60.01300001144409,learn,-13.000011444091797,Tue Jan 21 2025 19:01:35 GMT-0600 (Central Standard Time),523858.1999999881,A,gNone,I,None,193,1,9762.900000035763,514095.2999999523,8018,WL,B,13.0
4,1.8329999446868896,learn,58167.00005531311,Tue Jan 21 2025 19:01:35 GMT-0600 (Central Standard Time),600584.2999999523,A,c,I,c,1821,1,1832.5,598751.7999999523,8018,WL,B,1.0
4,2.2990000247955322,learn,57700.99997520447,Tue Jan 21 2025 19:01:35 GMT-0600 (Central Standard Time),601050.6999999881,A,cl,I,l,451,1,2298.900000035763,598751.7999999523,8018,WL,B,1.0
4,2.6659998893737793,learn,57334.00011062622,Tue Jan 21 2025 19:01:35 GMT-0600 (Central Standard Time),601417.2999999523,A,clo,I,o,353,1,2665.5,598751.7999999523,8018,WL,B,1.0
4,3.1659998893737793,learn,56834.00011062622,Tue Jan 21 2025 19:01:35 GMT-0600 (Central Standard Time),601917.1999999881,A,cloc,I,c,483,1,3165.400000035763,598751.7999999523,8018,WL,B,1.0
4,3.865000009536743,learn,56134.99999046326,Tue Jan 21 2025 19:01:35 GMT-0600 (Central Standard Time),602616.7999999523,A,clock,I,k,678,1,3865.0,598751.7999999523,8018,WL,B,1.0
4,4.881999969482422,learn,55118.00003051758,Tue Jan 21 2025 19:01:35 GMT-0600 (Central Standard Time),603633.2999999523,A,clockenter,I,enter,1003,1,4881.5,598751.7999999523,8018,WL,B,1.0
4,5.947999954223633,learn,54052.00004577637,Tue Jan 21 2025 19:01:35 GMT-0600 (Central Standard Time),604699.6999999881,A,f,I,f,1051,1,1066.0,603633.6999999881,8018,WL,B,2.0
4,6.3480000495910645,learn,53651.999950408936,Tue Jan 21 2025 19:01:35 GMT-0600 (Central Standard Time),605099.5,A,fi,I,i,383,1,1465.800000011921,603633.6999999881,8018,WL,B,2.0
4,6.797999858856201,learn,53202.0001411438,Tue Jan 21 2025 19:01:35 GMT-0600 (Central Standard Time),605549.5,A,fir,I,r,432,1,1915.800000011921,603633.6999999881,8018,WL,B,2.0
4,7.297999858856201,learn,52702.0001411438,Tue Jan 21 2025 19:01:35 GMT-0600 (Central Standard Time),606049.2999999523,A,fire,I,e,486,1,2415.599999964237,603633.6999999881,8018,WL,B,2.0
4,8.246999979019165,learn,51753.000020980835,Tue Jan 21 2025 19:01:35 GMT-0600 (Central Standard Time),606998.8999999762,A,fireenter,I,enter,931,1,3365.199999988079,603633.6999999881,8018,WL,B,2.0
4,9.263999938964844,learn,50736.000061035156,Tue Jan 21 2025 19:01:35 GMT-0600 (Central Standard Time),608015.3999999762,A,s,I,s,1006,1,1016.1999999880791,606999.1999999881,8018,WL,B,3.0
4,9.646999835968018,learn,50353.00016403198,Tue Jan 21 2025 19:01:35 GMT-0600 (Central Standard Time),608398.6999999881,A,sk,I,k,373,1,1399.5,606999.1999999881,8018,WL,B,3.0
4,10.04699993133545,learn,49953.00006866455,Tue Jan 21 2025 19:01:35 GMT-0600 (Central Standard Time),608798.5,A,ski,I,i,380,1,1799.300000011921,606999.1999999881,8018,WL,B,3.0
4,10.513000011444092,learn,49486.99998855591,Tue Jan 21 2025 19:01:35 GMT-0600 (Central Standard Time),609264.8999999762,A,skin,I,n,445,1,2265.699999988079,606999.1999999881,8018,WL,B,3.0
4,11.395999908447266,learn,48604.000091552734,Tue Jan 21 2025 19:01:35 GMT-0600 (Central Standard Time),610147.7999999523,A,skinenter,I,enter,867,1,3148.599999964237,606999.1999999881,8018,WL,B,3.0
4,12.062999963760376,learn,47937.000036239624,Tue Jan 21 2025 19:01:35 GMT-0600 (Central Standard Time),610814.3999999762,A,p,I,p,648,1,666.1999999880791,610148.1999999881,8018,WL,B,4.0
4,12.513000011444092,learn,47486.99998855591,Tue Jan 21 2025 19:01:35 GMT-0600 (Central Standard Time),611264.2999999523,A,pu,I,u,429,1,1116.0999999642372,610148.1999999881,8018,WL,B,4.0
4,13.046000003814697,learn,46953.9999961853,Tue Jan 21 2025 19:01:35 GMT-0600 (Central Standard Time),611797.5,A,pup,I,p,515,1,1649.300000011921,610148.1999999881,8018,WL,B,4.0
4,13.611999988555908,learn,46388.00001144409,Tue Jan 21 2025 19:01:35 GMT-0600 (Central Standard Time),612363.8999999762,A,pupi,I,i,558,1,2215.699999988079,610148.1999999881,8018,WL,B,4.0
4,14.128999948501587,learn,45871.00005149841,Tue Jan 21 2025 19:01:35 GMT-0600 (Central Standard Time),612880.3999999762,A,pupil,I,l,504,1,2732.199999988079,610148.1999999881,8018,WL,B,4.0
4,15.078999996185303,learn,44921.0000038147,Tue Jan 21 2025 19:01:35 GMT-0600 (Central Standard Time),613830.0999999642,A,pupilenter,I,enter,941,1,3681.899999976158,610148.1999999881,8018,WL,B,4.0
4,15.977999925613403,learn,44022.0000743866,Tue Jan 21 2025 19:01:35 GMT-0600 (Central Standard Time),614729.7999999523,A,a,I,a,885,1,899.3999999761581,613830.3999999762,8018,WL,B,5.0
4,16.41100001335144,learn,43588.99998664856,Tue Jan 21 2025 19:01:35 GMT-0600 (Central Standard Time),615163.0,A,ar,I,r,417,1,1332.6000000238419,613830.3999999762,8018,WL,B,5.0
4,17.727999925613403,learn,42272.0000743866,Tue Jan 21 2025 19:01:35 GMT-0600 (Central Standard Time),616479.3999999762,A,arm,I,m,1304,1,2649.0,613830.3999999762,8018,WL,B,5.0
4,18.793999910354614,learn,41206.000089645386,Tue Jan 21 2025 19:01:35 GMT-0600 (Central Standard Time),617545.7999999523,A,armenter,I,enter,1053,1,3715.399999976158,613830.3999999762,8018,WL,B,5.0
4,19.793999910354614,learn,40206.000089645386,Tue Jan 21 2025 19:01:35 GMT-0600 (Central Standard Time),618545.5,A,c,I,c,979,1,999.3000000119209,617546.1999999881,8018,WL,B,6.0
4,20.427000045776367,learn,39572.99995422363,Tue Jan 21 2025 19:01:35 GMT-0600 (Central Standard Time),619178.5,A,ci,I,i,611,1,1632.300000011921,617546.1999999881,8018,WL,B,6.0
4,20.878000020980835,learn,39121.999979019165,Tue Jan 21 2025 19:01:35 GMT-0600 (Central Standard Time),619629.3999999762,A,cit,I,t,434,1,2083.199999988079,617546.1999999881,8018,WL,B,6.0
4,21.07699990272522,learn,38923.00009727478,Tue Jan 21 2025 19:01:35 GMT-0600 (Central Standard Time),619828.2999999523,A,city,I,y,182,1,2282.099999964237,617546.1999999881,8018,WL,B,6.0
4,22.30999994277954,learn,37690.00005722046,Tue Jan 21 2025 19:01:35 GMT-0600 (Central Standard Time),621061.1999999881,A,cityenter,I,enter,1224,1,3515.0,617546.1999999881,8018,WL,B,6.0
4,23.875999927520752,learn,36124.00007247925,Tue Jan 21 2025 19:01:35 GMT-0600 (Central Standard Time),622627.5,A,p,I,p,1551,1,1566.0,621061.5,8018,WL,B,7.0
4,24.29200005531311,learn,35707.99994468689,Tue Jan 21 2025 19:01:35 GMT-0600 (Central Standard Time),623043.7999999523,A,pi,I,i,400,1,1982.2999999523163,621061.5,8018,WL,B,7.0
4,24.758999824523926,learn,35241.000175476074,Tue Jan 21 2025 19:01:35 GMT-0600 (Central Standard Time),623510.3999999762,A,pip,I,p,448,1,2448.899999976158,621061.5,8018,WL,B,7.0
4,25.941999912261963,learn,34058.00008773804,Tue Jan 21 2025 19:01:35 GMT-0600 (Central Standard Time),624693.3999999762,A,pipe,I,e,1165,1,3631.899999976158,621061.5,8018,WL,B,7.0
4,27.557999849319458,learn,32442.000150680542,Tue Jan 21 2025 19:01:35 GMT-0600 (Central Standard Time),626309.5999999642,A,pipeenter,I,enter,1599,1,5248.099999964237,621061.5,8018,WL,B,7.0
4,28.473999977111816,learn,31526.000022888184,Tue Jan 21 2025 19:01:35 GMT-0600 (Central Standard Time),627225.7999999523,A,l,I,l,902,1,915.7999999523163,626310.0,8018,WL,B,8.0
4,29.024999856948853,learn,30975.000143051147,Tue Jan 21 2025 19:01:35 GMT-0600 (Central Standard Time),627776.7999999523,A,li,I,i,529,1,1466.7999999523163,626310.0,8018,WL,B,8.0
4,29.723999977111816,learn,30276.000022888184,Tue Jan 21 2025 19:01:35 GMT-0600 (Central Standard Time),628475.3999999762,A,lig,I,g,691,1,2165.399999976158,626310.0,8018,WL,B,8.0
4,30.073999881744385,learn,29926.000118255615,Tue Jan 21 2025 19:01:35 GMT-0600 (Central Standard Time),628825.5,A,ligh,I,h,337,1,2515.5,626310.0,8018,WL,B,8.0
4,30.573999881744385,learn,29426.000118255615,Tue Jan 21 2025 19:01:35 GMT-0600 (Central Standard Time),629325.3999999762,A,light,I,t,491,1,3015.399999976158,626310.0,8018,WL,B,8.0
4,31.955999851226807,learn,28044.000148773193,Tue Jan 21 2025 19:01:35 GMT-0600 (Central Standard Time),630708.0,A,lightenter,I,enter,1366,1,4398.0,626310.0,8018,WL,B,8.0
4,32.90599989891052,learn,27094.000101089478,Tue Jan 21 2025 19:01:35 GMT-0600 (Central Standard Time),631658.0,A,s,I,s,927,1,949.7000000476837,630708.2999999523,8018,WL,B,9.0
4,33.27300000190735,learn,26726.99999809265,Tue Jan 21 2025 19:01:35 GMT-0600 (Central Standard Time),632024.3999999762,A,st,I,t,346,1,1316.1000000238419,630708.2999999523,8018,WL,B,9.0
4,33.57299995422363,learn,26427.000045776367,Tue Jan 21 2025 19:01:35 GMT-0600 (Central Standard Time),632324.5,A,sta,I,a,291,1,1616.2000000476837,630708.2999999523,8018,WL,B,9.0
4,33.9229998588562,learn,26077.0001411438,Tue Jan 21 2025 19:01:35 GMT-0600 (Central Standard Time),632674.3999999762,A,star,I,r,326,1,1966.1000000238419,630708.2999999523,8018,WL,B,9.0
4,34.60599994659424,learn,25394.00005340576,Tue Jan 21 2025 19:01:35 GMT-0600 (Central Standard Time),633357.3999999762,A,starenter,I,enter,665,1,2649.100000023842,630708.2999999523,8018,WL,B,9.0
4,35.27199983596802,learn,24728.000164031982,Tue Jan 21 2025 19:01:35 GMT-0600 (Central Standard Time),634023.8999999762,A,g,I,g,646,1,666.1000000238419,633357.7999999523,8018,WL,B,10.0
4,35.621999979019165,learn,24378.000020980835,Tue Jan 21 2025 19:01:35 GMT-0600 (Central Standard Time),634373.7999999523,A,gr,I,r,333,1,1016.0,633357.7999999523,8018,WL,B,10.0
4,35.98899984359741,learn,24011.000156402588,Tue Jan 21 2025 19:01:35 GMT-0600 (Central Standard Time),634740.1999999881,A,gra,I,a,350,1,1382.4000000357628,633357.7999999523,8018,WL,B,10.0
4,36.38800001144409,learn,23611.99998855591,Tue Jan 21 2025 19:01:35 GMT-0600 (Central Standard Time),635140.0,A,gras,I,s,384,1,1782.2000000476837,633357.7999999523,8018,WL,B,10.0
4,36.67199993133545,learn,23328.00006866455,Tue Jan 21 2025 19:01:35 GMT-0600 (Central Standard Time),635423.5,A,grass,I,s,265,1,2065.7000000476837,633357.7999999523,8018,WL,B,10.0
4,37.48899984359741,learn,22511.000156402588,Tue Jan 21 2025 19:01:35 GMT-0600 (Central Standard Time),636240.8999999762,A,grassenter,I,enter,805,1,2883.100000023842,633357.7999999523,8018,WL,B,10.0
4,38.105000019073486,learn,21894.999980926514,Tue Jan 21 2025 19:01:35 GMT-0600 (Central Standard Time),636856.2999999523,A,d,I,d,602,1,615.0999999642372,636241.1999999881,8018,WL,B,11.0
4,38.50399994850159,learn,21496.000051498413,Tue Jan 21 2025 19:01:35 GMT-0600 (Central Standard Time),637256.0999999642,A,do,I,o,388,1,1014.8999999761581,636241.1999999881,8018,WL,B,11.0
4,38.787999868392944,learn,21212.000131607056,Tue Jan 21 2025 19:01:35 GMT-0600 (Central Standard Time),637539.1999999881,A,doo,I,o,275,1,1298.0,636241.1999999881,8018,WL,B,11.0
4,39.38800001144409,learn,20611.99998855591,Tue Jan 21 2025 19:01:35 GMT-0600 (Central Standard Time),638139.2999999523,A,door,I,r,585,1,1898.0999999642372,636241.1999999881,8018,WL,B,11.0
4,40.603999853134155,learn,19396.000146865845,Tue Jan 21 2025 19:01:35 GMT-0600 (Central Standard Time),639355.5999999642,A,doorenter,I,enter,1201,1,3114.399999976158,636241.1999999881,8018,WL,B,11.0
4,41.437000036239624,learn,18562.999963760376,Tue Jan 21 2025 19:01:35 GMT-0600 (Central Standard Time),640188.6999999881,A,w,I,w,816,1,832.6000000238419,639356.0999999642,8018,WL,B,12.0
4,41.937000036239624,learn,18062.999963760376,Tue Jan 21 2025 19:01:35 GMT-0600 (Central Standard Time),640688.5,A,wi,I,i,479,1,1332.4000000357628,639356.0999999642,8018,WL,B,12.0
4,42.36999988555908,learn,17630.000114440918,Tue Jan 21 2025 19:01:35 GMT-0600 (Central Standard Time),641121.5999999642,A,win,I,n,411,1,1765.5,639356.0999999642,8018,WL,B,12.0
4,42.753000020980835,learn,17246.999979019165,Tue Jan 21 2025 19:01:35 GMT-0600 (Central Standard Time),641504.7999999523,A,wind,I,d,363,1,2148.699999988079,639356.0999999642,8018,WL,B,12.0
4,43.23599982261658,learn,16764.000177383423,Tue Jan 21 2025 19:01:35 GMT-0600 (Central Standard Time),641987.8999999762,A,windo,I,o,467,1,2631.800000011921,639356.0999999642,8018,WL,B,12.0
4,44.28600001335144,learn,15713.99998664856,Tue Jan 21 2025 19:01:35 GMT-0600 (Central Standard Time),643037.7999999523,A,window,I,w,1040,1,3681.699999988079,639356.0999999642,8018,WL,B,12.0
4,45.73599982261658,learn,14264.000177383423,Tue Jan 21 2025 19:01:35 GMT-0600 (Central Standard Time),644487.1999999881,A,windowenter,I,enter,1439,1,5131.100000023842,639356.0999999642,8018,WL,B,12.0
4,48.50099992752075,learn,11499.000072479248,Tue Jan 21 2025 19:01:35 GMT-0600 (Central Standard Time),647253.0,A,s,I,s,2757,1,2765.5,644487.5,8018,WL,B,13.0
4,48.83500003814697,learn,11164.999961853027,Tue Jan 21 2025 19:01:35 GMT-0600 (Central Standard Time),647586.1999999881,A,st,I,t,319,1,3098.699999988079,644487.5,8018,WL,B,13.0
4,49.11800003051758,learn,10881.999969482422,Tue Jan 21 2025 19:01:35 GMT-0600 (Central Standard Time),647869.5999999642,A,str,I,r,265,1,3382.099999964237,644487.5,8018,WL,B,13.0
4,49.43499994277954,learn,10565.000057220459,Tue Jan 21 2025 19:01:35 GMT-0600 (Central Standard Time),648186.0999999642,A,stre,I,e,293,1,3698.599999964237,644487.5,8018,WL,B,13.0
4,49.61800003051758,learn,10381.999969482422,Tue Jan 21 2025 19:01:35 GMT-0600 (Central Standard Time),648369.3999999762,A,stree,I,e,162,1,3881.899999976158,644487.5,8018,WL,B,13.0
4,50.46799993515015,learn,9532.000064849854,Tue Jan 21 2025 19:01:35 GMT-0600 (Central Standard Time),649219.0999999642,A,street,I,t,827,1,4731.599999964237,644487.5,8018,WL,B,13.0
4,51.717000007629395,learn,8282.999992370605,Tue Jan 21 2025 19:01:35 GMT-0600 (Central Standard Time),650468.5999999642,A,streetenter,I,enter,1241,1,5981.099999964237,644487.5,8018,WL,B,13.0
4,53.91599988937378,learn,6084.000110626221,Tue Jan 21 2025 19:01:35 GMT-0600 (Central Standard Time),652668.0,A,a,I,a,2193,1,2199.100000023842,650468.8999999762,8018,WL,B,14.0
4,54.69599986076355,learn,5304.00013923645,Tue Jan 21 2025 19:01:35 GMT-0600 (Central Standard Time),653447.1999999881,A,ar,I,r,755,1,2978.300000011921,650468.8999999762,8018,WL,B,14.0
4,56.031999826431274,learn,3968.0001735687256,Tue Jan 21 2025 19:01:35 GMT-0600 (Central Standard Time),654784.0,A,arm,I,m,1316,1,4315.100000023842,650468.8999999762,8018,WL,B,14.0
4,56.63199996948242,learn,3368.000030517578,Tue Jan 21 2025 19:01:35 GMT-0600 (Central Standard Time),655383.5999999642,A,armenter,I,enter,588,1,4914.699999988079,650468.8999999762,8018,WL,B,14.0
4,60.01300001144409,learn,-13.000011444091797,Tue Jan 21 2025 19:01:35 GMT-0600 (Central Standard Time),658765.8999999762,A,None,I,None,3376,1,3382.0,655383.8999999762,8018,WL,B,15.0
5,1.315999984741211,learn,60000.0,Tue Jan 21 2025 19:01:35 GMT-0600 (Central Standard Time),735142.2999999523,A,c,I,c,1297,1,1316.199999988079,733826.0999999642,8018,WL,B,1.0
5,1.7159998416900635,learn,60000.0,Tue Jan 21 2025 19:01:35 GMT-0600 (Central Standard Time),735542.2999999523,A,cl,I,l,390,1,1716.199999988079,733826.0999999642,8018,WL,B,1.0
5,2.0829999446868896,learn,60000.0,Tue Jan 21 2025 19:01:35 GMT-0600 (Central Standard Time),735908.5999999642,A,clo,I,o,350,1,2082.5,733826.0999999642,8018,WL,B,1.0
5,3.0160000324249268,learn,60000.0,Tue Jan 21 2025 19:01:35 GMT-0600 (Central Standard Time),736841.5,A,cloc,I,c,911,1,3015.400000035763,733826.0999999642,8018,WL,B,1.0
5,3.6649999618530273,learn,60000.0,Tue Jan 21 2025 19:01:35 GMT-0600 (Central Standard Time),737491.3999999762,A,clock,I,k,643,1,3665.300000011921,733826.0999999642,8018,WL,B,1.0
5,4.748999834060669,learn,60000.0,Tue Jan 21 2025 19:01:35 GMT-0600 (Central Standard Time),738574.5999999642,A,clockenter,I,enter,1066,1,4748.5,733826.0999999642,8018,WL,B,1.0
5,5.847999811172485,learn,60000.0,Tue Jan 21 2025 19:01:35 GMT-0600 (Central Standard Time),739674.0999999642,A,f,I,f,1077,1,1099.0999999642372,738575.0,8018,WL,B,2.0
5,6.264999866485596,learn,60000.0,Tue Jan 21 2025 19:01:35 GMT-0600 (Central Standard Time),740090.8999999762,A,fi,I,i,393,1,1515.8999999761581,738575.0,8018,WL,B,2.0
5,6.680999994277954,learn,60000.0,Tue Jan 21 2025 19:01:35 GMT-0600 (Central Standard Time),740507.0,A,fir,I,r,409,1,1932.0,738575.0,8018,WL,B,2.0
5,7.115000009536743,learn,60000.0,Tue Jan 21 2025 19:01:35 GMT-0600 (Central Standard Time),740940.3999999762,A,fire,I,e,425,1,2365.399999976158,738575.0,8018,WL,B,2.0
5,8.047999858856201,learn,60000.0,Tue Jan 21 2025 19:01:35 GMT-0600 (Central Standard Time),741873.6999999881,A,fireenter,I,enter,920,1,3298.699999988079,738575.0,8018,WL,B,2.0
5,9.04699993133545,learn,60000.0,Tue Jan 21 2025 19:01:35 GMT-0600 (Central Standard Time),742873.0,A,s,I,s,987,1,999.0,741874.0,8018,WL,B,3.0
5,9.480000019073486,learn,60000.0,Tue Jan 21 2025 19:01:35 GMT-0600 (Central Standard Time),743306.2999999523,A,sk,I,k,410,1,1432.2999999523163,741874.0,8018,WL,B,3.0
5,9.813999891281128,learn,60000.0,Tue Jan 21 2025 19:01:35 GMT-0600 (Central Standard Time),743639.7999999523,A,ski,I,i,314,1,1765.7999999523163,741874.0,8018,WL,B,3.0
5,10.21399998664856,learn,60000.0,Tue Jan 21 2025 19:01:35 GMT-0600 (Central Standard Time),744039.3999999762,A,skin,I,n,388,1,2165.399999976158,741874.0,8018,WL,B,3.0
5,11.212999820709229,learn,60000.0,Tue Jan 21 2025 19:01:35 GMT-0600 (Central Standard Time),745039.0999999642,A,skinenter,I,enter,979,1,3165.099999964237,741874.0,8018,WL,B,3.0
5,12.128999948501587,learn,60000.0,Tue Jan 21 2025 19:01:35 GMT-0600 (Central Standard Time),745955.1999999881,A,c,I,c,909,1,915.8000000119209,745039.3999999762,8018,WL,B,4.0
5,12.513000011444092,learn,60000.0,Tue Jan 21 2025 19:01:35 GMT-0600 (Central Standard Time),746338.7999999523,A,ci,I,i,376,1,1299.3999999761581,745039.3999999762,8018,WL,B,4.0
5,12.928999900817871,learn,60000.0,Tue Jan 21 2025 19:01:35 GMT-0600 (Central Standard Time),746755.2999999523,A,cit,I,t,401,1,1715.8999999761581,745039.3999999762,8018,WL,B,4.0
5,13.228999853134155,learn,60000.0,Tue Jan 21 2025 19:01:35 GMT-0600 (Central Standard Time),747055.0999999642,A,city,I,y,281,1,2015.699999988079,745039.3999999762,8018,WL,B,4.0
5,14.128999948501587,learn,60000.0,Tue Jan 21 2025 19:01:35 GMT-0600 (Central Standard Time),747955.0,A,cityenter,I,enter,893,1,2915.600000023842,745039.3999999762,8018,WL,B,4.0
5,14.894999980926514,learn,60000.0,Tue Jan 21 2025 19:01:35 GMT-0600 (Central Standard Time),748721.1999999881,A,p,I,p,754,1,765.9000000357628,747955.2999999523,8018,WL,B,5.0
5,15.26199984550476,learn,60000.0,Tue Jan 21 2025 19:01:35 GMT-0600 (Central Standard Time),749087.6999999881,A,pi,I,i,347,1,1132.4000000357628,747955.2999999523,8018,WL,B,5.0
5,15.694999933242798,learn,60000.0,Tue Jan 21 2025 19:01:35 GMT-0600 (Central Standard Time),749521.0,A,pip,I,p,421,1,1565.7000000476837,747955.2999999523,8018,WL,B,5.0
5,16.34500002861023,learn,60000.0,Tue Jan 21 2025 19:01:35 GMT-0600 (Central Standard Time),750171.0,A,pipe,I,e,635,1,2215.7000000476837,747955.2999999523,8018,WL,B,5.0
5,17.628000020980835,learn,60000.0,Tue Jan 21 2025 19:01:35 GMT-0600 (Central Standard Time),751453.8999999762,A,pipeenter,I,enter,1273,1,3498.600000023842,747955.2999999523,8018,WL,B,5.0
5,18.92799997329712,learn,60000.0,Tue Jan 21 2025 19:01:35 GMT-0600 (Central Standard Time),752753.3999999762,A,s,I,s,1278,1,1299.199999988079,751454.1999999881,8018,WL,B,6.0
5,19.26199984550476,learn,60000.0,Tue Jan 21 2025 19:01:35 GMT-0600 (Central Standard Time),753087.7999999523,A,st,I,t,323,1,1633.5999999642372,751454.1999999881,8018,WL,B,6.0
5,19.643999814987183,learn,60000.0,Tue Jan 21 2025 19:01:35 GMT-0600 (Central Standard Time),753469.5999999642,A,sta,I,a,363,1,2015.3999999761581,751454.1999999881,8018,WL,B,6.0
5,19.99399995803833,learn,60000.0,Tue Jan 21 2025 19:01:35 GMT-0600 (Central Standard Time),753819.5,A,star,I,r,343,1,2365.300000011921,751454.1999999881,8018,WL,B,6.0
5,20.893999814987183,learn,60000.0,Tue Jan 21 2025 19:01:35 GMT-0600 (Central Standard Time),754719.2999999523,A,starenter,I,enter,881,1,3265.099999964237,751454.1999999881,8018,WL,B,6.0
5,21.676999807357788,learn,60000.0,Tue Jan 21 2025 19:01:35 GMT-0600 (Central Standard Time),755502.5999999642,A,s,I,s,764,1,782.8999999761581,754719.6999999881,8018,WL,B,7.0
5,22.026999950408936,learn,60000.0,Tue Jan 21 2025 19:01:35 GMT-0600 (Central Standard Time),755852.5,A,st,I,t,333,1,1132.800000011921,754719.6999999881,8018,WL,B,7.0
5,22.3439998626709,learn,60000.0,Tue Jan 21 2025 19:01:35 GMT-0600 (Central Standard Time),756170.1999999881,A,str,I,r,295,1,1450.5,754719.6999999881,8018,WL,B,7.0
5,22.65999984741211,learn,60000.0,Tue Jan 21 2025 19:01:35 GMT-0600 (Central Standard Time),756485.6999999881,A,stre,I,e,298,1,1766.0,754719.6999999881,8018,WL,B,7.0
5,22.80999994277954,learn,60000.0,Tue Jan 21 2025 19:01:35 GMT-0600 (Central Standard Time),756635.5,A,stree,I,e,133,1,1915.800000011921,754719.6999999881,8018,WL,B,7.0
5,23.276000022888184,learn,60000.0,Tue Jan 21 2025 19:01:35 GMT-0600 (Central Standard Time),757102.0,A,street,I,t,456,1,2382.300000011921,754719.6999999881,8018,WL,B,7.0
5,24.192999839782715,learn,60000.0,Tue Jan 21 2025 19:01:35 GMT-0600 (Central Standard Time),758018.3999999762,A,streetenter,I,enter,902,1,3298.699999988079,754719.6999999881,8018,WL,B,7.0
5,24.875999927520752,learn,60000.0,Tue Jan 21 2025 19:01:35 GMT-0600 (Central Standard Time),758701.5,A,d,I,d,674,1,682.8000000119209,758018.6999999881,8018,WL,B,8.0
5,25.22599983215332,learn,60000.0,Tue Jan 21 2025 19:01:35 GMT-0600 (Central Standard Time),759051.3999999762,A,do,I,o,335,1,1032.699999988079,758018.6999999881,8018,WL,B,8.0
5,25.47599983215332,learn,60000.0,Tue Jan 21 2025 19:01:35 GMT-0600 (Central Standard Time),759301.3999999762,A,doo,I,o,240,1,1282.699999988079,758018.6999999881,8018,WL,B,8.0
5,26.174999952316284,learn,60000.0,Tue Jan 21 2025 19:01:35 GMT-0600 (Central Standard Time),760000.8999999762,A,door,I,r,687,1,1982.199999988079,758018.6999999881,8018,WL,B,8.0
5,26.97499990463257,learn,60000.0,Tue Jan 21 2025 19:01:35 GMT-0600 (Central Standard Time),760800.8999999762,A,doorenter,I,enter,788,1,2782.199999988079,758018.6999999881,8018,WL,B,8.0
5,27.590999841690063,learn,60000.0,Tue Jan 21 2025 19:01:35 GMT-0600 (Central Standard Time),761417.2999999523,A,g,I,g,604,1,616.0999999642372,760801.1999999881,8018,WL,B,9.0
5,27.891000032424927,learn,60000.0,Tue Jan 21 2025 19:01:35 GMT-0600 (Central Standard Time),761717.0999999642,A,gr,I,r,283,1,915.8999999761581,760801.1999999881,8018,WL,B,9.0
5,28.257999897003174,learn,60000.0,Tue Jan 21 2025 19:01:35 GMT-0600 (Central Standard Time),762083.6999999881,A,gra,I,a,351,1,1282.5,760801.1999999881,8018,WL,B,9.0
5,28.62399983406067,learn,60000.0,Tue Jan 21 2025 19:01:35 GMT-0600 (Central Standard Time),762450.2999999523,A,gras,I,s,345,1,1649.0999999642372,760801.1999999881,8018,WL,B,9.0
5,28.840999841690063,learn,60000.0,Tue Jan 21 2025 19:01:35 GMT-0600 (Central Standard Time),762667.0999999642,A,grass,I,s,202,1,1865.8999999761581,760801.1999999881,8018,WL,B,9.0
5,29.924000024795532,learn,60000.0,Tue Jan 21 2025 19:01:35 GMT-0600 (Central Standard Time),763749.7999999523,A,grassenter,I,enter,1065,1,2948.599999964237,760801.1999999881,8018,WL,B,9.0
5,30.5239999294281,learn,60000.0,Tue Jan 21 2025 19:01:35 GMT-0600 (Central Standard Time),764349.6999999881,A,a,I,a,591,1,599.6000000238419,763750.0999999642,8018,WL,B,10.0
5,30.924000024795532,learn,60000.0,Tue Jan 21 2025 19:01:35 GMT-0600 (Central Standard Time),764749.5,A,ar,I,r,382,1,999.4000000357628,763750.0999999642,8018,WL,B,10.0
5,31.85699987411499,learn,60000.0,Tue Jan 21 2025 19:01:35 GMT-0600 (Central Standard Time),765682.6999999881,A,arm,I,m,918,1,1932.6000000238419,763750.0999999642,8018,WL,B,10.0
5,32.62299990653992,learn,60000.0,Tue Jan 21 2025 19:01:35 GMT-0600 (Central Standard Time),766448.8999999762,A,armenter,I,enter,746,1,2698.800000011921,763750.0999999642,8018,WL,B,10.0
5,33.53999996185303,learn,60000.0,Tue Jan 21 2025 19:01:35 GMT-0600 (Central Standard Time),767365.5,A,p,I,p,900,1,916.3000000119209,766449.1999999881,8018,WL,B,11.0
5,34.138999938964844,learn,60000.0,Tue Jan 21 2025 19:01:35 GMT-0600 (Central Standard Time),767965.1999999881,A,pu,I,u,590,1,1516.0,766449.1999999881,8018,WL,B,11.0
5,34.65599989891052,learn,60000.0,Tue Jan 21 2025 19:01:35 GMT-0600 (Central Standard Time),768481.8999999762,A,pup,I,p,494,1,2032.699999988079,766449.1999999881,8018,WL,B,11.0
5,35.02300000190735,learn,60000.0,Tue Jan 21 2025 19:01:35 GMT-0600 (Central Standard Time),768848.5,A,pupi,I,i,354,1,2399.300000011921,766449.1999999881,8018,WL,B,11.0
5,35.83899998664856,learn,60000.0,Tue Jan 21 2025 19:01:35 GMT-0600 (Central Standard Time),769664.6999999881,A,pupil,I,l,804,1,3215.5,766449.1999999881,8018,WL,B,11.0
5,36.65499997138977,learn,60000.0,Tue Jan 21 2025 19:01:35 GMT-0600 (Central Standard Time),770481.0,A,pupilenter,I,enter,795,1,4031.800000011921,766449.1999999881,8018,WL,B,11.0
5,37.365999937057495,learn,60000.0,Tue Jan 21 2025 19:01:35 GMT-0600 (Central Standard Time),771192.0,A,c,I,c,705,1,710.6000000238419,770481.3999999762,8018,WL,B,12.0
5,37.63800001144409,learn,60000.0,Tue Jan 21 2025 19:01:35 GMT-0600 (Central Standard Time),771464.2999999523,A,ca,I,a,260,1,982.8999999761581,770481.3999999762,8018,WL,B,12.0
5,38.02199983596802,learn,60000.0,Tue Jan 21 2025 19:01:35 GMT-0600 (Central Standard Time),771847.5,A,cab,I,b,364,1,1366.1000000238419,770481.3999999762,8018,WL,B,12.0
5,38.472999811172485,learn,60000.0,Tue Jan 21 2025 19:01:35 GMT-0600 (Central Standard Time),772298.3999999762,A,cabi,I,i,430,1,1817.0,770481.3999999762,8018,WL,B,12.0
5,38.855000019073486,learn,60000.0,Tue Jan 21 2025 19:01:35 GMT-0600 (Central Standard Time),772680.3999999762,A,cabin,I,n,370,1,2199.0,770481.3999999762,8018,WL,B,12.0
5,39.47099995613098,learn,60000.0,Tue Jan 21 2025 19:01:35 GMT-0600 (Central Standard Time),773296.7999999523,A,cabinenter,I,enter,596,1,2815.399999976158,770481.3999999762,8018,WL,B,12.0
5,40.037999868392944,learn,60000.0,Tue Jan 21 2025 19:01:35 GMT-0600 (Central Standard Time),773863.5,A,l,I,l,548,1,566.4000000357628,773297.0999999642,8018,WL,B,13.0
5,40.38800001144409,learn,60000.0,Tue Jan 21 2025 19:01:35 GMT-0600 (Central Standard Time),774213.3999999762,A,la,I,a,340,1,916.3000000119209,773297.0999999642,8018,WL,B,13.0
5,41.669999837875366,learn,60000.0,Tue Jan 21 2025 19:01:35 GMT-0600 (Central Standard Time),775496.0999999642,A,lak,I,k,1263,1,2199.0,773297.0999999642,8018,WL,B,13.0
5,42.186999797821045,learn,60000.0,Tue Jan 21 2025 19:01:35 GMT-0600 (Central Standard Time),776012.5999999642,A,lake,I,e,501,1,2715.5,773297.0999999642,8018,WL,B,13.0
5,43.45299983024597,learn,60000.0,Tue Jan 21 2025 19:01:35 GMT-0600 (Central Standard Time),777279.5,A,lakeenter,I,enter,1247,1,3982.400000035763,773297.0999999642,8018,WL,B,13.0
5,52.44999980926514,learn,60000.0,Tue Jan 21 2025 19:01:35 GMT-0600 (Central Standard Time),786276.0,A,p,I,p,8982,1,8996.300000011921,777279.6999999881,8018,WL,B,14.0
5,52.76600003242493,learn,60000.0,Tue Jan 21 2025 19:01:35 GMT-0600 (Central Standard Time),786592.6999999881,A,pi,I,i,303,1,9313.0,777279.6999999881,8018,WL,B,14.0
5,53.23299980163574,learn,60000.0,Tue Jan 21 2025 19:01:35 GMT-0600 (Central Standard Time),787059.2999999523,A,pip,I,p,444,1,9779.599999964237,777279.6999999881,8018,WL,B,14.0
5,53.69999980926514,learn,60000.0,Tue Jan 21 2025 19:01:35 GMT-0600 (Central Standard Time),787526.8999999762,A,pipe,I,e,448,1,10247.199999988079,777279.6999999881,8018,WL,B,14.0
5,54.74899983406067,learn,60000.0,Tue Jan 21 2025 19:01:35 GMT-0600 (Central Standard Time),788575.5,A,pipeenter,I,enter,1037,1,11295.800000011921,777279.6999999881,8018,WL,B,14.0
5,62.496999979019165,learn,60000.0,Tue Jan 21 2025 19:01:35 GMT-0600 (Central Standard Time),796323.1999999881,A,c,I,c,7741,1,7747.400000035763,788575.7999999523,8018,WL,B,15.0
6,1.2660000324249268,distr,58733.99996757507,Tue Jan 21 2025 19:01:35 GMT-0600 (Central Standard Time),872849.0999999642,B,c,I,c,1254,1,1266.199999988079,871582.8999999762,8018,WL,B,1.0
6,1.8490002155303955,distr,58150.999784469604,Tue Jan 21 2025 19:01:35 GMT-0600 (Central Standard Time),873432.1999999881,B,ce,I,e,562,1,1849.300000011921,871582.8999999762,8018,WL,B,1.0
6,2.4660000801086426,distr,57533.99991989136,Tue Jan 21 2025 19:01:35 GMT-0600 (Central Standard Time),874048.7999999523,B,cel,I,l,604,1,2465.899999976158,871582.8999999762,8018,WL,B,1.0
6,2.7320001125335693,distr,57267.99988746643,Tue Jan 21 2025 19:01:35 GMT-0600 (Central Standard Time),874315.3999999762,B,cell,I,l,244,1,2732.5,871582.8999999762,8018,WL,B,1.0
6,3.515000104904175,distr,56484.999895095825,Tue Jan 21 2025 19:01:35 GMT-0600 (Central Standard Time),875098.3999999762,B,cellenter,I,enter,769,1,3515.5,871582.8999999762,8018,WL,B,1.0
6,4.315000057220459,distr,55684.99994277954,Tue Jan 21 2025 19:01:35 GMT-0600 (Central Standard Time),875898.0999999642,B,b,I,b,786,1,799.3999999761581,875098.6999999881,8018,WL,B,2.0
6,4.732000112533569,distr,55267.99988746643,Tue Jan 21 2025 19:01:35 GMT-0600 (Central Standard Time),876314.5999999642,B,bu,I,u,393,1,1215.8999999761581,875098.6999999881,8018,WL,B,2.0
6,5.0320000648498535,distr,54967.99993515015,Tue Jan 21 2025 19:01:35 GMT-0600 (Central Standard Time),876614.5999999642,B,bui,I,i,290,1,1515.8999999761581,875098.6999999881,8018,WL,B,2.0
6,5.365000009536743,distr,54634.99999046326,Tue Jan 21 2025 19:01:35 GMT-0600 (Central Standard Time),876947.6999999881,B,buil,I,l,317,1,1849.0,875098.6999999881,8018,WL,B,2.0
6,5.8480000495910645,distr,54151.999950408936,Tue Jan 21 2025 19:01:35 GMT-0600 (Central Standard Time),877430.7999999523,B,build,I,d,464,1,2332.099999964237,875098.6999999881,8018,WL,B,2.0
6,6.38100004196167,distr,53618.99995803833,Tue Jan 21 2025 19:01:35 GMT-0600 (Central Standard Time),877964.0999999642,B,buildi,I,i,526,1,2865.399999976158,875098.6999999881,8018,WL,B,2.0
6,6.731000185012817,distr,53268.99981498718,Tue Jan 21 2025 19:01:35 GMT-0600 (Central Standard Time),878314.0999999642,B,buildin,I,n,327,1,3215.399999976158,875098.6999999881,8018,WL,B,2.0
6,7.031000137329102,distr,52968.9998626709,Tue Jan 21 2025 19:01:35 GMT-0600 (Central Standard Time),878613.8999999762,B,building,I,g,290,1,3515.199999988079,875098.6999999881,8018,WL,B,2.0
6,8.314000129699707,distr,51685.99987030029,Tue Jan 21 2025 19:01:35 GMT-0600 (Central Standard Time),879897.0999999642,B,buildingenter,I,enter,1271,1,4798.399999976158,875098.6999999881,8018,WL,B,2.0
6,10.114000082015991,distr,49885.99991798401,Tue Jan 21 2025 19:01:35 GMT-0600 (Central Standard Time),881696.7999999523,B,d,I,d,1780,1,1799.3999999761581,879897.3999999762,8018,WL,B,3.0
6,10.413000106811523,distr,49586.99989318848,Tue Jan 21 2025 19:01:35 GMT-0600 (Central Standard Time),881996.1999999881,B,dr,I,r,282,1,2098.800000011921,879897.3999999762,8018,WL,B,3.0
6,10.713000059127808,distr,49286.99994087219,Tue Jan 21 2025 19:01:35 GMT-0600 (Central Standard Time),882296.0999999642,B,dre,I,e,289,1,2398.699999988079,879897.3999999762,8018,WL,B,3.0
6,11.080000162124634,distr,48919.999837875366,Tue Jan 21 2025 19:01:35 GMT-0600 (Central Standard Time),882662.6999999881,B,dres,I,s,355,1,2765.300000011921,879897.3999999762,8018,WL,B,3.0
6,11.263000011444092,distr,48736.99998855591,Tue Jan 21 2025 19:01:35 GMT-0600 (Central Standard Time),882846.0,B,dress,I,s,174,1,2948.600000023842,879897.3999999762,8018,WL,B,3.0
6,12.11300015449524,distr,47886.99984550476,Tue Jan 21 2025 19:01:35 GMT-0600 (Central Standard Time),883695.5999999642,B,dressenter,I,enter,831,1,3798.199999988079,879897.3999999762,8018,WL,B,3.0
6,12.896000146865845,distr,47103.999853134155,Tue Jan 21 2025 19:01:35 GMT-0600 (Central Standard Time),884479.0,B,c,I,c,764,1,783.0,883696.0,8018,WL,B,4.0
6,13.396000146865845,distr,46603.999853134155,Tue Jan 21 2025 19:01:35 GMT-0600 (Central Standard Time),884978.6999999881,B,co,I,o,476,1,1282.699999988079,883696.0,8018,WL,B,4.0
6,13.729000091552734,distr,46270.999908447266,Tue Jan 21 2025 19:01:35 GMT-0600 (Central Standard Time),885311.8999999762,B,coi,I,i,321,1,1615.8999999761581,883696.0,8018,WL,B,4.0
6,14.130000114440918,distr,45869.99988555908,Tue Jan 21 2025 19:01:35 GMT-0600 (Central Standard Time),885712.5,B,coin,I,n,388,1,2016.5,883696.0,8018,WL,B,4.0
6,14.862000226974487,distr,45137.99977302551,Tue Jan 21 2025 19:01:35 GMT-0600 (Central Standard Time),886444.6999999881,B,coinenter,I,enter,724,1,2748.699999988079,883696.0,8018,WL,B,4.0
6,15.711000204086304,distr,44288.999795913696,Tue Jan 21 2025 19:01:35 GMT-0600 (Central Standard Time),887294.2999999523,B,p,I,p,830,1,849.2999999523163,886445.0,8018,WL,B,5.0
6,16.228000164031982,distr,43771.99983596802,Tue Jan 21 2025 19:01:35 GMT-0600 (Central Standard Time),887811.0,B,pa,I,a,494,1,1366.0,886445.0,8018,WL,B,5.0
6,16.66100001335144,distr,43338.99998664856,Tue Jan 21 2025 19:01:35 GMT-0600 (Central Standard Time),888244.3999999762,B,pal,I,l,417,1,1799.3999999761581,886445.0,8018,WL,B,5.0
6,18.377000093460083,distr,41622.99990653992,Tue Jan 21 2025 19:01:35 GMT-0600 (Central Standard Time),889960.2999999523,B,pals,I,s,1696,1,3515.2999999523163,886445.0,8018,WL,B,5.0
6,18.761000156402588,distr,41238.99984359741,Tue Jan 21 2025 19:01:35 GMT-0600 (Central Standard Time),890343.6999999881,B,palsc,I,c,372,1,3898.699999988079,886445.0,8018,WL,B,5.0
6,19.194000005722046,distr,40805.999994277954,Tue Jan 21 2025 19:01:35 GMT-0600 (Central Standard Time),890776.7999999523,B,palsce,I,e,421,1,4331.799999952316,886445.0,8018,WL,B,5.0
6,20.776000022888184,distr,39223.99997711182,Tue Jan 21 2025 19:01:35 GMT-0600 (Central Standard Time),892359.1999999881,B,palsc,I,backspace,1571,1,5914.199999988079,886445.0,8018,WL,B,5.0
6,21.426000118255615,distr,38573.999881744385,Tue Jan 21 2025 19:01:35 GMT-0600 (Central Standard Time),893009.1999999881,B,pals,I,backspace,628,1,6564.199999988079,886445.0,8018,WL,B,5.0
6,21.993000030517578,distr,38006.99996948242,Tue Jan 21 2025 19:01:35 GMT-0600 (Central Standard Time),893575.7999999523,B,pal,I,backspace,546,1,7130.799999952316,886445.0,8018,WL,B,5.0
6,23.2260000705719,distr,36773.9999294281,Tue Jan 21 2025 19:01:35 GMT-0600 (Central Standard Time),894808.5999999642,B,pala,I,a,1219,1,8363.599999964237,886445.0,8018,WL,B,5.0
6,23.62600016593933,distr,36373.99983406067,Tue Jan 21 2025 19:01:35 GMT-0600 (Central Standard Time),895208.5,B,palac,I,c,379,1,8763.5,886445.0,8018,WL,B,5.0
6,24.04200005531311,distr,35957.99994468689,Tue Jan 21 2025 19:01:35 GMT-0600 (Central Standard Time),895625.1999999881,B,palace,I,e,396,1,9180.199999988079,886445.0,8018,WL,B,5.0
6,25.575000047683716,distr,34424.999952316284,Tue Jan 21 2025 19:01:35 GMT-0600 (Central Standard Time),897158.1999999881,B,palaceenter,I,enter,1523,1,10713.199999988079,886445.0,8018,WL,B,5.0
6,26.907999992370605,distr,33092.000007629395,Tue Jan 21 2025 19:01:35 GMT-0600 (Central Standard Time),898491.0999999642,B,b,I,b,1327,1,1332.5999999642372,897158.5,8018,WL,B,6.0
6,27.35700011253357,distr,32642.99988746643,Tue Jan 21 2025 19:01:35 GMT-0600 (Central Standard Time),898940.8999999762,B,ba,I,a,433,1,1782.3999999761581,897158.5,8018,WL,B,6.0
6,28.19000005722046,distr,31809.99994277954,Tue Jan 21 2025 19:01:35 GMT-0600 (Central Standard Time),899774.0,B,bab,I,b,822,1,2615.5,897158.5,8018,WL,B,6.0
6,28.674000024795532,distr,31325.999975204468,Tue Jan 21 2025 19:01:35 GMT-0600 (Central Standard Time),900257.1999999881,B,baby,I,y,470,1,3098.699999988079,897158.5,8018,WL,B,6.0
6,29.973000049591064,distr,30026.999950408936,Tue Jan 21 2025 19:01:35 GMT-0600 (Central Standard Time),901556.8999999762,B,babyenter,I,enter,1283,1,4398.399999976158,897158.5,8018,WL,B,6.0
6,31.50600004196167,distr,28493.99995803833,Tue Jan 21 2025 19:01:35 GMT-0600 (Central Standard Time),903089.7999999523,B,o,I,o,1511,1,1532.5,901557.2999999523,8018,WL,B,7.0
6,32.02300000190735,distr,27976.99999809265,Tue Jan 21 2025 19:01:35 GMT-0600 (Central Standard Time),903606.0999999642,B,oc,I,c,507,1,2048.800000011921,901557.2999999523,8018,WL,B,7.0
6,32.47200012207031,distr,27527.999877929688,Tue Jan 21 2025 19:01:35 GMT-0600 (Central Standard Time),904055.8999999762,B,oce,I,e,439,1,2498.600000023842,901557.2999999523,8018,WL,B,7.0
6,32.873000144958496,distr,27126.999855041504,Tue Jan 21 2025 19:01:35 GMT-0600 (Central Standard Time),904456.0,B,ocea,I,a,387,1,2898.7000000476837,901557.2999999523,8018,WL,B,7.0
6,33.372000217437744,distr,26627.999782562256,Tue Jan 21 2025 19:01:35 GMT-0600 (Central Standard Time),904955.5,B,ocean,I,n,493,1,3398.2000000476837,901557.2999999523,8018,WL,B,7.0
6,34.372000217437744,distr,25627.999782562256,Tue Jan 21 2025 19:01:35 GMT-0600 (Central Standard Time),905955.2999999523,B,oceanenter,I,enter,978,1,4398.0,901557.2999999523,8018,WL,B,7.0
6,41.086000204086304,distr,18913.999795913696,Tue Jan 21 2025 19:01:35 GMT-0600 (Central Standard Time),912669.6999999881,B,a,I,a,6704,1,6714.100000023842,905955.5999999642,8018,WL,B,8.0
6,41.503000020980835,distr,18496.999979019165,Tue Jan 21 2025 19:01:35 GMT-0600 (Central Standard Time),913086.5999999642,B,ar,I,r,407,1,7131.0,905955.5999999642,8018,WL,B,8.0
6,42.336000204086304,distr,17663.999795913696,Tue Jan 21 2025 19:01:35 GMT-0600 (Central Standard Time),913919.5999999642,B,arm,I,m,822,1,7964.0,905955.5999999642,8018,WL,B,8.0
6,42.86900019645691,distr,17130.99980354309,Tue Jan 21 2025 19:01:35 GMT-0600 (Central Standard Time),914452.7999999523,B,army,I,y,525,1,8497.199999988079,905955.5999999642,8018,WL,B,8.0
6,44.03600001335144,distr,15963.99998664856,Tue Jan 21 2025 19:01:35 GMT-0600 (Central Standard Time),915619.1999999881,B,armyenter,I,enter,1160,1,9663.600000023842,905955.5999999642,8018,WL,B,8.0
6,60.01400017738342,distr,-14.000177383422852,Tue Jan 21 2025 19:01:35 GMT-0600 (Central Standard Time),931597.2999999523,B,None,I,None,15971,1,15977.899999976158,915619.3999999762,8018,WL,B,9.0
7,1.432999849319458,immed,58567.00015068054,Tue Jan 21 2025 19:01:35 GMT-0600 (Central Standard Time),950691.2999999523,A,c,I,c,1427,1,1432.5999999642372,949258.6999999881,8018,WL,B,1.0
7,1.8989999294281006,immed,58101.0000705719,Tue Jan 21 2025 19:01:35 GMT-0600 (Central Standard Time),951157.7999999523,A,cl,I,l,447,1,1899.0999999642372,949258.6999999881,8018,WL,B,1.0
7,2.3329999446868896,immed,57667.00005531311,Tue Jan 21 2025 19:01:35 GMT-0600 (Central Standard Time),951591.1999999881,A,clo,I,o,415,1,2332.5,949258.6999999881,8018,WL,B,1.0
7,2.9159998893737793,immed,57084.00011062622,Tue Jan 21 2025 19:01:35 GMT-0600 (Central Standard Time),952174.3999999762,A,cloc,I,c,565,1,2915.699999988079,949258.6999999881,8018,WL,B,1.0
7,3.748999834060669,immed,56251.00016593933,Tue Jan 21 2025 19:01:35 GMT-0600 (Central Standard Time),953007.2999999523,A,clock,I,k,814,1,3748.599999964237,949258.6999999881,8018,WL,B,1.0
7,5.497999906539917,immed,54502.00009346008,Tue Jan 21 2025 19:01:35 GMT-0600 (Central Standard Time),954756.7999999523,A,clockenter,I,enter,1733,1,5498.099999964237,949258.6999999881,8018,WL,B,1.0
7,6.664999961853027,immed,53335.00003814697,Tue Jan 21 2025 19:01:35 GMT-0600 (Central Standard Time),955923.2999999523,A,f,I,f,1144,1,1166.2999999523163,954757.0,8018,WL,B,2.0
7,7.297999858856201,immed,52702.0001411438,Tue Jan 21 2025 19:01:35 GMT-0600 (Central Standard Time),956556.1999999881,A,fi,I,i,616,1,1799.199999988079,954757.0,8018,WL,B,2.0
7,7.763999938964844,immed,52236.000061035156,Tue Jan 21 2025 19:01:35 GMT-0600 (Central Standard Time),957022.7999999523,A,fir,I,r,456,1,2265.7999999523163,954757.0,8018,WL,B,2.0
7,8.079999923706055,immed,51920.000076293945,Tue Jan 21 2025 19:01:35 GMT-0600 (Central Standard Time),957339.2999999523,A,fire,I,e,302,1,2582.2999999523163,954757.0,8018,WL,B,2.0
7,8.94700002670288,immed,51052.99997329712,Tue Jan 21 2025 19:01:35 GMT-0600 (Central Standard Time),958205.6999999881,A,fireenter,I,enter,849,1,3448.699999988079,954757.0,8018,WL,B,2.0
7,10.228999853134155,immed,49771.000146865845,Tue Jan 21 2025 19:01:35 GMT-0600 (Central Standard Time),959488.3999999762,A,s,I,s,1268,1,1282.300000011921,958206.0999999642,8018,WL,B,3.0
7,10.579999923706055,immed,49420.000076293945,Tue Jan 21 2025 19:01:35 GMT-0600 (Central Standard Time),959838.6999999881,A,sk,I,k,332,1,1632.6000000238419,958206.0999999642,8018,WL,B,3.0
7,10.895999908447266,immed,49104.000091552734,Tue Jan 21 2025 19:01:35 GMT-0600 (Central Standard Time),960155.0999999642,A,ski,I,i,294,1,1949.0,958206.0999999642,8018,WL,B,3.0
7,11.312999963760376,immed,48687.000036239624,Tue Jan 21 2025 19:01:35 GMT-0600 (Central Standard Time),960571.6999999881,A,skin,I,n,401,1,2365.600000023842,958206.0999999642,8018,WL,B,3.0
7,12.34500002861023,immed,47654.99997138977,Tue Jan 21 2025 19:01:35 GMT-0600 (Central Standard Time),961604.5,A,skinenter,I,enter,1025,1,3398.400000035763,958206.0999999642,8018,WL,B,3.0
7,13.527999877929688,immed,46472.00012207031,Tue Jan 21 2025 19:01:35 GMT-0600 (Central Standard Time),962787.3999999762,A,s,I,s,1177,1,1182.6000000238419,961604.7999999523,8018,WL,B,4.0
7,13.894999980926514,immed,46105.000019073486,Tue Jan 21 2025 19:01:35 GMT-0600 (Central Standard Time),963154.1999999881,A,st,I,t,353,1,1549.4000000357628,961604.7999999523,8018,WL,B,4.0
7,14.17799997329712,immed,45822.00002670288,Tue Jan 21 2025 19:01:35 GMT-0600 (Central Standard Time),963437.3999999762,A,sta,I,a,266,1,1832.6000000238419,961604.7999999523,8018,WL,B,4.0
7,14.562000036239624,immed,45437.999963760376,Tue Jan 21 2025 19:01:35 GMT-0600 (Central Standard Time),963820.7999999523,A,star,I,r,375,1,2216.0,961604.7999999523,8018,WL,B,4.0
7,15.460999965667725,immed,44539.000034332275,Tue Jan 21 2025 19:01:35 GMT-0600 (Central Standard Time),964720.3999999762,A,starenter,I,enter,880,1,3115.600000023842,961604.7999999523,8018,WL,B,4.0
7,16.777999877929688,immed,43222.00012207031,Tue Jan 21 2025 19:01:35 GMT-0600 (Central Standard Time),966036.6999999881,A,g,I,g,1300,1,1315.9000000357628,964720.7999999523,8018,WL,B,5.0
7,17.128000020980835,immed,42871.999979019165,Tue Jan 21 2025 19:01:35 GMT-0600 (Central Standard Time),966386.5999999642,A,gr,I,r,326,1,1665.800000011921,964720.7999999523,8018,WL,B,5.0
7,17.47699999809265,immed,42523.00000190735,Tue Jan 21 2025 19:01:35 GMT-0600 (Central Standard Time),966736.3999999762,A,gra,I,a,337,1,2015.6000000238419,964720.7999999523,8018,WL,B,5.0
7,17.810999870300293,immed,42189.00012969971,Tue Jan 21 2025 19:01:35 GMT-0600 (Central Standard Time),967069.6999999881,A,gras,I,s,316,1,2348.900000035763,964720.7999999523,8018,WL,B,5.0
7,18.01099991798401,immed,41989.00008201599,Tue Jan 21 2025 19:01:35 GMT-0600 (Central Standard Time),967269.6999999881,A,grass,I,s,183,1,2548.900000035763,964720.7999999523,8018,WL,B,5.0
7,19.15999984741211,immed,40840.00015258789,Tue Jan 21 2025 19:01:35 GMT-0600 (Central Standard Time),968419.1999999881,A,grassenter,I,enter,1135,1,3698.400000035763,964720.7999999523,8018,WL,B,5.0
7,20.192999839782715,immed,39807.000160217285,Tue Jan 21 2025 19:01:35 GMT-0600 (Central Standard Time),969452.0999999642,A,s,I,s,1017,1,1032.699999988079,968419.3999999762,8018,WL,B,6.0
7,20.526000022888184,immed,39473.99997711182,Tue Jan 21 2025 19:01:35 GMT-0600 (Central Standard Time),969785.3999999762,A,st,I,t,321,1,1366.0,968419.3999999762,8018,WL,B,6.0
7,20.875999927520752,immed,39124.00007247925,Tue Jan 21 2025 19:01:35 GMT-0600 (Central Standard Time),970135.3999999762,A,str,I,r,331,1,1716.0,968419.3999999762,8018,WL,B,6.0
7,21.22599983215332,immed,38774.00016784668,Tue Jan 21 2025 19:01:35 GMT-0600 (Central Standard Time),970485.0,A,stre,I,e,333,1,2065.600000023842,968419.3999999762,8018,WL,B,6.0
7,21.375999927520752,immed,38624.00007247925,Tue Jan 21 2025 19:01:35 GMT-0600 (Central Standard Time),970635.0999999642,A,stree,I,e,144,1,2215.699999988079,968419.3999999762,8018,WL,B,6.0
7,22.125999927520752,immed,37874.00007247925,Tue Jan 21 2025 19:01:35 GMT-0600 (Central Standard Time),971385.0,A,street,I,t,738,1,2965.600000023842,968419.3999999762,8018,WL,B,6.0
7,23.574999809265137,immed,36425.00019073486,Tue Jan 21 2025 19:01:35 GMT-0600 (Central Standard Time),972834.2999999523,A,streetenter,I,enter,1428,1,4414.899999976158,968419.3999999762,8018,WL,B,6.0
7,24.424999952316284,immed,35575.000047683716,Tue Jan 21 2025 19:01:35 GMT-0600 (Central Standard Time),973684.0999999642,A,p,I,p,834,1,849.5,972834.5999999642,8018,WL,B,7.0
7,24.907999992370605,immed,35092.000007629395,Tue Jan 21 2025 19:01:35 GMT-0600 (Central Standard Time),974167.2999999523,A,pu,I,u,471,1,1332.699999988079,972834.5999999642,8018,WL,B,7.0
7,25.45799994468689,immed,34542.00005531311,Tue Jan 21 2025 19:01:35 GMT-0600 (Central Standard Time),974717.0999999642,A,pup,I,p,533,1,1882.5,972834.5999999642,8018,WL,B,7.0
7,25.807999849319458,immed,34192.00015068054,Tue Jan 21 2025 19:01:35 GMT-0600 (Central Standard Time),975067.0999999642,A,pupi,I,i,335,1,2232.5,972834.5999999642,8018,WL,B,7.0
7,26.324999809265137,immed,33675.00019073486,Tue Jan 21 2025 19:01:35 GMT-0600 (Central Standard Time),975583.6999999881,A,pupil,I,l,497,1,2749.100000023842,972834.5999999642,8018,WL,B,7.0
7,27.37399983406067,immed,32626.00016593933,Tue Jan 21 2025 19:01:35 GMT-0600 (Central Standard Time),976633.1999999881,A,pupilenter,I,enter,1028,1,3798.600000023842,972834.5999999642,8018,WL,B,7.0
7,28.12399983406067,immed,31876.00016593933,Tue Jan 21 2025 19:01:35 GMT-0600 (Central Standard Time),977382.8999999762,A,a,I,a,731,1,749.3999999761581,976633.5,8018,WL,B,8.0
7,28.424000024795532,immed,31575.999975204468,Tue Jan 21 2025 19:01:35 GMT-0600 (Central Standard Time),977683.0999999642,A,ar,I,r,277,1,1049.5999999642372,976633.5,8018,WL,B,8.0
7,30.4229998588562,immed,29577.0001411438,Tue Jan 21 2025 19:01:35 GMT-0600 (Central Standard Time),979682.1999999881,A,arm,I,m,1985,1,3048.699999988079,976633.5,8018,WL,B,8.0
7,31.072999954223633,immed,28927.000045776367,Tue Jan 21 2025 19:01:35 GMT-0600 (Central Standard Time),980332.0999999642,A,armenter,I,enter,634,1,3698.599999964237,976633.5,8018,WL,B,8.0
7,31.756999969482422,immed,28243.000030517578,Tue Jan 21 2025 19:01:35 GMT-0600 (Central Standard Time),981016.3999999762,A,c,I,c,664,1,684.0,980332.3999999762,8018,WL,B,9.0
7,32.12299990653992,immed,27877.000093460083,Tue Jan 21 2025 19:01:35 GMT-0600 (Central Standard Time),981381.7999999523,A,ca,I,a,347,1,1049.3999999761581,980332.3999999762,8018,WL,B,9.0
7,32.50599980354309,immed,27494.00019645691,Tue Jan 21 2025 19:01:35 GMT-0600 (Central Standard Time),981765.0,A,cab,I,b,366,1,1432.6000000238419,980332.3999999762,8018,WL,B,9.0
7,32.888999938964844,immed,27111.000061035156,Tue Jan 21 2025 19:01:35 GMT-0600 (Central Standard Time),982148.0999999642,A,cabi,I,i,376,1,1815.699999988079,980332.3999999762,8018,WL,B,9.0
7,33.32200002670288,immed,26677.99997329712,Tue Jan 21 2025 19:01:35 GMT-0600 (Central Standard Time),982581.2999999523,A,cabin,I,n,416,1,2248.899999976158,980332.3999999762,8018,WL,B,9.0
7,34.52199983596802,immed,25478.000164031982,Tue Jan 21 2025 19:01:35 GMT-0600 (Central Standard Time),983781.0999999642,A,cabinenter,I,enter,1183,1,3448.699999988079,980332.3999999762,8018,WL,B,9.0
7,35.57200002670288,immed,24427.99997329712,Tue Jan 21 2025 19:01:35 GMT-0600 (Central Standard Time),984830.7999999523,A,l,I,l,1040,1,1049.3999999761581,983781.3999999762,8018,WL,B,10.0
7,35.88800001144409,immed,24111.99998855591,Tue Jan 21 2025 19:01:35 GMT-0600 (Central Standard Time),985147.3999999762,A,la,I,a,293,1,1366.0,983781.3999999762,8018,WL,B,10.0
7,36.63800001144409,immed,23361.99998855591,Tue Jan 21 2025 19:01:35 GMT-0600 (Central Standard Time),985896.8999999762,A,lak,I,k,728,1,2115.5,983781.3999999762,8018,WL,B,10.0
7,37.13800001144409,immed,22861.99998855591,Tue Jan 21 2025 19:01:35 GMT-0600 (Central Standard Time),986396.8999999762,A,lake,I,e,484,1,2615.5,983781.3999999762,8018,WL,B,10.0
7,38.08699989318848,immed,21913.000106811523,Tue Jan 21 2025 19:01:35 GMT-0600 (Central Standard Time),987346.5,A,lakeenter,I,enter,936,1,3565.100000023842,983781.3999999762,8018,WL,B,10.0
7,47.984999895095825,immed,12015.000104904175,Tue Jan 21 2025 19:01:35 GMT-0600 (Central Standard Time),997243.6999999881,A,p,I,p,9882,1,9896.900000035763,987346.7999999523,8018,WL,B,11.0
7,48.33399987220764,immed,11666.000127792358,Tue Jan 21 2025 19:01:35 GMT-0600 (Central Standard Time),997593.1999999881,A,pi,I,i,328,1,10246.400000035763,987346.7999999523,8018,WL,B,11.0
7,48.68400001525879,immed,11315.999984741211,Tue Jan 21 2025 19:01:35 GMT-0600 (Central Standard Time),997943.1999999881,A,pip,I,p,339,1,10596.400000035763,987346.7999999523,8018,WL,B,11.0
7,49.78399991989136,immed,10216.000080108643,Tue Jan 21 2025 19:01:35 GMT-0600 (Central Standard Time),999043.0,A,pipe,I,e,1085,1,11696.200000047684,987346.7999999523,8018,WL,B,11.0
7,50.98399996757507,immed,9016.000032424927,Tue Jan 21 2025 19:01:35 GMT-0600 (Central Standard Time),1000243.3999999762,A,pipeenter,I,enter,1193,1,12896.600000023842,987346.7999999523,8018,WL,B,11.0
7,54.531999826431274,immed,5468.000173568726,Tue Jan 21 2025 19:01:35 GMT-0600 (Central Standard Time),1003791.5,A,w,I,w,3537,1,3547.900000035763,1000243.5999999642,8018,WL,B,12.0
7,54.931999921798706,immed,5068.000078201294,Tue Jan 21 2025 19:01:35 GMT-0600 (Central Standard Time),1004191.2999999523,A,wi,I,i,379,1,3947.699999988079,1000243.5999999642,8018,WL,B,12.0
7,55.281999826431274,immed,4718.000173568726,Tue Jan 21 2025 19:01:35 GMT-0600 (Central Standard Time),1004541.1999999881,A,win,I,n,333,1,4297.600000023842,1000243.5999999642,8018,WL,B,12.0
7,55.781999826431274,immed,4218.000173568726,Tue Jan 21 2025 19:01:35 GMT-0600 (Central Standard Time),1005041.0999999642,A,wind,I,d,487,1,4797.5,1000243.5999999642,8018,WL,B,12.0
7,56.23199987411499,immed,3768.0001258850098,Tue Jan 21 2025 19:01:35 GMT-0600 (Central Standard Time),1005491.0999999642,A,windo,I,o,428,1,5247.5,1000243.5999999642,8018,WL,B,12.0
7,57.097999811172485,immed,2902.0001888275146,Tue Jan 21 2025 19:01:35 GMT-0600 (Central Standard Time),1006357.2999999523,A,window,I,w,857,1,6113.699999988079,1000243.5999999642,8018,WL,B,12.0
7,57.78099989891052,immed,2219.0001010894775,Tue Jan 21 2025 19:01:35 GMT-0600 (Central Standard Time),1007040.5,A,windowenter,I,enter,671,1,6796.900000035763,1000243.5999999642,8018,WL,B,12.0
7,58.38099980354309,immed,1619.0001964569092,Tue Jan 21 2025 19:01:35 GMT-0600 (Central Standard Time),1007640.3999999762,A,w,I,w,588,1,599.6000000238419,1007040.7999999523,8018,WL,B,13.0
7,58.83099985122681,immed,1169.0001487731934,Tue Jan 21 2025 19:01:35 GMT-0600 (Central Standard Time),1008090.0999999642,A,wi,I,i,427,1,1049.300000011921,1007040.7999999523,8018,WL,B,13.0
7,59.2979998588562,immed,702.0001411437988,Tue Jan 21 2025 19:01:35 GMT-0600 (Central Standard Time),1008556.6999999881,A,wif,I,f,450,1,1515.9000000357628,1007040.7999999523,8018,WL,B,13.0
7,59.63099980354309,immed,369.0001964569092,Tue Jan 21 2025 19:01:35 GMT-0600 (Central Standard Time),1008889.8999999762,A,wife,I,e,319,1,1849.1000000238419,1007040.7999999523,8018,WL,B,13.0
7,60.013999938964844,immed,-13.99993896484375,Tue Jan 21 2025 19:01:35 GMT-0600 (Central Standard Time),1009273.2999999523,A,wifeNone,I,None,377,1,2232.5,1007040.7999999523,8018,WL,B,13.0
