acc_sum,block_c,block_dur,condition,correct,correct_response,countdown,datetime,endtime,project,response,response_time,response_time_test1_response,response_time_test2_response,row_sel,same,session_number,start_end,starttime,stim1,stim2,subject_id,task,task_vers,time_test1,time_test2,trial
1,1,0.0,prac,1,z,30000.0,Fri Sep 13 2024 12:33:36 GMT-0500 (Central Daylight Time),37535.79999999702,I,z,1131,,,5,yes,1,2663.10000000149,34872.69999999553,practrial5.png,practrial5.png,8002,PC,A,,,1
2,1,0.0,prac,1,m,30000.0,Fri Sep 13 2024 12:33:36 GMT-0500 (Central Daylight Time),40534.5,I,m,1473,,,6,no,1,2994.9000000059605,37539.59999999404,practrial6.png,practrial6b.png,8002,PC,A,,,2
2,1,0.0,prac,0,m,30000.0,Fri Sep 13 2024 12:33:36 GMT-0500 (Central Daylight Time),43233.5,I,z,1169,,,4,no,1,2695.10000000149,40538.39999999851,practrial4.png,practrial4b.png,8002,PC,A,,,3
3,1,0.0,prac,1,m,30000.0,Fri Sep 13 2024 12:33:36 GMT-0500 (Central Daylight Time),46282.59999999404,I,m,1519,,,2,no,1,3045.0999999940395,43237.5,practrial2.png,practrial2b.png,8002,PC,A,,,4
4,1,0.0,prac,1,z,30000.0,Fri Sep 13 2024 12:33:36 GMT-0500 (Central Daylight Time),49198.5,I,z,1390,,,3,yes,1,2912.0,46286.5,practrial3.png,practrial3.png,8002,PC,A,,,5
5,1,0.0,prac,1,z,30000.0,Fri Sep 13 2024 12:33:36 GMT-0500 (Central Daylight Time),52230.59999999404,I,z,1506,,,1,yes,1,3028.39999999851,49202.19999999553,practrial1.png,practrial1.png,8002,PC,A,,,6
1,1,1.3359999656677246,test,1,z,28664.000034332275,Fri Sep 13 2024 12:33:36 GMT-0500 (Central Daylight Time),67212.79999999702,I,z,1316,1316,,1,yes,1,1332.2999999970198,65880.5,test1trial1.png,test1trial1.png,8002,PC,A,63338,,1
2,1,2.382999897003174,test,1,m,27617.000102996826,Fri Sep 13 2024 12:33:36 GMT-0500 (Central Daylight Time),68259.19999999553,I,m,1036,1036,,2,no,1,1043.3999999985099,67215.79999999702,test1trial2.png,test1trial2b.png,8002,PC,A,64674,,2
3,1,3.865000009536743,test,1,z,26134.999990463257,Fri Sep 13 2024 12:33:36 GMT-0500 (Central Daylight Time),69742.0,I,z,1470,1470,,3,yes,1,1479.9000000059605,68262.09999999404,test1trial3.png,test1trial3.png,8002,PC,A,65720,,3
4,1,4.980999946594238,test,1,m,25019.00005340576,Fri Sep 13 2024 12:33:36 GMT-0500 (Central Daylight Time),70858.09999999404,I,m,1099,1099,,4,no,1,1113.1999999955297,69744.89999999851,test1trial4.png,test1trial4b.png,8002,PC,A,67203,,4
5,1,6.596999883651733,test,1,z,23403.000116348267,Fri Sep 13 2024 12:33:36 GMT-0500 (Central Daylight Time),72474.0,I,z,1607,1607,,5,yes,1,1613.0,70861.0,test1trial5.png,test1trial5.png,8002,PC,A,68319,,5
6,1,7.830999851226807,test,1,m,22169.000148773193,Fri Sep 13 2024 12:33:36 GMT-0500 (Central Daylight Time),73707.39999999851,I,m,1216,1216,,6,no,1,1230.8000000044703,72476.59999999404,test1trial6.png,test1trial6b.png,8002,PC,A,69934,,6
7,1,9.179999828338623,test,1,z,20820.000171661377,Fri Sep 13 2024 12:33:36 GMT-0500 (Central Daylight Time),75056.79999999702,I,z,1334,1334,,7,yes,1,1346.5,73710.29999999702,test1trial7.png,test1trial7.png,8002,PC,A,71168,,7
7,1,10.86299991607666,test,0,m,19137.00008392334,Fri Sep 13 2024 12:33:36 GMT-0500 (Central Daylight Time),76739.79999999702,I,z,1665,1665,,8,no,1,1680.1000000014901,75059.69999999553,test1trial8.png,test1trial8b.png,8002,PC,A,72517,,8
8,1,12.046000003814697,test,1,z,17953.999996185303,Fri Sep 13 2024 12:33:36 GMT-0500 (Central Daylight Time),77922.69999999553,I,z,1174,1174,,9,yes,1,1180.1000000014901,76742.59999999404,test1trial9.png,test1trial9.png,8002,PC,A,74200,,9
9,1,13.095999956130981,test,1,m,16904.00004386902,Fri Sep 13 2024 12:33:36 GMT-0500 (Central Daylight Time),78972.59999999404,I,m,1031,1031,,10,no,1,1047.0999999940395,77925.5,test1trial10.png,test1trial10b.png,8002,PC,A,75383,,10
10,1,14.51199984550476,test,1,z,15488.00015449524,Fri Sep 13 2024 12:33:36 GMT-0500 (Central Daylight Time),80388.5,I,z,1405,1405,,11,yes,1,1413.1000000014901,78975.39999999851,test1trial11.png,test1trial11.png,8002,PC,A,76433,,11
11,1,17.543999910354614,test,1,m,12456.000089645386,Fri Sep 13 2024 12:33:36 GMT-0500 (Central Daylight Time),83421.0,I,m,3013,3013,,12,no,1,3029.7000000029802,80391.29999999702,test1trial12.png,test1trial12b.png,8002,PC,A,77849,,12
12,1,18.876999855041504,test,1,m,11123.000144958496,Fri Sep 13 2024 12:33:36 GMT-0500 (Central Daylight Time),84753.89999999851,I,m,1317,1317,,13,no,1,1330.3999999985099,83423.5,test1trial13.png,test1trial13b.png,8002,PC,A,80881,,13
13,1,20.376999855041504,test,1,m,9623.000144958496,Fri Sep 13 2024 12:33:36 GMT-0500 (Central Daylight Time),86253.29999999702,I,m,1488,1488,,14,no,1,1496.5,84756.79999999702,test1trial14.png,test1trial14b.png,8002,PC,A,82214,,14
14,1,21.942999839782715,test,1,z,8057.000160217285,Fri Sep 13 2024 12:33:36 GMT-0500 (Central Daylight Time),87819.69999999553,I,z,1556,1556,,15,yes,1,1563.6000000014901,86256.09999999404,test1trial15.png,test1trial15.png,8002,PC,A,83714,,15
15,1,23.758999824523926,test,1,m,6241.000175476074,Fri Sep 13 2024 12:33:36 GMT-0500 (Central Daylight Time),89635.69999999553,I,m,1798,1798,,16,no,1,1813.2999999970198,87822.39999999851,test1trial16.png,test1trial16b.png,8002,PC,A,85280,,16
16,1,25.108999967575073,test,1,z,4891.000032424927,Fri Sep 13 2024 12:33:36 GMT-0500 (Central Daylight Time),90985.29999999702,I,z,1342,1342,,17,yes,1,1347.0,89638.29999999702,test1trial17.png,test1trial17.png,8002,PC,A,87096,,17
17,1,26.424999952316284,test,1,m,3575.000047683716,Fri Sep 13 2024 12:33:36 GMT-0500 (Central Daylight Time),92301.5,I,m,1304,1304,,18,no,1,1313.5,90988.0,test1trial18.png,test1trial18b.png,8002,PC,A,88446,,18
18,1,28.641000032424927,test,1,m,1358.9999675750732,Fri Sep 13 2024 12:33:36 GMT-0500 (Central Daylight Time),94517.5,I,m,2212,2212,,19,no,1,2213.4000000059605,92304.09999999404,test1trial19.png,test1trial19b.png,8002,PC,A,89762,,19
18,1,30.007999897003174,test,0,z,-7.999897003173828,Fri Sep 13 2024 12:33:36 GMT-0500 (Central Daylight Time),95884.39999999851,I,None,1363,1363,,20,yes,1,1364.3000000044703,94520.09999999404,test1trial20.png,test1trial20.png,8002,PC,A,91978,,20
1,2,0.9660000801086426,test,1,m,29033.999919891357,Fri Sep 13 2024 12:33:36 GMT-0500 (Central Daylight Time),102048.39999999851,I,m,952,,952.0,1,no,1,7528.30000000447,94520.09999999404,test2trial1.png,test2trial1b.png,8002,PC,A,,98542.0,1
2,2,2.065999984741211,test,1,m,27934.00001525879,Fri Sep 13 2024 12:33:36 GMT-0500 (Central Daylight Time),103148.39999999851,I,m,1081,,1081.0,2,no,1,8628.30000000447,94520.09999999404,test2trial2.png,test2trial2b.png,8002,PC,A,,99509.0,2
3,2,3.2820000648498535,test,1,z,26717.999935150146,Fri Sep 13 2024 12:33:36 GMT-0500 (Central Daylight Time),104364.19999999553,I,z,1197,,1197.0,3,yes,1,9844.10000000149,94520.09999999404,test2trial3.png,test2trial3.png,8002,PC,A,,100609.0,3
3,2,4.29800009727478,test,0,z,25701.99990272522,Fri Sep 13 2024 12:33:36 GMT-0500 (Central Daylight Time),105380.69999999553,I,m,1005,,1005.0,4,yes,1,10860.60000000149,94520.09999999404,test2trial4.png,test2trial4.png,8002,PC,A,,101825.0,4
4,2,5.715000152587891,test,1,z,24284.99984741211,Fri Sep 13 2024 12:33:36 GMT-0500 (Central Daylight Time),106797.19999999553,I,z,1397,,1397.0,5,yes,1,12277.10000000149,94520.09999999404,test2trial5.png,test2trial5.png,8002,PC,A,,102841.0,5
5,2,7.480000019073486,test,1,z,22519.999980926514,Fri Sep 13 2024 12:33:36 GMT-0500 (Central Daylight Time),108562.79999999702,I,z,1748,,1748.0,6,yes,1,14042.70000000298,94520.09999999404,test2trial6.png,test2trial6.png,8002,PC,A,,104258.0,6
6,2,9.047000169754028,test,1,m,20952.99983024597,Fri Sep 13 2024 12:33:36 GMT-0500 (Central Daylight Time),110129.19999999553,I,m,1559,,1559.0,7,no,1,15609.10000000149,94520.09999999404,test2trial7.png,test2trial7b.png,8002,PC,A,,106023.0,7
7,2,10.130000114440918,test,1,m,19869.999885559082,Fri Sep 13 2024 12:33:36 GMT-0500 (Central Daylight Time),111212.39999999851,I,m,1065,,1065.0,8,no,1,16692.30000000447,94520.09999999404,test2trial8.png,test2trial8b.png,8002,PC,A,,107589.0,8
8,2,11.595999956130981,test,1,z,18404.00004386902,Fri Sep 13 2024 12:33:36 GMT-0500 (Central Daylight Time),112678.19999999553,I,z,1461,,1461.0,9,yes,1,18158.10000000149,94520.09999999404,test2trial9.png,test2trial9.png,8002,PC,A,,108673.0,9
9,2,13.123000144958496,test,1,z,16876.999855041504,Fri Sep 13 2024 12:33:36 GMT-0500 (Central Daylight Time),114205.5,I,z,1378,,1378.0,10,yes,1,19685.40000000596,94520.09999999404,test2trial10.png,test2trial10.png,8002,PC,A,,110138.0,10
10,2,14.062000036239624,test,1,m,15937.999963760376,Fri Sep 13 2024 12:33:36 GMT-0500 (Central Daylight Time),115144.19999999553,I,m,924,,924.0,11,no,1,20624.10000000149,94520.09999999404,test2trial11.png,test2trial11b.png,8002,PC,A,,111666.0,11
10,2,15.511000156402588,test,0,m,14488.999843597412,Fri Sep 13 2024 12:33:36 GMT-0500 (Central Daylight Time),116593.89999999851,I,z,1441,,1441.0,12,no,1,22073.80000000447,94520.09999999404,test2trial12.png,test2trial12b.png,8002,PC,A,,112605.0,12
11,2,16.9760000705719,test,1,z,13023.9999294281,Fri Sep 13 2024 12:33:36 GMT-0500 (Central Daylight Time),118060.09999999404,I,z,1448,,1448.0,13,yes,1,23540.0,94520.09999999404,test2trial13.png,test2trial13.png,8002,PC,A,,114054.0,13
12,2,21.20800018310547,test,1,m,8791.999816894531,Fri Sep 13 2024 12:33:36 GMT-0500 (Central Daylight Time),122292.19999999553,I,m,4221,,4221.0,14,no,1,27772.10000000149,94520.09999999404,test2trial14.png,test2trial14b.png,8002,PC,A,,115521.0,14
13,2,22.508000135421753,test,1,m,7491.999864578247,Fri Sep 13 2024 12:33:36 GMT-0500 (Central Daylight Time),123591.79999999702,I,m,1285,,1285.0,15,no,1,29071.70000000298,94520.09999999404,test2trial15.png,test2trial15b.png,8002,PC,A,,119753.0,15
14,2,25.074000120162964,test,1,m,4925.999879837036,Fri Sep 13 2024 12:33:36 GMT-0500 (Central Daylight Time),126157.59999999404,I,m,2562,,2562.0,16,no,1,31637.5,94520.09999999404,test2trial16.png,test2trial16b.png,8002,PC,A,,121052.0,16
15,2,27.289999961853027,test,1,z,2710.0000381469727,Fri Sep 13 2024 12:33:36 GMT-0500 (Central Daylight Time),128373.79999999702,I,z,2197,,2197.0,17,yes,1,33853.70000000298,94520.09999999404,test2trial17.png,test2trial17.png,8002,PC,A,,123618.0,17
16,2,28.9060001373291,test,1,z,1093.9998626708984,Fri Sep 13 2024 12:33:36 GMT-0500 (Central Daylight Time),129989.59999999404,I,z,1612,,1612.0,18,yes,1,35469.5,94520.09999999404,test2trial18.png,test2trial18.png,8002,PC,A,,125834.0,18
16,2,30.005000114440918,test,0,z,-5.000114440917969,Fri Sep 13 2024 12:33:36 GMT-0500 (Central Daylight Time),131089.3999999985,I,None,1096,,1096.0,19,yes,1,36569.30000000447,94520.09999999404,test2trial19.png,test2trial19.png,8002,PC,A,,127450.0,19
