acc_sum,block_c,block_dur,condition,correct,correct_response,countdown,datetime,endtime,project,response,response_time,response_time_test1_response,response_time_test2_response,row_sel,same,session_number,start_end,starttime,stim1,stim2,subject_id,task,task_vers,time_test1,time_test2,trial
1,1,0.0,prac,1,m,30000.0,Tue Feb 25 2025 10:54:54 GMT-0600 (Central Standard Time),36690.10000000894,I,m,1000,,,2,no,3,2528.9000000059605,34161.20000000298,practrial2.png,practrial2b.png,8002,PC,C,,,1
2,1,0.0,prac,1,m,30000.0,Tue Feb 25 2025 10:54:54 GMT-0600 (Central Standard Time),39505.5,I,m,1282,,,6,no,3,2810.3999999910593,36695.10000000894,practrial6.png,practrial6b.png,8002,PC,C,,,2
3,1,0.0,prac,1,z,30000.0,Tue Feb 25 2025 10:54:54 GMT-0600 (Central Standard Time),42055.0,I,z,1028,,,1,yes,3,2546.0,39509.0,practrial1.png,practrial1.png,8002,PC,C,,,3
4,1,0.0,prac,1,z,30000.0,Tue Feb 25 2025 10:54:54 GMT-0600 (Central Standard Time),44720.80000001192,I,z,1135,,,3,yes,3,2662.2000000029802,42058.60000000894,practrial3.png,practrial3.png,8002,PC,C,,,4
5,1,0.0,prac,1,m,30000.0,Tue Feb 25 2025 10:54:54 GMT-0600 (Central Standard Time),47686.30000001192,I,m,1445,,,4,no,3,2962.1000000089407,44724.20000000298,practrial4.png,practrial4b.png,8002,PC,C,,,5
6,1,0.0,prac,1,z,30000.0,Tue Feb 25 2025 10:54:54 GMT-0600 (Central Standard Time),50485.80000001192,I,z,1263,,,5,yes,3,2795.7000000029802,47690.10000000894,practrial5.png,practrial5.png,8002,PC,C,,,6
1,1,1.4000000953674316,test,1,z,28599.99990463257,Tue Feb 25 2025 10:54:54 GMT-0600 (Central Standard Time),65064.40000000596,I,z,1390,1390,,1,yes,3,1397.2999999970198,63667.10000000894,test1trial1.png,test1trial1.png,8002,PC,C,60567,,1
2,1,2.4830000400543213,test,1,m,27516.99995994568,Tue Feb 25 2025 10:54:54 GMT-0600 (Central Standard Time),66147.5,I,m,1070,1070,,2,no,3,1080.0999999940395,65067.40000000596,test1trial2.png,test1trial2b.png,8002,PC,C,61967,,2
3,1,4.116000175476074,test,1,z,25883.999824523926,Tue Feb 25 2025 10:54:54 GMT-0600 (Central Standard Time),67780.10000000894,I,z,1619,1619,,3,yes,3,1629.7999999970198,66150.30000001192,test1trial3.png,test1trial3.png,8002,PC,C,63050,,3
4,1,5.248000144958496,test,1,m,24751.999855041504,Tue Feb 25 2025 10:54:54 GMT-0600 (Central Standard Time),68912.90000000596,I,m,1122,1122,,4,no,3,1130.0,67782.90000000596,test1trial4.png,test1trial4b.png,8002,PC,C,64683,,4
5,1,6.565000057220459,test,1,z,23434.99994277954,Tue Feb 25 2025 10:54:54 GMT-0600 (Central Standard Time),70229.20000000298,I,z,1302,1302,,5,yes,3,1313.5999999940395,68915.60000000894,test1trial5.png,test1trial5.png,8002,PC,C,65815,,5
6,1,7.6650002002716064,test,1,m,22334.999799728394,Tue Feb 25 2025 10:54:54 GMT-0600 (Central Standard Time),71329.10000000894,I,m,1081,1081,,6,no,3,1096.9000000059605,70232.20000000298,test1trial6.png,test1trial6b.png,8002,PC,C,67132,,6
7,1,8.481000185012817,test,1,z,21518.999814987183,Tue Feb 25 2025 10:54:54 GMT-0600 (Central Standard Time),72145.40000000596,I,z,797,797,,7,yes,3,813.4000000059605,71332.0,test1trial7.png,test1trial7.png,8002,PC,C,68232,,7
8,1,10.897000074386597,test,1,m,19102.999925613403,Tue Feb 25 2025 10:54:54 GMT-0600 (Central Standard Time),74561.20000000298,I,m,2397,2397,,8,no,3,2413.0999999940395,72148.10000000894,test1trial8.png,test1trial8b.png,8002,PC,C,69048,,8
9,1,12.097000122070312,test,1,z,17902.999877929688,Tue Feb 25 2025 10:54:54 GMT-0600 (Central Standard Time),75761.0,I,z,1181,1181,,9,yes,3,1197.0999999940395,74563.90000000596,test1trial9.png,test1trial9.png,8002,PC,C,71464,,9
10,1,13.296000003814697,test,1,m,16703.999996185303,Tue Feb 25 2025 10:54:54 GMT-0600 (Central Standard Time),76960.60000000894,I,m,1189,1189,,10,no,3,1196.6000000089407,75764.0,test1trial10.png,test1trial10b.png,8002,PC,C,72664,,10
11,1,14.34600019454956,test,1,z,15653.99980545044,Tue Feb 25 2025 10:54:54 GMT-0600 (Central Standard Time),78010.30000001192,I,z,1038,1038,,11,yes,3,1046.9000000059605,76963.40000000596,test1trial11.png,test1trial11.png,8002,PC,C,73863,,11
12,1,16.111999988555908,test,1,m,13888.000011444092,Tue Feb 25 2025 10:54:54 GMT-0600 (Central Standard Time),79776.70000000298,I,m,1748,1748,,12,no,3,1763.5999999940395,78013.10000000894,test1trial12.png,test1trial12b.png,8002,PC,C,74913,,12
13,1,17.311000108718872,test,1,m,12688.999891281128,Tue Feb 25 2025 10:54:54 GMT-0600 (Central Standard Time),80976.0,I,m,1190,1190,,13,no,3,1196.3999999910593,79779.60000000894,test1trial13.png,test1trial13b.png,8002,PC,C,76679,,13
14,1,18.663000106811523,test,1,m,11336.999893188477,Tue Feb 25 2025 10:54:54 GMT-0600 (Central Standard Time),82327.60000000894,I,m,1335,1335,,14,no,3,1348.9000000059605,80978.70000000298,test1trial14.png,test1trial14b.png,8002,PC,C,77878,,14
15,1,20.194000005722046,test,1,z,9805.999994277954,Tue Feb 25 2025 10:54:54 GMT-0600 (Central Standard Time),83858.70000000298,I,z,1511,1511,,15,yes,3,1527.8999999910593,82330.80000001192,test1trial15.png,test1trial15.png,8002,PC,C,79230,,15
16,1,21.5770001411438,test,1,m,8422.999858856201,Tue Feb 25 2025 10:54:54 GMT-0600 (Central Standard Time),85241.20000000298,I,m,1372,1372,,16,no,3,1379.7999999970198,83861.40000000596,test1trial16.png,test1trial16b.png,8002,PC,C,80761,,16
17,1,23.243000030517578,test,1,z,6756.999969482422,Tue Feb 25 2025 10:54:54 GMT-0600 (Central Standard Time),86907.40000000596,I,z,1662,1662,,17,yes,3,1663.5,85243.90000000596,test1trial17.png,test1trial17.png,8002,PC,C,82143,,17
18,1,24.542999982833862,test,1,m,5457.000017166138,Tue Feb 25 2025 10:54:54 GMT-0600 (Central Standard Time),88207.10000000894,I,m,1283,1283,,18,no,3,1296.7999999970198,86910.30000001192,test1trial18.png,test1trial18b.png,8002,PC,C,83810,,18
19,1,26.425000190734863,test,1,m,3574.9998092651367,Tue Feb 25 2025 10:54:54 GMT-0600 (Central Standard Time),90089.90000000596,I,m,1871,1871,,19,no,3,1879.9000000059605,88210.0,test1trial19.png,test1trial19b.png,8002,PC,C,85110,,19
20,1,27.992000102996826,test,1,z,2007.9998970031738,Tue Feb 25 2025 10:54:54 GMT-0600 (Central Standard Time),91656.10000000894,I,z,1557,1557,,20,yes,3,1563.4000000059605,90092.70000000298,test1trial20.png,test1trial20.png,8002,PC,C,86992,,20
20,1,30.008000135421753,test,0,z,-8.00013542175293,Tue Feb 25 2025 10:54:54 GMT-0600 (Central Standard Time),93672.10000000894,I,None,2012,2012,,21,yes,3,2013.1000000089407,91659.0,test1trial21.png,test1trial21.png,8002,PC,C,88559,,21
1,2,1.0309998989105225,test,1,m,28969.000101089478,Tue Feb 25 2025 10:54:54 GMT-0600 (Central Standard Time),98154.0,I,m,1020,,1020.0,1,no,3,6495.0,91659.0,test2trial1.png,test2trial1b.png,8002,PC,C,,94025.0,1
1,2,2.6480000019073486,test,0,m,27351.99999809265,Tue Feb 25 2025 10:54:54 GMT-0600 (Central Standard Time),99770.30000001192,I,z,1604,,1604.0,2,no,3,8111.300000011921,91659.0,test2trial2.png,test2trial2b.png,8002,PC,C,,95057.0,2
2,2,5.013999938964844,test,1,z,24986.000061035156,Tue Feb 25 2025 10:54:54 GMT-0600 (Central Standard Time),102136.20000000298,I,z,2348,,2348.0,3,yes,3,10477.20000000298,91659.0,test2trial3.png,test2trial3.png,8002,PC,C,,96673.0,3
3,2,6.129999876022339,test,1,z,23870.00012397766,Tue Feb 25 2025 10:54:54 GMT-0600 (Central Standard Time),103252.5,I,z,1103,,1103.0,4,yes,3,11593.5,91659.0,test2trial4.png,test2trial4.png,8002,PC,C,,99038.0,4
4,2,8.061999797821045,test,1,z,21938.000202178955,Tue Feb 25 2025 10:54:54 GMT-0600 (Central Standard Time),105185.0,I,z,1914,,1914.0,5,yes,3,13526.0,91659.0,test2trial5.png,test2trial5.png,8002,PC,C,,100155.0,5
5,2,10.194999933242798,test,1,z,19805.000066757202,Tue Feb 25 2025 10:54:54 GMT-0600 (Central Standard Time),107317.80000001192,I,z,2126,,2126.0,6,yes,3,15658.800000011921,91659.0,test2trial6.png,test2trial6.png,8002,PC,C,,102087.0,6
6,2,11.411999940872192,test,1,m,18588.000059127808,Tue Feb 25 2025 10:54:54 GMT-0600 (Central Standard Time),108534.20000000298,I,m,1201,,1201.0,7,no,3,16875.20000000298,91659.0,test2trial7.png,test2trial7b.png,8002,PC,C,,104220.0,7
7,2,12.460999965667725,test,1,m,17539.000034332275,Tue Feb 25 2025 10:54:54 GMT-0600 (Central Standard Time),109583.90000000596,I,m,1040,,1040.0,8,no,3,17924.90000000596,91659.0,test2trial8.png,test2trial8b.png,8002,PC,C,,105437.0,8
8,2,14.060999870300293,test,1,z,15939.000129699707,Tue Feb 25 2025 10:54:54 GMT-0600 (Central Standard Time),111183.30000001192,I,z,1591,,1591.0,9,yes,3,19524.30000001192,91659.0,test2trial9.png,test2trial9.png,8002,PC,C,,106486.0,9
9,2,15.543999910354614,test,1,z,14456.000089645386,Tue Feb 25 2025 10:54:54 GMT-0600 (Central Standard Time),112666.20000000298,I,z,1471,,1471.0,10,yes,3,21007.20000000298,91659.0,test2trial10.png,test2trial10.png,8002,PC,C,,108086.0,10
10,2,16.575999975204468,test,1,m,13424.000024795532,Tue Feb 25 2025 10:54:54 GMT-0600 (Central Standard Time),113699.0,I,m,1028,,1028.0,11,no,3,22040.0,91659.0,test2trial11.png,test2trial11b.png,8002,PC,C,,109569.0,11
11,2,18.757999897003174,test,1,m,11242.000102996826,Tue Feb 25 2025 10:54:54 GMT-0600 (Central Standard Time),115881.80000001192,I,m,2172,,2172.0,12,no,3,24222.80000001192,91659.0,test2trial12.png,test2trial12b.png,8002,PC,C,,110601.0,12
12,2,19.990999937057495,test,1,z,10009.000062942505,Tue Feb 25 2025 10:54:54 GMT-0600 (Central Standard Time),117114.70000000298,I,z,1221,,1221.0,13,yes,3,25455.70000000298,91659.0,test2trial13.png,test2trial13.png,8002,PC,C,,112784.0,13
13,2,22.139999866485596,test,1,m,7860.000133514404,Tue Feb 25 2025 10:54:54 GMT-0600 (Central Standard Time),119264.10000000894,I,m,2132,,2132.0,14,no,3,27605.10000000894,91659.0,test2trial14.png,test2trial14b.png,8002,PC,C,,114017.0,14
14,2,23.289999961853027,test,1,m,6710.000038146973,Tue Feb 25 2025 10:54:54 GMT-0600 (Central Standard Time),120413.60000000894,I,m,1142,,1142.0,15,no,3,28754.60000000894,91659.0,test2trial15.png,test2trial15b.png,8002,PC,C,,116167.0,15
14,2,25.10599994659424,test,0,m,4894.000053405762,Tue Feb 25 2025 10:54:54 GMT-0600 (Central Standard Time),122229.80000001192,I,z,1809,,1809.0,16,no,3,30570.80000001192,91659.0,test2trial16.png,test2trial16b.png,8002,PC,C,,117316.0,16
15,2,26.988999843597412,test,1,z,3011.000156402588,Tue Feb 25 2025 10:54:54 GMT-0600 (Central Standard Time),124112.5,I,z,1873,,1873.0,17,yes,3,32453.5,91659.0,test2trial17.png,test2trial17.png,8002,PC,C,,119132.0,17
16,2,28.40499997138977,test,1,z,1595.0000286102295,Tue Feb 25 2025 10:54:54 GMT-0600 (Central Standard Time),125528.80000001192,I,z,1399,,1399.0,18,yes,3,33869.80000001192,91659.0,test2trial18.png,test2trial18.png,8002,PC,C,,121014.0,18
16,2,30.003999948501587,test,0,z,-3.999948501586914,Tue Feb 25 2025 10:54:54 GMT-0600 (Central Standard Time),127128.10000000894,I,None,1596,,1596.0,19,yes,3,35469.10000000894,91659.0,test2trial19.png,test2trial19.png,8002,PC,C,,122431.0,19
