acc_sum,block,block_c,change,condition,correct,correct_response,datetime,endtime,face,project,response,response_time,row_sel,session_number,start_end,starttime,subject_id,task,task_vers,trial
0,prac,1,,1-Back,,,Tue Jan 21 2025 18:04:28 GMT-0600 (Central Standard Time),,097_m_f_n_a.png,I,space,14469,1,1,,,8018,NNB,B,0
1,prac,1,0.0,1-Back,1,m,Tue Jan 21 2025 18:04:28 GMT-0600 (Central Standard Time),240739.60000002384,152_y_f_n_a.png,I,m,1341,2,1,2208.800000011921,238530.80000001192,8018,NNB,B,1
1,prac,1,1.0,1-Back,0,z,Tue Jan 21 2025 18:04:28 GMT-0600 (Central Standard Time),243239.0,152_y_f_n_a.png,I,m,1712,3,1,2493.600000023842,240745.39999997616,8018,NNB,B,2
1,prac,1,0.0,1-Back,0,m,Tue Jan 21 2025 18:04:28 GMT-0600 (Central Standard Time),246137.69999998808,176_o_m_n_a.png,I,None,2011,4,1,2892.699999988079,243245.0,8018,NNB,B,3
1,prac,1,0.0,1-Back,0,m,Tue Jan 21 2025 18:04:28 GMT-0600 (Central Standard Time),249020.19999998808,126_m_m_n_a.png,I,None,2012,5,1,2876.199999988079,246144.0,8018,NNB,B,4
2,prac,1,1.0,1-Back,1,z,Tue Jan 21 2025 18:04:28 GMT-0600 (Central Standard Time),251619.5,126_m_m_n_a.png,I,z,1824,6,1,2593.600000023842,249025.89999997616,8018,NNB,B,5
2,prac,1,0.0,1-Back,0,m,Tue Jan 21 2025 18:04:28 GMT-0600 (Central Standard Time),254518.5,086_o_f_n_a.png,I,None,2006,7,1,2893.300000011921,251625.19999998808,8018,NNB,B,6
2,prac,1,0.0,1-Back,0,m,Tue Jan 21 2025 18:04:28 GMT-0600 (Central Standard Time),257401.0,178_m_m_n_a.png,I,None,2015,8,1,2876.600000023842,254524.39999997616,8018,NNB,B,7
2,prac,1,0.0,1-Back,0,m,Tue Jan 21 2025 18:04:28 GMT-0600 (Central Standard Time),260183.19999998808,097_m_f_n_a.png,I,None,2009,9,1,2776.800000011921,257406.39999997616,8018,NNB,B,8
3,prac,1,1.0,1-Back,1,z,Tue Jan 21 2025 18:04:28 GMT-0600 (Central Standard Time),262349.60000002384,097_m_f_n_a.png,I,z,1388,10,1,2160.600000023842,260189.0,8018,NNB,B,9
4,prac,1,0.0,1-Back,1,m,Tue Jan 21 2025 18:04:28 GMT-0600 (Central Standard Time),264815.3000000119,176_o_m_n_a.png,I,m,1686,11,1,2459.5,262355.8000000119,8018,NNB,B,10
5,prac,1,0.0,1-Back,1,m,Tue Jan 21 2025 18:04:28 GMT-0600 (Central Standard Time),267098.0,173_y_f_n_a.png,I,m,1420,12,1,2277.399999976158,264820.60000002384,8018,NNB,B,11
0,test,1,0.0,1-Back,,,Tue Jan 21 2025 18:04:28 GMT-0600 (Central Standard Time),267098.0,152_y_f_n_a.png,I,space,21681,1,1,2277.399999976158,264820.60000002384,8018,NNB,B,0
1,test,1,0.0,1-Back,1,m,Tue Jan 21 2025 18:04:28 GMT-0600 (Central Standard Time),310600.89999997616,029_m_f_n_a.png,I,m,1207,2,1,2228.2999999523163,308372.60000002384,8018,NNB,B,1
2,test,1,0.0,1-Back,1,m,Tue Jan 21 2025 18:04:28 GMT-0600 (Central Standard Time),312733.6999999881,173_y_f_n_a.png,I,m,1103,3,1,2129.399999976158,310604.3000000119,8018,NNB,B,2
2,test,1,1.0,1-Back,0,z,Tue Jan 21 2025 18:04:28 GMT-0600 (Central Standard Time),314499.39999997616,173_y_f_n_a.png,I,m,747,4,1,1761.7999999523163,312737.60000002384,8018,NNB,B,3
3,test,1,0.0,1-Back,1,m,Tue Jan 21 2025 18:04:28 GMT-0600 (Central Standard Time),317300.3000000119,029_m_f_n_a.png,I,m,1773,5,1,2797.199999988079,314503.10000002384,8018,NNB,B,4
4,test,1,0.0,1-Back,1,m,Tue Jan 21 2025 18:04:28 GMT-0600 (Central Standard Time),319498.10000002384,176_o_m_n_a.png,I,m,1166,6,1,2193.300000011921,317304.8000000119,8018,NNB,B,5
5,test,1,1.0,1-Back,1,z,Tue Jan 21 2025 18:04:28 GMT-0600 (Central Standard Time),321447.5,176_o_m_n_a.png,I,z,927,7,1,1945.800000011921,319501.6999999881,8018,NNB,B,6
6,test,1,0.0,1-Back,1,m,Tue Jan 21 2025 18:04:28 GMT-0600 (Central Standard Time),323846.6999999881,126_m_m_n_a.png,I,m,1368,8,1,2395.5,321451.1999999881,8018,NNB,B,7
7,test,1,0.0,1-Back,1,m,Tue Jan 21 2025 18:04:28 GMT-0600 (Central Standard Time),326246.1999999881,086_o_f_n_a.png,I,m,1370,9,1,2395.899999976158,323850.3000000119,8018,NNB,B,8
7,test,1,0.0,1-Back,0,m,Tue Jan 21 2025 18:04:28 GMT-0600 (Central Standard Time),329278.5,126_m_m_n_a.png,I,None,2014,10,1,3029.0,326249.5,8018,NNB,B,9
8,test,1,0.0,1-Back,1,m,Tue Jan 21 2025 18:04:28 GMT-0600 (Central Standard Time),331444.3000000119,153_y_m_n_a.png,I,m,1147,11,1,2162.300000011921,329282.0,8018,NNB,B,10
9,test,1,1.0,1-Back,1,z,Tue Jan 21 2025 18:04:28 GMT-0600 (Central Standard Time),333327.10000002384,153_y_m_n_a.png,I,z,861,12,1,1879.1000000238419,331448.0,8018,NNB,B,11
10,test,1,0.0,1-Back,1,m,Tue Jan 21 2025 18:04:28 GMT-0600 (Central Standard Time),335976.3000000119,110_o_f_n_a.png,I,m,1618,13,1,2645.400000035763,333330.89999997616,8018,NNB,B,12
11,test,1,1.0,1-Back,1,z,Tue Jan 21 2025 18:04:28 GMT-0600 (Central Standard Time),337925.5,110_o_f_n_a.png,I,z,928,14,1,1945.8999999761581,335979.60000002384,8018,NNB,B,13
12,test,1,0.0,1-Back,1,m,Tue Jan 21 2025 18:04:28 GMT-0600 (Central Standard Time),340274.89999997616,013_y_m_n_a.png,I,m,1324,15,1,2345.0,337929.89999997616,8018,NNB,B,14
13,test,1,0.0,1-Back,1,m,Tue Jan 21 2025 18:04:28 GMT-0600 (Central Standard Time),342724.1999999881,097_m_f_n_a.png,I,m,1422,16,1,2444.899999976158,340279.3000000119,8018,NNB,B,15
14,test,1,0.0,1-Back,1,m,Tue Jan 21 2025 18:04:28 GMT-0600 (Central Standard Time),345140.0,065_o_m_n_a.png,I,m,1389,17,1,2411.699999988079,342728.3000000119,8018,NNB,B,16
15,test,1,0.0,1-Back,1,m,Tue Jan 21 2025 18:04:28 GMT-0600 (Central Standard Time),347722.60000002384,097_m_f_n_a.png,I,m,1557,18,1,2578.900000035763,345143.6999999881,8018,NNB,B,17
0,test,2,0.0,1-Back,,,Tue Jan 21 2025 18:04:28 GMT-0600 (Central Standard Time),347722.60000002384,126_m_m_n_a.png,I,space,8167,1,1,2578.900000035763,345143.6999999881,8018,NNB,B,0
1,test,2,0.0,1-Back,1,m,Tue Jan 21 2025 18:04:28 GMT-0600 (Central Standard Time),360135.5,029_m_f_n_a.png,I,m,1192,2,1,2211.5,357924.0,8018,NNB,B,1
2,test,2,1.0,1-Back,1,z,Tue Jan 21 2025 18:04:28 GMT-0600 (Central Standard Time),362234.6999999881,029_m_f_n_a.png,I,z,1082,3,1,2095.599999964237,360139.10000002384,8018,NNB,B,2
3,test,2,0.0,1-Back,1,m,Tue Jan 21 2025 18:04:28 GMT-0600 (Central Standard Time),364584.0,126_m_m_n_a.png,I,m,1326,4,1,2345.699999988079,362238.3000000119,8018,NNB,B,3
4,test,2,0.0,1-Back,1,m,Tue Jan 21 2025 18:04:28 GMT-0600 (Central Standard Time),366866.5,153_y_m_n_a.png,I,m,1249,5,1,2278.899999976158,364587.60000002384,8018,NNB,B,4
5,test,2,0.0,1-Back,1,m,Tue Jan 21 2025 18:04:28 GMT-0600 (Central Standard Time),368949.3000000119,152_y_f_n_a.png,I,m,1054,6,1,2078.699999988079,366870.60000002384,8018,NNB,B,5
6,test,2,1.0,1-Back,1,z,Tue Jan 21 2025 18:04:28 GMT-0600 (Central Standard Time),370532.0,152_y_f_n_a.png,I,z,564,7,1,1579.3999999761581,368952.60000002384,8018,NNB,B,6
7,test,2,0.0,1-Back,1,m,Tue Jan 21 2025 18:04:28 GMT-0600 (Central Standard Time),372581.5,153_y_m_n_a.png,I,m,1021,8,1,2045.800000011921,370535.6999999881,8018,NNB,B,7
8,test,2,0.0,1-Back,1,m,Tue Jan 21 2025 18:04:28 GMT-0600 (Central Standard Time),374497.6999999881,110_o_f_n_a.png,I,m,884,9,1,1912.5999999642372,372585.10000002384,8018,NNB,B,8
9,test,2,0.0,1-Back,1,m,Tue Jan 21 2025 18:04:28 GMT-0600 (Central Standard Time),376430.3000000119,178_m_m_n_a.png,I,m,903,10,1,1928.6000000238419,374501.6999999881,8018,NNB,B,9
10,test,2,1.0,1-Back,1,z,Tue Jan 21 2025 18:04:28 GMT-0600 (Central Standard Time),378279.60000002384,178_m_m_n_a.png,I,z,827,11,1,1845.800000011921,376433.8000000119,8018,NNB,B,10
11,test,2,0.0,1-Back,1,m,Tue Jan 21 2025 18:04:28 GMT-0600 (Central Standard Time),380179.1999999881,110_o_f_n_a.png,I,m,881,12,1,1895.0999999642372,378284.10000002384,8018,NNB,B,11
11,test,2,0.0,1-Back,0,m,Tue Jan 21 2025 18:04:28 GMT-0600 (Central Standard Time),382528.39999997616,086_o_f_n_a.png,I,z,1318,13,1,2345.399999976158,380183.0,8018,NNB,B,12
12,test,2,0.0,1-Back,1,m,Tue Jan 21 2025 18:04:28 GMT-0600 (Central Standard Time),384877.89999997616,176_o_m_n_a.png,I,m,1321,14,1,2345.099999964237,382532.8000000119,8018,NNB,B,13
13,test,2,0.0,1-Back,1,m,Tue Jan 21 2025 18:04:28 GMT-0600 (Central Standard Time),387060.1999999881,065_o_m_n_a.png,I,m,1154,15,1,2179.0,384881.1999999881,8018,NNB,B,14
14,test,2,1.0,1-Back,1,z,Tue Jan 21 2025 18:04:28 GMT-0600 (Central Standard Time),388976.3000000119,065_o_m_n_a.png,I,z,894,16,1,1912.199999988079,387064.10000002384,8018,NNB,B,15
15,test,2,0.0,1-Back,1,m,Tue Jan 21 2025 18:04:28 GMT-0600 (Central Standard Time),390993.0,013_y_m_n_a.png,I,m,985,17,1,2012.800000011921,388980.1999999881,8018,NNB,B,16
16,test,2,1.0,1-Back,1,z,Tue Jan 21 2025 18:04:28 GMT-0600 (Central Standard Time),393308.10000002384,013_y_m_n_a.png,I,z,1296,18,1,2309.600000023842,390998.5,8018,NNB,B,17
0,test,3,1.0,1-Back,,,Tue Jan 21 2025 18:04:28 GMT-0600 (Central Standard Time),393308.10000002384,173_y_f_n_a.png,I,space,3502,1,1,2309.600000023842,390998.5,8018,NNB,B,0
1,test,3,0.0,1-Back,1,m,Tue Jan 21 2025 18:04:28 GMT-0600 (Central Standard Time),400989.39999997616,065_o_m_n_a.png,I,m,1029,1,1,2061.5,398927.89999997616,8018,NNB,B,1
2,test,3,1.0,1-Back,1,z,Tue Jan 21 2025 18:04:28 GMT-0600 (Central Standard Time),402939.0,065_o_m_n_a.png,I,z,932,1,1,1945.699999988079,400993.3000000119,8018,NNB,B,2
3,test,3,0.0,1-Back,1,m,Tue Jan 21 2025 18:04:28 GMT-0600 (Central Standard Time),405037.89999997616,097_m_f_n_a.png,I,m,1078,1,1,2095.099999964237,402942.8000000119,8018,NNB,B,3
4,test,3,1.0,1-Back,1,z,Tue Jan 21 2025 18:04:28 GMT-0600 (Central Standard Time),406987.10000002384,097_m_f_n_a.png,I,z,914,1,1,1945.0,405042.10000002384,8018,NNB,B,4
5,test,3,0.0,1-Back,1,m,Tue Jan 21 2025 18:04:28 GMT-0600 (Central Standard Time),409136.8000000119,110_o_f_n_a.png,I,m,1118,1,1,2145.600000023842,406991.1999999881,8018,NNB,B,5
6,test,3,0.0,1-Back,1,m,Tue Jan 21 2025 18:04:28 GMT-0600 (Central Standard Time),411169.5,153_y_m_n_a.png,I,m,1000,1,1,2028.8999999761581,409140.60000002384,8018,NNB,B,6
7,test,3,0.0,1-Back,1,m,Tue Jan 21 2025 18:04:28 GMT-0600 (Central Standard Time),413535.3000000119,110_o_f_n_a.png,I,m,1344,1,1,2361.600000023842,411173.6999999881,8018,NNB,B,7
8,test,3,0.0,1-Back,1,m,Tue Jan 21 2025 18:04:28 GMT-0600 (Central Standard Time),415484.8000000119,013_y_m_n_a.png,I,m,930,1,1,1946.1000000238419,413538.6999999881,8018,NNB,B,8
9,test,3,1.0,1-Back,1,z,Tue Jan 21 2025 18:04:28 GMT-0600 (Central Standard Time),417100.6999999881,013_y_m_n_a.png,I,z,588,1,1,1612.199999988079,415488.5,8018,NNB,B,9
10,test,3,0.0,1-Back,1,m,Tue Jan 21 2025 18:04:28 GMT-0600 (Central Standard Time),419117.60000002384,029_m_f_n_a.png,I,m,988,1,1,2012.2000000476837,417105.39999997616,8018,NNB,B,10
10,test,3,0.0,1-Back,0,m,Tue Jan 21 2025 18:04:28 GMT-0600 (Central Standard Time),420966.5,152_y_f_n_a.png,I,z,828,1,1,1845.699999988079,419120.8000000119,8018,NNB,B,11
11,test,3,1.0,1-Back,1,z,Tue Jan 21 2025 18:04:28 GMT-0600 (Central Standard Time),422898.89999997616,152_y_f_n_a.png,I,z,907,1,1,1928.699999988079,420970.1999999881,8018,NNB,B,12
12,test,3,0.0,1-Back,1,m,Tue Jan 21 2025 18:04:28 GMT-0600 (Central Standard Time),424881.8000000119,029_m_f_n_a.png,I,m,957,1,1,1979.199999988079,422902.60000002384,8018,NNB,B,13
13,test,3,0.0,1-Back,1,m,Tue Jan 21 2025 18:04:28 GMT-0600 (Central Standard Time),426881.0,126_m_m_n_a.png,I,m,967,1,1,1996.1000000238419,424884.89999997616,8018,NNB,B,14
14,test,3,1.0,1-Back,1,z,Tue Jan 21 2025 18:04:28 GMT-0600 (Central Standard Time),428730.60000002384,126_m_m_n_a.png,I,z,815,1,1,1845.7000000476837,426884.89999997616,8018,NNB,B,15
15,test,3,0.0,1-Back,1,m,Tue Jan 21 2025 18:04:28 GMT-0600 (Central Standard Time),430779.60000002384,086_o_f_n_a.png,I,m,1030,1,1,2045.9000000357628,428733.6999999881,8018,NNB,B,16
16,test,3,1.0,1-Back,1,z,Tue Jan 21 2025 18:04:28 GMT-0600 (Central Standard Time),432595.89999997616,086_o_f_n_a.png,I,z,797,1,1,1812.5999999642372,430783.3000000119,8018,NNB,B,17
0,test,4,1.0,1-Back,,,Tue Jan 21 2025 18:04:28 GMT-0600 (Central Standard Time),432595.89999997616,097_m_f_n_a.png,I,space,2458,1,1,1812.5999999642372,430783.3000000119,8018,NNB,B,0
1,test,4,0.0,1-Back,1,m,Tue Jan 21 2025 18:04:28 GMT-0600 (Central Standard Time),439060.6999999881,065_o_m_n_a.png,I,m,846,2,1,1861.8999999761581,437198.8000000119,8018,NNB,B,1
1,test,4,0.0,1-Back,0,m,Tue Jan 21 2025 18:04:28 GMT-0600 (Central Standard Time),440860.0,097_m_f_n_a.png,I,z,772,3,1,1795.6000000238419,439064.39999997616,8018,NNB,B,2
2,test,4,0.0,1-Back,1,m,Tue Jan 21 2025 18:04:28 GMT-0600 (Central Standard Time),443176.1999999881,110_o_f_n_a.png,I,m,1268,4,1,2312.099999964237,440864.10000002384,8018,NNB,B,3
3,test,4,1.0,1-Back,1,z,Tue Jan 21 2025 18:04:28 GMT-0600 (Central Standard Time),445392.0,110_o_f_n_a.png,I,z,1185,5,1,2212.699999988079,443179.3000000119,8018,NNB,B,4
4,test,4,0.0,1-Back,1,m,Tue Jan 21 2025 18:04:28 GMT-0600 (Central Standard Time),447724.8000000119,152_y_f_n_a.png,I,m,1304,6,1,2329.0,445395.8000000119,8018,NNB,B,5
5,test,4,0.0,1-Back,1,m,Tue Jan 21 2025 18:04:28 GMT-0600 (Central Standard Time),449640.8000000119,153_y_m_n_a.png,I,m,892,7,1,1912.199999988079,447728.60000002384,8018,NNB,B,6
6,test,4,1.0,1-Back,1,z,Tue Jan 21 2025 18:04:28 GMT-0600 (Central Standard Time),451240.0,153_y_m_n_a.png,I,z,576,8,1,1595.0,449645.0,8018,NNB,B,7
7,test,4,0.0,1-Back,1,m,Tue Jan 21 2025 18:04:28 GMT-0600 (Central Standard Time),453173.10000002384,152_y_f_n_a.png,I,m,913,9,1,1928.300000011921,451244.8000000119,8018,NNB,B,8
8,test,4,0.0,1-Back,1,m,Tue Jan 21 2025 18:04:28 GMT-0600 (Central Standard Time),454989.0,178_m_m_n_a.png,I,m,796,10,1,1812.699999988079,453176.3000000119,8018,NNB,B,9
9,test,4,1.0,1-Back,1,z,Tue Jan 21 2025 18:04:28 GMT-0600 (Central Standard Time),456821.8000000119,178_m_m_n_a.png,I,z,804,11,1,1829.5,454992.3000000119,8018,NNB,B,10
10,test,4,0.0,1-Back,1,m,Tue Jan 21 2025 18:04:28 GMT-0600 (Central Standard Time),458614.10000002384,086_o_f_n_a.png,I,m,774,12,1,1788.5,456825.60000002384,8018,NNB,B,11
11,test,4,0.0,1-Back,1,m,Tue Jan 21 2025 18:04:28 GMT-0600 (Central Standard Time),460720.6999999881,176_o_m_n_a.png,I,m,1084,13,1,2101.300000011921,458619.39999997616,8018,NNB,B,12
12,test,4,0.0,1-Back,1,m,Tue Jan 21 2025 18:04:28 GMT-0600 (Central Standard Time),462886.6999999881,086_o_f_n_a.png,I,m,1137,14,1,2162.599999964237,460724.10000002384,8018,NNB,B,13
13,test,4,0.0,1-Back,1,m,Tue Jan 21 2025 18:04:28 GMT-0600 (Central Standard Time),464636.10000002384,173_y_f_n_a.png,I,m,721,15,1,1745.2000000476837,462890.89999997616,8018,NNB,B,14
14,test,4,1.0,1-Back,1,z,Tue Jan 21 2025 18:04:28 GMT-0600 (Central Standard Time),466451.89999997616,173_y_f_n_a.png,I,z,797,16,1,1812.2999999523163,464639.60000002384,8018,NNB,B,15
15,test,4,0.0,1-Back,1,m,Tue Jan 21 2025 18:04:28 GMT-0600 (Central Standard Time),468084.89999997616,029_m_f_n_a.png,I,m,613,17,1,1629.199999988079,466455.6999999881,8018,NNB,B,16
16,test,4,1.0,1-Back,1,z,Tue Jan 21 2025 18:04:28 GMT-0600 (Central Standard Time),469834.60000002384,029_m_f_n_a.png,I,z,716,18,1,1745.6000000238419,468089.0,8018,NNB,B,17
0,test,5,1.0,1-Back,,,Tue Jan 21 2025 18:04:28 GMT-0600 (Central Standard Time),469834.60000002384,176_o_m_n_a.png,I,space,1871,1,1,1745.6000000238419,468089.0,8018,NNB,B,0
1,test,5,1.0,1-Back,1,z,Tue Jan 21 2025 18:04:28 GMT-0600 (Central Standard Time),476065.8000000119,176_o_m_n_a.png,I,z,1308,2,1,2328.199999988079,473737.60000002384,8018,NNB,B,1
2,test,5,0.0,1-Back,1,m,Tue Jan 21 2025 18:04:28 GMT-0600 (Central Standard Time),477915.1999999881,152_y_f_n_a.png,I,m,823,3,1,1846.199999988079,476069.0,8018,NNB,B,2
3,test,5,0.0,1-Back,1,m,Tue Jan 21 2025 18:04:28 GMT-0600 (Central Standard Time),479881.3000000119,153_y_m_n_a.png,I,m,942,4,1,1962.800000011921,477918.5,8018,NNB,B,3
3,test,5,0.0,1-Back,0,m,Tue Jan 21 2025 18:04:28 GMT-0600 (Central Standard Time),481780.6999999881,152_y_f_n_a.png,I,z,872,5,1,1895.5,479885.1999999881,8018,NNB,B,4
4,test,5,0.0,1-Back,1,m,Tue Jan 21 2025 18:04:28 GMT-0600 (Central Standard Time),483663.5,126_m_m_n_a.png,I,m,852,6,1,1879.5,481784.0,8018,NNB,B,5
4,test,5,1.0,1-Back,0,z,Tue Jan 21 2025 18:04:28 GMT-0600 (Central Standard Time),485180.6999999881,126_m_m_n_a.png,I,m,497,7,1,1513.699999988079,483667.0,8018,NNB,B,6
5,test,5,0.0,1-Back,1,m,Tue Jan 21 2025 18:04:28 GMT-0600 (Central Standard Time),487512.10000002384,173_y_f_n_a.png,I,m,1310,8,1,2327.2000000476837,485184.89999997616,8018,NNB,B,7
6,test,5,0.0,1-Back,1,m,Tue Jan 21 2025 18:04:28 GMT-0600 (Central Standard Time),490194.8000000119,013_y_m_n_a.png,I,m,1649,9,1,2679.100000023842,487515.6999999881,8018,NNB,B,8
6,test,5,0.0,1-Back,0,m,Tue Jan 21 2025 18:04:28 GMT-0600 (Central Standard Time),492427.1999999881,173_y_f_n_a.png,I,z,1198,10,1,2228.0,490199.1999999881,8018,NNB,B,9
7,test,5,0.0,1-Back,1,m,Tue Jan 21 2025 18:04:28 GMT-0600 (Central Standard Time),494326.89999997616,086_o_f_n_a.png,I,m,878,11,1,1895.7999999523163,492431.10000002384,8018,NNB,B,10
8,test,5,1.0,1-Back,1,z,Tue Jan 21 2025 18:04:28 GMT-0600 (Central Standard Time),496176.1999999881,086_o_f_n_a.png,I,z,826,12,1,1845.5999999642372,494330.60000002384,8018,NNB,B,11
9,test,5,0.0,1-Back,1,m,Tue Jan 21 2025 18:04:28 GMT-0600 (Central Standard Time),497975.60000002384,065_o_m_n_a.png,I,m,777,13,1,1795.5,496180.10000002384,8018,NNB,B,12
10,test,5,0.0,1-Back,1,m,Tue Jan 21 2025 18:04:28 GMT-0600 (Central Standard Time),499958.5,097_m_f_n_a.png,I,m,962,14,1,1979.5,497979.0,8018,NNB,B,13
11,test,5,1.0,1-Back,1,z,Tue Jan 21 2025 18:04:28 GMT-0600 (Central Standard Time),501741.10000002384,097_m_f_n_a.png,I,z,754,15,1,1778.7000000476837,499962.39999997616,8018,NNB,B,14
12,test,5,0.0,1-Back,1,m,Tue Jan 21 2025 18:04:28 GMT-0600 (Central Standard Time),503557.1999999881,065_o_m_n_a.png,I,m,788,16,1,1813.0,501744.1999999881,8018,NNB,B,15
13,test,5,0.0,1-Back,1,m,Tue Jan 21 2025 18:04:28 GMT-0600 (Central Standard Time),505716.5,029_m_f_n_a.png,I,m,995,17,1,2155.300000011921,503561.1999999881,8018,NNB,B,16
14,test,5,0.0,1-Back,1,m,Tue Jan 21 2025 18:04:28 GMT-0600 (Central Standard Time),507722.6999999881,178_m_m_n_a.png,I,m,991,18,1,2001.699999988079,505721.0,8018,NNB,B,17
0,prac,1,0.0,2-Back,,,Tue Jan 21 2025 18:04:28 GMT-0600 (Central Standard Time),507722.6999999881,013_y_m_n_a.png,I,space,8445,1,1,2001.699999988079,505721.0,8018,NNB,B,0
0,prac,1,0.0,2-Back,,,Tue Jan 21 2025 18:04:28 GMT-0600 (Central Standard Time),507722.6999999881,029_m_f_n_a.png,I,space,8445,2,1,2001.699999988079,505721.0,8018,NNB,B,0
1,prac,1,1.0,2-Back,1,m,Tue Jan 21 2025 18:04:28 GMT-0600 (Central Standard Time),694011.5,065_o_m_n_a.png,I,m,1551,3,1,2474.399999976158,691537.1000000238,8018,NNB,B,1
1,prac,1,0.0,2-Back,0,m,Tue Jan 21 2025 18:04:28 GMT-0600 (Central Standard Time),696913.3999999762,086_o_f_n_a.png,I,None,2017,4,1,2896.2999999523163,694017.1000000238,8018,NNB,B,2
1,prac,1,0.0,2-Back,0,z,Tue Jan 21 2025 18:04:28 GMT-0600 (Central Standard Time),699695.6999999881,065_o_m_n_a.png,I,None,2010,5,1,2777.5,696918.1999999881,8018,NNB,B,3
1,prac,1,1.0,2-Back,0,z,Tue Jan 21 2025 18:04:28 GMT-0600 (Central Standard Time),702479.6000000238,086_o_f_n_a.png,I,None,2009,6,1,2778.300000011921,699701.3000000119,8018,NNB,B,4
1,prac,1,0.0,2-Back,0,m,Tue Jan 21 2025 18:04:28 GMT-0600 (Central Standard Time),705360.8000000119,178_m_m_n_a.png,I,None,2014,7,1,2876.199999988079,702484.6000000238,8018,NNB,B,5
1,prac,1,0.0,2-Back,0,m,Tue Jan 21 2025 18:04:28 GMT-0600 (Central Standard Time),708242.8000000119,176_o_m_n_a.png,I,None,2012,8,1,2876.600000023842,705366.1999999881,8018,NNB,B,6
1,prac,1,0.0,2-Back,0,m,Tue Jan 21 2025 18:04:28 GMT-0600 (Central Standard Time),711125.6000000238,173_y_f_n_a.png,I,None,2014,9,1,2877.600000023842,708248.0,8018,NNB,B,7
1,prac,1,1.0,2-Back,0,z,Tue Jan 21 2025 18:04:28 GMT-0600 (Central Standard Time),713908.0,176_o_m_n_a.png,I,None,2010,10,1,2777.399999976158,711130.6000000238,8018,NNB,B,8
1,prac,1,0.0,2-Back,0,m,Tue Jan 21 2025 18:04:28 GMT-0600 (Central Standard Time),716774.1000000238,152_y_f_n_a.png,I,None,2004,11,1,2860.800000011921,713913.3000000119,8018,NNB,B,9
1,prac,1,0.0,2-Back,0,m,Tue Jan 21 2025 18:04:28 GMT-0600 (Central Standard Time),719556.5,178_m_m_n_a.png,I,None,2008,12,1,2776.199999988079,716780.3000000119,8018,NNB,B,10
0,prac,2,0.0,2-Back,,,Tue Jan 21 2025 18:04:28 GMT-0600 (Central Standard Time),719556.5,013_y_m_n_a.png,I,a,7937,1,1,2776.199999988079,716780.3000000119,8018,NNB,B,0
0,prac,2,0.0,2-Back,,,Tue Jan 21 2025 18:04:28 GMT-0600 (Central Standard Time),719556.5,029_m_f_n_a.png,I,a,7937,2,1,2776.199999988079,716780.3000000119,8018,NNB,B,0
1,prac,2,1.0,2-Back,1,m,Tue Jan 21 2025 18:04:28 GMT-0600 (Central Standard Time),735418.0,065_o_m_n_a.png,I,m,1802,3,1,2677.199999988079,732740.8000000119,8018,NNB,B,1
2,prac,2,0.0,2-Back,1,m,Tue Jan 21 2025 18:04:28 GMT-0600 (Central Standard Time),737883.6999999881,086_o_f_n_a.png,I,m,1577,4,1,2460.5,735423.1999999881,8018,NNB,B,2
3,prac,2,0.0,2-Back,1,z,Tue Jan 21 2025 18:04:28 GMT-0600 (Central Standard Time),739899.8999999762,065_o_m_n_a.png,I,z,1240,5,1,2010.5999999642372,737889.3000000119,8018,NNB,B,3
4,prac,2,1.0,2-Back,1,z,Tue Jan 21 2025 18:04:28 GMT-0600 (Central Standard Time),742049.3000000119,086_o_f_n_a.png,I,z,1385,6,1,2144.100000023842,739905.1999999881,8018,NNB,B,4
5,prac,2,0.0,2-Back,1,m,Tue Jan 21 2025 18:04:28 GMT-0600 (Central Standard Time),744715.0,178_m_m_n_a.png,I,m,1882,7,1,2659.5,742055.5,8018,NNB,B,5
6,prac,2,0.0,2-Back,1,m,Tue Jan 21 2025 18:04:28 GMT-0600 (Central Standard Time),746747.6999999881,176_o_m_n_a.png,I,m,1159,8,1,2027.5,744720.1999999881,8018,NNB,B,6
7,prac,2,0.0,2-Back,1,m,Tue Jan 21 2025 18:04:28 GMT-0600 (Central Standard Time),749113.6999999881,173_y_f_n_a.png,I,m,1493,9,1,2361.0,746752.6999999881,8018,NNB,B,7
8,prac,2,1.0,2-Back,1,z,Tue Jan 21 2025 18:04:28 GMT-0600 (Central Standard Time),750779.6999999881,176_o_m_n_a.png,I,z,882,10,1,1660.5,749119.1999999881,8018,NNB,B,8
9,prac,2,0.0,2-Back,1,m,Tue Jan 21 2025 18:04:28 GMT-0600 (Central Standard Time),752995.8999999762,152_y_f_n_a.png,I,m,1353,11,1,2211.5,750784.3999999762,8018,NNB,B,9
9,prac,2,0.0,2-Back,0,m,Tue Jan 21 2025 18:04:28 GMT-0600 (Central Standard Time),754895.1999999881,178_m_m_n_a.png,I,z,1121,12,1,1894.300000011921,753000.8999999762,8018,NNB,B,10
0,test,1,0.0,2-Back,,,Tue Jan 21 2025 18:04:28 GMT-0600 (Central Standard Time),754895.1999999881,153_y_m_n_a.png,I,space,12619,1,1,1894.300000011921,753000.8999999762,8018,NNB,B,0
0,test,1,0.0,2-Back,,,Tue Jan 21 2025 18:04:28 GMT-0600 (Central Standard Time),754895.1999999881,153_y_m_n_a.png,I,space,12619,2,1,1894.300000011921,753000.8999999762,8018,NNB,B,0
0,test,1,0.0,2-Back,0,m,Tue Jan 21 2025 18:04:28 GMT-0600 (Central Standard Time),788231.5,086_o_f_n_a.png,I,None,2094,3,1,3108.699999988079,785122.8000000119,8018,NNB,B,1
0,test,1,0.0,2-Back,0,m,Tue Jan 21 2025 18:04:28 GMT-0600 (Central Standard Time),791267.3000000119,126_m_m_n_a.png,I,None,2014,4,1,3032.0,788235.3000000119,8018,NNB,B,2
0,test,1,1.0,2-Back,0,z,Tue Jan 21 2025 18:04:28 GMT-0600 (Central Standard Time),794299.3000000119,086_o_f_n_a.png,I,None,2014,5,1,3029.100000023842,791270.1999999881,8018,NNB,B,3
0,test,1,0.0,2-Back,0,m,Tue Jan 21 2025 18:04:28 GMT-0600 (Central Standard Time),797332.0,152_y_f_n_a.png,I,None,2014,6,1,3029.600000023842,794302.3999999762,8018,NNB,B,4
0,test,1,0.0,2-Back,0,m,Tue Jan 21 2025 18:04:28 GMT-0600 (Central Standard Time),800364.3999999762,126_m_m_n_a.png,I,None,2014,7,1,3028.899999976158,797335.5,8018,NNB,B,5
0,test,1,1.0,2-Back,0,z,Tue Jan 21 2025 18:04:28 GMT-0600 (Central Standard Time),803396.8000000119,152_y_f_n_a.png,I,None,2015,8,1,3028.600000023842,800368.1999999881,8018,NNB,B,6
0,test,1,0.0,2-Back,0,m,Tue Jan 21 2025 18:04:28 GMT-0600 (Central Standard Time),806429.1999999881,013_y_m_n_a.png,I,None,2014,9,1,3028.699999988079,803400.5,8018,NNB,B,7
0,test,1,0.0,2-Back,0,m,Tue Jan 21 2025 18:04:28 GMT-0600 (Central Standard Time),809461.3000000119,110_o_f_n_a.png,I,None,2014,10,1,3028.100000023842,806433.1999999881,8018,NNB,B,8
0,test,1,1.0,2-Back,0,z,Tue Jan 21 2025 18:04:28 GMT-0600 (Central Standard Time),812493.5,013_y_m_n_a.png,I,None,2014,11,1,3028.5,809465.0,8018,NNB,B,9
0,test,1,0.0,2-Back,0,m,Tue Jan 21 2025 18:04:28 GMT-0600 (Central Standard Time),815526.3000000119,029_m_f_n_a.png,I,None,2014,12,1,3029.5,812496.8000000119,8018,NNB,B,10
0,test,1,0.0,2-Back,0,m,Tue Jan 21 2025 18:04:28 GMT-0600 (Central Standard Time),818558.8000000119,029_m_f_n_a.png,I,None,2015,13,1,3028.600000023842,815530.1999999881,8018,NNB,B,11
0,test,1,0.0,2-Back,0,m,Tue Jan 21 2025 18:04:28 GMT-0600 (Central Standard Time),821592.1999999881,065_o_m_n_a.png,I,None,2015,14,1,3029.699999988079,818562.5,8018,NNB,B,12
0,test,1,0.0,2-Back,0,m,Tue Jan 21 2025 18:04:28 GMT-0600 (Central Standard Time),824623.3000000119,110_o_f_n_a.png,I,None,2014,15,1,3027.400000035763,821595.8999999762,8018,NNB,B,13
0,test,1,1.0,2-Back,0,z,Tue Jan 21 2025 18:04:28 GMT-0600 (Central Standard Time),827655.8000000119,065_o_m_n_a.png,I,None,2015,16,1,3029.199999988079,824626.6000000238,8018,NNB,B,14
0,test,1,0.0,2-Back,0,m,Tue Jan 21 2025 18:04:28 GMT-0600 (Central Standard Time),830688.1000000238,097_m_f_n_a.png,I,None,2014,17,1,3029.100000023842,827659.0,8018,NNB,B,15
0,test,1,0.0,2-Back,0,m,Tue Jan 21 2025 18:04:28 GMT-0600 (Central Standard Time),833720.6000000238,178_m_m_n_a.png,I,None,2015,18,1,3028.7000000476837,830691.8999999762,8018,NNB,B,16
0,test,2,0.0,2-Back,,,Tue Jan 21 2025 18:04:28 GMT-0600 (Central Standard Time),833720.6000000238,178_m_m_n_a.png,I,space,11337,1,1,3028.7000000476837,830691.8999999762,8018,NNB,B,0
0,test,2,0.0,2-Back,,,Tue Jan 21 2025 18:04:28 GMT-0600 (Central Standard Time),833720.6000000238,173_y_f_n_a.png,I,space,11337,2,1,3028.7000000476837,830691.8999999762,8018,NNB,B,0
1,test,2,1.0,2-Back,1,z,Tue Jan 21 2025 18:04:28 GMT-0600 (Central Standard Time),852464.6999999881,178_m_m_n_a.png,I,z,1242,3,1,2262.300000011921,850202.3999999762,8018,NNB,B,1
2,test,2,0.0,2-Back,1,m,Tue Jan 21 2025 18:04:28 GMT-0600 (Central Standard Time),854580.3999999762,097_m_f_n_a.png,I,m,1088,4,1,2111.699999988079,852468.6999999881,8018,NNB,B,2
2,test,2,0.0,2-Back,0,m,Tue Jan 21 2025 18:04:28 GMT-0600 (Central Standard Time),856729.8999999762,173_y_f_n_a.png,I,z,1116,5,1,2146.0,854583.8999999762,8018,NNB,B,3
3,test,2,0.0,2-Back,1,m,Tue Jan 21 2025 18:04:28 GMT-0600 (Central Standard Time),859089.5,065_o_m_n_a.png,I,m,1341,6,1,2355.899999976158,856733.6000000238,8018,NNB,B,4
4,test,2,0.0,2-Back,1,m,Tue Jan 21 2025 18:04:28 GMT-0600 (Central Standard Time),861111.8999999762,152_y_f_n_a.png,I,m,1001,7,1,2018.7999999523163,859093.1000000238,8018,NNB,B,5
5,test,2,1.0,2-Back,1,z,Tue Jan 21 2025 18:04:28 GMT-0600 (Central Standard Time),863411.3999999762,065_o_m_n_a.png,I,z,1265,8,1,2295.599999964237,861115.8000000119,8018,NNB,B,6
6,test,2,0.0,2-Back,1,m,Tue Jan 21 2025 18:04:28 GMT-0600 (Central Standard Time),865893.8000000119,013_y_m_n_a.png,I,m,1462,9,1,2479.300000011921,863414.5,8018,NNB,B,7
6,test,2,0.0,2-Back,0,m,Tue Jan 21 2025 18:04:28 GMT-0600 (Central Standard Time),868009.8000000119,013_y_m_n_a.png,I,z,1091,10,1,2112.800000011921,865897.0,8018,NNB,B,8
7,test,2,0.0,2-Back,1,m,Tue Jan 21 2025 18:04:28 GMT-0600 (Central Standard Time),870909.1000000238,029_m_f_n_a.png,I,m,1871,11,1,2896.0,868013.1000000238,8018,NNB,B,9
8,test,2,0.0,2-Back,1,m,Tue Jan 21 2025 18:04:28 GMT-0600 (Central Standard Time),873558.0,173_y_f_n_a.png,I,m,1620,12,1,2645.199999988079,870912.8000000119,8018,NNB,B,10
9,test,2,1.0,2-Back,1,z,Tue Jan 21 2025 18:04:28 GMT-0600 (Central Standard Time),875640.6999999881,029_m_f_n_a.png,I,z,1051,13,1,2079.5,873561.1999999881,8018,NNB,B,11
10,test,2,0.0,2-Back,1,m,Tue Jan 21 2025 18:04:28 GMT-0600 (Central Standard Time),877890.0,176_o_m_n_a.png,I,m,1224,14,1,2246.100000023842,875643.8999999762,8018,NNB,B,12
10,test,2,0.0,2-Back,0,m,Tue Jan 21 2025 18:04:28 GMT-0600 (Central Standard Time),879772.8999999762,176_o_m_n_a.png,I,z,863,15,1,1879.0999999642372,877893.8000000119,8018,NNB,B,13
11,test,2,0.0,2-Back,1,m,Tue Jan 21 2025 18:04:28 GMT-0600 (Central Standard Time),882138.6000000238,110_o_f_n_a.png,I,m,1340,16,1,2361.800000011921,879776.8000000119,8018,NNB,B,14
12,test,2,0.0,2-Back,1,m,Tue Jan 21 2025 18:04:28 GMT-0600 (Central Standard Time),884171.5,126_m_m_n_a.png,I,m,999,17,1,2029.300000011921,882142.1999999881,8018,NNB,B,15
13,test,2,1.0,2-Back,1,z,Tue Jan 21 2025 18:04:28 GMT-0600 (Central Standard Time),886270.8000000119,110_o_f_n_a.png,I,z,1078,18,1,2095.900000035763,884174.8999999762,8018,NNB,B,16
0,test,3,1.0,2-Back,,,Tue Jan 21 2025 18:04:28 GMT-0600 (Central Standard Time),886270.8000000119,153_y_m_n_a.png,I,space,2547,1,1,2095.900000035763,884174.8999999762,8018,NNB,B,0
0,test,3,1.0,2-Back,,,Tue Jan 21 2025 18:04:28 GMT-0600 (Central Standard Time),886270.8000000119,153_y_m_n_a.png,I,space,2547,2,1,2095.900000035763,884174.8999999762,8018,NNB,B,0
1,test,3,0.0,2-Back,1,m,Tue Jan 21 2025 18:04:28 GMT-0600 (Central Standard Time),896034.5,110_o_f_n_a.png,I,m,1049,3,1,2079.600000023842,893954.8999999762,8018,NNB,B,1
2,test,3,0.0,2-Back,1,m,Tue Jan 21 2025 18:04:28 GMT-0600 (Central Standard Time),898317.0,178_m_m_n_a.png,I,m,1254,4,1,2278.300000011921,896038.6999999881,8018,NNB,B,2
3,test,3,1.0,2-Back,1,z,Tue Jan 21 2025 18:04:28 GMT-0600 (Central Standard Time),900399.8000000119,110_o_f_n_a.png,I,z,1052,5,1,2079.0,898320.8000000119,8018,NNB,B,3
3,test,3,0.0,2-Back,0,m,Tue Jan 21 2025 18:04:28 GMT-0600 (Central Standard Time),903432.1000000238,013_y_m_n_a.png,I,None,2014,6,1,3028.100000023842,900404.0,8018,NNB,B,4
4,test,3,0.0,2-Back,1,m,Tue Jan 21 2025 18:04:28 GMT-0600 (Central Standard Time),905448.1000000238,178_m_m_n_a.png,I,m,985,7,1,2012.9000000357628,903435.1999999881,8018,NNB,B,5
5,test,3,1.0,2-Back,1,z,Tue Jan 21 2025 18:04:28 GMT-0600 (Central Standard Time),907763.8999999762,013_y_m_n_a.png,I,z,1289,8,1,2312.5,905451.3999999762,8018,NNB,B,6
6,test,3,0.0,2-Back,1,m,Tue Jan 21 2025 18:04:28 GMT-0600 (Central Standard Time),910779.6999999881,173_y_f_n_a.png,I,m,1989,9,1,3012.399999976158,907767.3000000119,8018,NNB,B,7
7,test,3,0.0,2-Back,1,m,Tue Jan 21 2025 18:04:28 GMT-0600 (Central Standard Time),913245.5,126_m_m_n_a.png,I,m,1445,10,1,2461.699999988079,910783.8000000119,8018,NNB,B,8
8,test,3,1.0,2-Back,1,z,Tue Jan 21 2025 18:04:28 GMT-0600 (Central Standard Time),915411.3999999762,173_y_f_n_a.png,I,z,1147,11,1,2162.599999964237,913248.8000000119,8018,NNB,B,9
8,test,3,1.0,2-Back,0,z,Tue Jan 21 2025 18:04:28 GMT-0600 (Central Standard Time),918443.8999999762,126_m_m_n_a.png,I,None,2014,12,1,3029.199999988079,915414.6999999881,8018,NNB,B,10
8,test,3,0.0,2-Back,0,m,Tue Jan 21 2025 18:04:28 GMT-0600 (Central Standard Time),920610.1999999881,110_o_f_n_a.png,I,z,1141,13,1,2162.199999988079,918448.0,8018,NNB,B,11
9,test,3,0.0,2-Back,1,m,Tue Jan 21 2025 18:04:28 GMT-0600 (Central Standard Time),922659.3000000119,097_m_f_n_a.png,I,m,1031,14,1,2045.6000000238419,920613.6999999881,8018,NNB,B,12
9,test,3,0.0,2-Back,0,m,Tue Jan 21 2025 18:04:28 GMT-0600 (Central Standard Time),924692.1000000238,065_o_m_n_a.png,I,z,1006,15,1,2029.2000000476837,922662.8999999762,8018,NNB,B,13
10,test,3,1.0,2-Back,1,z,Tue Jan 21 2025 18:04:28 GMT-0600 (Central Standard Time),927007.8999999762,097_m_f_n_a.png,I,z,1286,16,1,2312.699999988079,924695.1999999881,8018,NNB,B,14
11,test,3,0.0,2-Back,1,m,Tue Jan 21 2025 18:04:28 GMT-0600 (Central Standard Time),928974.1000000238,086_o_f_n_a.png,I,m,945,17,1,1962.9000000357628,927011.1999999881,8018,NNB,B,15
11,test,3,0.0,2-Back,0,m,Tue Jan 21 2025 18:04:28 GMT-0600 (Central Standard Time),932006.3999999762,086_o_f_n_a.png,I,None,2014,18,1,3029.099999964237,928977.3000000119,8018,NNB,B,16
0,test,4,0.0,2-Back,,,Tue Jan 21 2025 18:04:28 GMT-0600 (Central Standard Time),932006.3999999762,176_o_m_n_a.png,I,space,5252,1,1,3029.099999964237,928977.3000000119,8018,NNB,B,0
0,test,4,0.0,2-Back,,,Tue Jan 21 2025 18:04:28 GMT-0600 (Central Standard Time),932006.3999999762,152_y_f_n_a.png,I,space,5252,2,1,3029.099999964237,928977.3000000119,8018,NNB,B,0
1,test,4,1.0,2-Back,1,z,Tue Jan 21 2025 18:04:28 GMT-0600 (Central Standard Time),944769.3000000119,176_o_m_n_a.png,I,z,1234,3,1,2262.800000011921,942506.5,8018,NNB,B,1
2,test,4,1.0,2-Back,1,z,Tue Jan 21 2025 18:04:28 GMT-0600 (Central Standard Time),947318.5,152_y_f_n_a.png,I,z,1520,4,1,2545.100000023842,944773.3999999762,8018,NNB,B,2
3,test,4,0.0,2-Back,1,m,Tue Jan 21 2025 18:04:28 GMT-0600 (Central Standard Time),949384.6000000238,110_o_f_n_a.png,I,m,1034,5,1,2063.100000023842,947321.5,8018,NNB,B,3
3,test,4,0.0,2-Back,0,m,Tue Jan 21 2025 18:04:28 GMT-0600 (Central Standard Time),952416.6999999881,110_o_f_n_a.png,I,None,2015,6,1,3028.699999988079,949388.0,8018,NNB,B,4
4,test,4,0.0,2-Back,1,m,Tue Jan 21 2025 18:04:28 GMT-0600 (Central Standard Time),954599.3000000119,029_m_f_n_a.png,I,m,1152,7,1,2178.900000035763,952420.3999999762,8018,NNB,B,5
5,test,4,0.0,2-Back,1,m,Tue Jan 21 2025 18:04:28 GMT-0600 (Central Standard Time),956682.0,013_y_m_n_a.png,I,m,1058,8,1,2079.800000011921,954602.1999999881,8018,NNB,B,6
6,test,4,1.0,2-Back,1,z,Tue Jan 21 2025 18:04:28 GMT-0600 (Central Standard Time),959014.8000000119,029_m_f_n_a.png,I,z,1311,9,1,2329.600000023842,956685.1999999881,8018,NNB,B,7
7,test,4,0.0,2-Back,1,m,Tue Jan 21 2025 18:04:28 GMT-0600 (Central Standard Time),961514.0,126_m_m_n_a.png,I,m,1466,10,1,2495.199999988079,959018.8000000119,8018,NNB,B,8
7,test,4,0.0,2-Back,0,m,Tue Jan 21 2025 18:04:28 GMT-0600 (Central Standard Time),963430.1000000238,013_y_m_n_a.png,I,z,887,11,1,1912.300000011921,961517.8000000119,8018,NNB,B,9
8,test,4,0.0,2-Back,1,m,Tue Jan 21 2025 18:04:28 GMT-0600 (Central Standard Time),966195.8000000119,086_o_f_n_a.png,I,m,1747,12,1,2761.800000011921,963434.0,8018,NNB,B,10
9,test,4,0.0,2-Back,1,m,Tue Jan 21 2025 18:04:28 GMT-0600 (Central Standard Time),968278.3000000119,153_y_m_n_a.png,I,m,1061,13,1,2079.199999988079,966199.1000000238,8018,NNB,B,11
10,test,4,1.0,2-Back,1,z,Tue Jan 21 2025 18:04:28 GMT-0600 (Central Standard Time),970311.0,086_o_f_n_a.png,I,z,1002,14,1,2029.300000011921,968281.6999999881,8018,NNB,B,12
11,test,4,1.0,2-Back,1,z,Tue Jan 21 2025 18:04:28 GMT-0600 (Central Standard Time),972527.1999999881,153_y_m_n_a.png,I,z,1186,15,1,2212.399999976158,970314.8000000119,8018,NNB,B,13
12,test,4,0.0,2-Back,1,m,Tue Jan 21 2025 18:04:28 GMT-0600 (Central Standard Time),974609.6999999881,178_m_m_n_a.png,I,m,1050,16,1,2078.699999988079,972531.0,8018,NNB,B,14
13,test,4,0.0,2-Back,1,m,Tue Jan 21 2025 18:04:28 GMT-0600 (Central Standard Time),976804.0,097_m_f_n_a.png,I,m,1158,17,1,2190.600000023842,974613.3999999762,8018,NNB,B,15
14,test,4,1.0,2-Back,1,z,Tue Jan 21 2025 18:04:28 GMT-0600 (Central Standard Time),978858.3999999762,178_m_m_n_a.png,I,z,1033,18,1,2051.0,976807.3999999762,8018,NNB,B,16
0,test,5,1.0,2-Back,,,Tue Jan 21 2025 18:04:28 GMT-0600 (Central Standard Time),978858.3999999762,153_y_m_n_a.png,I,space,2367,1,1,2051.0,976807.3999999762,8018,NNB,B,0
0,test,5,1.0,2-Back,,,Tue Jan 21 2025 18:04:28 GMT-0600 (Central Standard Time),978858.3999999762,097_m_f_n_a.png,I,space,2367,2,1,2051.0,976807.3999999762,8018,NNB,B,0
1,test,5,1.0,2-Back,1,z,Tue Jan 21 2025 18:04:28 GMT-0600 (Central Standard Time),988405.5,153_y_m_n_a.png,I,z,1087,3,1,2111.699999988079,986293.8000000119,8018,NNB,B,1
1,test,5,1.0,2-Back,0,z,Tue Jan 21 2025 18:04:28 GMT-0600 (Central Standard Time),991437.6999999881,097_m_f_n_a.png,I,None,2014,4,1,3028.800000011921,988408.8999999762,8018,NNB,B,2
2,test,5,0.0,2-Back,1,m,Tue Jan 21 2025 18:04:28 GMT-0600 (Central Standard Time),993603.6000000238,086_o_f_n_a.png,I,m,1139,5,1,2162.900000035763,991440.6999999881,8018,NNB,B,3
2,test,5,0.0,2-Back,0,m,Tue Jan 21 2025 18:04:28 GMT-0600 (Central Standard Time),995570.1000000238,153_y_m_n_a.png,I,z,932,6,1,1962.1000000238419,993608.0,8018,NNB,B,4
3,test,5,0.0,2-Back,1,m,Tue Jan 21 2025 18:04:28 GMT-0600 (Central Standard Time),997619.3000000119,173_y_f_n_a.png,I,m,1031,7,1,2045.1000000238419,995574.1999999881,8018,NNB,B,5
3,test,5,0.0,2-Back,0,m,Tue Jan 21 2025 18:04:28 GMT-0600 (Central Standard Time),999768.5,086_o_f_n_a.png,I,z,1118,8,1,2145.699999988079,997622.8000000119,8018,NNB,B,6
4,test,5,1.0,2-Back,1,z,Tue Jan 21 2025 18:04:28 GMT-0600 (Central Standard Time),1002234.0,173_y_f_n_a.png,I,z,1432,9,1,2462.0,999772.0,8018,NNB,B,7
5,test,5,0.0,2-Back,1,m,Tue Jan 21 2025 18:04:28 GMT-0600 (Central Standard Time),1004183.5,065_o_m_n_a.png,I,m,927,10,1,1945.5,1002238.0,8018,NNB,B,8
6,test,5,0.0,2-Back,1,m,Tue Jan 21 2025 18:04:28 GMT-0600 (Central Standard Time),1006099.6000000238,029_m_f_n_a.png,I,m,898,11,1,1912.5,1004187.1000000238,8018,NNB,B,9
7,test,5,0.0,2-Back,1,m,Tue Jan 21 2025 18:04:28 GMT-0600 (Central Standard Time),1007916.0,126_m_m_n_a.png,I,m,789,12,1,1812.800000011921,1006103.1999999881,8018,NNB,B,10
7,test,5,0.0,2-Back,0,m,Tue Jan 21 2025 18:04:28 GMT-0600 (Central Standard Time),1010165.1999999881,065_o_m_n_a.png,I,z,1221,13,1,2245.300000011921,1007919.8999999762,8018,NNB,B,11
7,test,5,1.0,2-Back,0,z,Tue Jan 21 2025 18:04:28 GMT-0600 (Central Standard Time),1012797.8999999762,126_m_m_n_a.png,I,m,1612,14,1,2628.699999988079,1010169.1999999881,8018,NNB,B,12
8,test,5,0.0,2-Back,1,m,Tue Jan 21 2025 18:04:28 GMT-0600 (Central Standard Time),1014947.3999999762,152_y_f_n_a.png,I,m,1115,15,1,2146.399999976158,1012801.0,8018,NNB,B,13
9,test,5,0.0,2-Back,1,m,Tue Jan 21 2025 18:04:28 GMT-0600 (Central Standard Time),1017347.6000000238,176_o_m_n_a.png,I,m,1366,16,1,2396.300000011921,1014951.3000000119,8018,NNB,B,14
10,test,5,0.0,2-Back,1,m,Tue Jan 21 2025 18:04:28 GMT-0600 (Central Standard Time),1020078.8999999762,029_m_f_n_a.png,I,m,1711,17,1,2727.2999999523163,1017351.6000000238,8018,NNB,B,15
11,test,5,1.0,2-Back,1,z,Tue Jan 21 2025 18:04:28 GMT-0600 (Central Standard Time),1022028.1000000238,176_o_m_n_a.png,I,z,922,18,1,1945.4000000357628,1020082.6999999881,8018,NNB,B,16
