block_c,block_dur,condition,countdown,datetime,endtime,list,multichar_response,project,response,response_time,session_number,start_end,starttime,subject_id,task,task_vers,trial
,,,,Wed Mar 12 2025 18:32:54 GMT-0500 (Central Daylight Time),,,,O,space,451,1,,,7082,WL,A,
prac,,0,,Wed Mar 12 2025 18:32:54 GMT-0500 (Central Daylight Time),,NA,b,O,b,12603,1,,,7082,WL,A,1.0
prac,,0,,Wed Mar 12 2025 18:32:54 GMT-0500 (Central Daylight Time),,NA,bo,O,o,237,1,,,7082,WL,A,1.0
prac,,0,,Wed Mar 12 2025 18:32:54 GMT-0500 (Central Daylight Time),,NA,boo,O,o,155,1,,,7082,WL,A,1.0
prac,,0,,Wed Mar 12 2025 18:32:54 GMT-0500 (Central Daylight Time),,NA,boos,O,s,371,1,,,7082,WL,A,1.0
prac,,0,,Wed Mar 12 2025 18:32:54 GMT-0500 (Central Daylight Time),,NA,boost,O,t,227,1,,,7082,WL,A,1.0
prac,,0,,Wed Mar 12 2025 18:32:54 GMT-0500 (Central Daylight Time),,NA,boostenter,O,enter,846,1,,,7082,WL,A,1.0
1,1.0840001106262207,learn,58915.99988937378,Wed Mar 12 2025 18:32:54 GMT-0500 (Central Daylight Time),338402.2000000002,A,b,O,b,1067,1,1083.5,337318.7000000002,7082,WL,A,1.0
1,1.3989999294281006,learn,58601.0000705719,Wed Mar 12 2025 18:32:54 GMT-0500 (Central Daylight Time),338717.4000000004,A,bo,O,o,304,1,1398.7000000001863,337318.7000000002,7082,WL,A,1.0
1,1.5499999523162842,learn,58450.000047683716,Wed Mar 12 2025 18:32:54 GMT-0500 (Central Daylight Time),338867.7000000002,A,boo,O,o,141,1,1549.0,337318.7000000002,7082,WL,A,1.0
1,2.134000062942505,learn,57865.999937057495,Wed Mar 12 2025 18:32:54 GMT-0500 (Central Daylight Time),339451.9000000004,A,book,O,k,575,1,2133.2000000001863,337318.7000000002,7082,WL,A,1.0
1,6.815000057220459,learn,53184.99994277954,Wed Mar 12 2025 18:32:54 GMT-0500 (Central Daylight Time),344132.5999999996,A,bookr,O,r,4664,1,6813.899999999441,337318.7000000002,7082,WL,A,1.0
1,7.881999969482422,learn,52118.00003051758,Wed Mar 12 2025 18:32:54 GMT-0500 (Central Daylight Time),345199.7000000002,A,book,O,backspace,1046,1,7881.0,337318.7000000002,7082,WL,A,1.0
1,9.71399998664856,learn,50286.00001335144,Wed Mar 12 2025 18:32:54 GMT-0500 (Central Daylight Time),347031.9000000004,A,bookenter,O,enter,1811,1,9713.200000000186,337318.7000000002,7082,WL,A,1.0
1,10.364000082015991,learn,49635.99991798401,Wed Mar 12 2025 18:32:54 GMT-0500 (Central Daylight Time),347682.0999999996,A,r,O,r,635,1,649.5999999996275,347032.5,7082,WL,A,2.0
1,11.263000011444092,learn,48736.99998855591,Wed Mar 12 2025 18:32:54 GMT-0500 (Central Daylight Time),348581.5,A,ru,O,u,881,1,1549.0,347032.5,7082,WL,A,2.0
1,11.480000019073486,learn,48519.999980926514,Wed Mar 12 2025 18:32:54 GMT-0500 (Central Daylight Time),348798.0999999996,A,rug,O,g,205,1,1765.5999999996275,347032.5,7082,WL,A,2.0
1,11.748000144958496,learn,48251.999855041504,Wed Mar 12 2025 18:32:54 GMT-0500 (Central Daylight Time),349065.5,A,rugenter,O,enter,251,1,2033.0,347032.5,7082,WL,A,2.0
1,13.479000091552734,learn,46520.999908447266,Wed Mar 12 2025 18:32:54 GMT-0500 (Central Daylight Time),350796.9000000004,A,t,O,t,1724,1,1731.0,349065.9000000004,7082,WL,A,3.0
1,13.67900013923645,learn,46320.99986076355,Wed Mar 12 2025 18:32:54 GMT-0500 (Central Daylight Time),350996.9000000004,A,tr,O,r,193,1,1931.0,349065.9000000004,7082,WL,A,3.0
1,13.812999963760376,learn,46187.000036239624,Wed Mar 12 2025 18:32:54 GMT-0500 (Central Daylight Time),351131.0,A,tra,O,a,119,1,2065.0999999996275,349065.9000000004,7082,WL,A,3.0
1,14.095999956130981,learn,45904.00004386902,Wed Mar 12 2025 18:32:54 GMT-0500 (Central Daylight Time),351414.0999999996,A,trai,O,i,272,1,2348.199999999255,349065.9000000004,7082,WL,A,3.0
1,14.345999956130981,learn,45654.00004386902,Wed Mar 12 2025 18:32:54 GMT-0500 (Central Daylight Time),351664.0999999996,A,train,O,n,230,1,2598.199999999255,349065.9000000004,7082,WL,A,3.0
1,14.664000034332275,learn,45335.999965667725,Wed Mar 12 2025 18:32:54 GMT-0500 (Central Daylight Time),351981.4000000004,A,trainenter,O,enter,293,1,2915.5,349065.9000000004,7082,WL,A,3.0
1,16.062000036239624,learn,43937.999963760376,Wed Mar 12 2025 18:32:54 GMT-0500 (Central Daylight Time),353380.0999999996,A,r,O,r,1381,1,1398.2999999998137,351981.7999999998,7082,WL,A,4.0
1,16.19600009918213,learn,43803.99990081787,Wed Mar 12 2025 18:32:54 GMT-0500 (Central Daylight Time),353513.5999999996,A,ra,O,a,119,1,1531.7999999998137,351981.7999999998,7082,WL,A,4.0
1,16.694999933242798,learn,43305.0000667572,Wed Mar 12 2025 18:32:54 GMT-0500 (Central Daylight Time),354013.2999999998,A,rat,O,t,478,1,2031.5,351981.7999999998,7082,WL,A,4.0
1,17.193000078201294,learn,42806.999921798706,Wed Mar 12 2025 18:32:54 GMT-0500 (Central Daylight Time),354510.5999999996,A,ratt,O,t,483,1,2528.7999999998137,351981.7999999998,7082,WL,A,4.0
1,17.860000133514404,learn,42139.999866485596,Wed Mar 12 2025 18:32:54 GMT-0500 (Central Daylight Time),355177.7000000002,A,rattl,O,l,662,1,3195.9000000003725,351981.7999999998,7082,WL,A,4.0
1,18.009000062942505,learn,41990.999937057495,Wed Mar 12 2025 18:32:54 GMT-0500 (Central Daylight Time),355326.9000000004,A,rattle,O,e,136,1,3345.100000000559,351981.7999999998,7082,WL,A,4.0
1,18.661999940872192,learn,41338.00005912781,Wed Mar 12 2025 18:32:54 GMT-0500 (Central Daylight Time),355980.0,A,rattleenter,O,enter,632,1,3998.2000000001863,351981.7999999998,7082,WL,A,4.0
1,19.427000045776367,learn,40572.99995422363,Wed Mar 12 2025 18:32:54 GMT-0500 (Central Daylight Time),356745.4000000004,A,h,O,h,752,1,765.1000000005588,355980.2999999998,7082,WL,A,5.0
1,19.812000036239624,learn,40187.999963760376,Wed Mar 12 2025 18:32:54 GMT-0500 (Central Daylight Time),357129.5,A,ha,O,a,362,1,1149.2000000001863,355980.2999999998,7082,WL,A,5.0
1,19.99399995803833,learn,40006.00004196167,Wed Mar 12 2025 18:32:54 GMT-0500 (Central Daylight Time),357311.5,A,har,O,r,162,1,1331.2000000001863,355980.2999999998,7082,WL,A,5.0
1,20.311000108718872,learn,39688.99989128113,Wed Mar 12 2025 18:32:54 GMT-0500 (Central Daylight Time),357628.7999999998,A,harp,O,p,301,1,1648.5,355980.2999999998,7082,WL,A,5.0
1,21.013000011444092,learn,38986.99998855591,Wed Mar 12 2025 18:32:54 GMT-0500 (Central Daylight Time),358330.5,A,harpenter,O,enter,695,1,2350.2000000001863,355980.2999999998,7082,WL,A,5.0
1,22.66100001335144,learn,37338.99998664856,Wed Mar 12 2025 18:32:54 GMT-0500 (Central Daylight Time),359978.7999999998,A,f,O,f,1642,1,1648.0999999996275,358330.7000000002,7082,WL,A,6.0
1,22.8270001411438,learn,37172.9998588562,Wed Mar 12 2025 18:32:54 GMT-0500 (Central Daylight Time),360145.0999999996,A,fl,O,l,145,1,1814.3999999994412,358330.7000000002,7082,WL,A,6.0
1,23.042999982833862,learn,36957.00001716614,Wed Mar 12 2025 18:32:54 GMT-0500 (Central Daylight Time),360361.4000000004,A,flo,O,o,202,1,2030.7000000001863,358330.7000000002,7082,WL,A,6.0
1,23.360000133514404,learn,36639.999866485596,Wed Mar 12 2025 18:32:54 GMT-0500 (Central Daylight Time),360678.4000000004,A,flow,O,w,307,1,2347.7000000001863,358330.7000000002,7082,WL,A,6.0
1,23.526000022888184,learn,36473.99997711182,Wed Mar 12 2025 18:32:54 GMT-0500 (Central Daylight Time),360843.5999999996,A,flowe,O,e,149,1,2512.899999999441,358330.7000000002,7082,WL,A,6.0
1,23.844000101089478,learn,36155.99989891052,Wed Mar 12 2025 18:32:54 GMT-0500 (Central Daylight Time),361162.2000000002,A,flower,O,r,311,1,2831.5,358330.7000000002,7082,WL,A,6.0
1,24.424999952316284,learn,35575.000047683716,Wed Mar 12 2025 18:32:54 GMT-0500 (Central Daylight Time),361743.2999999998,A,flowerenter,O,enter,561,1,3412.5999999996275,358330.7000000002,7082,WL,A,6.0
1,25.127000093460083,learn,34872.99990653992,Wed Mar 12 2025 18:32:54 GMT-0500 (Central Daylight Time),362444.9000000004,A,m,O,m,695,1,701.2000000001863,361743.7000000002,7082,WL,A,7.0
1,25.292999982833862,learn,34707.00001716614,Wed Mar 12 2025 18:32:54 GMT-0500 (Central Daylight Time),362610.7000000002,A,me,O,e,149,1,867.0,361743.7000000002,7082,WL,A,7.0
1,25.493000030517578,learn,34506.99996948242,Wed Mar 12 2025 18:32:54 GMT-0500 (Central Daylight Time),362811.0999999996,A,mea,O,a,177,1,1067.3999999994412,361743.7000000002,7082,WL,A,7.0
1,25.759000062942505,learn,34240.999937057495,Wed Mar 12 2025 18:32:54 GMT-0500 (Central Daylight Time),363076.5,A,mead,O,d,258,1,1332.7999999998137,361743.7000000002,7082,WL,A,7.0
1,25.89199995994568,learn,34108.00004005432,Wed Mar 12 2025 18:32:54 GMT-0500 (Central Daylight Time),363209.5999999996,A,meado,O,o,120,1,1465.8999999994412,361743.7000000002,7082,WL,A,7.0
1,26.875999927520752,learn,33124.00007247925,Wed Mar 12 2025 18:32:54 GMT-0500 (Central Daylight Time),364193.4000000004,A,meadow,O,w,962,1,2449.7000000001863,361743.7000000002,7082,WL,A,7.0
1,27.341000080108643,learn,32658.999919891357,Wed Mar 12 2025 18:32:54 GMT-0500 (Central Daylight Time),364659.4000000004,A,meadowenter,O,enter,458,1,2915.7000000001863,361743.7000000002,7082,WL,A,7.0
1,29.5239999294281,learn,30476.0000705719,Wed Mar 12 2025 18:32:54 GMT-0500 (Central Daylight Time),366842.4000000004,A,l,O,l,2169,1,2182.800000000745,364659.5999999996,7082,WL,A,8.0
1,29.77300000190735,learn,30226.99999809265,Wed Mar 12 2025 18:32:54 GMT-0500 (Central Daylight Time),367091.4000000004,A,lo,O,o,242,1,2431.800000000745,364659.5999999996,7082,WL,A,8.0
1,30.125,learn,29875.0,Wed Mar 12 2025 18:32:54 GMT-0500 (Central Daylight Time),367443.0,A,log,O,g,340,1,2783.4000000003725,364659.5999999996,7082,WL,A,8.0
1,30.52300000190735,learn,29476.99999809265,Wed Mar 12 2025 18:32:54 GMT-0500 (Central Daylight Time),367840.7999999998,A,logenter,O,enter,384,1,3181.2000000001863,364659.5999999996,7082,WL,A,8.0
1,41.78699994087219,learn,18213.000059127808,Wed Mar 12 2025 18:32:54 GMT-0500 (Central Daylight Time),379106.0,A,m,O,m,11252,1,11265.0,367841.0,7082,WL,A,9.0
1,43.068000078201294,learn,16931.999921798706,Wed Mar 12 2025 18:32:54 GMT-0500 (Central Daylight Time),380387.4000000004,A,me,O,e,1266,1,12546.400000000373,367841.0,7082,WL,A,9.0
1,43.337000131607056,learn,16662.999868392944,Wed Mar 12 2025 18:32:54 GMT-0500 (Central Daylight Time),380655.7000000002,A,mea,O,a,248,1,12814.700000000186,367841.0,7082,WL,A,9.0
1,43.75099992752075,learn,16249.000072479248,Wed Mar 12 2025 18:32:54 GMT-0500 (Central Daylight Time),381069.9000000004,A,mead,O,d,395,1,13228.900000000373,367841.0,7082,WL,A,9.0
1,43.96799993515015,learn,16032.000064849854,Wed Mar 12 2025 18:32:54 GMT-0500 (Central Daylight Time),381287.0,A,meado,O,o,206,1,13446.0,367841.0,7082,WL,A,9.0
1,44.50099992752075,learn,15499.000072479248,Wed Mar 12 2025 18:32:54 GMT-0500 (Central Daylight Time),381819.9000000004,A,meadow,O,w,513,1,13978.900000000373,367841.0,7082,WL,A,9.0
1,44.801000118255615,learn,15198.999881744385,Wed Mar 12 2025 18:32:54 GMT-0500 (Central Daylight Time),382120.5,A,meadowenter,O,enter,279,1,14279.5,367841.0,7082,WL,A,9.0
1,60.01300001144409,learn,-13.000011444091797,Wed Mar 12 2025 18:32:54 GMT-0500 (Central Daylight Time),397332.5,A,None,O,None,15207,1,15211.700000000186,382120.7999999998,7082,WL,A,10.0
2,1.3989999294281006,learn,58601.0000705719,Wed Mar 12 2025 18:32:54 GMT-0500 (Central Daylight Time),471142.0,A,b,O,b,1383,1,1398.9000000003725,469743.0999999996,7082,WL,A,1.0
2,1.7660000324249268,learn,58233.99996757507,Wed Mar 12 2025 18:32:54 GMT-0500 (Central Daylight Time),471509.2000000002,A,bo,O,o,351,1,1766.1000000005588,469743.0999999996,7082,WL,A,1.0
2,1.9159998893737793,learn,58084.00011062622,Wed Mar 12 2025 18:32:54 GMT-0500 (Central Daylight Time),471659.2999999998,A,boo,O,o,136,1,1916.2000000001863,469743.0999999996,7082,WL,A,1.0
2,3.047999858856201,learn,56952.0001411438,Wed Mar 12 2025 18:32:54 GMT-0500 (Central Daylight Time),472791.7000000002,A,book,O,k,1122,1,3048.600000000559,469743.0999999996,7082,WL,A,1.0
2,3.4149999618530273,learn,56585.00003814697,Wed Mar 12 2025 18:32:54 GMT-0500 (Central Daylight Time),473157.9000000004,A,bookenter,O,enter,358,1,3414.800000000745,469743.0999999996,7082,WL,A,1.0
2,5.1499998569488525,learn,54850.00014305115,Wed Mar 12 2025 18:32:54 GMT-0500 (Central Daylight Time),474893.0,A,t,O,t,1729,1,1734.9000000003725,473158.0999999996,7082,WL,A,2.0
2,5.648000001907349,learn,54351.99999809265,Wed Mar 12 2025 18:32:54 GMT-0500 (Central Daylight Time),475391.5,A,tr,O,r,488,1,2233.4000000003725,473158.0999999996,7082,WL,A,2.0
2,5.8480000495910645,learn,54151.999950408936,Wed Mar 12 2025 18:32:54 GMT-0500 (Central Daylight Time),475591.2999999998,A,tra,O,a,185,1,2433.2000000001863,473158.0999999996,7082,WL,A,2.0
2,6.13100004196167,learn,53868.99995803833,Wed Mar 12 2025 18:32:54 GMT-0500 (Central Daylight Time),475874.4000000004,A,trai,O,i,278,1,2716.300000000745,473158.0999999996,7082,WL,A,2.0
2,6.38100004196167,learn,53618.99995803833,Wed Mar 12 2025 18:32:54 GMT-0500 (Central Daylight Time),476124.2000000002,A,train,O,n,235,1,2966.100000000559,473158.0999999996,7082,WL,A,2.0
2,6.88100004196167,learn,53118.99995803833,Wed Mar 12 2025 18:32:54 GMT-0500 (Central Daylight Time),476623.9000000004,A,trainenter,O,enter,480,1,3465.800000000745,473158.0999999996,7082,WL,A,2.0
2,7.978999853134155,learn,52021.000146865845,Wed Mar 12 2025 18:32:54 GMT-0500 (Central Daylight Time),477722.2000000002,A,m,O,m,1084,1,1098.0,476624.2000000002,7082,WL,A,3.0
2,8.148000001907349,learn,51851.99999809265,Wed Mar 12 2025 18:32:54 GMT-0500 (Central Daylight Time),477891.0,A,me,O,e,163,1,1266.7999999998137,476624.2000000002,7082,WL,A,3.0
2,8.846999883651733,learn,51153.00011634827,Wed Mar 12 2025 18:32:54 GMT-0500 (Central Daylight Time),478590.5999999996,A,mea,O,a,689,1,1966.3999999994412,476624.2000000002,7082,WL,A,3.0
2,9.146999835968018,learn,50853.00016403198,Wed Mar 12 2025 18:32:54 GMT-0500 (Central Daylight Time),478890.5999999996,A,mead,O,d,286,1,2266.399999999441,476624.2000000002,7082,WL,A,3.0
2,9.296000003814697,learn,50703.9999961853,Wed Mar 12 2025 18:32:54 GMT-0500 (Central Daylight Time),479039.5,A,meado,O,o,137,1,2415.2999999998137,476624.2000000002,7082,WL,A,3.0
2,9.879999876022339,learn,50120.00012397766,Wed Mar 12 2025 18:32:54 GMT-0500 (Central Daylight Time),479623.7000000002,A,meadow,O,w,575,1,2999.5,476624.2000000002,7082,WL,A,3.0
2,10.19599986076355,learn,49804.00013923645,Wed Mar 12 2025 18:32:54 GMT-0500 (Central Daylight Time),479939.4000000004,A,meadowenter,O,enter,311,1,3315.2000000001863,476624.2000000002,7082,WL,A,3.0
2,13.51199984550476,learn,46488.00015449524,Wed Mar 12 2025 18:32:54 GMT-0500 (Central Daylight Time),483255.2999999998,A,l,O,l,3305,1,3315.5999999996275,479939.7000000002,7082,WL,A,4.0
2,13.728999853134155,learn,46271.000146865845,Wed Mar 12 2025 18:32:54 GMT-0500 (Central Daylight Time),483472.0999999996,A,lo,O,o,205,1,3532.399999999441,479939.7000000002,7082,WL,A,4.0
2,13.960999965667725,learn,46039.000034332275,Wed Mar 12 2025 18:32:54 GMT-0500 (Central Daylight Time),483704.5999999996,A,log,O,g,211,1,3764.899999999441,479939.7000000002,7082,WL,A,4.0
2,14.460999965667725,learn,45539.000034332275,Wed Mar 12 2025 18:32:54 GMT-0500 (Central Daylight Time),484204.7999999998,A,logenter,O,enter,491,1,4265.0999999996275,479939.7000000002,7082,WL,A,4.0
2,16.043999910354614,learn,43956.000089645386,Wed Mar 12 2025 18:32:54 GMT-0500 (Central Daylight Time),485787.5999999996,A,a,O,a,1568,1,1582.5,484205.0999999996,7082,WL,A,5.0
2,16.47699999809265,learn,43523.00000190735,Wed Mar 12 2025 18:32:54 GMT-0500 (Central Daylight Time),486220.7999999998,A,ap,O,p,415,1,2015.7000000001863,484205.0999999996,7082,WL,A,5.0
2,16.628000020980835,learn,43371.999979019165,Wed Mar 12 2025 18:32:54 GMT-0500 (Central Daylight Time),486371.7000000002,A,app,O,p,136,1,2166.600000000559,484205.0999999996,7082,WL,A,5.0
2,16.861999988555908,learn,43138.00001144409,Wed Mar 12 2025 18:32:54 GMT-0500 (Central Daylight Time),486605.0,A,appl,O,l,225,1,2399.9000000003725,484205.0999999996,7082,WL,A,5.0
2,17.013000011444092,learn,42986.99998855591,Wed Mar 12 2025 18:32:54 GMT-0500 (Central Daylight Time),486755.9000000004,A,apple,O,e,144,1,2550.800000000745,484205.0999999996,7082,WL,A,5.0
2,17.460999965667725,learn,42539.000034332275,Wed Mar 12 2025 18:32:54 GMT-0500 (Central Daylight Time),487204.7000000002,A,appleenter,O,enter,431,1,2999.600000000559,484205.0999999996,7082,WL,A,5.0
2,18.610999822616577,learn,41389.00017738342,Wed Mar 12 2025 18:32:54 GMT-0500 (Central Daylight Time),488354.7000000002,A,h,O,h,1144,1,1149.7000000001863,487205.0,7082,WL,A,6.0
2,18.793999910354614,learn,41206.000089645386,Wed Mar 12 2025 18:32:54 GMT-0500 (Central Daylight Time),488537.7000000002,A,ha,O,a,177,1,1332.7000000001863,487205.0,7082,WL,A,6.0
2,18.90999984741211,learn,41090.00015258789,Wed Mar 12 2025 18:32:54 GMT-0500 (Central Daylight Time),488653.0999999996,A,har,O,r,97,1,1448.0999999996275,487205.0,7082,WL,A,6.0
2,19.444000005722046,learn,40555.999994277954,Wed Mar 12 2025 18:32:54 GMT-0500 (Central Daylight Time),489187.7000000002,A,harp,O,p,528,1,1982.7000000001863,487205.0,7082,WL,A,6.0
2,19.842999935150146,learn,40157.00006484985,Wed Mar 12 2025 18:32:54 GMT-0500 (Central Daylight Time),489586.2000000002,A,harpenter,O,enter,378,1,2381.2000000001863,487205.0,7082,WL,A,6.0
2,20.643999814987183,learn,39356.00018501282,Wed Mar 12 2025 18:32:54 GMT-0500 (Central Daylight Time),490387.4000000004,A,c,O,c,786,1,800.9000000003725,489586.5,7082,WL,A,7.0
2,20.759999990463257,learn,39240.00000953674,Wed Mar 12 2025 18:32:54 GMT-0500 (Central Daylight Time),490502.9000000004,A,ch,O,h,106,1,916.4000000003725,489586.5,7082,WL,A,7.0
2,20.858999967575073,learn,39141.00003242493,Wed Mar 12 2025 18:32:54 GMT-0500 (Central Daylight Time),490602.5999999996,A,chi,O,i,85,1,1016.0999999996275,489586.5,7082,WL,A,7.0
2,21.177000045776367,learn,38822.99995422363,Wed Mar 12 2025 18:32:54 GMT-0500 (Central Daylight Time),490920.0999999996,A,chim,O,m,295,1,1333.5999999996275,489586.5,7082,WL,A,7.0
2,22.342000007629395,learn,37657.999992370605,Wed Mar 12 2025 18:32:54 GMT-0500 (Central Daylight Time),492085.5,A,chimn,O,n,1157,1,2499.0,489586.5,7082,WL,A,7.0
2,22.460000038146973,learn,37539.99996185303,Wed Mar 12 2025 18:32:54 GMT-0500 (Central Daylight Time),492203.5999999996,A,chimne,O,e,112,1,2617.0999999996275,489586.5,7082,WL,A,7.0
2,23.807999849319458,learn,36192.00015068054,Wed Mar 12 2025 18:32:54 GMT-0500 (Central Daylight Time),493552.5,A,chimney,O,y,1327,1,3966.0,489586.5,7082,WL,A,7.0
2,24.87399983406067,learn,35126.00016593933,Wed Mar 12 2025 18:32:54 GMT-0500 (Central Daylight Time),494618.4000000004,A,chimneyenter,O,enter,1059,1,5031.9000000003725,489586.5,7082,WL,A,7.0
2,26.43999981880188,learn,33560.00018119812,Wed Mar 12 2025 18:32:54 GMT-0500 (Central Daylight Time),496184.9000000004,A,a,O,a,1553,1,1566.2000000001863,494618.7000000002,7082,WL,A,8.0
2,26.723000049591064,learn,33276.999950408936,Wed Mar 12 2025 18:32:54 GMT-0500 (Central Daylight Time),496467.5999999996,A,ap,O,p,268,1,1848.8999999994412,494618.7000000002,7082,WL,A,8.0
2,26.87399983406067,learn,33126.00016593933,Wed Mar 12 2025 18:32:54 GMT-0500 (Central Daylight Time),496618.5999999996,A,app,O,p,127,1,1999.8999999994412,494618.7000000002,7082,WL,A,8.0
2,27.139999866485596,learn,32860.000133514404,Wed Mar 12 2025 18:32:54 GMT-0500 (Central Daylight Time),496884.5999999996,A,appl,O,l,248,1,2265.899999999441,494618.7000000002,7082,WL,A,8.0
2,27.223000049591064,learn,32776.999950408936,Wed Mar 12 2025 18:32:54 GMT-0500 (Central Daylight Time),496967.7000000002,A,apple,O,e,62,1,2349.0,494618.7000000002,7082,WL,A,8.0
2,27.58899998664856,learn,32411.00001335144,Wed Mar 12 2025 18:32:54 GMT-0500 (Central Daylight Time),497333.7000000002,A,appleenter,O,enter,346,1,2715.0,494618.7000000002,7082,WL,A,8.0
2,31.23799991607666,learn,28762.00008392334,Wed Mar 12 2025 18:32:54 GMT-0500 (Central Daylight Time),500982.0999999996,A,k,O,k,3638,1,3648.0999999996275,497334.0,7082,WL,A,9.0
2,31.521999835968018,learn,28478.000164031982,Wed Mar 12 2025 18:32:54 GMT-0500 (Central Daylight Time),501266.7000000002,A,ke,O,e,271,1,3932.7000000001863,497334.0,7082,WL,A,9.0
2,33.187999963760376,learn,26812.000036239624,Wed Mar 12 2025 18:32:54 GMT-0500 (Central Daylight Time),502932.0999999996,A,key,O,y,1660,1,5598.0999999996275,497334.0,7082,WL,A,9.0
2,33.50399994850159,learn,26496.000051498413,Wed Mar 12 2025 18:32:54 GMT-0500 (Central Daylight Time),503248.2999999998,A,keyenter,O,enter,305,1,5914.299999999814,497334.0,7082,WL,A,9.0
2,43.30200004577637,learn,16697.999954223633,Wed Mar 12 2025 18:32:54 GMT-0500 (Central Daylight Time),513046.5,A,m,O,m,9777,1,9797.799999999814,503248.7000000002,7082,WL,A,10.0
2,45.253000020980835,learn,14746.999979019165,Wed Mar 12 2025 18:32:54 GMT-0500 (Central Daylight Time),514997.2999999998,A,,O,backspace,1927,1,11748.599999999627,503248.7000000002,7082,WL,A,10.0
2,60.01300001144409,learn,-13.000011444091797,Wed Mar 12 2025 18:32:54 GMT-0500 (Central Daylight Time),529758.0,A,None,O,None,14755,1,26509.299999999814,503248.7000000002,7082,WL,A,10.0
3,6.447999954223633,learn,53552.00004577637,Wed Mar 12 2025 18:32:54 GMT-0500 (Central Daylight Time),605050.7999999998,A,b,O,b,6426,1,6446.899999999441,598603.9000000004,7082,WL,A,1.0
3,6.796000003814697,learn,53203.9999961853,Wed Mar 12 2025 18:32:54 GMT-0500 (Central Daylight Time),605399.5,A,bo,O,o,338,1,6795.5999999996275,598603.9000000004,7082,WL,A,1.0
3,6.96399998664856,learn,53036.00001335144,Wed Mar 12 2025 18:32:54 GMT-0500 (Central Daylight Time),605567.0,A,boo,O,o,158,1,6963.0999999996275,598603.9000000004,7082,WL,A,1.0
3,7.296999931335449,learn,52703.00006866455,Wed Mar 12 2025 18:32:54 GMT-0500 (Central Daylight Time),605900.5999999996,A,book,O,k,328,1,7296.699999999255,598603.9000000004,7082,WL,A,1.0
3,7.69599986076355,learn,52304.00013923645,Wed Mar 12 2025 18:32:54 GMT-0500 (Central Daylight Time),606299.7000000002,A,bookenter,O,enter,383,1,7695.799999999814,598603.9000000004,7082,WL,A,1.0
3,8.861999988555908,learn,51138.00001144409,Wed Mar 12 2025 18:32:54 GMT-0500 (Central Daylight Time),607465.5999999996,A,t,O,t,1146,1,1165.5999999996275,606300.0,7082,WL,A,2.0
3,9.079999923706055,learn,50920.000076293945,Wed Mar 12 2025 18:32:54 GMT-0500 (Central Daylight Time),607682.9000000004,A,tr,O,r,203,1,1382.9000000003725,606300.0,7082,WL,A,2.0
3,9.244999885559082,learn,50755.00011444092,Wed Mar 12 2025 18:32:54 GMT-0500 (Central Daylight Time),607848.5999999996,A,tra,O,a,155,1,1548.5999999996275,606300.0,7082,WL,A,2.0
3,9.76199984550476,learn,50238.00015449524,Wed Mar 12 2025 18:32:54 GMT-0500 (Central Daylight Time),608365.2000000002,A,trai,O,i,508,1,2065.2000000001863,606300.0,7082,WL,A,2.0
3,9.944999933242798,learn,50055.0000667572,Wed Mar 12 2025 18:32:54 GMT-0500 (Central Daylight Time),608547.7999999998,A,train,O,n,175,1,2247.7999999998137,606300.0,7082,WL,A,2.0
3,10.27899980545044,learn,49721.00019454956,Wed Mar 12 2025 18:32:54 GMT-0500 (Central Daylight Time),608882.0,A,trainenter,O,enter,312,1,2582.0,606300.0,7082,WL,A,2.0
3,11.71399998664856,learn,48286.00001335144,Wed Mar 12 2025 18:32:54 GMT-0500 (Central Daylight Time),610316.7999999998,A,m,O,m,1430,1,1434.5,608882.2999999998,7082,WL,A,3.0
3,12.311999797821045,learn,47688.000202178955,Wed Mar 12 2025 18:32:54 GMT-0500 (Central Daylight Time),610915.0999999996,A,me,O,e,593,1,2032.7999999998137,608882.2999999998,7082,WL,A,3.0
3,12.510999917984009,learn,47489.00008201599,Wed Mar 12 2025 18:32:54 GMT-0500 (Central Daylight Time),611114.5,A,mea,O,a,185,1,2232.2000000001863,608882.2999999998,7082,WL,A,3.0
3,12.827999830245972,learn,47172.00016975403,Wed Mar 12 2025 18:32:54 GMT-0500 (Central Daylight Time),611431.0,A,mead,O,d,306,1,2548.7000000001863,608882.2999999998,7082,WL,A,3.0
3,12.977999925613403,learn,47022.0000743866,Wed Mar 12 2025 18:32:54 GMT-0500 (Central Daylight Time),611581.0999999996,A,meado,O,o,142,1,2698.7999999998137,608882.2999999998,7082,WL,A,3.0
3,13.84499979019165,learn,46155.00020980835,Wed Mar 12 2025 18:32:54 GMT-0500 (Central Daylight Time),612448.2999999998,A,meadow,O,w,848,1,3566.0,608882.2999999998,7082,WL,A,3.0
3,14.226999998092651,learn,45773.00000190735,Wed Mar 12 2025 18:32:54 GMT-0500 (Central Daylight Time),612830.2000000002,A,meadowenter,O,enter,363,1,3947.9000000003725,608882.2999999998,7082,WL,A,3.0
3,14.825999975204468,learn,45174.00002479553,Wed Mar 12 2025 18:32:54 GMT-0500 (Central Daylight Time),613430.0,A,r,O,r,591,1,599.5,612830.5,7082,WL,A,4.0
3,15.160999774932861,learn,44839.00022506714,Wed Mar 12 2025 18:32:54 GMT-0500 (Central Daylight Time),613764.7000000002,A,ru,O,u,318,1,934.2000000001863,612830.5,7082,WL,A,4.0
3,16.07699990272522,learn,43923.00009727478,Wed Mar 12 2025 18:32:54 GMT-0500 (Central Daylight Time),614681.2999999998,A,rug,O,g,895,1,1850.7999999998137,612830.5,7082,WL,A,4.0
3,16.408999919891357,learn,43591.00008010864,Wed Mar 12 2025 18:32:54 GMT-0500 (Central Daylight Time),615012.4000000004,A,rugenter,O,enter,323,1,2181.9000000003725,612830.5,7082,WL,A,4.0
3,20.375999927520752,learn,39624.00007247925,Wed Mar 12 2025 18:32:54 GMT-0500 (Central Daylight Time),618980.2000000002,A,l,O,l,3962,1,3967.5,615012.7000000002,7082,WL,A,5.0
3,20.608999967575073,learn,39391.00003242493,Wed Mar 12 2025 18:32:54 GMT-0500 (Central Daylight Time),619212.5,A,lo,O,o,215,1,4199.799999999814,615012.7000000002,7082,WL,A,5.0
3,20.823999881744385,learn,39176.000118255615,Wed Mar 12 2025 18:32:54 GMT-0500 (Central Daylight Time),619428.2999999998,A,log,O,g,208,1,4415.5999999996275,615012.7000000002,7082,WL,A,5.0
3,21.358999967575073,learn,38641.00003242493,Wed Mar 12 2025 18:32:54 GMT-0500 (Central Daylight Time),619963.0,A,logenter,O,enter,528,1,4950.299999999814,615012.7000000002,7082,WL,A,5.0
3,22.375,learn,37625.0,Wed Mar 12 2025 18:32:54 GMT-0500 (Central Daylight Time),620978.9000000004,A,c,O,c,995,1,1015.6000000005588,619963.2999999998,7082,WL,A,6.0
3,22.656999826431274,learn,37343.000173568726,Wed Mar 12 2025 18:32:54 GMT-0500 (Central Daylight Time),621261.2999999998,A,ci,O,i,266,1,1298.0,619963.2999999998,7082,WL,A,6.0
3,23.408999919891357,learn,36591.00008010864,Wed Mar 12 2025 18:32:54 GMT-0500 (Central Daylight Time),622012.5,A,c,O,backspace,745,1,2049.2000000001863,619963.2999999998,7082,WL,A,6.0
3,24.289999961853027,learn,35710.00003814697,Wed Mar 12 2025 18:32:54 GMT-0500 (Central Daylight Time),622893.9000000004,A,ch,O,h,863,1,2930.600000000559,619963.2999999998,7082,WL,A,6.0
3,24.657999992370605,learn,35342.000007629395,Wed Mar 12 2025 18:32:54 GMT-0500 (Central Daylight Time),623262.2000000002,A,chm,O,m,361,1,3298.9000000003725,619963.2999999998,7082,WL,A,6.0
3,25.10699987411499,learn,34893.00012588501,Wed Mar 12 2025 18:32:54 GMT-0500 (Central Daylight Time),623710.5999999996,A,chmn,O,n,430,1,3747.2999999998137,619963.2999999998,7082,WL,A,6.0
3,25.222999811172485,learn,34777.000188827515,Wed Mar 12 2025 18:32:54 GMT-0500 (Central Daylight Time),623827.0999999996,A,chmne,O,e,101,1,3863.7999999998137,619963.2999999998,7082,WL,A,6.0
3,26.322999954223633,learn,33677.00004577637,Wed Mar 12 2025 18:32:54 GMT-0500 (Central Daylight Time),624926.4000000004,A,chmn,O,backspace,1081,1,4963.100000000559,619963.2999999998,7082,WL,A,6.0
3,26.506999969482422,learn,33493.00003051758,Wed Mar 12 2025 18:32:54 GMT-0500 (Central Daylight Time),625110.7000000002,A,chm,O,backspace,166,1,5147.4000000003725,619963.2999999998,7082,WL,A,6.0
3,26.888999938964844,learn,33111.000061035156,Wed Mar 12 2025 18:32:54 GMT-0500 (Central Daylight Time),625493.2000000002,A,ch,O,backspace,372,1,5529.9000000003725,619963.2999999998,7082,WL,A,6.0
3,27.405999898910522,learn,32594.000101089478,Wed Mar 12 2025 18:32:54 GMT-0500 (Central Daylight Time),626009.7999999998,A,chm,O,m,510,1,6046.5,619963.2999999998,7082,WL,A,6.0
3,27.87399983406067,learn,32126.00016593933,Wed Mar 12 2025 18:32:54 GMT-0500 (Central Daylight Time),626477.7000000002,A,ch,O,backspace,445,1,6514.4000000003725,619963.2999999998,7082,WL,A,6.0
3,28.655999898910522,learn,31344.000101089478,Wed Mar 12 2025 18:32:54 GMT-0500 (Central Daylight Time),627259.5999999996,A,chi,O,i,774,1,7296.299999999814,619963.2999999998,7082,WL,A,6.0
3,29.40499997138977,learn,30595.00002861023,Wed Mar 12 2025 18:32:54 GMT-0500 (Central Daylight Time),628008.9000000004,A,chim,O,m,737,1,8045.600000000559,619963.2999999998,7082,WL,A,6.0
3,29.937999963760376,learn,30062.000036239624,Wed Mar 12 2025 18:32:54 GMT-0500 (Central Daylight Time),628542.4000000004,A,chimn,O,n,515,1,8579.100000000559,619963.2999999998,7082,WL,A,6.0
3,30.038999795913696,learn,29961.000204086304,Wed Mar 12 2025 18:32:54 GMT-0500 (Central Daylight Time),628642.7999999998,A,chimne,O,e,85,1,8679.5,619963.2999999998,7082,WL,A,6.0
3,30.240000009536743,learn,29759.999990463257,Wed Mar 12 2025 18:32:54 GMT-0500 (Central Daylight Time),628843.5999999996,A,chimney,O,y,184,1,8880.299999999814,619963.2999999998,7082,WL,A,6.0
3,30.704999923706055,learn,29295.000076293945,Wed Mar 12 2025 18:32:54 GMT-0500 (Central Daylight Time),629308.9000000004,A,chimneyenter,O,enter,450,1,9345.600000000559,619963.2999999998,7082,WL,A,6.0
3,33.520999908447266,learn,26479.000091552734,Wed Mar 12 2025 18:32:54 GMT-0500 (Central Daylight Time),632125.0999999996,A,g,O,g,2811,1,2815.7999999998137,629309.2999999998,7082,WL,A,7.0
3,33.65599989891052,learn,26344.000101089478,Wed Mar 12 2025 18:32:54 GMT-0500 (Central Daylight Time),632260.2000000002,A,go,O,o,128,1,2950.9000000003725,629309.2999999998,7082,WL,A,7.0
3,33.92199993133545,learn,26078.00006866455,Wed Mar 12 2025 18:32:54 GMT-0500 (Central Daylight Time),632525.5999999996,A,gol,O,l,255,1,3216.2999999998137,629309.2999999998,7082,WL,A,7.0
3,34.78699994087219,learn,25213.000059127808,Wed Mar 12 2025 18:32:54 GMT-0500 (Central Daylight Time),633390.7999999998,A,gold,O,d,847,1,4081.5,629309.2999999998,7082,WL,A,7.0
3,35.335999965667725,learn,24664.000034332275,Wed Mar 12 2025 18:32:54 GMT-0500 (Central Daylight Time),633940.0,A,goldenter,O,enter,533,1,4630.700000000186,629309.2999999998,7082,WL,A,7.0
3,35.76899981498718,learn,24231.000185012817,Wed Mar 12 2025 18:32:54 GMT-0500 (Central Daylight Time),634372.7000000002,A,s,O,s,424,1,432.40000000037253,633940.2999999998,7082,WL,A,8.0
3,36.00399994850159,learn,23996.000051498413,Wed Mar 12 2025 18:32:54 GMT-0500 (Central Daylight Time),634607.9000000004,A,sa,O,a,214,1,667.6000000005588,633940.2999999998,7082,WL,A,8.0
3,36.13699984550476,learn,23863.00015449524,Wed Mar 12 2025 18:32:54 GMT-0500 (Central Daylight Time),634740.5999999996,A,sal,O,l,117,1,800.2999999998137,633940.2999999998,7082,WL,A,8.0
3,36.82099986076355,learn,23179.00013923645,Wed Mar 12 2025 18:32:54 GMT-0500 (Central Daylight Time),635424.5,A,salt,O,t,671,1,1484.2000000001863,633940.2999999998,7082,WL,A,8.0
3,38.55199980735779,learn,21448.000192642212,Wed Mar 12 2025 18:32:54 GMT-0500 (Central Daylight Time),637156.0,A,saltenter,O,enter,1727,1,3215.7000000001863,633940.2999999998,7082,WL,A,8.0
3,41.28699994087219,learn,18713.000059127808,Wed Mar 12 2025 18:32:54 GMT-0500 (Central Daylight Time),639890.5,A,l,O,l,2713,1,2734.2000000001863,637156.2999999998,7082,WL,A,9.0
3,41.501999855041504,learn,18498.000144958496,Wed Mar 12 2025 18:32:54 GMT-0500 (Central Daylight Time),640106.0,A,lo,O,o,201,1,2949.7000000001863,637156.2999999998,7082,WL,A,9.0
3,41.70199990272522,learn,18298.00009727478,Wed Mar 12 2025 18:32:54 GMT-0500 (Central Daylight Time),640305.7999999998,A,log,O,g,193,1,3149.5,637156.2999999998,7082,WL,A,9.0
3,42.067999839782715,learn,17932.000160217285,Wed Mar 12 2025 18:32:54 GMT-0500 (Central Daylight Time),640671.5,A,logenter,O,enter,354,1,3515.2000000001863,637156.2999999998,7082,WL,A,9.0
3,42.86899995803833,learn,17131.00004196167,Wed Mar 12 2025 18:32:54 GMT-0500 (Central Daylight Time),641472.7000000002,A,r,O,r,789,1,800.9000000003725,640671.7999999998,7082,WL,A,10.0
3,43.050999879837036,learn,16949.000120162964,Wed Mar 12 2025 18:32:54 GMT-0500 (Central Daylight Time),641654.5,A,ra,O,a,172,1,982.7000000001863,640671.7999999998,7082,WL,A,10.0
3,43.335999965667725,learn,16664.000034332275,Wed Mar 12 2025 18:32:54 GMT-0500 (Central Daylight Time),641939.4000000004,A,rat,O,t,280,1,1267.6000000005588,640671.7999999998,7082,WL,A,10.0
3,43.51599979400635,learn,16484.000205993652,Wed Mar 12 2025 18:32:54 GMT-0500 (Central Daylight Time),642119.5999999996,A,ratt,O,t,159,1,1447.7999999998137,640671.7999999998,7082,WL,A,10.0
3,43.95099997520447,learn,16049.000024795532,Wed Mar 12 2025 18:32:54 GMT-0500 (Central Daylight Time),642554.7000000002,A,rattl,O,l,423,1,1882.9000000003725,640671.7999999998,7082,WL,A,10.0
3,44.133999824523926,learn,15866.000175476074,Wed Mar 12 2025 18:32:54 GMT-0500 (Central Daylight Time),642737.9000000004,A,rattle,O,e,169,1,2066.100000000559,640671.7999999998,7082,WL,A,10.0
3,45.150999784469604,learn,14849.000215530396,Wed Mar 12 2025 18:32:54 GMT-0500 (Central Daylight Time),643755.2000000002,A,rattleenter,O,enter,999,1,3083.4000000003725,640671.7999999998,7082,WL,A,10.0
3,45.882999897003174,learn,14117.000102996826,Wed Mar 12 2025 18:32:54 GMT-0500 (Central Daylight Time),644487.0,A,f,O,f,722,1,731.5,643755.5,7082,WL,A,11.0
3,46.01699995994568,learn,13983.000040054321,Wed Mar 12 2025 18:32:54 GMT-0500 (Central Daylight Time),644620.4000000004,A,fi,O,i,118,1,864.9000000003725,643755.5,7082,WL,A,11.0
3,46.23299980163574,learn,13767.000198364258,Wed Mar 12 2025 18:32:54 GMT-0500 (Central Daylight Time),644836.9000000004,A,fin,O,n,211,1,1081.4000000003725,643755.5,7082,WL,A,11.0
3,46.35199999809265,learn,13648.000001907349,Wed Mar 12 2025 18:32:54 GMT-0500 (Central Daylight Time),644955.4000000004,A,fing,O,g,96,1,1199.9000000003725,643755.5,7082,WL,A,11.0
3,46.51799988746643,learn,13482.00011253357,Wed Mar 12 2025 18:32:54 GMT-0500 (Central Daylight Time),645122.0,A,finge,O,e,160,1,1366.5,643755.5,7082,WL,A,11.0
3,46.633999824523926,learn,13366.000175476074,Wed Mar 12 2025 18:32:54 GMT-0500 (Central Daylight Time),645237.4000000004,A,finger,O,r,99,1,1481.9000000003725,643755.5,7082,WL,A,11.0
3,47.25,learn,12750.0,Wed Mar 12 2025 18:32:54 GMT-0500 (Central Daylight Time),645854.0999999996,A,fingerenter,O,enter,598,1,2098.5999999996275,643755.5,7082,WL,A,11.0
3,54.63199996948242,learn,5368.000030517578,Wed Mar 12 2025 18:32:54 GMT-0500 (Central Daylight Time),653235.2999999998,A,m,O,m,7367,1,7380.899999999441,645854.4000000004,7082,WL,A,12.0
3,54.913999795913696,learn,5086.000204086304,Wed Mar 12 2025 18:32:54 GMT-0500 (Central Daylight Time),653517.7999999998,A,me,O,e,274,1,7663.399999999441,645854.4000000004,7082,WL,A,12.0
3,55.11299991607666,learn,4887.00008392334,Wed Mar 12 2025 18:32:54 GMT-0500 (Central Daylight Time),653717.2999999998,A,mea,O,a,190,1,7862.899999999441,645854.4000000004,7082,WL,A,12.0
3,55.46399998664856,learn,4536.00001335144,Wed Mar 12 2025 18:32:54 GMT-0500 (Central Daylight Time),654068.0,A,mead,O,d,336,1,8213.599999999627,645854.4000000004,7082,WL,A,12.0
3,56.5479998588562,learn,3452.000141143799,Wed Mar 12 2025 18:32:54 GMT-0500 (Central Daylight Time),655151.4000000004,A,meado,O,o,1063,1,9297.0,645854.4000000004,7082,WL,A,12.0
3,56.763999938964844,learn,3236.0000610351562,Wed Mar 12 2025 18:32:54 GMT-0500 (Central Daylight Time),655367.5999999996,A,meadow,O,w,206,1,9513.199999999255,645854.4000000004,7082,WL,A,12.0
3,57.0460000038147,learn,2953.9999961853027,Wed Mar 12 2025 18:32:54 GMT-0500 (Central Daylight Time),655650.2999999998,A,meadowenter,O,enter,267,1,9795.899999999441,645854.4000000004,7082,WL,A,12.0
3,60.014999866485596,learn,-14.999866485595703,Wed Mar 12 2025 18:32:54 GMT-0500 (Central Daylight Time),658618.4000000004,A,None,O,None,2963,1,2967.9000000003725,655650.5,7082,WL,A,13.0
4,0.9330000877380371,learn,59066.99991226196,Wed Mar 12 2025 18:32:54 GMT-0500 (Central Daylight Time),729043.5,A,b,O,b,919,1,932.7999999998137,728110.7000000002,7082,WL,A,1.0
4,1.3330001831054688,learn,58666.99981689453,Wed Mar 12 2025 18:32:54 GMT-0500 (Central Daylight Time),729443.5999999996,A,bo,O,o,383,1,1332.8999999994412,728110.7000000002,7082,WL,A,1.0
4,1.4840002059936523,learn,58515.99979400635,Wed Mar 12 2025 18:32:54 GMT-0500 (Central Daylight Time),729594.5999999996,A,boo,O,o,128,1,1483.8999999994412,728110.7000000002,7082,WL,A,1.0
4,2.0840001106262207,learn,57915.99988937378,Wed Mar 12 2025 18:32:54 GMT-0500 (Central Daylight Time),730194.7999999998,A,book,O,k,576,1,2084.0999999996275,728110.7000000002,7082,WL,A,1.0
4,2.6030001640319824,learn,57396.99983596802,Wed Mar 12 2025 18:32:54 GMT-0500 (Central Daylight Time),730713.2999999998,A,bookenter,O,enter,497,1,2602.5999999996275,728110.7000000002,7082,WL,A,1.0
4,3.183000087738037,learn,56816.99991226196,Wed Mar 12 2025 18:32:54 GMT-0500 (Central Daylight Time),731293.4000000004,A,f,O,f,573,1,579.9000000003725,730713.5,7082,WL,A,2.0
4,3.2980000972747803,learn,56701.99990272522,Wed Mar 12 2025 18:32:54 GMT-0500 (Central Daylight Time),731408.7999999998,A,fl,O,l,94,1,695.2999999998137,730713.5,7082,WL,A,2.0
4,3.5160000324249268,learn,56483.99996757507,Wed Mar 12 2025 18:32:54 GMT-0500 (Central Daylight Time),731626.2999999998,A,flo,O,o,202,1,912.7999999998137,730713.5,7082,WL,A,2.0
4,3.9830000400543213,learn,56016.99995994568,Wed Mar 12 2025 18:32:54 GMT-0500 (Central Daylight Time),732092.9000000004,A,flow,O,w,458,1,1379.4000000003725,730713.5,7082,WL,A,2.0
4,4.200999975204468,learn,55799.00002479553,Wed Mar 12 2025 18:32:54 GMT-0500 (Central Daylight Time),732310.9000000004,A,flowe,O,e,207,1,1597.4000000003725,730713.5,7082,WL,A,2.0
4,4.450000047683716,learn,55549.999952316284,Wed Mar 12 2025 18:32:54 GMT-0500 (Central Daylight Time),732559.9000000004,A,flower,O,r,229,1,1846.4000000003725,730713.5,7082,WL,A,2.0
4,5.131999969482422,learn,54868.00003051758,Wed Mar 12 2025 18:32:54 GMT-0500 (Central Daylight Time),733242.2999999998,A,flowerenter,O,enter,665,1,2528.7999999998137,730713.5,7082,WL,A,2.0
4,5.733000040054321,learn,54266.99995994568,Wed Mar 12 2025 18:32:54 GMT-0500 (Central Daylight Time),733844.4000000004,A,t,O,t,587,1,601.8000000007451,733242.5999999996,7082,WL,A,3.0
4,5.966000080108643,learn,54033.99991989136,Wed Mar 12 2025 18:32:54 GMT-0500 (Central Daylight Time),734076.7999999998,A,tr,O,r,226,1,834.2000000001863,733242.5999999996,7082,WL,A,3.0
4,6.133000135421753,learn,53866.99986457825,Wed Mar 12 2025 18:32:54 GMT-0500 (Central Daylight Time),734243.5,A,tra,O,a,160,1,1000.9000000003725,733242.5999999996,7082,WL,A,3.0
4,6.614000082015991,learn,53385.99991798401,Wed Mar 12 2025 18:32:54 GMT-0500 (Central Daylight Time),734724.5999999996,A,trai,O,i,470,1,1482.0,733242.5999999996,7082,WL,A,3.0
4,6.831000089645386,learn,53168.999910354614,Wed Mar 12 2025 18:32:54 GMT-0500 (Central Daylight Time),734941.7999999998,A,train,O,n,196,1,1699.2000000001863,733242.5999999996,7082,WL,A,3.0
4,7.198000192642212,learn,52801.99980735779,Wed Mar 12 2025 18:32:54 GMT-0500 (Central Daylight Time),735308.9000000004,A,trainenter,O,enter,360,1,2066.300000000745,733242.5999999996,7082,WL,A,3.0
4,8.29800009727478,learn,51701.99990272522,Wed Mar 12 2025 18:32:54 GMT-0500 (Central Daylight Time),736408.7000000002,A,m,O,m,1089,1,1099.5,735309.2000000002,7082,WL,A,4.0
4,8.481000185012817,learn,51518.99981498718,Wed Mar 12 2025 18:32:54 GMT-0500 (Central Daylight Time),736591.9000000004,A,me,O,e,163,1,1282.7000000001863,735309.2000000002,7082,WL,A,4.0
4,8.71399998664856,learn,51286.00001335144,Wed Mar 12 2025 18:32:54 GMT-0500 (Central Daylight Time),736824.9000000004,A,mea,O,a,220,1,1515.7000000001863,735309.2000000002,7082,WL,A,4.0
4,9.016000032424927,learn,50983.99996757507,Wed Mar 12 2025 18:32:54 GMT-0500 (Central Daylight Time),737126.5999999996,A,mead,O,d,284,1,1817.3999999994412,735309.2000000002,7082,WL,A,4.0
4,9.165000200271606,learn,50834.99979972839,Wed Mar 12 2025 18:32:54 GMT-0500 (Central Daylight Time),737276.2999999998,A,meado,O,o,143,1,1967.0999999996275,735309.2000000002,7082,WL,A,4.0
4,9.764000177383423,learn,50235.99982261658,Wed Mar 12 2025 18:32:54 GMT-0500 (Central Daylight Time),737875.2000000002,A,meadow,O,w,594,1,2566.0,735309.2000000002,7082,WL,A,4.0
4,10.164000034332275,learn,49835.999965667725,Wed Mar 12 2025 18:32:54 GMT-0500 (Central Daylight Time),738275.0,A,meadowenter,O,enter,384,1,2965.7999999998137,735309.2000000002,7082,WL,A,4.0
4,10.79800009727478,learn,49201.99990272522,Wed Mar 12 2025 18:32:54 GMT-0500 (Central Daylight Time),738908.7999999998,A,r,O,r,627,1,633.5,738275.2999999998,7082,WL,A,5.0
4,11.230000019073486,learn,48769.999980926514,Wed Mar 12 2025 18:32:54 GMT-0500 (Central Daylight Time),739340.4000000004,A,ru,O,u,423,1,1065.1000000005588,738275.2999999998,7082,WL,A,5.0
4,11.580000162124634,learn,48419.999837875366,Wed Mar 12 2025 18:32:54 GMT-0500 (Central Daylight Time),739690.5,A,rug,O,g,334,1,1415.2000000001863,738275.2999999998,7082,WL,A,5.0
4,12.13100004196167,learn,47868.99995803833,Wed Mar 12 2025 18:32:54 GMT-0500 (Central Daylight Time),740242.2999999998,A,rugenter,O,enter,545,1,1967.0,738275.2999999998,7082,WL,A,5.0
4,16.01200008392334,learn,43987.99991607666,Wed Mar 12 2025 18:32:54 GMT-0500 (Central Daylight Time),744123.2999999998,A,c,O,c,3868,1,3880.7999999998137,740242.5,7082,WL,A,6.0
4,16.24500012397766,learn,43754.99987602234,Wed Mar 12 2025 18:32:54 GMT-0500 (Central Daylight Time),744356.0,A,ci,O,i,227,1,4113.5,740242.5,7082,WL,A,6.0
4,16.99500012397766,learn,43004.99987602234,Wed Mar 12 2025 18:32:54 GMT-0500 (Central Daylight Time),745105.4000000004,A,c,O,backspace,736,1,4862.9000000003725,740242.5,7082,WL,A,6.0
4,17.861000061035156,learn,42138.999938964844,Wed Mar 12 2025 18:32:54 GMT-0500 (Central Daylight Time),745972.2999999998,A,ch,O,h,851,1,5729.799999999814,740242.5,7082,WL,A,6.0
4,18.094000101089478,learn,41905.99989891052,Wed Mar 12 2025 18:32:54 GMT-0500 (Central Daylight Time),746205.0999999996,A,chi,O,i,216,1,5962.5999999996275,740242.5,7082,WL,A,6.0
4,18.277000188827515,learn,41722.999811172485,Wed Mar 12 2025 18:32:54 GMT-0500 (Central Daylight Time),746387.7000000002,A,chim,O,m,175,1,6145.200000000186,740242.5,7082,WL,A,6.0
4,18.544000148773193,learn,41455.99985122681,Wed Mar 12 2025 18:32:54 GMT-0500 (Central Daylight Time),746654.5999999996,A,chimn,O,n,255,1,6412.0999999996275,740242.5,7082,WL,A,6.0
4,18.759999990463257,learn,41240.00000953674,Wed Mar 12 2025 18:32:54 GMT-0500 (Central Daylight Time),746871.2999999998,A,chimne,O,e,206,1,6628.799999999814,740242.5,7082,WL,A,6.0
4,19.445000171661377,learn,40554.99982833862,Wed Mar 12 2025 18:32:54 GMT-0500 (Central Daylight Time),747555.7999999998,A,chimney,O,y,678,1,7313.299999999814,740242.5,7082,WL,A,6.0
4,19.844000101089478,learn,40155.99989891052,Wed Mar 12 2025 18:32:54 GMT-0500 (Central Daylight Time),747955.0,A,chimneyenter,O,enter,393,1,7712.5,740242.5,7082,WL,A,6.0
4,21.109000205993652,learn,38890.99979400635,Wed Mar 12 2025 18:32:54 GMT-0500 (Central Daylight Time),749219.5,A,s,O,s,1259,1,1264.2999999998137,747955.2000000002,7082,WL,A,7.0
4,21.343000173568726,learn,38656.999826431274,Wed Mar 12 2025 18:32:54 GMT-0500 (Central Daylight Time),749454.2000000002,A,sa,O,a,226,1,1499.0,747955.2000000002,7082,WL,A,7.0
4,21.492000102996826,learn,38507.999897003174,Wed Mar 12 2025 18:32:54 GMT-0500 (Central Daylight Time),749603.2999999998,A,sal,O,l,134,1,1648.0999999996275,747955.2000000002,7082,WL,A,7.0
4,22.16000008583069,learn,37839.99991416931,Wed Mar 12 2025 18:32:54 GMT-0500 (Central Daylight Time),750271.0999999996,A,salt,O,t,658,1,2315.899999999441,747955.2000000002,7082,WL,A,7.0
4,22.526000022888184,learn,37473.99997711182,Wed Mar 12 2025 18:32:54 GMT-0500 (Central Daylight Time),750636.7999999998,A,saltenter,O,enter,358,1,2681.5999999996275,747955.2000000002,7082,WL,A,7.0
4,23.192000150680542,learn,36807.99984931946,Wed Mar 12 2025 18:32:54 GMT-0500 (Central Daylight Time),751302.7000000002,A,f,O,f,657,1,665.7000000001863,750637.0,7082,WL,A,8.0
4,23.31000018119812,learn,36689.99981880188,Wed Mar 12 2025 18:32:54 GMT-0500 (Central Daylight Time),751421.0,A,fi,O,i,95,1,784.0,750637.0,7082,WL,A,8.0
4,23.509000062942505,learn,36490.999937057495,Wed Mar 12 2025 18:32:54 GMT-0500 (Central Daylight Time),751619.5,A,fin,O,n,183,1,982.5,750637.0,7082,WL,A,8.0
4,23.575000047683716,learn,36424.999952316284,Wed Mar 12 2025 18:32:54 GMT-0500 (Central Daylight Time),751686.2999999998,A,fing,O,g,46,1,1049.2999999998137,750637.0,7082,WL,A,8.0
4,23.77500009536743,learn,36224.99990463257,Wed Mar 12 2025 18:32:54 GMT-0500 (Central Daylight Time),751886.0,A,finge,O,e,189,1,1249.0,750637.0,7082,WL,A,8.0
4,23.89300012588501,learn,36106.99987411499,Wed Mar 12 2025 18:32:54 GMT-0500 (Central Daylight Time),752004.2999999998,A,finger,O,r,113,1,1367.2999999998137,750637.0,7082,WL,A,8.0
4,26.70900011062622,learn,33290.99988937378,Wed Mar 12 2025 18:32:54 GMT-0500 (Central Daylight Time),754819.5,A,fingerenter,O,enter,2809,1,4182.5,750637.0,7082,WL,A,8.0
4,27.29200005531311,learn,32707.99994468689,Wed Mar 12 2025 18:32:54 GMT-0500 (Central Daylight Time),755402.5,A,a,O,a,568,1,582.7000000001863,754819.7999999998,7082,WL,A,9.0
4,27.45900011062622,learn,32540.99988937378,Wed Mar 12 2025 18:32:54 GMT-0500 (Central Daylight Time),755570.0999999996,A,ap,O,p,161,1,750.2999999998137,754819.7999999998,7082,WL,A,9.0
4,27.625,learn,32375.0,Wed Mar 12 2025 18:32:54 GMT-0500 (Central Daylight Time),755736.0999999996,A,app,O,p,153,1,916.2999999998137,754819.7999999998,7082,WL,A,9.0
4,27.89300012588501,learn,32106.99987411499,Wed Mar 12 2025 18:32:54 GMT-0500 (Central Daylight Time),756003.7000000002,A,appl,O,l,262,1,1183.9000000003725,754819.7999999998,7082,WL,A,9.0
4,28.040000200271606,learn,31959.999799728394,Wed Mar 12 2025 18:32:54 GMT-0500 (Central Daylight Time),756150.7000000002,A,apple,O,e,128,1,1330.9000000003725,754819.7999999998,7082,WL,A,9.0
4,28.475000143051147,learn,31524.999856948853,Wed Mar 12 2025 18:32:54 GMT-0500 (Central Daylight Time),756585.5,A,appleenter,O,enter,421,1,1765.7000000001863,754819.7999999998,7082,WL,A,9.0
4,30.424000024795532,learn,29575.999975204468,Wed Mar 12 2025 18:32:54 GMT-0500 (Central Daylight Time),758534.9000000004,A,g,O,g,1932,1,1949.1000000005588,756585.7999999998,7082,WL,A,10.0
4,30.557000160217285,learn,29442.999839782715,Wed Mar 12 2025 18:32:54 GMT-0500 (Central Daylight Time),758668.2000000002,A,go,O,o,127,1,2082.4000000003725,756585.7999999998,7082,WL,A,10.0
4,31.074000120162964,learn,28925.999879837036,Wed Mar 12 2025 18:32:54 GMT-0500 (Central Daylight Time),759184.4000000004,A,gol,O,l,502,1,2598.600000000559,756585.7999999998,7082,WL,A,10.0
4,31.79100012779236,learn,28208.99987220764,Wed Mar 12 2025 18:32:54 GMT-0500 (Central Daylight Time),759901.5,A,gold,O,d,695,1,3315.7000000001863,756585.7999999998,7082,WL,A,10.0
4,32.10800004005432,learn,27891.99995994568,Wed Mar 12 2025 18:32:54 GMT-0500 (Central Daylight Time),760218.4000000004,A,goldenter,O,enter,310,1,3632.600000000559,756585.7999999998,7082,WL,A,10.0
4,36.8050000667572,learn,23194.999933242798,Wed Mar 12 2025 18:32:54 GMT-0500 (Central Daylight Time),764915.7999999998,A,r,O,r,4683,1,4697.0999999996275,760218.7000000002,7082,WL,A,11.0
4,37.00500011444092,learn,22994.999885559082,Wed Mar 12 2025 18:32:54 GMT-0500 (Central Daylight Time),765115.9000000004,A,ra,O,a,184,1,4897.200000000186,760218.7000000002,7082,WL,A,11.0
4,37.32200002670288,learn,22677.99997329712,Wed Mar 12 2025 18:32:54 GMT-0500 (Central Daylight Time),765432.5999999996,A,rat,O,t,295,1,5213.899999999441,760218.7000000002,7082,WL,A,11.0
4,37.47100019454956,learn,22528.99980545044,Wed Mar 12 2025 18:32:54 GMT-0500 (Central Daylight Time),765582.2999999998,A,ratt,O,t,139,1,5363.5999999996275,760218.7000000002,7082,WL,A,11.0
4,38.12000012397766,learn,21879.99987602234,Wed Mar 12 2025 18:32:54 GMT-0500 (Central Daylight Time),766230.7999999998,A,rattl,O,l,630,1,6012.0999999996275,760218.7000000002,7082,WL,A,11.0
4,38.23800015449524,learn,21761.99984550476,Wed Mar 12 2025 18:32:54 GMT-0500 (Central Daylight Time),766348.5,A,rattle,O,e,101,1,6129.799999999814,760218.7000000002,7082,WL,A,11.0
4,38.6710000038147,learn,21328.999996185303,Wed Mar 12 2025 18:32:54 GMT-0500 (Central Daylight Time),766781.5,A,rattleenter,O,enter,422,1,6562.799999999814,760218.7000000002,7082,WL,A,11.0
4,41.90499997138977,learn,18095.00002861023,Wed Mar 12 2025 18:32:54 GMT-0500 (Central Daylight Time),770015.2999999998,A,l,O,l,3224,1,3233.5,766781.7999999998,7082,WL,A,12.0
4,42.13800001144409,learn,17861.99998855591,Wed Mar 12 2025 18:32:54 GMT-0500 (Central Daylight Time),770248.5999999996,A,lo,O,o,213,1,3466.7999999998137,766781.7999999998,7082,WL,A,12.0
4,42.35199999809265,learn,17648.00000190735,Wed Mar 12 2025 18:32:54 GMT-0500 (Central Daylight Time),770463.2999999998,A,log,O,g,195,1,3681.5,766781.7999999998,7082,WL,A,12.0
4,42.670000076293945,learn,17329.999923706055,Wed Mar 12 2025 18:32:54 GMT-0500 (Central Daylight Time),770780.5,A,logenter,O,enter,294,1,3998.7000000001863,766781.7999999998,7082,WL,A,12.0
4,43.521000146865845,learn,16478.999853134155,Wed Mar 12 2025 18:32:54 GMT-0500 (Central Daylight Time),771631.9000000004,A,k,O,k,840,1,851.1000000005588,770780.7999999998,7082,WL,A,13.0
4,43.80400013923645,learn,16195.99986076355,Wed Mar 12 2025 18:32:54 GMT-0500 (Central Daylight Time),771915.0999999996,A,ke,O,e,278,1,1134.2999999998137,770780.7999999998,7082,WL,A,13.0
4,44.336000204086304,learn,15663.999795913696,Wed Mar 12 2025 18:32:54 GMT-0500 (Central Daylight Time),772447.2999999998,A,key,O,y,515,1,1666.5,770780.7999999998,7082,WL,A,13.0
4,44.837000131607056,learn,15162.999868392944,Wed Mar 12 2025 18:32:54 GMT-0500 (Central Daylight Time),772947.4000000004,A,keyenter,O,enter,492,1,2166.600000000559,770780.7999999998,7082,WL,A,13.0
4,60.01400017738342,learn,-14.000177383422852,Wed Mar 12 2025 18:32:54 GMT-0500 (Central Daylight Time),788124.9000000004,A,None,O,None,15172,1,15177.0,772947.9000000004,7082,WL,A,14.0
5,0.8680000305175781,learn,60000.0,Wed Mar 12 2025 18:32:54 GMT-0500 (Central Daylight Time),859586.7999999998,A,b,O,b,845,1,867.7999999998137,858719.0,7082,WL,A,1.0
5,1.183000087738037,learn,60000.0,Wed Mar 12 2025 18:32:54 GMT-0500 (Central Daylight Time),859902.0,A,bo,O,o,305,1,1183.0,858719.0,7082,WL,A,1.0
5,1.3510000705718994,learn,60000.0,Wed Mar 12 2025 18:32:54 GMT-0500 (Central Daylight Time),860069.2000000002,A,boo,O,o,162,1,1350.2000000001863,858719.0,7082,WL,A,1.0
5,1.75,learn,60000.0,Wed Mar 12 2025 18:32:54 GMT-0500 (Central Daylight Time),860469.0,A,book,O,k,383,1,1750.0,858719.0,7082,WL,A,1.0
5,2.365999937057495,learn,60000.0,Wed Mar 12 2025 18:32:54 GMT-0500 (Central Daylight Time),861084.9000000004,A,bookenter,O,enter,607,1,2365.9000000003725,858719.0,7082,WL,A,1.0
5,2.9830000400543213,learn,60000.0,Wed Mar 12 2025 18:32:54 GMT-0500 (Central Daylight Time),861701.2000000002,A,f,O,f,599,1,616.1000000005588,861085.0999999996,7082,WL,A,2.0
5,3.0839998722076416,learn,60000.0,Wed Mar 12 2025 18:32:54 GMT-0500 (Central Daylight Time),861802.5,A,fl,O,l,95,1,717.4000000003725,861085.0999999996,7082,WL,A,2.0
5,3.3329999446868896,learn,60000.0,Wed Mar 12 2025 18:32:54 GMT-0500 (Central Daylight Time),862052.0,A,flo,O,o,234,1,966.9000000003725,861085.0999999996,7082,WL,A,2.0
5,3.4830000400543213,learn,60000.0,Wed Mar 12 2025 18:32:54 GMT-0500 (Central Daylight Time),862202.0999999996,A,flow,O,w,147,1,1117.0,861085.0999999996,7082,WL,A,2.0
5,3.7160000801086426,learn,60000.0,Wed Mar 12 2025 18:32:54 GMT-0500 (Central Daylight Time),862435.0999999996,A,flowe,O,e,219,1,1350.0,861085.0999999996,7082,WL,A,2.0
5,4.283999919891357,learn,60000.0,Wed Mar 12 2025 18:32:54 GMT-0500 (Central Daylight Time),863002.4000000004,A,flower,O,r,545,1,1917.300000000745,861085.0999999996,7082,WL,A,2.0
5,4.599999904632568,learn,60000.0,Wed Mar 12 2025 18:32:54 GMT-0500 (Central Daylight Time),863318.2000000002,A,flowerenter,O,enter,298,1,2233.100000000559,861085.0999999996,7082,WL,A,2.0
5,8.364000082015991,learn,60000.0,Wed Mar 12 2025 18:32:54 GMT-0500 (Central Daylight Time),867083.0,A,m,O,m,3752,1,3764.5,863318.5,7082,WL,A,3.0
5,8.513999938964844,learn,60000.0,Wed Mar 12 2025 18:32:54 GMT-0500 (Central Daylight Time),867232.7000000002,A,me,O,e,128,1,3914.2000000001863,863318.5,7082,WL,A,3.0
5,8.664000034332275,learn,60000.0,Wed Mar 12 2025 18:32:54 GMT-0500 (Central Daylight Time),867383.2000000002,A,mea,O,a,139,1,4064.7000000001863,863318.5,7082,WL,A,3.0
5,8.914999961853027,learn,60000.0,Wed Mar 12 2025 18:32:54 GMT-0500 (Central Daylight Time),867634.0,A,mead,O,d,228,1,4315.5,863318.5,7082,WL,A,3.0
5,9.063999891281128,learn,60000.0,Wed Mar 12 2025 18:32:54 GMT-0500 (Central Daylight Time),867782.9000000004,A,meado,O,o,137,1,4464.4000000003725,863318.5,7082,WL,A,3.0
5,9.764999866485596,learn,60000.0,Wed Mar 12 2025 18:32:54 GMT-0500 (Central Daylight Time),868483.4000000004,A,meadow,O,w,693,1,5164.9000000003725,863318.5,7082,WL,A,3.0
5,10.145999908447266,learn,60000.0,Wed Mar 12 2025 18:32:54 GMT-0500 (Central Daylight Time),868865.0999999996,A,meadowenter,O,enter,360,1,5546.5999999996275,863318.5,7082,WL,A,3.0
5,10.930999994277954,learn,60000.0,Wed Mar 12 2025 18:32:54 GMT-0500 (Central Daylight Time),869650.0,A,t,O,t,764,1,784.7000000001863,868865.2999999998,7082,WL,A,4.0
5,11.13100004196167,learn,60000.0,Wed Mar 12 2025 18:32:54 GMT-0500 (Central Daylight Time),869849.4000000004,A,tr,O,r,177,1,984.1000000005588,868865.2999999998,7082,WL,A,4.0
5,11.331000089645386,learn,60000.0,Wed Mar 12 2025 18:32:54 GMT-0500 (Central Daylight Time),870049.5,A,tra,O,a,185,1,1184.2000000001863,868865.2999999998,7082,WL,A,4.0
5,11.662999868392944,learn,60000.0,Wed Mar 12 2025 18:32:54 GMT-0500 (Central Daylight Time),870382.0,A,trai,O,i,322,1,1516.7000000001863,868865.2999999998,7082,WL,A,4.0
5,11.930000066757202,learn,60000.0,Wed Mar 12 2025 18:32:54 GMT-0500 (Central Daylight Time),870648.4000000004,A,train,O,n,246,1,1783.1000000005588,868865.2999999998,7082,WL,A,4.0
5,12.263000011444092,learn,60000.0,Wed Mar 12 2025 18:32:54 GMT-0500 (Central Daylight Time),870981.5999999996,A,trainenter,O,enter,317,1,2116.2999999998137,868865.2999999998,7082,WL,A,4.0
5,12.82800006866455,learn,60000.0,Wed Mar 12 2025 18:32:54 GMT-0500 (Central Daylight Time),871546.2999999998,A,r,O,r,560,1,564.3999999994412,870981.9000000004,7082,WL,A,5.0
5,13.19700002670288,learn,60000.0,Wed Mar 12 2025 18:32:54 GMT-0500 (Central Daylight Time),871915.2000000002,A,ru,O,u,364,1,933.2999999998137,870981.9000000004,7082,WL,A,5.0
5,13.46399998664856,learn,60000.0,Wed Mar 12 2025 18:32:54 GMT-0500 (Central Daylight Time),872182.2000000002,A,rug,O,g,250,1,1200.2999999998137,870981.9000000004,7082,WL,A,5.0
5,14.01200008392334,learn,60000.0,Wed Mar 12 2025 18:32:54 GMT-0500 (Central Daylight Time),872730.7999999998,A,rugenter,O,enter,534,1,1748.8999999994412,870981.9000000004,7082,WL,A,5.0
5,16.145999908447266,learn,60000.0,Wed Mar 12 2025 18:32:54 GMT-0500 (Central Daylight Time),874864.4000000004,A,g,O,g,2116,1,2133.4000000003725,872731.0,7082,WL,A,6.0
5,16.244999885559082,learn,60000.0,Wed Mar 12 2025 18:32:54 GMT-0500 (Central Daylight Time),874963.7000000002,A,go,O,o,92,1,2232.7000000001863,872731.0,7082,WL,A,6.0
5,16.51200008392334,learn,60000.0,Wed Mar 12 2025 18:32:54 GMT-0500 (Central Daylight Time),875230.9000000004,A,gol,O,l,247,1,2499.9000000003725,872731.0,7082,WL,A,6.0
5,16.645999908447266,learn,60000.0,Wed Mar 12 2025 18:32:54 GMT-0500 (Central Daylight Time),875364.7999999998,A,gold,O,d,128,1,2633.7999999998137,872731.0,7082,WL,A,6.0
5,17.244999885559082,learn,60000.0,Wed Mar 12 2025 18:32:54 GMT-0500 (Central Daylight Time),875963.4000000004,A,goldenter,O,enter,575,1,3232.4000000003725,872731.0,7082,WL,A,6.0
5,17.76200008392334,learn,60000.0,Wed Mar 12 2025 18:32:54 GMT-0500 (Central Daylight Time),876481.0999999996,A,s,O,s,506,1,517.5,875963.5999999996,7082,WL,A,7.0
5,17.977999925613403,learn,60000.0,Wed Mar 12 2025 18:32:54 GMT-0500 (Central Daylight Time),876696.7000000002,A,sa,O,a,203,1,733.1000000005588,875963.5999999996,7082,WL,A,7.0
5,18.144999980926514,learn,60000.0,Wed Mar 12 2025 18:32:54 GMT-0500 (Central Daylight Time),876863.5999999996,A,sal,O,l,147,1,900.0,875963.5999999996,7082,WL,A,7.0
5,18.628999948501587,learn,60000.0,Wed Mar 12 2025 18:32:54 GMT-0500 (Central Daylight Time),877347.2000000002,A,salt,O,t,472,1,1383.6000000005588,875963.5999999996,7082,WL,A,7.0
5,19.01200008392334,learn,60000.0,Wed Mar 12 2025 18:32:54 GMT-0500 (Central Daylight Time),877730.7000000002,A,saltenter,O,enter,377,1,1767.1000000005588,875963.5999999996,7082,WL,A,7.0
5,20.24399995803833,learn,60000.0,Wed Mar 12 2025 18:32:54 GMT-0500 (Central Daylight Time),878962.7999999998,A,f,O,f,1219,1,1231.7999999998137,877731.0,7082,WL,A,8.0
5,20.29200005531311,learn,60000.0,Wed Mar 12 2025 18:32:54 GMT-0500 (Central Daylight Time),879011.0999999996,A,fi,O,i,40,1,1280.0999999996275,877731.0,7082,WL,A,8.0
5,20.526999950408936,learn,60000.0,Wed Mar 12 2025 18:32:54 GMT-0500 (Central Daylight Time),879245.9000000004,A,fin,O,n,217,1,1514.9000000003725,877731.0,7082,WL,A,8.0
5,20.743000030517578,learn,60000.0,Wed Mar 12 2025 18:32:54 GMT-0500 (Central Daylight Time),879461.7999999998,A,fine,O,e,208,1,1730.7999999998137,877731.0,7082,WL,A,8.0
5,20.828999996185303,learn,60000.0,Wed Mar 12 2025 18:32:54 GMT-0500 (Central Daylight Time),879547.5,A,finer,O,r,71,1,1816.5,877731.0,7082,WL,A,8.0
5,21.57800006866455,learn,60000.0,Wed Mar 12 2025 18:32:54 GMT-0500 (Central Daylight Time),880296.2000000002,A,fine,O,backspace,737,1,2565.2000000001863,877731.0,7082,WL,A,8.0
5,21.743000030517578,learn,60000.0,Wed Mar 12 2025 18:32:54 GMT-0500 (Central Daylight Time),880461.5999999996,A,fin,O,backspace,156,1,2730.5999999996275,877731.0,7082,WL,A,8.0
5,22.127000093460083,learn,60000.0,Wed Mar 12 2025 18:32:54 GMT-0500 (Central Daylight Time),880846.2000000002,A,fing,O,g,376,1,3115.2000000001863,877731.0,7082,WL,A,8.0
5,22.293999910354614,learn,60000.0,Wed Mar 12 2025 18:32:54 GMT-0500 (Central Daylight Time),881013.0,A,finge,O,e,149,1,3282.0,877731.0,7082,WL,A,8.0
5,22.41100001335144,learn,60000.0,Wed Mar 12 2025 18:32:54 GMT-0500 (Central Daylight Time),881129.2000000002,A,finger,O,r,94,1,3398.2000000001863,877731.0,7082,WL,A,8.0
5,22.877000093460083,learn,60000.0,Wed Mar 12 2025 18:32:54 GMT-0500 (Central Daylight Time),881595.4000000004,A,fingerenter,O,enter,449,1,3864.4000000003725,877731.0,7082,WL,A,8.0
5,25.060999870300293,learn,60000.0,Wed Mar 12 2025 18:32:54 GMT-0500 (Central Daylight Time),883779.2999999998,A,c,O,c,2169,1,2183.7000000001863,881595.5999999996,7082,WL,A,9.0
5,25.210000038146973,learn,60000.0,Wed Mar 12 2025 18:32:54 GMT-0500 (Central Daylight Time),883928.5999999996,A,ch,O,h,135,1,2333.0,881595.5999999996,7082,WL,A,9.0
5,25.60800004005432,learn,60000.0,Wed Mar 12 2025 18:32:54 GMT-0500 (Central Daylight Time),884326.5999999996,A,chm,O,m,389,1,2731.0,881595.5999999996,7082,WL,A,9.0
5,26.14299988746643,learn,60000.0,Wed Mar 12 2025 18:32:54 GMT-0500 (Central Daylight Time),884861.9000000004,A,ch,O,backspace,517,1,3266.300000000745,881595.5999999996,7082,WL,A,9.0
5,26.425999879837036,learn,60000.0,Wed Mar 12 2025 18:32:54 GMT-0500 (Central Daylight Time),885144.5,A,chi,O,i,261,1,3548.9000000003725,881595.5999999996,7082,WL,A,9.0
5,26.625999927520752,learn,60000.0,Wed Mar 12 2025 18:32:54 GMT-0500 (Central Daylight Time),885344.7000000002,A,chim,O,m,178,1,3749.100000000559,881595.5999999996,7082,WL,A,9.0
5,27.14299988746643,learn,60000.0,Wed Mar 12 2025 18:32:54 GMT-0500 (Central Daylight Time),885861.2999999998,A,chimn,O,n,507,1,4265.700000000186,881595.5999999996,7082,WL,A,9.0
5,27.325000047683716,learn,60000.0,Wed Mar 12 2025 18:32:54 GMT-0500 (Central Daylight Time),886043.5999999996,A,chimne,O,e,173,1,4448.0,881595.5999999996,7082,WL,A,9.0
5,27.49399995803833,learn,60000.0,Wed Mar 12 2025 18:32:54 GMT-0500 (Central Daylight Time),886213.0,A,chimney,O,y,160,1,4617.4000000003725,881595.5999999996,7082,WL,A,9.0
5,28.625999927520752,learn,60000.0,Wed Mar 12 2025 18:32:54 GMT-0500 (Central Daylight Time),887344.4000000004,A,chimneyenter,O,enter,1117,1,5748.800000000745,881595.5999999996,7082,WL,A,9.0
5,29.7260000705719,learn,60000.0,Wed Mar 12 2025 18:32:54 GMT-0500 (Central Daylight Time),888444.2000000002,A,b,O,b,1095,1,1099.5,887344.7000000002,7082,WL,A,10.0
5,30.024999856948853,learn,60000.0,Wed Mar 12 2025 18:32:54 GMT-0500 (Central Daylight Time),888743.5999999996,A,bu,O,u,279,1,1398.8999999994412,887344.7000000002,7082,WL,A,10.0
5,30.256999969482422,learn,60000.0,Wed Mar 12 2025 18:32:54 GMT-0500 (Central Daylight Time),888975.9000000004,A,but,O,t,220,1,1631.2000000001863,887344.7000000002,7082,WL,A,10.0
5,30.407000064849854,learn,60000.0,Wed Mar 12 2025 18:32:54 GMT-0500 (Central Daylight Time),889126.2999999998,A,butt,O,t,141,1,1781.5999999996275,887344.7000000002,7082,WL,A,10.0
5,30.641000032424927,learn,60000.0,Wed Mar 12 2025 18:32:54 GMT-0500 (Central Daylight Time),889359.7000000002,A,butto,O,o,214,1,2015.0,887344.7000000002,7082,WL,A,10.0
5,30.89199995994568,learn,60000.0,Wed Mar 12 2025 18:32:54 GMT-0500 (Central Daylight Time),889610.5999999996,A,button,O,n,244,1,2265.899999999441,887344.7000000002,7082,WL,A,10.0
5,31.20799994468689,learn,60000.0,Wed Mar 12 2025 18:32:54 GMT-0500 (Central Daylight Time),889926.4000000004,A,buttonenter,O,enter,295,1,2581.7000000001863,887344.7000000002,7082,WL,A,10.0
5,33.556999921798706,learn,60000.0,Wed Mar 12 2025 18:32:54 GMT-0500 (Central Daylight Time),892275.4000000004,A,r,O,r,2335,1,2348.7000000001863,889926.7000000002,7082,WL,A,11.0
5,33.75699996948242,learn,60000.0,Wed Mar 12 2025 18:32:54 GMT-0500 (Central Daylight Time),892475.9000000004,A,ra,O,a,184,1,2549.2000000001863,889926.7000000002,7082,WL,A,11.0
5,34.03999996185303,learn,60000.0,Wed Mar 12 2025 18:32:54 GMT-0500 (Central Daylight Time),892758.7999999998,A,rat,O,t,272,1,2832.0999999996275,889926.7000000002,7082,WL,A,11.0
5,34.19099998474121,learn,60000.0,Wed Mar 12 2025 18:32:54 GMT-0500 (Central Daylight Time),892909.7000000002,A,ratt,O,t,144,1,2983.0,889926.7000000002,7082,WL,A,11.0
5,34.573999881744385,learn,60000.0,Wed Mar 12 2025 18:32:54 GMT-0500 (Central Daylight Time),893292.7999999998,A,rattl,O,l,364,1,3366.0999999996275,889926.7000000002,7082,WL,A,11.0
5,34.706000089645386,learn,60000.0,Wed Mar 12 2025 18:32:54 GMT-0500 (Central Daylight Time),893424.7000000002,A,rattle,O,e,120,1,3498.0,889926.7000000002,7082,WL,A,11.0
5,35.25600004196167,learn,60000.0,Wed Mar 12 2025 18:32:54 GMT-0500 (Central Daylight Time),893975.0999999996,A,rattleenter,O,enter,540,1,4048.399999999441,889926.7000000002,7082,WL,A,11.0
5,36.723000049591064,learn,60000.0,Wed Mar 12 2025 18:32:54 GMT-0500 (Central Daylight Time),895441.5999999996,A,k,O,k,1454,1,1466.199999999255,893975.4000000004,7082,WL,A,12.0
5,36.855000019073486,learn,60000.0,Wed Mar 12 2025 18:32:54 GMT-0500 (Central Daylight Time),895573.9000000004,A,ke,O,e,123,1,1598.5,893975.4000000004,7082,WL,A,12.0
5,37.287999868392944,learn,60000.0,Wed Mar 12 2025 18:32:54 GMT-0500 (Central Daylight Time),896007.0,A,key,O,y,412,1,2031.5999999996275,893975.4000000004,7082,WL,A,12.0
5,37.92199993133545,learn,60000.0,Wed Mar 12 2025 18:32:54 GMT-0500 (Central Daylight Time),896640.7000000002,A,keyenter,O,enter,621,1,2665.2999999998137,893975.4000000004,7082,WL,A,12.0
5,38.50399994850159,learn,60000.0,Wed Mar 12 2025 18:32:54 GMT-0500 (Central Daylight Time),897222.7999999998,A,b,O,b,563,1,581.7999999998137,896641.0,7082,WL,A,13.0
5,38.723000049591064,learn,60000.0,Wed Mar 12 2025 18:32:54 GMT-0500 (Central Daylight Time),897442.2000000002,A,bu,O,u,198,1,801.2000000001863,896641.0,7082,WL,A,13.0
5,38.937999963760376,learn,60000.0,Wed Mar 12 2025 18:32:54 GMT-0500 (Central Daylight Time),897657.2000000002,A,but,O,t,190,1,1016.2000000001863,896641.0,7082,WL,A,13.0
5,39.12299990653992,learn,60000.0,Wed Mar 12 2025 18:32:54 GMT-0500 (Central Daylight Time),897841.2000000002,A,butt,O,t,162,1,1200.2000000001863,896641.0,7082,WL,A,13.0
5,39.354000091552734,learn,60000.0,Wed Mar 12 2025 18:32:54 GMT-0500 (Central Daylight Time),898072.9000000004,A,butto,O,o,212,1,1431.9000000003725,896641.0,7082,WL,A,13.0
5,39.62100005149841,learn,60000.0,Wed Mar 12 2025 18:32:54 GMT-0500 (Central Daylight Time),898340.0,A,button,O,n,252,1,1699.0,896641.0,7082,WL,A,13.0
5,40.00499987602234,learn,60000.0,Wed Mar 12 2025 18:32:54 GMT-0500 (Central Daylight Time),898723.7999999998,A,buttonenter,O,enter,367,1,2082.7999999998137,896641.0,7082,WL,A,13.0
5,40.57099986076355,learn,60000.0,Wed Mar 12 2025 18:32:54 GMT-0500 (Central Daylight Time),899289.4000000004,A,l,O,l,546,1,565.3000000007451,898724.0999999996,7082,WL,A,14.0
5,40.787999868392944,learn,60000.0,Wed Mar 12 2025 18:32:54 GMT-0500 (Central Daylight Time),899506.5999999996,A,lo,O,o,202,1,782.5,898724.0999999996,7082,WL,A,14.0
5,41.00499987602234,learn,60000.0,Wed Mar 12 2025 18:32:54 GMT-0500 (Central Daylight Time),899724.0,A,log,O,g,212,1,999.9000000003725,898724.0999999996,7082,WL,A,14.0
5,42.6029999256134,learn,60000.0,Wed Mar 12 2025 18:32:54 GMT-0500 (Central Daylight Time),901321.9000000004,A,logenter,O,enter,1584,1,2597.800000000745,898724.0999999996,7082,WL,A,14.0
5,54.01699995994568,learn,60000.0,Wed Mar 12 2025 18:32:54 GMT-0500 (Central Daylight Time),912735.7000000002,A,a,O,a,11395,1,11413.400000000373,901322.2999999998,7082,WL,A,15.0
5,54.56699991226196,learn,60000.0,Wed Mar 12 2025 18:32:54 GMT-0500 (Central Daylight Time),913285.9000000004,A,ap,O,p,526,1,11963.600000000559,901322.2999999998,7082,WL,A,15.0
5,54.73300004005432,learn,60000.0,Wed Mar 12 2025 18:32:54 GMT-0500 (Central Daylight Time),913452.2999999998,A,app,O,p,160,1,12130.0,901322.2999999998,7082,WL,A,15.0
5,55.01799988746643,learn,60000.0,Wed Mar 12 2025 18:32:54 GMT-0500 (Central Daylight Time),913736.5999999996,A,appl,O,l,269,1,12414.299999999814,901322.2999999998,7082,WL,A,15.0
5,55.134000062942505,learn,60000.0,Wed Mar 12 2025 18:32:54 GMT-0500 (Central Daylight Time),913853.2000000002,A,apple,O,e,106,1,12530.900000000373,901322.2999999998,7082,WL,A,15.0
5,55.48300004005432,learn,60000.0,Wed Mar 12 2025 18:32:54 GMT-0500 (Central Daylight Time),914201.5999999996,A,appleenter,O,enter,331,1,12879.299999999814,901322.2999999998,7082,WL,A,15.0
6,2.8999998569488525,distr,57100.00014305115,Wed Mar 12 2025 18:32:54 GMT-0500 (Central Daylight Time),988562.5999999996,B,j,O,j,2896,1,2900.0999999996275,985662.5,7082,WL,A,1.0
6,4.181999921798706,distr,55818.000078201294,Wed Mar 12 2025 18:32:54 GMT-0500 (Central Daylight Time),989844.2999999998,B,ju,O,u,1274,1,4181.799999999814,985662.5,7082,WL,A,1.0
6,4.948999881744385,distr,55051.000118255615,Wed Mar 12 2025 18:32:54 GMT-0500 (Central Daylight Time),990610.7999999998,B,jud,O,d,751,1,4948.299999999814,985662.5,7082,WL,A,1.0
6,5.182999849319458,distr,54817.00015068054,Wed Mar 12 2025 18:32:54 GMT-0500 (Central Daylight Time),990844.7999999998,B,judg,O,g,228,1,5182.299999999814,985662.5,7082,WL,A,1.0
6,5.415999889373779,distr,54584.00011062622,Wed Mar 12 2025 18:32:54 GMT-0500 (Central Daylight Time),991078.5,B,judge,O,e,215,1,5416.0,985662.5,7082,WL,A,1.0
6,6.115000009536743,distr,53884.99999046326,Wed Mar 12 2025 18:32:54 GMT-0500 (Central Daylight Time),991777.0,B,judgeenter,O,enter,676,1,6114.5,985662.5,7082,WL,A,1.0
6,6.765999794006348,distr,53234.00020599365,Wed Mar 12 2025 18:32:54 GMT-0500 (Central Daylight Time),992427.7999999998,B,b,O,b,645,1,650.5999999996275,991777.2000000002,7082,WL,A,2.0
6,7.0309998989105225,distr,52969.00010108948,Wed Mar 12 2025 18:32:54 GMT-0500 (Central Daylight Time),992692.7000000002,B,bw,O,w,247,1,915.5,991777.2000000002,7082,WL,A,2.0
6,7.2149999141693115,distr,52785.00008583069,Wed Mar 12 2025 18:32:54 GMT-0500 (Central Daylight Time),992877.0,B,bwo,O,o,168,1,1099.7999999998137,991777.2000000002,7082,WL,A,2.0
6,7.796999931335449,distr,52203.00006866455,Wed Mar 12 2025 18:32:54 GMT-0500 (Central Daylight Time),993459.4000000004,B,bw,O,backspace,567,1,1682.2000000001863,991777.2000000002,7082,WL,A,2.0
6,7.980999946594238,distr,52019.00005340576,Wed Mar 12 2025 18:32:54 GMT-0500 (Central Daylight Time),993642.7000000002,B,b,O,backspace,170,1,1865.5,991777.2000000002,7082,WL,A,2.0
6,8.365000009536743,distr,51634.99999046326,Wed Mar 12 2025 18:32:54 GMT-0500 (Central Daylight Time),994026.7999999998,B,bo,O,o,368,1,2249.5999999996275,991777.2000000002,7082,WL,A,2.0
6,9.163999795913696,distr,50836.000204086304,Wed Mar 12 2025 18:32:54 GMT-0500 (Central Daylight Time),994826.2999999998,B,bow,O,w,778,1,3049.0999999996275,991777.2000000002,7082,WL,A,2.0
6,9.382999897003174,distr,50617.000102996826,Wed Mar 12 2025 18:32:54 GMT-0500 (Central Daylight Time),995045.0,B,bowe,O,e,212,1,3267.7999999998137,991777.2000000002,7082,WL,A,2.0
6,9.88099980354309,distr,50119.00019645691,Wed Mar 12 2025 18:32:54 GMT-0500 (Central Daylight Time),995543.0999999996,B,bowel,O,l,478,1,3765.899999999441,991777.2000000002,7082,WL,A,2.0
6,10.513999938964844,distr,49486.000061035156,Wed Mar 12 2025 18:32:54 GMT-0500 (Central Daylight Time),996175.9000000004,B,bowelenter,O,enter,612,1,4398.700000000186,991777.2000000002,7082,WL,A,2.0
6,11.26199984550476,distr,48738.00015449524,Wed Mar 12 2025 18:32:54 GMT-0500 (Central Daylight Time),996924.5999999996,B,c,O,c,729,1,748.5,996176.0999999996,7082,WL,A,3.0
6,11.613999843597412,distr,48386.00015640259,Wed Mar 12 2025 18:32:54 GMT-0500 (Central Daylight Time),997276.0,B,co,O,o,347,1,1099.9000000003725,996176.0999999996,7082,WL,A,3.0
6,11.745999813079834,distr,48254.000186920166,Wed Mar 12 2025 18:32:54 GMT-0500 (Central Daylight Time),997407.7999999998,B,cou,O,u,111,1,1231.7000000001863,996176.0999999996,7082,WL,A,3.0
6,11.996999979019165,distr,48003.000020980835,Wed Mar 12 2025 18:32:54 GMT-0500 (Central Daylight Time),997658.7999999998,B,coun,O,n,234,1,1482.7000000001863,996176.0999999996,7082,WL,A,3.0
6,12.161999940872192,distr,47838.00005912781,Wed Mar 12 2025 18:32:54 GMT-0500 (Central Daylight Time),997824.5,B,count,O,t,145,1,1648.4000000003725,996176.0999999996,7082,WL,A,3.0
6,12.662999868392944,distr,47337.000131607056,Wed Mar 12 2025 18:32:54 GMT-0500 (Central Daylight Time),998325.2000000002,B,county,O,y,483,1,2149.100000000559,996176.0999999996,7082,WL,A,3.0
6,13.61299991607666,distr,46387.00008392334,Wed Mar 12 2025 18:32:54 GMT-0500 (Central Daylight Time),999274.7999999998,B,countyenter,O,enter,944,1,3098.7000000001863,996176.0999999996,7082,WL,A,3.0
6,16.694999933242798,distr,43305.0000667572,Wed Mar 12 2025 18:32:54 GMT-0500 (Central Daylight Time),1002357.4000000004,B,b,O,b,3066,1,3082.4000000003725,999275.0,7082,WL,A,4.0
6,18.375,distr,41625.0,Wed Mar 12 2025 18:32:54 GMT-0500 (Central Daylight Time),1004037.5,B,,O,backspace,1662,1,4762.5,999275.0,7082,WL,A,4.0
6,18.859999895095825,distr,41140.000104904175,Wed Mar 12 2025 18:32:54 GMT-0500 (Central Daylight Time),1004522.2999999998,B,i,O,i,464,1,5247.299999999814,999275.0,7082,WL,A,4.0
6,19.074999809265137,distr,40925.00019073486,Wed Mar 12 2025 18:32:54 GMT-0500 (Central Daylight Time),1004737.4000000004,B,is,O,s,196,1,5462.4000000003725,999275.0,7082,WL,A,4.0
6,20.05900001525879,distr,39940.99998474121,Wed Mar 12 2025 18:32:54 GMT-0500 (Central Daylight Time),1005721.2000000002,B,i,O,backspace,980,1,6446.200000000186,999275.0,7082,WL,A,4.0
6,20.742999792099,distr,39257.000207901,Wed Mar 12 2025 18:32:54 GMT-0500 (Central Daylight Time),1006405.5999999996,B,in,O,n,678,1,7130.5999999996275,999275.0,7082,WL,A,4.0
6,20.860999822616577,distr,39139.00017738342,Wed Mar 12 2025 18:32:54 GMT-0500 (Central Daylight Time),1006523.0,B,ins,O,s,96,1,7248.0,999275.0,7082,WL,A,4.0
6,21.043999910354614,distr,38956.000089645386,Wed Mar 12 2025 18:32:54 GMT-0500 (Central Daylight Time),1006706.2000000002,B,inse,O,e,168,1,7431.200000000186,999275.0,7082,WL,A,4.0
6,21.925999879837036,distr,38074.000120162964,Wed Mar 12 2025 18:32:54 GMT-0500 (Central Daylight Time),1007587.9000000004,B,insen,O,n,866,1,8312.900000000373,999275.0,7082,WL,A,4.0
6,22.525999784469604,distr,37474.000215530396,Wed Mar 12 2025 18:32:54 GMT-0500 (Central Daylight Time),1008188.2000000002,B,inse,O,backspace,585,1,8913.200000000186,999275.0,7082,WL,A,4.0
6,22.658999919891357,distr,37341.00008010864,Wed Mar 12 2025 18:32:54 GMT-0500 (Central Daylight Time),1008321.5,B,insec,O,c,120,1,9046.5,999275.0,7082,WL,A,4.0
6,22.893999814987183,distr,37106.00018501282,Wed Mar 12 2025 18:32:54 GMT-0500 (Central Daylight Time),1008555.7000000002,B,insect,O,t,228,1,9280.700000000186,999275.0,7082,WL,A,4.0
6,23.408999919891357,distr,36591.00008010864,Wed Mar 12 2025 18:32:54 GMT-0500 (Central Daylight Time),1009071.5999999996,B,insectenter,O,enter,504,1,9796.599999999627,999275.0,7082,WL,A,4.0
6,24.22499990463257,distr,35775.00009536743,Wed Mar 12 2025 18:32:54 GMT-0500 (Central Daylight Time),1009887.2999999998,B,p,O,p,804,1,815.2999999998137,1009072.0,7082,WL,A,5.0
6,24.45799994468689,distr,35542.00005531311,Wed Mar 12 2025 18:32:54 GMT-0500 (Central Daylight Time),1010120.5999999996,B,pl,O,l,221,1,1048.5999999996275,1009072.0,7082,WL,A,5.0
6,24.575999975204468,distr,35424.00002479553,Wed Mar 12 2025 18:32:54 GMT-0500 (Central Daylight Time),1010238.2000000002,B,pla,O,a,100,1,1166.2000000001863,1009072.0,7082,WL,A,5.0
6,25.40999984741211,distr,34590.00015258789,Wed Mar 12 2025 18:32:54 GMT-0500 (Central Daylight Time),1011072.2999999998,B,plan,O,n,823,1,2000.2999999998137,1009072.0,7082,WL,A,5.0
6,25.625999927520752,distr,34374.00007247925,Wed Mar 12 2025 18:32:54 GMT-0500 (Central Daylight Time),1011287.7999999998,B,plane,O,e,196,1,2215.7999999998137,1009072.0,7082,WL,A,5.0
6,26.29199981689453,distr,33708.00018310547,Wed Mar 12 2025 18:32:54 GMT-0500 (Central Daylight Time),1011954.7000000002,B,planeenter,O,enter,644,1,2882.7000000001863,1009072.0,7082,WL,A,5.0
6,42.4210000038147,distr,17578.999996185303,Wed Mar 12 2025 18:32:54 GMT-0500 (Central Daylight Time),1028083.2999999998,B,c,O,c,16115,1,16128.299999999814,1011955.0,7082,WL,A,6.0
6,42.603999853134155,distr,17396.000146865845,Wed Mar 12 2025 18:32:54 GMT-0500 (Central Daylight Time),1028266.0999999996,B,ch,O,h,161,1,16311.099999999627,1011955.0,7082,WL,A,6.0
6,43.25399994850159,distr,16746.000051498413,Wed Mar 12 2025 18:32:54 GMT-0500 (Central Daylight Time),1028915.9000000004,B,cha,O,a,633,1,16960.900000000373,1011955.0,7082,WL,A,6.0
6,43.38800001144409,distr,16611.99998855591,Wed Mar 12 2025 18:32:54 GMT-0500 (Central Daylight Time),1029049.7999999998,B,chai,O,i,118,1,17094.799999999814,1011955.0,7082,WL,A,6.0
6,43.72099995613098,distr,16279.000043869019,Wed Mar 12 2025 18:32:54 GMT-0500 (Central Daylight Time),1029382.9000000004,B,chair,O,r,309,1,17427.900000000373,1011955.0,7082,WL,A,6.0
6,44.00499987602234,distr,15995.000123977661,Wed Mar 12 2025 18:32:54 GMT-0500 (Central Daylight Time),1029666.7000000002,B,chairenter,O,enter,276,1,17711.700000000186,1011955.0,7082,WL,A,6.0
6,60.014999866485596,distr,-14.999866485595703,Wed Mar 12 2025 18:32:54 GMT-0500 (Central Daylight Time),1045677.5999999996,B,None,O,None,16005,1,16010.599999999627,1029667.0,7082,WL,A,7.0
7,0.9330000877380371,immed,59066.99991226196,Wed Mar 12 2025 18:32:54 GMT-0500 (Central Daylight Time),1057606.7999999998,A,b,O,b,915,1,933.5,1056673.2999999998,7082,WL,A,1.0
7,1.2160000801086426,immed,58783.99991989136,Wed Mar 12 2025 18:32:54 GMT-0500 (Central Daylight Time),1057889.9000000004,A,bo,O,o,270,1,1216.6000000005588,1056673.2999999998,7082,WL,A,1.0
7,1.3829998970031738,immed,58617.000102996826,Wed Mar 12 2025 18:32:54 GMT-0500 (Central Daylight Time),1058056.7000000002,A,boo,O,o,153,1,1383.4000000003725,1056673.2999999998,7082,WL,A,1.0
7,1.933000087738037,immed,58066.99991226196,Wed Mar 12 2025 18:32:54 GMT-0500 (Central Daylight Time),1058606.2999999998,A,book,O,k,531,1,1933.0,1056673.2999999998,7082,WL,A,1.0
7,2.4489998817443848,immed,57551.000118255615,Wed Mar 12 2025 18:32:54 GMT-0500 (Central Daylight Time),1059122.7000000002,A,bookenter,O,enter,503,1,2449.4000000003725,1056673.2999999998,7082,WL,A,1.0
7,3.052000045776367,immed,56947.99995422363,Wed Mar 12 2025 18:32:54 GMT-0500 (Central Daylight Time),1059725.2999999998,A,f,O,f,585,1,602.5,1059122.7999999998,7082,WL,A,2.0
7,3.1659998893737793,immed,56834.00011062622,Wed Mar 12 2025 18:32:54 GMT-0500 (Central Daylight Time),1059839.4000000004,A,fl,O,l,105,1,716.6000000005588,1059122.7999999998,7082,WL,A,2.0
7,3.4140000343322754,immed,56585.999965667725,Wed Mar 12 2025 18:32:54 GMT-0500 (Central Daylight Time),1060087.7000000002,A,flo,O,o,227,1,964.9000000003725,1059122.7999999998,7082,WL,A,2.0
7,3.5320000648498535,immed,56467.99993515015,Wed Mar 12 2025 18:32:54 GMT-0500 (Central Daylight Time),1060206.0999999996,A,flow,O,w,95,1,1083.2999999998137,1059122.7999999998,7082,WL,A,2.0
7,3.746999979019165,immed,56253.000020980835,Wed Mar 12 2025 18:32:54 GMT-0500 (Central Daylight Time),1060420.9000000004,A,flowe,O,e,204,1,1298.1000000005588,1059122.7999999998,7082,WL,A,2.0
7,4.381999969482422,immed,55618.00003051758,Wed Mar 12 2025 18:32:54 GMT-0500 (Central Daylight Time),1061055.0,A,flower,O,r,621,1,1932.2000000001863,1059122.7999999998,7082,WL,A,2.0
7,4.698999881744385,immed,55301.000118255615,Wed Mar 12 2025 18:32:54 GMT-0500 (Central Daylight Time),1061372.7999999998,A,flowerenter,O,enter,309,1,2250.0,1059122.7999999998,7082,WL,A,2.0
7,5.648000001907349,immed,54351.99999809265,Wed Mar 12 2025 18:32:54 GMT-0500 (Central Daylight Time),1062321.0,A,t,O,t,936,1,948.0,1061373.0,7082,WL,A,3.0
7,5.832000017166138,immed,54167.99998283386,Wed Mar 12 2025 18:32:54 GMT-0500 (Central Daylight Time),1062505.4000000004,A,tr,O,r,162,1,1132.4000000003725,1061373.0,7082,WL,A,3.0
7,5.997999906539917,immed,54002.00009346008,Wed Mar 12 2025 18:32:54 GMT-0500 (Central Daylight Time),1062671.0,A,tra,O,a,155,1,1298.0,1061373.0,7082,WL,A,3.0
7,6.565000057220459,immed,53434.99994277954,Wed Mar 12 2025 18:32:54 GMT-0500 (Central Daylight Time),1063238.5,A,trai,O,i,549,1,1865.5,1061373.0,7082,WL,A,3.0
7,6.846999883651733,immed,53153.00011634827,Wed Mar 12 2025 18:32:54 GMT-0500 (Central Daylight Time),1063520.0999999996,A,train,O,n,261,1,2147.0999999996275,1061373.0,7082,WL,A,3.0
7,7.230000019073486,immed,52769.999980926514,Wed Mar 12 2025 18:32:54 GMT-0500 (Central Daylight Time),1063903.2999999998,A,trainenter,O,enter,362,1,2530.2999999998137,1061373.0,7082,WL,A,3.0
7,8.045000076293945,immed,51954.999923706055,Wed Mar 12 2025 18:32:54 GMT-0500 (Central Daylight Time),1064718.2000000002,A,m,O,m,804,1,814.7000000001863,1063903.5,7082,WL,A,4.0
7,8.162999868392944,immed,51837.000131607056,Wed Mar 12 2025 18:32:54 GMT-0500 (Central Daylight Time),1064836.5,A,me,O,e,103,1,933.0,1063903.5,7082,WL,A,4.0
7,8.29800009727478,immed,51701.99990272522,Wed Mar 12 2025 18:32:54 GMT-0500 (Central Daylight Time),1064971.4000000004,A,mea,O,a,128,1,1067.9000000003725,1063903.5,7082,WL,A,4.0
7,8.581000089645386,immed,51418.999910354614,Wed Mar 12 2025 18:32:54 GMT-0500 (Central Daylight Time),1065254.5,A,mead,O,d,265,1,1351.0,1063903.5,7082,WL,A,4.0
7,8.71399998664856,immed,51286.00001335144,Wed Mar 12 2025 18:32:54 GMT-0500 (Central Daylight Time),1065388.0,A,meado,O,o,127,1,1484.5,1063903.5,7082,WL,A,4.0
7,9.19599986076355,immed,50804.00013923645,Wed Mar 12 2025 18:32:54 GMT-0500 (Central Daylight Time),1065869.2000000002,A,meadow,O,w,473,1,1965.7000000001863,1063903.5,7082,WL,A,4.0
7,9.513000011444092,immed,50486.99998855591,Wed Mar 12 2025 18:32:54 GMT-0500 (Central Daylight Time),1066186.5999999996,A,meadowenter,O,enter,311,1,2283.0999999996275,1063903.5,7082,WL,A,4.0
7,10.19700002670288,immed,49802.99997329712,Wed Mar 12 2025 18:32:54 GMT-0500 (Central Daylight Time),1066870.7999999998,A,r,O,r,665,1,683.5999999996275,1066187.2000000002,7082,WL,A,5.0
7,10.397000074386597,immed,49602.9999256134,Wed Mar 12 2025 18:32:54 GMT-0500 (Central Daylight Time),1067070.4000000004,A,ru,O,u,180,1,883.2000000001863,1066187.2000000002,7082,WL,A,5.0
7,10.980000019073486,immed,49019.999980926514,Wed Mar 12 2025 18:32:54 GMT-0500 (Central Daylight Time),1067653.7000000002,A,rug,O,g,567,1,1466.5,1066187.2000000002,7082,WL,A,5.0
7,11.29699993133545,immed,48703.00006866455,Wed Mar 12 2025 18:32:54 GMT-0500 (Central Daylight Time),1067970.2999999998,A,rugenter,O,enter,302,1,1783.0999999996275,1066187.2000000002,7082,WL,A,5.0
7,12.096999883651733,immed,47903.00011634827,Wed Mar 12 2025 18:32:54 GMT-0500 (Central Daylight Time),1068770.2999999998,A,s,O,s,779,1,799.7000000001863,1067970.5999999996,7082,WL,A,6.0
7,12.312999963760376,immed,47687.000036239624,Wed Mar 12 2025 18:32:54 GMT-0500 (Central Daylight Time),1068986.7000000002,A,sa,O,a,202,1,1016.1000000005588,1067970.5999999996,7082,WL,A,6.0
7,12.44599986076355,immed,47554.00013923645,Wed Mar 12 2025 18:32:54 GMT-0500 (Central Daylight Time),1069119.0999999996,A,sal,O,l,121,1,1148.5,1067970.5999999996,7082,WL,A,6.0
7,12.94700002670288,immed,47052.99997329712,Wed Mar 12 2025 18:32:54 GMT-0500 (Central Daylight Time),1069620.2999999998,A,salt,O,t,495,1,1649.7000000001863,1067970.5999999996,7082,WL,A,6.0
7,13.412999868392944,immed,46587.000131607056,Wed Mar 12 2025 18:32:54 GMT-0500 (Central Daylight Time),1070086.0999999996,A,saltenter,O,enter,456,1,2115.5,1067970.5999999996,7082,WL,A,6.0
7,14.328999996185303,immed,45671.0000038147,Wed Mar 12 2025 18:32:54 GMT-0500 (Central Daylight Time),1071002.4000000004,A,a,O,a,912,1,916.0,1070086.4000000004,7082,WL,A,7.0
7,14.579999923706055,immed,45420.000076293945,Wed Mar 12 2025 18:32:54 GMT-0500 (Central Daylight Time),1071253.2000000002,A,ap,O,p,245,1,1166.7999999998137,1070086.4000000004,7082,WL,A,7.0
7,14.729000091552734,immed,45270.999908447266,Wed Mar 12 2025 18:32:54 GMT-0500 (Central Daylight Time),1071402.0,A,app,O,p,135,1,1315.5999999996275,1070086.4000000004,7082,WL,A,7.0
7,14.977999925613403,immed,45022.0000743866,Wed Mar 12 2025 18:32:54 GMT-0500 (Central Daylight Time),1071651.5999999996,A,appl,O,l,234,1,1565.199999999255,1070086.4000000004,7082,WL,A,7.0
7,15.078999996185303,immed,44921.0000038147,Wed Mar 12 2025 18:32:54 GMT-0500 (Central Daylight Time),1071752.5,A,apple,O,e,88,1,1666.0999999996275,1070086.4000000004,7082,WL,A,7.0
7,16.312999963760376,immed,43687.000036239624,Wed Mar 12 2025 18:32:54 GMT-0500 (Central Daylight Time),1072986.2000000002,A,appleenter,O,enter,1227,1,2899.7999999998137,1070086.4000000004,7082,WL,A,7.0
7,18.627000093460083,immed,41372.99990653992,Wed Mar 12 2025 18:32:54 GMT-0500 (Central Daylight Time),1075300.4000000004,A,b,O,b,2308,1,2313.9000000003725,1072986.5,7082,WL,A,8.0
7,18.89400005340576,immed,41105.99994659424,Wed Mar 12 2025 18:32:54 GMT-0500 (Central Daylight Time),1075567.4000000004,A,bu,O,u,256,1,2580.9000000003725,1072986.5,7082,WL,A,8.0
7,19.16100001335144,immed,40838.99998664856,Wed Mar 12 2025 18:32:54 GMT-0500 (Central Daylight Time),1075834.5,A,but,O,t,260,1,2848.0,1072986.5,7082,WL,A,8.0
7,19.328999996185303,immed,40671.0000038147,Wed Mar 12 2025 18:32:54 GMT-0500 (Central Daylight Time),1076002.2999999998,A,butt,O,t,161,1,3015.7999999998137,1072986.5,7082,WL,A,8.0
7,19.59599995613098,immed,40404.00004386902,Wed Mar 12 2025 18:32:54 GMT-0500 (Central Daylight Time),1076269.0999999996,A,butto,O,o,261,1,3282.5999999996275,1072986.5,7082,WL,A,8.0
7,19.994999885559082,immed,40005.00011444092,Wed Mar 12 2025 18:32:54 GMT-0500 (Central Daylight Time),1076668.5,A,button,O,n,392,1,3682.0,1072986.5,7082,WL,A,8.0
7,20.658999919891357,immed,39341.00008010864,Wed Mar 12 2025 18:32:54 GMT-0500 (Central Daylight Time),1077332.2000000002,A,buttonenter,O,enter,646,1,4345.700000000186,1072986.5,7082,WL,A,8.0
7,22.075999975204468,immed,37924.00002479553,Wed Mar 12 2025 18:32:54 GMT-0500 (Central Daylight Time),1078749.2000000002,A,r,O,r,1396,1,1416.7000000001863,1077332.5,7082,WL,A,9.0
7,22.24399995803833,immed,37756.00004196167,Wed Mar 12 2025 18:32:54 GMT-0500 (Central Daylight Time),1078917.5999999996,A,ra,O,a,152,1,1585.0999999996275,1077332.5,7082,WL,A,9.0
7,22.542999982833862,immed,37457.00001716614,Wed Mar 12 2025 18:32:54 GMT-0500 (Central Daylight Time),1079216.2000000002,A,rat,O,t,278,1,1883.7000000001863,1077332.5,7082,WL,A,9.0
7,22.70799994468689,immed,37292.00005531311,Wed Mar 12 2025 18:32:54 GMT-0500 (Central Daylight Time),1079381.9000000004,A,ratt,O,t,156,1,2049.4000000003725,1077332.5,7082,WL,A,9.0
7,23.325000047683716,immed,36674.999952316284,Wed Mar 12 2025 18:32:54 GMT-0500 (Central Daylight Time),1079998.5999999996,A,rattl,O,l,607,1,2666.0999999996275,1077332.5,7082,WL,A,9.0
7,23.443000078201294,immed,36556.999921798706,Wed Mar 12 2025 18:32:54 GMT-0500 (Central Daylight Time),1080116.5,A,rattle,O,e,95,1,2784.0,1077332.5,7082,WL,A,9.0
7,24.29200005531311,immed,35707.99994468689,Wed Mar 12 2025 18:32:54 GMT-0500 (Central Daylight Time),1080965.7999999998,A,rattleenter,O,enter,838,1,3633.2999999998137,1077332.5,7082,WL,A,9.0
7,24.941999912261963,immed,35058.00008773804,Wed Mar 12 2025 18:32:54 GMT-0500 (Central Daylight Time),1081615.2000000002,A,l,O,l,630,1,649.1000000005588,1080966.0999999996,7082,WL,A,10.0
7,25.157999992370605,immed,34842.000007629395,Wed Mar 12 2025 18:32:54 GMT-0500 (Central Daylight Time),1081831.7000000002,A,lo,O,o,196,1,865.6000000005588,1080966.0999999996,7082,WL,A,10.0
7,25.39199995994568,immed,34608.00004005432,Wed Mar 12 2025 18:32:54 GMT-0500 (Central Daylight Time),1082065.9000000004,A,log,O,g,213,1,1099.800000000745,1080966.0999999996,7082,WL,A,10.0
7,26.95899987220764,immed,33041.00012779236,Wed Mar 12 2025 18:32:54 GMT-0500 (Central Daylight Time),1083632.7000000002,A,logenter,O,enter,1546,1,2666.600000000559,1080966.0999999996,7082,WL,A,10.0
7,27.573999881744385,immed,32426.000118255615,Wed Mar 12 2025 18:32:54 GMT-0500 (Central Daylight Time),1084247.9000000004,A,h,O,h,604,1,615.0,1083632.9000000004,7082,WL,A,11.0
7,27.79200005531311,immed,32207.99994468689,Wed Mar 12 2025 18:32:54 GMT-0500 (Central Daylight Time),1084465.2999999998,A,ha,O,a,204,1,832.3999999994412,1083632.9000000004,7082,WL,A,11.0
7,27.973000049591064,immed,32026.999950408936,Wed Mar 12 2025 18:32:54 GMT-0500 (Central Daylight Time),1084646.7999999998,A,hap,O,p,172,1,1013.8999999994412,1083632.9000000004,7082,WL,A,11.0
7,28.707000017166138,immed,31292.999982833862,Wed Mar 12 2025 18:32:54 GMT-0500 (Central Daylight Time),1085380.7000000002,A,ha,O,backspace,719,1,1747.7999999998137,1083632.9000000004,7082,WL,A,11.0
7,29.19000005722046,immed,30809.99994277954,Wed Mar 12 2025 18:32:54 GMT-0500 (Central Daylight Time),1085863.9000000004,A,har,O,r,471,1,2231.0,1083632.9000000004,7082,WL,A,11.0
7,29.391000032424927,immed,30608.999967575073,Wed Mar 12 2025 18:32:54 GMT-0500 (Central Daylight Time),1086064.0,A,harp,O,p,180,1,2431.0999999996275,1083632.9000000004,7082,WL,A,11.0
7,29.822999954223633,immed,30177.000045776367,Wed Mar 12 2025 18:32:54 GMT-0500 (Central Daylight Time),1086496.7999999998,A,harpenter,O,enter,411,1,2863.899999999441,1083632.9000000004,7082,WL,A,11.0
7,30.45799994468689,immed,29542.00005531311,Wed Mar 12 2025 18:32:54 GMT-0500 (Central Daylight Time),1087131.4000000004,A,k,O,k,629,1,634.3000000007451,1086497.0999999996,7082,WL,A,12.0
7,30.655999898910522,immed,29344.000101089478,Wed Mar 12 2025 18:32:54 GMT-0500 (Central Daylight Time),1087329.7999999998,A,ke,O,e,176,1,832.7000000001863,1086497.0999999996,7082,WL,A,12.0
7,30.990000009536743,immed,29009.999990463257,Wed Mar 12 2025 18:32:54 GMT-0500 (Central Daylight Time),1087663.7000000002,A,key,O,y,314,1,1166.6000000005588,1086497.0999999996,7082,WL,A,12.0
7,33.871999979019165,immed,26128.000020980835,Wed Mar 12 2025 18:32:54 GMT-0500 (Central Daylight Time),1090545.4000000004,A,keyenter,O,enter,2860,1,4048.300000000745,1086497.0999999996,7082,WL,A,12.0
7,34.63800001144409,immed,25361.99998855591,Wed Mar 12 2025 18:32:54 GMT-0500 (Central Daylight Time),1091311.5999999996,A,a,O,a,746,1,765.8999999994412,1090545.7000000002,7082,WL,A,13.0
7,34.87299990653992,immed,25127.000093460083,Wed Mar 12 2025 18:32:54 GMT-0500 (Central Daylight Time),1091546.7999999998,A,ap,O,p,229,1,1001.0999999996275,1090545.7000000002,7082,WL,A,13.0
7,35.05399990081787,immed,24946.00009918213,Wed Mar 12 2025 18:32:54 GMT-0500 (Central Daylight Time),1091727.9000000004,A,app,O,p,169,1,1182.2000000001863,1090545.7000000002,7082,WL,A,13.0
7,35.32299995422363,immed,24677.000045776367,Wed Mar 12 2025 18:32:54 GMT-0500 (Central Daylight Time),1091996.9000000004,A,appl,O,l,263,1,1451.2000000001863,1090545.7000000002,7082,WL,A,13.0
7,35.47199988365173,immed,24528.000116348267,Wed Mar 12 2025 18:32:54 GMT-0500 (Central Daylight Time),1092145.5999999996,A,apple,O,e,127,1,1599.8999999994412,1090545.7000000002,7082,WL,A,13.0
7,36.00600004196167,immed,23993.99995803833,Wed Mar 12 2025 18:32:54 GMT-0500 (Central Daylight Time),1092678.9000000004,A,appleenter,O,enter,523,1,2133.2000000001863,1090545.7000000002,7082,WL,A,13.0
7,42.30299997329712,immed,17697.00002670288,Wed Mar 12 2025 18:32:54 GMT-0500 (Central Daylight Time),1098976.7999999998,A,g,O,g,6285,1,6297.5999999996275,1092679.2000000002,7082,WL,A,14.0
7,42.45300006866455,immed,17546.99993133545,Wed Mar 12 2025 18:32:54 GMT-0500 (Central Daylight Time),1099126.7999999998,A,go,O,o,139,1,6447.5999999996275,1092679.2000000002,7082,WL,A,14.0
7,42.68599987030029,immed,17314.000129699707,Wed Mar 12 2025 18:32:54 GMT-0500 (Central Daylight Time),1099360.0,A,gol,O,l,212,1,6680.799999999814,1092679.2000000002,7082,WL,A,14.0
7,42.835999965667725,immed,17164.000034332275,Wed Mar 12 2025 18:32:54 GMT-0500 (Central Daylight Time),1099509.7000000002,A,gold,O,d,140,1,6830.5,1092679.2000000002,7082,WL,A,14.0
7,43.13599991798401,immed,16864.00008201599,Wed Mar 12 2025 18:32:54 GMT-0500 (Central Daylight Time),1099809.7999999998,A,goldenter,O,enter,286,1,7130.5999999996275,1092679.2000000002,7082,WL,A,14.0
7,52.1489999294281,immed,7851.000070571899,Wed Mar 12 2025 18:32:54 GMT-0500 (Central Daylight Time),1108823.0,A,c,O,c,9005,1,9012.900000000373,1099810.0999999996,7082,WL,A,15.0
7,52.31500005722046,immed,7684.999942779541,Wed Mar 12 2025 18:32:54 GMT-0500 (Central Daylight Time),1108989.0999999996,A,ch,O,h,150,1,9179.0,1099810.0999999996,7082,WL,A,15.0
7,52.49900007247925,immed,7500.999927520752,Wed Mar 12 2025 18:32:54 GMT-0500 (Central Daylight Time),1109172.5999999996,A,chi,O,i,165,1,9362.5,1099810.0999999996,7082,WL,A,15.0
7,52.78200006484985,immed,7217.9999351501465,Wed Mar 12 2025 18:32:54 GMT-0500 (Central Daylight Time),1109455.7000000002,A,chin,O,n,263,1,9645.600000000559,1099810.0999999996,7082,WL,A,15.0
7,53.48399996757507,immed,6516.000032424927,Wed Mar 12 2025 18:32:54 GMT-0500 (Central Daylight Time),1110157.4000000004,A,chi,O,backspace,685,1,10347.300000000745,1099810.0999999996,7082,WL,A,15.0
7,53.94799995422363,immed,6052.000045776367,Wed Mar 12 2025 18:32:54 GMT-0500 (Central Daylight Time),1110621.5999999996,A,chim,O,m,445,1,10811.5,1099810.0999999996,7082,WL,A,15.0
7,54.59999990463257,immed,5400.000095367432,Wed Mar 12 2025 18:32:54 GMT-0500 (Central Daylight Time),1111273.7999999998,A,chimn,O,n,639,1,11463.700000000186,1099810.0999999996,7082,WL,A,15.0
7,55.33200001716614,immed,4667.999982833862,Wed Mar 12 2025 18:32:54 GMT-0500 (Central Daylight Time),1112005.9000000004,A,chimne,O,e,715,1,12195.800000000745,1099810.0999999996,7082,WL,A,15.0
7,55.49900007247925,immed,4500.999927520752,Wed Mar 12 2025 18:32:54 GMT-0500 (Central Daylight Time),1112173.0999999996,A,chimney,O,y,162,1,12363.0,1099810.0999999996,7082,WL,A,15.0
7,56.78099989891052,immed,3219.0001010894775,Wed Mar 12 2025 18:32:54 GMT-0500 (Central Daylight Time),1113454.5999999996,A,chimneyenter,O,enter,1270,1,13644.5,1099810.0999999996,7082,WL,A,15.0
