Number,acc_sum,block,block_c,block_cond,con_img,correct,correct_response,datetime,endtime,jitter,project,response,response_time,row_sel,session_number,start_end,starttime,subject_id,task,task_vers,trial
7,0,prac,1,A,circle.png,0,m,Wed Oct 02 2024 11:11:42 GMT-0500 (Central Daylight Time),48827.700000047684,1700,O,None,1516,6,1,3989.9000000953674,44837.799999952316,7023,NTS,A,1
6,1,prac,1,A,circle.png,1,m,Wed Oct 02 2024 11:11:42 GMT-0500 (Central Daylight Time),52626.60000002384,1900,O,m,1097,5,1,3769.5,48857.10000002384,7023,NTS,A,2
7,2,prac,1,A,circle.png,1,m,Wed Oct 02 2024 11:11:42 GMT-0500 (Central Daylight Time),56175.10000002384,1700,O,m,1032,6,1,3527.899999976158,52647.200000047684,7023,NTS,A,3
4,3,prac,1,A,circle.png,1,z,Wed Oct 02 2024 11:11:42 GMT-0500 (Central Daylight Time),59206.799999952316,1400,O,z,817,4,1,3016.399999976158,56190.39999997616,7023,NTS,A,4
9,4,prac,1,A,circle.png,1,m,Wed Oct 02 2024 11:11:42 GMT-0500 (Central Daylight Time),62256.5,1500,O,m,750,8,1,3041.7000000476837,59214.799999952316,7023,NTS,A,5
4,5,prac,1,A,circle.png,1,z,Wed Oct 02 2024 11:11:42 GMT-0500 (Central Daylight Time),65005.60000002384,1400,O,z,537,4,1,2722.3000000715256,62283.299999952316,7023,NTS,A,6
2,6,prac,1,A,circle.png,1,z,Wed Oct 02 2024 11:11:42 GMT-0500 (Central Daylight Time),68621.0,2000,O,z,812,2,1,3591.899999976158,65029.10000002384,7023,NTS,A,7
8,7,prac,1,A,circle.png,1,m,Wed Oct 02 2024 11:11:42 GMT-0500 (Central Daylight Time),71720.0,1600,O,m,709,7,1,3085.2000000476837,68634.79999995232,7023,NTS,A,8
1,8,prac,1,A,circle.png,1,z,Wed Oct 02 2024 11:11:42 GMT-0500 (Central Daylight Time),74135.20000004768,1000,O,z,601,1,1,2388.5,71746.70000004768,7023,NTS,A,9
2,9,prac,1,A,circle.png,1,z,Wed Oct 02 2024 11:11:42 GMT-0500 (Central Daylight Time),77601.39999997616,2000,O,z,665,2,1,3459.5,74141.89999997616,7023,NTS,A,10
1,10,prac,1,A,circle.png,1,z,Wed Oct 02 2024 11:11:42 GMT-0500 (Central Daylight Time),80000.79999995232,1000,O,z,591,1,1,2373.1999999284744,77627.60000002384,7023,NTS,A,11
3,11,prac,1,A,circle.png,1,z,Wed Oct 02 2024 11:11:42 GMT-0500 (Central Daylight Time),82533.10000002384,1200,O,z,521,3,1,2505.899999976158,80027.20000004768,7023,NTS,A,12
3,0,prac,1,B,triangle.png,0,z,Wed Oct 02 2024 11:11:42 GMT-0500 (Central Daylight Time),110323.79999995232,1600,O,None,1514,3,1,3894.7999999523163,106429.0,7023,NTS,A,1
6,1,prac,1,B,triangle.png,1,m,Wed Oct 02 2024 11:11:42 GMT-0500 (Central Daylight Time),113106.39999997616,1000,O,m,999,5,1,2768.1999999284744,110338.20000004768,7023,NTS,A,2
7,2,prac,1,B,triangle.png,1,z,Wed Oct 02 2024 11:11:42 GMT-0500 (Central Daylight Time),117188.39999997616,2000,O,z,1272,6,1,4056.399999976158,113132.0,7023,NTS,A,3
7,2,prac,1,B,triangle.png,0,z,Wed Oct 02 2024 11:11:42 GMT-0500 (Central Daylight Time),121503.5,2000,O,None,1515,6,1,4290.100000023842,117213.39999997616,7023,NTS,A,4
9,3,prac,1,B,triangle.png,1,z,Wed Oct 02 2024 11:11:42 GMT-0500 (Central Daylight Time),124869.20000004768,1400,O,z,1163,8,1,3339.100000023842,121530.10000002384,7023,NTS,A,5
2,4,prac,1,B,triangle.png,1,m,Wed Oct 02 2024 11:11:42 GMT-0500 (Central Daylight Time),128184.79999995232,1700,O,m,800,2,1,3289.7999999523163,124895.0,7023,NTS,A,6
3,5,prac,1,B,triangle.png,1,z,Wed Oct 02 2024 11:11:42 GMT-0500 (Central Daylight Time),131400.39999997616,1600,O,z,809,3,1,3193.2999999523163,128207.10000002384,7023,NTS,A,7
8,6,prac,1,B,triangle.png,1,m,Wed Oct 02 2024 11:11:42 GMT-0500 (Central Daylight Time),134249.5,1200,O,m,842,7,1,2828.7000000476837,131420.79999995232,7023,NTS,A,8
6,7,prac,1,B,triangle.png,1,m,Wed Oct 02 2024 11:11:42 GMT-0500 (Central Daylight Time),136782.0,1000,O,m,720,5,1,2512.0,134270.0,7023,NTS,A,9
4,8,prac,1,B,triangle.png,1,m,Wed Oct 02 2024 11:11:42 GMT-0500 (Central Daylight Time),140464.10000002384,1500,O,m,1376,4,1,3653.3000000715256,136810.79999995232,7023,NTS,A,10
8,9,prac,1,B,triangle.png,1,m,Wed Oct 02 2024 11:11:42 GMT-0500 (Central Daylight Time),143129.89999997616,1200,O,m,658,7,1,2640.0,140489.89999997616,7023,NTS,A,11
1,10,prac,1,B,triangle.png,1,z,Wed Oct 02 2024 11:11:42 GMT-0500 (Central Daylight Time),146795.39999997616,1900,O,z,957,1,1,3646.100000023842,143149.29999995232,7023,NTS,A,12
9,1,test,1,A,circle.png,1,m,Wed Oct 02 2024 11:11:42 GMT-0500 (Central Daylight Time),167372.0,1500,O,m,872,8,1,2391.2000000476837,164980.79999995232,7023,NTS,A,1
7,2,test,1,A,circle.png,1,m,Wed Oct 02 2024 11:11:42 GMT-0500 (Central Daylight Time),169887.89999997616,1700,O,m,778,6,1,2497.100000023842,167390.79999995232,7023,NTS,A,2
3,3,test,1,A,circle.png,1,z,Wed Oct 02 2024 11:11:42 GMT-0500 (Central Daylight Time),171820.29999995232,1200,O,z,690,3,1,1914.7999999523163,169905.5,7023,NTS,A,3
6,4,test,1,A,circle.png,1,m,Wed Oct 02 2024 11:11:42 GMT-0500 (Central Daylight Time),174502.89999997616,1900,O,m,735,5,1,2664.399999976158,171838.5,7023,NTS,A,4
7,5,test,1,A,circle.png,1,m,Wed Oct 02 2024 11:11:42 GMT-0500 (Central Daylight Time),177535.10000002384,1700,O,m,1286,6,1,3014.3000000715256,174520.79999995232,7023,NTS,A,5
6,6,test,1,A,circle.png,1,m,Wed Oct 02 2024 11:11:42 GMT-0500 (Central Daylight Time),180150.89999997616,1900,O,m,677,5,1,2598.1999999284744,177552.70000004768,7023,NTS,A,6
3,7,test,1,A,circle.png,1,z,Wed Oct 02 2024 11:11:42 GMT-0500 (Central Daylight Time),181950.29999995232,1200,O,z,562,3,1,1783.8999999761581,180166.39999997616,7023,NTS,A,7
8,8,test,1,A,circle.png,1,m,Wed Oct 02 2024 11:11:42 GMT-0500 (Central Daylight Time),184099.60000002384,1600,O,m,507,7,1,2133.399999976158,181966.20000004768,7023,NTS,A,8
4,9,test,1,A,circle.png,1,z,Wed Oct 02 2024 11:11:42 GMT-0500 (Central Daylight Time),186082.39999997616,1400,O,z,542,4,1,1965.8999999761581,184116.5,7023,NTS,A,9
8,10,test,1,A,circle.png,1,m,Wed Oct 02 2024 11:11:42 GMT-0500 (Central Daylight Time),188248.39999997616,1600,O,m,519,7,1,2148.600000023842,186099.79999995232,7023,NTS,A,10
6,11,test,1,A,circle.png,1,m,Wed Oct 02 2024 11:11:42 GMT-0500 (Central Daylight Time),190764.20000004768,1900,O,m,572,5,1,2498.8000000715256,188265.39999997616,7023,NTS,A,11
1,12,test,1,A,circle.png,1,z,Wed Oct 02 2024 11:11:42 GMT-0500 (Central Daylight Time),192413.60000002384,1000,O,z,613,1,1,1632.1000000238419,190781.5,7023,NTS,A,12
9,13,test,1,A,circle.png,1,m,Wed Oct 02 2024 11:11:42 GMT-0500 (Central Daylight Time),194479.60000002384,1500,O,m,519,8,1,2048.8000000715256,192430.79999995232,7023,NTS,A,13
1,14,test,1,A,circle.png,1,z,Wed Oct 02 2024 11:11:42 GMT-0500 (Central Daylight Time),196112.29999995232,1000,O,z,586,1,1,1615.1999999284744,194497.10000002384,7023,NTS,A,14
4,15,test,1,A,circle.png,1,z,Wed Oct 02 2024 11:11:42 GMT-0500 (Central Daylight Time),198195.20000004768,1400,O,z,640,4,1,2064.600000023842,196130.60000002384,7023,NTS,A,15
8,16,test,1,A,circle.png,1,m,Wed Oct 02 2024 11:11:42 GMT-0500 (Central Daylight Time),200344.39999997616,1600,O,m,510,7,1,2131.600000023842,198212.79999995232,7023,NTS,A,16
4,17,test,1,A,circle.png,1,z,Wed Oct 02 2024 11:11:42 GMT-0500 (Central Daylight Time),202293.60000002384,1400,O,z,505,4,1,1930.5,200363.10000002384,7023,NTS,A,17
2,18,test,1,A,circle.png,1,z,Wed Oct 02 2024 11:11:42 GMT-0500 (Central Daylight Time),204859.60000002384,2000,O,z,516,2,1,2548.3000000715256,202311.29999995232,7023,NTS,A,18
1,19,test,1,A,circle.png,1,z,Wed Oct 02 2024 11:11:42 GMT-0500 (Central Daylight Time),206409.10000002384,1000,O,z,502,1,1,1531.8999999761581,204877.20000004768,7023,NTS,A,19
7,20,test,1,A,circle.png,1,m,Wed Oct 02 2024 11:11:42 GMT-0500 (Central Daylight Time),208708.29999995232,1700,O,m,557,6,1,2282.2999999523163,206426.0,7023,NTS,A,20
2,21,test,1,A,circle.png,1,z,Wed Oct 02 2024 11:11:42 GMT-0500 (Central Daylight Time),211324.60000002384,2000,O,z,581,2,1,2599.2000000476837,208725.39999997616,7023,NTS,A,21
6,22,test,1,A,circle.png,1,m,Wed Oct 02 2024 11:11:42 GMT-0500 (Central Daylight Time),213723.10000002384,1900,O,m,466,5,1,2384.7000000476837,211338.39999997616,7023,NTS,A,22
9,23,test,1,A,circle.png,1,m,Wed Oct 02 2024 11:11:42 GMT-0500 (Central Daylight Time),215739.29999995232,1500,O,m,473,8,1,1990.5,213748.79999995232,7023,NTS,A,23
2,24,test,1,A,circle.png,1,z,Wed Oct 02 2024 11:11:42 GMT-0500 (Central Daylight Time),218238.5,2000,O,z,454,2,1,2482.600000023842,215755.89999997616,7023,NTS,A,24
9,1,test,1,B,triangle.png,1,z,Wed Oct 02 2024 11:11:42 GMT-0500 (Central Daylight Time),230401.0,1400,O,z,927,8,1,2349.7000000476837,228051.29999995232,7023,NTS,A,1
9,2,test,1,B,triangle.png,1,z,Wed Oct 02 2024 11:11:42 GMT-0500 (Central Daylight Time),232884.20000004768,1900,O,z,549,16,1,2464.600000023842,230419.60000002384,7023,NTS,A,2
2,3,test,1,B,triangle.png,1,m,Wed Oct 02 2024 11:11:42 GMT-0500 (Central Daylight Time),235299.5,1700,O,m,674,2,1,2397.2999999523163,232902.20000004768,7023,NTS,A,3
4,4,test,1,B,triangle.png,1,m,Wed Oct 02 2024 11:11:42 GMT-0500 (Central Daylight Time),237532.20000004768,1500,O,m,691,4,1,2213.5,235318.70000004768,7023,NTS,A,4
3,5,test,1,B,triangle.png,1,z,Wed Oct 02 2024 11:11:42 GMT-0500 (Central Daylight Time),240380.60000002384,2000,O,z,805,11,1,2830.7000000476837,237549.89999997616,7023,NTS,A,5
1,6,test,1,B,triangle.png,1,z,Wed Oct 02 2024 11:11:42 GMT-0500 (Central Daylight Time),242430.10000002384,1400,O,z,621,9,1,2045.0,240385.10000002384,7023,NTS,A,6
9,7,test,1,B,triangle.png,1,z,Wed Oct 02 2024 11:11:42 GMT-0500 (Central Daylight Time),244996.29999995232,1900,O,z,640,16,1,2557.7999999523163,242438.5,7023,NTS,A,7
1,8,test,1,B,triangle.png,1,z,Wed Oct 02 2024 11:11:42 GMT-0500 (Central Daylight Time),247462.20000004768,1900,O,z,530,1,1,2448.8000000715256,245013.39999997616,7023,NTS,A,8
6,9,test,1,B,triangle.png,1,m,Wed Oct 02 2024 11:11:42 GMT-0500 (Central Daylight Time),249228.29999995232,1000,O,m,724,5,1,1748.6999999284744,247479.60000002384,7023,NTS,A,9
2,10,test,1,B,triangle.png,1,m,Wed Oct 02 2024 11:11:42 GMT-0500 (Central Daylight Time),251294.29999995232,1200,O,m,830,10,1,2047.6999999284744,249246.60000002384,7023,NTS,A,10
2,11,test,1,B,triangle.png,1,m,Wed Oct 02 2024 11:11:42 GMT-0500 (Central Daylight Time),253060.29999995232,1200,O,m,524,10,1,1749.2999999523163,251311.0,7023,NTS,A,11
8,12,test,1,B,triangle.png,1,m,Wed Oct 02 2024 11:11:42 GMT-0500 (Central Daylight Time),254859.79999995232,1200,O,m,575,7,1,1788.5999999046326,253071.20000004768,7023,NTS,A,12
6,13,test,1,B,triangle.png,1,m,Wed Oct 02 2024 11:11:42 GMT-0500 (Central Daylight Time),256925.79999995232,1500,O,m,530,13,1,2047.8999999761581,254877.89999997616,7023,NTS,A,13
7,14,test,1,B,triangle.png,1,z,Wed Oct 02 2024 11:11:42 GMT-0500 (Central Daylight Time),259591.10000002384,2000,O,z,620,6,1,2646.100000023842,256945.0,7023,NTS,A,14
7,15,test,1,B,triangle.png,1,z,Wed Oct 02 2024 11:11:42 GMT-0500 (Central Daylight Time),261924.70000004768,1600,O,z,716,14,1,2328.0,259596.70000004768,7023,NTS,A,15
6,16,test,1,B,triangle.png,1,m,Wed Oct 02 2024 11:11:42 GMT-0500 (Central Daylight Time),263990.0,1500,O,m,521,13,1,2047.2999999523163,261942.70000004768,7023,NTS,A,16
3,17,test,1,B,triangle.png,1,z,Wed Oct 02 2024 11:11:42 GMT-0500 (Central Daylight Time),266638.60000002384,2000,O,z,612,11,1,2632.0,264006.60000002384,7023,NTS,A,17
2,18,test,1,B,triangle.png,1,m,Wed Oct 02 2024 11:11:42 GMT-0500 (Central Daylight Time),269221.7000000477,1700,O,m,856,2,1,2578.4000000953674,266643.2999999523,7023,NTS,A,18
8,19,test,1,B,triangle.png,1,m,Wed Oct 02 2024 11:11:42 GMT-0500 (Central Daylight Time),271770.89999997616,1700,O,m,808,15,1,2532.6999999284744,269238.2000000477,7023,NTS,A,19
3,20,test,1,B,triangle.png,1,z,Wed Oct 02 2024 11:11:42 GMT-0500 (Central Daylight Time),274220.10000002384,1600,O,z,807,3,1,2432.3000000715256,271787.7999999523,7023,NTS,A,20
7,21,test,1,B,triangle.png,1,z,Wed Oct 02 2024 11:11:42 GMT-0500 (Central Daylight Time),276836.39999997616,2000,O,z,582,6,1,2597.600000023842,274238.7999999523,7023,NTS,A,21
8,22,test,1,B,triangle.png,1,m,Wed Oct 02 2024 11:11:42 GMT-0500 (Central Daylight Time),278768.10000002384,1200,O,m,693,7,1,1914.8999999761581,276853.2000000477,7023,NTS,A,22
8,23,test,1,B,triangle.png,1,m,Wed Oct 02 2024 11:11:42 GMT-0500 (Central Daylight Time),281001.0,1700,O,m,510,15,1,2227.399999976158,278773.60000002384,7023,NTS,A,23
4,24,test,1,B,triangle.png,1,m,Wed Oct 02 2024 11:11:42 GMT-0500 (Central Daylight Time),282700.5,1000,O,m,657,12,1,1682.6000000238419,281017.89999997616,7023,NTS,A,24
2,1,prac,1,C,triangle.png,1,m,Wed Oct 02 2024 11:11:42 GMT-0500 (Central Daylight Time),322120.7000000477,1600,O,m,1158,2,1,3540.0,318580.7000000477,7023,NTS,A,1
6,1,prac,1,C,circle.png,0,m,Wed Oct 02 2024 11:11:42 GMT-0500 (Central Daylight Time),326419.5,2000,O,None,1515,5,1,4289.5,322130.0,7023,NTS,A,2
1,2,prac,1,C,circle.png,1,z,Wed Oct 02 2024 11:11:42 GMT-0500 (Central Daylight Time),330285.2000000477,1700,O,z,1363,1,1,3841.5,326443.7000000477,7023,NTS,A,3
2,2,prac,1,C,triangle.png,0,m,Wed Oct 02 2024 11:11:42 GMT-0500 (Central Daylight Time),334200.39999997616,1600,O,None,1516,2,1,3887.399999976158,330313.0,7023,NTS,A,4
4,3,prac,1,C,circle.png,1,z,Wed Oct 02 2024 11:11:42 GMT-0500 (Central Daylight Time),337082.7999999523,1000,O,z,1073,4,1,2863.1999999284744,334219.60000002384,7023,NTS,A,5
7,4,prac,1,C,triangle.png,1,z,Wed Oct 02 2024 11:11:42 GMT-0500 (Central Daylight Time),340231.89999997616,1200,O,z,1143,6,1,3123.5,337108.39999997616,7023,NTS,A,6
9,4,prac,1,C,circle.png,0,m,Wed Oct 02 2024 11:11:42 GMT-0500 (Central Daylight Time),344163.7999999523,1900,O,z,1231,8,1,3906.2999999523163,340257.5,7023,NTS,A,7
1,5,prac,1,C,circle.png,1,z,Wed Oct 02 2024 11:11:42 GMT-0500 (Central Daylight Time),347646.0,1700,O,z,978,1,1,3456.600000023842,344189.39999997616,7023,NTS,A,8
3,6,prac,1,C,triangle.png,1,z,Wed Oct 02 2024 11:11:42 GMT-0500 (Central Daylight Time),351327.89999997616,1500,O,z,1376,3,1,3657.6999999284744,347670.2000000477,7023,NTS,A,9
8,6,prac,1,C,triangle.png,0,m,Wed Oct 02 2024 11:11:42 GMT-0500 (Central Daylight Time),355026.7999999523,1400,O,None,1515,7,1,3685.399999976158,351341.39999997616,7023,NTS,A,10
6,6,prac,1,C,circle.png,0,m,Wed Oct 02 2024 11:11:42 GMT-0500 (Central Daylight Time),359342.10000002384,2000,O,None,1516,5,1,4290.899999976158,355051.2000000477,7023,NTS,A,11
7,7,prac,1,C,triangle.png,1,z,Wed Oct 02 2024 11:11:42 GMT-0500 (Central Daylight Time),362591.2999999523,1200,O,z,1218,6,1,3201.399999976158,359389.89999997616,7023,NTS,A,12
7,1,prac,2,C,triangle.png,1,z,Wed Oct 02 2024 11:11:42 GMT-0500 (Central Daylight Time),373304.39999997616,1200,O,z,1242,6,1,3224.7999999523163,370079.60000002384,7023,NTS,A,1
1,2,prac,2,C,circle.png,1,z,Wed Oct 02 2024 11:11:42 GMT-0500 (Central Daylight Time),376536.5,1700,O,z,725,1,1,3206.7999999523163,373329.7000000477,7023,NTS,A,2
1,3,prac,2,C,circle.png,1,z,Wed Oct 02 2024 11:11:42 GMT-0500 (Central Daylight Time),379935.39999997616,1700,O,z,894,1,1,3374.2999999523163,376561.10000002384,7023,NTS,A,3
9,4,prac,2,C,circle.png,1,m,Wed Oct 02 2024 11:11:42 GMT-0500 (Central Daylight Time),383501.0,1900,O,m,863,8,1,3539.7999999523163,379961.2000000477,7023,NTS,A,4
6,5,prac,2,C,circle.png,1,m,Wed Oct 02 2024 11:11:42 GMT-0500 (Central Daylight Time),387233.10000002384,2000,O,m,927,5,1,3707.5,383525.60000002384,7023,NTS,A,5
3,6,prac,2,C,triangle.png,1,z,Wed Oct 02 2024 11:11:42 GMT-0500 (Central Daylight Time),390665.2000000477,1500,O,z,1125,3,1,3408.600000023842,387256.60000002384,7023,NTS,A,6
4,7,prac,2,C,circle.png,1,z,Wed Oct 02 2024 11:11:42 GMT-0500 (Central Daylight Time),393514.2999999523,1000,O,z,1049,4,1,2824.5999999046326,390689.7000000477,7023,NTS,A,7
2,8,prac,2,C,triangle.png,1,m,Wed Oct 02 2024 11:11:42 GMT-0500 (Central Daylight Time),397129.89999997616,1600,O,m,1208,2,1,3589.399999976158,393540.5,7023,NTS,A,8
8,9,prac,2,C,triangle.png,1,m,Wed Oct 02 2024 11:11:42 GMT-0500 (Central Daylight Time),400145.60000002384,1400,O,m,801,7,1,2990.899999976158,397154.7000000477,7023,NTS,A,9
9,10,prac,2,C,circle.png,1,m,Wed Oct 02 2024 11:11:42 GMT-0500 (Central Daylight Time),403710.89999997616,1900,O,m,853,8,1,3539.600000023842,400171.2999999523,7023,NTS,A,10
7,11,prac,2,C,triangle.png,1,z,Wed Oct 02 2024 11:11:42 GMT-0500 (Central Daylight Time),406693.5,1200,O,z,972,6,1,2964.2000000476837,403729.2999999523,7023,NTS,A,11
8,12,prac,2,C,triangle.png,1,m,Wed Oct 02 2024 11:11:42 GMT-0500 (Central Daylight Time),409809.0,1400,O,m,902,7,1,3091.0,406718.0,7023,NTS,A,12
3,1,test,1,C,triangle.png,1,z,Wed Oct 02 2024 11:11:42 GMT-0500 (Central Daylight Time),422088.2000000477,1200,O,z,953,3,1,2182.600000023842,419905.60000002384,7023,NTS,A,1
7,2,test,1,C,triangle.png,1,z,Wed Oct 02 2024 11:11:42 GMT-0500 (Central Daylight Time),424520.7999999523,1700,O,z,694,6,1,2413.0999999046326,422107.7000000477,7023,NTS,A,2
1,3,test,1,C,triangle.png,1,z,Wed Oct 02 2024 11:11:42 GMT-0500 (Central Daylight Time),427136.60000002384,1900,O,z,678,9,1,2598.600000023842,424538.0,7023,NTS,A,3
9,4,test,1,C,triangle.png,1,z,Wed Oct 02 2024 11:11:42 GMT-0500 (Central Daylight Time),429285.89999997616,1400,O,z,706,16,1,2130.899999976158,427155.0,7023,NTS,A,4
4,5,test,1,C,circle.png,1,z,Wed Oct 02 2024 11:11:42 GMT-0500 (Central Daylight Time),431635.0,1400,O,z,909,4,1,2331.100000023842,429303.89999997616,7023,NTS,A,5
2,6,test,1,C,triangle.png,1,m,Wed Oct 02 2024 11:11:42 GMT-0500 (Central Daylight Time),434550.7999999523,2000,O,m,880,2,1,2898.5,431652.2999999523,7023,NTS,A,6
8,7,test,1,C,triangle.png,1,m,Wed Oct 02 2024 11:11:42 GMT-0500 (Central Daylight Time),436966.7000000477,1600,O,m,773,23,1,2400.0,434566.7000000477,7023,NTS,A,7
2,8,test,1,C,circle.png,1,z,Wed Oct 02 2024 11:11:42 GMT-0500 (Central Daylight Time),439632.5,1700,O,z,920,10,1,2647.899999976158,436984.60000002384,7023,NTS,A,8
7,9,test,1,C,triangle.png,1,z,Wed Oct 02 2024 11:11:42 GMT-0500 (Central Daylight Time),442348.2000000477,1700,O,z,974,22,1,2697.8000000715256,439650.39999997616,7023,NTS,A,9
6,10,test,1,C,triangle.png,1,m,Wed Oct 02 2024 11:11:42 GMT-0500 (Central Daylight Time),444514.2000000477,1000,O,m,1118,13,1,2147.100000023842,442367.10000002384,7023,NTS,A,10
6,11,test,1,C,circle.png,1,m,Wed Oct 02 2024 11:11:42 GMT-0500 (Central Daylight Time),447496.5,1900,O,m,1037,5,1,2964.7999999523163,444531.7000000477,7023,NTS,A,11
4,12,test,1,C,triangle.png,1,m,Wed Oct 02 2024 11:11:42 GMT-0500 (Central Daylight Time),450062.39999997616,1500,O,m,1022,20,1,2547.899999976158,447514.5,7023,NTS,A,12
2,13,test,1,C,circle.png,1,z,Wed Oct 02 2024 11:11:42 GMT-0500 (Central Daylight Time),452944.7000000477,1700,O,z,1144,18,1,2865.4000000953674,450079.2999999523,7023,NTS,A,13
6,14,test,1,C,circle.png,1,m,Wed Oct 02 2024 11:11:42 GMT-0500 (Central Daylight Time),455643.7999999523,1900,O,m,759,21,1,2682.0999999046326,452961.7000000477,7023,NTS,A,14
3,15,test,1,C,circle.png,1,z,Wed Oct 02 2024 11:11:42 GMT-0500 (Central Daylight Time),458159.7000000477,1600,O,z,871,11,1,2497.100000023842,455662.60000002384,7023,NTS,A,15
9,15,test,1,C,circle.png,0,m,Wed Oct 02 2024 11:11:42 GMT-0500 (Central Daylight Time),461208.60000002384,1500,O,None,1516,8,1,3030.899999976158,458177.7000000477,7023,NTS,A,16
8,16,test,1,C,triangle.png,1,m,Wed Oct 02 2024 11:11:42 GMT-0500 (Central Daylight Time),464324.39999997616,1600,O,m,1474,7,1,3092.7999999523163,461231.60000002384,7023,NTS,A,17
9,17,test,1,C,circle.png,1,m,Wed Oct 02 2024 11:11:42 GMT-0500 (Central Daylight Time),467073.2999999523,1500,O,m,1202,24,1,2729.5999999046326,464343.7000000477,7023,NTS,A,18
7,18,test,1,C,circle.png,1,m,Wed Oct 02 2024 11:11:42 GMT-0500 (Central Daylight Time),470271.7999999523,2000,O,m,1152,14,1,3179.6999999284744,467092.10000002384,7023,NTS,A,19
4,19,test,1,C,triangle.png,1,m,Wed Oct 02 2024 11:11:42 GMT-0500 (Central Daylight Time),472938.2000000477,1500,O,m,1135,12,1,2660.9000000953674,470277.2999999523,7023,NTS,A,20
3,20,test,1,C,circle.png,1,z,Wed Oct 02 2024 11:11:42 GMT-0500 (Central Daylight Time),475670.60000002384,1600,O,z,1096,19,1,2715.5,472955.10000002384,7023,NTS,A,21
1,21,test,1,C,circle.png,1,z,Wed Oct 02 2024 11:11:42 GMT-0500 (Central Daylight Time),477403.2999999523,1000,O,z,692,1,1,1716.0999999046326,475687.2000000477,7023,NTS,A,22
8,22,test,1,C,circle.png,1,m,Wed Oct 02 2024 11:11:42 GMT-0500 (Central Daylight Time),479302.7999999523,1200,O,m,663,15,1,1882.0,477420.7999999523,7023,NTS,A,23
1,23,test,1,C,triangle.png,1,z,Wed Oct 02 2024 11:11:42 GMT-0500 (Central Daylight Time),482351.7000000477,1900,O,z,1104,17,1,3030.4000000953674,479321.2999999523,7023,NTS,A,24
6,1,test,2,C,circle.png,1,m,Wed Oct 02 2024 11:11:42 GMT-0500 (Central Daylight Time),489183.10000002384,1900,O,m,905,5,1,2832.8000000715256,486350.2999999523,7023,NTS,A,1
2,2,test,2,C,circle.png,1,z,Wed Oct 02 2024 11:11:42 GMT-0500 (Central Daylight Time),491748.7999999523,1700,O,z,824,10,1,2547.7999999523163,489201.0,7023,NTS,A,2
8,3,test,2,C,circle.png,1,m,Wed Oct 02 2024 11:11:42 GMT-0500 (Central Daylight Time),493797.7999999523,1200,O,m,814,15,1,2032.1999999284744,491765.60000002384,7023,NTS,A,3
4,4,test,2,C,circle.png,1,z,Wed Oct 02 2024 11:11:42 GMT-0500 (Central Daylight Time),496113.60000002384,1400,O,z,867,4,1,2299.5,493814.10000002384,7023,NTS,A,4
6,5,test,2,C,triangle.png,1,m,Wed Oct 02 2024 11:11:42 GMT-0500 (Central Daylight Time),498029.7000000477,1000,O,m,897,13,1,1909.0,496120.7000000477,7023,NTS,A,5
9,6,test,2,C,triangle.png,1,z,Wed Oct 02 2024 11:11:42 GMT-0500 (Central Daylight Time),500312.5,1400,O,z,837,24,1,2265.7000000476837,498046.7999999523,7023,NTS,A,6
7,7,test,2,C,circle.png,1,m,Wed Oct 02 2024 11:11:42 GMT-0500 (Central Daylight Time),503161.39999997616,2000,O,m,810,22,1,2830.7999999523163,500330.60000002384,7023,NTS,A,7
8,8,test,2,C,circle.png,1,m,Wed Oct 02 2024 11:11:42 GMT-0500 (Central Daylight Time),505044.2000000477,1200,O,m,633,23,1,1865.6000000238419,503178.60000002384,7023,NTS,A,8
1,9,test,2,C,triangle.png,1,z,Wed Oct 02 2024 11:11:42 GMT-0500 (Central Daylight Time),507693.39999997616,1900,O,z,706,17,1,2632.0,505061.39999997616,7023,NTS,A,9
3,10,test,2,C,circle.png,1,z,Wed Oct 02 2024 11:11:42 GMT-0500 (Central Daylight Time),510175.7000000477,1600,O,z,845,19,1,2465.100000023842,507710.60000002384,7023,NTS,A,10
2,11,test,2,C,circle.png,1,z,Wed Oct 02 2024 11:11:42 GMT-0500 (Central Daylight Time),512774.89999997616,1700,O,z,871,18,1,2588.100000023842,510186.7999999523,7023,NTS,A,11
7,12,test,2,C,circle.png,1,m,Wed Oct 02 2024 11:11:42 GMT-0500 (Central Daylight Time),515724.7000000477,2000,O,m,932,14,1,2941.7000000476837,512783.0,7023,NTS,A,12
7,13,test,2,C,triangle.png,1,z,Wed Oct 02 2024 11:11:42 GMT-0500 (Central Daylight Time),518289.89999997616,1700,O,z,826,6,1,2548.5,515741.39999997616,7023,NTS,A,13
3,14,test,2,C,triangle.png,1,z,Wed Oct 02 2024 11:11:42 GMT-0500 (Central Daylight Time),520289.2000000477,1200,O,z,760,3,1,1980.8000000715256,518308.39999997616,7023,NTS,A,14
8,15,test,2,C,triangle.png,1,m,Wed Oct 02 2024 11:11:42 GMT-0500 (Central Daylight Time),522655.2000000477,1600,O,m,729,7,1,2348.5,520306.7000000477,7023,NTS,A,15
6,16,test,2,C,triangle.png,1,m,Wed Oct 02 2024 11:11:42 GMT-0500 (Central Daylight Time),524637.7999999523,1000,O,m,939,21,1,1964.6999999284744,522673.10000002384,7023,NTS,A,16
1,17,test,2,C,circle.png,1,z,Wed Oct 02 2024 11:11:42 GMT-0500 (Central Daylight Time),526520.6000000238,1000,O,z,846,1,1,1865.7000000476837,524654.8999999762,7023,NTS,A,17
9,18,test,2,C,triangle.png,1,z,Wed Oct 02 2024 11:11:42 GMT-0500 (Central Daylight Time),529069.7999999523,1400,O,z,1106,16,1,2532.399999976158,526537.3999999762,7023,NTS,A,18
3,19,test,2,C,circle.png,1,z,Wed Oct 02 2024 11:11:42 GMT-0500 (Central Daylight Time),531687.1000000238,1600,O,z,981,11,1,2600.5,529086.6000000238,7023,NTS,A,19
1,20,test,2,C,triangle.png,1,z,Wed Oct 02 2024 11:11:42 GMT-0500 (Central Daylight Time),534668.1000000238,1900,O,z,1033,9,1,2963.399999976158,531704.7000000477,7023,NTS,A,20
4,21,test,2,C,triangle.png,1,m,Wed Oct 02 2024 11:11:42 GMT-0500 (Central Daylight Time),537650.2999999523,1500,O,m,1443,20,1,2963.899999976158,534686.3999999762,7023,NTS,A,21
2,22,test,2,C,triangle.png,1,m,Wed Oct 02 2024 11:11:42 GMT-0500 (Central Daylight Time),540515.5,2000,O,m,823,2,1,2847.2999999523163,537668.2000000477,7023,NTS,A,22
4,23,test,2,C,triangle.png,1,m,Wed Oct 02 2024 11:11:42 GMT-0500 (Central Daylight Time),542865.2000000477,1500,O,m,827,12,1,2343.8000000715256,540521.3999999762,7023,NTS,A,23
9,24,test,2,C,circle.png,1,m,Wed Oct 02 2024 11:11:42 GMT-0500 (Central Daylight Time),545364.2999999523,1500,O,m,957,8,1,2481.7999999523163,542882.5,7023,NTS,A,24
7,1,test,3,C,circle.png,1,m,Wed Oct 02 2024 11:11:42 GMT-0500 (Central Daylight Time),549763.1000000238,2000,O,m,1134,14,1,3166.5,546596.6000000238,7023,NTS,A,1
8,2,test,3,C,circle.png,1,m,Wed Oct 02 2024 11:11:42 GMT-0500 (Central Daylight Time),551828.8999999762,1200,O,m,831,15,1,2046.7999999523163,549782.1000000238,7023,NTS,A,2
4,2,test,3,C,circle.png,0,z,Wed Oct 02 2024 11:11:42 GMT-0500 (Central Daylight Time),553911.2999999523,1400,O,m,646,4,1,2064.1999999284744,551847.1000000238,7023,NTS,A,3
7,3,test,3,C,triangle.png,1,z,Wed Oct 02 2024 11:11:42 GMT-0500 (Central Daylight Time),556810.6000000238,1700,O,z,1159,6,1,2876.399999976158,553934.2000000477,7023,NTS,A,4
9,4,test,3,C,triangle.png,1,z,Wed Oct 02 2024 11:11:42 GMT-0500 (Central Daylight Time),559392.5,1400,O,z,1143,16,1,2562.7000000476837,556829.7999999523,7023,NTS,A,5
1,5,test,3,C,triangle.png,1,z,Wed Oct 02 2024 11:11:42 GMT-0500 (Central Daylight Time),562192.2000000477,1900,O,z,878,9,1,2794.5,559397.7000000477,7023,NTS,A,6
2,6,test,3,C,triangle.png,1,m,Wed Oct 02 2024 11:11:42 GMT-0500 (Central Daylight Time),565307.7999999523,2000,O,m,1074,18,1,3097.7999999523163,562210.0,7023,NTS,A,7
2,7,test,3,C,circle.png,1,z,Wed Oct 02 2024 11:11:42 GMT-0500 (Central Daylight Time),568023.7000000477,1700,O,z,971,10,1,2698.5,565325.2000000477,7023,NTS,A,8
2,7,test,3,C,triangle.png,0,m,Wed Oct 02 2024 11:11:42 GMT-0500 (Central Daylight Time),571106.0,2000,O,z,1035,2,1,3064.399999976158,568041.6000000238,7023,NTS,A,9
3,7,test,3,C,triangle.png,0,z,Wed Oct 02 2024 11:11:42 GMT-0500 (Central Daylight Time),573472.0,1200,O,m,1120,19,1,2347.7999999523163,571124.2000000477,7023,NTS,A,10
6,8,test,3,C,circle.png,1,m,Wed Oct 02 2024 11:11:42 GMT-0500 (Central Daylight Time),576420.8999999762,1900,O,m,1015,5,1,2930.6999999284744,573490.2000000477,7023,NTS,A,11
4,9,test,3,C,triangle.png,1,m,Wed Oct 02 2024 11:11:42 GMT-0500 (Central Daylight Time),579169.8999999762,1500,O,m,1202,12,1,2731.7999999523163,576438.1000000238,7023,NTS,A,12
3,10,test,3,C,triangle.png,1,z,Wed Oct 02 2024 11:11:42 GMT-0500 (Central Daylight Time),581402.7000000477,1200,O,z,984,3,1,2215.7000000476837,579187.0,7023,NTS,A,13
9,11,test,3,C,circle.png,1,m,Wed Oct 02 2024 11:11:42 GMT-0500 (Central Daylight Time),583885.0,1500,O,m,940,8,1,2465.2000000476837,581419.7999999523,7023,NTS,A,14
8,12,test,3,C,triangle.png,1,m,Wed Oct 02 2024 11:11:42 GMT-0500 (Central Daylight Time),586484.2000000477,1600,O,m,950,23,1,2582.2000000476837,583902.0,7023,NTS,A,15
6,13,test,3,C,triangle.png,1,m,Wed Oct 02 2024 11:11:42 GMT-0500 (Central Daylight Time),588600.2000000477,1000,O,m,1070,13,1,2098.7000000476837,586501.5,7023,NTS,A,16
1,14,test,3,C,circle.png,1,z,Wed Oct 02 2024 11:11:42 GMT-0500 (Central Daylight Time),590516.2999999523,1000,O,z,875,17,1,1890.1999999284744,588626.1000000238,7023,NTS,A,17
9,15,test,3,C,circle.png,1,m,Wed Oct 02 2024 11:11:42 GMT-0500 (Central Daylight Time),593115.3999999762,1500,O,m,1050,24,1,2580.399999976158,590535.0,7023,NTS,A,18
8,16,test,3,C,triangle.png,1,m,Wed Oct 02 2024 11:11:42 GMT-0500 (Central Daylight Time),596214.2999999523,1600,O,m,1455,7,1,3083.0999999046326,593131.2000000477,7023,NTS,A,19
1,17,test,3,C,circle.png,1,z,Wed Oct 02 2024 11:11:42 GMT-0500 (Central Daylight Time),598163.7000000477,1000,O,z,908,1,1,1932.1000000238419,596231.6000000238,7023,NTS,A,20
7,18,test,3,C,triangle.png,1,z,Wed Oct 02 2024 11:11:42 GMT-0500 (Central Daylight Time),601295.8999999762,1700,O,z,1387,22,1,3114.2999999523163,598181.6000000238,7023,NTS,A,21
3,19,test,3,C,circle.png,1,z,Wed Oct 02 2024 11:11:42 GMT-0500 (Central Daylight Time),603794.7000000477,1600,O,z,874,11,1,2489.4000000953674,601305.2999999523,7023,NTS,A,22
6,20,test,3,C,circle.png,1,m,Wed Oct 02 2024 11:11:42 GMT-0500 (Central Daylight Time),606710.8999999762,1900,O,m,988,21,1,2911.2999999523163,603799.6000000238,7023,NTS,A,23
4,21,test,3,C,circle.png,1,z,Wed Oct 02 2024 11:11:42 GMT-0500 (Central Daylight Time),609277.0,1400,O,z,1132,20,1,2549.2000000476837,606727.7999999523,7023,NTS,A,24
9,1,test,4,C,triangle.png,1,z,Wed Oct 02 2024 11:11:42 GMT-0500 (Central Daylight Time),612925.6000000238,1400,O,z,1289,16,1,2715.8000000715256,610209.7999999523,7023,NTS,A,1
4,2,test,4,C,circle.png,1,z,Wed Oct 02 2024 11:11:42 GMT-0500 (Central Daylight Time),615291.7000000477,1400,O,z,933,4,1,2352.2000000476837,612939.5,7023,NTS,A,2
8,3,test,4,C,triangle.png,1,m,Wed Oct 02 2024 11:11:42 GMT-0500 (Central Daylight Time),618207.0,1600,O,m,1279,23,1,2897.2000000476837,615309.7999999523,7023,NTS,A,3
3,4,test,4,C,triangle.png,1,z,Wed Oct 02 2024 11:11:42 GMT-0500 (Central Daylight Time),620623.0,1200,O,z,1196,19,1,2405.5,618217.5,7023,NTS,A,4
7,5,test,4,C,triangle.png,1,z,Wed Oct 02 2024 11:11:42 GMT-0500 (Central Daylight Time),622988.7999999523,1700,O,z,632,22,1,2348.7999999523163,620640.0,7023,NTS,A,5
6,6,test,4,C,circle.png,1,m,Wed Oct 02 2024 11:11:42 GMT-0500 (Central Daylight Time),625787.5,1900,O,m,865,21,1,2780.5,623007.0,7023,NTS,A,6
1,7,test,4,C,circle.png,1,z,Wed Oct 02 2024 11:11:42 GMT-0500 (Central Daylight Time),627704.0,1000,O,z,895,1,1,1909.8999999761581,625794.1000000238,7023,NTS,A,7
7,8,test,4,C,triangle.png,1,z,Wed Oct 02 2024 11:11:42 GMT-0500 (Central Daylight Time),630752.8999999762,1700,O,z,1303,6,1,3031.399999976158,627721.5,7023,NTS,A,8
4,9,test,4,C,triangle.png,1,m,Wed Oct 02 2024 11:11:42 GMT-0500 (Central Daylight Time),633385.5,1500,O,m,1094,12,1,2614.7999999523163,630770.7000000477,7023,NTS,A,9
8,10,test,4,C,circle.png,1,m,Wed Oct 02 2024 11:11:42 GMT-0500 (Central Daylight Time),635518.1000000238,1200,O,m,889,15,1,2115.899999976158,633402.2000000477,7023,NTS,A,10
3,11,test,4,C,triangle.png,1,z,Wed Oct 02 2024 11:11:42 GMT-0500 (Central Daylight Time),637900.2999999523,1200,O,z,1139,3,1,2358.399999976158,635541.8999999762,7023,NTS,A,11
8,12,test,4,C,triangle.png,1,m,Wed Oct 02 2024 11:11:42 GMT-0500 (Central Daylight Time),640299.7999999523,1600,O,m,767,7,1,2391.5,637908.2999999523,7023,NTS,A,12
9,13,test,4,C,circle.png,1,m,Wed Oct 02 2024 11:11:42 GMT-0500 (Central Daylight Time),642615.7000000477,1500,O,m,779,24,1,2298.0,640317.7000000477,7023,NTS,A,13
1,14,test,4,C,triangle.png,1,z,Wed Oct 02 2024 11:11:42 GMT-0500 (Central Daylight Time),645514.8999999762,1900,O,z,959,9,1,2882.399999976158,642632.5,7023,NTS,A,14
2,15,test,4,C,triangle.png,1,m,Wed Oct 02 2024 11:11:42 GMT-0500 (Central Daylight Time),648347.2000000477,2000,O,m,785,18,1,2815.600000023842,645531.6000000238,7023,NTS,A,15
6,16,test,4,C,triangle.png,1,m,Wed Oct 02 2024 11:11:42 GMT-0500 (Central Daylight Time),650230.0,1000,O,m,847,13,1,1864.3999999761581,648365.6000000238,7023,NTS,A,16
2,17,test,4,C,circle.png,1,z,Wed Oct 02 2024 11:11:42 GMT-0500 (Central Daylight Time),652979.1000000238,1700,O,z,1009,10,1,2730.7000000476837,650248.3999999762,7023,NTS,A,17
6,18,test,4,C,circle.png,1,m,Wed Oct 02 2024 11:11:42 GMT-0500 (Central Daylight Time),655694.8999999762,1900,O,m,780,5,1,2698.6999999284744,652996.2000000477,7023,NTS,A,18
2,19,test,4,C,triangle.png,1,m,Wed Oct 02 2024 11:11:42 GMT-0500 (Central Daylight Time),659027.0,2000,O,m,1293,2,1,3315.899999976158,655711.1000000238,7023,NTS,A,19
9,19,test,4,C,circle.png,0,m,Wed Oct 02 2024 11:11:42 GMT-0500 (Central Daylight Time),662076.2999999523,1500,O,None,1515,8,1,3032.399999976158,659043.8999999762,7023,NTS,A,20
7,19,test,4,C,circle.png,0,m,Wed Oct 02 2024 11:11:42 GMT-0500 (Central Daylight Time),665625.0,2000,O,None,1516,14,1,3530.2999999523163,662094.7000000477,7023,NTS,A,21
3,20,test,4,C,circle.png,1,z,Wed Oct 02 2024 11:11:42 GMT-0500 (Central Daylight Time),668256.8999999762,1600,O,z,985,11,1,2614.2999999523163,665642.6000000238,7023,NTS,A,22
4,21,test,4,C,circle.png,1,z,Wed Oct 02 2024 11:11:42 GMT-0500 (Central Daylight Time),670656.6000000238,1400,O,z,978,20,1,2393.7000000476837,668262.8999999762,7023,NTS,A,23
1,22,test,4,C,circle.png,1,z,Wed Oct 02 2024 11:11:42 GMT-0500 (Central Daylight Time),672689.2999999523,1000,O,z,986,17,1,2015.3999999761581,670673.8999999762,7023,NTS,A,24
