Q,Q1,Q2,Q3,Q4,acc_sum,block,block_c,correct,correct_response,datetime,endtime,project,response,response_time,row_sel,session_number,squiggle1,squiggle1x,squiggle1y,squiggle2,squiggle2x,squiggle2y,squiggle3,squiggle3x,squiggle3y,squiggle4,squiggle4x,squiggle4y,start_end,starttime,subject_id,target_congruent,task,task_vers,testsquiggle,testsquigglex,testsquiggley,time_practice_delay,time_practice_fixation,time_practice_stimuli,time_practice_study,time_test_delay,time_test_fixation,time_test_stimuli,time_test_study,trial
1,1,0,0,0,0,prac,1,0,z,Wed Mar 12 2025 19:00:23 GMT-0500 (Central Daylight Time),217848.5,O,None,2013,1,1,116.bmp,-120,-120,117.bmp,120,-120,118.bmp,-120,120,119.bmp,120,120,10823.099999999627,207025.40000000037,7082,yes,SM,A,116.bmp,-120,-120,210846,204822,212864,206833,,,,,1
3,0,0,1,0,1,prac,1,1,m,Wed Mar 12 2025 19:00:23 GMT-0500 (Central Daylight Time),228278.20000000112,O,m,1601,2,1,120.bmp,-120,-120,121.bmp,120,-120,122.bmp,-120,120,123.bmp,120,120,10424.900000000373,217853.30000000075,7082,no,SM,A,123.bmp,-120,120,221676,215650,223693,217663,,,,,2
4,0,0,0,1,2,prac,1,1,m,Wed Mar 12 2025 19:00:23 GMT-0500 (Central Daylight Time),238442.1000000015,O,m,1349,3,1,124.bmp,-120,-120,125.bmp,120,-120,126.bmp,-120,120,127.bmp,120,120,10158.300000000745,228283.80000000075,7082,no,SM,A,124.bmp,120,120,232107,226080,234123,228092,,,,,3
2,0,1,0,0,2,prac,1,0,z,Wed Mar 12 2025 19:00:23 GMT-0500 (Central Daylight Time),248489.90000000037,O,m,1215,4,1,128.bmp,-120,-120,129.bmp,120,-120,130.bmp,-120,120,131.bmp,120,120,10041.599999999627,238448.30000000075,7082,yes,SM,A,129.bmp,120,-120,242269,236244,244288,238256,,,,,4
3,0,0,1,0,2,prac,1,0,z,Wed Mar 12 2025 19:00:23 GMT-0500 (Central Daylight Time),258420.1000000015,O,m,1116,5,1,132.bmp,-120,-120,133.bmp,120,-120,134.bmp,-120,120,135.bmp,120,120,9925.900000000373,248494.20000000112,7082,yes,SM,A,134.bmp,-120,120,252317,246290,254332,248301,,,,,5
1,1,0,0,0,3,prac,1,1,m,Wed Mar 12 2025 19:00:23 GMT-0500 (Central Daylight Time),268499.1000000015,O,m,1265,6,1,136.bmp,-120,-120,137.bmp,120,-120,138.bmp,-120,120,139.bmp,120,120,10074.800000000745,258424.30000000075,7082,no,SM,A,139.bmp,-120,-120,262246,256221,264263,258232,,,,,6
2,0,1,0,0,4,prac,1,1,m,Wed Mar 12 2025 19:00:23 GMT-0500 (Central Daylight Time),278377.80000000075,O,m,1053,7,1,140.bmp,-120,-120,141.bmp,120,-120,142.bmp,-120,120,143.bmp,120,120,9874.199999999255,268503.6000000015,7082,no,SM,A,140.bmp,120,-120,272327,266300,274345,268313,,,,,7
4,0,0,0,1,4,prac,1,0,z,Wed Mar 12 2025 19:00:23 GMT-0500 (Central Daylight Time),288178.7000000011,O,m,976,8,1,144.bmp,-120,-120,145.bmp,120,-120,146.bmp,-120,120,147.bmp,120,120,9796.599999999627,278382.1000000015,7082,yes,SM,A,147.bmp,120,120,282207,276178,284222,278192,,,,,8
4,0,0,0,1,1,test,1,1,m,Wed Mar 12 2025 19:00:23 GMT-0500 (Central Daylight Time),305853.6000000015,O,m,948,1,1,148.bmp,-120,-120,149.bmp,120,-120,150.bmp,-120,120,143.bmp,120,120,8994.300000000745,296859.30000000075,7082,no,SM,A,150.bmp,120,120,282207,276178,284222,278192,300685.0,294656.0,302701.0,296670.0,1
2,0,1,0,0,1,test,1,0,m,Wed Mar 12 2025 19:00:23 GMT-0500 (Central Daylight Time),315268.0,O,z,1356,2,1,101.bmp,-120,-120,102.bmp,120,-120,103.bmp,-120,120,104.bmp,120,120,9410.599999999627,305857.4000000004,7082,no,SM,A,103.bmp,120,-120,282207,276178,284222,278192,309683.0,303654.0,311698.0,305667.0,2
1,1,0,0,0,2,test,1,1,z,Wed Mar 12 2025 19:00:23 GMT-0500 (Central Daylight Time),324531.6000000015,O,z,1221,3,1,105.bmp,-120,-120,106.bmp,120,-120,107.bmp,-120,120,108.bmp,120,120,9259.800000000745,315271.80000000075,7082,yes,SM,A,105.bmp,-120,-120,282207,276178,284222,278192,319094.0,313068.0,321096.0,315080.0,3
3,0,0,1,0,3,test,1,1,m,Wed Mar 12 2025 19:00:23 GMT-0500 (Central Daylight Time),333611.6000000015,O,m,1022,4,1,109.bmp,-120,-120,110.bmp,120,-120,111.bmp,-120,120,112.bmp,120,120,9076.900000000373,324534.7000000011,7082,no,SM,A,109.bmp,-120,120,282207,276178,284222,278192,328359.0,322331.0,330376.0,324344.0,4
2,0,1,0,0,3,test,1,0,z,Wed Mar 12 2025 19:00:23 GMT-0500 (Central Daylight Time),343675.30000000075,O,None,2015,5,1,113.bmp,-120,-120,114.bmp,120,-120,115.bmp,-120,120,116.bmp,120,120,10058.800000000745,333616.5,7082,yes,SM,A,114.bmp,120,-120,282207,276178,284222,278192,337440.0,331413.0,339456.0,333423.0,5
3,0,0,1,0,3,test,1,0,z,Wed Mar 12 2025 19:00:23 GMT-0500 (Central Daylight Time),353740.9000000004,O,None,2016,6,1,117.bmp,-120,-120,118.bmp,120,-120,119.bmp,-120,120,120.bmp,120,120,10059.900000000373,343681.0,7082,yes,SM,A,119.bmp,-120,120,282207,276178,284222,278192,347503.0,341477.0,349520.0,343488.0,6
4,0,0,0,1,3,test,1,0,z,Wed Mar 12 2025 19:00:23 GMT-0500 (Central Daylight Time),363800.7000000011,O,None,2014,7,1,121.bmp,-120,-120,122.bmp,120,-120,123.bmp,-120,120,124.bmp,120,120,10055.800000000745,353744.9000000004,7082,yes,SM,A,124.bmp,120,120,282207,276178,284222,278192,357567.0,351541.0,359583.0,353552.0,7
2,0,1,0,0,4,test,1,1,m,Wed Mar 12 2025 19:00:23 GMT-0500 (Central Daylight Time),373117.6000000015,O,m,1256,8,1,125.bmp,-120,-120,126.bmp,120,-120,127.bmp,-120,120,128.bmp,120,120,9311.800000000745,363805.80000000075,7082,no,SM,A,125.bmp,120,-120,282207,276178,284222,278192,367629.0,361602.0,369645.0,363615.0,8
3,0,0,1,0,5,test,1,1,m,Wed Mar 12 2025 19:00:23 GMT-0500 (Central Daylight Time),382295.4000000004,O,m,1128,9,1,129.bmp,-120,-120,130.bmp,120,-120,131.bmp,-120,120,132.bmp,120,120,9174.699999999255,373120.7000000011,7082,no,SM,A,130.bmp,-120,120,282207,276178,284222,278192,376944.0,370917.0,378958.0,372928.0,9
4,0,0,0,1,5,test,1,0,z,Wed Mar 12 2025 19:00:23 GMT-0500 (Central Daylight Time),391509.1000000015,O,m,1161,10,1,137.bmp,-120,-120,138.bmp,120,-120,139.bmp,-120,120,140.bmp,120,120,9210.0,382299.1000000015,7082,yes,SM,A,140.bmp,120,120,282207,276178,284222,278192,386124.0,380095.0,388141.0,382108.0,10
3,0,0,1,0,6,test,1,1,z,Wed Mar 12 2025 19:00:23 GMT-0500 (Central Daylight Time),400689.7000000011,O,z,1140,11,1,133.bmp,-120,-120,134.bmp,120,-120,135.bmp,-120,120,136.bmp,120,120,9177.599999999627,391512.1000000015,7082,yes,SM,A,135.bmp,-120,120,282207,276178,284222,278192,395336.0,389308.0,397338.0,391322.0,11
2,0,1,0,0,7,test,1,1,m,Wed Mar 12 2025 19:00:23 GMT-0500 (Central Daylight Time),410537.7000000011,O,m,1797,12,1,141.bmp,-120,-120,142.bmp,120,-120,143.bmp,-120,120,144.bmp,120,120,9842.0,400695.7000000011,7082,no,SM,A,141.bmp,120,-120,282207,276178,284222,278192,404516.0,398492.0,406520.0,400504.0,12
3,0,0,1,0,7,test,1,0,m,Wed Mar 12 2025 19:00:23 GMT-0500 (Central Daylight Time),420600.7000000011,O,None,2015,13,1,145.bmp,-120,-120,146.bmp,120,-120,147.bmp,-120,120,148.bmp,120,120,10059.900000000373,410540.80000000075,7082,no,SM,A,146.bmp,-120,120,282207,276178,284222,278192,414365.0,408337.0,416382.0,410350.0,13
1,1,0,0,0,7,test,1,0,z,Wed Mar 12 2025 19:00:23 GMT-0500 (Central Daylight Time),430430.2000000011,O,m,1777,14,1,149.bmp,-120,-120,150.bmp,120,-120,104.bmp,-120,120,101.bmp,120,120,9824.599999999627,420605.6000000015,7082,yes,SM,A,149.bmp,-120,-120,282207,276178,284222,278192,424429.0,418402.0,426445.0,420414.0,14
4,0,0,0,1,8,test,1,1,m,Wed Mar 12 2025 19:00:23 GMT-0500 (Central Daylight Time),439744.30000000075,O,m,1258,15,1,110.bmp,-120,-120,111.bmp,120,-120,112.bmp,-120,120,113.bmp,120,120,9310.5,430433.80000000075,7082,no,SM,A,111.bmp,120,120,282207,276178,284222,278192,434258.0,428230.0,436275.0,430244.0,15
1,1,0,0,0,9,test,1,1,m,Wed Mar 12 2025 19:00:23 GMT-0500 (Central Daylight Time),449458.1000000015,O,m,1656,16,1,102.bmp,-120,-120,103.bmp,120,-120,104.bmp,-120,120,105.bmp,120,120,9710.0,439748.1000000015,7082,no,SM,A,105.bmp,-120,-120,282207,276178,284222,278192,443573.0,437544.0,445591.0,439557.0,16
3,0,0,1,0,10,test,1,1,m,Wed Mar 12 2025 19:00:23 GMT-0500 (Central Daylight Time),459205.4000000004,O,m,1687,17,1,122.bmp,-120,-120,123.bmp,120,-120,124.bmp,-120,120,125.bmp,120,120,9743.699999999255,449461.7000000011,7082,no,SM,A,122.bmp,-120,120,282207,276178,284222,278192,453287.0,447258.0,455303.0,449273.0,17
1,1,0,0,0,11,test,1,1,z,Wed Mar 12 2025 19:00:23 GMT-0500 (Central Daylight Time),468968.7000000011,O,z,1701,18,1,106.bmp,-120,-120,107.bmp,120,-120,108.bmp,-120,120,109.bmp,120,120,9756.300000000745,459212.4000000004,7082,yes,SM,A,106.bmp,-120,-120,282207,276178,284222,278192,463032.0,457009.0,465049.0,459017.0,18
2,0,1,0,0,11,test,1,0,z,Wed Mar 12 2025 19:00:23 GMT-0500 (Central Daylight Time),479032.7000000011,O,None,2016,19,1,126.bmp,-120,-120,127.bmp,120,-120,128.bmp,-120,120,129.bmp,120,120,10056.700000001118,468976.0,7082,yes,SM,A,127.bmp,120,-120,282207,276178,284222,278192,472796.0,466772.0,474813.0,468782.0,19
3,0,0,1,0,12,test,1,1,z,Wed Mar 12 2025 19:00:23 GMT-0500 (Central Daylight Time),488529.0,O,z,1433,20,1,130.bmp,-120,-120,131.bmp,120,-120,132.bmp,-120,120,133.bmp,120,120,9491.199999999255,479037.80000000075,7082,yes,SM,A,132.bmp,-120,120,282207,276178,284222,278192,482861.0,476834.0,484877.0,478845.0,20
1,1,0,0,0,13,test,1,1,m,Wed Mar 12 2025 19:00:23 GMT-0500 (Central Daylight Time),497925.2000000011,O,m,1333,21,1,114.bmp,-120,-120,115.bmp,120,-120,116.bmp,-120,120,117.bmp,120,120,9390.599999999627,488534.6000000015,7082,no,SM,A,116.bmp,-120,-120,282207,276178,284222,278192,492358.0,486331.0,494373.0,488340.0,21
4,0,0,0,1,14,test,1,1,z,Wed Mar 12 2025 19:00:23 GMT-0500 (Central Daylight Time),507923.0,O,z,1939,22,1,118.bmp,-120,-120,119.bmp,120,-120,120.bmp,-120,120,121.bmp,120,120,9993.199999999255,497929.80000000075,7082,yes,SM,A,121.bmp,120,120,282207,276178,284222,278192,501754.0,495726.0,503771.0,497739.0,22
1,1,0,0,0,14,test,1,0,m,Wed Mar 12 2025 19:00:23 GMT-0500 (Central Daylight Time),517986.9000000004,O,None,2015,23,1,134.bmp,-120,-120,135.bmp,120,-120,136.bmp,-120,120,137.bmp,120,120,10060.900000000373,507926.0,7082,no,SM,A,137.bmp,-120,-120,282207,276178,284222,278192,511753.0,505722.0,513768.0,507735.0,23
2,0,1,0,0,14,test,1,0,z,Wed Mar 12 2025 19:00:23 GMT-0500 (Central Daylight Time),527032.7000000011,O,m,990,24,1,142.bmp,-120,-120,143.bmp,120,-120,144.bmp,-120,120,145.bmp,120,120,9040.700000001118,517992.0,7082,yes,SM,A,143.bmp,120,-120,282207,276178,284222,278192,521814.0,515788.0,523832.0,517800.0,24
4,0,0,0,1,15,test,1,1,m,Wed Mar 12 2025 19:00:23 GMT-0500 (Central Daylight Time),536630.3000000007,O,m,1545,25,1,146.bmp,-120,-120,147.bmp,120,-120,148.bmp,-120,120,149.bmp,120,120,9594.400000000373,527035.9000000004,7082,no,SM,A,148.bmp,120,120,282207,276178,284222,278192,530863.0,524832.0,532878.0,526846.0,25
1,1,0,0,0,16,test,1,1,z,Wed Mar 12 2025 19:00:23 GMT-0500 (Central Daylight Time),546493.3000000007,O,z,1815,26,1,138.bmp,-120,-120,139.bmp,120,-120,140.bmp,-120,120,141.bmp,120,120,9859.0,536634.3000000007,7082,yes,SM,A,138.bmp,-120,-120,282207,276178,284222,278192,540457.0,534431.0,542458.0,536442.0,26
4,0,0,0,1,17,test,1,1,z,Wed Mar 12 2025 19:00:23 GMT-0500 (Central Daylight Time),556107.8000000007,O,z,1567,27,1,150.bmp,-120,-120,111.bmp,120,-120,101.bmp,-120,120,102.bmp,120,120,9610.199999999255,546497.6000000015,7082,yes,SM,A,102.bmp,120,120,282207,276178,284222,278192,550322.0,544294.0,552337.0,546307.0,27
3,0,0,1,0,18,test,1,1,m,Wed Mar 12 2025 19:00:23 GMT-0500 (Central Daylight Time),565637.2000000011,O,m,1470,28,1,103.bmp,-120,-120,104.bmp,120,-120,105.bmp,-120,120,106.bmp,120,120,9526.300000000745,556110.9000000004,7082,no,SM,A,103.bmp,-120,120,282207,276178,284222,278192,559936.0,553907.0,561952.0,555921.0,28
2,0,1,0,0,19,test,1,1,z,Wed Mar 12 2025 19:00:23 GMT-0500 (Central Daylight Time),575419.4000000004,O,z,1716,29,1,107.bmp,-120,-120,108.bmp,120,-120,109.bmp,-120,120,110.bmp,120,120,9778.799999998882,565640.6000000015,7082,yes,SM,A,108.bmp,120,-120,282207,276178,284222,278192,569467.0,563437.0,571482.0,565453.0,29
3,0,0,1,0,20,test,1,1,z,Wed Mar 12 2025 19:00:23 GMT-0500 (Central Daylight Time),585248.5,O,z,1767,30,1,111.bmp,-120,-120,112.bmp,120,-120,113.bmp,-120,120,114.bmp,120,120,9824.0,575424.5,7082,yes,SM,A,113.bmp,-120,120,282207,276178,284222,278192,579247.0,573221.0,581262.0,575231.0,30
1,1,0,0,0,20,test,1,0,z,Wed Mar 12 2025 19:00:23 GMT-0500 (Central Daylight Time),594812.0,O,m,1521,31,1,115.bmp,-120,-120,116.bmp,120,-120,117.bmp,-120,120,118.bmp,120,120,9559.199999999255,585252.8000000007,7082,yes,SM,A,115.bmp,-120,-120,282207,276178,284222,278192,589075.0,583049.0,591077.0,585062.0,31
2,0,1,0,0,20,test,1,0,m,Wed Mar 12 2025 19:00:23 GMT-0500 (Central Daylight Time),604808.8000000007,O,z,1941,32,1,119.bmp,-120,-120,120.bmp,120,-120,121.bmp,-120,120,122.bmp,120,120,9992.300000000745,594816.5,7082,no,SM,A,119.bmp,120,-120,282207,276178,284222,278192,598640.0,592613.0,600657.0,594625.0,32
4,0,0,0,1,21,test,1,1,z,Wed Mar 12 2025 19:00:23 GMT-0500 (Central Daylight Time),614639.1000000015,O,z,1785,33,1,131.bmp,-120,-120,132.bmp,120,-120,133.bmp,-120,120,134.bmp,120,120,9827.200000001118,604811.9000000004,7082,yes,SM,A,134.bmp,120,120,282207,276178,284222,278192,608635.0,602609.0,610637.0,604623.0,33
2,0,1,0,0,22,test,1,1,z,Wed Mar 12 2025 19:00:23 GMT-0500 (Central Daylight Time),623869.8000000007,O,z,1183,34,1,123.bmp,-120,-120,124.bmp,120,-120,125.bmp,-120,120,126.bmp,120,120,9226.800000000745,614643.0,7082,yes,SM,A,124.bmp,120,-120,282207,276178,284222,278192,618467.0,612439.0,620482.0,614451.0,34
4,0,0,0,1,23,test,1,1,m,Wed Mar 12 2025 19:00:23 GMT-0500 (Central Daylight Time),633633.4000000004,O,m,1710,35,1,127.bmp,-120,-120,128.bmp,120,-120,129.bmp,-120,120,130.bmp,120,120,9759.400000000373,623874.0,7082,no,SM,A,129.bmp,120,120,282207,276178,284222,278192,627696.0,621670.0,629713.0,623681.0,35
3,0,0,1,0,24,test,1,1,m,Wed Mar 12 2025 19:00:23 GMT-0500 (Central Daylight Time),643230.0,O,m,1545,36,1,135.bmp,-120,-120,136.bmp,120,-120,137.bmp,-120,120,138.bmp,120,120,9593.5,633636.5,7082,no,SM,A,135.bmp,-120,120,282207,276178,284222,278192,637462.0,631433.0,639477.0,633447.0,36
1,1,0,0,0,24,test,1,0,m,Wed Mar 12 2025 19:00:23 GMT-0500 (Central Daylight Time),653292.4000000004,O,None,2014,37,1,139.bmp,-120,-120,140.bmp,120,-120,141.bmp,-120,120,142.bmp,120,120,10059.0,643233.4000000004,7082,no,SM,A,140.bmp,-120,-120,282207,276178,284222,278192,647058.0,641030.0,649074.0,643042.0,37
2,0,1,0,0,25,test,1,1,m,Wed Mar 12 2025 19:00:23 GMT-0500 (Central Daylight Time),662772.9000000004,O,m,1430,38,1,143.bmp,-120,-120,144.bmp,120,-120,145.bmp,-120,120,146.bmp,120,120,9475.699999999255,653297.2000000011,7082,no,SM,A,145.bmp,120,-120,282207,276178,284222,278192,657120.0,651093.0,659137.0,653106.0,38
4,0,0,0,1,25,test,1,0,z,Wed Mar 12 2025 19:00:23 GMT-0500 (Central Daylight Time),672086.4000000004,O,m,1260,39,1,147.bmp,-120,-120,148.bmp,120,-120,149.bmp,-120,120,150.bmp,120,120,9308.400000000373,662778.0,7082,yes,SM,A,150.bmp,120,120,282207,276178,284222,278192,666601.0,660574.0,668618.0,662586.0,39
3,0,0,1,0,26,test,1,1,m,Wed Mar 12 2025 19:00:23 GMT-0500 (Central Daylight Time),681352.6000000015,O,m,1202,40,1,104.bmp,-120,-120,105.bmp,120,-120,106.bmp,-120,120,107.bmp,120,120,9261.800000000745,672090.8000000007,7082,no,SM,A,105.bmp,-120,120,282207,276178,284222,278192,675915.0,669887.0,677932.0,671900.0,40
1,1,0,0,0,27,test,1,1,z,Wed Mar 12 2025 19:00:23 GMT-0500 (Central Daylight Time),690447.5,O,z,1044,41,1,108.bmp,-120,-120,109.bmp,120,-120,110.bmp,-120,120,111.bmp,120,120,9090.799999998882,681356.7000000011,7082,yes,SM,A,108.bmp,-120,-120,282207,276178,284222,278192,685180.0,679153.0,687194.0,681164.0,41
4,0,0,0,1,27,test,1,0,z,Wed Mar 12 2025 19:00:23 GMT-0500 (Central Daylight Time),700511.5,O,None,2015,42,1,112.bmp,-120,-120,113.bmp,120,-120,114.bmp,-120,120,115.bmp,120,120,10060.0,690451.5,7082,yes,SM,A,115.bmp,120,120,282207,276178,284222,278192,694277.0,688248.0,696292.0,690259.0,42
1,1,0,0,0,28,test,1,1,z,Wed Mar 12 2025 19:00:23 GMT-0500 (Central Daylight Time),710007.5,O,z,1458,43,1,116.bmp,-120,-120,117.bmp,120,-120,118.bmp,-120,120,119.bmp,120,120,9490.39999999851,700517.1000000015,7082,yes,SM,A,116.bmp,-120,-120,282207,276178,284222,278192,704338.0,698313.0,706340.0,700325.0,43
4,0,0,0,1,29,test,1,1,m,Wed Mar 12 2025 19:00:23 GMT-0500 (Central Daylight Time),719654.6000000015,O,m,1593,44,1,104.bmp,-120,-120,101.bmp,120,-120,102.bmp,-120,120,103.bmp,120,120,9644.400000000373,710010.2000000011,7082,no,SM,A,104.bmp,120,120,282207,276178,284222,278192,713837.0,707806.0,715853.0,709824.0,44
1,1,0,0,0,30,test,1,1,m,Wed Mar 12 2025 19:00:23 GMT-0500 (Central Daylight Time),728986.5,O,m,1291,45,1,128.bmp,-120,-120,129.bmp,120,-120,130.bmp,-120,120,131.bmp,120,120,9328.599999999627,719657.9000000004,7082,no,SM,A,131.bmp,-120,-120,282207,276178,284222,278192,723481.0,717454.0,725484.0,719469.0,45
1,1,0,0,0,31,test,1,1,m,Wed Mar 12 2025 19:00:23 GMT-0500 (Central Daylight Time),738382.0,O,m,1359,46,1,120.bmp,-120,-120,121.bmp,120,-120,122.bmp,-120,120,123.bmp,120,120,9392.39999999851,728989.6000000015,7082,no,SM,A,121.bmp,-120,-120,282207,276178,284222,278192,732813.0,726786.0,734815.0,728800.0,46
3,0,0,1,0,32,test,1,1,z,Wed Mar 12 2025 19:00:23 GMT-0500 (Central Daylight Time),747895.7000000011,O,z,1458,47,1,124.bmp,-120,-120,125.bmp,120,-120,126.bmp,-120,120,127.bmp,120,120,9510.700000001118,738385.0,7082,yes,SM,A,126.bmp,-120,120,282207,276178,284222,278192,742211.0,736181.0,744228.0,738195.0,47
3,0,0,1,0,33,test,1,1,z,Wed Mar 12 2025 19:00:23 GMT-0500 (Central Daylight Time),757393.6000000015,O,z,1442,48,1,140.bmp,-120,-120,141.bmp,120,-120,142.bmp,-120,120,143.bmp,120,120,9494.700000001118,747898.9000000004,7082,yes,SM,A,142.bmp,-120,120,282207,276178,284222,278192,751724.0,745695.0,753740.0,747709.0,48
2,0,1,0,0,34,test,1,1,z,Wed Mar 12 2025 19:00:23 GMT-0500 (Central Daylight Time),767107.4000000004,O,z,1665,49,1,136.bmp,-120,-120,137.bmp,120,-120,138.bmp,-120,120,139.bmp,120,120,9705.400000000373,757402.0,7082,yes,SM,A,137.bmp,120,-120,282207,276178,284222,278192,761222.0,755198.0,763238.0,757207.0,49
3,0,0,1,0,34,test,1,0,m,Wed Mar 12 2025 19:00:23 GMT-0500 (Central Daylight Time),777170.6000000015,O,None,2015,50,1,132.bmp,-120,-120,133.bmp,120,-120,134.bmp,-120,120,135.bmp,120,120,10060.800000000745,767109.8000000007,7082,no,SM,A,132.bmp,-120,120,282207,276178,284222,278192,770936.0,764906.0,772952.0,766920.0,50
2,0,1,0,0,34,test,1,0,z,Wed Mar 12 2025 19:00:23 GMT-0500 (Central Daylight Time),787235.6000000015,O,None,2014,51,1,144.bmp,-120,-120,145.bmp,120,-120,146.bmp,-120,120,147.bmp,120,120,10060.800000000745,777174.8000000007,7082,yes,SM,A,145.bmp,120,-120,282207,276178,284222,278192,780999.0,774971.0,783017.0,776984.0,51
4,0,0,0,1,35,test,1,1,m,Wed Mar 12 2025 19:00:23 GMT-0500 (Central Daylight Time),796682.0,O,m,1398,52,1,148.bmp,-120,-120,149.bmp,120,-120,150.bmp,-120,120,131.bmp,120,120,9441.699999999255,787240.3000000007,7082,no,SM,A,148.bmp,120,120,282207,276178,284222,278192,791062.0,785037.0,793080.0,787046.0,52
3,0,0,1,0,36,test,1,1,z,Wed Mar 12 2025 19:00:23 GMT-0500 (Central Daylight Time),806495.2000000011,O,z,1752,53,1,101.bmp,-120,-120,102.bmp,120,-120,103.bmp,-120,120,104.bmp,120,120,9809.700000001118,796685.5,7082,yes,SM,A,103.bmp,-120,120,282207,276178,284222,278192,800508.0,794482.0,802526.0,796494.0,53
1,1,0,0,0,37,test,1,1,m,Wed Mar 12 2025 19:00:23 GMT-0500 (Central Daylight Time),816508.3000000007,O,m,1964,54,1,105.bmp,-120,-120,106.bmp,120,-120,107.bmp,-120,120,108.bmp,120,120,10005.199999999255,806503.1000000015,7082,no,SM,A,107.bmp,-120,-120,282207,276178,284222,278192,810323.0,804299.0,812340.0,806308.0,54
4,0,0,0,1,38,test,1,1,z,Wed Mar 12 2025 19:00:23 GMT-0500 (Central Daylight Time),826088.5,O,z,1516,55,1,109.bmp,-120,-120,110.bmp,120,-120,111.bmp,-120,120,112.bmp,120,120,9573.699999999255,816514.8000000007,7082,yes,SM,A,112.bmp,120,120,282207,276178,284222,278192,820336.0,814311.0,822353.0,816321.0,55
2,0,1,0,0,39,test,1,1,m,Wed Mar 12 2025 19:00:23 GMT-0500 (Central Daylight Time),835801.5,O,m,1652,56,1,113.bmp,-120,-120,114.bmp,120,-120,115.bmp,-120,120,116.bmp,120,120,9708.799999998882,826092.7000000011,7082,no,SM,A,113.bmp,120,-120,282207,276178,284222,278192,829917.0,823889.0,831932.0,825902.0,56
4,0,0,0,1,40,test,1,1,m,Wed Mar 12 2025 19:00:23 GMT-0500 (Central Daylight Time),845532.1000000015,O,m,1672,57,1,117.bmp,-120,-120,118.bmp,120,-120,119.bmp,-120,120,120.bmp,120,120,9726.900000000373,835805.2000000011,7082,no,SM,A,118.bmp,120,120,282207,276178,284222,278192,839630.0,833601.0,841646.0,835615.0,57
3,0,0,1,0,41,test,1,1,z,Wed Mar 12 2025 19:00:23 GMT-0500 (Central Daylight Time),855512.6000000015,O,z,1917,58,1,121.bmp,-120,-120,122.bmp,120,-120,123.bmp,-120,120,124.bmp,120,120,9976.900000000373,845535.7000000011,7082,yes,SM,A,123.bmp,-120,120,282207,276178,284222,278192,849359.0,843332.0,851377.0,845345.0,58
2,0,1,0,0,41,test,1,0,m,Wed Mar 12 2025 19:00:23 GMT-0500 (Central Daylight Time),865392.0,O,z,1818,59,1,125.bmp,-120,-120,126.bmp,120,-120,127.bmp,-120,120,128.bmp,120,120,9875.799999998882,855516.2000000011,7082,no,SM,A,128.bmp,120,-120,282207,276178,284222,278192,859340.0,853312.0,861356.0,855325.0,59
1,1,0,0,0,41,test,1,0,z,Wed Mar 12 2025 19:00:23 GMT-0500 (Central Daylight Time),875456.0,O,None,2014,60,1,129.bmp,-120,-120,130.bmp,120,-120,131.bmp,-120,120,132.bmp,120,120,10056.599999999627,865399.4000000004,7082,yes,SM,A,129.bmp,-120,-120,282207,276178,284222,278192,869220.0,863196.0,871238.0,865205.0,60
2,0,1,0,0,42,test,1,1,z,Wed Mar 12 2025 19:00:23 GMT-0500 (Central Daylight Time),884804.4000000004,O,z,1299,61,1,133.bmp,-120,-120,134.bmp,120,-120,135.bmp,-120,120,136.bmp,120,120,9343.699999999255,875460.7000000011,7082,yes,SM,A,134.bmp,120,-120,282207,276178,284222,278192,879285.0,873257.0,881301.0,875269.0,61
4,0,0,0,1,43,test,1,1,z,Wed Mar 12 2025 19:00:23 GMT-0500 (Central Daylight Time),894699.7000000011,O,z,1840,62,1,141.bmp,-120,-120,142.bmp,120,-120,143.bmp,-120,120,144.bmp,120,120,9891.400000000373,884808.3000000007,7082,yes,SM,A,144.bmp,120,120,282207,276178,284222,278192,888631.0,882605.0,890647.0,884616.0,62
1,1,0,0,0,43,test,1,0,m,Wed Mar 12 2025 19:00:23 GMT-0500 (Central Daylight Time),904763.6000000015,O,None,2015,63,1,145.bmp,-120,-120,146.bmp,120,-120,147.bmp,-120,120,148.bmp,120,120,10060.200000001118,894703.4000000004,7082,no,SM,A,145.bmp,-120,120,282207,276178,284222,278192,898527.0,892500.0,900544.0,894513.0,63
2,0,1,0,0,44,test,1,1,z,Wed Mar 12 2025 19:00:23 GMT-0500 (Central Daylight Time),914628.7000000011,O,z,1817,64,1,149.bmp,-120,-120,150.bmp,120,-120,112.bmp,-120,120,101.bmp,120,120,9861.300000000745,904767.4000000004,7082,yes,SM,A,150.bmp,120,-120,282207,276178,284222,278192,908591.0,902564.0,910608.0,904576.0,64
4,0,0,0,1,45,test,1,1,m,Wed Mar 12 2025 19:00:23 GMT-0500 (Central Daylight Time),923924.7000000011,O,m,1249,65,1,102.bmp,-120,-120,103.bmp,120,-120,104.bmp,-120,120,105.bmp,120,120,9292.599999999627,914632.1000000015,7082,no,SM,A,104.bmp,120,120,282207,276178,284222,278192,918453.0,912428.0,920471.0,914440.0,65
3,0,0,1,0,46,test,1,1,m,Wed Mar 12 2025 19:00:23 GMT-0500 (Central Daylight Time),932986.8000000007,O,m,1013,66,1,106.bmp,-120,-120,107.bmp,120,-120,108.bmp,-120,120,109.bmp,120,120,9057.099999999627,923929.7000000011,7082,no,SM,A,109.bmp,-120,120,282207,276178,284222,278192,927752.0,921726.0,929769.0,923737.0,66
2,0,1,0,0,47,test,1,1,m,Wed Mar 12 2025 19:00:23 GMT-0500 (Central Daylight Time),942185.9000000004,O,m,1134,67,1,137.bmp,-120,-120,138.bmp,120,-120,139.bmp,-120,120,140.bmp,120,120,9193.799999998882,932992.1000000015,7082,no,SM,A,139.bmp,120,-120,282207,276178,284222,278192,936817.0,930789.0,938832.0,932801.0,67
3,0,0,1,0,48,test,1,1,z,Wed Mar 12 2025 19:00:23 GMT-0500 (Central Daylight Time),951998.7000000011,O,z,1761,68,1,110.bmp,-120,-120,111.bmp,120,-120,112.bmp,-120,120,113.bmp,120,120,9807.200000001118,942191.5,7082,yes,SM,A,112.bmp,-120,120,282207,276178,284222,278192,946012.0,939988.0,948030.0,941999.0,68
1,1,0,0,0,48,test,1,0,m,Wed Mar 12 2025 19:00:23 GMT-0500 (Central Daylight Time),962062.2000000011,O,None,2015,69,1,114.bmp,-120,-120,115.bmp,120,-120,116.bmp,-120,120,117.bmp,120,120,10059.700000001118,952002.5,7082,no,SM,A,115.bmp,-120,-120,282207,276178,284222,278192,955826.0,949799.0,957843.0,951814.0,69
2,0,1,0,0,48,test,1,0,m,Wed Mar 12 2025 19:00:23 GMT-0500 (Central Daylight Time),972124.9000000004,O,None,2015,70,1,118.bmp,-120,-120,119.bmp,120,-120,120.bmp,-120,120,121.bmp,120,120,10057.799999998882,962067.1000000015,7082,no,SM,A,120.bmp,120,-120,282207,276178,284222,278192,965890.0,959863.0,967906.0,961874.0,70
4,0,0,0,1,48,test,1,0,z,Wed Mar 12 2025 19:00:23 GMT-0500 (Central Daylight Time),982172.4000000004,O,None,2002,71,1,122.bmp,-120,-120,123.bmp,120,-120,124.bmp,-120,120,125.bmp,120,120,10043.099999999627,972129.3000000007,7082,yes,SM,A,125.bmp,120,120,282207,276178,284222,278192,975953.0,969926.0,977966.0,971938.0,71
1,1,0,0,0,48,test,1,0,z,Wed Mar 12 2025 19:00:23 GMT-0500 (Central Daylight Time),992236.4000000004,O,None,2015,72,1,126.bmp,-120,-120,127.bmp,120,-120,128.bmp,-120,120,129.bmp,120,120,10059.799999998882,982176.6000000015,7082,yes,SM,A,126.bmp,-120,-120,282207,276178,284222,278192,986000.0,979973.0,988017.0,981988.0,72
2,0,1,0,0,49,test,1,1,z,Wed Mar 12 2025 19:00:23 GMT-0500 (Central Daylight Time),1001764.9000000004,O,z,1471,73,1,130.bmp,-120,-120,131.bmp,120,-120,132.bmp,-120,120,133.bmp,120,120,9523.5,992241.4000000004,7082,yes,SM,A,131.bmp,120,-120,282207,276178,284222,278192,996063.0,990038.0,998079.0,992048.0,73
4,0,0,0,1,50,test,1,1,m,Wed Mar 12 2025 19:00:23 GMT-0500 (Central Daylight Time),1011065.2000000011,O,m,1235,74,1,134.bmp,-120,-120,135.bmp,120,-120,136.bmp,-120,120,137.bmp,120,120,9298.200000001118,1001767.0,7082,no,SM,A,136.bmp,120,120,282207,276178,284222,278192,1005594.0,999563.0,1007610.0,1001579.0,74
2,0,1,0,0,50,test,1,0,m,Wed Mar 12 2025 19:00:23 GMT-0500 (Central Daylight Time),1021127.4000000004,O,None,2016,75,1,138.bmp,-120,-120,139.bmp,120,-120,140.bmp,-120,120,141.bmp,120,120,10058.299999998882,1011069.1000000015,7082,no,SM,A,141.bmp,120,-120,282207,276178,284222,278192,1014893.0,1008865.0,1016907.0,1010876.0,75
1,1,0,0,0,51,test,1,1,z,Wed Mar 12 2025 19:00:23 GMT-0500 (Central Daylight Time),1030789.4000000004,O,z,1614,76,1,142.bmp,-120,-120,143.bmp,120,-120,144.bmp,-120,120,145.bmp,120,120,9656.5,1021132.9000000004,7082,yes,SM,A,142.bmp,-120,-120,282207,276178,284222,278192,1024955.0,1018929.0,1026971.0,1020939.0,76
3,0,0,1,0,52,test,1,1,z,Wed Mar 12 2025 19:00:23 GMT-0500 (Central Daylight Time),1040619.9000000004,O,z,1771,77,1,150.bmp,-120,-120,111.bmp,120,-120,101.bmp,-120,120,102.bmp,120,120,9826.799999998882,1030793.1000000015,7082,yes,SM,A,101.bmp,-120,120,282207,276178,284222,278192,1034617.0,1028589.0,1036635.0,1030603.0,77
1,1,0,0,0,53,test,1,1,m,Wed Mar 12 2025 19:00:23 GMT-0500 (Central Daylight Time),1049917.1000000015,O,m,1246,78,1,146.bmp,-120,-120,147.bmp,120,-120,148.bmp,-120,120,149.bmp,120,120,9293.200000001118,1040623.9000000004,7082,no,SM,A,147.bmp,-120,-120,282207,276178,284222,278192,1044449.0,1038420.0,1046465.0,1040433.0,78
4,0,0,0,1,54,test,1,1,m,Wed Mar 12 2025 19:00:23 GMT-0500 (Central Daylight Time),1059332.0,O,m,1357,79,1,107.bmp,-120,-120,108.bmp,120,-120,109.bmp,-120,120,110.bmp,120,120,9406.89999999851,1049925.1000000015,7082,no,SM,A,107.bmp,120,120,282207,276178,284222,278192,1053747.0,1047721.0,1055761.0,1049730.0,79
3,0,0,1,0,55,test,1,1,m,Wed Mar 12 2025 19:00:23 GMT-0500 (Central Daylight Time),1068559.9000000004,O,m,1175,80,1,103.bmp,-120,-120,104.bmp,120,-120,105.bmp,-120,120,106.bmp,120,120,9222.799999998882,1059337.1000000015,7082,no,SM,A,106.bmp,-120,120,282207,276178,284222,278192,1063159.0,1057133.0,1065175.0,1059143.0,80
