block_c,block_dur,condition,countdown,datetime,endtime,list,multichar_response,project,response,response_time,session_number,start_end,starttime,subject_id,task,task_vers,trial
,,,,Wed Apr 09 2025 12:25:28 GMT-0500 (Central Daylight Time),,,,I,space,628,1,,,8023,WL,B,
prac,,0,,Wed Apr 09 2025 12:25:28 GMT-0500 (Central Daylight Time),,NA,b,I,b,37178,1,,,8023,WL,B,1.0
prac,,0,,Wed Apr 09 2025 12:25:28 GMT-0500 (Central Daylight Time),,NA,bo,I,o,216,1,,,8023,WL,B,1.0
prac,,0,,Wed Apr 09 2025 12:25:28 GMT-0500 (Central Daylight Time),,NA,boo,I,o,175,1,,,8023,WL,B,1.0
prac,,0,,Wed Apr 09 2025 12:25:28 GMT-0500 (Central Daylight Time),,NA,booa,I,a,313,1,,,8023,WL,B,1.0
prac,,0,,Wed Apr 09 2025 12:25:28 GMT-0500 (Central Daylight Time),,NA,boo,I,backspace,1748,1,,,8023,WL,B,1.0
prac,,0,,Wed Apr 09 2025 12:25:28 GMT-0500 (Central Daylight Time),,NA,boos,I,s,269,1,,,8023,WL,B,1.0
prac,,0,,Wed Apr 09 2025 12:25:28 GMT-0500 (Central Daylight Time),,NA,boost,I,t,386,1,,,8023,WL,B,1.0
prac,,0,,Wed Apr 09 2025 12:25:28 GMT-0500 (Central Daylight Time),,NA,boostenter,I,enter,810,1,,,8023,WL,B,1.0
1,0.5169999599456787,learn,59483.00004005432,Wed Apr 09 2025 12:25:28 GMT-0500 (Central Daylight Time),184569.30000000075,A,g,I,g,506,1,516.7000000011176,184052.59999999963,8023,WL,B,1.0
1,1.0169999599456787,learn,58983.00004005432,Wed Apr 09 2025 12:25:28 GMT-0500 (Central Daylight Time),185069.09999999963,A,gr,I,r,482,1,1016.5,184052.59999999963,8023,WL,B,1.0
1,1.565999984741211,learn,58434.00001525879,Wed Apr 09 2025 12:25:28 GMT-0500 (Central Daylight Time),185618.40000000037,A,gra,I,a,537,1,1565.800000000745,184052.59999999963,8023,WL,B,1.0
1,1.8829998970031738,learn,58117.000102996826,Wed Apr 09 2025 12:25:28 GMT-0500 (Central Daylight Time),185935.09999999963,A,gras,I,s,307,1,1882.5,184052.59999999963,8023,WL,B,1.0
1,2.0160000324249268,learn,57983.99996757507,Wed Apr 09 2025 12:25:28 GMT-0500 (Central Daylight Time),186068.5,A,grass,I,s,119,1,2015.9000000003725,184052.59999999963,8023,WL,B,1.0
1,2.3329999446868896,learn,57667.00005531311,Wed Apr 09 2025 12:25:28 GMT-0500 (Central Daylight Time),186385.0,A,grassenter,I,enter,297,1,2332.4000000003725,184052.59999999963,8023,WL,B,1.0
1,2.865999937057495,learn,57134.000062942505,Wed Apr 09 2025 12:25:28 GMT-0500 (Central Daylight Time),186918.09999999963,A,a,I,a,523,1,532.2999999988824,186385.80000000075,8023,WL,B,2.0
1,3.249000072479248,learn,56750.99992752075,Wed Apr 09 2025 12:25:28 GMT-0500 (Central Daylight Time),187301.30000000075,A,ar,I,r,368,1,915.5,186385.80000000075,8023,WL,B,2.0
1,3.5490000247955322,learn,56450.99997520447,Wed Apr 09 2025 12:25:28 GMT-0500 (Central Daylight Time),187601.20000000112,A,arm,I,m,280,1,1215.4000000003725,186385.80000000075,8023,WL,B,2.0
1,4.332000017166138,learn,55667.99998283386,Wed Apr 09 2025 12:25:28 GMT-0500 (Central Daylight Time),188384.09999999963,A,armenter,I,enter,772,1,1998.2999999988824,186385.80000000075,8023,WL,B,2.0
1,4.865000009536743,learn,55134.99999046326,Wed Apr 09 2025 12:25:28 GMT-0500 (Central Daylight Time),188917.40000000037,A,s,I,s,517,1,532.9000000003725,188384.5,8023,WL,B,3.0
1,5.148999929428101,learn,54851.0000705719,Wed Apr 09 2025 12:25:28 GMT-0500 (Central Daylight Time),189200.59999999963,A,st,I,t,263,1,816.0999999996275,188384.5,8023,WL,B,3.0
1,5.348999977111816,learn,54651.00002288818,Wed Apr 09 2025 12:25:28 GMT-0500 (Central Daylight Time),189400.59999999963,A,sta,I,a,185,1,1016.0999999996275,188384.5,8023,WL,B,3.0
1,5.448999881744385,learn,54551.000118255615,Wed Apr 09 2025 12:25:28 GMT-0500 (Central Daylight Time),189500.59999999963,A,star,I,r,92,1,1116.0999999996275,188384.5,8023,WL,B,3.0
1,6.265000104904175,learn,53734.999895095825,Wed Apr 09 2025 12:25:28 GMT-0500 (Central Daylight Time),190317.0,A,starenter,I,enter,799,1,1932.5,188384.5,8023,WL,B,3.0
1,6.7809998989105225,learn,53219.00010108948,Wed Apr 09 2025 12:25:28 GMT-0500 (Central Daylight Time),190833.30000000075,A,a,I,a,504,1,515.9000000003725,190317.40000000037,8023,WL,B,4.0
1,7.04800009727478,learn,52951.99990272522,Wed Apr 09 2025 12:25:28 GMT-0500 (Central Daylight Time),191099.90000000037,A,ar,I,r,252,1,782.5,190317.40000000037,8023,WL,B,4.0
1,7.247999906539917,learn,52752.00009346008,Wed Apr 09 2025 12:25:28 GMT-0500 (Central Daylight Time),191299.90000000037,A,arm,I,m,185,1,982.5,190317.40000000037,8023,WL,B,4.0
1,7.831000089645386,learn,52168.999910354614,Wed Apr 09 2025 12:25:28 GMT-0500 (Central Daylight Time),191882.90000000037,A,armenter,I,enter,570,1,1565.5,190317.40000000037,8023,WL,B,4.0
1,8.96399998664856,learn,51036.00001335144,Wed Apr 09 2025 12:25:28 GMT-0500 (Central Daylight Time),193016.09999999963,A,s,I,s,1121,1,1132.699999999255,191883.40000000037,8023,WL,B,5.0
1,9.230999946594238,learn,50769.00005340576,Wed Apr 09 2025 12:25:28 GMT-0500 (Central Daylight Time),193282.80000000075,A,st,I,t,261,1,1399.4000000003725,191883.40000000037,8023,WL,B,5.0
1,9.530999898910522,learn,50469.00010108948,Wed Apr 09 2025 12:25:28 GMT-0500 (Central Daylight Time),193582.80000000075,A,str,I,r,291,1,1699.4000000003725,191883.40000000037,8023,WL,B,5.0
1,9.813999891281128,learn,50186.00010871887,Wed Apr 09 2025 12:25:28 GMT-0500 (Central Daylight Time),193866.0,A,stre,I,e,263,1,1982.5999999996275,191883.40000000037,8023,WL,B,5.0
1,9.96399998664856,learn,50036.00001335144,Wed Apr 09 2025 12:25:28 GMT-0500 (Central Daylight Time),194015.90000000037,A,stree,I,e,140,1,2132.5,191883.40000000037,8023,WL,B,5.0
1,10.263999938964844,learn,49736.000061035156,Wed Apr 09 2025 12:25:28 GMT-0500 (Central Daylight Time),194315.5,A,street,I,t,294,1,2432.0999999996275,191883.40000000037,8023,WL,B,5.0
1,10.879999876022339,learn,49120.00012397766,Wed Apr 09 2025 12:25:28 GMT-0500 (Central Daylight Time),194932.09999999963,A,streetenter,I,enter,602,1,3048.699999999255,191883.40000000037,8023,WL,B,5.0
1,12.246000051498413,learn,47753.99994850159,Wed Apr 09 2025 12:25:28 GMT-0500 (Central Daylight Time),196298.20000000112,A,p,I,p,1344,1,1365.800000000745,194932.40000000037,8023,WL,B,6.0
1,12.379999876022339,learn,47620.00012397766,Wed Apr 09 2025 12:25:28 GMT-0500 (Central Daylight Time),196431.70000000112,A,pi,I,i,122,1,1499.300000000745,194932.40000000037,8023,WL,B,6.0
1,12.729000091552734,learn,47270.999908447266,Wed Apr 09 2025 12:25:28 GMT-0500 (Central Daylight Time),196781.40000000037,A,pip,I,p,333,1,1849.0,194932.40000000037,8023,WL,B,6.0
1,13.145999908447266,learn,46854.000091552734,Wed Apr 09 2025 12:25:28 GMT-0500 (Central Daylight Time),197197.90000000037,A,pipe,I,e,408,1,2265.5,194932.40000000037,8023,WL,B,6.0
1,13.513000011444092,learn,46486.99998855591,Wed Apr 09 2025 12:25:28 GMT-0500 (Central Daylight Time),197564.5,A,pipeenter,I,enter,359,1,2632.0999999996275,194932.40000000037,8023,WL,B,6.0
1,14.312000036239624,learn,45687.999963760376,Wed Apr 09 2025 12:25:28 GMT-0500 (Central Daylight Time),198364.30000000075,A,w,I,w,793,1,799.5,197564.80000000075,8023,WL,B,7.0
1,14.411999940872192,learn,45588.00005912781,Wed Apr 09 2025 12:25:28 GMT-0500 (Central Daylight Time),198464.40000000037,A,wi,I,i,80,1,899.5999999996275,197564.80000000075,8023,WL,B,7.0
1,14.611999988555908,learn,45388.00001144409,Wed Apr 09 2025 12:25:28 GMT-0500 (Central Daylight Time),198664.40000000037,A,win,I,n,188,1,1099.5999999996275,197564.80000000075,8023,WL,B,7.0
1,14.828999996185303,learn,45171.0000038147,Wed Apr 09 2025 12:25:28 GMT-0500 (Central Daylight Time),198880.90000000037,A,wind,I,d,197,1,1316.0999999996275,197564.80000000075,8023,WL,B,7.0
1,14.996000051498413,learn,45003.99994850159,Wed Apr 09 2025 12:25:28 GMT-0500 (Central Daylight Time),199047.70000000112,A,windo,I,o,148,1,1482.9000000003725,197564.80000000075,8023,WL,B,7.0
1,15.411999940872192,learn,44588.00005912781,Wed Apr 09 2025 12:25:28 GMT-0500 (Central Daylight Time),199464.09999999963,A,window,I,w,398,1,1899.2999999988824,197564.80000000075,8023,WL,B,7.0
1,16.01200008392334,learn,43987.99991607666,Wed Apr 09 2025 12:25:28 GMT-0500 (Central Daylight Time),200064.0,A,windowenter,I,enter,580,1,2499.199999999255,197564.80000000075,8023,WL,B,7.0
1,18.92799997329712,learn,41072.00002670288,Wed Apr 09 2025 12:25:28 GMT-0500 (Central Daylight Time),202979.90000000037,A,s,I,s,2901,1,2915.5999999996275,200064.30000000075,8023,WL,B,8.0
1,19.41100001335144,learn,40588.99998664856,Wed Apr 09 2025 12:25:28 GMT-0500 (Central Daylight Time),203462.90000000037,A,st,I,t,466,1,3398.5999999996275,200064.30000000075,8023,WL,B,8.0
1,19.76099991798401,learn,40239.00008201599,Wed Apr 09 2025 12:25:28 GMT-0500 (Central Daylight Time),203812.90000000037,A,str,I,r,335,1,3748.5999999996275,200064.30000000075,8023,WL,B,8.0
1,20.111000061035156,learn,39888.999938964844,Wed Apr 09 2025 12:25:28 GMT-0500 (Central Daylight Time),204162.59999999963,A,stre,I,e,328,1,4098.299999998882,200064.30000000075,8023,WL,B,8.0
1,20.26099991798401,learn,39739.00008201599,Wed Apr 09 2025 12:25:28 GMT-0500 (Central Daylight Time),204312.5,A,stree,I,e,139,1,4248.199999999255,200064.30000000075,8023,WL,B,8.0
1,20.57699990272522,learn,39423.00009727478,Wed Apr 09 2025 12:25:28 GMT-0500 (Central Daylight Time),204629.20000000112,A,street,I,t,310,1,4564.9000000003725,200064.30000000075,8023,WL,B,8.0
1,21.32699990272522,learn,38673.00009727478,Wed Apr 09 2025 12:25:28 GMT-0500 (Central Daylight Time),205378.90000000037,A,streetenter,I,enter,737,1,5314.5999999996275,200064.30000000075,8023,WL,B,8.0
1,43.53699994087219,learn,16463.000059127808,Wed Apr 09 2025 12:25:28 GMT-0500 (Central Daylight Time),227588.5,A,enter,I,enter,22195,1,22209.299999998882,205379.20000000112,8023,WL,B,9.0
1,44.0699999332428,learn,15930.000066757202,Wed Apr 09 2025 12:25:28 GMT-0500 (Central Daylight Time),228121.59999999963,A,enter,I,enter,512,1,532.6999999992549,227588.90000000037,8023,WL,B,10.0
1,45.5550000667572,learn,14444.999933242798,Wed Apr 09 2025 12:25:28 GMT-0500 (Central Daylight Time),229607.0,A,enter,I,enter,1477,1,1485.199999999255,228121.80000000075,8023,WL,B,11.0
1,46.51900005340576,learn,13480.999946594238,Wed Apr 09 2025 12:25:28 GMT-0500 (Central Daylight Time),230570.80000000075,A,enter,I,enter,958,1,963.5999999996275,229607.20000000112,8023,WL,B,12.0
1,47.18499994277954,learn,12815.000057220459,Wed Apr 09 2025 12:25:28 GMT-0500 (Central Daylight Time),231237.30000000075,A,enter,I,enter,659,1,666.2000000011176,230571.09999999963,8023,WL,B,13.0
1,47.88499999046326,learn,12115.000009536743,Wed Apr 09 2025 12:25:28 GMT-0500 (Central Daylight Time),231937.09999999963,A,enter,I,enter,689,1,699.5,231237.59999999963,8023,WL,B,14.0
1,48.83500003814697,learn,11164.999961853027,Wed Apr 09 2025 12:25:28 GMT-0500 (Central Daylight Time),232886.90000000037,A,enter,I,enter,932,1,949.4000000003725,231937.5,8023,WL,B,15.0
2,1.1499998569488525,learn,58850.00014305115,Wed Apr 09 2025 12:25:28 GMT-0500 (Central Daylight Time),313478.9000000004,A,f,I,f,1134,1,1149.5999999996275,312329.30000000075,8023,WL,B,1.0
2,1.315999984741211,learn,58684.00001525879,Wed Apr 09 2025 12:25:28 GMT-0500 (Central Daylight Time),313645.30000000075,A,fi,I,i,159,1,1316.0,312329.30000000075,8023,WL,B,1.0
2,1.6159999370574951,learn,58384.000062942505,Wed Apr 09 2025 12:25:28 GMT-0500 (Central Daylight Time),313945.0999999996,A,fir,I,r,281,1,1615.7999999988824,312329.30000000075,8023,WL,B,1.0
2,2.0829999446868896,learn,57917.00005531311,Wed Apr 09 2025 12:25:28 GMT-0500 (Central Daylight Time),314411.9000000004,A,fire,I,e,453,1,2082.5999999996275,312329.30000000075,8023,WL,B,1.0
2,3.0320000648498535,learn,56967.99993515015,Wed Apr 09 2025 12:25:28 GMT-0500 (Central Daylight Time),315361.4000000004,A,fireenter,I,enter,931,1,3032.0999999996275,312329.30000000075,8023,WL,B,1.0
2,3.5989999771118164,learn,56401.00002288818,Wed Apr 09 2025 12:25:28 GMT-0500 (Central Daylight Time),315927.80000000075,A,w,I,w,557,1,566.0999999996275,315361.7000000011,8023,WL,B,2.0
2,3.7319998741149902,learn,56268.00012588501,Wed Apr 09 2025 12:25:28 GMT-0500 (Central Daylight Time),316061.0,A,wi,I,i,118,1,699.2999999988824,315361.7000000011,8023,WL,B,2.0
2,4.065000057220459,learn,55934.99994277954,Wed Apr 09 2025 12:25:28 GMT-0500 (Central Daylight Time),316394.5999999996,A,win,I,n,313,1,1032.8999999985099,315361.7000000011,8023,WL,B,2.0
2,4.381999969482422,learn,55618.00003051758,Wed Apr 09 2025 12:25:28 GMT-0500 (Central Daylight Time),316711.0999999996,A,wind,I,d,299,1,1349.3999999985099,315361.7000000011,8023,WL,B,2.0
2,4.615000009536743,learn,55384.99999046326,Wed Apr 09 2025 12:25:28 GMT-0500 (Central Daylight Time),316944.2000000011,A,windo,I,o,215,1,1582.5,315361.7000000011,8023,WL,B,2.0
2,5.047999858856201,learn,54952.0001411438,Wed Apr 09 2025 12:25:28 GMT-0500 (Central Daylight Time),317377.4000000004,A,window,I,w,414,1,2015.699999999255,315361.7000000011,8023,WL,B,2.0
2,5.697999954223633,learn,54302.00004577637,Wed Apr 09 2025 12:25:28 GMT-0500 (Central Daylight Time),318027.0999999996,A,windowenter,I,enter,637,1,2665.39999999851,315361.7000000011,8023,WL,B,2.0
2,7.513999938964844,learn,52486.000061035156,Wed Apr 09 2025 12:25:28 GMT-0500 (Central Daylight Time),319843.30000000075,A,p,I,p,1803,1,1815.7000000011176,318027.5999999996,8023,WL,B,3.0
2,7.697000026702881,learn,52302.99997329712,Wed Apr 09 2025 12:25:28 GMT-0500 (Central Daylight Time),320026.5999999996,A,pu,I,u,163,1,1999.0,318027.5999999996,8023,WL,B,3.0
2,7.897000074386597,learn,52102.9999256134,Wed Apr 09 2025 12:25:28 GMT-0500 (Central Daylight Time),320226.5,A,pup,I,p,188,1,2198.9000000003725,318027.5999999996,8023,WL,B,3.0
2,8.19700002670288,learn,51802.99997329712,Wed Apr 09 2025 12:25:28 GMT-0500 (Central Daylight Time),320526.5,A,pupi,I,i,284,1,2498.9000000003725,318027.5999999996,8023,WL,B,3.0
2,9.364000082015991,learn,50635.99991798401,Wed Apr 09 2025 12:25:28 GMT-0500 (Central Daylight Time),321692.80000000075,A,pupil,I,l,1151,1,3665.2000000011176,318027.5999999996,8023,WL,B,3.0
2,9.77999997138977,learn,50220.00002861023,Wed Apr 09 2025 12:25:28 GMT-0500 (Central Daylight Time),322109.30000000075,A,pupilenter,I,enter,409,1,4081.7000000011176,318027.5999999996,8023,WL,B,3.0
2,10.44700002670288,learn,49552.99997329712,Wed Apr 09 2025 12:25:28 GMT-0500 (Central Daylight Time),322775.7000000011,A,w,I,w,657,1,666.0,322109.7000000011,8023,WL,B,4.0
2,10.579999923706055,learn,49420.000076293945,Wed Apr 09 2025 12:25:28 GMT-0500 (Central Daylight Time),322909.0999999996,A,wi,I,i,119,1,799.3999999985099,322109.7000000011,8023,WL,B,4.0
2,10.77999997138977,learn,49220.00002861023,Wed Apr 09 2025 12:25:28 GMT-0500 (Central Daylight Time),323108.9000000004,A,wif,I,f,193,1,999.1999999992549,322109.7000000011,8023,WL,B,4.0
2,11.180000066757202,learn,48819.9999332428,Wed Apr 09 2025 12:25:28 GMT-0500 (Central Daylight Time),323509.0,A,wife,I,e,393,1,1399.2999999988824,322109.7000000011,8023,WL,B,4.0
2,11.728999853134155,learn,48271.000146865845,Wed Apr 09 2025 12:25:28 GMT-0500 (Central Daylight Time),324058.5,A,wifeenter,I,enter,537,1,1948.7999999988824,322109.7000000011,8023,WL,B,4.0
2,12.246000051498413,learn,47753.99994850159,Wed Apr 09 2025 12:25:28 GMT-0500 (Central Daylight Time),324575.0,A,d,I,d,508,1,516.1999999992549,324058.80000000075,8023,WL,B,5.0
2,12.496000051498413,learn,47503.99994850159,Wed Apr 09 2025 12:25:28 GMT-0500 (Central Daylight Time),324825.0999999996,A,do,I,o,239,1,766.2999999988824,324058.80000000075,8023,WL,B,5.0
2,12.812000036239624,learn,47187.999963760376,Wed Apr 09 2025 12:25:28 GMT-0500 (Central Daylight Time),325140.9000000004,A,doo,I,o,165,1,1082.0999999996275,324058.80000000075,8023,WL,B,5.0
2,12.91599988937378,learn,47084.00011062622,Wed Apr 09 2025 12:25:28 GMT-0500 (Central Daylight Time),325244.7000000011,A,door,I,r,81,1,1185.9000000003725,324058.80000000075,8023,WL,B,5.0
2,13.645999908447266,learn,46354.000091552734,Wed Apr 09 2025 12:25:28 GMT-0500 (Central Daylight Time),325974.7000000011,A,doorenter,I,enter,713,1,1915.9000000003725,324058.80000000075,8023,WL,B,5.0
2,14.211999893188477,learn,45788.00010681152,Wed Apr 09 2025 12:25:28 GMT-0500 (Central Daylight Time),326541.0999999996,A,s,I,s,552,1,566.0999999996275,325975.0,8023,WL,B,6.0
2,14.562000036239624,learn,45437.999963760376,Wed Apr 09 2025 12:25:28 GMT-0500 (Central Daylight Time),326891.2000000011,A,st,I,t,329,1,916.2000000011176,325975.0,8023,WL,B,6.0
2,14.84500002861023,learn,45154.99997138977,Wed Apr 09 2025 12:25:28 GMT-0500 (Central Daylight Time),327174.30000000075,A,str,I,r,267,1,1199.300000000745,325975.0,8023,WL,B,6.0
2,15.128000020980835,learn,44871.999979019165,Wed Apr 09 2025 12:25:28 GMT-0500 (Central Daylight Time),327457.5999999996,A,stre,I,e,272,1,1482.5999999996275,325975.0,8023,WL,B,6.0
2,15.26200008392334,learn,44737.99991607666,Wed Apr 09 2025 12:25:28 GMT-0500 (Central Daylight Time),327590.9000000004,A,stree,I,e,117,1,1615.9000000003725,325975.0,8023,WL,B,6.0
2,15.51200008392334,learn,44487.99991607666,Wed Apr 09 2025 12:25:28 GMT-0500 (Central Daylight Time),327840.9000000004,A,street,I,t,239,1,1865.9000000003725,325975.0,8023,WL,B,6.0
2,15.878000020980835,learn,44121.999979019165,Wed Apr 09 2025 12:25:28 GMT-0500 (Central Daylight Time),328207.4000000004,A,streetenter,I,enter,357,1,2232.4000000003725,325975.0,8023,WL,B,6.0
2,16.394999980926514,learn,43605.000019073486,Wed Apr 09 2025 12:25:28 GMT-0500 (Central Daylight Time),328723.9000000004,A,s,I,s,502,1,516.3000000007451,328207.5999999996,8023,WL,B,7.0
2,16.527999877929688,learn,43472.00012207031,Wed Apr 09 2025 12:25:28 GMT-0500 (Central Daylight Time),328857.5,A,sk,I,k,122,1,649.9000000003725,328207.5999999996,8023,WL,B,7.0
2,16.777999877929688,learn,43222.00012207031,Wed Apr 09 2025 12:25:28 GMT-0500 (Central Daylight Time),329107.0999999996,A,ski,I,i,245,1,899.5,328207.5999999996,8023,WL,B,7.0
2,17.8439998626709,learn,42156.0001373291,Wed Apr 09 2025 12:25:28 GMT-0500 (Central Daylight Time),330173.5,A,skin,I,n,1059,1,1965.9000000003725,328207.5999999996,8023,WL,B,7.0
2,18.194000005722046,learn,41805.999994277954,Wed Apr 09 2025 12:25:28 GMT-0500 (Central Daylight Time),330523.2000000011,A,skinenter,I,enter,345,1,2315.60000000149,328207.5999999996,8023,WL,B,7.0
2,18.76099991798401,learn,41239.00008201599,Wed Apr 09 2025 12:25:28 GMT-0500 (Central Daylight Time),331089.9000000004,A,a,I,a,555,1,566.4000000003725,330523.5,8023,WL,B,8.0
2,19.060999870300293,learn,40939.00012969971,Wed Apr 09 2025 12:25:28 GMT-0500 (Central Daylight Time),331390.0,A,ar,I,r,284,1,866.5,330523.5,8023,WL,B,8.0
2,19.3439998626709,learn,40656.0001373291,Wed Apr 09 2025 12:25:28 GMT-0500 (Central Daylight Time),331673.0,A,arm,I,m,272,1,1149.5,330523.5,8023,WL,B,8.0
2,19.944000005722046,learn,40055.999994277954,Wed Apr 09 2025 12:25:28 GMT-0500 (Central Daylight Time),332272.9000000004,A,armenter,I,enter,581,1,1749.4000000003725,330523.5,8023,WL,B,8.0
2,21.609999895095825,learn,38390.000104904175,Wed Apr 09 2025 12:25:28 GMT-0500 (Central Daylight Time),333939.0,A,c,I,c,1646,1,1665.9000000003725,332273.0999999996,8023,WL,B,9.0
2,21.743000030517578,learn,38256.99996948242,Wed Apr 09 2025 12:25:28 GMT-0500 (Central Daylight Time),334072.2000000011,A,ci,I,i,123,1,1799.1000000014901,332273.0999999996,8023,WL,B,9.0
2,22.359999895095825,learn,37640.000104904175,Wed Apr 09 2025 12:25:28 GMT-0500 (Central Daylight Time),334688.9000000004,A,cit,I,t,606,1,2415.800000000745,332273.0999999996,8023,WL,B,9.0
2,22.55900001525879,learn,37440.99998474121,Wed Apr 09 2025 12:25:28 GMT-0500 (Central Daylight Time),334888.5999999996,A,city,I,y,182,1,2615.5,332273.0999999996,8023,WL,B,9.0
2,23.20899987220764,learn,36791.00012779236,Wed Apr 09 2025 12:25:28 GMT-0500 (Central Daylight Time),335538.4000000004,A,cityenter,I,enter,638,1,3265.300000000745,332273.0999999996,8023,WL,B,9.0
2,24.72499990463257,learn,35275.00009536743,Wed Apr 09 2025 12:25:28 GMT-0500 (Central Daylight Time),337054.5999999996,A,g,I,g,1508,1,1516.0,335538.5999999996,8023,WL,B,10.0
2,24.991999864578247,learn,35008.00013542175,Wed Apr 09 2025 12:25:28 GMT-0500 (Central Daylight Time),337321.30000000075,A,gr,I,r,256,1,1782.7000000011176,335538.5999999996,8023,WL,B,10.0
2,25.191999912261963,learn,34808.00008773804,Wed Apr 09 2025 12:25:28 GMT-0500 (Central Daylight Time),337521.2000000011,A,gra,I,a,181,1,1982.6000000014901,335538.5999999996,8023,WL,B,10.0
2,25.47499990463257,learn,34525.00009536743,Wed Apr 09 2025 12:25:28 GMT-0500 (Central Daylight Time),337804.30000000075,A,gras,I,s,277,1,2265.7000000011176,335538.5999999996,8023,WL,B,10.0
2,25.64199995994568,learn,34358.00004005432,Wed Apr 09 2025 12:25:28 GMT-0500 (Central Daylight Time),337971.0999999996,A,grass,I,s,162,1,2432.5,335538.5999999996,8023,WL,B,10.0
2,26.057999849319458,learn,33942.00015068054,Wed Apr 09 2025 12:25:28 GMT-0500 (Central Daylight Time),338387.4000000004,A,grassenter,I,enter,395,1,2848.800000000745,335538.5999999996,8023,WL,B,10.0
2,32.90599989891052,learn,27094.000101089478,Wed Apr 09 2025 12:25:28 GMT-0500 (Central Daylight Time),345235.30000000075,A,f,I,f,6835,1,6847.5,338387.80000000075,8023,WL,B,11.0
2,33.02300000190735,learn,26976.99999809265,Wed Apr 09 2025 12:25:28 GMT-0500 (Central Daylight Time),345351.9000000004,A,fi,I,i,107,1,6964.0999999996275,338387.80000000075,8023,WL,B,11.0
2,34.32299995422363,learn,25677.000045776367,Wed Apr 09 2025 12:25:28 GMT-0500 (Central Daylight Time),346651.7000000011,A,f,I,backspace,1287,1,8263.900000000373,338387.80000000075,8023,WL,B,11.0
2,34.5220000743866,learn,25477.999925613403,Wed Apr 09 2025 12:25:28 GMT-0500 (Central Daylight Time),346851.5,A,,I,backspace,194,1,8463.699999999255,338387.80000000075,8023,WL,B,11.0
2,38.47099995613098,learn,21529.00004386902,Wed Apr 09 2025 12:25:28 GMT-0500 (Central Daylight Time),350800.2000000011,A,enter,I,enter,3931,1,12412.400000000373,338387.80000000075,8023,WL,B,11.0
2,39.25399994850159,learn,20746.000051498413,Wed Apr 09 2025 12:25:28 GMT-0500 (Central Daylight Time),351583.4000000004,A,enter,I,enter,766,1,782.6999999992549,350800.7000000011,8023,WL,B,12.0
2,39.75399994850159,learn,20246.000051498413,Wed Apr 09 2025 12:25:28 GMT-0500 (Central Daylight Time),352083.30000000075,A,enter,I,enter,495,1,499.59999999962747,351583.7000000011,8023,WL,B,13.0
2,40.78699994087219,learn,19213.000059127808,Wed Apr 09 2025 12:25:28 GMT-0500 (Central Daylight Time),353116.0999999996,A,enter,I,enter,1019,1,1032.5,352083.5999999996,8023,WL,B,14.0
2,42.3199999332428,learn,17680.000066757202,Wed Apr 09 2025 12:25:28 GMT-0500 (Central Daylight Time),354649.0999999996,A,enter,I,enter,1522,1,1532.5999999996275,353116.5,8023,WL,B,15.0
3,1.2669999599456787,learn,58733.00004005432,Wed Apr 09 2025 12:25:28 GMT-0500 (Central Daylight Time),432175.0,A,c,I,c,1259,1,1266.5,430908.5,8023,WL,B,1.0
3,1.4670000076293945,learn,58532.999992370605,Wed Apr 09 2025 12:25:28 GMT-0500 (Central Daylight Time),432374.9000000004,A,cl,I,l,191,1,1466.4000000003725,430908.5,8023,WL,B,1.0
3,1.7329998016357422,learn,58267.00019836426,Wed Apr 09 2025 12:25:28 GMT-0500 (Central Daylight Time),432641.4000000004,A,clo,I,o,256,1,1732.9000000003725,430908.5,8023,WL,B,1.0
3,1.8999998569488525,learn,58100.00014305115,Wed Apr 09 2025 12:25:28 GMT-0500 (Central Daylight Time),432807.9000000004,A,cloc,I,c,157,1,1899.4000000003725,430908.5,8023,WL,B,1.0
3,2.0829999446868896,learn,57917.00005531311,Wed Apr 09 2025 12:25:28 GMT-0500 (Central Daylight Time),432991.2000000011,A,clock,I,k,174,1,2082.7000000011176,430908.5,8023,WL,B,1.0
3,2.4489998817443848,learn,57551.000118255615,Wed Apr 09 2025 12:25:28 GMT-0500 (Central Daylight Time),433357.80000000075,A,clockenter,I,enter,351,1,2449.300000000745,430908.5,8023,WL,B,1.0
3,3.0829999446868896,learn,56917.00005531311,Wed Apr 09 2025 12:25:28 GMT-0500 (Central Daylight Time),433991.0999999996,A,p,I,p,616,1,633.0,433358.0999999996,8023,WL,B,2.0
3,3.298999786376953,learn,56701.00021362305,Wed Apr 09 2025 12:25:28 GMT-0500 (Central Daylight Time),434207.5,A,pu,I,u,199,1,849.4000000003725,433358.0999999996,8023,WL,B,2.0
3,3.498999834060669,learn,56501.00016593933,Wed Apr 09 2025 12:25:28 GMT-0500 (Central Daylight Time),434407.5,A,pup,I,p,191,1,1049.4000000003725,433358.0999999996,8023,WL,B,2.0
3,3.8489999771118164,learn,56151.00002288818,Wed Apr 09 2025 12:25:28 GMT-0500 (Central Daylight Time),434757.4000000004,A,pupi,I,i,343,1,1399.300000000745,433358.0999999996,8023,WL,B,2.0
3,4.165999889373779,learn,55834.00011062622,Wed Apr 09 2025 12:25:28 GMT-0500 (Central Daylight Time),435073.9000000004,A,pupil,I,l,305,1,1715.800000000745,433358.0999999996,8023,WL,B,2.0
3,4.998999834060669,learn,55001.00016593933,Wed Apr 09 2025 12:25:28 GMT-0500 (Central Daylight Time),435907.4000000004,A,pupilenter,I,enter,828,1,2549.300000000745,433358.0999999996,8023,WL,B,2.0
3,6.681999921798706,learn,53318.000078201294,Wed Apr 09 2025 12:25:28 GMT-0500 (Central Daylight Time),437590.0,A,d,I,d,1667,1,1682.4000000003725,435907.5999999996,8023,WL,B,3.0
3,7.164999961853027,learn,52835.00003814697,Wed Apr 09 2025 12:25:28 GMT-0500 (Central Daylight Time),438073.0,A,do,I,o,472,1,2165.4000000003725,435907.5999999996,8023,WL,B,3.0
3,7.31499981880188,learn,52685.00018119812,Wed Apr 09 2025 12:25:28 GMT-0500 (Central Daylight Time),438222.9000000004,A,doo,I,o,133,1,2315.300000000745,435907.5999999996,8023,WL,B,3.0
3,7.5309998989105225,learn,52469.00010108948,Wed Apr 09 2025 12:25:28 GMT-0500 (Central Daylight Time),438439.5,A,door,I,r,208,1,2531.9000000003725,435907.5999999996,8023,WL,B,3.0
3,8.080999851226807,learn,51919.00014877319,Wed Apr 09 2025 12:25:28 GMT-0500 (Central Daylight Time),438989.5,A,doorenter,I,enter,535,1,3081.9000000003725,435907.5999999996,8023,WL,B,3.0
3,8.530999898910522,learn,51469.00010108948,Wed Apr 09 2025 12:25:28 GMT-0500 (Central Daylight Time),439439.2000000011,A,s,I,s,433,1,449.40000000037253,438989.80000000075,8023,WL,B,4.0
3,8.813999891281128,learn,51186.00010871887,Wed Apr 09 2025 12:25:28 GMT-0500 (Central Daylight Time),439722.5,A,st,I,t,271,1,732.6999999992549,438989.80000000075,8023,WL,B,4.0
3,9.113999843597412,learn,50886.00015640259,Wed Apr 09 2025 12:25:28 GMT-0500 (Central Daylight Time),440022.4000000004,A,str,I,r,284,1,1032.5999999996275,438989.80000000075,8023,WL,B,4.0
3,9.38099980354309,learn,50619.00019645691,Wed Apr 09 2025 12:25:28 GMT-0500 (Central Daylight Time),440289.2000000011,A,stre,I,e,248,1,1299.4000000003725,438989.80000000075,8023,WL,B,4.0
3,9.530999898910522,learn,50469.00010108948,Wed Apr 09 2025 12:25:28 GMT-0500 (Central Daylight Time),440439.0,A,stree,I,e,141,1,1449.199999999255,438989.80000000075,8023,WL,B,4.0
3,9.79699993133545,learn,50203.00006866455,Wed Apr 09 2025 12:25:28 GMT-0500 (Central Daylight Time),440705.5,A,street,I,t,247,1,1715.699999999255,438989.80000000075,8023,WL,B,4.0
3,10.596999883651733,learn,49403.00011634827,Wed Apr 09 2025 12:25:28 GMT-0500 (Central Daylight Time),441505.30000000075,A,streetenter,I,enter,781,1,2515.5,438989.80000000075,8023,WL,B,4.0
3,11.04699993133545,learn,48953.00006866455,Wed Apr 09 2025 12:25:28 GMT-0500 (Central Daylight Time),441955.0999999996,A,g,I,g,437,1,449.5,441505.5999999996,8023,WL,B,5.0
3,11.346999883651733,learn,48653.00011634827,Wed Apr 09 2025 12:25:28 GMT-0500 (Central Daylight Time),442255.30000000075,A,gr,I,r,283,1,749.7000000011176,441505.5999999996,8023,WL,B,5.0
3,11.52999997138977,learn,48470.00002861023,Wed Apr 09 2025 12:25:28 GMT-0500 (Central Daylight Time),442438.4000000004,A,gra,I,a,167,1,932.8000000007451,441505.5999999996,8023,WL,B,5.0
3,11.824999809265137,learn,48175.00019073486,Wed Apr 09 2025 12:25:28 GMT-0500 (Central Daylight Time),442733.0999999996,A,gras,I,s,290,1,1227.5,441505.5999999996,8023,WL,B,5.0
3,11.962999820709229,learn,48037.00017929077,Wed Apr 09 2025 12:25:28 GMT-0500 (Central Daylight Time),442871.30000000075,A,grass,I,s,129,1,1365.7000000011176,441505.5999999996,8023,WL,B,5.0
3,12.312999963760376,learn,47687.000036239624,Wed Apr 09 2025 12:25:28 GMT-0500 (Central Daylight Time),443221.30000000075,A,grassenter,I,enter,335,1,1715.7000000011176,441505.5999999996,8023,WL,B,5.0
3,13.312999963760376,learn,46687.000036239624,Wed Apr 09 2025 12:25:28 GMT-0500 (Central Daylight Time),444221.2000000011,A,w,I,w,993,1,999.5,443221.7000000011,8023,WL,B,6.0
3,13.44599986076355,learn,46554.00013923645,Wed Apr 09 2025 12:25:28 GMT-0500 (Central Daylight Time),444354.4000000004,A,wi,I,i,121,1,1132.699999999255,443221.7000000011,8023,WL,B,6.0
3,13.662999868392944,learn,46337.000131607056,Wed Apr 09 2025 12:25:28 GMT-0500 (Central Daylight Time),444571.30000000075,A,win,I,n,196,1,1349.5999999996275,443221.7000000011,8023,WL,B,6.0
3,13.763000011444092,learn,46236.99998855591,Wed Apr 09 2025 12:25:28 GMT-0500 (Central Daylight Time),444670.9000000004,A,wind,I,d,91,1,1449.199999999255,443221.7000000011,8023,WL,B,6.0
3,14.013000011444092,learn,45986.99998855591,Wed Apr 09 2025 12:25:28 GMT-0500 (Central Daylight Time),444921.0,A,windo,I,o,239,1,1699.2999999988824,443221.7000000011,8023,WL,B,6.0
3,14.429999828338623,learn,45570.00017166138,Wed Apr 09 2025 12:25:28 GMT-0500 (Central Daylight Time),445338.5999999996,A,window,I,w,397,1,2116.89999999851,443221.7000000011,8023,WL,B,6.0
3,14.811999797821045,learn,45188.000202178955,Wed Apr 09 2025 12:25:28 GMT-0500 (Central Daylight Time),445720.7000000011,A,windowenter,I,enter,371,1,2499.0,443221.7000000011,8023,WL,B,6.0
3,16.82799983024597,learn,43172.00016975403,Wed Apr 09 2025 12:25:28 GMT-0500 (Central Daylight Time),447736.7000000011,A,p,I,p,1998,1,2015.6000000014901,445721.0999999996,8023,WL,B,7.0
3,17.01199984550476,learn,42988.00015449524,Wed Apr 09 2025 12:25:28 GMT-0500 (Central Daylight Time),447920.0999999996,A,pu,I,u,166,1,2199.0,445721.0999999996,8023,WL,B,7.0
3,17.194999933242798,learn,42805.0000667572,Wed Apr 09 2025 12:25:28 GMT-0500 (Central Daylight Time),448103.2000000011,A,pup,I,p,166,1,2382.10000000149,445721.0999999996,8023,WL,B,7.0
3,17.82799983024597,learn,42172.00016975403,Wed Apr 09 2025 12:25:28 GMT-0500 (Central Daylight Time),448736.2000000011,A,pupi,I,i,623,1,3015.10000000149,445721.0999999996,8023,WL,B,7.0
3,18.110999822616577,learn,41889.00017738342,Wed Apr 09 2025 12:25:28 GMT-0500 (Central Daylight Time),449019.5,A,pupil,I,l,278,1,3298.4000000003725,445721.0999999996,8023,WL,B,7.0
3,18.644999980926514,learn,41355.000019073486,Wed Apr 09 2025 12:25:28 GMT-0500 (Central Daylight Time),449552.80000000075,A,pupilenter,I,enter,523,1,3831.7000000011176,445721.0999999996,8023,WL,B,7.0
3,19.293999910354614,learn,40706.000089645386,Wed Apr 09 2025 12:25:28 GMT-0500 (Central Daylight Time),450202.5999999996,A,s,I,s,630,1,649.3999999985099,449553.2000000011,8023,WL,B,8.0
3,19.49399995803833,learn,40506.00004196167,Wed Apr 09 2025 12:25:28 GMT-0500 (Central Daylight Time),450402.4000000004,A,sk,I,k,188,1,849.1999999992549,449553.2000000011,8023,WL,B,8.0
3,19.76099991798401,learn,40239.00008201599,Wed Apr 09 2025 12:25:28 GMT-0500 (Central Daylight Time),450668.9000000004,A,ski,I,i,260,1,1115.699999999255,449553.2000000011,8023,WL,B,8.0
3,19.99399995803833,learn,40006.00004196167,Wed Apr 09 2025 12:25:28 GMT-0500 (Central Daylight Time),450902.2000000011,A,skin,I,n,217,1,1349.0,449553.2000000011,8023,WL,B,8.0
3,20.49399995803833,learn,39506.00004196167,Wed Apr 09 2025 12:25:28 GMT-0500 (Central Daylight Time),451402.2000000011,A,skinenter,I,enter,480,1,1849.0,449553.2000000011,8023,WL,B,8.0
3,20.944000005722046,learn,39055.999994277954,Wed Apr 09 2025 12:25:28 GMT-0500 (Central Daylight Time),451851.9000000004,A,s,I,s,444,1,449.40000000037253,451402.5,8023,WL,B,9.0
3,21.22699999809265,learn,38773.00000190735,Wed Apr 09 2025 12:25:28 GMT-0500 (Central Daylight Time),452135.2000000011,A,st,I,t,275,1,732.7000000011176,451402.5,8023,WL,B,9.0
3,21.57699990272522,learn,38423.00009727478,Wed Apr 09 2025 12:25:28 GMT-0500 (Central Daylight Time),452485.2000000011,A,sta,I,a,335,1,1082.7000000011176,451402.5,8023,WL,B,9.0
3,21.776999950408936,learn,38223.000049591064,Wed Apr 09 2025 12:25:28 GMT-0500 (Central Daylight Time),452685.0999999996,A,star,I,r,193,1,1282.5999999996275,451402.5,8023,WL,B,9.0
3,22.592999935150146,learn,37407.00006484985,Wed Apr 09 2025 12:25:28 GMT-0500 (Central Daylight Time),453501.5999999996,A,starenter,I,enter,809,1,2099.0999999996275,451402.5,8023,WL,B,9.0
3,29.04099988937378,learn,30959.00011062622,Wed Apr 09 2025 12:25:28 GMT-0500 (Central Daylight Time),459949.5,A,f,I,f,6433,1,6447.5999999996275,453501.9000000004,8023,WL,B,10.0
3,29.22499990463257,learn,30775.00009536743,Wed Apr 09 2025 12:25:28 GMT-0500 (Central Daylight Time),460132.80000000075,A,fi,I,i,168,1,6630.9000000003725,453501.9000000004,8023,WL,B,10.0
3,29.44099998474121,learn,30559.00001525879,Wed Apr 09 2025 12:25:28 GMT-0500 (Central Daylight Time),460349.4000000004,A,fir,I,r,201,1,6847.5,453501.9000000004,8023,WL,B,10.0
3,29.79099988937378,learn,30209.00011062622,Wed Apr 09 2025 12:25:28 GMT-0500 (Central Daylight Time),460699.30000000075,A,fire,I,e,337,1,7197.4000000003725,453501.9000000004,8023,WL,B,10.0
3,30.157999992370605,learn,29842.000007629395,Wed Apr 09 2025 12:25:28 GMT-0500 (Central Daylight Time),461065.80000000075,A,fireenter,I,enter,355,1,7563.9000000003725,453501.9000000004,8023,WL,B,10.0
3,35.222999811172485,learn,24777.000188827515,Wed Apr 09 2025 12:25:28 GMT-0500 (Central Daylight Time),466131.0,A,l,I,l,5051,1,5064.799999998882,461066.2000000011,8023,WL,B,11.0
3,35.36099982261658,learn,24639.000177383423,Wed Apr 09 2025 12:25:28 GMT-0500 (Central Daylight Time),466268.9000000004,A,la,I,a,133,1,5202.699999999255,461066.2000000011,8023,WL,B,11.0
3,35.638999938964844,learn,24361.000061035156,Wed Apr 09 2025 12:25:28 GMT-0500 (Central Daylight Time),466547.5,A,lak,I,k,265,1,5481.299999998882,461066.2000000011,8023,WL,B,11.0
3,35.98899984359741,learn,24011.000156402588,Wed Apr 09 2025 12:25:28 GMT-0500 (Central Daylight Time),466897.30000000075,A,lake,I,e,331,1,5831.0999999996275,461066.2000000011,8023,WL,B,11.0
3,36.83999991416931,learn,23160.00008583069,Wed Apr 09 2025 12:25:28 GMT-0500 (Central Daylight Time),467748.2000000011,A,lakeenter,I,enter,829,1,6682.0,461066.2000000011,8023,WL,B,11.0
3,37.40499997138977,learn,22595.00002861023,Wed Apr 09 2025 12:25:28 GMT-0500 (Central Daylight Time),468313.7000000011,A,c,I,c,554,1,565.2000000011176,467748.5,8023,WL,B,12.0
3,37.55499982833862,learn,22445.000171661377,Wed Apr 09 2025 12:25:28 GMT-0500 (Central Daylight Time),468463.7000000011,A,ca,I,a,141,1,715.2000000011176,467748.5,8023,WL,B,12.0
3,37.83799982070923,learn,22162.00017929077,Wed Apr 09 2025 12:25:28 GMT-0500 (Central Daylight Time),468746.7000000011,A,cab,I,b,263,1,998.2000000011176,467748.5,8023,WL,B,12.0
3,38.05499982833862,learn,21945.000171661377,Wed Apr 09 2025 12:25:28 GMT-0500 (Central Daylight Time),468963.4000000004,A,cabi,I,i,197,1,1214.9000000003725,467748.5,8023,WL,B,12.0
3,38.23799991607666,learn,21762.00008392334,Wed Apr 09 2025 12:25:28 GMT-0500 (Central Daylight Time),469146.7000000011,A,cabin,I,n,171,1,1398.2000000011176,467748.5,8023,WL,B,12.0
3,38.48799991607666,learn,21512.00008392334,Wed Apr 09 2025 12:25:28 GMT-0500 (Central Daylight Time),469396.5,A,cabinenter,I,enter,244,1,1648.0,467748.5,8023,WL,B,12.0
3,42.80399990081787,learn,17196.00009918213,Wed Apr 09 2025 12:25:28 GMT-0500 (Central Daylight Time),473712.0,A,w,I,w,4306,1,4315.0999999996275,469396.9000000004,8023,WL,B,13.0
3,42.90299987792969,learn,17097.000122070312,Wed Apr 09 2025 12:25:28 GMT-0500 (Central Daylight Time),473811.7000000011,A,wi,I,i,94,1,4414.800000000745,469396.9000000004,8023,WL,B,13.0
3,43.08699989318848,learn,16913.000106811523,Wed Apr 09 2025 12:25:28 GMT-0500 (Central Daylight Time),473995.2000000011,A,wif,I,f,171,1,4598.300000000745,469396.9000000004,8023,WL,B,13.0
3,43.48699998855591,learn,16513.00001144409,Wed Apr 09 2025 12:25:28 GMT-0500 (Central Daylight Time),474395.0999999996,A,wife,I,e,379,1,4998.199999999255,469396.9000000004,8023,WL,B,13.0
3,43.73699998855591,learn,16263.000011444092,Wed Apr 09 2025 12:25:28 GMT-0500 (Central Daylight Time),474644.9000000004,A,wifeenter,I,enter,243,1,5248.0,469396.9000000004,8023,WL,B,13.0
3,47.617999792099,learn,12382.000207901001,Wed Apr 09 2025 12:25:28 GMT-0500 (Central Daylight Time),478527.2000000011,A,p,I,p,3874,1,3882.10000000149,474645.0999999996,8023,WL,B,14.0
3,47.78499984741211,learn,12215.00015258789,Wed Apr 09 2025 12:25:28 GMT-0500 (Central Daylight Time),478693.5999999996,A,pi,I,i,151,1,4048.5,474645.0999999996,8023,WL,B,14.0
3,48.01799988746643,learn,11982.00011253357,Wed Apr 09 2025 12:25:28 GMT-0500 (Central Daylight Time),478927.0,A,pip,I,p,217,1,4281.9000000003725,474645.0999999996,8023,WL,B,14.0
3,48.35099983215332,learn,11649.00016784668,Wed Apr 09 2025 12:25:28 GMT-0500 (Central Daylight Time),479260.0999999996,A,pipe,I,e,319,1,4615.0,474645.0999999996,8023,WL,B,14.0
3,48.584999799728394,learn,11415.000200271606,Wed Apr 09 2025 12:25:28 GMT-0500 (Central Daylight Time),479493.4000000004,A,pipeenter,I,enter,226,1,4848.300000000745,474645.0999999996,8023,WL,B,14.0
3,60.014999866485596,learn,-14.999866485595703,Wed Apr 09 2025 12:25:28 GMT-0500 (Central Daylight Time),490923.4000000004,A,None,I,None,11425,1,11429.599999999627,479493.80000000075,8023,WL,B,15.0
4,0.7170000076293945,learn,59282.999992370605,Wed Apr 09 2025 12:25:28 GMT-0500 (Central Daylight Time),565550.0,A,s,I,s,710,1,716.5,564833.5,8023,WL,B,1.0
4,1.0329999923706055,learn,58967.000007629395,Wed Apr 09 2025 12:25:28 GMT-0500 (Central Daylight Time),565866.4000000004,A,st,I,t,303,1,1032.9000000003725,564833.5,8023,WL,B,1.0
4,1.383000135421753,learn,58616.99986457825,Wed Apr 09 2025 12:25:28 GMT-0500 (Central Daylight Time),566216.3000000007,A,sta,I,a,332,1,1382.800000000745,564833.5,8023,WL,B,1.0
4,1.5,learn,58500.0,Wed Apr 09 2025 12:25:28 GMT-0500 (Central Daylight Time),566333.0,A,star,I,r,110,1,1499.5,564833.5,8023,WL,B,1.0
4,2.0500001907348633,learn,57949.99980926514,Wed Apr 09 2025 12:25:28 GMT-0500 (Central Daylight Time),566882.8000000007,A,starenter,I,enter,537,1,2049.300000000745,564833.5,8023,WL,B,1.0
4,3.2829999923706055,learn,56717.000007629395,Wed Apr 09 2025 12:25:28 GMT-0500 (Central Daylight Time),568115.5999999996,A,s,I,s,1227,1,1232.3999999985099,566883.2000000011,8023,WL,B,2.0
4,4.232000112533569,learn,55767.99988746643,Wed Apr 09 2025 12:25:28 GMT-0500 (Central Daylight Time),569065.4000000004,A,,I,backspace,931,1,2182.199999999255,566883.2000000011,8023,WL,B,2.0
4,4.616000175476074,learn,55383.999824523926,Wed Apr 09 2025 12:25:28 GMT-0500 (Central Daylight Time),569448.7000000011,A,c,I,c,365,1,2565.5,566883.2000000011,8023,WL,B,2.0
4,4.7820000648498535,learn,55217.99993515015,Wed Apr 09 2025 12:25:28 GMT-0500 (Central Daylight Time),569615.2000000011,A,ci,I,i,150,1,2732.0,566883.2000000011,8023,WL,B,2.0
4,5.0990002155303955,learn,54900.999784469604,Wed Apr 09 2025 12:25:28 GMT-0500 (Central Daylight Time),569931.5999999996,A,cit,I,t,311,1,3048.39999999851,566883.2000000011,8023,WL,B,2.0
4,5.332000017166138,learn,54667.99998283386,Wed Apr 09 2025 12:25:28 GMT-0500 (Central Daylight Time),570165.3000000007,A,city,I,y,219,1,3282.0999999996275,566883.2000000011,8023,WL,B,2.0
4,6.0980000495910645,learn,53901.999950408936,Wed Apr 09 2025 12:25:28 GMT-0500 (Central Daylight Time),570931.4000000004,A,cityenter,I,enter,753,1,4048.199999999255,566883.2000000011,8023,WL,B,2.0
4,6.79800009727478,learn,53201.99990272522,Wed Apr 09 2025 12:25:28 GMT-0500 (Central Daylight Time),571631.3000000007,A,s,I,s,683,1,699.5999999996275,570931.7000000011,8023,WL,B,3.0
4,7.1650002002716064,learn,52834.99979972839,Wed Apr 09 2025 12:25:28 GMT-0500 (Central Daylight Time),571997.8000000007,A,st,I,t,351,1,1066.0999999996275,570931.7000000011,8023,WL,B,3.0
4,7.54800009727478,learn,52451.99990272522,Wed Apr 09 2025 12:25:28 GMT-0500 (Central Daylight Time),572381.0,A,str,I,r,368,1,1449.2999999988824,570931.7000000011,8023,WL,B,3.0
4,7.8480000495910645,learn,52151.999950408936,Wed Apr 09 2025 12:25:28 GMT-0500 (Central Daylight Time),572681.0,A,stre,I,e,289,1,1749.2999999988824,570931.7000000011,8023,WL,B,3.0
4,8.031000137329102,learn,51968.9998626709,Wed Apr 09 2025 12:25:28 GMT-0500 (Central Daylight Time),572864.2000000011,A,stree,I,e,165,1,1932.5,570931.7000000011,8023,WL,B,3.0
4,8.264000177383423,learn,51735.99982261658,Wed Apr 09 2025 12:25:28 GMT-0500 (Central Daylight Time),573097.4000000004,A,street,I,t,214,1,2165.699999999255,570931.7000000011,8023,WL,B,3.0
4,9.04800009727478,learn,50951.99990272522,Wed Apr 09 2025 12:25:28 GMT-0500 (Central Daylight Time),573880.5999999996,A,streetenter,I,enter,765,1,2948.89999999851,570931.7000000011,8023,WL,B,3.0
4,9.597000122070312,learn,50402.99987792969,Wed Apr 09 2025 12:25:28 GMT-0500 (Central Daylight Time),574430.4000000004,A,l,I,l,542,1,549.5999999996275,573880.8000000007,8023,WL,B,4.0
4,9.731000185012817,learn,50268.99981498718,Wed Apr 09 2025 12:25:28 GMT-0500 (Central Daylight Time),574563.5999999996,A,la,I,a,128,1,682.7999999988824,573880.8000000007,8023,WL,B,4.0
4,9.94700002670288,learn,50052.99997329712,Wed Apr 09 2025 12:25:28 GMT-0500 (Central Daylight Time),574780.4000000004,A,lak,I,k,203,1,899.5999999996275,573880.8000000007,8023,WL,B,4.0
4,10.264000177383423,learn,49735.99982261658,Wed Apr 09 2025 12:25:28 GMT-0500 (Central Daylight Time),575097.0,A,lake,I,e,298,1,1216.199999999255,573880.8000000007,8023,WL,B,4.0
4,10.847000122070312,learn,49152.99987792969,Wed Apr 09 2025 12:25:28 GMT-0500 (Central Daylight Time),575680.2000000011,A,lakeenter,I,enter,573,1,1799.4000000003725,573880.8000000007,8023,WL,B,4.0
4,13.246000051498413,learn,46753.99994850159,Wed Apr 09 2025 12:25:28 GMT-0500 (Central Daylight Time),578079.3000000007,A,w,I,w,2382,1,2398.5999999996275,575680.7000000011,8023,WL,B,5.0
4,13.396000146865845,learn,46603.999853134155,Wed Apr 09 2025 12:25:28 GMT-0500 (Central Daylight Time),578229.3000000007,A,wi,I,i,135,1,2548.5999999996275,575680.7000000011,8023,WL,B,5.0
4,13.578999996185303,learn,46421.0000038147,Wed Apr 09 2025 12:25:28 GMT-0500 (Central Daylight Time),578412.3000000007,A,win,I,n,177,1,2731.5999999996275,575680.7000000011,8023,WL,B,5.0
4,13.729000091552734,learn,46270.999908447266,Wed Apr 09 2025 12:25:28 GMT-0500 (Central Daylight Time),578562.4000000004,A,wind,I,d,130,1,2881.699999999255,575680.7000000011,8023,WL,B,5.0
4,13.896000146865845,learn,46103.999853134155,Wed Apr 09 2025 12:25:28 GMT-0500 (Central Daylight Time),578729.2000000011,A,windo,I,o,156,1,3048.5,575680.7000000011,8023,WL,B,5.0
4,14.196000099182129,learn,45803.99990081787,Wed Apr 09 2025 12:25:28 GMT-0500 (Central Daylight Time),579029.0999999996,A,window,I,w,293,1,3348.39999999851,575680.7000000011,8023,WL,B,5.0
4,14.59600019454956,learn,45403.99980545044,Wed Apr 09 2025 12:25:28 GMT-0500 (Central Daylight Time),579429.0,A,windowenter,I,enter,393,1,3748.2999999988824,575680.7000000011,8023,WL,B,5.0
4,15.36300015449524,learn,44636.99984550476,Wed Apr 09 2025 12:25:28 GMT-0500 (Central Daylight Time),580195.5,A,w,I,w,745,1,766.1999999992549,579429.3000000007,8023,WL,B,6.0
4,15.479000091552734,learn,44520.999908447266,Wed Apr 09 2025 12:25:28 GMT-0500 (Central Daylight Time),580311.9000000004,A,wi,I,i,99,1,882.5999999996275,579429.3000000007,8023,WL,B,6.0
4,15.645000219345093,learn,44354.99978065491,Wed Apr 09 2025 12:25:28 GMT-0500 (Central Daylight Time),580478.5,A,wif,I,f,159,1,1049.199999999255,579429.3000000007,8023,WL,B,6.0
4,15.945000171661377,learn,44054.99982833862,Wed Apr 09 2025 12:25:28 GMT-0500 (Central Daylight Time),580778.5,A,wife,I,e,288,1,1349.199999999255,579429.3000000007,8023,WL,B,6.0
4,16.27900004386902,learn,43720.99995613098,Wed Apr 09 2025 12:25:28 GMT-0500 (Central Daylight Time),581111.8000000007,A,wifeenter,I,enter,324,1,1682.5,579429.3000000007,8023,WL,B,6.0
4,16.778000116348267,learn,43221.99988365173,Wed Apr 09 2025 12:25:28 GMT-0500 (Central Daylight Time),581611.4000000004,A,p,I,p,495,1,499.30000000074506,581112.0999999996,8023,WL,B,7.0
4,17.01200008392334,learn,42987.99991607666,Wed Apr 09 2025 12:25:28 GMT-0500 (Central Daylight Time),581844.8000000007,A,pu,I,u,219,1,732.7000000011176,581112.0999999996,8023,WL,B,7.0
4,17.34500002861023,learn,42654.99997138977,Wed Apr 09 2025 12:25:28 GMT-0500 (Central Daylight Time),582178.4000000004,A,pup,I,p,313,1,1066.300000000745,581112.0999999996,8023,WL,B,7.0
4,17.66200017929077,learn,42337.99982070923,Wed Apr 09 2025 12:25:28 GMT-0500 (Central Daylight Time),582494.5999999996,A,pupi,I,i,308,1,1382.5,581112.0999999996,8023,WL,B,7.0
4,17.961000204086304,learn,42038.999795913696,Wed Apr 09 2025 12:25:28 GMT-0500 (Central Daylight Time),582794.4000000004,A,pupil,I,l,288,1,1682.300000000745,581112.0999999996,8023,WL,B,7.0
4,18.361000061035156,learn,41638.999938964844,Wed Apr 09 2025 12:25:28 GMT-0500 (Central Daylight Time),583194.4000000004,A,pupilenter,I,enter,388,1,2082.300000000745,581112.0999999996,8023,WL,B,7.0
4,18.925000190734863,learn,41074.99980926514,Wed Apr 09 2025 12:25:28 GMT-0500 (Central Daylight Time),583758.4000000004,A,s,I,s,559,1,563.6999999992549,583194.7000000011,8023,WL,B,8.0
4,19.378000020980835,learn,40621.999979019165,Wed Apr 09 2025 12:25:28 GMT-0500 (Central Daylight Time),584210.5999999996,A,sk,I,k,431,1,1015.8999999985099,583194.7000000011,8023,WL,B,8.0
4,19.59500002861023,learn,40404.99997138977,Wed Apr 09 2025 12:25:28 GMT-0500 (Central Daylight Time),584427.5,A,ski,I,i,212,1,1232.7999999988824,583194.7000000011,8023,WL,B,8.0
4,19.811000108718872,learn,40188.99989128113,Wed Apr 09 2025 12:25:28 GMT-0500 (Central Daylight Time),584643.9000000004,A,skin,I,n,203,1,1449.199999999255,583194.7000000011,8023,WL,B,8.0
4,21.177000045776367,learn,38822.99995422363,Wed Apr 09 2025 12:25:28 GMT-0500 (Central Daylight Time),586010.0999999996,A,skinenter,I,enter,1347,1,2815.39999999851,583194.7000000011,8023,WL,B,8.0
4,21.960000038146973,learn,38039.99996185303,Wed Apr 09 2025 12:25:28 GMT-0500 (Central Daylight Time),586793.5,A,a,I,a,764,1,783.0999999996275,586010.4000000004,8023,WL,B,9.0
4,22.193000078201294,learn,37806.999921798706,Wed Apr 09 2025 12:25:28 GMT-0500 (Central Daylight Time),587026.4000000004,A,ar,I,r,212,1,1016.0,586010.4000000004,8023,WL,B,9.0
4,22.427000045776367,learn,37572.99995422363,Wed Apr 09 2025 12:25:28 GMT-0500 (Central Daylight Time),587259.7000000011,A,arm,I,m,228,1,1249.300000000745,586010.4000000004,8023,WL,B,9.0
4,23.010000228881836,learn,36989.999771118164,Wed Apr 09 2025 12:25:28 GMT-0500 (Central Daylight Time),587843.0999999996,A,armenter,I,enter,563,1,1832.699999999255,586010.4000000004,8023,WL,B,9.0
4,24.493000030517578,learn,35506.99996948242,Wed Apr 09 2025 12:25:28 GMT-0500 (Central Daylight Time),589325.8000000007,A,s,I,s,1467,1,1482.2000000011176,587843.5999999996,8023,WL,B,10.0
4,24.79300022125244,learn,35206.99977874756,Wed Apr 09 2025 12:25:28 GMT-0500 (Central Daylight Time),589625.7000000011,A,st,I,t,281,1,1782.1000000014901,587843.5999999996,8023,WL,B,10.0
4,25.076000213623047,learn,34923.99978637695,Wed Apr 09 2025 12:25:28 GMT-0500 (Central Daylight Time),589909.0,A,str,I,r,277,1,2065.4000000003725,587843.5999999996,8023,WL,B,10.0
4,25.526000022888184,learn,34473.99997711182,Wed Apr 09 2025 12:25:28 GMT-0500 (Central Daylight Time),590358.5999999996,A,stre,I,e,434,1,2515.0,587843.5999999996,8023,WL,B,10.0
4,25.776000022888184,learn,34223.99997711182,Wed Apr 09 2025 12:25:28 GMT-0500 (Central Daylight Time),590608.7000000011,A,stree,I,e,240,1,2765.10000000149,587843.5999999996,8023,WL,B,10.0
4,26.04200005531311,learn,33957.99994468689,Wed Apr 09 2025 12:25:28 GMT-0500 (Central Daylight Time),590875.4000000004,A,street,I,t,247,1,3031.800000000745,587843.5999999996,8023,WL,B,10.0
4,26.409000158309937,learn,33590.99984169006,Wed Apr 09 2025 12:25:28 GMT-0500 (Central Daylight Time),591242.0,A,streetenter,I,enter,355,1,3398.4000000003725,587843.5999999996,8023,WL,B,10.0
4,28.075000047683716,learn,31924.999952316284,Wed Apr 09 2025 12:25:28 GMT-0500 (Central Daylight Time),592907.8000000007,A,p,I,p,1660,1,1665.5,591242.3000000007,8023,WL,B,11.0
4,28.242000102996826,learn,31757.999897003174,Wed Apr 09 2025 12:25:28 GMT-0500 (Central Daylight Time),593074.5,A,pu,I,u,147,1,1832.199999999255,591242.3000000007,8023,WL,B,11.0
4,28.625,learn,31375.0,Wed Apr 09 2025 12:25:28 GMT-0500 (Central Daylight Time),593458.0,A,pup,I,p,372,1,2215.699999999255,591242.3000000007,8023,WL,B,11.0
4,28.975000143051147,learn,31024.999856948853,Wed Apr 09 2025 12:25:28 GMT-0500 (Central Daylight Time),593807.8000000007,A,pupi,I,i,332,1,2565.5,591242.3000000007,8023,WL,B,11.0
4,29.675000190734863,learn,30324.999809265137,Wed Apr 09 2025 12:25:28 GMT-0500 (Central Daylight Time),594507.5,A,pupil,I,l,687,1,3265.199999999255,591242.3000000007,8023,WL,B,11.0
4,30.074000120162964,learn,29925.999879837036,Wed Apr 09 2025 12:25:28 GMT-0500 (Central Daylight Time),594907.2000000011,A,pupilenter,I,enter,379,1,3664.9000000003725,591242.3000000007,8023,WL,B,11.0
4,31.02400016784668,learn,28975.99983215332,Wed Apr 09 2025 12:25:28 GMT-0500 (Central Daylight Time),595857.2000000011,A,p,I,p,931,1,949.7000000011176,594907.5,8023,WL,B,12.0
4,31.19100022315979,learn,28808.99977684021,Wed Apr 09 2025 12:25:28 GMT-0500 (Central Daylight Time),596023.9000000004,A,pi,I,i,149,1,1116.4000000003725,594907.5,8023,WL,B,12.0
4,31.391000032424927,learn,28608.999967575073,Wed Apr 09 2025 12:25:28 GMT-0500 (Central Daylight Time),596223.5999999996,A,pip,I,p,190,1,1316.0999999996275,594907.5,8023,WL,B,12.0
4,31.84000015258789,learn,28159.99984741211,Wed Apr 09 2025 12:25:28 GMT-0500 (Central Daylight Time),596673.5,A,pipe,I,e,431,1,1766.0,594907.5,8023,WL,B,12.0
4,32.20700001716614,learn,27792.999982833862,Wed Apr 09 2025 12:25:28 GMT-0500 (Central Daylight Time),597040.2000000011,A,pipeenter,I,enter,349,1,2132.7000000011176,594907.5,8023,WL,B,12.0
4,39.00500011444092,learn,20994.999885559082,Wed Apr 09 2025 12:25:28 GMT-0500 (Central Daylight Time),603837.9000000004,A,w,I,w,6783,1,6797.4000000003725,597040.5,8023,WL,B,13.0
4,39.105000019073486,learn,20894.999980926514,Wed Apr 09 2025 12:25:28 GMT-0500 (Central Daylight Time),603937.9000000004,A,wi,I,i,80,1,6897.4000000003725,597040.5,8023,WL,B,13.0
4,39.271000146865845,learn,20728.999853134155,Wed Apr 09 2025 12:25:28 GMT-0500 (Central Daylight Time),604104.5,A,wif,I,f,157,1,7064.0,597040.5,8023,WL,B,13.0
4,39.55400013923645,learn,20445.99986076355,Wed Apr 09 2025 12:25:28 GMT-0500 (Central Daylight Time),604387.7000000011,A,wife,I,e,278,1,7347.200000001118,597040.5,8023,WL,B,13.0
4,39.872000217437744,learn,20127.999782562256,Wed Apr 09 2025 12:25:28 GMT-0500 (Central Daylight Time),604705.4000000004,A,wifeenter,I,enter,298,1,7664.9000000003725,597040.5,8023,WL,B,13.0
4,43.087000131607056,learn,16912.999868392944,Wed Apr 09 2025 12:25:28 GMT-0500 (Central Daylight Time),607919.9000000004,A,c,I,c,3205,1,3214.199999999255,604705.7000000011,8023,WL,B,14.0
4,43.18600010871887,learn,16813.999891281128,Wed Apr 09 2025 12:25:28 GMT-0500 (Central Daylight Time),608019.8000000007,A,cl,I,l,94,1,3314.0999999996275,604705.7000000011,8023,WL,B,14.0
4,43.45300006866455,learn,16546.99993133545,Wed Apr 09 2025 12:25:28 GMT-0500 (Central Daylight Time),608286.5,A,clo,I,o,259,1,3580.7999999988824,604705.7000000011,8023,WL,B,14.0
4,43.73700022697449,learn,16262.999773025513,Wed Apr 09 2025 12:25:28 GMT-0500 (Central Daylight Time),608569.9000000004,A,cloc,I,c,264,1,3864.199999999255,604705.7000000011,8023,WL,B,14.0
4,43.88600015640259,learn,16113.999843597412,Wed Apr 09 2025 12:25:28 GMT-0500 (Central Daylight Time),608719.7000000011,A,clock,I,k,141,1,4014.0,604705.7000000011,8023,WL,B,14.0
4,44.3030002117157,learn,15696.999788284302,Wed Apr 09 2025 12:25:28 GMT-0500 (Central Daylight Time),609136.2000000011,A,clockenter,I,enter,407,1,4430.5,604705.7000000011,8023,WL,B,14.0
4,46.71900010108948,learn,13280.999898910522,Wed Apr 09 2025 12:25:28 GMT-0500 (Central Daylight Time),611552.0999999996,A,f,I,f,2406,1,2415.5999999996275,609136.5,8023,WL,B,15.0
4,46.836000204086304,learn,13163.999795913696,Wed Apr 09 2025 12:25:28 GMT-0500 (Central Daylight Time),611668.9000000004,A,fi,I,i,110,1,2532.4000000003725,609136.5,8023,WL,B,15.0
4,47.2020001411438,learn,12797.999858856201,Wed Apr 09 2025 12:25:28 GMT-0500 (Central Daylight Time),612035.5999999996,A,fir,I,r,362,1,2899.0999999996275,609136.5,8023,WL,B,15.0
4,47.46900010108948,learn,12530.999898910522,Wed Apr 09 2025 12:25:28 GMT-0500 (Central Daylight Time),612301.9000000004,A,fire,I,e,251,1,3165.4000000003725,609136.5,8023,WL,B,15.0
4,48.218000173568726,learn,11781.999826431274,Wed Apr 09 2025 12:25:28 GMT-0500 (Central Daylight Time),613051.7000000011,A,fireenter,I,enter,729,1,3915.2000000011176,609136.5,8023,WL,B,15.0
5,0.5999999046325684,learn,60000.0,Wed Apr 09 2025 12:25:28 GMT-0500 (Central Daylight Time),685562.5,A,c,I,c,588,1,599.6999999992549,684962.8000000007,8023,WL,B,1.0
5,0.8329999446868896,learn,60000.0,Wed Apr 09 2025 12:25:28 GMT-0500 (Central Daylight Time),685795.9000000004,A,ca,I,a,219,1,833.0999999996275,684962.8000000007,8023,WL,B,1.0
5,1.1999998092651367,learn,60000.0,Wed Apr 09 2025 12:25:28 GMT-0500 (Central Daylight Time),686162.0999999996,A,cab,I,b,354,1,1199.2999999988824,684962.8000000007,8023,WL,B,1.0
5,1.4830000400543213,learn,60000.0,Wed Apr 09 2025 12:25:28 GMT-0500 (Central Daylight Time),686445.5,A,cabi,I,i,269,1,1482.699999999255,684962.8000000007,8023,WL,B,1.0
5,1.7999999523162842,learn,60000.0,Wed Apr 09 2025 12:25:28 GMT-0500 (Central Daylight Time),686762.0,A,cabin,I,n,305,1,1799.199999999255,684962.8000000007,8023,WL,B,1.0
5,2.365999937057495,learn,60000.0,Wed Apr 09 2025 12:25:28 GMT-0500 (Central Daylight Time),687328.4000000004,A,cabinenter,I,enter,556,1,2365.5999999996275,684962.8000000007,8023,WL,B,1.0
5,3.2819998264312744,learn,60000.0,Wed Apr 09 2025 12:25:28 GMT-0500 (Central Daylight Time),688244.8000000007,A,c,I,c,902,1,916.0999999996275,687328.7000000011,8023,WL,B,2.0
5,3.4670000076293945,learn,60000.0,Wed Apr 09 2025 12:25:28 GMT-0500 (Central Daylight Time),688430.0999999996,A,ci,I,i,170,1,1101.3999999985099,687328.7000000011,8023,WL,B,2.0
5,3.8489999771118164,learn,60000.0,Wed Apr 09 2025 12:25:28 GMT-0500 (Central Daylight Time),688811.4000000004,A,cit,I,t,368,1,1482.699999999255,687328.7000000011,8023,WL,B,2.0
5,4.73199987411499,learn,60000.0,Wed Apr 09 2025 12:25:28 GMT-0500 (Central Daylight Time),689694.4000000004,A,city,I,y,867,1,2365.699999999255,687328.7000000011,8023,WL,B,2.0
5,5.332000017166138,learn,60000.0,Wed Apr 09 2025 12:25:28 GMT-0500 (Central Daylight Time),690294.2000000011,A,cityenter,I,enter,584,1,2965.5,687328.7000000011,8023,WL,B,2.0
5,5.881999969482422,learn,60000.0,Wed Apr 09 2025 12:25:28 GMT-0500 (Central Daylight Time),690844.0999999996,A,l,I,l,536,1,549.5999999996275,690294.5,8023,WL,B,3.0
5,5.98199987411499,learn,60000.0,Wed Apr 09 2025 12:25:28 GMT-0500 (Central Daylight Time),690944.0999999996,A,la,I,a,82,1,649.5999999996275,690294.5,8023,WL,B,3.0
5,6.23199987411499,learn,60000.0,Wed Apr 09 2025 12:25:28 GMT-0500 (Central Daylight Time),691194.0999999996,A,lak,I,k,238,1,899.5999999996275,690294.5,8023,WL,B,3.0
5,6.514999866485596,learn,60000.0,Wed Apr 09 2025 12:25:28 GMT-0500 (Central Daylight Time),691477.3000000007,A,lake,I,e,268,1,1182.800000000745,690294.5,8023,WL,B,3.0
5,6.9649999141693115,learn,60000.0,Wed Apr 09 2025 12:25:28 GMT-0500 (Central Daylight Time),691927.0999999996,A,lakeenter,I,enter,433,1,1632.5999999996275,690294.5,8023,WL,B,3.0
5,7.347999811172485,learn,60000.0,Wed Apr 09 2025 12:25:28 GMT-0500 (Central Daylight Time),692310.2000000011,A,s,I,s,368,1,382.80000000074506,691927.4000000004,8023,WL,B,4.0
5,7.680999994277954,learn,60000.0,Wed Apr 09 2025 12:25:28 GMT-0500 (Central Daylight Time),692643.7000000011,A,st,I,t,312,1,716.3000000007451,691927.4000000004,8023,WL,B,4.0
5,7.96399998664856,learn,60000.0,Wed Apr 09 2025 12:25:28 GMT-0500 (Central Daylight Time),692926.9000000004,A,str,I,r,275,1,999.5,691927.4000000004,8023,WL,B,4.0
5,8.263999938964844,learn,60000.0,Wed Apr 09 2025 12:25:28 GMT-0500 (Central Daylight Time),693226.7000000011,A,stre,I,e,280,1,1299.300000000745,691927.4000000004,8023,WL,B,4.0
5,8.44700002670288,learn,60000.0,Wed Apr 09 2025 12:25:28 GMT-0500 (Central Daylight Time),693410.0999999996,A,stree,I,e,164,1,1482.699999999255,691927.4000000004,8023,WL,B,4.0
5,8.680999994277954,learn,60000.0,Wed Apr 09 2025 12:25:28 GMT-0500 (Central Daylight Time),693643.3000000007,A,street,I,t,212,1,1715.9000000003725,691927.4000000004,8023,WL,B,4.0
5,9.246999979019165,learn,60000.0,Wed Apr 09 2025 12:25:28 GMT-0500 (Central Daylight Time),694209.7000000011,A,streetenter,I,enter,547,1,2282.300000000745,691927.4000000004,8023,WL,B,4.0
5,9.69700002670288,learn,60000.0,Wed Apr 09 2025 12:25:28 GMT-0500 (Central Daylight Time),694659.5,A,s,I,s,430,1,449.5,694210.0,8023,WL,B,5.0
5,10.712999820709229,learn,60000.0,Wed Apr 09 2025 12:25:28 GMT-0500 (Central Daylight Time),695675.5999999996,A,,I,backspace,1011,1,1465.5999999996275,694210.0,8023,WL,B,5.0
5,10.930999994277954,learn,60000.0,Wed Apr 09 2025 12:25:28 GMT-0500 (Central Daylight Time),695893.5,A,c,I,c,203,1,1683.5,694210.0,8023,WL,B,5.0
5,11.11299991607666,learn,60000.0,Wed Apr 09 2025 12:25:28 GMT-0500 (Central Daylight Time),696075.8000000007,A,cl,I,l,177,1,1865.800000000745,694210.0,8023,WL,B,5.0
5,11.562999963760376,learn,60000.0,Wed Apr 09 2025 12:25:28 GMT-0500 (Central Daylight Time),696525.5999999996,A,clo,I,o,443,1,2315.5999999996275,694210.0,8023,WL,B,5.0
5,11.77999997138977,learn,60000.0,Wed Apr 09 2025 12:25:28 GMT-0500 (Central Daylight Time),696742.0999999996,A,cloc,I,c,201,1,2532.0999999996275,694210.0,8023,WL,B,5.0
5,12.02999997138977,learn,60000.0,Wed Apr 09 2025 12:25:28 GMT-0500 (Central Daylight Time),696992.2000000011,A,clock,I,k,232,1,2782.2000000011176,694210.0,8023,WL,B,5.0
5,12.579999923706055,learn,60000.0,Wed Apr 09 2025 12:25:28 GMT-0500 (Central Daylight Time),697542.0999999996,A,clockenter,I,enter,542,1,3332.0999999996275,694210.0,8023,WL,B,5.0
5,13.161999940872192,learn,60000.0,Wed Apr 09 2025 12:25:28 GMT-0500 (Central Daylight Time),698125.0,A,p,I,p,568,1,582.5999999996275,697542.4000000004,8023,WL,B,6.0
5,13.478999853134155,learn,60000.0,Wed Apr 09 2025 12:25:28 GMT-0500 (Central Daylight Time),698441.7000000011,A,pi,I,i,306,1,899.3000000007451,697542.4000000004,8023,WL,B,6.0
5,13.711999893188477,learn,60000.0,Wed Apr 09 2025 12:25:28 GMT-0500 (Central Daylight Time),698674.9000000004,A,pip,I,p,213,1,1132.5,697542.4000000004,8023,WL,B,6.0
5,14.128999948501587,learn,60000.0,Wed Apr 09 2025 12:25:28 GMT-0500 (Central Daylight Time),699091.4000000004,A,pipe,I,e,404,1,1549.0,697542.4000000004,8023,WL,B,6.0
5,14.59500002861023,learn,60000.0,Wed Apr 09 2025 12:25:28 GMT-0500 (Central Daylight Time),699558.0,A,pipeenter,I,enter,459,1,2015.5999999996275,697542.4000000004,8023,WL,B,6.0
5,16.34500002861023,learn,60000.0,Wed Apr 09 2025 12:25:28 GMT-0500 (Central Daylight Time),701307.7000000011,A,a,I,a,1737,1,1749.300000000745,699558.4000000004,8023,WL,B,7.0
5,16.651000022888184,learn,60000.0,Wed Apr 09 2025 12:25:28 GMT-0500 (Central Daylight Time),701613.2000000011,A,ar,I,r,282,1,2054.800000000745,699558.4000000004,8023,WL,B,7.0
5,17.277999877929688,learn,60000.0,Wed Apr 09 2025 12:25:28 GMT-0500 (Central Daylight Time),702240.5,A,arm,I,m,617,1,2682.0999999996275,699558.4000000004,8023,WL,B,7.0
5,17.82799983024597,learn,60000.0,Wed Apr 09 2025 12:25:28 GMT-0500 (Central Daylight Time),702790.3000000007,A,armenter,I,enter,534,1,3231.9000000003725,699558.4000000004,8023,WL,B,7.0
5,18.560999870300293,learn,60000.0,Wed Apr 09 2025 12:25:28 GMT-0500 (Central Daylight Time),703523.5999999996,A,w,I,w,720,1,733.0,702790.5999999996,8023,WL,B,8.0
5,18.67799997329712,learn,60000.0,Wed Apr 09 2025 12:25:28 GMT-0500 (Central Daylight Time),703640.0999999996,A,wi,I,i,107,1,849.5,702790.5999999996,8023,WL,B,8.0
5,18.860999822616577,learn,60000.0,Wed Apr 09 2025 12:25:28 GMT-0500 (Central Daylight Time),703823.3000000007,A,wif,I,f,166,1,1032.7000000011176,702790.5999999996,8023,WL,B,8.0
5,19.16100001335144,learn,60000.0,Wed Apr 09 2025 12:25:28 GMT-0500 (Central Daylight Time),704123.3000000007,A,wife,I,e,287,1,1332.7000000011176,702790.5999999996,8023,WL,B,8.0
5,19.810999870300293,learn,60000.0,Wed Apr 09 2025 12:25:28 GMT-0500 (Central Daylight Time),704773.2000000011,A,wifeenter,I,enter,643,1,1982.6000000014901,702790.5999999996,8023,WL,B,8.0
5,20.3439998626709,learn,60000.0,Wed Apr 09 2025 12:25:28 GMT-0500 (Central Daylight Time),705306.4000000004,A,s,I,s,522,1,532.9000000003725,704773.5,8023,WL,B,9.0
5,20.460000038146973,learn,60000.0,Wed Apr 09 2025 12:25:28 GMT-0500 (Central Daylight Time),705422.8000000007,A,sk,I,k,100,1,649.3000000007451,704773.5,8023,WL,B,9.0
5,20.710000038146973,learn,60000.0,Wed Apr 09 2025 12:25:28 GMT-0500 (Central Daylight Time),705672.5999999996,A,ski,I,i,232,1,899.0999999996275,704773.5,8023,WL,B,9.0
5,20.90999984741211,learn,60000.0,Wed Apr 09 2025 12:25:28 GMT-0500 (Central Daylight Time),705872.5999999996,A,skin,I,n,182,1,1099.0999999996275,704773.5,8023,WL,B,9.0
5,21.30999994277954,learn,60000.0,Wed Apr 09 2025 12:25:28 GMT-0500 (Central Daylight Time),706272.5,A,skinenter,I,enter,382,1,1499.0,704773.5,8023,WL,B,9.0
5,21.876999855041504,learn,60000.0,Wed Apr 09 2025 12:25:28 GMT-0500 (Central Daylight Time),706839.3000000007,A,w,I,w,558,1,566.5,706272.8000000007,8023,WL,B,10.0
5,21.97699999809265,learn,60000.0,Wed Apr 09 2025 12:25:28 GMT-0500 (Central Daylight Time),706939.3000000007,A,wi,I,i,79,1,666.5,706272.8000000007,8023,WL,B,10.0
5,22.143999814987183,learn,60000.0,Wed Apr 09 2025 12:25:28 GMT-0500 (Central Daylight Time),707106.8000000007,A,win,I,n,155,1,834.0,706272.8000000007,8023,WL,B,10.0
5,22.342999935150146,learn,60000.0,Wed Apr 09 2025 12:25:28 GMT-0500 (Central Daylight Time),707305.5999999996,A,wind,I,d,180,1,1032.7999999988824,706272.8000000007,8023,WL,B,10.0
5,22.493000030517578,learn,60000.0,Wed Apr 09 2025 12:25:28 GMT-0500 (Central Daylight Time),707455.5,A,windo,I,o,141,1,1182.699999999255,706272.8000000007,8023,WL,B,10.0
5,22.792999982833862,learn,60000.0,Wed Apr 09 2025 12:25:28 GMT-0500 (Central Daylight Time),707755.5,A,window,I,w,287,1,1482.699999999255,706272.8000000007,8023,WL,B,10.0
5,23.175999879837036,learn,60000.0,Wed Apr 09 2025 12:25:28 GMT-0500 (Central Daylight Time),708138.7000000011,A,windowenter,I,enter,363,1,1865.9000000003725,706272.8000000007,8023,WL,B,10.0
5,23.658999919891357,learn,60000.0,Wed Apr 09 2025 12:25:28 GMT-0500 (Central Daylight Time),708621.9000000004,A,s,I,s,468,1,482.90000000037253,708139.0,8023,WL,B,11.0
5,23.942999839782715,learn,60000.0,Wed Apr 09 2025 12:25:28 GMT-0500 (Central Daylight Time),708905.2000000011,A,st,I,t,273,1,766.2000000011176,708139.0,8023,WL,B,11.0
5,24.20899987220764,learn,60000.0,Wed Apr 09 2025 12:25:28 GMT-0500 (Central Daylight Time),709171.8000000007,A,str,I,r,261,1,1032.800000000745,708139.0,8023,WL,B,11.0
5,24.54199981689453,learn,60000.0,Wed Apr 09 2025 12:25:28 GMT-0500 (Central Daylight Time),709505.0,A,stre,I,e,315,1,1366.0,708139.0,8023,WL,B,11.0
5,24.70899987220764,learn,60000.0,Wed Apr 09 2025 12:25:28 GMT-0500 (Central Daylight Time),709671.4000000004,A,stree,I,e,149,1,1532.4000000003725,708139.0,8023,WL,B,11.0
5,24.941999912261963,learn,60000.0,Wed Apr 09 2025 12:25:28 GMT-0500 (Central Daylight Time),709904.8000000007,A,street,I,t,215,1,1765.800000000745,708139.0,8023,WL,B,11.0
5,25.424999952316284,learn,60000.0,Wed Apr 09 2025 12:25:28 GMT-0500 (Central Daylight Time),710387.8000000007,A,streetenter,I,enter,470,1,2248.800000000745,708139.0,8023,WL,B,11.0
5,25.774999856948853,learn,60000.0,Wed Apr 09 2025 12:25:28 GMT-0500 (Central Daylight Time),710737.9000000004,A,g,I,g,331,1,349.69999999925494,710388.2000000011,8023,WL,B,12.0
5,26.05900001525879,learn,60000.0,Wed Apr 09 2025 12:25:28 GMT-0500 (Central Daylight Time),711021.0999999996,A,gr,I,r,277,1,632.8999999985099,710388.2000000011,8023,WL,B,12.0
5,26.258999824523926,learn,60000.0,Wed Apr 09 2025 12:25:28 GMT-0500 (Central Daylight Time),711221.2000000011,A,gra,I,a,193,1,833.0,710388.2000000011,8023,WL,B,12.0
5,26.574999809265137,learn,60000.0,Wed Apr 09 2025 12:25:28 GMT-0500 (Central Daylight Time),711537.7000000011,A,gras,I,s,297,1,1149.5,710388.2000000011,8023,WL,B,12.0
5,26.757999897003174,learn,60000.0,Wed Apr 09 2025 12:25:28 GMT-0500 (Central Daylight Time),711720.8000000007,A,grass,I,s,165,1,1332.5999999996275,710388.2000000011,8023,WL,B,12.0
5,27.092000007629395,learn,60000.0,Wed Apr 09 2025 12:25:28 GMT-0500 (Central Daylight Time),712054.2000000011,A,grassenter,I,enter,318,1,1666.0,710388.2000000011,8023,WL,B,12.0
5,28.174999952316284,learn,60000.0,Wed Apr 09 2025 12:25:28 GMT-0500 (Central Daylight Time),713137.0999999996,A,l,I,l,1064,1,1082.5999999996275,712054.5,8023,WL,B,13.0
5,28.29099988937378,learn,60000.0,Wed Apr 09 2025 12:25:28 GMT-0500 (Central Daylight Time),713253.7000000011,A,la,I,a,101,1,1199.2000000011176,712054.5,8023,WL,B,13.0
5,28.641000032424927,learn,60000.0,Wed Apr 09 2025 12:25:28 GMT-0500 (Central Daylight Time),713603.5999999996,A,lak,I,k,345,1,1549.0999999996275,712054.5,8023,WL,B,13.0
5,28.87399983406067,learn,60000.0,Wed Apr 09 2025 12:25:28 GMT-0500 (Central Daylight Time),713837.0,A,lake,I,e,227,1,1782.5,712054.5,8023,WL,B,13.0
5,29.29099988937378,learn,60000.0,Wed Apr 09 2025 12:25:28 GMT-0500 (Central Daylight Time),714253.4000000004,A,lakeenter,I,enter,410,1,2198.9000000003725,712054.5,8023,WL,B,13.0
5,29.723999977111816,learn,60000.0,Wed Apr 09 2025 12:25:28 GMT-0500 (Central Daylight Time),714686.7000000011,A,s,I,s,425,1,432.90000000037253,714253.8000000007,8023,WL,B,14.0
5,29.973999977111816,learn,60000.0,Wed Apr 09 2025 12:25:28 GMT-0500 (Central Daylight Time),714936.5,A,st,I,t,232,1,682.6999999992549,714253.8000000007,8023,WL,B,14.0
5,30.156999826431274,learn,60000.0,Wed Apr 09 2025 12:25:28 GMT-0500 (Central Daylight Time),715120.0,A,sta,I,a,174,1,866.1999999992549,714253.8000000007,8023,WL,B,14.0
5,30.2739999294281,learn,60000.0,Wed Apr 09 2025 12:25:28 GMT-0500 (Central Daylight Time),715236.5,A,star,I,r,102,1,982.6999999992549,714253.8000000007,8023,WL,B,14.0
5,30.6729998588562,learn,60000.0,Wed Apr 09 2025 12:25:28 GMT-0500 (Central Daylight Time),715636.0999999996,A,starenter,I,enter,394,1,1382.2999999988824,714253.8000000007,8023,WL,B,14.0
5,39.23799991607666,learn,60000.0,Wed Apr 09 2025 12:25:28 GMT-0500 (Central Daylight Time),724200.4000000004,A,c,I,c,8547,1,8564.099999999627,715636.3000000007,8023,WL,B,15.0
5,39.4539999961853,learn,60000.0,Wed Apr 09 2025 12:25:28 GMT-0500 (Central Daylight Time),724417.0,A,ca,I,a,206,1,8780.699999999255,715636.3000000007,8023,WL,B,15.0
5,40.181999921798706,learn,60000.0,Wed Apr 09 2025 12:25:28 GMT-0500 (Central Daylight Time),725145.0,A,cab,I,b,706,1,9508.699999999255,715636.3000000007,8023,WL,B,15.0
5,40.3199999332428,learn,60000.0,Wed Apr 09 2025 12:25:28 GMT-0500 (Central Daylight Time),725282.9000000004,A,cabi,I,i,117,1,9646.599999999627,715636.3000000007,8023,WL,B,15.0
5,40.519999980926514,learn,60000.0,Wed Apr 09 2025 12:25:28 GMT-0500 (Central Daylight Time),725483.2000000011,A,cabin,I,n,180,1,9846.900000000373,715636.3000000007,8023,WL,B,15.0
5,40.8199999332428,learn,60000.0,Wed Apr 09 2025 12:25:28 GMT-0500 (Central Daylight Time),725783.0999999996,A,cabinenter,I,enter,283,1,10146.799999998882,715636.3000000007,8023,WL,B,15.0
6,1.6649999618530273,distr,58335.00003814697,Wed Apr 09 2025 12:25:28 GMT-0500 (Central Daylight Time),802959.2000000011,B,s,I,s,1649,1,1665.2000000011176,801294.0,8023,WL,B,1.0
6,1.998000144958496,distr,58001.999855041504,Wed Apr 09 2025 12:25:28 GMT-0500 (Central Daylight Time),803292.0999999996,B,st,I,t,327,1,1998.0999999996275,801294.0,8023,WL,B,1.0
6,2.182000160217285,distr,57817.999839782715,Wed Apr 09 2025 12:25:28 GMT-0500 (Central Daylight Time),803475.5999999996,B,sto,I,o,178,1,2181.5999999996275,801294.0,8023,WL,B,1.0
6,2.4149999618530273,distr,57585.00003814697,Wed Apr 09 2025 12:25:28 GMT-0500 (Central Daylight Time),803708.9000000004,B,stor,I,r,227,1,2414.9000000003725,801294.0,8023,WL,B,1.0
6,2.8310000896453857,distr,57168.999910354614,Wed Apr 09 2025 12:25:28 GMT-0500 (Central Daylight Time),804125.4000000004,B,storm,I,m,410,1,2831.4000000003725,801294.0,8023,WL,B,1.0
6,3.5480000972747803,distr,56451.99990272522,Wed Apr 09 2025 12:25:28 GMT-0500 (Central Daylight Time),804841.5999999996,B,stormenter,I,enter,705,1,3547.5999999996275,801294.0,8023,WL,B,1.0
6,4.04800009727478,distr,55951.99990272522,Wed Apr 09 2025 12:25:28 GMT-0500 (Central Daylight Time),805341.7000000011,B,o,I,o,493,1,499.7000000011176,804842.0,8023,WL,B,2.0
6,4.331000089645386,distr,55668.999910354614,Wed Apr 09 2025 12:25:28 GMT-0500 (Central Daylight Time),805624.8000000007,B,oc,I,c,273,1,782.8000000007451,804842.0,8023,WL,B,2.0
6,4.5970001220703125,distr,55402.99987792969,Wed Apr 09 2025 12:25:28 GMT-0500 (Central Daylight Time),805891.5,B,oci,I,i,247,1,1049.5,804842.0,8023,WL,B,2.0
6,5.697000026702881,distr,54302.99997329712,Wed Apr 09 2025 12:25:28 GMT-0500 (Central Daylight Time),806991.4000000004,B,oc,I,backspace,1083,1,2149.4000000003725,804842.0,8023,WL,B,2.0
6,6.080000162124634,distr,53919.999837875366,Wed Apr 09 2025 12:25:28 GMT-0500 (Central Daylight Time),807374.3000000007,B,oce,I,e,367,1,2532.300000000745,804842.0,8023,WL,B,2.0
6,6.248000144958496,distr,53751.999855041504,Wed Apr 09 2025 12:25:28 GMT-0500 (Central Daylight Time),807541.8000000007,B,ocea,I,a,152,1,2699.800000000745,804842.0,8023,WL,B,2.0
6,6.514000177383423,distr,53485.99982261658,Wed Apr 09 2025 12:25:28 GMT-0500 (Central Daylight Time),807807.7000000011,B,ocean,I,n,249,1,2965.7000000011176,804842.0,8023,WL,B,2.0
6,7.230000019073486,distr,52769.999980926514,Wed Apr 09 2025 12:25:28 GMT-0500 (Central Daylight Time),808524.0,B,oceanenter,I,enter,694,1,3682.0,804842.0,8023,WL,B,2.0
6,7.796000003814697,distr,52203.9999961853,Wed Apr 09 2025 12:25:28 GMT-0500 (Central Daylight Time),809090.4000000004,B,b,I,b,554,1,566.0,808524.4000000004,8023,WL,B,3.0
6,7.980000019073486,distr,52019.999980926514,Wed Apr 09 2025 12:25:28 GMT-0500 (Central Daylight Time),809273.7000000011,B,ba,I,a,172,1,749.3000000007451,808524.4000000004,8023,WL,B,3.0
6,8.163000106811523,distr,51836.99989318848,Wed Apr 09 2025 12:25:28 GMT-0500 (Central Daylight Time),809457.0999999996,B,bab,I,b,165,1,932.6999999992549,808524.4000000004,8023,WL,B,3.0
6,8.61300015449524,distr,51386.99984550476,Wed Apr 09 2025 12:25:28 GMT-0500 (Central Daylight Time),809906.9000000004,B,baby,I,y,437,1,1382.5,808524.4000000004,8023,WL,B,3.0
6,9.046000003814697,distr,50953.9999961853,Wed Apr 09 2025 12:25:28 GMT-0500 (Central Daylight Time),810340.0999999996,B,babyenter,I,enter,420,1,1815.699999999255,808524.4000000004,8023,WL,B,3.0
6,9.629000186920166,distr,50370.999813079834,Wed Apr 09 2025 12:25:28 GMT-0500 (Central Daylight Time),810923.5,B,l,I,l,578,1,583.0999999996275,810340.4000000004,8023,WL,B,4.0
6,9.92900013923645,distr,50070.99986076355,Wed Apr 09 2025 12:25:28 GMT-0500 (Central Daylight Time),811223.0999999996,B,li,I,i,283,1,882.6999999992549,810340.4000000004,8023,WL,B,4.0
6,10.213000059127808,distr,49786.99994087219,Wed Apr 09 2025 12:25:28 GMT-0500 (Central Daylight Time),811506.5999999996,B,lip,I,p,271,1,1166.199999999255,810340.4000000004,8023,WL,B,4.0
6,10.962000131607056,distr,49037.999868392944,Wed Apr 09 2025 12:25:28 GMT-0500 (Central Daylight Time),812256.0999999996,B,lipenter,I,enter,732,1,1915.699999999255,810340.4000000004,8023,WL,B,4.0
6,12.245000123977661,distr,47754.99987602234,Wed Apr 09 2025 12:25:28 GMT-0500 (Central Daylight Time),813538.7000000011,B,s,I,s,1262,1,1282.300000000745,812256.4000000004,8023,WL,B,5.0
6,12.545000076293945,distr,47454.999923706055,Wed Apr 09 2025 12:25:28 GMT-0500 (Central Daylight Time),813838.7000000011,B,st,I,t,284,1,1582.300000000745,812256.4000000004,8023,WL,B,5.0
6,12.795000076293945,distr,47204.999923706055,Wed Apr 09 2025 12:25:28 GMT-0500 (Central Daylight Time),814088.9000000004,B,ste,I,e,232,1,1832.5,812256.4000000004,8023,WL,B,5.0
6,12.945000171661377,distr,47054.99982833862,Wed Apr 09 2025 12:25:28 GMT-0500 (Central Daylight Time),814239.0,B,stea,I,a,142,1,1982.5999999996275,812256.4000000004,8023,WL,B,5.0
6,13.210999965667725,distr,46789.000034332275,Wed Apr 09 2025 12:25:28 GMT-0500 (Central Daylight Time),814505.4000000004,B,steam,I,m,256,1,2249.0,812256.4000000004,8023,WL,B,5.0
6,13.861000061035156,distr,46138.999938964844,Wed Apr 09 2025 12:25:28 GMT-0500 (Central Daylight Time),815155.0,B,steamenter,I,enter,629,1,2898.5999999996275,812256.4000000004,8023,WL,B,5.0
6,18.759999990463257,distr,41240.00000953674,Wed Apr 09 2025 12:25:28 GMT-0500 (Central Daylight Time),820053.7000000011,B,f,I,f,4883,1,4898.4000000003725,815155.3000000007,8023,WL,B,6.0
6,19.110000133514404,distr,40889.999866485596,Wed Apr 09 2025 12:25:28 GMT-0500 (Central Daylight Time),820403.5999999996,B,fr,I,r,337,1,5248.299999998882,815155.3000000007,8023,WL,B,6.0
6,19.325999975204468,distr,40674.00002479553,Wed Apr 09 2025 12:25:28 GMT-0500 (Central Daylight Time),820620.0,B,fre,I,e,203,1,5464.699999999255,815155.3000000007,8023,WL,B,6.0
6,19.64400005340576,distr,40355.99994659424,Wed Apr 09 2025 12:25:28 GMT-0500 (Central Daylight Time),820938.0,B,fres,I,s,298,1,5782.699999999255,815155.3000000007,8023,WL,B,6.0
6,20.426000118255615,distr,39573.999881744385,Wed Apr 09 2025 12:25:28 GMT-0500 (Central Daylight Time),821719.8000000007,B,fresh,I,h,764,1,6564.5,815155.3000000007,8023,WL,B,6.0
6,21.825999975204468,distr,38174.00002479553,Wed Apr 09 2025 12:25:28 GMT-0500 (Central Daylight Time),823119.5999999996,B,freshenter,I,enter,1383,1,7964.299999998882,815155.3000000007,8023,WL,B,6.0
6,32.07200002670288,distr,27927.99997329712,Wed Apr 09 2025 12:25:28 GMT-0500 (Central Daylight Time),833366.4000000004,B,enter,I,enter,10239,1,10246.300000000745,823120.0999999996,8023,WL,B,7.0
6,32.82200002670288,distr,27177.99997329712,Wed Apr 09 2025 12:25:28 GMT-0500 (Central Daylight Time),834116.0,B,enter,I,enter,736,1,749.2999999988824,833366.7000000011,8023,WL,B,8.0
6,33.371999979019165,distr,26628.000020980835,Wed Apr 09 2025 12:25:28 GMT-0500 (Central Daylight Time),834665.8000000007,B,enter,I,enter,538,1,549.5999999996275,834116.2000000011,8023,WL,B,9.0
6,33.78800010681152,distr,26211.999893188477,Wed Apr 09 2025 12:25:28 GMT-0500 (Central Daylight Time),835082.2000000011,B,enter,I,enter,397,1,416.2000000011176,834666.0,8023,WL,B,10.0
6,34.271000146865845,distr,25728.999853134155,Wed Apr 09 2025 12:25:28 GMT-0500 (Central Daylight Time),835565.5,B,enter,I,enter,476,1,482.90000000037253,835082.5999999996,8023,WL,B,11.0
6,34.6710000038147,distr,25328.999996185303,Wed Apr 09 2025 12:25:28 GMT-0500 (Central Daylight Time),835965.5,B,enter,I,enter,393,1,399.69999999925494,835565.8000000007,8023,WL,B,12.0
6,35.03800010681152,distr,24961.999893188477,Wed Apr 09 2025 12:25:28 GMT-0500 (Central Daylight Time),836332.0,B,enter,I,enter,353,1,366.19999999925494,835965.8000000007,8023,WL,B,13.0
6,35.456000089645386,distr,24543.999910354614,Wed Apr 09 2025 12:25:28 GMT-0500 (Central Daylight Time),836749.5999999996,B,enter,I,enter,411,1,417.2999999988824,836332.3000000007,8023,WL,B,14.0
6,36.65400004386902,distr,23345.99995613098,Wed Apr 09 2025 12:25:28 GMT-0500 (Central Daylight Time),837948.2000000011,B,enter,I,enter,1185,1,1198.300000000745,836749.9000000004,8023,WL,B,15.0
7,0.8329999446868896,immed,59167.00005531311,Wed Apr 09 2025 12:25:28 GMT-0500 (Central Daylight Time),852843.5999999996,A,c,I,c,813,1,833.0,852010.5999999996,8023,WL,B,1.0
7,1.0329999923706055,immed,58967.000007629395,Wed Apr 09 2025 12:25:28 GMT-0500 (Central Daylight Time),853043.5999999996,A,ca,I,a,186,1,1033.0,852010.5999999996,8023,WL,B,1.0
7,1.2829999923706055,immed,58717.000007629395,Wed Apr 09 2025 12:25:28 GMT-0500 (Central Daylight Time),853293.0999999996,A,cab,I,b,243,1,1282.5,852010.5999999996,8023,WL,B,1.0
7,1.565999984741211,immed,58434.00001525879,Wed Apr 09 2025 12:25:28 GMT-0500 (Central Daylight Time),853576.5,A,cabi,I,i,266,1,1565.9000000003725,852010.5999999996,8023,WL,B,1.0
7,1.7660000324249268,immed,58233.99996757507,Wed Apr 09 2025 12:25:28 GMT-0500 (Central Daylight Time),853776.4000000004,A,cabin,I,n,190,1,1765.800000000745,852010.5999999996,8023,WL,B,1.0
7,2.5490000247955322,immed,57450.99997520447,Wed Apr 09 2025 12:25:28 GMT-0500 (Central Daylight Time),854559.5,A,cabinenter,I,enter,766,1,2548.9000000003725,852010.5999999996,8023,WL,B,1.0
7,3.75,immed,56250.0,Wed Apr 09 2025 12:25:28 GMT-0500 (Central Daylight Time),855760.4000000004,A,s,I,s,1183,1,1200.699999999255,854559.7000000011,8023,WL,B,2.0
7,4.065999984741211,immed,55934.00001525879,Wed Apr 09 2025 12:25:28 GMT-0500 (Central Daylight Time),856075.7000000011,A,st,I,t,302,1,1516.0,854559.7000000011,8023,WL,B,2.0
7,4.365000009536743,immed,55634.99999046326,Wed Apr 09 2025 12:25:28 GMT-0500 (Central Daylight Time),856375.5999999996,A,str,I,r,290,1,1815.8999999985099,854559.7000000011,8023,WL,B,2.0
7,4.698999881744385,immed,55301.000118255615,Wed Apr 09 2025 12:25:28 GMT-0500 (Central Daylight Time),856708.9000000004,A,stre,I,e,319,1,2149.199999999255,854559.7000000011,8023,WL,B,2.0
7,4.881999969482422,immed,55118.00003051758,Wed Apr 09 2025 12:25:28 GMT-0500 (Central Daylight Time),856892.2000000011,A,stree,I,e,170,1,2332.5,854559.7000000011,8023,WL,B,2.0
7,5.181999921798706,immed,54818.000078201294,Wed Apr 09 2025 12:25:28 GMT-0500 (Central Daylight Time),857192.2000000011,A,street,I,t,290,1,2632.5,854559.7000000011,8023,WL,B,2.0
7,6.2820000648498535,immed,53717.99993515015,Wed Apr 09 2025 12:25:28 GMT-0500 (Central Daylight Time),858291.5999999996,A,streetenter,I,enter,1094,1,3731.89999999851,854559.7000000011,8023,WL,B,2.0
7,6.664999961853027,immed,53335.00003814697,Wed Apr 09 2025 12:25:28 GMT-0500 (Central Daylight Time),858674.9000000004,A,c,I,c,371,1,383.0,858291.9000000004,8023,WL,B,3.0
7,6.815000057220459,immed,53184.99994277954,Wed Apr 09 2025 12:25:28 GMT-0500 (Central Daylight Time),858825.0,A,ci,I,i,132,1,533.0999999996275,858291.9000000004,8023,WL,B,3.0
7,7.115000009536743,immed,52884.99999046326,Wed Apr 09 2025 12:25:28 GMT-0500 (Central Daylight Time),859124.8000000007,A,cit,I,t,294,1,832.9000000003725,858291.9000000004,8023,WL,B,3.0
7,7.38100004196167,immed,52618.99995803833,Wed Apr 09 2025 12:25:28 GMT-0500 (Central Daylight Time),859391.3000000007,A,city,I,y,258,1,1099.4000000003725,858291.9000000004,8023,WL,B,3.0
7,8.030999898910522,immed,51969.00010108948,Wed Apr 09 2025 12:25:28 GMT-0500 (Central Daylight Time),860041.3000000007,A,cityenter,I,enter,639,1,1749.4000000003725,858291.9000000004,8023,WL,B,3.0
7,9.164000034332275,immed,50835.999965667725,Wed Apr 09 2025 12:25:28 GMT-0500 (Central Daylight Time),861174.4000000004,A,g,I,g,1125,1,1132.9000000003725,860041.5,8023,WL,B,4.0
7,9.46399998664856,immed,50536.00001335144,Wed Apr 09 2025 12:25:28 GMT-0500 (Central Daylight Time),861474.2000000011,A,gr,I,r,280,1,1432.7000000011176,860041.5,8023,WL,B,4.0
7,9.680999994277954,immed,50319.000005722046,Wed Apr 09 2025 12:25:28 GMT-0500 (Central Daylight Time),861691.5999999996,A,gra,I,a,196,1,1650.0999999996275,860041.5,8023,WL,B,4.0
7,9.914000034332275,immed,50085.999965667725,Wed Apr 09 2025 12:25:28 GMT-0500 (Central Daylight Time),861923.9000000004,A,gras,I,s,227,1,1882.4000000003725,860041.5,8023,WL,B,4.0
7,10.114000082015991,immed,49885.99991798401,Wed Apr 09 2025 12:25:28 GMT-0500 (Central Daylight Time),862123.8000000007,A,grass,I,s,180,1,2082.300000000745,860041.5,8023,WL,B,4.0
7,10.430999994277954,immed,49569.000005722046,Wed Apr 09 2025 12:25:28 GMT-0500 (Central Daylight Time),862441.5999999996,A,grassenter,I,enter,307,1,2400.0999999996275,860041.5,8023,WL,B,4.0
7,10.69700002670288,immed,49302.99997329712,Wed Apr 09 2025 12:25:28 GMT-0500 (Central Daylight Time),862706.8000000007,A,a,I,a,245,1,265.0,862441.8000000007,8023,WL,B,5.0
7,10.914000034332275,immed,49085.999965667725,Wed Apr 09 2025 12:25:28 GMT-0500 (Central Daylight Time),862923.7000000011,A,ar,I,r,212,1,481.90000000037253,862441.8000000007,8023,WL,B,5.0
7,11.230000019073486,immed,48769.999980926514,Wed Apr 09 2025 12:25:28 GMT-0500 (Central Daylight Time),863240.2000000011,A,arm,I,m,307,1,798.4000000003725,862441.8000000007,8023,WL,B,5.0
7,11.663000106811523,immed,48336.99989318848,Wed Apr 09 2025 12:25:28 GMT-0500 (Central Daylight Time),863673.2000000011,A,armenter,I,enter,422,1,1231.4000000003725,862441.8000000007,8023,WL,B,5.0
7,12.02999997138977,immed,47970.00002861023,Wed Apr 09 2025 12:25:28 GMT-0500 (Central Daylight Time),864040.0,A,s,I,s,349,1,366.5,863673.5,8023,WL,B,6.0
7,12.180000066757202,immed,47819.9999332428,Wed Apr 09 2025 12:25:28 GMT-0500 (Central Daylight Time),864189.9000000004,A,sk,I,k,142,1,516.4000000003725,863673.5,8023,WL,B,6.0
7,12.480000019073486,immed,47519.999980926514,Wed Apr 09 2025 12:25:28 GMT-0500 (Central Daylight Time),864489.9000000004,A,ski,I,i,289,1,816.4000000003725,863673.5,8023,WL,B,6.0
7,12.730000019073486,immed,47269.999980926514,Wed Apr 09 2025 12:25:28 GMT-0500 (Central Daylight Time),864739.8000000007,A,skin,I,n,228,1,1066.300000000745,863673.5,8023,WL,B,6.0
7,13.046000003814697,immed,46953.9999961853,Wed Apr 09 2025 12:25:28 GMT-0500 (Central Daylight Time),865056.0,A,skinenter,I,enter,307,1,1382.5,863673.5,8023,WL,B,6.0
7,14.01200008392334,immed,45987.99991607666,Wed Apr 09 2025 12:25:28 GMT-0500 (Central Daylight Time),866022.5,A,w,I,w,950,1,966.1999999992549,865056.3000000007,8023,WL,B,7.0
7,14.164999961853027,immed,45835.00003814697,Wed Apr 09 2025 12:25:28 GMT-0500 (Central Daylight Time),866175.2000000011,A,wi,I,i,148,1,1118.9000000003725,865056.3000000007,8023,WL,B,7.0
7,14.328999996185303,immed,45671.0000038147,Wed Apr 09 2025 12:25:28 GMT-0500 (Central Daylight Time),866339.2000000011,A,wif,I,f,159,1,1282.9000000003725,865056.3000000007,8023,WL,B,7.0
7,14.661999940872192,immed,45338.00005912781,Wed Apr 09 2025 12:25:28 GMT-0500 (Central Daylight Time),866672.5,A,wife,I,e,315,1,1616.199999999255,865056.3000000007,8023,WL,B,7.0
7,14.979000091552734,immed,45020.999908447266,Wed Apr 09 2025 12:25:28 GMT-0500 (Central Daylight Time),866989.3000000007,A,wifeenter,I,enter,302,1,1933.0,865056.3000000007,8023,WL,B,7.0
7,15.26200008392334,immed,44737.99991607666,Wed Apr 09 2025 12:25:28 GMT-0500 (Central Daylight Time),867272.2000000011,A,w,I,w,273,1,282.6000000014901,866989.5999999996,8023,WL,B,8.0
7,15.411999940872192,immed,44588.00005912781,Wed Apr 09 2025 12:25:28 GMT-0500 (Central Daylight Time),867422.0,A,wi,I,i,134,1,432.40000000037253,866989.5999999996,8023,WL,B,8.0
7,15.911999940872192,immed,44088.00005912781,Wed Apr 09 2025 12:25:28 GMT-0500 (Central Daylight Time),867922.0,A,win,I,n,488,1,932.4000000003725,866989.5999999996,8023,WL,B,8.0
7,16.17799997329712,immed,43822.00002670288,Wed Apr 09 2025 12:25:28 GMT-0500 (Central Daylight Time),868188.7000000011,A,wind,I,d,261,1,1199.1000000014901,866989.5999999996,8023,WL,B,8.0
7,16.394999980926514,immed,43605.000019073486,Wed Apr 09 2025 12:25:28 GMT-0500 (Central Daylight Time),868405.3000000007,A,windo,I,o,202,1,1415.7000000011176,866989.5999999996,8023,WL,B,8.0
7,16.67799997329712,immed,43322.00002670288,Wed Apr 09 2025 12:25:28 GMT-0500 (Central Daylight Time),868688.3000000007,A,window,I,w,273,1,1698.7000000011176,866989.5999999996,8023,WL,B,8.0
7,17.01200008392334,immed,42987.99991607666,Wed Apr 09 2025 12:25:28 GMT-0500 (Central Daylight Time),869021.8000000007,A,windowenter,I,enter,318,1,2032.2000000011176,866989.5999999996,8023,WL,B,8.0
7,17.527999877929688,immed,42472.00012207031,Wed Apr 09 2025 12:25:28 GMT-0500 (Central Daylight Time),869538.0999999996,A,p,I,p,497,1,516.0,869022.0999999996,8023,WL,B,9.0
7,17.811000108718872,immed,42188.99989128113,Wed Apr 09 2025 12:25:28 GMT-0500 (Central Daylight Time),869821.5,A,pi,I,i,268,1,799.4000000003725,869022.0999999996,8023,WL,B,9.0
7,18.01099991798401,immed,41989.00008201599,Wed Apr 09 2025 12:25:28 GMT-0500 (Central Daylight Time),870021.4000000004,A,pip,I,p,185,1,999.3000000007451,869022.0999999996,8023,WL,B,9.0
7,18.42799997329712,immed,41572.00002670288,Wed Apr 09 2025 12:25:28 GMT-0500 (Central Daylight Time),870438.0999999996,A,pipe,I,e,401,1,1416.0,869022.0999999996,8023,WL,B,9.0
7,19.295000076293945,immed,40704.999923706055,Wed Apr 09 2025 12:25:28 GMT-0500 (Central Daylight Time),871305.4000000004,A,pipeenter,I,enter,848,1,2283.300000000745,869022.0999999996,8023,WL,B,9.0
7,20.859999895095825,immed,39140.000104904175,Wed Apr 09 2025 12:25:28 GMT-0500 (Central Daylight Time),872870.5,A,c,I,c,1549,1,1564.7999999988824,871305.7000000011,8023,WL,B,10.0
7,20.960000038146973,immed,39039.99996185303,Wed Apr 09 2025 12:25:28 GMT-0500 (Central Daylight Time),872970.5,A,cl,I,l,88,1,1664.7999999988824,871305.7000000011,8023,WL,B,10.0
7,21.276999950408936,immed,38723.000049591064,Wed Apr 09 2025 12:25:28 GMT-0500 (Central Daylight Time),873287.0999999996,A,clo,I,o,300,1,1981.3999999985099,871305.7000000011,8023,WL,B,10.0
7,21.80999994277954,immed,38190.00005722046,Wed Apr 09 2025 12:25:28 GMT-0500 (Central Daylight Time),873820.2000000011,A,cloc,I,c,528,1,2514.5,871305.7000000011,8023,WL,B,10.0
7,22.026999950408936,immed,37973.000049591064,Wed Apr 09 2025 12:25:28 GMT-0500 (Central Daylight Time),874036.8000000007,A,clock,I,k,210,1,2731.0999999996275,871305.7000000011,8023,WL,B,10.0
7,22.592999935150146,immed,37407.00006484985,Wed Apr 09 2025 12:25:28 GMT-0500 (Central Daylight Time),874603.4000000004,A,clockenter,I,enter,546,1,3297.699999999255,871305.7000000011,8023,WL,B,10.0
7,26.408999919891357,immed,33591.00008010864,Wed Apr 09 2025 12:25:28 GMT-0500 (Central Daylight Time),878418.8000000007,A,s,I,s,3795,1,3815.2000000011176,874603.5999999996,8023,WL,B,11.0
7,26.691999912261963,immed,33308.00008773804,Wed Apr 09 2025 12:25:28 GMT-0500 (Central Daylight Time),878702.0999999996,A,st,I,t,276,1,4098.5,874603.5999999996,8023,WL,B,11.0
7,26.89199995994568,immed,33108.00004005432,Wed Apr 09 2025 12:25:28 GMT-0500 (Central Daylight Time),878902.0,A,sta,I,a,192,1,4298.4000000003725,874603.5999999996,8023,WL,B,11.0
7,27.092000007629395,immed,32907.999992370605,Wed Apr 09 2025 12:25:28 GMT-0500 (Central Daylight Time),879101.8000000007,A,star,I,r,184,1,4498.200000001118,874603.5999999996,8023,WL,B,11.0
7,27.558000087738037,immed,32441.999912261963,Wed Apr 09 2025 12:25:28 GMT-0500 (Central Daylight Time),879568.4000000004,A,starenter,I,enter,457,1,4964.800000000745,874603.5999999996,8023,WL,B,11.0
7,29.891000032424927,immed,30108.999967575073,Wed Apr 09 2025 12:25:28 GMT-0500 (Central Daylight Time),881901.0999999996,A,p,I,p,2319,1,2332.39999999851,879568.7000000011,8023,WL,B,12.0
7,30.124000072479248,immed,29875.999927520752,Wed Apr 09 2025 12:25:28 GMT-0500 (Central Daylight Time),882134.4000000004,A,pu,I,u,225,1,2565.699999999255,879568.7000000011,8023,WL,B,12.0
7,30.35699987411499,immed,29643.00012588501,Wed Apr 09 2025 12:25:28 GMT-0500 (Central Daylight Time),882367.5,A,pup,I,p,224,1,2798.7999999988824,879568.7000000011,8023,WL,B,12.0
7,30.756999969482422,immed,29243.000030517578,Wed Apr 09 2025 12:25:28 GMT-0500 (Central Daylight Time),882767.5999999996,A,pupi,I,i,383,1,3198.89999999851,879568.7000000011,8023,WL,B,12.0
7,31.056999921798706,immed,28943.000078201294,Wed Apr 09 2025 12:25:28 GMT-0500 (Central Daylight Time),883067.3000000007,A,pupil,I,l,287,1,3498.5999999996275,879568.7000000011,8023,WL,B,12.0
7,31.473999977111816,immed,28526.000022888184,Wed Apr 09 2025 12:25:28 GMT-0500 (Central Daylight Time),883483.9000000004,A,pupilenter,I,enter,403,1,3915.199999999255,879568.7000000011,8023,WL,B,12.0
7,39.6710000038147,immed,20328.999996185303,Wed Apr 09 2025 12:25:28 GMT-0500 (Central Daylight Time),891681.4000000004,A,l,I,l,8179,1,8197.300000000745,883484.0999999996,8023,WL,B,13.0
7,39.78800010681152,immed,20211.999893188477,Wed Apr 09 2025 12:25:28 GMT-0500 (Central Daylight Time),891798.0,A,la,I,a,101,1,8313.900000000373,883484.0999999996,8023,WL,B,13.0
7,40.05399990081787,immed,19946.00009918213,Wed Apr 09 2025 12:25:28 GMT-0500 (Central Daylight Time),892064.5999999996,A,lak,I,k,249,1,8580.5,883484.0999999996,8023,WL,B,13.0
7,40.28800010681152,immed,19711.999893188477,Wed Apr 09 2025 12:25:28 GMT-0500 (Central Daylight Time),892297.7000000011,A,lake,I,e,214,1,8813.60000000149,883484.0999999996,8023,WL,B,13.0
7,40.55399990081787,immed,19446.00009918213,Wed Apr 09 2025 12:25:28 GMT-0500 (Central Daylight Time),892564.2000000011,A,lakeenter,I,enter,262,1,9080.10000000149,883484.0999999996,8023,WL,B,13.0
7,60.013999938964844,immed,-13.99993896484375,Wed Apr 09 2025 12:25:28 GMT-0500 (Central Daylight Time),912025.2000000011,A,None,I,None,19456,1,19460.700000001118,892564.5,8023,WL,B,14.0
