Number,acc_sum,block,block_c,block_cond,con_img,correct,correct_response,datetime,endtime,jitter,project,response,response_time,row_sel,session_number,start_end,starttime,subject_id,task,task_vers,trial
9,0,prac,1,A,circle.png,0,m,Wed Nov 20 2024 13:18:50 GMT-0600 (Central Standard Time),81574.20000000298,1500,I,None,1515,8,2,3793.4000000059605,77780.79999999702,8000,NTS,A,1
2,1,prac,1,A,circle.png,1,z,Wed Nov 20 2024 13:18:50 GMT-0600 (Central Standard Time),85639.5,2000,I,z,1268,2,2,4059.39999999851,81580.10000000149,8000,NTS,A,2
9,2,prac,1,A,circle.png,1,m,Wed Nov 20 2024 13:18:50 GMT-0600 (Central Standard Time),88638.70000000298,1500,I,m,711,8,2,2993.9000000059605,85644.79999999702,8000,NTS,A,3
8,3,prac,1,A,circle.png,1,m,Wed Nov 20 2024 13:18:50 GMT-0600 (Central Standard Time),91721.0,1600,I,m,692,7,2,3076.10000000149,88644.89999999851,8000,NTS,A,4
1,4,prac,1,A,circle.png,1,z,Wed Nov 20 2024 13:18:50 GMT-0600 (Central Standard Time),94153.60000000149,1000,I,z,633,1,2,2426.8000000044703,91726.79999999702,8000,NTS,A,5
3,5,prac,1,A,circle.png,1,z,Wed Nov 20 2024 13:18:50 GMT-0600 (Central Standard Time),96952.70000000298,1200,I,z,808,3,2,2793.4000000059605,94159.29999999702,8000,NTS,A,6
1,6,prac,1,A,circle.png,1,z,Wed Nov 20 2024 13:18:50 GMT-0600 (Central Standard Time),99285.29999999702,1000,I,z,537,1,2,2327.1999999955297,96958.10000000149,8000,NTS,A,7
7,7,prac,1,A,circle.png,1,m,Wed Nov 20 2024 13:18:50 GMT-0600 (Central Standard Time),102367.70000000298,1700,I,m,584,6,2,3077.2000000029802,99290.5,8000,NTS,A,8
4,8,prac,1,A,circle.png,1,z,Wed Nov 20 2024 13:18:50 GMT-0600 (Central Standard Time),105266.79999999702,1400,I,z,715,4,2,2893.7999999970198,102373.0,8000,NTS,A,9
8,9,prac,1,A,circle.png,1,m,Wed Nov 20 2024 13:18:50 GMT-0600 (Central Standard Time),108249.20000000298,1600,I,m,592,7,2,2977.0,105272.20000000298,8000,NTS,A,10
7,10,prac,1,A,circle.png,1,m,Wed Nov 20 2024 13:18:50 GMT-0600 (Central Standard Time),111348.20000000298,1700,I,m,613,6,2,3093.5,108254.70000000298,8000,NTS,A,11
6,11,prac,1,A,circle.png,1,m,Wed Nov 20 2024 13:18:50 GMT-0600 (Central Standard Time),115113.79999999702,1900,I,m,946,5,2,3760.0999999940395,111353.70000000298,8000,NTS,A,12
9,0,prac,1,B,triangle.png,0,z,Wed Nov 20 2024 13:18:50 GMT-0600 (Central Standard Time),160132.5,1400,I,None,1515,8,2,3694.0,156438.5,8000,NTS,A,1
1,1,prac,1,B,triangle.png,1,z,Wed Nov 20 2024 13:18:50 GMT-0600 (Central Standard Time),163715.0,1900,I,z,898,1,2,3576.89999999851,160138.1000000015,8000,NTS,A,2
4,2,prac,1,B,triangle.png,1,m,Wed Nov 20 2024 13:18:50 GMT-0600 (Central Standard Time),166914.1000000015,1500,I,m,908,4,2,3194.10000000149,163720.0,8000,NTS,A,3
2,3,prac,1,B,triangle.png,1,m,Wed Nov 20 2024 13:18:50 GMT-0600 (Central Standard Time),170296.20000000298,1700,I,m,884,2,2,3377.3000000044703,166918.8999999985,8000,NTS,A,4
3,4,prac,1,B,triangle.png,1,z,Wed Nov 20 2024 13:18:50 GMT-0600 (Central Standard Time),173628.5,1600,I,z,938,3,2,3327.0,170301.5,8000,NTS,A,5
8,5,prac,1,B,triangle.png,1,m,Wed Nov 20 2024 13:18:50 GMT-0600 (Central Standard Time),176394.5,1200,I,m,782,7,2,2761.0,173633.5,8000,NTS,A,6
6,6,prac,1,B,triangle.png,1,m,Wed Nov 20 2024 13:18:50 GMT-0600 (Central Standard Time),178910.20000000298,1000,I,m,720,5,2,2510.5,176399.70000000298,8000,NTS,A,7
1,7,prac,1,B,triangle.png,1,z,Wed Nov 20 2024 13:18:50 GMT-0600 (Central Standard Time),182376.0,1900,I,z,776,1,2,3460.7999999970198,178915.20000000298,8000,NTS,A,8
9,8,prac,1,B,triangle.png,1,z,Wed Nov 20 2024 13:18:50 GMT-0600 (Central Standard Time),185708.0,1400,I,z,1161,8,2,3327.10000000149,182380.8999999985,8000,NTS,A,9
6,9,prac,1,B,triangle.png,1,m,Wed Nov 20 2024 13:18:50 GMT-0600 (Central Standard Time),188373.70000000298,1000,I,m,878,5,2,2660.0,185713.70000000298,8000,NTS,A,10
8,9,prac,1,B,triangle.png,0,m,Wed Nov 20 2024 13:18:50 GMT-0600 (Central Standard Time),191506.5,1200,I,z,1149,7,2,3125.2999999970198,188381.20000000298,8000,NTS,A,11
7,10,prac,1,B,triangle.png,1,z,Wed Nov 20 2024 13:18:50 GMT-0600 (Central Standard Time),195654.8999999985,2000,I,z,1361,6,2,4143.60000000149,191511.29999999702,8000,NTS,A,12
1,1,test,1,A,circle.png,1,z,Wed Nov 20 2024 13:18:50 GMT-0600 (Central Standard Time),225379.0,1000,I,z,958,1,2,1977.8999999985099,223401.1000000015,8000,NTS,A,1
1,2,test,1,A,circle.png,1,z,Wed Nov 20 2024 13:18:50 GMT-0600 (Central Standard Time),227045.1000000015,1000,I,z,638,1,2,1662.0,225383.1000000015,8000,NTS,A,2
2,3,test,1,A,circle.png,1,z,Wed Nov 20 2024 13:18:50 GMT-0600 (Central Standard Time),229877.5,2000,I,z,805,2,2,2828.7999999970198,227048.70000000298,8000,NTS,A,3
7,4,test,1,A,circle.png,1,m,Wed Nov 20 2024 13:18:50 GMT-0600 (Central Standard Time),232443.20000000298,1700,I,m,849,6,2,2562.10000000149,229881.1000000015,8000,NTS,A,4
2,5,test,1,A,circle.png,1,z,Wed Nov 20 2024 13:18:50 GMT-0600 (Central Standard Time),235209.3999999985,2000,I,z,735,2,2,2762.5,232446.8999999985,8000,NTS,A,5
1,6,test,1,A,circle.png,1,z,Wed Nov 20 2024 13:18:50 GMT-0600 (Central Standard Time),237158.20000000298,1000,I,z,921,1,2,1945.1000000014901,235213.1000000015,8000,NTS,A,6
8,7,test,1,A,circle.png,1,m,Wed Nov 20 2024 13:18:50 GMT-0600 (Central Standard Time),239741.0,1600,I,m,963,7,2,2579.0,237162.0,8000,NTS,A,7
7,8,test,1,A,circle.png,1,m,Wed Nov 20 2024 13:18:50 GMT-0600 (Central Standard Time),242291.3999999985,1700,I,m,825,6,2,2546.7999999970198,239744.6000000015,8000,NTS,A,8
9,9,test,1,A,circle.png,1,m,Wed Nov 20 2024 13:18:50 GMT-0600 (Central Standard Time),244406.5,1500,I,m,596,8,2,2111.2999999970198,242295.20000000298,8000,NTS,A,9
7,10,test,1,A,circle.png,1,m,Wed Nov 20 2024 13:18:50 GMT-0600 (Central Standard Time),246622.1000000015,1700,I,m,496,6,2,2211.89999999851,244410.20000000298,8000,NTS,A,10
6,11,test,1,A,circle.png,1,m,Wed Nov 20 2024 13:18:50 GMT-0600 (Central Standard Time),249238.0,1900,I,m,688,5,2,2612.10000000149,246625.8999999985,8000,NTS,A,11
2,12,test,1,A,circle.png,1,z,Wed Nov 20 2024 13:18:50 GMT-0600 (Central Standard Time),251820.70000000298,2000,I,z,556,2,2,2578.9000000059605,249241.79999999702,8000,NTS,A,12
3,13,test,1,A,circle.png,1,z,Wed Nov 20 2024 13:18:50 GMT-0600 (Central Standard Time),253753.29999999702,1200,I,z,702,3,2,1928.6999999955297,251824.6000000015,8000,NTS,A,13
2,14,test,1,A,circle.png,1,z,Wed Nov 20 2024 13:18:50 GMT-0600 (Central Standard Time),256469.3999999985,2000,I,z,689,2,2,2712.0,253757.3999999985,8000,NTS,A,14
4,15,test,1,A,circle.png,1,z,Wed Nov 20 2024 13:18:50 GMT-0600 (Central Standard Time),258835.1000000015,1400,I,z,941,4,2,2361.7000000029802,256473.3999999985,8000,NTS,A,15
3,16,test,1,A,circle.png,1,z,Wed Nov 20 2024 13:18:50 GMT-0600 (Central Standard Time),260518.1000000015,1200,I,z,455,3,2,1679.1000000014901,258839.0,8000,NTS,A,16
4,17,test,1,A,circle.png,1,z,Wed Nov 20 2024 13:18:50 GMT-0600 (Central Standard Time),262717.200000003,1400,I,z,772,4,2,2195.2000000029802,260522.0,8000,NTS,A,17
3,18,test,1,A,circle.png,1,z,Wed Nov 20 2024 13:18:50 GMT-0600 (Central Standard Time),264566.6000000015,1200,I,z,629,3,2,1845.5,262721.1000000015,8000,NTS,A,18
7,19,test,1,A,circle.png,1,m,Wed Nov 20 2024 13:18:50 GMT-0600 (Central Standard Time),266832.5,1700,I,m,544,6,2,2262.39999999851,264570.1000000015,8000,NTS,A,19
4,20,test,1,A,circle.png,1,z,Wed Nov 20 2024 13:18:50 GMT-0600 (Central Standard Time),268832.1000000015,1400,I,z,577,4,2,1995.8000000044703,266836.299999997,8000,NTS,A,20
6,21,test,1,A,circle.png,1,m,Wed Nov 20 2024 13:18:50 GMT-0600 (Central Standard Time),271514.5,1900,I,m,758,5,2,2678.60000000149,268835.8999999985,8000,NTS,A,21
9,22,test,1,A,circle.png,1,m,Wed Nov 20 2024 13:18:50 GMT-0600 (Central Standard Time),273847.200000003,1500,I,m,804,8,2,2328.9000000059605,271518.299999997,8000,NTS,A,22
8,23,test,1,A,circle.png,1,m,Wed Nov 20 2024 13:18:50 GMT-0600 (Central Standard Time),276129.799999997,1600,I,m,651,7,2,2278.7999999970198,273851.0,8000,NTS,A,23
8,24,test,1,A,circle.png,1,m,Wed Nov 20 2024 13:18:50 GMT-0600 (Central Standard Time),278413.299999997,1600,I,m,665,7,2,2279.5999999940395,276133.700000003,8000,NTS,A,24
8,1,test,1,B,triangle.png,1,m,Wed Nov 20 2024 13:18:50 GMT-0600 (Central Standard Time),297473.1000000015,1700,I,m,702,15,2,2429.7000000029802,295043.3999999985,8000,NTS,A,1
7,2,test,1,B,triangle.png,1,z,Wed Nov 20 2024 13:18:50 GMT-0600 (Central Standard Time),299672.3999999985,1600,I,z,577,14,2,2195.0,297477.3999999985,8000,NTS,A,2
9,3,test,1,B,triangle.png,1,z,Wed Nov 20 2024 13:18:50 GMT-0600 (Central Standard Time),302121.3999999985,1400,I,z,1026,8,2,2445.39999999851,299676.0,8000,NTS,A,3
9,4,test,1,B,triangle.png,1,z,Wed Nov 20 2024 13:18:50 GMT-0600 (Central Standard Time),304587.299999997,1900,I,z,549,16,2,2461.6999999955297,302125.6000000015,8000,NTS,A,4
8,5,test,1,B,triangle.png,1,m,Wed Nov 20 2024 13:18:50 GMT-0600 (Central Standard Time),306419.8999999985,1200,I,m,615,7,2,1829.0,304590.8999999985,8000,NTS,A,5
1,6,test,1,B,triangle.png,1,z,Wed Nov 20 2024 13:18:50 GMT-0600 (Central Standard Time),309136.0,1900,I,z,795,1,2,2712.60000000149,306423.3999999985,8000,NTS,A,6
7,7,test,1,B,triangle.png,1,z,Wed Nov 20 2024 13:18:50 GMT-0600 (Central Standard Time),312268.299999997,2000,I,z,1114,6,2,3128.5,309139.799999997,8000,NTS,A,7
2,8,test,1,B,triangle.png,1,m,Wed Nov 20 2024 13:18:50 GMT-0600 (Central Standard Time),314134.299999997,1200,I,m,638,10,2,1862.3999999985099,312271.8999999985,8000,NTS,A,8
2,9,test,1,B,triangle.png,1,m,Wed Nov 20 2024 13:18:50 GMT-0600 (Central Standard Time),316017.1000000015,1200,I,m,652,10,2,1878.6000000014901,314138.5,8000,NTS,A,9
8,10,test,1,B,triangle.png,1,m,Wed Nov 20 2024 13:18:50 GMT-0600 (Central Standard Time),318166.5,1200,I,m,929,7,2,2145.2000000029802,316021.299999997,8000,NTS,A,10
1,11,test,1,B,triangle.png,1,z,Wed Nov 20 2024 13:18:50 GMT-0600 (Central Standard Time),320982.1000000015,1900,I,z,888,1,2,2811.8000000044703,318170.299999997,8000,NTS,A,11
6,12,test,1,B,triangle.png,1,m,Wed Nov 20 2024 13:18:50 GMT-0600 (Central Standard Time),323131.3999999985,1500,I,m,632,13,2,2145.6999999955297,320985.700000003,8000,NTS,A,12
3,13,test,1,B,triangle.png,1,z,Wed Nov 20 2024 13:18:50 GMT-0600 (Central Standard Time),325514.1000000015,1600,I,z,751,3,2,2379.10000000149,323135.0,8000,NTS,A,13
2,14,test,1,B,triangle.png,1,m,Wed Nov 20 2024 13:18:50 GMT-0600 (Central Standard Time),328030.1000000015,1700,I,m,788,2,2,2512.3000000044703,325517.799999997,8000,NTS,A,14
1,15,test,1,B,triangle.png,1,z,Wed Nov 20 2024 13:18:50 GMT-0600 (Central Standard Time),330379.200000003,1400,I,z,917,9,2,2345.3000000044703,328033.8999999985,8000,NTS,A,15
6,16,test,1,B,triangle.png,1,m,Wed Nov 20 2024 13:18:50 GMT-0600 (Central Standard Time),332112.299999997,1000,I,m,711,5,2,1729.2999999970198,330383.0,8000,NTS,A,16
3,17,test,1,B,triangle.png,1,z,Wed Nov 20 2024 13:18:50 GMT-0600 (Central Standard Time),334728.0,2000,I,z,587,11,2,2612.0,332116.0,8000,NTS,A,17
7,18,test,1,B,triangle.png,1,z,Wed Nov 20 2024 13:18:50 GMT-0600 (Central Standard Time),336977.1000000015,1600,I,z,627,14,2,2245.60000000149,334731.5,8000,NTS,A,18
2,19,test,1,B,triangle.png,1,m,Wed Nov 20 2024 13:18:50 GMT-0600 (Central Standard Time),339559.799999997,1700,I,m,853,2,2,2579.0999999940395,336980.700000003,8000,NTS,A,19
4,20,test,1,B,triangle.png,1,m,Wed Nov 20 2024 13:18:50 GMT-0600 (Central Standard Time),341525.799999997,1000,I,m,947,12,2,1962.3999999985099,339563.3999999985,8000,NTS,A,20
9,21,test,1,B,triangle.png,1,z,Wed Nov 20 2024 13:18:50 GMT-0600 (Central Standard Time),344208.200000003,1900,I,z,753,16,2,2678.60000000149,341529.6000000015,8000,NTS,A,21
4,22,test,1,B,triangle.png,1,m,Wed Nov 20 2024 13:18:50 GMT-0600 (Central Standard Time),346607.5,1500,I,m,878,4,2,2395.60000000149,344211.8999999985,8000,NTS,A,22
3,23,test,1,B,triangle.png,1,z,Wed Nov 20 2024 13:18:50 GMT-0600 (Central Standard Time),349503.700000003,2000,I,z,879,11,2,2892.3000000044703,346611.3999999985,8000,NTS,A,23
7,24,test,1,B,triangle.png,1,z,Wed Nov 20 2024 13:18:50 GMT-0600 (Central Standard Time),352089.1000000015,2000,I,z,560,6,2,2581.5,349507.6000000015,8000,NTS,A,24
3,1,prac,1,C,triangle.png,1,z,Wed Nov 20 2024 13:18:50 GMT-0600 (Central Standard Time),400257.3999999985,1500,I,z,1108,3,2,3391.39999999851,396866.0,8000,NTS,A,1
4,1,prac,1,C,circle.png,0,z,Wed Nov 20 2024 13:18:50 GMT-0600 (Central Standard Time),403556.299999997,1000,I,None,1515,4,2,3293.39999999851,400262.8999999985,8000,NTS,A,2
3,2,prac,1,C,triangle.png,1,z,Wed Nov 20 2024 13:18:50 GMT-0600 (Central Standard Time),406772.0,1500,I,z,930,3,2,3210.7999999970198,403561.200000003,8000,NTS,A,3
9,3,prac,1,C,circle.png,1,m,Wed Nov 20 2024 13:18:50 GMT-0600 (Central Standard Time),410471.6000000015,1900,I,m,1002,8,2,3695.0,406776.6000000015,8000,NTS,A,4
8,4,prac,1,C,triangle.png,1,m,Wed Nov 20 2024 13:18:50 GMT-0600 (Central Standard Time),413786.299999997,1400,I,m,1132,7,2,3309.39999999851,410476.8999999985,8000,NTS,A,5
8,5,prac,1,C,triangle.png,1,m,Wed Nov 20 2024 13:18:50 GMT-0600 (Central Standard Time),416835.6000000015,1400,I,m,856,7,2,3044.10000000149,413791.5,8000,NTS,A,6
1,6,prac,1,C,circle.png,1,z,Wed Nov 20 2024 13:18:50 GMT-0600 (Central Standard Time),420667.799999997,1700,I,z,1339,1,2,3827.2999999970198,416840.5,8000,NTS,A,7
6,7,prac,1,C,circle.png,1,m,Wed Nov 20 2024 13:18:50 GMT-0600 (Central Standard Time),424450.0,2000,I,m,999,5,2,3777.2999999970198,420672.700000003,8000,NTS,A,8
2,7,prac,1,C,triangle.png,0,m,Wed Nov 20 2024 13:18:50 GMT-0600 (Central Standard Time),428082.1000000015,1600,I,z,1249,2,2,3627.3000000044703,424454.799999997,8000,NTS,A,9
4,8,prac,1,C,circle.png,1,z,Wed Nov 20 2024 13:18:50 GMT-0600 (Central Standard Time),431264.3999999985,1000,I,z,1392,4,2,3177.39999999851,428087.0,8000,NTS,A,10
7,8,prac,1,C,triangle.png,0,z,Wed Nov 20 2024 13:18:50 GMT-0600 (Central Standard Time),434763.1000000015,1200,I,None,1516,6,2,3493.60000000149,431269.5,8000,NTS,A,11
2,8,prac,1,C,triangle.png,0,m,Wed Nov 20 2024 13:18:50 GMT-0600 (Central Standard Time),438295.3999999985,1600,I,z,1143,2,2,3527.2999999970198,434768.1000000015,8000,NTS,A,12
1,1,test,1,C,circle.png,1,z,Wed Nov 20 2024 13:18:50 GMT-0600 (Central Standard Time),464453.799999997,1000,I,z,1004,1,2,2029.3999999985099,462424.3999999985,8000,NTS,A,1
8,2,test,1,C,triangle.png,1,m,Wed Nov 20 2024 13:18:50 GMT-0600 (Central Standard Time),467344.1000000015,1600,I,m,1273,7,2,2886.0,464458.1000000015,8000,NTS,A,2
3,3,test,1,C,triangle.png,1,z,Wed Nov 20 2024 13:18:50 GMT-0600 (Central Standard Time),469701.700000003,1200,I,z,1138,3,2,2353.4000000059605,467348.299999997,8000,NTS,A,3
3,4,test,1,C,circle.png,1,z,Wed Nov 20 2024 13:18:50 GMT-0600 (Central Standard Time),472334.799999997,1600,I,z,1004,19,2,2629.0,469705.799999997,8000,NTS,A,4
3,5,test,1,C,circle.png,1,z,Wed Nov 20 2024 13:18:50 GMT-0600 (Central Standard Time),475250.299999997,1600,I,z,1284,11,2,2911.5999999940395,472338.700000003,8000,NTS,A,5
6,5,test,1,C,triangle.png,0,m,Wed Nov 20 2024 13:18:50 GMT-0600 (Central Standard Time),477783.0,1000,I,None,1516,13,2,2528.7999999970198,475254.200000003,8000,NTS,A,6
2,5,test,1,C,circle.png,0,z,Wed Nov 20 2024 13:18:50 GMT-0600 (Central Standard Time),480848.700000003,1700,I,m,1343,10,2,3061.9000000059605,477786.799999997,8000,NTS,A,7
6,6,test,1,C,circle.png,1,m,Wed Nov 20 2024 13:18:50 GMT-0600 (Central Standard Time),484264.5,1900,I,m,1486,21,2,3412.10000000149,480852.3999999985,8000,NTS,A,8
6,7,test,1,C,circle.png,1,m,Wed Nov 20 2024 13:18:50 GMT-0600 (Central Standard Time),487063.3999999985,1900,I,m,870,5,2,2795.0,484268.3999999985,8000,NTS,A,9
8,7,test,1,C,triangle.png,0,m,Wed Nov 20 2024 13:18:50 GMT-0600 (Central Standard Time),490195.700000003,1600,I,None,1516,23,2,3128.5,487067.200000003,8000,NTS,A,10
1,8,test,1,C,triangle.png,1,z,Wed Nov 20 2024 13:18:50 GMT-0600 (Central Standard Time),493244.8999999985,1900,I,z,1123,9,2,3045.2999999970198,490199.6000000015,8000,NTS,A,11
2,9,test,1,C,triangle.png,1,m,Wed Nov 20 2024 13:18:50 GMT-0600 (Central Standard Time),496543.700000003,2000,I,m,1270,2,2,3294.9000000059605,493248.799999997,8000,NTS,A,12
7,9,test,1,C,circle.png,0,m,Wed Nov 20 2024 13:18:50 GMT-0600 (Central Standard Time),500076.1000000015,2000,I,None,1516,14,2,3528.60000000149,496547.5,8000,NTS,A,13
8,10,test,1,C,circle.png,1,m,Wed Nov 20 2024 13:18:50 GMT-0600 (Central Standard Time),502258.5,1200,I,m,959,15,2,2178.39999999851,500080.1000000015,8000,NTS,A,14
9,10,test,1,C,triangle.png,0,z,Wed Nov 20 2024 13:18:50 GMT-0600 (Central Standard Time),505191.200000003,1400,I,None,1516,16,2,2928.60000000149,502262.6000000015,8000,NTS,A,15
7,11,test,1,C,triangle.png,1,z,Wed Nov 20 2024 13:18:50 GMT-0600 (Central Standard Time),508040.200000003,1700,I,z,1127,22,2,2845.2000000029802,505195.0,8000,NTS,A,16
9,12,test,1,C,circle.png,1,m,Wed Nov 20 2024 13:18:50 GMT-0600 (Central Standard Time),511005.8999999985,1500,I,m,1438,8,2,2961.7999999970198,508044.1000000015,8000,NTS,A,17
2,13,test,1,C,circle.png,1,z,Wed Nov 20 2024 13:18:50 GMT-0600 (Central Standard Time),513788.0,1700,I,z,1065,18,2,2778.10000000149,511009.8999999985,8000,NTS,A,18
9,14,test,1,C,circle.png,1,m,Wed Nov 20 2024 13:18:50 GMT-0600 (Central Standard Time),516370.8999999985,1500,I,m,1058,24,2,2579.1999999955297,513791.700000003,8000,NTS,A,19
4,15,test,1,C,circle.png,1,z,Wed Nov 20 2024 13:18:50 GMT-0600 (Central Standard Time),518653.3999999985,1400,I,z,864,4,2,2278.7999999970198,516374.6000000015,8000,NTS,A,20
4,15,test,1,C,triangle.png,0,m,Wed Nov 20 2024 13:18:50 GMT-0600 (Central Standard Time),521402.5,1500,I,z,1217,12,2,2745.2999999970198,518657.200000003,8000,NTS,A,21
4,15,test,1,C,triangle.png,0,m,Wed Nov 20 2024 13:18:50 GMT-0600 (Central Standard Time),524434.799999997,1500,I,None,1516,20,2,3028.39999999851,521406.3999999985,8000,NTS,A,22
7,15,test,1,C,triangle.png,0,z,Wed Nov 20 2024 13:18:50 GMT-0600 (Central Standard Time),527667.299999997,1700,I,None,1516,6,2,3228.5999999940395,524438.700000003,8000,NTS,A,23
1,16,test,1,C,triangle.png,1,z,Wed Nov 20 2024 13:18:50 GMT-0600 (Central Standard Time),530549.6000000015,1900,I,z,956,17,2,2878.5,527671.1000000015,8000,NTS,A,24
6,0,test,2,C,triangle.png,0,m,Wed Nov 20 2024 13:18:50 GMT-0600 (Central Standard Time),545511.799999997,1000,I,None,1516,21,2,2529.2999999970198,542982.5,8000,NTS,A,1
2,0,test,2,C,triangle.png,0,m,Wed Nov 20 2024 13:18:50 GMT-0600 (Central Standard Time),549027.299999997,2000,I,z,1491,2,2,3511.6999999955297,545515.6000000015,8000,NTS,A,2
7,1,test,2,C,triangle.png,1,z,Wed Nov 20 2024 13:18:50 GMT-0600 (Central Standard Time),551993.1000000015,1700,I,z,1235,6,2,2962.0,549031.1000000015,8000,NTS,A,3
8,2,test,2,C,circle.png,1,m,Wed Nov 20 2024 13:18:50 GMT-0600 (Central Standard Time),554491.8999999985,1200,I,m,1282,23,2,2495.0,551996.8999999985,8000,NTS,A,4
1,3,test,2,C,triangle.png,1,z,Wed Nov 20 2024 13:18:50 GMT-0600 (Central Standard Time),557607.8999999985,1900,I,z,1187,17,2,3112.39999999851,554495.5,8000,NTS,A,5
9,3,test,2,C,triangle.png,0,z,Wed Nov 20 2024 13:18:50 GMT-0600 (Central Standard Time),560540.5,1400,I,None,1517,16,2,2928.39999999851,557612.1000000015,8000,NTS,A,6
9,4,test,2,C,circle.png,1,m,Wed Nov 20 2024 13:18:50 GMT-0600 (Central Standard Time),563155.799999997,1500,I,m,1098,8,2,2611.5999999940395,560544.200000003,8000,NTS,A,7
1,5,test,2,C,circle.png,1,z,Wed Nov 20 2024 13:18:50 GMT-0600 (Central Standard Time),565222.299999997,1000,I,z,1046,1,2,2062.6999999955297,563159.6000000015,8000,NTS,A,8
9,6,test,2,C,triangle.png,1,z,Wed Nov 20 2024 13:18:50 GMT-0600 (Central Standard Time),567954.3999999985,1400,I,z,1308,24,2,2727.2999999970198,565227.1000000015,8000,NTS,A,9
6,7,test,2,C,circle.png,1,m,Wed Nov 20 2024 13:18:50 GMT-0600 (Central Standard Time),571153.6000000015,1900,I,m,1268,5,2,3195.3000000044703,567958.299999997,8000,NTS,A,10
3,8,test,2,C,circle.png,1,z,Wed Nov 20 2024 13:18:50 GMT-0600 (Central Standard Time),574052.799999997,1600,I,z,1281,11,2,2895.1999999955297,571157.6000000015,8000,NTS,A,11
7,9,test,2,C,circle.png,1,m,Wed Nov 20 2024 13:18:50 GMT-0600 (Central Standard Time),577001.8999999985,2000,I,m,926,22,2,2945.5,574056.3999999985,8000,NTS,A,12
8,10,test,2,C,triangle.png,1,m,Wed Nov 20 2024 13:18:50 GMT-0600 (Central Standard Time),580050.8999999985,1600,I,m,1425,7,2,3045.0,577005.8999999985,8000,NTS,A,13
6,11,test,2,C,triangle.png,1,m,Wed Nov 20 2024 13:18:50 GMT-0600 (Central Standard Time),581983.5,1000,I,m,911,13,2,1928.6000000014901,580054.8999999985,8000,NTS,A,14
4,12,test,2,C,triangle.png,1,m,Wed Nov 20 2024 13:18:50 GMT-0600 (Central Standard Time),584946.8999999985,1500,I,m,1447,20,2,2959.6999999955297,581987.200000003,8000,NTS,A,15
4,13,test,2,C,circle.png,1,z,Wed Nov 20 2024 13:18:50 GMT-0600 (Central Standard Time),587648.6000000015,1400,I,z,1277,4,2,2697.7000000029802,584950.8999999985,8000,NTS,A,16
8,13,test,2,C,circle.png,0,m,Wed Nov 20 2024 13:18:50 GMT-0600 (Central Standard Time),590381.1000000015,1200,I,None,1516,15,2,2728.8000000044703,587652.299999997,8000,NTS,A,17
2,14,test,2,C,circle.png,1,z,Wed Nov 20 2024 13:18:50 GMT-0600 (Central Standard Time),593096.799999997,1700,I,z,994,18,2,2711.89999999851,590384.8999999985,8000,NTS,A,18
3,15,test,2,C,circle.png,1,z,Wed Nov 20 2024 13:18:50 GMT-0600 (Central Standard Time),595829.299999997,1600,I,z,1114,19,2,2728.5999999940395,593100.700000003,8000,NTS,A,19
3,16,test,2,C,triangle.png,1,z,Wed Nov 20 2024 13:18:50 GMT-0600 (Central Standard Time),598378.299999997,1200,I,z,1317,3,2,2545.0999999940395,595833.200000003,8000,NTS,A,20
7,16,test,2,C,circle.png,0,m,Wed Nov 20 2024 13:18:50 GMT-0600 (Central Standard Time),601910.200000003,2000,I,None,1515,14,2,3528.2000000029802,598382.0,8000,NTS,A,21
4,16,test,2,C,triangle.png,0,m,Wed Nov 20 2024 13:18:50 GMT-0600 (Central Standard Time),604943.0,1500,I,None,1516,12,2,3029.10000000149,601913.8999999985,8000,NTS,A,22
1,16,test,2,C,triangle.png,0,z,Wed Nov 20 2024 13:18:50 GMT-0600 (Central Standard Time),608472.200000003,1900,I,None,1613,9,2,3525.2000000029802,604947.0,8000,NTS,A,23
2,17,test,2,C,circle.png,1,z,Wed Nov 20 2024 13:18:50 GMT-0600 (Central Standard Time),611307.5,1700,I,z,1115,10,2,2831.5,608476.0,8000,NTS,A,24
7,0,test,3,C,circle.png,0,m,Wed Nov 20 2024 13:18:50 GMT-0600 (Central Standard Time),620338.299999997,2000,I,None,1516,14,2,3528.89999999851,616809.3999999985,8000,NTS,A,1
6,1,test,3,C,circle.png,1,m,Wed Nov 20 2024 13:18:50 GMT-0600 (Central Standard Time),623070.5,1900,I,m,804,5,2,2728.2000000029802,620342.299999997,8000,NTS,A,2
1,2,test,3,C,circle.png,1,z,Wed Nov 20 2024 13:18:50 GMT-0600 (Central Standard Time),624953.5,1000,I,z,852,17,2,1879.3999999985099,623074.1000000015,8000,NTS,A,3
6,3,test,3,C,triangle.png,1,m,Wed Nov 20 2024 13:18:50 GMT-0600 (Central Standard Time),627120.5,1000,I,m,1145,13,2,2163.10000000149,624957.3999999985,8000,NTS,A,4
2,4,test,3,C,triangle.png,1,m,Wed Nov 20 2024 13:18:50 GMT-0600 (Central Standard Time),630118.6000000015,2000,I,m,971,18,2,2994.10000000149,627124.5,8000,NTS,A,5
9,5,test,3,C,circle.png,1,m,Wed Nov 20 2024 13:18:50 GMT-0600 (Central Standard Time),632800.799999997,1500,I,m,1152,24,2,2677.1999999955297,630123.6000000015,8000,NTS,A,6
3,6,test,3,C,triangle.png,1,z,Wed Nov 20 2024 13:18:50 GMT-0600 (Central Standard Time),635283.5,1200,I,z,1249,19,2,2478.89999999851,632804.6000000015,8000,NTS,A,7
9,6,test,3,C,circle.png,0,m,Wed Nov 20 2024 13:18:50 GMT-0600 (Central Standard Time),638315.8999999985,1500,I,None,1516,8,2,3028.7999999970198,635287.1000000015,8000,NTS,A,8
8,7,test,3,C,triangle.png,1,m,Wed Nov 20 2024 13:18:50 GMT-0600 (Central Standard Time),641099.200000003,1600,I,m,1159,7,2,2779.4000000059605,638319.799999997,8000,NTS,A,9
3,8,test,3,C,circle.png,1,z,Wed Nov 20 2024 13:18:50 GMT-0600 (Central Standard Time),644080.8999999985,1600,I,z,1352,11,2,2977.6999999955297,641103.200000003,8000,NTS,A,10
7,8,test,3,C,triangle.png,0,z,Wed Nov 20 2024 13:18:50 GMT-0600 (Central Standard Time),646879.700000003,1700,I,m,1078,6,2,2795.10000000149,644084.6000000015,8000,NTS,A,11
2,9,test,3,C,circle.png,1,z,Wed Nov 20 2024 13:18:50 GMT-0600 (Central Standard Time),649762.299999997,1700,I,z,1150,10,2,2878.7999999970198,646883.5,8000,NTS,A,12
3,10,test,3,C,triangle.png,1,z,Wed Nov 20 2024 13:18:50 GMT-0600 (Central Standard Time),652328.200000003,1200,I,z,1344,3,2,2562.10000000149,649766.1000000015,8000,NTS,A,13
6,11,test,3,C,circle.png,1,m,Wed Nov 20 2024 13:18:50 GMT-0600 (Central Standard Time),655538.700000003,1900,I,m,1293,21,2,3206.2000000029802,652332.5,8000,NTS,A,14
4,12,test,3,C,circle.png,1,z,Wed Nov 20 2024 13:18:50 GMT-0600 (Central Standard Time),658076.3999999985,1400,I,z,1107,4,2,2534.0,655542.3999999985,8000,NTS,A,15
4,13,test,3,C,circle.png,1,z,Wed Nov 20 2024 13:18:50 GMT-0600 (Central Standard Time),660275.6000000015,1400,I,z,774,20,2,2194.89999999851,658080.700000003,8000,NTS,A,16
1,14,test,3,C,triangle.png,1,z,Wed Nov 20 2024 13:18:50 GMT-0600 (Central Standard Time),663142.200000003,1900,I,z,947,9,2,2862.8000000044703,660279.3999999985,8000,NTS,A,17
2,15,test,3,C,triangle.png,1,m,Wed Nov 20 2024 13:18:50 GMT-0600 (Central Standard Time),666390.299999997,2000,I,m,1229,2,2,3244.1999999955297,663146.1000000015,8000,NTS,A,18
8,16,test,3,C,triangle.png,1,m,Wed Nov 20 2024 13:18:50 GMT-0600 (Central Standard Time),668773.1000000015,1600,I,m,764,23,2,2378.8000000044703,666394.299999997,8000,NTS,A,19
8,16,test,3,C,circle.png,0,m,Wed Nov 20 2024 13:18:50 GMT-0600 (Central Standard Time),670938.8999999985,1200,I,z,942,15,2,2161.89999999851,668777.0,8000,NTS,A,20
4,16,test,3,C,triangle.png,0,m,Wed Nov 20 2024 13:18:50 GMT-0600 (Central Standard Time),673971.299999997,1500,I,None,1515,12,2,3028.7999999970198,670942.5,8000,NTS,A,21
1,16,test,3,C,circle.png,0,z,Wed Nov 20 2024 13:18:50 GMT-0600 (Central Standard Time),676504.1000000015,1000,I,None,1516,1,2,2529.0,673975.1000000015,8000,NTS,A,22
9,16,test,3,C,triangle.png,0,z,Wed Nov 20 2024 13:18:50 GMT-0600 (Central Standard Time),679436.200000003,1400,I,None,1516,16,2,2928.3000000044703,676507.8999999985,8000,NTS,A,23
7,17,test,3,C,triangle.png,1,z,Wed Nov 20 2024 13:18:50 GMT-0600 (Central Standard Time),681968.799999997,1700,I,z,810,22,2,2527.1999999955297,679441.6000000015,8000,NTS,A,24
3,0,test,4,C,circle.png,0,z,Wed Nov 20 2024 13:18:50 GMT-0600 (Central Standard Time),692232.3999999985,1600,I,None,1516,11,2,3127.89999999851,689104.5,8000,NTS,A,1
4,1,test,4,C,circle.png,1,z,Wed Nov 20 2024 13:18:50 GMT-0600 (Central Standard Time),694765.0,1400,I,z,1106,20,2,2528.7999999970198,692236.200000003,8000,NTS,A,2
7,1,test,4,C,triangle.png,0,z,Wed Nov 20 2024 13:18:50 GMT-0600 (Central Standard Time),697997.200000003,1700,I,None,1516,22,2,3228.10000000149,694769.1000000015,8000,NTS,A,3
8,2,test,4,C,circle.png,1,m,Wed Nov 20 2024 13:18:50 GMT-0600 (Central Standard Time),700146.3999999985,1200,I,m,925,15,2,2145.60000000149,698000.799999997,8000,NTS,A,4
6,3,test,4,C,circle.png,1,m,Wed Nov 20 2024 13:18:50 GMT-0600 (Central Standard Time),703162.1000000015,1900,I,m,1092,5,2,3012.0,700150.1000000015,8000,NTS,A,5
1,4,test,4,C,circle.png,1,z,Wed Nov 20 2024 13:18:50 GMT-0600 (Central Standard Time),705161.3999999985,1000,I,z,976,1,2,1995.5,703165.8999999985,8000,NTS,A,6
1,5,test,4,C,triangle.png,1,z,Wed Nov 20 2024 13:18:50 GMT-0600 (Central Standard Time),708510.5,1900,I,z,1429,9,2,3343.60000000149,705166.8999999985,8000,NTS,A,7
6,6,test,4,C,triangle.png,1,m,Wed Nov 20 2024 13:18:50 GMT-0600 (Central Standard Time),710693.200000003,1000,I,m,1156,13,2,2178.7000000029802,708514.5,8000,NTS,A,8
4,7,test,4,C,triangle.png,1,m,Wed Nov 20 2024 13:18:50 GMT-0600 (Central Standard Time),713042.3999999985,1500,I,m,817,12,2,2345.10000000149,710697.299999997,8000,NTS,A,9
2,8,test,4,C,circle.png,1,z,Wed Nov 20 2024 13:18:50 GMT-0600 (Central Standard Time),716174.700000003,1700,I,z,1412,10,2,3128.60000000149,713046.1000000015,8000,NTS,A,10
3,9,test,4,C,triangle.png,1,z,Wed Nov 20 2024 13:18:50 GMT-0600 (Central Standard Time),718774.0,1200,I,z,1372,3,2,2595.10000000149,716178.8999999985,8000,NTS,A,11
8,10,test,4,C,triangle.png,1,m,Wed Nov 20 2024 13:18:50 GMT-0600 (Central Standard Time),721289.799999997,1600,I,m,893,23,2,2511.7999999970198,718778.0,8000,NTS,A,12
8,11,test,4,C,triangle.png,1,m,Wed Nov 20 2024 13:18:50 GMT-0600 (Central Standard Time),723689.1000000015,1600,I,m,769,7,2,2394.0,721295.1000000015,8000,NTS,A,13
2,12,test,4,C,triangle.png,1,m,Wed Nov 20 2024 13:18:50 GMT-0600 (Central Standard Time),726604.799999997,2000,I,m,890,2,2,2911.39999999851,723693.3999999985,8000,NTS,A,14
7,12,test,4,C,circle.png,0,m,Wed Nov 20 2024 13:18:50 GMT-0600 (Central Standard Time),730137.200000003,2000,I,None,1516,14,2,3528.5,726608.700000003,8000,NTS,A,15
7,12,test,4,C,triangle.png,0,z,Wed Nov 20 2024 13:18:50 GMT-0600 (Central Standard Time),733369.700000003,1700,I,None,1516,6,2,3228.4000000059605,730141.299999997,8000,NTS,A,16
4,13,test,4,C,circle.png,1,z,Wed Nov 20 2024 13:18:50 GMT-0600 (Central Standard Time),736068.3999999985,1400,I,z,1273,4,2,2695.0,733373.3999999985,8000,NTS,A,17
3,13,test,4,C,triangle.png,0,z,Wed Nov 20 2024 13:18:50 GMT-0600 (Central Standard Time),738801.200000003,1200,I,None,1516,19,2,2729.10000000149,736072.1000000015,8000,NTS,A,18
9,14,test,4,C,circle.png,1,m,Wed Nov 20 2024 13:18:50 GMT-0600 (Central Standard Time),741733.5,1500,I,m,1406,24,2,2928.60000000149,738804.8999999985,8000,NTS,A,19
2,14,test,4,C,triangle.png,0,m,Wed Nov 20 2024 13:18:50 GMT-0600 (Central Standard Time),745149.0,2000,I,z,1397,18,2,3411.89999999851,741737.1000000015,8000,NTS,A,20
9,15,test,4,C,triangle.png,1,z,Wed Nov 20 2024 13:18:50 GMT-0600 (Central Standard Time),747898.1000000015,1400,I,z,1317,16,2,2744.39999999851,745153.700000003,8000,NTS,A,21
6,15,test,4,C,circle.png,0,m,Wed Nov 20 2024 13:18:50 GMT-0600 (Central Standard Time),751330.3999999985,1900,I,None,1516,21,2,3428.2999999970198,747902.1000000015,8000,NTS,A,22
1,16,test,4,C,circle.png,1,z,Wed Nov 20 2024 13:18:50 GMT-0600 (Central Standard Time),753462.700000003,1000,I,z,1112,17,2,2128.4000000059605,751334.299999997,8000,NTS,A,23
9,17,test,4,C,circle.png,1,m,Wed Nov 20 2024 13:18:50 GMT-0600 (Central Standard Time),756029.0,1500,I,m,1047,8,2,2562.5,753466.5,8000,NTS,A,24
