acc_sum,block,block_c,block_cond,con_img,correct,correct_response,datetime,endtime,face,jitter,line,project,response,response_time,row_sel,session_number,start_end,starttime,subject_id,task,task_vers,trial
1,prac,1,A,haborder.png,1,z,Thu Apr 10 2025 10:39:23 GMT-0500 (Central Daylight Time),53387.90000009537,CFD-BM-043-014-A.jpg,1600,solid,O,z,1082,2,1,3499.9000000953674,49888.0,7090,ATS,C,1
2,prac,1,A,haborder.png,1,m,Thu Apr 10 2025 10:39:23 GMT-0500 (Central Daylight Time),57153.300000071526,CFD-BF-019-004-HC.jpg,2000,solid,O,m,933,5,1,7265.300000071526,49888.0,7090,ATS,C,2
3,prac,1,A,haborder.png,1,z,Thu Apr 10 2025 10:39:23 GMT-0500 (Central Daylight Time),60202.10000002384,CFD-BF-002-018-A.jpg,1200,solid,O,z,1024,6,1,10314.100000023842,49888.0,7090,ATS,C,3
4,prac,1,A,haborder.png,1,z,Thu Apr 10 2025 10:39:23 GMT-0500 (Central Daylight Time),63584.300000071526,CFD-WF-037-016-A.jpg,1600,solid,O,z,951,10,1,13696.300000071526,49888.0,7090,ATS,C,4
5,prac,1,A,haborder.png,1,m,Thu Apr 10 2025 10:39:23 GMT-0500 (Central Daylight Time),66866.20000004768,CFD-WM-035-036-HC.jpg,1700,solid,O,m,756,9,1,16978.200000047684,49888.0,7090,ATS,C,5
6,prac,1,A,haborder.png,1,m,Thu Apr 10 2025 10:39:23 GMT-0500 (Central Daylight Time),70164.90000009537,CFD-BM-034-035-HC.jpg,1700,solid,O,m,778,1,1,20276.900000095367,49888.0,7090,ATS,C,6
7,prac,1,A,haborder.png,1,m,Thu Apr 10 2025 10:39:23 GMT-0500 (Central Daylight Time),73163.80000007153,CFD-WM-028-005-HC.jpg,1400,solid,O,m,772,7,1,23275.800000071526,49888.0,7090,ATS,C,7
8,prac,1,A,haborder.png,1,z,Thu Apr 10 2025 10:39:23 GMT-0500 (Central Daylight Time),75714.0,CFD-WF-023-013-A.jpg,1000,solid,O,z,742,12,1,25826.0,49888.0,7090,ATS,C,8
9,prac,1,A,haborder.png,1,m,Thu Apr 10 2025 10:39:23 GMT-0500 (Central Daylight Time),78762.60000002384,CFD-BM-022-004-HC.jpg,1500,solid,O,m,748,3,1,28874.600000023842,49888.0,7090,ATS,C,9
10,prac,1,A,haborder.png,1,z,Thu Apr 10 2025 10:39:23 GMT-0500 (Central Daylight Time),81294.90000009537,CFD-BF-031-020-A.jpg,1000,solid,O,z,710,4,1,31406.900000095367,49888.0,7090,ATS,C,10
11,prac,1,A,haborder.png,1,m,Thu Apr 10 2025 10:39:23 GMT-0500 (Central Daylight Time),84344.20000004768,CFD-WF-013-009-HC.jpg,1500,solid,O,m,701,11,1,34456.200000047684,49888.0,7090,ATS,C,11
12,prac,1,A,haborder.png,1,z,Thu Apr 10 2025 10:39:23 GMT-0500 (Central Daylight Time),88042.70000004768,CFD-WM-036-018-A.jpg,1900,solid,O,z,965,8,1,38154.700000047684,49888.0,7090,ATS,C,12
1,prac,1,B,mfborder.png,1,m,Thu Apr 10 2025 10:39:23 GMT-0500 (Central Daylight Time),113134.5,CFD-BM-021-026-A.jpg,1600,2,O,m,819,dash,1,3249.0,109885.5,7090,ATS,C,1
2,prac,1,B,mfborder.png,1,m,Thu Apr 10 2025 10:39:23 GMT-0500 (Central Daylight Time),115917.0,CFD-WM-034-040-A.jpg,1200,6,O,m,754,dash,1,6031.5,109885.5,7090,ATS,C,2
3,prac,1,B,mfborder.png,1,m,Thu Apr 10 2025 10:39:23 GMT-0500 (Central Daylight Time),119599.10000002384,CFD-BM-043-014-A.jpg,2000,5,O,m,843,dash,1,9713.600000023842,109885.5,7090,ATS,C,3
3,prac,1,B,mfborder.png,0,z,Thu Apr 10 2025 10:39:23 GMT-0500 (Central Daylight Time),123431.20000004768,CFD-BF-042-031-HC.jpg,1500,3,O,None,1513,dash,1,13545.700000047684,109885.5,7090,ATS,C,4
4,prac,1,B,mfborder.png,1,z,Thu Apr 10 2025 10:39:23 GMT-0500 (Central Daylight Time),125880.40000009537,CFD-BF-031-020-A.jpg,1000,4,O,z,617,dash,1,15994.900000095367,109885.5,7090,ATS,C,5
5,prac,1,B,mfborder.png,1,z,Thu Apr 10 2025 10:39:23 GMT-0500 (Central Daylight Time),128645.70000004768,CFD-BF-019-004-HC.jpg,1400,7,O,z,545,dash,1,18760.200000047684,109885.5,7090,ATS,C,6
6,prac,1,B,mfborder.png,1,z,Thu Apr 10 2025 10:39:23 GMT-0500 (Central Daylight Time),131128.70000004768,CFD-WF-013-009-HC.jpg,1000,12,O,z,659,dash,1,21243.200000047684,109885.5,7090,ATS,C,7
7,prac,1,B,mfborder.png,1,z,Thu Apr 10 2025 10:39:23 GMT-0500 (Central Daylight Time),134577.30000007153,CFD-WF-001-010-HC.jpg,1900,8,O,z,724,dash,1,24691.800000071526,109885.5,7090,ATS,C,8
8,prac,1,B,mfborder.png,1,z,Thu Apr 10 2025 10:39:23 GMT-0500 (Central Daylight Time),137559.90000009537,CFD-WF-037-016-A.jpg,1500,11,O,z,658,dash,1,27674.400000095367,109885.5,7090,ATS,C,9
9,prac,1,B,mfborder.png,1,m,Thu Apr 10 2025 10:39:23 GMT-0500 (Central Daylight Time),140725.40000009537,CFD-WM-035-036-HC.jpg,1600,10,O,m,761,dash,1,30839.900000095367,109885.5,7090,ATS,C,10
10,prac,1,B,mfborder.png,1,m,Thu Apr 10 2025 10:39:23 GMT-0500 (Central Daylight Time),144157.80000007153,CFD-BM-022-004-HC.jpg,1700,1,O,m,903,dash,1,34272.300000071526,109885.5,7090,ATS,C,11
11,prac,1,B,mfborder.png,1,m,Thu Apr 10 2025 10:39:23 GMT-0500 (Central Daylight Time),148056.40000009537,CFD-WM-036-018-A.jpg,1700,9,O,m,1367,dash,1,38170.90000009537,109885.5,7090,ATS,C,12
1,test,1,A,haborder.png,1,m,Thu Apr 10 2025 10:39:23 GMT-0500 (Central Daylight Time),168033.20000004768,CFD-WM-035-036-HC.jpg,1700,solid,O,m,709,9,1,2449.2999999523163,165583.90000009537,7090,ATS,C,1
2,test,1,A,haborder.png,1,m,Thu Apr 10 2025 10:39:23 GMT-0500 (Central Daylight Time),170532.40000009537,CFD-BM-034-035-HC.jpg,1700,solid,O,m,748,1,1,4948.5,165583.90000009537,7090,ATS,C,2
3,test,1,A,haborder.png,1,m,Thu Apr 10 2025 10:39:23 GMT-0500 (Central Daylight Time),173581.40000009537,CFD-BF-019-004-HC.jpg,2000,solid,O,m,1015,5,1,7997.5,165583.90000009537,7090,ATS,C,3
4,test,1,A,haborder.png,1,z,Thu Apr 10 2025 10:39:23 GMT-0500 (Central Daylight Time),176030.40000009537,CFD-BM-043-014-A.jpg,1600,solid,O,z,804,2,1,10446.5,165583.90000009537,7090,ATS,C,4
5,test,1,A,haborder.png,1,z,Thu Apr 10 2025 10:39:23 GMT-0500 (Central Daylight Time),178113.20000004768,CFD-BF-002-018-A.jpg,1200,solid,O,z,822,6,1,12529.299999952316,165583.90000009537,7090,ATS,C,5
6,test,1,A,haborder.png,1,z,Thu Apr 10 2025 10:39:23 GMT-0500 (Central Daylight Time),180613.10000002384,CFD-WF-037-016-A.jpg,1600,solid,O,z,866,10,1,15029.199999928474,165583.90000009537,7090,ATS,C,6
7,test,1,A,haborder.png,1,m,Thu Apr 10 2025 10:39:23 GMT-0500 (Central Daylight Time),182961.5,CFD-BM-022-004-HC.jpg,1500,solid,O,m,801,3,1,17377.599999904633,165583.90000009537,7090,ATS,C,7
8,test,1,A,haborder.png,1,m,Thu Apr 10 2025 10:39:23 GMT-0500 (Central Daylight Time),185393.90000009537,CFD-BM-022-004-HC.jpg,1500,solid,O,m,893,3,1,19810.0,165583.90000009537,7090,ATS,C,8
8,test,1,A,haborder.png,0,m,Thu Apr 10 2025 10:39:23 GMT-0500 (Central Daylight Time),188943.30000007153,CFD-BF-019-004-HC.jpg,2000,solid,O,None,1514,5,1,23359.399999976158,165583.90000009537,7090,ATS,C,9
9,test,1,A,haborder.png,1,z,Thu Apr 10 2025 10:39:23 GMT-0500 (Central Daylight Time),190908.90000009537,CFD-BF-002-018-A.jpg,1200,solid,O,z,715,6,1,25325.0,165583.90000009537,7090,ATS,C,10
10,test,1,A,haborder.png,1,z,Thu Apr 10 2025 10:39:23 GMT-0500 (Central Daylight Time),193424.70000004768,CFD-BM-043-014-A.jpg,1600,solid,O,z,868,2,1,27840.799999952316,165583.90000009537,7090,ATS,C,11
11,test,1,A,haborder.png,1,z,Thu Apr 10 2025 10:39:23 GMT-0500 (Central Daylight Time),195190.70000004768,CFD-BF-031-020-A.jpg,1000,solid,O,z,729,4,1,29606.799999952316,165583.90000009537,7090,ATS,C,12
12,test,1,A,haborder.png,1,z,Thu Apr 10 2025 10:39:23 GMT-0500 (Central Daylight Time),197756.60000002384,CFD-WF-037-016-A.jpg,1600,solid,O,z,898,10,1,32172.699999928474,165583.90000009537,7090,ATS,C,13
13,test,1,A,haborder.png,1,m,Thu Apr 10 2025 10:39:23 GMT-0500 (Central Daylight Time),200222.5,CFD-WM-028-005-HC.jpg,1400,solid,O,m,1021,7,1,34638.59999990463,165583.90000009537,7090,ATS,C,14
14,test,1,A,haborder.png,1,m,Thu Apr 10 2025 10:39:23 GMT-0500 (Central Daylight Time),202438.40000009537,CFD-WM-028-005-HC.jpg,1400,solid,O,m,779,7,1,36854.5,165583.90000009537,7090,ATS,C,15
14,test,1,A,haborder.png,0,m,Thu Apr 10 2025 10:39:23 GMT-0500 (Central Daylight Time),204854.20000004768,CFD-WF-013-009-HC.jpg,1500,solid,O,z,849,11,1,39270.299999952316,165583.90000009537,7090,ATS,C,16
15,test,1,A,haborder.png,1,m,Thu Apr 10 2025 10:39:23 GMT-0500 (Central Daylight Time),207403.30000007153,CFD-WM-035-036-HC.jpg,1700,solid,O,m,799,9,1,41819.39999997616,165583.90000009537,7090,ATS,C,17
16,test,1,A,haborder.png,1,m,Thu Apr 10 2025 10:39:23 GMT-0500 (Central Daylight Time),210119.20000004768,CFD-WF-013-009-HC.jpg,1500,solid,O,m,1178,11,1,44535.299999952316,165583.90000009537,7090,ATS,C,18
17,test,1,A,haborder.png,1,m,Thu Apr 10 2025 10:39:23 GMT-0500 (Central Daylight Time),212651.70000004768,CFD-BM-034-035-HC.jpg,1700,solid,O,m,766,1,1,47067.799999952316,165583.90000009537,7090,ATS,C,19
18,test,1,A,haborder.png,1,z,Thu Apr 10 2025 10:39:23 GMT-0500 (Central Daylight Time),215750.10000002384,CFD-WM-036-018-A.jpg,1900,solid,O,z,1153,8,1,50166.199999928474,165583.90000009537,7090,ATS,C,20
19,test,1,A,haborder.png,1,z,Thu Apr 10 2025 10:39:23 GMT-0500 (Central Daylight Time),217983.30000007153,CFD-WF-023-013-A.jpg,1000,solid,O,z,1211,12,1,52399.39999997616,165583.90000009537,7090,ATS,C,21
20,test,1,A,haborder.png,1,z,Thu Apr 10 2025 10:39:23 GMT-0500 (Central Daylight Time),219865.90000009537,CFD-BF-031-020-A.jpg,1000,solid,O,z,834,4,1,54282.0,165583.90000009537,7090,ATS,C,22
21,test,1,A,haborder.png,1,z,Thu Apr 10 2025 10:39:23 GMT-0500 (Central Daylight Time),221815.30000007153,CFD-WF-023-013-A.jpg,1000,solid,O,z,911,12,1,56231.39999997616,165583.90000009537,7090,ATS,C,23
22,test,1,A,haborder.png,1,z,Thu Apr 10 2025 10:39:23 GMT-0500 (Central Daylight Time),224714.40000009537,CFD-WM-036-018-A.jpg,1900,solid,O,z,952,8,1,59130.5,165583.90000009537,7090,ATS,C,24
1,test,1,B,mfborder.png,1,z,Thu Apr 10 2025 10:39:23 GMT-0500 (Central Daylight Time),241842.30000007153,CFD-WF-037-016-A.jpg,1500,dash,O,z,525,11,1,2083.100000023842,239759.20000004768,7090,ATS,C,1
2,test,1,B,mfborder.png,1,m,Thu Apr 10 2025 10:39:23 GMT-0500 (Central Daylight Time),244741.0,CFD-WM-036-018-A.jpg,1700,dash,O,m,1155,9,1,4981.799999952316,239759.20000004768,7090,ATS,C,2
3,test,1,B,mfborder.png,1,m,Thu Apr 10 2025 10:39:23 GMT-0500 (Central Daylight Time),247123.70000004768,CFD-BM-021-026-A.jpg,1600,dash,O,m,741,2,1,7364.5,239759.20000004768,7090,ATS,C,3
4,test,1,B,mfborder.png,1,z,Thu Apr 10 2025 10:39:23 GMT-0500 (Central Daylight Time),249823.10000002384,CFD-WF-001-010-HC.jpg,1900,dash,O,z,755,8,1,10063.899999976158,239759.20000004768,7090,ATS,C,4
5,test,1,B,mfborder.png,1,m,Thu Apr 10 2025 10:39:23 GMT-0500 (Central Daylight Time),252387.80000007153,CFD-WM-036-018-A.jpg,1700,dash,O,m,829,9,1,12628.600000023842,239759.20000004768,7090,ATS,C,5
6,test,1,B,mfborder.png,1,z,Thu Apr 10 2025 10:39:23 GMT-0500 (Central Daylight Time),254687.90000009537,CFD-BF-019-004-HC.jpg,1400,dash,O,z,877,7,1,14928.700000047684,239759.20000004768,7090,ATS,C,6
7,test,1,B,mfborder.png,1,z,Thu Apr 10 2025 10:39:23 GMT-0500 (Central Daylight Time),257487.0,CFD-BF-042-031-HC.jpg,1500,dash,O,z,1261,3,1,17727.799999952316,239759.20000004768,7090,ATS,C,7
8,test,1,B,mfborder.png,1,m,Thu Apr 10 2025 10:39:23 GMT-0500 (Central Daylight Time),259853.5,CFD-WM-035-036-HC.jpg,1600,dash,O,m,715,10,1,20094.299999952316,239759.20000004768,7090,ATS,C,8
9,test,1,B,mfborder.png,1,z,Thu Apr 10 2025 10:39:23 GMT-0500 (Central Daylight Time),262052.0,CFD-BF-019-004-HC.jpg,1400,dash,O,z,757,7,1,22292.799999952316,239759.20000004768,7090,ATS,C,9
10,test,1,B,mfborder.png,1,m,Thu Apr 10 2025 10:39:23 GMT-0500 (Central Daylight Time),264467.60000002384,CFD-BM-021-026-A.jpg,1600,dash,O,m,755,2,1,24708.399999976158,239759.20000004768,7090,ATS,C,10
11,test,1,B,mfborder.png,1,m,Thu Apr 10 2025 10:39:23 GMT-0500 (Central Daylight Time),266950.60000002384,CFD-BM-022-004-HC.jpg,1700,dash,O,m,762,1,1,27191.399999976158,239759.20000004768,7090,ATS,C,11
12,test,1,B,mfborder.png,1,z,Thu Apr 10 2025 10:39:23 GMT-0500 (Central Daylight Time),269366.5,CFD-WF-037-016-A.jpg,1500,dash,O,z,871,11,1,29607.299999952316,239759.20000004768,7090,ATS,C,12
13,test,1,B,mfborder.png,1,m,Thu Apr 10 2025 10:39:23 GMT-0500 (Central Daylight Time),271782.10000002384,CFD-BM-022-004-HC.jpg,1700,dash,O,m,680,1,1,32022.899999976158,239759.20000004768,7090,ATS,C,13
14,test,1,B,mfborder.png,1,z,Thu Apr 10 2025 10:39:23 GMT-0500 (Central Daylight Time),273598.3000000715,CFD-WF-013-009-HC.jpg,1000,dash,O,z,771,12,1,33839.10000002384,239759.20000004768,7090,ATS,C,14
15,test,1,B,mfborder.png,1,m,Thu Apr 10 2025 10:39:23 GMT-0500 (Central Daylight Time),275897.5,CFD-WM-034-040-A.jpg,1200,dash,O,m,1017,6,1,36138.299999952316,239759.20000004768,7090,ATS,C,15
16,test,1,B,mfborder.png,1,z,Thu Apr 10 2025 10:39:23 GMT-0500 (Central Daylight Time),277581.0,CFD-BF-031-020-A.jpg,1000,dash,O,z,648,4,1,37821.799999952316,239759.20000004768,7090,ATS,C,16
17,test,1,B,mfborder.png,1,z,Thu Apr 10 2025 10:39:23 GMT-0500 (Central Daylight Time),280312.8000000715,CFD-WF-001-010-HC.jpg,1900,dash,O,z,787,8,1,40553.60000002384,239759.20000004768,7090,ATS,C,17
18,test,1,B,mfborder.png,1,m,Thu Apr 10 2025 10:39:23 GMT-0500 (Central Daylight Time),283112.0,CFD-BM-043-014-A.jpg,2000,dash,O,m,737,5,1,43352.799999952316,239759.20000004768,7090,ATS,C,18
19,test,1,B,mfborder.png,1,m,Thu Apr 10 2025 10:39:23 GMT-0500 (Central Daylight Time),285061.10000002384,CFD-WM-034-040-A.jpg,1200,dash,O,m,705,6,1,45301.89999997616,239759.20000004768,7090,ATS,C,19
20,test,1,B,mfborder.png,1,z,Thu Apr 10 2025 10:39:23 GMT-0500 (Central Daylight Time),286827.40000009537,CFD-BF-031-020-A.jpg,1000,dash,O,z,716,4,1,47068.200000047684,239759.20000004768,7090,ATS,C,20
21,test,1,B,mfborder.png,1,z,Thu Apr 10 2025 10:39:23 GMT-0500 (Central Daylight Time),289010.10000002384,CFD-WF-013-009-HC.jpg,1000,dash,O,z,1117,12,1,49250.89999997616,239759.20000004768,7090,ATS,C,21
22,test,1,B,mfborder.png,1,m,Thu Apr 10 2025 10:39:23 GMT-0500 (Central Daylight Time),291308.8000000715,CFD-WM-035-036-HC.jpg,1600,dash,O,m,663,10,1,51549.60000002384,239759.20000004768,7090,ATS,C,22
23,test,1,B,mfborder.png,1,z,Thu Apr 10 2025 10:39:23 GMT-0500 (Central Daylight Time),293641.90000009537,CFD-BF-042-031-HC.jpg,1500,dash,O,z,792,3,1,53882.700000047684,239759.20000004768,7090,ATS,C,23
24,test,1,B,mfborder.png,1,m,Thu Apr 10 2025 10:39:23 GMT-0500 (Central Daylight Time),296325.10000002384,CFD-BM-043-014-A.jpg,2000,dash,O,m,646,5,1,56565.89999997616,239759.20000004768,7090,ATS,C,24
1,prac,1,C,haborder.png,1,m,Thu Apr 10 2025 10:39:23 GMT-0500 (Central Daylight Time),337827.60000002384,CFD-WM-028-005-HC.jpg,1000,dash,O,m,933,5,1,2749.2999999523163,335078.3000000715,7090,ATS,C,1
2,prac,1,C,mfborder.png,1,m,Thu Apr 10 2025 10:39:23 GMT-0500 (Central Daylight Time),340993.3000000715,CFD-BM-043-014-A.jpg,1200,dash,O,m,1117,5,1,5915.0,335078.3000000715,7090,ATS,C,2
2,prac,1,C,mfborder.png,0,m,Thu Apr 10 2025 10:39:23 GMT-0500 (Central Daylight Time),345008.40000009537,CFD-WM-036-018-A.jpg,1700,solid,O,None,1514,5,1,9930.100000023842,335078.3000000715,7090,ATS,C,3
3,prac,1,C,haborder.png,1,m,Thu Apr 10 2025 10:39:23 GMT-0500 (Central Daylight Time),348390.7000000477,CFD-WM-028-005-HC.jpg,1400,solid,O,m,1143,5,1,13312.399999976158,335078.3000000715,7090,ATS,C,4
4,prac,1,C,haborder.png,1,z,Thu Apr 10 2025 10:39:23 GMT-0500 (Central Daylight Time),352039.7000000477,CFD-BF-002-018-A.jpg,1700,solid,O,z,1128,5,1,16961.399999976158,335078.3000000715,7090,ATS,C,5
5,prac,1,C,haborder.png,1,m,Thu Apr 10 2025 10:39:23 GMT-0500 (Central Daylight Time),355421.7000000477,CFD-BM-022-004-HC.jpg,1500,solid,O,m,1054,5,1,20343.399999976158,335078.3000000715,7090,ATS,C,6
6,prac,1,C,mfborder.png,1,z,Thu Apr 10 2025 10:39:23 GMT-0500 (Central Daylight Time),358653.8000000715,CFD-WF-013-009-HC.jpg,1600,dash,O,z,830,5,1,23575.5,335078.3000000715,7090,ATS,C,7
7,prac,1,C,mfborder.png,1,z,Thu Apr 10 2025 10:39:23 GMT-0500 (Central Daylight Time),361369.60000002384,CFD-BF-019-004-HC.jpg,1000,dash,O,z,891,5,1,26291.299999952316,335078.3000000715,7090,ATS,C,8
8,prac,1,C,mfborder.png,1,m,Thu Apr 10 2025 10:39:23 GMT-0500 (Central Daylight Time),365351.60000002384,CFD-BM-034-035-HC.jpg,2000,solid,O,m,1152,5,1,30273.299999952316,335078.3000000715,7090,ATS,C,9
9,prac,1,C,mfborder.png,1,z,Thu Apr 10 2025 10:39:23 GMT-0500 (Central Daylight Time),368467.2000000477,CFD-WF-023-013-A.jpg,1500,solid,O,z,806,5,1,33388.89999997616,335078.3000000715,7090,ATS,C,10
10,prac,1,C,haborder.png,1,z,Thu Apr 10 2025 10:39:23 GMT-0500 (Central Daylight Time),372049.5,CFD-BF-031-020-A.jpg,1900,dash,O,z,859,5,1,36971.199999928474,335078.3000000715,7090,ATS,C,11
11,prac,1,C,haborder.png,1,z,Thu Apr 10 2025 10:39:23 GMT-0500 (Central Daylight Time),375481.7000000477,CFD-WF-037-016-A.jpg,1600,dash,O,z,1016,5,1,40403.39999997616,335078.3000000715,7090,ATS,C,12
1,test,1,C,haborder.png,1,m,Thu Apr 10 2025 10:39:23 GMT-0500 (Central Daylight Time),398041.10000002384,CFD-WF-001-010-HC.jpg,1500,solid,O,m,886,11,1,2432.600000023842,395608.5,7090,ATS,C,1
1,test,1,C,haborder.png,0,z,Thu Apr 10 2025 10:39:23 GMT-0500 (Central Daylight Time),401390.0,CFD-BM-043-014-A.jpg,1900,solid,O,m,1405,8,1,5781.5,395608.5,7090,ATS,C,2
2,test,1,C,mfborder.png,1,z,Thu Apr 10 2025 10:39:23 GMT-0500 (Central Daylight Time),404372.2000000477,CFD-WF-037-016-A.jpg,1500,dash,O,z,1442,3,1,8763.700000047684,395608.5,7090,ATS,C,3
3,test,1,C,mfborder.png,1,z,Thu Apr 10 2025 10:39:23 GMT-0500 (Central Daylight Time),406887.8000000715,CFD-BF-031-020-A.jpg,1600,dash,O,z,861,2,1,11279.300000071526,395608.5,7090,ATS,C,4
4,test,1,C,mfborder.png,1,z,Thu Apr 10 2025 10:39:23 GMT-0500 (Central Daylight Time),409987.0,CFD-BF-042-031-HC.jpg,1700,dash,O,z,1358,1,1,14378.5,395608.5,7090,ATS,C,5
5,test,1,C,mfborder.png,1,z,Thu Apr 10 2025 10:39:23 GMT-0500 (Central Daylight Time),412452.8000000715,CFD-BF-031-020-A.jpg,1600,dash,O,z,823,2,1,16844.300000071526,395608.5,7090,ATS,C,6
6,test,1,C,mfborder.png,1,m,Thu Apr 10 2025 10:39:23 GMT-0500 (Central Daylight Time),414818.7000000477,CFD-BM-022-004-HC.jpg,1200,dash,O,m,1125,6,1,19210.200000047684,395608.5,7090,ATS,C,7
7,test,1,C,haborder.png,1,m,Thu Apr 10 2025 10:39:23 GMT-0500 (Central Daylight Time),417218.10000002384,CFD-WF-013-009-HC.jpg,1000,solid,O,m,1335,12,1,21609.600000023842,395608.5,7090,ATS,C,8
8,test,1,C,haborder.png,1,z,Thu Apr 10 2025 10:39:23 GMT-0500 (Central Daylight Time),420317.40000009537,CFD-BM-021-026-A.jpg,1700,solid,O,z,1364,9,1,24708.900000095367,395608.5,7090,ATS,C,9
9,test,1,C,haborder.png,1,m,Thu Apr 10 2025 10:39:23 GMT-0500 (Central Daylight Time),422599.40000009537,CFD-WF-013-009-HC.jpg,1000,solid,O,m,1237,12,1,26990.900000095367,395608.5,7090,ATS,C,10
10,test,1,C,haborder.png,1,m,Thu Apr 10 2025 10:39:23 GMT-0500 (Central Daylight Time),425448.5,CFD-BF-019-004-HC.jpg,1600,solid,O,m,1186,10,1,29840.0,395608.5,7090,ATS,C,11
11,test,1,C,haborder.png,1,m,Thu Apr 10 2025 10:39:23 GMT-0500 (Central Daylight Time),427947.90000009537,CFD-BF-019-004-HC.jpg,1600,solid,O,m,833,10,1,32339.400000095367,395608.5,7090,ATS,C,12
12,test,1,C,haborder.png,1,m,Thu Apr 10 2025 10:39:23 GMT-0500 (Central Daylight Time),430446.10000002384,CFD-WF-001-010-HC.jpg,1500,solid,O,m,961,11,1,34837.60000002384,395608.5,7090,ATS,C,13
13,test,1,C,mfborder.png,1,m,Thu Apr 10 2025 10:39:23 GMT-0500 (Central Daylight Time),432695.40000009537,CFD-WM-035-036-HC.jpg,1000,dash,O,m,1219,4,1,37086.90000009537,395608.5,7090,ATS,C,14
14,test,1,C,haborder.png,1,z,Thu Apr 10 2025 10:39:23 GMT-0500 (Central Daylight Time),435328.60000002384,CFD-WM-036-018-A.jpg,1400,solid,O,z,1202,7,1,39720.10000002384,395608.5,7090,ATS,C,15
15,test,1,C,haborder.png,1,z,Thu Apr 10 2025 10:39:23 GMT-0500 (Central Daylight Time),438478.0,CFD-BM-043-014-A.jpg,1900,solid,O,z,1214,8,1,42869.5,395608.5,7090,ATS,C,16
16,test,1,C,haborder.png,1,z,Thu Apr 10 2025 10:39:23 GMT-0500 (Central Daylight Time),441226.7000000477,CFD-BM-021-026-A.jpg,1700,solid,O,z,1000,9,1,45618.200000047684,395608.5,7090,ATS,C,17
17,test,1,C,mfborder.png,1,m,Thu Apr 10 2025 10:39:23 GMT-0500 (Central Daylight Time),444092.2000000477,CFD-WM-034-040-A.jpg,2000,dash,O,m,831,5,1,48483.700000047684,395608.5,7090,ATS,C,18
18,test,1,C,mfborder.png,1,z,Thu Apr 10 2025 10:39:23 GMT-0500 (Central Daylight Time),446791.5,CFD-BF-042-031-HC.jpg,1700,dash,O,z,970,1,1,51183.0,395608.5,7090,ATS,C,19
19,test,1,C,mfborder.png,1,m,Thu Apr 10 2025 10:39:23 GMT-0500 (Central Daylight Time),448640.90000009537,CFD-WM-035-036-HC.jpg,1000,dash,O,m,784,4,1,53032.40000009537,395608.5,7090,ATS,C,20
20,test,1,C,mfborder.png,1,m,Thu Apr 10 2025 10:39:23 GMT-0500 (Central Daylight Time),451556.7000000477,CFD-WM-034-040-A.jpg,2000,dash,O,m,873,5,1,55948.200000047684,395608.5,7090,ATS,C,21
21,test,1,C,mfborder.png,1,m,Thu Apr 10 2025 10:39:23 GMT-0500 (Central Daylight Time),453772.8000000715,CFD-BM-022-004-HC.jpg,1200,dash,O,m,974,6,1,58164.300000071526,395608.5,7090,ATS,C,22
22,test,1,C,haborder.png,1,z,Thu Apr 10 2025 10:39:23 GMT-0500 (Central Daylight Time),456654.90000009537,CFD-WM-036-018-A.jpg,1400,solid,O,z,1446,7,1,61046.40000009537,395608.5,7090,ATS,C,23
23,test,1,C,mfborder.png,1,z,Thu Apr 10 2025 10:39:23 GMT-0500 (Central Daylight Time),459354.10000002384,CFD-WF-037-016-A.jpg,1500,dash,O,z,1160,3,1,63745.60000002384,395608.5,7090,ATS,C,24
1,test,2,C,haborder.png,1,m,Thu Apr 10 2025 10:39:23 GMT-0500 (Central Daylight Time),465284.8000000715,CFD-WM-028-005-HC.jpg,1000,solid,O,m,859,12,1,1899.3000000715256,463385.5,7090,ATS,C,1
1,test,2,C,mfborder.png,0,m,Thu Apr 10 2025 10:39:23 GMT-0500 (Central Daylight Time),467468.3000000715,CFD-BM-034-035-HC.jpg,1000,dash,O,z,1129,4,1,4082.8000000715256,463385.5,7090,ATS,C,2
1,test,2,C,haborder.png,0,z,Thu Apr 10 2025 10:39:23 GMT-0500 (Central Daylight Time),470416.5,CFD-BF-031-020-A.jpg,1400,solid,O,None,1515,7,1,7031.0,463385.5,7090,ATS,C,3
2,test,2,C,mfborder.png,1,m,Thu Apr 10 2025 10:39:23 GMT-0500 (Central Daylight Time),472733.5,CFD-BM-034-035-HC.jpg,1000,dash,O,m,1292,4,1,9348.0,463385.5,7090,ATS,C,4
3,test,2,C,haborder.png,1,m,Thu Apr 10 2025 10:39:23 GMT-0500 (Central Daylight Time),474714.90000009537,CFD-WM-028-005-HC.jpg,1000,solid,O,m,941,12,1,11329.400000095367,463385.5,7090,ATS,C,5
4,test,2,C,haborder.png,1,z,Thu Apr 10 2025 10:39:23 GMT-0500 (Central Daylight Time),477847.3000000715,CFD-BF-002-018-A.jpg,1900,solid,O,z,1212,8,1,14461.800000071526,463385.5,7090,ATS,C,6
5,test,2,C,mfborder.png,1,z,Thu Apr 10 2025 10:39:23 GMT-0500 (Central Daylight Time),480646.60000002384,CFD-BF-019-004-HC.jpg,1500,dash,O,z,1270,3,1,17261.100000023842,463385.5,7090,ATS,C,7
6,test,2,C,mfborder.png,1,z,Thu Apr 10 2025 10:39:23 GMT-0500 (Central Daylight Time),483562.2000000477,CFD-WF-023-013-A.jpg,1600,dash,O,z,1275,2,1,20176.700000047684,463385.5,7090,ATS,C,8
7,test,2,C,haborder.png,1,z,Thu Apr 10 2025 10:39:23 GMT-0500 (Central Daylight Time),486511.0,CFD-WF-037-016-A.jpg,1700,solid,O,z,1228,9,1,23125.5,463385.5,7090,ATS,C,9
7,test,2,C,mfborder.png,0,z,Thu Apr 10 2025 10:39:23 GMT-0500 (Central Daylight Time),489543.3000000715,CFD-BF-019-004-HC.jpg,1500,dash,O,None,1515,3,1,26157.800000071526,463385.5,7090,ATS,C,10
8,test,2,C,haborder.png,1,z,Thu Apr 10 2025 10:39:23 GMT-0500 (Central Daylight Time),492326.3000000715,CFD-WF-037-016-A.jpg,1700,solid,O,z,1056,9,1,28940.800000071526,463385.5,7090,ATS,C,11
9,test,2,C,haborder.png,1,m,Thu Apr 10 2025 10:39:23 GMT-0500 (Central Daylight Time),494609.3000000715,CFD-WM-028-005-HC.jpg,1500,solid,O,m,762,11,1,31223.800000071526,463385.5,7090,ATS,C,12
10,test,2,C,haborder.png,1,m,Thu Apr 10 2025 10:39:23 GMT-0500 (Central Daylight Time),497140.8000000715,CFD-BM-022-004-HC.jpg,1600,solid,O,m,896,10,1,33755.300000071526,463385.5,7090,ATS,C,13
10,test,2,C,mfborder.png,0,m,Thu Apr 10 2025 10:39:23 GMT-0500 (Central Daylight Time),500407.2000000477,CFD-BM-043-014-A.jpg,2000,dash,O,z,1246,5,1,37021.700000047684,463385.5,7090,ATS,C,14
11,test,2,C,mfborder.png,1,m,Thu Apr 10 2025 10:39:23 GMT-0500 (Central Daylight Time),502756.60000002384,CFD-WM-036-018-A.jpg,1200,dash,O,m,1108,6,1,39371.10000002384,463385.5,7090,ATS,C,15
12,test,2,C,haborder.png,1,m,Thu Apr 10 2025 10:39:23 GMT-0500 (Central Daylight Time),505288.40000009537,CFD-BM-022-004-HC.jpg,1600,solid,O,m,868,10,1,41902.90000009537,463385.5,7090,ATS,C,16
13,test,2,C,mfborder.png,1,z,Thu Apr 10 2025 10:39:23 GMT-0500 (Central Daylight Time),507920.90000009537,CFD-WF-023-013-A.jpg,1600,dash,O,z,1000,2,1,44535.40000009537,463385.5,7090,ATS,C,17
14,test,2,C,haborder.png,1,z,Thu Apr 10 2025 10:39:23 GMT-0500 (Central Daylight Time),510487.40000009537,CFD-BF-031-020-A.jpg,1400,solid,O,z,1121,7,1,47101.90000009537,463385.5,7090,ATS,C,18
15,test,2,C,mfborder.png,1,m,Thu Apr 10 2025 10:39:23 GMT-0500 (Central Daylight Time),512974.40000009537,CFD-WM-036-018-A.jpg,1200,dash,O,m,1241,6,1,49588.90000009537,463385.5,7090,ATS,C,19
16,test,2,C,haborder.png,1,z,Thu Apr 10 2025 10:39:23 GMT-0500 (Central Daylight Time),515802.3000000715,CFD-BF-002-018-A.jpg,1900,solid,O,z,908,8,1,52416.800000071526,463385.5,7090,ATS,C,20
17,test,2,C,mfborder.png,1,z,Thu Apr 10 2025 10:39:23 GMT-0500 (Central Daylight Time),518533.90000009537,CFD-WF-013-009-HC.jpg,1700,dash,O,z,987,1,1,55148.40000009537,463385.5,7090,ATS,C,21
17,test,2,C,mfborder.png,0,m,Thu Apr 10 2025 10:39:23 GMT-0500 (Central Daylight Time),522066.8000000715,CFD-BM-043-014-A.jpg,2000,dash,O,None,1516,5,1,58681.300000071526,463385.5,7090,ATS,C,22
18,test,2,C,haborder.png,1,m,Thu Apr 10 2025 10:39:23 GMT-0500 (Central Daylight Time),524365.3000000715,CFD-WM-028-005-HC.jpg,1500,solid,O,m,778,11,1,60979.800000071526,463385.5,7090,ATS,C,23
19,test,2,C,mfborder.png,1,z,Thu Apr 10 2025 10:39:23 GMT-0500 (Central Daylight Time),526948.3000000715,CFD-WF-013-009-HC.jpg,1700,dash,O,z,850,1,1,63562.800000071526,463385.5,7090,ATS,C,24
1,test,3,C,mfborder.png,1,z,Thu Apr 10 2025 10:39:23 GMT-0500 (Central Daylight Time),530929.8000000715,CFD-WF-037-016-A.jpg,1500,dash,O,z,766,3,1,2299.3000000715256,528630.5,7090,ATS,C,1
2,test,3,C,mfborder.png,1,m,Thu Apr 10 2025 10:39:23 GMT-0500 (Central Daylight Time),532696.0,CFD-WM-035-036-HC.jpg,1000,dash,O,m,735,4,1,4065.5,528630.5,7090,ATS,C,2
2,test,3,C,haborder.png,0,z,Thu Apr 10 2025 10:39:23 GMT-0500 (Central Daylight Time),535445.8000000715,CFD-BM-043-014-A.jpg,1900,solid,O,m,832,8,1,6815.300000071526,528630.5,7090,ATS,C,3
3,test,3,C,haborder.png,1,z,Thu Apr 10 2025 10:39:23 GMT-0500 (Central Daylight Time),538060.7000000477,CFD-BM-021-026-A.jpg,1700,solid,O,z,871,9,1,9430.200000047684,528630.5,7090,ATS,C,4
4,test,3,C,haborder.png,1,z,Thu Apr 10 2025 10:39:23 GMT-0500 (Central Daylight Time),540430.5,CFD-WM-036-018-A.jpg,1400,solid,O,z,919,7,1,11800.0,528630.5,7090,ATS,C,5
5,test,3,C,mfborder.png,1,m,Thu Apr 10 2025 10:39:23 GMT-0500 (Central Daylight Time),542960.1000000238,CFD-BM-022-004-HC.jpg,1200,dash,O,m,1311,6,1,14329.600000023842,528630.5,7090,ATS,C,6
5,test,3,C,haborder.png,0,m,Thu Apr 10 2025 10:39:23 GMT-0500 (Central Daylight Time),545709.0,CFD-BF-019-004-HC.jpg,1600,solid,O,z,1099,10,1,17078.5,528630.5,7090,ATS,C,7
6,test,3,C,haborder.png,1,z,Thu Apr 10 2025 10:39:23 GMT-0500 (Central Daylight Time),548591.8000000715,CFD-WM-036-018-A.jpg,1400,solid,O,z,1428,7,1,19961.300000071526,528630.5,7090,ATS,C,8
7,test,3,C,haborder.png,1,z,Thu Apr 10 2025 10:39:23 GMT-0500 (Central Daylight Time),551274.0,CFD-BM-021-026-A.jpg,1700,solid,O,z,942,9,1,22643.5,528630.5,7090,ATS,C,9
8,test,3,C,mfborder.png,1,m,Thu Apr 10 2025 10:39:23 GMT-0500 (Central Daylight Time),553739.3000000715,CFD-BM-022-004-HC.jpg,1200,dash,O,m,1224,6,1,25108.800000071526,528630.5,7090,ATS,C,10
9,test,3,C,mfborder.png,1,z,Thu Apr 10 2025 10:39:23 GMT-0500 (Central Daylight Time),556788.7000000477,CFD-BF-042-031-HC.jpg,1700,dash,O,z,1299,1,1,28158.200000047684,528630.5,7090,ATS,C,11
10,test,3,C,haborder.png,1,z,Thu Apr 10 2025 10:39:23 GMT-0500 (Central Daylight Time),559904.4000000954,CFD-BM-043-014-A.jpg,1900,solid,O,z,1178,8,1,31273.900000095367,528630.5,7090,ATS,C,12
11,test,3,C,haborder.png,1,m,Thu Apr 10 2025 10:39:23 GMT-0500 (Central Daylight Time),562170.2000000477,CFD-WF-013-009-HC.jpg,1000,solid,O,m,1225,12,1,33539.700000047684,528630.5,7090,ATS,C,13
12,test,3,C,mfborder.png,1,m,Thu Apr 10 2025 10:39:23 GMT-0500 (Central Daylight Time),565419.0,CFD-WM-034-040-A.jpg,2000,dash,O,m,1201,5,1,36788.5,528630.5,7090,ATS,C,14
13,test,3,C,mfborder.png,1,z,Thu Apr 10 2025 10:39:23 GMT-0500 (Central Daylight Time),568235.3000000715,CFD-BF-042-031-HC.jpg,1700,dash,O,z,1067,1,1,39604.800000071526,528630.5,7090,ATS,C,15
14,test,3,C,haborder.png,1,m,Thu Apr 10 2025 10:39:23 GMT-0500 (Central Daylight Time),571017.3000000715,CFD-BF-019-004-HC.jpg,1600,solid,O,m,1110,10,1,42386.800000071526,528630.5,7090,ATS,C,16
15,test,3,C,mfborder.png,1,z,Thu Apr 10 2025 10:39:23 GMT-0500 (Central Daylight Time),573400.1000000238,CFD-WF-037-016-A.jpg,1500,dash,O,z,838,3,1,44769.60000002384,528630.5,7090,ATS,C,17
16,test,3,C,mfborder.png,1,m,Thu Apr 10 2025 10:39:23 GMT-0500 (Central Daylight Time),576349.8000000715,CFD-WM-034-040-A.jpg,2000,dash,O,m,915,5,1,47719.300000071526,528630.5,7090,ATS,C,18
16,test,3,C,haborder.png,0,m,Thu Apr 10 2025 10:39:23 GMT-0500 (Central Daylight Time),578915.0,CFD-WF-001-010-HC.jpg,1500,solid,O,z,1026,11,1,50284.5,528630.5,7090,ATS,C,19
17,test,3,C,mfborder.png,1,z,Thu Apr 10 2025 10:39:23 GMT-0500 (Central Daylight Time),581680.1000000238,CFD-BF-031-020-A.jpg,1600,dash,O,z,1126,2,1,53049.60000002384,528630.5,7090,ATS,C,20
18,test,3,C,mfborder.png,1,m,Thu Apr 10 2025 10:39:23 GMT-0500 (Central Daylight Time),584045.8000000715,CFD-WM-035-036-HC.jpg,1000,dash,O,m,1337,4,1,55415.300000071526,528630.5,7090,ATS,C,21
19,test,3,C,mfborder.png,1,z,Thu Apr 10 2025 10:39:23 GMT-0500 (Central Daylight Time),586678.9000000954,CFD-BF-031-020-A.jpg,1600,dash,O,z,1014,2,1,58048.40000009537,528630.5,7090,ATS,C,22
20,test,3,C,haborder.png,1,m,Thu Apr 10 2025 10:39:23 GMT-0500 (Central Daylight Time),589244.7000000477,CFD-WF-001-010-HC.jpg,1500,solid,O,m,1023,11,1,60614.200000047684,528630.5,7090,ATS,C,23
21,test,3,C,haborder.png,1,m,Thu Apr 10 2025 10:39:23 GMT-0500 (Central Daylight Time),591210.1000000238,CFD-WF-013-009-HC.jpg,1000,solid,O,m,917,12,1,62579.60000002384,528630.5,7090,ATS,C,24
1,test,4,C,mfborder.png,1,m,Thu Apr 10 2025 10:39:23 GMT-0500 (Central Daylight Time),595043.1000000238,CFD-WM-036-018-A.jpg,1200,dash,O,m,1091,6,1,2349.399999976158,592693.7000000477,7090,ATS,C,1
2,test,4,C,haborder.png,1,m,Thu Apr 10 2025 10:39:23 GMT-0500 (Central Daylight Time),597359.0,CFD-WM-028-005-HC.jpg,1500,solid,O,m,750,11,1,4665.299999952316,592693.7000000477,7090,ATS,C,2
3,test,4,C,mfborder.png,1,m,Thu Apr 10 2025 10:39:23 GMT-0500 (Central Daylight Time),599557.9000000954,CFD-BM-034-035-HC.jpg,1000,dash,O,m,1164,4,1,6864.200000047684,592693.7000000477,7090,ATS,C,3
4,test,4,C,haborder.png,1,z,Thu Apr 10 2025 10:39:23 GMT-0500 (Central Daylight Time),602307.2000000477,CFD-BF-002-018-A.jpg,1900,solid,O,z,799,8,1,9613.5,592693.7000000477,7090,ATS,C,4
5,test,4,C,mfborder.png,1,z,Thu Apr 10 2025 10:39:23 GMT-0500 (Central Daylight Time),605106.1000000238,CFD-WF-013-009-HC.jpg,1700,dash,O,z,1060,1,1,12412.399999976158,592693.7000000477,7090,ATS,C,5
6,test,4,C,haborder.png,1,z,Thu Apr 10 2025 10:39:23 GMT-0500 (Central Daylight Time),607455.2000000477,CFD-BF-031-020-A.jpg,1400,solid,O,z,896,7,1,14761.5,592693.7000000477,7090,ATS,C,6
7,test,4,C,haborder.png,1,z,Thu Apr 10 2025 10:39:23 GMT-0500 (Central Daylight Time),610071.3000000715,CFD-WF-037-016-A.jpg,1700,solid,O,z,873,9,1,17377.600000023842,592693.7000000477,7090,ATS,C,7
8,test,4,C,mfborder.png,1,m,Thu Apr 10 2025 10:39:23 GMT-0500 (Central Daylight Time),612570.7000000477,CFD-WM-036-018-A.jpg,1200,dash,O,m,1258,6,1,19877.0,592693.7000000477,7090,ATS,C,8
9,test,4,C,haborder.png,1,z,Thu Apr 10 2025 10:39:23 GMT-0500 (Central Daylight Time),615252.6000000238,CFD-WF-037-016-A.jpg,1700,solid,O,z,940,9,1,22558.899999976158,592693.7000000477,7090,ATS,C,9
10,test,4,C,mfborder.png,1,z,Thu Apr 10 2025 10:39:23 GMT-0500 (Central Daylight Time),617835.5,CFD-WF-023-013-A.jpg,1600,dash,O,z,949,2,1,25141.799999952316,592693.7000000477,7090,ATS,C,10
11,test,4,C,haborder.png,1,m,Thu Apr 10 2025 10:39:23 GMT-0500 (Central Daylight Time),620284.5,CFD-BM-022-004-HC.jpg,1600,solid,O,m,796,10,1,27590.799999952316,592693.7000000477,7090,ATS,C,11
11,test,4,C,mfborder.png,0,z,Thu Apr 10 2025 10:39:23 GMT-0500 (Central Daylight Time),622917.6000000238,CFD-BF-019-004-HC.jpg,1500,dash,O,m,1082,3,1,30223.899999976158,592693.7000000477,7090,ATS,C,12
12,test,4,C,mfborder.png,1,z,Thu Apr 10 2025 10:39:23 GMT-0500 (Central Daylight Time),625382.8000000715,CFD-WF-023-013-A.jpg,1600,dash,O,z,822,2,1,32689.100000023842,592693.7000000477,7090,ATS,C,13
13,test,4,C,haborder.png,1,m,Thu Apr 10 2025 10:39:23 GMT-0500 (Central Daylight Time),627165.4000000954,CFD-WM-028-005-HC.jpg,1000,solid,O,m,747,12,1,34471.700000047684,592693.7000000477,7090,ATS,C,14
14,test,4,C,mfborder.png,1,m,Thu Apr 10 2025 10:39:23 GMT-0500 (Central Daylight Time),630248.2000000477,CFD-BM-043-014-A.jpg,2000,dash,O,m,1045,5,1,37554.5,592693.7000000477,7090,ATS,C,15
15,test,4,C,mfborder.png,1,z,Thu Apr 10 2025 10:39:23 GMT-0500 (Central Daylight Time),633246.9000000954,CFD-WF-013-009-HC.jpg,1700,dash,O,z,1263,1,1,40553.200000047684,592693.7000000477,7090,ATS,C,16
16,test,4,C,mfborder.png,1,m,Thu Apr 10 2025 10:39:23 GMT-0500 (Central Daylight Time),635362.9000000954,CFD-BM-034-035-HC.jpg,1000,dash,O,m,1066,4,1,42669.200000047684,592693.7000000477,7090,ATS,C,17
17,test,4,C,mfborder.png,1,z,Thu Apr 10 2025 10:39:23 GMT-0500 (Central Daylight Time),638079.0,CFD-BF-019-004-HC.jpg,1500,dash,O,z,1171,3,1,45385.299999952316,592693.7000000477,7090,ATS,C,18
18,test,4,C,haborder.png,1,m,Thu Apr 10 2025 10:39:23 GMT-0500 (Central Daylight Time),640411.3000000715,CFD-WM-028-005-HC.jpg,1500,solid,O,m,783,11,1,47717.60000002384,592693.7000000477,7090,ATS,C,19
19,test,4,C,haborder.png,1,z,Thu Apr 10 2025 10:39:23 GMT-0500 (Central Daylight Time),642760.5,CFD-BF-031-020-A.jpg,1400,solid,O,z,904,7,1,50066.799999952316,592693.7000000477,7090,ATS,C,20
20,test,4,C,haborder.png,1,m,Thu Apr 10 2025 10:39:23 GMT-0500 (Central Daylight Time),644610.0,CFD-WM-028-005-HC.jpg,1000,solid,O,m,801,12,1,51916.299999952316,592693.7000000477,7090,ATS,C,21
21,test,4,C,haborder.png,1,m,Thu Apr 10 2025 10:39:23 GMT-0500 (Central Daylight Time),647075.4000000954,CFD-BM-022-004-HC.jpg,1600,solid,O,m,826,10,1,54381.700000047684,592693.7000000477,7090,ATS,C,22
22,test,4,C,haborder.png,1,z,Thu Apr 10 2025 10:39:23 GMT-0500 (Central Daylight Time),649825.0,CFD-BF-002-018-A.jpg,1900,solid,O,z,803,8,1,57131.299999952316,592693.7000000477,7090,ATS,C,23
23,test,4,C,mfborder.png,1,m,Thu Apr 10 2025 10:39:23 GMT-0500 (Central Daylight Time),652690.7000000477,CFD-BM-043-014-A.jpg,2000,dash,O,m,819,5,1,59997.0,592693.7000000477,7090,ATS,C,24
