acc_sum,block_c,block_dur,condition,correct,correct_response,countdown,datetime,endtime,project,response,response_time,response_time_test1_response,response_time_test2_response,row_sel,same,session_number,start_end,starttime,stim1,stim2,subject_id,task,task_vers,time_test1,time_test2,trial
1,1,0.0,prac,1,z,30000.0,Wed Nov 13 2024 11:31:58 GMT-0500 (Eastern Standard Time),43441.7000002861,I,z,2147,,,6,yes,1,3675.0,39766.7000002861,CSDBFPHXZ,CSDBFPHXZ,9005,LC,A,,,1
2,1,0.0,prac,1,m,30000.0,Wed Nov 13 2024 11:31:58 GMT-0500 (Eastern Standard Time),46991.2000002861,I,m,2013,,,5,no,1,3538.0999999046326,43453.10000038147,LNDPRSKQB,LNDPRSJQB,9005,LC,A,,,2
3,1,0.0,prac,1,z,30000.0,Wed Nov 13 2024 11:31:58 GMT-0500 (Eastern Standard Time),49541.2000002861,I,z,1010,,,4,yes,1,2542.0,46999.2000002861,RSM,RSM,9005,LC,A,,,3
4,1,0.0,prac,1,m,30000.0,Wed Nov 13 2024 11:31:58 GMT-0500 (Eastern Standard Time),52608.0,I,m,1531,,,3,no,1,3056.7999997138977,49551.2000002861,QHZXPC,QHZWPC,9005,LC,A,,,4
5,1,0.0,prac,1,m,30000.0,Wed Nov 13 2024 11:31:58 GMT-0500 (Eastern Standard Time),55191.300000190735,I,m,1040,,,1,no,1,2574.300000190735,52617.0,RNV,FNV,9005,LC,A,,,5
6,1,0.0,prac,1,z,30000.0,Wed Nov 13 2024 11:31:58 GMT-0500 (Eastern Standard Time),57924.7000002861,I,z,1193,,,2,yes,1,2724.0999999046326,55200.60000038147,NBGFSM,NBGFSM,9005,LC,A,,,6
1,1,1.0829999446868896,test,1,m,28917.00005531311,Wed Nov 13 2024 11:31:58 GMT-0500 (Eastern Standard Time),72907.90000009537,I,m,1075,1075,,1,no,1,1076.2999997138977,71831.60000038147,HCF,RCF,9005,LC,A,70108,,1
1,1,2.383999824523926,test,0,m,27616.000175476074,Wed Nov 13 2024 11:31:58 GMT-0500 (Eastern Standard Time),74208.40000009537,I,z,1285,1285,,2,no,1,1290.6999998092651,72917.7000002861,QTPRJX,QTPNJX,9005,LC,A,71194,,2
2,1,4.6499998569488525,test,1,m,25350.000143051147,Wed Nov 13 2024 11:31:58 GMT-0500 (Eastern Standard Time),76474.7000002861,I,m,2241,2241,,3,no,1,2259.0999999046326,74215.60000038147,MZDYGVGKQ,MZDYGLBKQ,9005,LC,A,72493,,3
3,1,6.116999864578247,test,1,m,23883.000135421753,Wed Nov 13 2024 11:31:58 GMT-0500 (Eastern Standard Time),77941.30000019073,I,m,1447,1447,,4,no,1,1458.0999999046326,76483.2000002861,FQTNMK,JQTNMK,9005,LC,A,74760,,4
4,1,6.983999967575073,test,1,z,23016.000032424927,Wed Nov 13 2024 11:31:58 GMT-0500 (Eastern Standard Time),78808.0,I,z,846,846,,5,yes,1,859.3999996185303,77948.60000038147,CLJ,CLJ,9005,LC,A,76225,,5
5,1,8.416999816894531,test,1,m,21583.00018310547,Wed Nov 13 2024 11:31:58 GMT-0500 (Eastern Standard Time),80241.0,I,m,1418,1418,,6,no,1,1426.1999998092651,78814.80000019073,JGDMNSVPW,JGZMNSVPW,9005,LC,A,77092,,6
6,1,10.733999967575073,test,1,z,19266.000032424927,Wed Nov 13 2024 11:31:58 GMT-0500 (Eastern Standard Time),82557.90000009537,I,z,2308,2308,,7,yes,1,2311.199999809265,80246.7000002861,FPTVHKCBJ,FPTVHKCBJ,9005,LC,A,78523,,7
7,1,11.899999856948853,test,1,m,18100.000143051147,Wed Nov 13 2024 11:31:58 GMT-0500 (Eastern Standard Time),83724.7000002861,I,m,1155,1155,,8,no,1,1157.0999999046326,82567.60000038147,XRPZBS,ZRPBDH,9005,LC,A,80844,,8
7,1,12.899999856948853,test,0,m,17100.000143051147,Wed Nov 13 2024 11:31:58 GMT-0500 (Eastern Standard Time),84724.60000038147,I,z,982,982,,9,no,1,991.7000002861023,83732.90000009537,ZSQ,ZSP,9005,LC,A,82009,,9
8,1,14.982999801635742,test,1,z,15017.000198364258,Wed Nov 13 2024 11:31:58 GMT-0500 (Eastern Standard Time),86807.7000002861,I,z,2063,2063,,10,yes,1,2076.0999999046326,84731.60000038147,MPZRXL,MPZRXL,9005,LC,A,83008,,10
9,1,16.316999912261963,test,1,m,13683.000087738037,Wed Nov 13 2024 11:31:58 GMT-0500 (Eastern Standard Time),88141.40000009537,I,m,1324,1324,,11,no,1,1327.0,86814.40000009537,KJH,KRH,9005,LC,A,85091,,11
10,1,18.867999792099,test,1,z,11132.000207901001,Wed Nov 13 2024 11:31:58 GMT-0500 (Eastern Standard Time),90691.90000009537,I,z,2533,2533,,12,yes,1,2542.5999999046326,88149.30000019073,SMNHVTFCB,SMNHVTFCB,9005,LC,A,86426,,12
11,1,20.76699995994568,test,1,z,9233.000040054321,Wed Nov 13 2024 11:31:58 GMT-0500 (Eastern Standard Time),92591.0,I,z,1890,1890,,13,yes,1,1894.8999996185303,90696.10000038147,KJWTQF,KJWTQF,9005,LC,A,88973,,13
12,1,22.91699981689453,test,1,z,7083.000183105469,Wed Nov 13 2024 11:31:58 GMT-0500 (Eastern Standard Time),94741.40000009537,I,z,2134,2134,,14,yes,1,2144.9000000953674,92596.5,CHDKQGLMB,CHDKQGLMB,9005,LC,A,90873,,14
13,1,23.882999897003174,test,1,z,6117.000102996826,Wed Nov 13 2024 11:31:58 GMT-0500 (Eastern Standard Time),95707.60000038147,I,z,955,955,,15,yes,1,957.8000001907349,94749.80000019073,GHQ,GHQ,9005,LC,A,93026,,15
14,1,25.316999912261963,test,1,z,4683.000087738037,Wed Nov 13 2024 11:31:58 GMT-0500 (Eastern Standard Time),97141.30000019073,I,z,1419,1419,,16,yes,1,1429.8000001907349,95711.5,GFVMRH,GFVMRH,9005,LC,A,93988,,16
15,1,26.182999849319458,test,1,z,3817.000150680542,Wed Nov 13 2024 11:31:58 GMT-0500 (Eastern Standard Time),98007.30000019073,I,z,845,845,,17,yes,1,858.4000000953674,97148.90000009537,RSM,RSM,9005,LC,A,95425,,17
16,1,28.0,test,1,m,2000.0,Wed Nov 13 2024 11:31:58 GMT-0500 (Eastern Standard Time),99824.30000019073,I,m,1806,1806,,18,no,1,1812.0,98012.30000019073,BSRJTRMLG,BSFJTRMLG,9005,LC,A,96289,,18
17,1,29.716999769210815,test,1,z,283.00023078918457,Wed Nov 13 2024 11:31:58 GMT-0500 (Eastern Standard Time),101541.30000019073,I,z,1701,1701,,19,yes,1,1712.0,99829.30000019073,NBGFSM,NBGFSM,9005,LC,A,98106,,19
17,1,30.01699995994568,test,0,z,-16.99995994567871,Wed Nov 13 2024 11:31:58 GMT-0500 (Eastern Standard Time),101841.60000038147,I,None,292,292,,20,yes,1,292.80000019073486,101548.80000019073,JQKBPLXGY,JQKBPLXGY,9005,LC,A,99825,,20
1,2,2.134000062942505,test,1,z,27865.999937057495,Wed Nov 13 2024 11:31:58 GMT-0500 (Eastern Standard Time),108875.0,I,z,2126,,2126.0,1,yes,1,7326.199999809265,101548.80000019073,PRDBZTYFN,PRDBZTYFN,9005,LC,A,,105024.0,1
2,2,3.5169999599456787,test,1,m,26483.00004005432,Wed Nov 13 2024 11:31:58 GMT-0500 (Eastern Standard Time),110257.90000009537,I,m,1368,,1368.0,2,no,1,8709.099999904633,101548.80000019073,NCWJDZ,NCMJDZ,9005,LC,A,,107159.0,2
3,2,4.766999959945679,test,1,m,25233.00004005432,Wed Nov 13 2024 11:31:58 GMT-0500 (Eastern Standard Time),111507.90000009537,I,m,1231,,1231.0,3,no,1,9959.099999904633,101548.80000019073,KHW,KBW,9005,LC,A,,108544.0,3
4,2,7.900000095367432,test,1,m,22099.99990463257,Wed Nov 13 2024 11:31:58 GMT-0500 (Eastern Standard Time),114641.40000009537,I,m,3120,,3120.0,4,no,1,13092.599999904633,101548.80000019073,ZRBGMF,ZRBCMF,9005,LC,A,,109791.0,4
5,2,9.150000095367432,test,1,m,20849.99990463257,Wed Nov 13 2024 11:31:58 GMT-0500 (Eastern Standard Time),115891.0,I,m,1233,,1233.0,5,no,1,14342.199999809265,101548.80000019073,BTH,BYH,9005,LC,A,,112925.0,5
6,2,11.617000102996826,test,1,z,18382.999897003174,Wed Nov 13 2024 11:31:58 GMT-0500 (Eastern Standard Time),118358.0,I,z,2448,,2448.0,6,yes,1,16809.199999809265,101548.80000019073,XWKQRYCNZ,XWKQRYCNZ,9005,LC,A,,114175.0,6
7,2,13.766000032424927,test,1,z,16233.999967575073,Wed Nov 13 2024 11:31:58 GMT-0500 (Eastern Standard Time),120507.5,I,z,2141,,2141.0,7,yes,1,18958.699999809265,101548.80000019073,HNPDLK,HNPDLK,9005,LC,A,,116641.0,7
8,2,16.950000047683716,test,1,m,13049.999952316284,Wed Nov 13 2024 11:31:58 GMT-0500 (Eastern Standard Time),123691.30000019073,I,m,3163,,3163.0,8,no,1,22142.5,101548.80000019073,WMQTRSGLZ,WMQTRZGLZ,9005,LC,A,,118788.0,8
9,2,18.183000087738037,test,1,z,11816.999912261963,Wed Nov 13 2024 11:31:58 GMT-0500 (Eastern Standard Time),124924.5,I,z,1223,,1223.0,9,yes,1,23375.699999809265,101548.80000019073,JPN,JPN,9005,LC,A,,121975.0,9
10,2,20.016000032424927,test,1,m,9983.999967575073,Wed Nov 13 2024 11:31:58 GMT-0500 (Eastern Standard Time),126757.7000002861,I,m,1811,,1811.0,10,no,1,25208.900000095367,101548.80000019073,QLXSVT,QLNSVT,9005,LC,A,,123211.0,10
11,2,22.867000102996826,test,1,z,7132.999897003174,Wed Nov 13 2024 11:31:58 GMT-0500 (Eastern Standard Time),129608.0,I,z,2829,,2829.0,11,yes,1,28059.199999809265,101548.80000019073,YXHKZVFPB,YXHKZVFPD,9005,LC,A,,125042.0,11
12,2,24.016000032424927,test,1,z,5983.999967575073,Wed Nov 13 2024 11:31:58 GMT-0500 (Eastern Standard Time),130757.80000019073,I,z,1132,,1132.0,12,yes,1,29209.0,101548.80000019073,RJZ,RJZ,9005,LC,A,,127891.0,12
13,2,25.282999992370605,test,1,z,4717.0000076293945,Wed Nov 13 2024 11:31:58 GMT-0500 (Eastern Standard Time),132024.60000038147,I,z,1243,,1243.0,13,yes,1,30475.800000190735,101548.80000019073,CLNPZD,CLNPZD,9005,LC,A,,129044.0,13
14,2,27.317000150680542,test,1,m,2682.999849319458,Wed Nov 13 2024 11:31:58 GMT-0500 (Eastern Standard Time),134058.10000038147,I,m,2006,,2006.0,14,no,1,32509.300000190735,101548.80000019073,DCBPFHXYJ,DCBPFHLYJ,9005,LC,A,,130312.0,14
15,2,28.549999952316284,test,1,m,1450.0000476837158,Wed Nov 13 2024 11:31:58 GMT-0500 (Eastern Standard Time),135291.2000002861,I,m,1226,,1226.0,15,no,1,33742.40000009537,101548.80000019073,MWR,ZWR,9005,LC,A,,132341.0,15
15,2,30.01699995994568,test,0,z,-16.99995994567871,Wed Nov 13 2024 11:31:58 GMT-0500 (Eastern Standard Time),136758.10000038147,I,None,1460,,1460.0,16,yes,1,35209.300000190735,101548.80000019073,LPKXZW,LPKXZW,9005,LC,A,,133574.0,16
