acc_sum,block_c,block_dur,condition,correct,correct_response,countdown,datetime,endtime,project,response,response_time,response_time_test1_response,response_time_test2_response,row_sel,same,session_number,start_end,starttime,stim1,stim2,subject_id,task,task_vers,time_test1,time_test2,trial
1,1,0.0,prac,1,m,30000.0,Mon Jan 27 2025 19:11:17 GMT-0600 (Central Standard Time),42762.7999997139,I,m,1836,,,6,no,1,3359.0,39403.7999997139,practrial6.png,practrial6b.png,8019,PC,A,,,1
2,1,0.0,prac,1,z,30000.0,Mon Jan 27 2025 19:11:17 GMT-0600 (Central Standard Time),45427.39999961853,I,z,1132,,,3,yes,1,2656.2999997138977,42771.09999990463,practrial3.png,practrial3.png,8019,PC,A,,,2
3,1,0.0,prac,1,m,30000.0,Mon Jan 27 2025 19:11:17 GMT-0600 (Central Standard Time),48361.7999997139,I,m,1399,,,4,no,1,2929.199999809265,45432.59999990463,practrial4.png,practrial4b.png,8019,PC,A,,,3
4,1,0.0,prac,1,z,30000.0,Mon Jan 27 2025 19:11:17 GMT-0600 (Central Standard Time),50893.199999809265,I,z,1000,,,1,yes,1,2526.199999809265,48367.0,practrial1.png,practrial1.png,8019,PC,A,,,4
5,1,0.0,prac,1,z,30000.0,Mon Jan 27 2025 19:11:17 GMT-0600 (Central Standard Time),53693.699999809265,I,z,1262,,,5,yes,1,2795.0,50898.699999809265,practrial5.png,practrial5.png,8019,PC,A,,,5
6,1,0.0,prac,1,m,30000.0,Mon Jan 27 2025 19:11:17 GMT-0600 (Central Standard Time),56291.7999997139,I,m,1070,,,2,no,1,2593.0,53698.7999997139,practrial2.png,practrial2b.png,8019,PC,A,,,6
1,1,1.4689998626708984,test,1,z,28531.0001373291,Mon Jan 27 2025 19:11:17 GMT-0600 (Central Standard Time),69155.39999961853,I,z,1465,1465,,1,yes,1,1466.2999997138977,67689.09999990463,test1trial1.png,test1trial1.png,8019,PC,A,62400,,1
2,1,2.5839998722076416,test,1,m,27416.00012779236,Mon Jan 27 2025 19:11:17 GMT-0600 (Central Standard Time),70270.69999980927,I,m,1097,1097,,2,no,1,1112.1999998092651,69158.5,test1trial2.png,test1trial2b.png,8019,PC,A,63870,,2
3,1,3.5839998722076416,test,1,z,26416.00012779236,Mon Jan 27 2025 19:11:17 GMT-0600 (Central Standard Time),71271.0,I,z,990,990,,3,yes,1,996.7000002861023,70274.2999997139,test1trial3.png,test1trial3.png,8019,PC,A,64986,,3
4,1,4.58299994468689,test,1,m,25417.00005531311,Mon Jan 27 2025 19:11:17 GMT-0600 (Central Standard Time),72270.09999990463,I,m,981,981,,4,no,1,995.8000001907349,71274.2999997139,test1trial4.png,test1trial4b.png,8019,PC,A,65986,,4
5,1,5.631999969482422,test,1,z,24368.000030517578,Mon Jan 27 2025 19:11:17 GMT-0600 (Central Standard Time),73319.19999980927,I,z,1029,1029,,5,yes,1,1045.0,72274.19999980927,test1trial5.png,test1trial5.png,8019,PC,A,66986,,5
6,1,6.7159998416900635,test,1,m,23284.000158309937,Mon Jan 27 2025 19:11:17 GMT-0600 (Central Standard Time),74403.2999997139,I,m,1077,1077,,6,no,1,1080.0,73323.2999997139,test1trial6.png,test1trial6b.png,8019,PC,A,68035,,6
7,1,7.948999881744385,test,1,z,22051.000118255615,Mon Jan 27 2025 19:11:17 GMT-0600 (Central Standard Time),75636.0,I,z,1217,1217,,7,yes,1,1229.3000001907349,74406.69999980927,test1trial7.png,test1trial7.png,8019,PC,A,69119,,7
7,1,8.948999881744385,test,0,m,21051.000118255615,Mon Jan 27 2025 19:11:17 GMT-0600 (Central Standard Time),76636.19999980927,I,z,985,985,,8,no,1,996.9000000953674,75639.2999997139,test1trial8.png,test1trial8b.png,8019,PC,A,70351,,8
8,1,9.865000009536743,test,1,z,20134.999990463257,Mon Jan 27 2025 19:11:17 GMT-0600 (Central Standard Time),77551.39999961853,I,z,903,903,,9,yes,1,911.6999998092651,76639.69999980927,test1trial9.png,test1trial9.png,8019,PC,A,71352,,9
9,1,10.780999898910522,test,1,m,19219.000101089478,Mon Jan 27 2025 19:11:17 GMT-0600 (Central Standard Time),78468.19999980927,I,m,913,913,,10,no,1,914.0,77554.19999980927,test1trial10.png,test1trial10b.png,8019,PC,A,72265,,10
10,1,11.914999961853027,test,1,z,18085.000038146973,Mon Jan 27 2025 19:11:17 GMT-0600 (Central Standard Time),79601.69999980927,I,z,1113,1113,,11,yes,1,1130.4000000953674,78471.2999997139,test1trial11.png,test1trial11.png,8019,PC,A,73183,,11
11,1,14.197999954223633,test,1,m,15802.000045776367,Mon Jan 27 2025 19:11:17 GMT-0600 (Central Standard Time),81884.59999990463,I,m,2265,2265,,12,no,1,2279.5999999046326,79605.0,test1trial12.png,test1trial12b.png,8019,PC,A,74317,,12
12,1,15.36299991607666,test,1,m,14637.00008392334,Mon Jan 27 2025 19:11:17 GMT-0600 (Central Standard Time),83050.0,I,m,1150,1150,,13,no,1,1161.1000003814697,81888.89999961853,test1trial13.png,test1trial13b.png,8019,PC,A,76601,,13
13,1,16.549000024795532,test,1,m,13450.999975204468,Mon Jan 27 2025 19:11:17 GMT-0600 (Central Standard Time),84235.89999961853,I,m,1181,1181,,14,no,1,1182.6999998092651,83053.19999980927,test1trial14.png,test1trial14b.png,8019,PC,A,77765,,14
14,1,17.645999908447266,test,1,z,12354.000091552734,Mon Jan 27 2025 19:11:17 GMT-0600 (Central Standard Time),85332.59999990463,I,z,1091,1091,,15,yes,1,1092.8000001907349,84239.7999997139,test1trial15.png,test1trial15.png,8019,PC,A,78951,,15
15,1,19.294999837875366,test,1,m,10705.000162124634,Mon Jan 27 2025 19:11:17 GMT-0600 (Central Standard Time),86981.5,I,m,1641,1641,,16,no,1,1646.1000003814697,85335.39999961853,test1trial16.png,test1trial16b.png,8019,PC,A,80047,,16
16,1,20.328999996185303,test,1,z,9671.000003814697,Mon Jan 27 2025 19:11:17 GMT-0600 (Central Standard Time),88015.2999997139,I,z,1025,1025,,17,yes,1,1031.0,86984.2999997139,test1trial17.png,test1trial17.png,8019,PC,A,81695,,17
17,1,21.460999965667725,test,1,m,8539.000034332275,Mon Jan 27 2025 19:11:17 GMT-0600 (Central Standard Time),89148.0,I,m,1118,1118,,18,no,1,1129.4000000953674,88018.59999990463,test1trial18.png,test1trial18b.png,8019,PC,A,82730,,18
18,1,23.211999893188477,test,1,m,6788.000106811523,Mon Jan 27 2025 19:11:17 GMT-0600 (Central Standard Time),90898.7999997139,I,m,1729,1729,,19,no,1,1747.9000000953674,89150.89999961853,test1trial19.png,test1trial19b.png,8019,PC,A,83863,,19
19,1,25.0939998626709,test,1,z,4906.000137329102,Mon Jan 27 2025 19:11:17 GMT-0600 (Central Standard Time),92780.59999990463,I,z,1860,1860,,20,yes,1,1878.0,90902.59999990463,test1trial20.png,test1trial20.png,8019,PC,A,85614,,20
20,1,26.54199981689453,test,1,z,3458.0001831054688,Mon Jan 27 2025 19:11:17 GMT-0600 (Central Standard Time),94228.89999961853,I,z,1438,1438,,21,yes,1,1443.7999997138977,92785.09999990463,test1trial21.png,test1trial21.png,8019,PC,A,87497,,21
21,1,27.626999855041504,test,1,z,2373.000144958496,Mon Jan 27 2025 19:11:17 GMT-0600 (Central Standard Time),95314.0,I,z,1061,1061,,22,yes,1,1080.3000001907349,94233.69999980927,test1trial22.png,test1trial22.png,8019,PC,A,88946,,22
22,1,28.508999824523926,test,1,z,1491.0001754760742,Mon Jan 27 2025 19:11:17 GMT-0600 (Central Standard Time),96196.09999990463,I,z,867,867,,23,yes,1,878.5,95317.59999990463,test1trial23.png,test1trial23.png,8019,PC,A,90029,,23
23,1,29.408999919891357,test,1,z,591.0000801086426,Mon Jan 27 2025 19:11:17 GMT-0600 (Central Standard Time),97095.39999961853,I,z,888,888,,24,yes,1,895.0,96200.39999961853,test1trial24.png,test1trial24.png,8019,PC,A,90912,,24
23,1,30.008999824523926,test,0,m,-8.999824523925781,Mon Jan 27 2025 19:11:17 GMT-0600 (Central Standard Time),97695.7999997139,I,None,596,596,,25,no,1,598.0,97097.7999997139,test1trial25.png,test1trial25b.png,8019,PC,A,91809,,25
1,2,1.318000078201294,test,1,m,28681.999921798706,Mon Jan 27 2025 19:11:17 GMT-0600 (Central Standard Time),103812.19999980927,I,m,1313,,1313.0,1,no,1,6714.400000095367,97097.7999997139,test2trial1.png,test2trial1b.png,8019,PC,A,,97208.0,1
2,2,2.8480000495910645,test,1,m,27151.999950408936,Mon Jan 27 2025 19:11:17 GMT-0600 (Central Standard Time),105342.2999997139,I,m,1519,,1519.0,2,no,1,8244.5,97097.7999997139,test2trial2.png,test2trial2b.png,8019,PC,A,,98528.0,2
3,2,3.9489998817443848,test,1,z,26051.000118255615,Mon Jan 27 2025 19:11:17 GMT-0600 (Central Standard Time),106443.09999990463,I,z,1093,,1093.0,3,yes,1,9345.300000190735,97097.7999997139,test2trial3.png,test2trial3.png,8019,PC,A,,100059.0,3
4,2,4.796999931335449,test,1,z,25203.00006866455,Mon Jan 27 2025 19:11:17 GMT-0600 (Central Standard Time),107290.7999997139,I,z,829,,829.0,4,yes,1,10193.0,97097.7999997139,test2trial4.png,test2trial4.png,8019,PC,A,,101161.0,4
5,2,5.732000112533569,test,1,z,24267.99988746643,Mon Jan 27 2025 19:11:17 GMT-0600 (Central Standard Time),108225.5,I,z,923,,923.0,5,yes,1,11127.700000286102,97097.7999997139,test2trial5.png,test2trial5.png,8019,PC,A,,102005.0,5
6,2,6.677000045776367,test,1,z,23322.999954223633,Mon Jan 27 2025 19:11:17 GMT-0600 (Central Standard Time),109171.69999980927,I,z,938,,938.0,6,yes,1,12073.900000095367,97097.7999997139,test2trial6.png,test2trial6.png,8019,PC,A,,102940.0,6
7,2,8.727999925613403,test,1,m,21272.000074386597,Mon Jan 27 2025 19:11:17 GMT-0600 (Central Standard Time),111222.69999980927,I,m,2043,,2043.0,7,no,1,14124.900000095367,97097.7999997139,test2trial7.png,test2trial7b.png,8019,PC,A,,103885.0,7
8,2,9.729000091552734,test,1,m,20270.999908447266,Mon Jan 27 2025 19:11:17 GMT-0600 (Central Standard Time),112223.19999980927,I,m,977,,977.0,8,no,1,15125.400000095367,97097.7999997139,test2trial8.png,test2trial8b.png,8019,PC,A,,105942.0,8
9,2,10.76200008392334,test,1,z,19237.99991607666,Mon Jan 27 2025 19:11:17 GMT-0600 (Central Standard Time),113256.59999990463,I,z,1010,,1010.0,9,yes,1,16158.800000190735,97097.7999997139,test2trial9.png,test2trial9.png,8019,PC,A,,106941.0,9
10,2,11.628999948501587,test,1,z,18371.000051498413,Mon Jan 27 2025 19:11:17 GMT-0600 (Central Standard Time),114123.7999997139,I,z,850,,850.0,10,yes,1,17026.0,97097.7999997139,test2trial10.png,test2trial10.png,8019,PC,A,,107973.0,10
11,2,12.562000036239624,test,1,m,17437.999963760376,Mon Jan 27 2025 19:11:17 GMT-0600 (Central Standard Time),115056.39999961853,I,m,921,,921.0,11,no,1,17958.599999904633,97097.7999997139,test2trial11.png,test2trial11b.png,8019,PC,A,,108839.0,11
12,2,14.227999925613403,test,1,m,15772.000074386597,Mon Jan 27 2025 19:11:17 GMT-0600 (Central Standard Time),116722.89999961853,I,m,1661,,1661.0,12,no,1,19625.099999904633,97097.7999997139,test2trial12.png,test2trial12b.png,8019,PC,A,,109771.0,12
13,2,15.279000043869019,test,1,z,14720.999956130981,Mon Jan 27 2025 19:11:17 GMT-0600 (Central Standard Time),117773.2999997139,I,z,1032,,1032.0,13,yes,1,20675.5,97097.7999997139,test2trial13.png,test2trial13.png,8019,PC,A,,111439.0,13
13,2,17.17899990081787,test,0,m,12821.000099182129,Mon Jan 27 2025 19:11:17 GMT-0600 (Central Standard Time),119673.69999980927,I,z,1878,,1878.0,14,no,1,22575.900000095367,97097.7999997139,test2trial14.png,test2trial14b.png,8019,PC,A,,112489.0,14
14,2,18.02900004386902,test,1,m,11970.999956130981,Mon Jan 27 2025 19:11:17 GMT-0600 (Central Standard Time),120524.0,I,m,844,,844.0,15,no,1,23426.200000286102,97097.7999997139,test2trial15.png,test2trial15b.png,8019,PC,A,,114390.0,15
15,2,19.99399995803833,test,1,m,10006.00004196167,Mon Jan 27 2025 19:11:17 GMT-0600 (Central Standard Time),122488.89999961853,I,m,1943,,1943.0,16,no,1,25391.099999904633,97097.7999997139,test2trial16.png,test2trial16b.png,8019,PC,A,,115240.0,16
16,2,21.325999975204468,test,1,z,8674.000024795532,Mon Jan 27 2025 19:11:17 GMT-0600 (Central Standard Time),123820.5,I,z,1326,,1326.0,17,yes,1,26722.700000286102,97097.7999997139,test2trial17.png,test2trial17.png,8019,PC,A,,117204.0,17
17,2,22.14199995994568,test,1,z,7858.000040054321,Mon Jan 27 2025 19:11:17 GMT-0600 (Central Standard Time),124636.69999980927,I,z,800,,800.0,18,yes,1,27538.900000095367,97097.7999997139,test2trial18.png,test2trial18.png,8019,PC,A,,118536.0,18
18,2,23.842000007629395,test,1,z,6157.9999923706055,Mon Jan 27 2025 19:11:17 GMT-0600 (Central Standard Time),126337.09999990463,I,z,1681,,1681.0,19,yes,1,29239.300000190735,97097.7999997139,test2trial19.png,test2trial19.png,8019,PC,A,,119350.0,19
19,2,24.757999897003174,test,1,z,5242.000102996826,Mon Jan 27 2025 19:11:17 GMT-0600 (Central Standard Time),127252.5,I,z,906,,906.0,20,yes,1,30154.700000286102,97097.7999997139,test2trial20.png,test2trial20.png,8019,PC,A,,121052.0,20
20,2,26.806999921798706,test,1,z,3193.000078201294,Mon Jan 27 2025 19:11:17 GMT-0600 (Central Standard Time),129301.09999990463,I,z,2040,,2040.0,21,yes,1,32203.300000190735,97097.7999997139,test2trial21.png,test2trial21.png,8019,PC,A,,121967.0,21
21,2,28.038000106811523,test,1,m,1961.9998931884766,Mon Jan 27 2025 19:11:17 GMT-0600 (Central Standard Time),130532.7999997139,I,m,1222,,1222.0,22,no,1,33435.0,97097.7999997139,test2trial22.png,test2trial22b.png,8019,PC,A,,124016.0,22
22,2,29.753999948501587,test,1,m,246.0000514984131,Mon Jan 27 2025 19:11:17 GMT-0600 (Central Standard Time),132248.7999997139,I,m,1704,,1704.0,23,no,1,35151.0,97097.7999997139,test2trial23.png,test2trial23b.png,8019,PC,A,,125246.0,23
22,2,30.00600004196167,test,0,m,-6.000041961669922,Mon Jan 27 2025 19:11:17 GMT-0600 (Central Standard Time),132500.59999990463,I,None,248,,248.0,24,no,1,35402.800000190735,97097.7999997139,test2trial24.png,test2trial24b.png,8019,PC,A,,126962.0,24
