block_c,block_dur,condition,countdown,datetime,endtime,list,multichar_response,project,response,response_time,session_number,start_end,starttime,subject_id,task,task_vers,trial
,,,,Thu Mar 13 2025 09:07:30 GMT-0500 (Central Daylight Time),,,,O,space,1141,1,,,7105,WL,C,
prac,,0,,Thu Mar 13 2025 09:07:30 GMT-0500 (Central Daylight Time),,NA,b,O,b,3992,1,,,7105,WL,C,1.0
prac,,0,,Thu Mar 13 2025 09:07:30 GMT-0500 (Central Daylight Time),,NA,bo,O,o,305,1,,,7105,WL,C,1.0
prac,,0,,Thu Mar 13 2025 09:07:30 GMT-0500 (Central Daylight Time),,NA,boo,O,o,127,1,,,7105,WL,C,1.0
prac,,0,,Thu Mar 13 2025 09:07:30 GMT-0500 (Central Daylight Time),,NA,boos,O,s,161,1,,,7105,WL,C,1.0
prac,,0,,Thu Mar 13 2025 09:07:30 GMT-0500 (Central Daylight Time),,NA,boost,O,t,275,1,,,7105,WL,C,1.0
prac,,0,,Thu Mar 13 2025 09:07:30 GMT-0500 (Central Daylight Time),,NA,boostenter,O,enter,1424,1,,,7105,WL,C,1.0
1,1.0499999523162842,learn,58950.000047683716,Thu Mar 13 2025 09:07:30 GMT-0500 (Central Daylight Time),319540.6000000001,A,t,O,t,1042,1,1049.2999999998137,318491.3000000003,7105,WL,C,1.0
1,1.3329999446868896,learn,58667.00005531311,Thu Mar 13 2025 09:07:30 GMT-0500 (Central Daylight Time),319824.1000000001,A,to,O,o,265,1,1332.7999999998137,318491.3000000003,7105,WL,C,1.0
1,1.5829999446868896,learn,58417.00005531311,Thu Mar 13 2025 09:07:30 GMT-0500 (Central Daylight Time),320073.7000000002,A,tow,O,w,237,1,1582.3999999999069,318491.3000000003,7105,WL,C,1.0
1,1.7829999923706055,learn,58217.000007629395,Thu Mar 13 2025 09:07:30 GMT-0500 (Central Daylight Time),320273.7000000002,A,towe,O,e,188,1,1782.3999999999069,318491.3000000003,7105,WL,C,1.0
1,1.8989999294281006,learn,58101.0000705719,Thu Mar 13 2025 09:07:30 GMT-0500 (Central Daylight Time),320390.3000000003,A,tower,O,r,100,1,1899.0,318491.3000000003,7105,WL,C,1.0
1,2.431999921798706,learn,57568.000078201294,Thu Mar 13 2025 09:07:30 GMT-0500 (Central Daylight Time),320923.3000000003,A,towerw,O,w,520,1,2432.0,318491.3000000003,7105,WL,C,1.0
1,2.5820000171661377,learn,57417.99998283386,Thu Mar 13 2025 09:07:30 GMT-0500 (Central Daylight Time),321073.3999999999,A,towerwh,O,h,130,1,2582.0999999996275,318491.3000000003,7105,WL,C,1.0
1,2.7339999675750732,learn,57266.00003242493,Thu Mar 13 2025 09:07:30 GMT-0500 (Central Daylight Time),321224.5,A,towerwhe,O,e,140,1,2733.1999999997206,318491.3000000003,7105,WL,C,1.0
1,2.9159998893737793,learn,57084.00011062622,Thu Mar 13 2025 09:07:30 GMT-0500 (Central Daylight Time),321406.6000000001,A,towerwhea,O,a,173,1,2915.2999999998137,318491.3000000003,7105,WL,C,1.0
1,3.1659998893737793,learn,56834.00011062622,Thu Mar 13 2025 09:07:30 GMT-0500 (Central Daylight Time),321656.6000000001,A,towerwheat,O,t,239,1,3165.2999999998137,318491.3000000003,7105,WL,C,1.0
1,3.749000072479248,learn,56250.99992752075,Thu Mar 13 2025 09:07:30 GMT-0500 (Central Daylight Time),322239.6000000001,A,towerwheatq,O,q,565,1,3748.2999999998137,318491.3000000003,7105,WL,C,1.0
1,3.9649999141693115,learn,56035.00008583069,Thu Mar 13 2025 09:07:30 GMT-0500 (Central Daylight Time),322456.3999999999,A,towerwheatqu,O,u,206,1,3965.0999999996275,318491.3000000003,7105,WL,C,1.0
1,4.2820000648498535,learn,55717.99993515015,Thu Mar 13 2025 09:07:30 GMT-0500 (Central Daylight Time),322773.0,A,towerwheatque,O,e,301,1,4281.699999999721,318491.3000000003,7105,WL,C,1.0
1,4.431999921798706,learn,55568.000078201294,Thu Mar 13 2025 09:07:30 GMT-0500 (Central Daylight Time),322923.1000000001,A,towerwheatquee,O,e,129,1,4431.799999999814,318491.3000000003,7105,WL,C,1.0
1,4.797999858856201,learn,55202.0001411438,Thu Mar 13 2025 09:07:30 GMT-0500 (Central Daylight Time),323289.3999999999,A,towerwheatqueen,O,n,355,1,4798.0999999996275,318491.3000000003,7105,WL,C,1.0
1,6.414999961853027,learn,53585.00003814697,Thu Mar 13 2025 09:07:30 GMT-0500 (Central Daylight Time),324905.5,A,towerwheatqueenenter,O,enter,1596,1,6414.199999999721,318491.3000000003,7105,WL,C,1.0
1,7.897000074386597,learn,52102.9999256134,Thu Mar 13 2025 09:07:30 GMT-0500 (Central Daylight Time),326388.3000000003,A,w,O,w,1476,1,1482.2000000001863,324906.1000000001,7105,WL,C,2.0
1,8.030999898910522,learn,51969.00010108948,Thu Mar 13 2025 09:07:30 GMT-0500 (Central Daylight Time),326521.6000000001,A,wh,O,h,121,1,1615.5,324906.1000000001,7105,WL,C,2.0
1,8.19700002670288,learn,51802.99997329712,Thu Mar 13 2025 09:07:30 GMT-0500 (Central Daylight Time),326688.3000000003,A,whe,O,e,156,1,1782.2000000001863,324906.1000000001,7105,WL,C,2.0
1,8.38100004196167,learn,51618.99995803833,Thu Mar 13 2025 09:07:30 GMT-0500 (Central Daylight Time),326871.5,A,whea,O,a,166,1,1965.3999999999069,324906.1000000001,7105,WL,C,2.0
1,8.614000082015991,learn,51385.99991798401,Thu Mar 13 2025 09:07:30 GMT-0500 (Central Daylight Time),327105.1000000001,A,wheat,O,t,214,1,2199.0,324906.1000000001,7105,WL,C,2.0
1,8.996999979019165,learn,51003.000020980835,Thu Mar 13 2025 09:07:30 GMT-0500 (Central Daylight Time),327487.8000000003,A,wheatenter,O,enter,365,1,2581.7000000001863,324906.1000000001,7105,WL,C,2.0
1,10.19700002670288,learn,49802.99997329712,Thu Mar 13 2025 09:07:30 GMT-0500 (Central Daylight Time),328687.6000000001,A,q,O,q,1190,1,1199.3999999999069,327488.2000000002,7105,WL,C,3.0
1,10.412999868392944,learn,49587.000131607056,Thu Mar 13 2025 09:07:30 GMT-0500 (Central Daylight Time),328904.2000000002,A,qu,O,u,206,1,1416.0,327488.2000000002,7105,WL,C,3.0
1,10.680000066757202,learn,49319.9999332428,Thu Mar 13 2025 09:07:30 GMT-0500 (Central Daylight Time),329170.8999999999,A,que,O,e,246,1,1682.6999999997206,327488.2000000002,7105,WL,C,3.0
1,10.845999956130981,learn,49154.00004386902,Thu Mar 13 2025 09:07:30 GMT-0500 (Central Daylight Time),329337.5,A,quee,O,e,147,1,1849.2999999998137,327488.2000000002,7105,WL,C,3.0
1,11.062999963760376,learn,48937.000036239624,Thu Mar 13 2025 09:07:30 GMT-0500 (Central Daylight Time),329554.1000000001,A,queen,O,n,196,1,2065.899999999907,327488.2000000002,7105,WL,C,3.0
1,11.329999923706055,learn,48670.000076293945,Thu Mar 13 2025 09:07:30 GMT-0500 (Central Daylight Time),329820.7000000002,A,queenenter,O,enter,260,1,2332.5,327488.2000000002,7105,WL,C,3.0
1,12.312999963760376,learn,47687.000036239624,Thu Mar 13 2025 09:07:30 GMT-0500 (Central Daylight Time),330803.7000000002,A,t,O,t,975,1,982.7000000001863,329821.0,7105,WL,C,4.0
1,12.496000051498413,learn,47503.99994850159,Thu Mar 13 2025 09:07:30 GMT-0500 (Central Daylight Time),330987.1000000001,A,to,O,o,171,1,1166.1000000000931,329821.0,7105,WL,C,4.0
1,12.730000019073486,learn,47269.999980926514,Thu Mar 13 2025 09:07:30 GMT-0500 (Central Daylight Time),331221.3999999999,A,tow,O,w,219,1,1400.3999999999069,329821.0,7105,WL,C,4.0
1,12.828999996185303,learn,47171.0000038147,Thu Mar 13 2025 09:07:30 GMT-0500 (Central Daylight Time),331320.3000000003,A,towe,O,e,80,1,1499.3000000002794,329821.0,7105,WL,C,4.0
1,12.895999908447266,learn,47104.000091552734,Thu Mar 13 2025 09:07:30 GMT-0500 (Central Daylight Time),331386.8999999999,A,tower,O,r,54,1,1565.8999999999069,329821.0,7105,WL,C,4.0
1,13.395999908447266,learn,46604.000091552734,Thu Mar 13 2025 09:07:30 GMT-0500 (Central Daylight Time),331886.6000000001,A,towerenter,O,enter,491,1,2065.600000000093,329821.0,7105,WL,C,4.0
1,13.779000043869019,learn,46220.99995613098,Thu Mar 13 2025 09:07:30 GMT-0500 (Central Daylight Time),332270.0,A,c,O,c,374,1,383.0,331887.0,7105,WL,C,5.0
1,13.944999933242798,learn,46055.0000667572,Thu Mar 13 2025 09:07:30 GMT-0500 (Central Daylight Time),332436.3000000003,A,co,O,o,160,1,549.3000000002794,331887.0,7105,WL,C,5.0
1,14.045000076293945,learn,45954.999923706055,Thu Mar 13 2025 09:07:30 GMT-0500 (Central Daylight Time),332536.3000000003,A,cor,O,r,90,1,649.3000000002794,331887.0,7105,WL,C,5.0
1,14.244999885559082,learn,45755.00011444092,Thu Mar 13 2025 09:07:30 GMT-0500 (Central Daylight Time),332736.3000000003,A,corn,O,n,182,1,849.3000000002794,331887.0,7105,WL,C,5.0
1,15.111999988555908,learn,44888.00001144409,Thu Mar 13 2025 09:07:30 GMT-0500 (Central Daylight Time),333602.8999999999,A,cornenter,O,enter,846,1,1715.8999999999069,331887.0,7105,WL,C,5.0
1,15.661999940872192,learn,44338.00005912781,Thu Mar 13 2025 09:07:30 GMT-0500 (Central Daylight Time),334152.6000000001,A,n,O,n,531,1,549.2999999998137,333603.3000000003,7105,WL,C,6.0
1,15.727999925613403,learn,44272.0000743866,Thu Mar 13 2025 09:07:30 GMT-0500 (Central Daylight Time),334219.3999999999,A,na,O,a,62,1,616.0999999996275,333603.3000000003,7105,WL,C,6.0
1,16.01200008392334,learn,43987.99991607666,Thu Mar 13 2025 09:07:30 GMT-0500 (Central Daylight Time),334502.6000000001,A,nai,O,i,267,1,899.2999999998137,333603.3000000003,7105,WL,C,6.0
1,16.16100001335144,learn,43838.99998664856,Thu Mar 13 2025 09:07:30 GMT-0500 (Central Daylight Time),334652.5,A,nail,O,l,136,1,1049.1999999997206,333603.3000000003,7105,WL,C,6.0
1,16.527999877929688,learn,43472.00012207031,Thu Mar 13 2025 09:07:30 GMT-0500 (Central Daylight Time),335019.2000000002,A,nailenter,O,enter,346,1,1415.8999999999069,333603.3000000003,7105,WL,C,6.0
1,17.0939998626709,learn,42906.0001373291,Thu Mar 13 2025 09:07:30 GMT-0500 (Central Daylight Time),335585.5,A,b,O,b,555,1,565.8999999999069,335019.6000000001,7105,WL,C,7.0
1,17.26099991798401,learn,42739.00008201599,Thu Mar 13 2025 09:07:30 GMT-0500 (Central Daylight Time),335752.2000000002,A,bo,O,o,149,1,732.6000000000931,335019.6000000001,7105,WL,C,7.0
1,17.545000076293945,learn,42454.999923706055,Thu Mar 13 2025 09:07:30 GMT-0500 (Central Daylight Time),336035.6000000001,A,boy,O,y,278,1,1016.0,335019.6000000001,7105,WL,C,7.0
1,17.89400005340576,learn,42105.99994659424,Thu Mar 13 2025 09:07:30 GMT-0500 (Central Daylight Time),336385.2000000002,A,boyenter,O,enter,331,1,1365.6000000000931,335019.6000000001,7105,WL,C,7.0
1,18.632999897003174,learn,41367.000102996826,Thu Mar 13 2025 09:07:30 GMT-0500 (Central Daylight Time),337124.3000000003,A,d,O,d,734,1,738.8000000002794,336385.5,7105,WL,C,8.0
1,18.927000045776367,learn,41072.99995422363,Thu Mar 13 2025 09:07:30 GMT-0500 (Central Daylight Time),337418.1000000001,A,do,O,o,282,1,1032.6000000000931,336385.5,7105,WL,C,8.0
1,19.043999910354614,learn,40956.000089645386,Thu Mar 13 2025 09:07:30 GMT-0500 (Central Daylight Time),337534.8000000003,A,doc,O,c,100,1,1149.3000000002794,336385.5,7105,WL,C,8.0
1,19.26099991798401,learn,40739.00008201599,Thu Mar 13 2025 09:07:30 GMT-0500 (Central Daylight Time),337751.6000000001,A,doct,O,t,199,1,1366.1000000000931,336385.5,7105,WL,C,8.0
1,19.3439998626709,learn,40656.0001373291,Thu Mar 13 2025 09:07:30 GMT-0500 (Central Daylight Time),337834.8999999999,A,docto,O,o,63,1,1449.3999999999069,336385.5,7105,WL,C,8.0
1,19.477999925613403,learn,40522.0000743866,Thu Mar 13 2025 09:07:30 GMT-0500 (Central Daylight Time),337969.3000000003,A,doctor,O,r,122,1,1583.8000000002794,336385.5,7105,WL,C,8.0
1,19.944000005722046,learn,40055.999994277954,Thu Mar 13 2025 09:07:30 GMT-0500 (Central Daylight Time),338434.7000000002,A,doctorenter,O,enter,453,1,2049.2000000001863,336385.5,7105,WL,C,8.0
1,21.55999994277954,learn,38440.00005722046,Thu Mar 13 2025 09:07:30 GMT-0500 (Central Daylight Time),340050.7000000002,A,s,O,s,1596,1,1615.6000000000931,338435.1000000001,7105,WL,C,9.0
1,21.743000030517578,learn,38256.99996948242,Thu Mar 13 2025 09:07:30 GMT-0500 (Central Daylight Time),340234.0,A,sh,O,h,164,1,1798.8999999999069,338435.1000000001,7105,WL,C,9.0
1,21.825999975204468,learn,38174.00002479553,Thu Mar 13 2025 09:07:30 GMT-0500 (Central Daylight Time),340317.3999999999,A,sho,O,o,76,1,1882.2999999998137,338435.1000000001,7105,WL,C,9.0
1,22.125999927520752,learn,37874.00007247925,Thu Mar 13 2025 09:07:30 GMT-0500 (Central Daylight Time),340617.3000000003,A,shor,O,r,281,1,2182.2000000001863,338435.1000000001,7105,WL,C,9.0
1,22.175999879837036,learn,37824.000120162964,Thu Mar 13 2025 09:07:30 GMT-0500 (Central Daylight Time),340667.3999999999,A,shore,O,e,37,1,2232.2999999998137,338435.1000000001,7105,WL,C,9.0
1,22.592999935150146,learn,37407.00006484985,Thu Mar 13 2025 09:07:30 GMT-0500 (Central Daylight Time),341083.8999999999,A,shoreenter,O,enter,395,1,2648.7999999998137,338435.1000000001,7105,WL,C,9.0
1,26.108999967575073,learn,33891.00003242493,Thu Mar 13 2025 09:07:30 GMT-0500 (Central Daylight Time),344599.6000000001,A,f,O,f,3506,1,3515.2000000001863,341084.3999999999,7105,WL,C,10.0
1,26.29200005531311,learn,33707.99994468689,Thu Mar 13 2025 09:07:30 GMT-0500 (Central Daylight Time),344782.6000000001,A,fl,O,l,167,1,3698.2000000001863,341084.3999999999,7105,WL,C,10.0
1,26.45799994468689,learn,33542.00005531311,Thu Mar 13 2025 09:07:30 GMT-0500 (Central Daylight Time),344949.3000000003,A,fla,O,a,160,1,3864.9000000003725,341084.3999999999,7105,WL,C,10.0
1,27.10800004005432,learn,32891.99995994568,Thu Mar 13 2025 09:07:30 GMT-0500 (Central Daylight Time),345599.1000000001,A,flag,O,g,641,1,4514.700000000186,341084.3999999999,7105,WL,C,10.0
1,27.44099998474121,learn,32559.00001525879,Thu Mar 13 2025 09:07:30 GMT-0500 (Central Daylight Time),345932.3999999999,A,flagenter,O,enter,319,1,4848.0,341084.3999999999,7105,WL,C,10.0
1,28.10800004005432,learn,31891.99995994568,Thu Mar 13 2025 09:07:30 GMT-0500 (Central Daylight Time),346598.8000000003,A,c,O,c,650,1,666.1000000000931,345932.7000000002,7105,WL,C,11.0
1,28.323999881744385,learn,31676.000118255615,Thu Mar 13 2025 09:07:30 GMT-0500 (Central Daylight Time),346815.2000000002,A,ca,O,a,208,1,882.5,345932.7000000002,7105,WL,C,11.0
1,28.54099988937378,learn,31459.00011062622,Thu Mar 13 2025 09:07:30 GMT-0500 (Central Daylight Time),347032.0,A,cam,O,m,199,1,1099.2999999998137,345932.7000000002,7105,WL,C,11.0
1,28.740999937057495,learn,31259.000062942505,Thu Mar 13 2025 09:07:30 GMT-0500 (Central Daylight Time),347232.0,A,camp,O,p,183,1,1299.2999999998137,345932.7000000002,7105,WL,C,11.0
1,29.506999969482422,learn,30493.000030517578,Thu Mar 13 2025 09:07:30 GMT-0500 (Central Daylight Time),347998.3000000003,A,campenter,O,enter,758,1,2065.600000000093,345932.7000000002,7105,WL,C,11.0
1,32.28999996185303,learn,27710.000038146973,Thu Mar 13 2025 09:07:30 GMT-0500 (Central Daylight Time),350780.8000000003,A,h,O,h,2776,1,2782.0,347998.8000000003,7105,WL,C,12.0
1,32.456000089645386,learn,27543.999910354614,Thu Mar 13 2025 09:07:30 GMT-0500 (Central Daylight Time),350947.3000000003,A,ho,O,o,145,1,2948.5,347998.8000000003,7105,WL,C,12.0
1,32.62299990653992,learn,27377.000093460083,Thu Mar 13 2025 09:07:30 GMT-0500 (Central Daylight Time),351114.2000000002,A,hom,O,m,147,1,3115.399999999907,347998.8000000003,7105,WL,C,12.0
1,32.723000049591064,learn,27276.999950408936,Thu Mar 13 2025 09:07:30 GMT-0500 (Central Daylight Time),351213.8999999999,A,home,O,e,84,1,3215.0999999996275,347998.8000000003,7105,WL,C,12.0
1,33.055999994277954,learn,26944.000005722046,Thu Mar 13 2025 09:07:30 GMT-0500 (Central Daylight Time),351547.3999999999,A,homeenter,O,enter,328,1,3548.5999999996275,347998.8000000003,7105,WL,C,12.0
1,44.503000020980835,learn,15496.999979019165,Thu Mar 13 2025 09:07:30 GMT-0500 (Central Daylight Time),362993.7000000002,A,c,O,c,11427,1,11446.0,351547.7000000002,7105,WL,C,13.0
1,44.68599987030029,learn,15314.000129699707,Thu Mar 13 2025 09:07:30 GMT-0500 (Central Daylight Time),363177.0,A,co,O,o,173,1,11629.299999999814,351547.7000000002,7105,WL,C,13.0
1,44.76900005340576,learn,15230.999946594238,Thu Mar 13 2025 09:07:30 GMT-0500 (Central Daylight Time),363260.0,A,cor,O,r,77,1,11712.299999999814,351547.7000000002,7105,WL,C,13.0
1,44.86899995803833,learn,15131.00004196167,Thu Mar 13 2025 09:07:30 GMT-0500 (Central Daylight Time),363360.3999999999,A,corn,O,n,90,1,11812.69999999972,351547.7000000002,7105,WL,C,13.0
1,45.26900005340576,learn,14730.999946594238,Thu Mar 13 2025 09:07:30 GMT-0500 (Central Daylight Time),363759.8999999999,A,cornenter,O,enter,390,1,12212.19999999972,351547.7000000002,7105,WL,C,13.0
1,45.901999950408936,learn,14098.000049591064,Thu Mar 13 2025 09:07:30 GMT-0500 (Central Daylight Time),364393.0,A,n,O,n,622,1,632.6999999997206,363760.3000000003,7105,WL,C,14.0
1,45.986000061035156,learn,14013.999938964844,Thu Mar 13 2025 09:07:30 GMT-0500 (Central Daylight Time),364476.6000000001,A,na,O,a,69,1,716.2999999998137,363760.3000000003,7105,WL,C,14.0
1,46.08500003814697,learn,13914.999961853027,Thu Mar 13 2025 09:07:30 GMT-0500 (Central Daylight Time),364576.3999999999,A,nai,O,i,82,1,816.0999999996275,363760.3000000003,7105,WL,C,14.0
1,46.28699994087219,learn,13713.000059127808,Thu Mar 13 2025 09:07:30 GMT-0500 (Central Daylight Time),364777.6000000001,A,nail,O,l,190,1,1017.2999999998137,363760.3000000003,7105,WL,C,14.0
1,46.501999855041504,learn,13498.000144958496,Thu Mar 13 2025 09:07:30 GMT-0500 (Central Daylight Time),364993.1000000001,A,nailenter,O,enter,197,1,1232.7999999998137,363760.3000000003,7105,WL,C,14.0
1,60.013999938964844,learn,-13.99993896484375,Thu Mar 13 2025 09:07:30 GMT-0500 (Central Daylight Time),378505.5,A,None,O,None,13507,1,13512.100000000093,364993.3999999999,7105,WL,C,15.0
2,1.1329998970031738,learn,58867.000102996826,Thu Mar 13 2025 09:07:30 GMT-0500 (Central Daylight Time),448017.1000000001,A,c,O,c,1115,1,1132.9000000003725,446884.1999999997,7105,WL,C,1.0
2,1.3829998970031738,learn,58617.000102996826,Thu Mar 13 2025 09:07:30 GMT-0500 (Central Daylight Time),448266.6999999997,A,ca,O,a,236,1,1382.5,446884.1999999997,7105,WL,C,1.0
2,1.7990000247955322,learn,58200.99997520447,Thu Mar 13 2025 09:07:30 GMT-0500 (Central Daylight Time),448683.1999999997,A,cat,O,t,403,1,1799.0,446884.1999999997,7105,WL,C,1.0
2,2.0320000648498535,learn,57967.99993515015,Thu Mar 13 2025 09:07:30 GMT-0500 (Central Daylight Time),448916.3999999999,A,catl,O,l,227,1,2032.2000000001863,446884.1999999997,7105,WL,C,1.0
2,2.365999937057495,learn,57634.000062942505,Thu Mar 13 2025 09:07:30 GMT-0500 (Central Daylight Time),449249.6000000001,A,catle,O,e,322,1,2365.4000000003725,446884.1999999997,7105,WL,C,1.0
2,3.1489999294281006,learn,56851.0000705719,Thu Mar 13 2025 09:07:30 GMT-0500 (Central Daylight Time),450033.3000000003,A,catl,O,backspace,773,1,3149.100000000559,446884.1999999997,7105,WL,C,1.0
2,3.3989999294281006,learn,56601.0000705719,Thu Mar 13 2025 09:07:30 GMT-0500 (Central Daylight Time),450283.1999999997,A,cat,O,backspace,229,1,3399.0,446884.1999999997,7105,WL,C,1.0
2,4.2820000648498535,learn,55717.99993515015,Thu Mar 13 2025 09:07:30 GMT-0500 (Central Daylight Time),451166.1000000001,A,catt,O,t,867,1,4281.9000000003725,446884.1999999997,7105,WL,C,1.0
2,4.598999977111816,learn,55401.00002288818,Thu Mar 13 2025 09:07:30 GMT-0500 (Central Daylight Time),451482.6999999997,A,cattl,O,l,296,1,4598.5,446884.1999999997,7105,WL,C,1.0
2,4.799000024795532,learn,55200.99997520447,Thu Mar 13 2025 09:07:30 GMT-0500 (Central Daylight Time),451682.50000000047,A,cattle,O,e,188,1,4798.300000000745,446884.1999999997,7105,WL,C,1.0
2,5.332000017166138,learn,54667.99998283386,Thu Mar 13 2025 09:07:30 GMT-0500 (Central Daylight Time),452216.00000000047,A,cattleenter,O,enter,516,1,5331.800000000745,446884.1999999997,7105,WL,C,1.0
2,5.765000104904175,learn,54234.999895095825,Thu Mar 13 2025 09:07:30 GMT-0500 (Central Daylight Time),452648.8999999999,A,s,O,s,419,1,432.5,452216.3999999999,7105,WL,C,2.0
2,6.015000104904175,learn,53984.999895095825,Thu Mar 13 2025 09:07:30 GMT-0500 (Central Daylight Time),452898.6999999997,A,sh,O,h,237,1,682.2999999998137,452216.3999999999,7105,WL,C,2.0
2,6.0980000495910645,learn,53901.999950408936,Thu Mar 13 2025 09:07:30 GMT-0500 (Central Daylight Time),452982.1000000001,A,sho,O,o,76,1,765.7000000001863,452216.3999999999,7105,WL,C,2.0
2,6.315000057220459,learn,53684.99994277954,Thu Mar 13 2025 09:07:30 GMT-0500 (Central Daylight Time),453198.8000000003,A,shor,O,r,209,1,982.4000000003725,452216.3999999999,7105,WL,C,2.0
2,6.3480000495910645,learn,53651.999950408936,Thu Mar 13 2025 09:07:30 GMT-0500 (Central Daylight Time),453231.8000000003,A,shore,O,e,24,1,1015.4000000003725,452216.3999999999,7105,WL,C,2.0
2,7.064000129699707,learn,52935.99987030029,Thu Mar 13 2025 09:07:30 GMT-0500 (Central Daylight Time),453948.3999999999,A,shoreenter,O,enter,711,1,1732.0,452216.3999999999,7105,WL,C,2.0
2,8.081000089645386,learn,51918.999910354614,Thu Mar 13 2025 09:07:30 GMT-0500 (Central Daylight Time),454964.6999999997,A,n,O,n,1010,1,1016.0999999996275,453948.6000000001,7105,WL,C,3.0
2,8.180999994277954,learn,51819.000005722046,Thu Mar 13 2025 09:07:30 GMT-0500 (Central Daylight Time),455064.8999999999,A,na,O,a,90,1,1116.2999999998137,453948.6000000001,7105,WL,C,3.0
2,8.414000034332275,learn,51585.999965667725,Thu Mar 13 2025 09:07:30 GMT-0500 (Central Daylight Time),455298.00000000047,A,nai,O,i,214,1,1349.4000000003725,453948.6000000001,7105,WL,C,3.0
2,8.530999898910522,learn,51469.00010108948,Thu Mar 13 2025 09:07:30 GMT-0500 (Central Daylight Time),455414.8000000003,A,nail,O,l,100,1,1466.2000000001863,453948.6000000001,7105,WL,C,3.0
2,8.930000066757202,learn,51069.9999332428,Thu Mar 13 2025 09:07:30 GMT-0500 (Central Daylight Time),455814.50000000047,A,nailenter,O,enter,392,1,1865.9000000003725,453948.6000000001,7105,WL,C,3.0
2,9.52999997138977,learn,50470.00002861023,Thu Mar 13 2025 09:07:30 GMT-0500 (Central Daylight Time),456414.3999999999,A,b,O,b,583,1,599.5999999996275,455814.8000000003,7105,WL,C,4.0
2,9.630000114440918,learn,50369.99988555908,Thu Mar 13 2025 09:07:30 GMT-0500 (Central Daylight Time),456514.1000000001,A,bo,O,o,80,1,699.2999999998137,455814.8000000003,7105,WL,C,4.0
2,9.77999997138977,learn,50220.00002861023,Thu Mar 13 2025 09:07:30 GMT-0500 (Central Daylight Time),456664.1999999997,A,bod,O,d,132,1,849.3999999994412,455814.8000000003,7105,WL,C,4.0
2,9.880000114440918,learn,50119.99988555908,Thu Mar 13 2025 09:07:30 GMT-0500 (Central Daylight Time),456764.1000000001,A,body,O,y,94,1,949.2999999998137,455814.8000000003,7105,WL,C,4.0
2,10.29699993133545,learn,49703.00006866455,Thu Mar 13 2025 09:07:30 GMT-0500 (Central Daylight Time),457180.8000000003,A,bodyenter,O,enter,402,1,1366.0,455814.8000000003,7105,WL,C,4.0
2,12.180000066757202,learn,47819.9999332428,Thu Mar 13 2025 09:07:30 GMT-0500 (Central Daylight Time),459064.1000000001,A,c,O,c,1866,1,1883.0,457181.1000000001,7105,WL,C,5.0
2,12.380000114440918,learn,47619.99988555908,Thu Mar 13 2025 09:07:30 GMT-0500 (Central Daylight Time),459263.6999999997,A,ca,O,a,182,1,2082.5999999996275,457181.1000000001,7105,WL,C,5.0
2,12.529000043869019,learn,47470.99995613098,Thu Mar 13 2025 09:07:30 GMT-0500 (Central Daylight Time),459413.3999999999,A,cam,O,m,143,1,2232.2999999998137,457181.1000000001,7105,WL,C,5.0
2,12.678999900817871,learn,47321.00009918213,Thu Mar 13 2025 09:07:30 GMT-0500 (Central Daylight Time),459563.1999999997,A,camp,O,p,145,1,2382.0999999996275,457181.1000000001,7105,WL,C,5.0
2,13.062000036239624,learn,46937.999963760376,Thu Mar 13 2025 09:07:30 GMT-0500 (Central Daylight Time),459946.50000000047,A,campenter,O,enter,371,1,2765.4000000003725,457181.1000000001,7105,WL,C,5.0
2,13.529000043869019,learn,46470.99995613098,Thu Mar 13 2025 09:07:30 GMT-0500 (Central Daylight Time),460413.1999999997,A,l,O,l,452,1,466.3999999994412,459946.8000000003,7105,WL,C,6.0
2,13.678999900817871,learn,46321.00009918213,Thu Mar 13 2025 09:07:30 GMT-0500 (Central Daylight Time),460563.1999999997,A,le,O,e,145,1,616.3999999994412,459946.8000000003,7105,WL,C,6.0
2,13.961999893188477,learn,46038.00010681152,Thu Mar 13 2025 09:07:30 GMT-0500 (Central Daylight Time),460846.1999999997,A,let,O,t,267,1,899.3999999994412,459946.8000000003,7105,WL,C,6.0
2,14.09500002861023,learn,45904.99997138977,Thu Mar 13 2025 09:07:30 GMT-0500 (Central Daylight Time),460979.50000000047,A,lett,O,t,128,1,1032.7000000001863,459946.8000000003,7105,WL,C,6.0
2,14.27999997138977,learn,45720.00002861023,Thu Mar 13 2025 09:07:30 GMT-0500 (Central Daylight Time),461164.00000000047,A,lette,O,e,163,1,1217.2000000001863,459946.8000000003,7105,WL,C,6.0
2,14.34500002861023,learn,45654.99997138977,Thu Mar 13 2025 09:07:30 GMT-0500 (Central Daylight Time),461229.50000000047,A,letter,O,r,50,1,1282.7000000001863,459946.8000000003,7105,WL,C,6.0
2,14.611999988555908,learn,45388.00001144409,Thu Mar 13 2025 09:07:30 GMT-0500 (Central Daylight Time),461496.00000000047,A,letterenter,O,enter,257,1,1549.2000000001863,459946.8000000003,7105,WL,C,6.0
2,15.312000036239624,learn,44687.999963760376,Thu Mar 13 2025 09:07:30 GMT-0500 (Central Daylight Time),462195.6999999997,A,g,O,g,695,1,699.2999999998137,461496.3999999999,7105,WL,C,7.0
2,15.779000043869019,learn,44220.99995613098,Thu Mar 13 2025 09:07:30 GMT-0500 (Central Daylight Time),462662.6000000001,A,,O,backspace,451,1,1166.2000000001863,461496.3999999999,7105,WL,C,7.0
2,16.128999948501587,learn,43871.00005149841,Thu Mar 13 2025 09:07:30 GMT-0500 (Central Daylight Time),463013.3000000003,A,f,O,f,344,1,1516.9000000003725,461496.3999999999,7105,WL,C,7.0
2,16.811000108718872,learn,43188.99989128113,Thu Mar 13 2025 09:07:30 GMT-0500 (Central Daylight Time),463695.1000000001,A,fl,O,l,664,1,2198.7000000001863,461496.3999999999,7105,WL,C,7.0
2,17.361000061035156,learn,42638.999938964844,Thu Mar 13 2025 09:07:30 GMT-0500 (Central Daylight Time),464244.8999999999,A,fla,O,a,543,1,2748.5,461496.3999999999,7105,WL,C,7.0
2,17.844000101089478,learn,42155.99989891052,Thu Mar 13 2025 09:07:30 GMT-0500 (Central Daylight Time),464728.1000000001,A,flag,O,g,465,1,3231.7000000001863,461496.3999999999,7105,WL,C,7.0
2,18.22699999809265,learn,41773.00000190735,Thu Mar 13 2025 09:07:30 GMT-0500 (Central Daylight Time),465111.1999999997,A,flagenter,O,enter,366,1,3614.7999999998137,461496.3999999999,7105,WL,C,7.0
2,18.72699999809265,learn,41273.00000190735,Thu Mar 13 2025 09:07:30 GMT-0500 (Central Daylight Time),465611.3000000003,A,d,O,d,487,1,499.90000000037253,465111.3999999999,7105,WL,C,8.0
2,19.043999910354614,learn,40956.000089645386,Thu Mar 13 2025 09:07:30 GMT-0500 (Central Daylight Time),465927.8999999999,A,do,O,o,307,1,816.5,465111.3999999999,7105,WL,C,8.0
2,19.14400005340576,learn,40855.99994659424,Thu Mar 13 2025 09:07:30 GMT-0500 (Central Daylight Time),466027.8000000003,A,doc,O,c,95,1,916.4000000003725,465111.3999999999,7105,WL,C,8.0
2,19.377000093460083,learn,40622.99990653992,Thu Mar 13 2025 09:07:30 GMT-0500 (Central Daylight Time),466261.3000000003,A,doct,O,t,227,1,1149.9000000003725,465111.3999999999,7105,WL,C,8.0
2,19.460000038146973,learn,40539.99996185303,Thu Mar 13 2025 09:07:30 GMT-0500 (Central Daylight Time),466344.3999999999,A,docto,O,o,73,1,1233.0,465111.3999999999,7105,WL,C,8.0
2,19.64400005340576,learn,40355.99994659424,Thu Mar 13 2025 09:07:30 GMT-0500 (Central Daylight Time),466527.8000000003,A,doctor,O,r,174,1,1416.4000000003725,465111.3999999999,7105,WL,C,8.0
2,20.094000101089478,learn,39905.99989891052,Thu Mar 13 2025 09:07:30 GMT-0500 (Central Daylight Time),466977.6000000001,A,doctorenter,O,enter,439,1,1866.2000000001863,465111.3999999999,7105,WL,C,8.0
2,20.627000093460083,learn,39372.99990653992,Thu Mar 13 2025 09:07:30 GMT-0500 (Central Daylight Time),467510.8000000003,A,b,O,b,516,1,532.7999999998137,466978.00000000047,7105,WL,C,9.0
2,20.842999935150146,learn,39157.00006484985,Thu Mar 13 2025 09:07:30 GMT-0500 (Central Daylight Time),467727.3999999999,A,bo,O,o,207,1,749.3999999994412,466978.00000000047,7105,WL,C,9.0
2,21.16000008583069,learn,38839.99991416931,Thu Mar 13 2025 09:07:30 GMT-0500 (Central Daylight Time),468043.8000000003,A,boy,O,y,311,1,1065.7999999998137,466978.00000000047,7105,WL,C,9.0
2,21.625999927520752,learn,38374.00007247925,Thu Mar 13 2025 09:07:30 GMT-0500 (Central Daylight Time),468510.6000000001,A,boyenter,O,enter,451,1,1532.5999999996275,466978.00000000047,7105,WL,C,9.0
2,22.259999990463257,learn,37740.00000953674,Thu Mar 13 2025 09:07:30 GMT-0500 (Central Daylight Time),469143.8000000003,A,h,O,h,616,1,632.9000000003725,468510.8999999999,7105,WL,C,10.0
2,22.39300012588501,learn,37606.99987411499,Thu Mar 13 2025 09:07:30 GMT-0500 (Central Daylight Time),469277.1999999997,A,ho,O,o,126,1,766.2999999998137,468510.8999999999,7105,WL,C,10.0
2,22.608999967575073,learn,37391.00003242493,Thu Mar 13 2025 09:07:30 GMT-0500 (Central Daylight Time),469493.50000000047,A,hom,O,m,201,1,982.6000000005588,468510.8999999999,7105,WL,C,10.0
2,22.759999990463257,learn,37240.00000953674,Thu Mar 13 2025 09:07:30 GMT-0500 (Central Daylight Time),469643.6000000001,A,home,O,e,129,1,1132.7000000001863,468510.8999999999,7105,WL,C,10.0
2,22.97699999809265,learn,37023.00000190735,Thu Mar 13 2025 09:07:30 GMT-0500 (Central Daylight Time),469861.00000000047,A,homeenter,O,enter,211,1,1350.1000000005588,468510.8999999999,7105,WL,C,10.0
2,23.526000022888184,learn,36473.99997711182,Thu Mar 13 2025 09:07:30 GMT-0500 (Central Daylight Time),470410.00000000047,A,s,O,s,529,1,548.7000000001863,469861.3000000003,7105,WL,C,11.0
2,23.64199995994568,learn,36358.00004005432,Thu Mar 13 2025 09:07:30 GMT-0500 (Central Daylight Time),470526.6000000001,A,su,O,u,101,1,665.2999999998137,469861.3000000003,7105,WL,C,11.0
2,23.95900011062622,learn,36040.99988937378,Thu Mar 13 2025 09:07:30 GMT-0500 (Central Daylight Time),470843.3999999999,A,sug,O,g,296,1,982.0999999996275,469861.3000000003,7105,WL,C,11.0
2,24.176000118255615,learn,35823.999881744385,Thu Mar 13 2025 09:07:30 GMT-0500 (Central Daylight Time),471059.6999999997,A,suga,O,a,211,1,1198.3999999994412,469861.3000000003,7105,WL,C,11.0
2,24.375999927520752,learn,35624.00007247925,Thu Mar 13 2025 09:07:30 GMT-0500 (Central Daylight Time),471259.6999999997,A,sugar,O,r,180,1,1398.3999999994412,469861.3000000003,7105,WL,C,11.0
2,25.375,learn,34625.0,Thu Mar 13 2025 09:07:30 GMT-0500 (Central Daylight Time),472259.3000000003,A,sugarenter,O,enter,995,1,2398.0,469861.3000000003,7105,WL,C,11.0
2,27.641000032424927,learn,32358.999967575073,Thu Mar 13 2025 09:07:30 GMT-0500 (Central Daylight Time),474525.3000000003,A,t,O,t,2259,1,2265.600000000559,472259.6999999997,7105,WL,C,12.0
2,27.79100012779236,learn,32208.99987220764,Thu Mar 13 2025 09:07:30 GMT-0500 (Central Daylight Time),474675.3000000003,A,to,O,o,137,1,2415.600000000559,472259.6999999997,7105,WL,C,12.0
2,27.907999992370605,learn,32092.000007629395,Thu Mar 13 2025 09:07:30 GMT-0500 (Central Daylight Time),474792.00000000047,A,tow,O,w,107,1,2532.300000000745,472259.6999999997,7105,WL,C,12.0
2,28.007999897003174,learn,31992.000102996826,Thu Mar 13 2025 09:07:30 GMT-0500 (Central Daylight Time),474891.8999999999,A,towr,O,r,86,1,2632.2000000001863,472259.6999999997,7105,WL,C,12.0
2,28.02500009536743,learn,31974.99990463257,Thu Mar 13 2025 09:07:30 GMT-0500 (Central Daylight Time),474908.6000000001,A,towre,O,e,2,1,2648.9000000003725,472259.6999999997,7105,WL,C,12.0
2,28.7739999294281,learn,31226.0000705719,Thu Mar 13 2025 09:07:30 GMT-0500 (Central Daylight Time),475658.3000000003,A,towr,O,backspace,738,1,3398.600000000559,472259.6999999997,7105,WL,C,12.0
2,28.95900011062622,learn,31040.99988937378,Thu Mar 13 2025 09:07:30 GMT-0500 (Central Daylight Time),475842.6000000001,A,tow,O,backspace,164,1,3582.9000000003725,472259.6999999997,7105,WL,C,12.0
2,29.473999977111816,learn,30526.000022888184,Thu Mar 13 2025 09:07:30 GMT-0500 (Central Daylight Time),476358.1000000001,A,towe,O,e,507,1,4098.4000000003725,472259.6999999997,7105,WL,C,12.0
2,29.558000087738037,learn,30441.999912261963,Thu Mar 13 2025 09:07:30 GMT-0500 (Central Daylight Time),476441.50000000047,A,tower,O,r,64,1,4181.800000000745,472259.6999999997,7105,WL,C,12.0
2,29.94000005722046,learn,30059.99994277954,Thu Mar 13 2025 09:07:30 GMT-0500 (Central Daylight Time),476824.50000000047,A,towerenter,O,enter,364,1,4564.800000000745,472259.6999999997,7105,WL,C,12.0
2,30.574000120162964,learn,29425.999879837036,Thu Mar 13 2025 09:07:30 GMT-0500 (Central Daylight Time),477457.8000000003,A,w,O,w,614,1,633.0,476824.8000000003,7105,WL,C,13.0
2,30.657000064849854,learn,29342.999935150146,Thu Mar 13 2025 09:07:30 GMT-0500 (Central Daylight Time),477541.00000000047,A,wh,O,h,77,1,716.2000000001863,476824.8000000003,7105,WL,C,13.0
2,30.94000005722046,learn,29059.99994277954,Thu Mar 13 2025 09:07:30 GMT-0500 (Central Daylight Time),477824.3999999999,A,whe,O,e,273,1,999.5999999996275,476824.8000000003,7105,WL,C,13.0
2,31.286999940872192,learn,28713.000059127808,Thu Mar 13 2025 09:07:30 GMT-0500 (Central Daylight Time),478171.8000000003,A,whea,O,a,342,1,1347.0,476824.8000000003,7105,WL,C,13.0
2,31.43400001525879,learn,28565.99998474121,Thu Mar 13 2025 09:07:30 GMT-0500 (Central Daylight Time),478318.8999999999,A,wheat,O,t,67,1,1494.0999999996275,476824.8000000003,7105,WL,C,13.0
2,31.57200002670288,learn,28427.99997329712,Thu Mar 13 2025 09:07:30 GMT-0500 (Central Daylight Time),478457.1999999997,A,wheatenter,O,enter,116,1,1632.3999999994412,476824.8000000003,7105,WL,C,13.0
2,34.32100009918213,learn,25678.99990081787,Thu Mar 13 2025 09:07:30 GMT-0500 (Central Daylight Time),481206.50000000047,A,q,O,q,2742,1,2749.100000000559,478457.3999999999,7105,WL,C,14.0
2,34.48799991607666,learn,25512.00008392334,Thu Mar 13 2025 09:07:30 GMT-0500 (Central Daylight Time),481373.00000000047,A,qu,O,u,152,1,2915.600000000559,478457.3999999999,7105,WL,C,14.0
2,34.770999908447266,learn,25229.000091552734,Thu Mar 13 2025 09:07:30 GMT-0500 (Central Daylight Time),481656.1999999997,A,que,O,e,265,1,3198.7999999998137,478457.3999999999,7105,WL,C,14.0
2,35.03800010681152,learn,24961.999893188477,Thu Mar 13 2025 09:07:30 GMT-0500 (Central Daylight Time),481923.1999999997,A,quee,O,e,246,1,3465.7999999998137,478457.3999999999,7105,WL,C,14.0
2,35.437999963760376,learn,24562.000036239624,Thu Mar 13 2025 09:07:30 GMT-0500 (Central Daylight Time),482323.1999999997,A,queen,O,n,379,1,3865.7999999998137,478457.3999999999,7105,WL,C,14.0
2,35.937999963760376,learn,24062.000036239624,Thu Mar 13 2025 09:07:30 GMT-0500 (Central Daylight Time),482823.00000000047,A,queenenter,O,enter,480,1,4365.600000000559,478457.3999999999,7105,WL,C,14.0
2,42.55200004577637,learn,17447.999954223633,Thu Mar 13 2025 09:07:30 GMT-0500 (Central Daylight Time),489437.1999999997,A,s,O,s,6600,1,6613.899999999441,482823.3000000003,7105,WL,C,15.0
2,42.70199990272522,learn,17298.00009727478,Thu Mar 13 2025 09:07:30 GMT-0500 (Central Daylight Time),489587.1999999997,A,su,O,u,145,1,6763.899999999441,482823.3000000003,7105,WL,C,15.0
2,42.86899995803833,learn,17131.00004196167,Thu Mar 13 2025 09:07:30 GMT-0500 (Central Daylight Time),489754.00000000047,A,sug,O,g,147,1,6930.700000000186,482823.3000000003,7105,WL,C,15.0
2,42.984999895095825,learn,17015.000104904175,Thu Mar 13 2025 09:07:30 GMT-0500 (Central Daylight Time),489870.50000000047,A,suge,O,e,100,1,7047.200000000186,482823.3000000003,7105,WL,C,15.0
2,43.45199990272522,learn,16548.00009727478,Thu Mar 13 2025 09:07:30 GMT-0500 (Central Daylight Time),490337.1000000001,A,sug,O,backspace,448,1,7513.799999999814,482823.3000000003,7105,WL,C,15.0
2,43.60199999809265,learn,16398.00000190735,Thu Mar 13 2025 09:07:30 GMT-0500 (Central Daylight Time),490487.00000000047,A,suga,O,a,133,1,7663.700000000186,482823.3000000003,7105,WL,C,15.0
2,43.88599991798401,learn,16114.000082015991,Thu Mar 13 2025 09:07:30 GMT-0500 (Central Daylight Time),490771.3999999999,A,sugat,O,t,271,1,7948.0999999996275,482823.3000000003,7105,WL,C,15.0
2,44.151999950408936,learn,15848.000049591064,Thu Mar 13 2025 09:07:30 GMT-0500 (Central Daylight Time),491037.1000000001,A,sugatenter,O,enter,251,1,8213.799999999814,482823.3000000003,7105,WL,C,15.0
3,1.0839998722076416,learn,58916.00012779236,Thu Mar 13 2025 09:07:30 GMT-0500 (Central Daylight Time),560231.8000000003,A,b,O,b,1067,1,1083.1000000005588,559148.6999999997,7105,WL,C,1.0
3,1.366999864578247,learn,58633.00013542175,Thu Mar 13 2025 09:07:30 GMT-0500 (Central Daylight Time),560515.1000000001,A,bo,O,o,270,1,1366.4000000003725,559148.6999999997,7105,WL,C,1.0
3,1.566999912261963,learn,58433.00008773804,Thu Mar 13 2025 09:07:30 GMT-0500 (Central Daylight Time),560715.1000000001,A,bod,O,d,187,1,1566.4000000003725,559148.6999999997,7105,WL,C,1.0
3,1.7839999198913574,learn,58216.00008010864,Thu Mar 13 2025 09:07:30 GMT-0500 (Central Daylight Time),560931.6999999997,A,body,O,y,195,1,1783.0,559148.6999999997,7105,WL,C,1.0
3,2.182999849319458,learn,57817.00015068054,Thu Mar 13 2025 09:07:30 GMT-0500 (Central Daylight Time),561331.3999999999,A,bodyenter,O,enter,387,1,2182.7000000001863,559148.6999999997,7105,WL,C,1.0
3,2.75,learn,57250.0,Thu Mar 13 2025 09:07:30 GMT-0500 (Central Daylight Time),561898.0000000005,A,s,O,s,547,1,566.4000000003725,561331.6000000001,7105,WL,C,2.0
3,3.0329999923706055,learn,56967.000007629395,Thu Mar 13 2025 09:07:30 GMT-0500 (Central Daylight Time),562181.1999999997,A,sh,O,h,268,1,849.5999999996275,561331.6000000001,7105,WL,C,2.0
3,3.1659998893737793,learn,56834.00011062622,Thu Mar 13 2025 09:07:30 GMT-0500 (Central Daylight Time),562314.3999999999,A,sho,O,o,121,1,982.7999999998137,561331.6000000001,7105,WL,C,2.0
3,3.5329999923706055,learn,56467.000007629395,Thu Mar 13 2025 09:07:30 GMT-0500 (Central Daylight Time),562681.1000000001,A,shor,O,r,348,1,1349.5,561331.6000000001,7105,WL,C,2.0
3,3.632999897003174,learn,56367.000102996826,Thu Mar 13 2025 09:07:30 GMT-0500 (Central Daylight Time),562781.1000000001,A,shore,O,e,93,1,1449.5,561331.6000000001,7105,WL,C,2.0
3,4.198999881744385,learn,55801.000118255615,Thu Mar 13 2025 09:07:30 GMT-0500 (Central Daylight Time),563347.3999999999,A,shoreenter,O,enter,553,1,2015.7999999998137,561331.6000000001,7105,WL,C,2.0
3,4.682999849319458,learn,55317.00015068054,Thu Mar 13 2025 09:07:30 GMT-0500 (Central Daylight Time),563830.6000000001,A,c,O,c,475,1,482.90000000037253,563347.6999999997,7105,WL,C,3.0
3,4.998999834060669,learn,55001.00016593933,Thu Mar 13 2025 09:07:30 GMT-0500 (Central Daylight Time),564147.3999999999,A,ca,O,a,296,1,799.7000000001863,563347.6999999997,7105,WL,C,3.0
3,5.23199987411499,learn,54768.00012588501,Thu Mar 13 2025 09:07:30 GMT-0500 (Central Daylight Time),564380.5000000005,A,cat,O,t,227,1,1032.800000000745,563347.6999999997,7105,WL,C,3.0
3,5.398999929428101,learn,54601.0000705719,Thu Mar 13 2025 09:07:30 GMT-0500 (Central Daylight Time),564547.3000000003,A,catt,O,t,154,1,1199.6000000005588,563347.6999999997,7105,WL,C,3.0
3,5.648999929428101,learn,54351.0000705719,Thu Mar 13 2025 09:07:30 GMT-0500 (Central Daylight Time),564797.1000000001,A,cattl,O,l,235,1,1449.4000000003725,563347.6999999997,7105,WL,C,3.0
3,5.865000009536743,learn,54134.99999046326,Thu Mar 13 2025 09:07:30 GMT-0500 (Central Daylight Time),565013.6000000001,A,cattle,O,e,209,1,1665.9000000003725,563347.6999999997,7105,WL,C,3.0
3,6.748999834060669,learn,53251.00016593933,Thu Mar 13 2025 09:07:30 GMT-0500 (Central Daylight Time),565896.8000000003,A,cattlec,O,c,873,1,2549.100000000559,563347.6999999997,7105,WL,C,3.0
3,6.865000009536743,learn,53134.99999046326,Thu Mar 13 2025 09:07:30 GMT-0500 (Central Daylight Time),566013.1999999997,A,cattleco,O,o,109,1,2665.5,563347.6999999997,7105,WL,C,3.0
3,7.031999826431274,learn,52968.000173568726,Thu Mar 13 2025 09:07:30 GMT-0500 (Central Daylight Time),566179.8999999999,A,cattlecor,O,r,153,1,2832.2000000001863,563347.6999999997,7105,WL,C,3.0
3,7.181999921798706,learn,52818.000078201294,Thu Mar 13 2025 09:07:30 GMT-0500 (Central Daylight Time),566329.8999999999,A,cattlecorn,O,n,138,1,2982.2000000001863,563347.6999999997,7105,WL,C,3.0
3,8.63100004196167,learn,51368.99995803833,Thu Mar 13 2025 09:07:30 GMT-0500 (Central Daylight Time),567779.3999999999,A,cattlecor,O,backspace,1430,1,4431.700000000186,563347.6999999997,7105,WL,C,3.0
3,8.830999851226807,learn,51169.00014877319,Thu Mar 13 2025 09:07:30 GMT-0500 (Central Daylight Time),567979.3999999999,A,cattleco,O,backspace,180,1,4631.700000000186,563347.6999999997,7105,WL,C,3.0
3,9.047999858856201,learn,50952.0001411438,Thu Mar 13 2025 09:07:30 GMT-0500 (Central Daylight Time),568195.8000000003,A,cattlec,O,backspace,211,1,4848.100000000559,563347.6999999997,7105,WL,C,3.0
3,9.414000034332275,learn,50585.999965667725,Thu Mar 13 2025 09:07:30 GMT-0500 (Central Daylight Time),568562.5000000005,A,cattle,O,backspace,347,1,5214.800000000745,563347.6999999997,7105,WL,C,3.0
3,10.080999851226807,learn,49919.00014877319,Thu Mar 13 2025 09:07:30 GMT-0500 (Central Daylight Time),569229.1000000001,A,cattleenter,O,enter,652,1,5881.4000000003725,563347.6999999997,7105,WL,C,3.0
3,10.44700002670288,learn,49552.99997329712,Thu Mar 13 2025 09:07:30 GMT-0500 (Central Daylight Time),569595.6000000001,A,c,O,c,347,1,366.20000000018626,569229.3999999999,7105,WL,C,4.0
3,10.730999946594238,learn,49269.00005340576,Thu Mar 13 2025 09:07:30 GMT-0500 (Central Daylight Time),569878.6999999997,A,co,O,o,267,1,649.2999999998137,569229.3999999999,7105,WL,C,4.0
3,10.914000034332275,learn,49085.999965667725,Thu Mar 13 2025 09:07:30 GMT-0500 (Central Daylight Time),570062.1000000001,A,cor,O,r,176,1,832.7000000001863,569229.3999999999,7105,WL,C,4.0
3,11.246999979019165,learn,48753.000020980835,Thu Mar 13 2025 09:07:30 GMT-0500 (Central Daylight Time),570395.3000000003,A,corn,O,n,313,1,1165.9000000003725,569229.3999999999,7105,WL,C,4.0
3,11.813999891281128,learn,48186.00010871887,Thu Mar 13 2025 09:07:30 GMT-0500 (Central Daylight Time),570961.8000000003,A,cornenter,O,enter,554,1,1732.4000000003725,569229.3999999999,7105,WL,C,4.0
3,12.629999876022339,learn,47370.00012397766,Thu Mar 13 2025 09:07:30 GMT-0500 (Central Daylight Time),571778.1000000001,A,n,O,n,804,1,815.9000000003725,570962.1999999997,7105,WL,C,5.0
3,12.730000019073486,learn,47269.999980926514,Thu Mar 13 2025 09:07:30 GMT-0500 (Central Daylight Time),571878.0000000005,A,na,O,a,84,1,915.8000000007451,570962.1999999997,7105,WL,C,5.0
3,12.912999868392944,learn,47087.000131607056,Thu Mar 13 2025 09:07:30 GMT-0500 (Central Daylight Time),572061.3999999999,A,nai,O,i,168,1,1099.2000000001863,570962.1999999997,7105,WL,C,5.0
3,13.174999952316284,learn,46825.000047683716,Thu Mar 13 2025 09:07:30 GMT-0500 (Central Daylight Time),572323.6000000001,A,nail,O,l,257,1,1361.4000000003725,570962.1999999997,7105,WL,C,5.0
3,13.546000003814697,learn,46453.9999961853,Thu Mar 13 2025 09:07:30 GMT-0500 (Central Daylight Time),572694.5000000005,A,nailenter,O,enter,363,1,1732.300000000745,570962.1999999997,7105,WL,C,5.0
3,14.44599986076355,learn,45554.00013923645,Thu Mar 13 2025 09:07:30 GMT-0500 (Central Daylight Time),573594.5000000005,A,b,O,b,888,1,899.7000000001863,572694.8000000003,7105,WL,C,6.0
3,14.629999876022339,learn,45370.00012397766,Thu Mar 13 2025 09:07:30 GMT-0500 (Central Daylight Time),573777.8000000003,A,bo,O,o,172,1,1083.0,572694.8000000003,7105,WL,C,6.0
3,14.928999900817871,learn,45071.00009918213,Thu Mar 13 2025 09:07:30 GMT-0500 (Central Daylight Time),574077.3999999999,A,boy,O,y,292,1,1382.5999999996275,572694.8000000003,7105,WL,C,6.0
3,15.329999923706055,learn,44670.000076293945,Thu Mar 13 2025 09:07:30 GMT-0500 (Central Daylight Time),574478.3999999999,A,boyenter,O,enter,385,1,1783.5999999996275,572694.8000000003,7105,WL,C,6.0
3,16.062000036239624,learn,43937.999963760376,Thu Mar 13 2025 09:07:30 GMT-0500 (Central Daylight Time),575210.3999999999,A,d,O,d,720,1,731.7999999998137,574478.6000000001,7105,WL,C,7.0
3,16.328999996185303,learn,43671.0000038147,Thu Mar 13 2025 09:07:30 GMT-0500 (Central Daylight Time),575477.1000000001,A,do,O,o,260,1,998.5,574478.6000000001,7105,WL,C,7.0
3,16.51199984550476,learn,43488.00015449524,Thu Mar 13 2025 09:07:30 GMT-0500 (Central Daylight Time),575660.3999999999,A,doc,O,c,169,1,1181.7999999998137,574478.6000000001,7105,WL,C,7.0
3,16.744999885559082,learn,43255.00011444092,Thu Mar 13 2025 09:07:30 GMT-0500 (Central Daylight Time),575893.3999999999,A,doct,O,t,226,1,1414.7999999998137,574478.6000000001,7105,WL,C,7.0
3,16.84500002861023,learn,43154.99997138977,Thu Mar 13 2025 09:07:30 GMT-0500 (Central Daylight Time),575993.3000000003,A,docto,O,o,81,1,1514.7000000001863,574478.6000000001,7105,WL,C,7.0
3,16.944999933242798,learn,43055.0000667572,Thu Mar 13 2025 09:07:30 GMT-0500 (Central Daylight Time),576093.3999999999,A,doctor,O,r,85,1,1614.7999999998137,574478.6000000001,7105,WL,C,7.0
3,17.76199984550476,learn,42238.00015449524,Thu Mar 13 2025 09:07:30 GMT-0500 (Central Daylight Time),576910.0000000005,A,doctorenter,O,enter,809,1,2431.4000000003725,574478.6000000001,7105,WL,C,7.0
3,18.777999877929688,learn,41222.00012207031,Thu Mar 13 2025 09:07:30 GMT-0500 (Central Daylight Time),577926.3000000003,A,c,O,c,1001,1,1016.0,576910.3000000003,7105,WL,C,8.0
3,19.027999877929688,learn,40972.00012207031,Thu Mar 13 2025 09:07:30 GMT-0500 (Central Daylight Time),578176.1999999997,A,ca,O,a,232,1,1265.8999999994412,576910.3000000003,7105,WL,C,8.0
3,19.310999870300293,learn,40689.00012969971,Thu Mar 13 2025 09:07:30 GMT-0500 (Central Daylight Time),578459.5000000005,A,cam,O,m,270,1,1549.2000000001863,576910.3000000003,7105,WL,C,8.0
3,19.728999853134155,learn,40271.000146865845,Thu Mar 13 2025 09:07:30 GMT-0500 (Central Daylight Time),578877.0000000005,A,camp,O,p,411,1,1966.7000000001863,576910.3000000003,7105,WL,C,8.0
3,20.460999965667725,learn,39539.000034332275,Thu Mar 13 2025 09:07:30 GMT-0500 (Central Daylight Time),579609.1000000001,A,campenter,O,enter,713,1,2698.7999999998137,576910.3000000003,7105,WL,C,8.0
3,21.01099991798401,learn,38989.00008201599,Thu Mar 13 2025 09:07:30 GMT-0500 (Central Daylight Time),580159.0000000005,A,f,O,f,534,1,549.6000000005588,579609.3999999999,7105,WL,C,9.0
3,21.22699999809265,learn,38773.00000190735,Thu Mar 13 2025 09:07:30 GMT-0500 (Central Daylight Time),580375.5000000005,A,fl,O,l,207,1,766.1000000005588,579609.3999999999,7105,WL,C,9.0
3,21.393999814987183,learn,38606.00018501282,Thu Mar 13 2025 09:07:30 GMT-0500 (Central Daylight Time),580541.8999999999,A,fla,O,a,151,1,932.5,579609.3999999999,7105,WL,C,9.0
3,21.776999950408936,learn,38223.000049591064,Thu Mar 13 2025 09:07:30 GMT-0500 (Central Daylight Time),580925.1999999997,A,flag,O,g,368,1,1315.7999999998137,579609.3999999999,7105,WL,C,9.0
3,22.177000045776367,learn,37822.99995422363,Thu Mar 13 2025 09:07:30 GMT-0500 (Central Daylight Time),581325.3000000003,A,flagenter,O,enter,385,1,1715.9000000003725,579609.3999999999,7105,WL,C,9.0
3,22.743000030517578,learn,37256.99996948242,Thu Mar 13 2025 09:07:30 GMT-0500 (Central Daylight Time),581891.6000000001,A,l,O,l,561,1,565.7999999998137,581325.8000000003,7105,WL,C,10.0
3,23.042999982833862,learn,36957.00001716614,Thu Mar 13 2025 09:07:30 GMT-0500 (Central Daylight Time),582191.5000000005,A,le,O,e,291,1,865.7000000001863,581325.8000000003,7105,WL,C,10.0
3,23.359999895095825,learn,36640.000104904175,Thu Mar 13 2025 09:07:30 GMT-0500 (Central Daylight Time),582508.0000000005,A,let,O,t,303,1,1182.2000000001863,581325.8000000003,7105,WL,C,10.0
3,23.47699999809265,learn,36523.00000190735,Thu Mar 13 2025 09:07:30 GMT-0500 (Central Daylight Time),582624.8999999999,A,lett,O,t,107,1,1299.0999999996275,581325.8000000003,7105,WL,C,10.0
3,24.042999982833862,learn,35957.00001716614,Thu Mar 13 2025 09:07:30 GMT-0500 (Central Daylight Time),583191.1000000001,A,lette,O,e,550,1,1865.2999999998137,581325.8000000003,7105,WL,C,10.0
3,24.109999895095825,learn,35890.000104904175,Thu Mar 13 2025 09:07:30 GMT-0500 (Central Daylight Time),583258.0000000005,A,letter,O,r,47,1,1932.2000000001863,581325.8000000003,7105,WL,C,10.0
3,24.442999839782715,learn,35557.000160217285,Thu Mar 13 2025 09:07:30 GMT-0500 (Central Daylight Time),583591.1000000001,A,letterenter,O,enter,324,1,2265.2999999998137,581325.8000000003,7105,WL,C,10.0
3,26.22599983215332,learn,33774.00016784668,Thu Mar 13 2025 09:07:30 GMT-0500 (Central Daylight Time),585374.1000000001,A,t,O,t,1768,1,1782.7000000001863,583591.3999999999,7105,WL,C,11.0
3,26.375999927520752,learn,33624.00007247925,Thu Mar 13 2025 09:07:30 GMT-0500 (Central Daylight Time),585523.8999999999,A,to,O,o,136,1,1932.5,583591.3999999999,7105,WL,C,11.0
3,26.526000022888184,learn,33473.99997711182,Thu Mar 13 2025 09:07:30 GMT-0500 (Central Daylight Time),585673.8000000003,A,tow,O,w,139,1,2082.4000000003725,583591.3999999999,7105,WL,C,11.0
3,26.55900001525879,learn,33440.99998474121,Thu Mar 13 2025 09:07:30 GMT-0500 (Central Daylight Time),585707.0000000005,A,towe,O,e,21,1,2115.600000000559,583591.3999999999,7105,WL,C,11.0
3,26.675999879837036,learn,33324.000120162964,Thu Mar 13 2025 09:07:30 GMT-0500 (Central Daylight Time),585823.8000000003,A,tower,O,r,100,1,2232.4000000003725,583591.3999999999,7105,WL,C,11.0
3,27.075999975204468,learn,32924.00002479553,Thu Mar 13 2025 09:07:30 GMT-0500 (Central Daylight Time),586223.6000000001,A,towerenter,O,enter,390,1,2632.2000000001863,583591.3999999999,7105,WL,C,11.0
3,27.774999856948853,learn,32225.000143051147,Thu Mar 13 2025 09:07:30 GMT-0500 (Central Daylight Time),586923.3999999999,A,w,O,w,679,1,699.3999999994412,586224.0000000005,7105,WL,C,12.0
3,27.907999992370605,learn,32092.000007629395,Thu Mar 13 2025 09:07:30 GMT-0500 (Central Daylight Time),587056.5000000005,A,wh,O,h,115,1,832.5,586224.0000000005,7105,WL,C,12.0
3,28.092000007629395,learn,31907.999992370605,Thu Mar 13 2025 09:07:30 GMT-0500 (Central Daylight Time),587240.0000000005,A,whe,O,e,174,1,1016.0,586224.0000000005,7105,WL,C,12.0
3,28.257999897003174,learn,31742.000102996826,Thu Mar 13 2025 09:07:30 GMT-0500 (Central Daylight Time),587406.5000000005,A,whea,O,a,151,1,1182.5,586224.0000000005,7105,WL,C,12.0
3,29.22499990463257,learn,30775.00009536743,Thu Mar 13 2025 09:07:30 GMT-0500 (Central Daylight Time),588373.0000000005,A,wheat,O,t,960,1,2149.0,586224.0000000005,7105,WL,C,12.0
3,29.875,learn,30125.0,Thu Mar 13 2025 09:07:30 GMT-0500 (Central Daylight Time),589022.8000000003,A,wheatenter,O,enter,633,1,2798.7999999998137,586224.0000000005,7105,WL,C,12.0
3,30.340999841690063,learn,29659.000158309937,Thu Mar 13 2025 09:07:30 GMT-0500 (Central Daylight Time),589489.1000000001,A,s,O,s,455,1,465.79999999981374,589023.3000000003,7105,WL,C,13.0
3,30.757999897003174,learn,29242.000102996826,Thu Mar 13 2025 09:07:30 GMT-0500 (Central Daylight Time),589905.8000000003,A,su,O,u,398,1,882.5,589023.3000000003,7105,WL,C,13.0
3,31.35800004005432,learn,28641.99995994568,Thu Mar 13 2025 09:07:30 GMT-0500 (Central Daylight Time),590505.6999999997,A,sug,O,g,589,1,1482.3999999994412,589023.3000000003,7105,WL,C,13.0
3,31.573999881744385,learn,28426.000118255615,Thu Mar 13 2025 09:07:30 GMT-0500 (Central Daylight Time),590722.1000000001,A,suga,O,a,205,1,1698.7999999998137,589023.3000000003,7105,WL,C,13.0
3,31.7739999294281,learn,28226.0000705719,Thu Mar 13 2025 09:07:30 GMT-0500 (Central Daylight Time),590922.1999999997,A,sugar,O,r,180,1,1898.8999999994412,589023.3000000003,7105,WL,C,13.0
3,32.406999826431274,learn,27593.000173568726,Thu Mar 13 2025 09:07:30 GMT-0500 (Central Daylight Time),591555.3000000003,A,sugarenter,O,enter,620,1,2532.0,589023.3000000003,7105,WL,C,13.0
3,33.10699987411499,learn,26893.00012588501,Thu Mar 13 2025 09:07:30 GMT-0500 (Central Daylight Time),592255.1999999997,A,q,O,q,691,1,699.5999999996275,591555.6000000001,7105,WL,C,14.0
3,33.33999991416931,learn,26660.00008583069,Thu Mar 13 2025 09:07:30 GMT-0500 (Central Daylight Time),592488.3000000003,A,qu,O,u,223,1,932.7000000001863,591555.6000000001,7105,WL,C,14.0
3,33.62299990653992,learn,26377.000093460083,Thu Mar 13 2025 09:07:30 GMT-0500 (Central Daylight Time),592771.5000000005,A,que,O,e,278,1,1215.9000000003725,591555.6000000001,7105,WL,C,14.0
3,33.74000000953674,learn,26259.999990463257,Thu Mar 13 2025 09:07:30 GMT-0500 (Central Daylight Time),592888.1999999997,A,quee,O,e,107,1,1332.5999999996275,591555.6000000001,7105,WL,C,14.0
3,34.12399983406067,learn,25876.00016593933,Thu Mar 13 2025 09:07:30 GMT-0500 (Central Daylight Time),593271.6999999997,A,queen,O,n,366,1,1716.0999999996275,591555.6000000001,7105,WL,C,14.0
3,34.50699996948242,learn,25493.000030517578,Thu Mar 13 2025 09:07:30 GMT-0500 (Central Daylight Time),593654.6000000001,A,queenenter,O,enter,375,1,2099.0,591555.6000000001,7105,WL,C,14.0
3,35.28999996185303,learn,24710.000038146973,Thu Mar 13 2025 09:07:30 GMT-0500 (Central Daylight Time),594437.8000000003,A,h,O,h,776,1,782.7999999998137,593655.0000000005,7105,WL,C,15.0
3,35.4229998588562,learn,24577.0001411438,Thu Mar 13 2025 09:07:30 GMT-0500 (Central Daylight Time),594571.3000000003,A,ho,O,o,129,1,916.2999999998137,593655.0000000005,7105,WL,C,15.0
3,35.65599989891052,learn,24344.000101089478,Thu Mar 13 2025 09:07:30 GMT-0500 (Central Daylight Time),594804.3999999999,A,hom,O,m,219,1,1149.3999999994412,593655.0000000005,7105,WL,C,15.0
3,35.805999994277954,learn,24194.000005722046,Thu Mar 13 2025 09:07:30 GMT-0500 (Central Daylight Time),594954.1000000001,A,home,O,e,130,1,1299.0999999996275,593655.0000000005,7105,WL,C,15.0
3,36.18899989128113,learn,23811.000108718872,Thu Mar 13 2025 09:07:30 GMT-0500 (Central Daylight Time),595337.3999999999,A,homeenter,O,enter,372,1,1682.3999999994412,593655.0000000005,7105,WL,C,15.0
4,1.5500001907348633,learn,58449.99980926514,Thu Mar 13 2025 09:07:30 GMT-0500 (Central Daylight Time),663699.3999999999,A,c,O,c,1545,1,1549.3999999994412,662150.0000000005,7105,WL,C,1.0
4,1.8000001907348633,learn,58199.99980926514,Thu Mar 13 2025 09:07:30 GMT-0500 (Central Daylight Time),663949.5000000005,A,co,O,o,234,1,1799.5,662150.0000000005,7105,WL,C,1.0
4,2.1000001430511475,learn,57899.99985694885,Thu Mar 13 2025 09:07:30 GMT-0500 (Central Daylight Time),664249.3000000003,A,cor,O,r,289,1,2099.2999999998137,662150.0000000005,7105,WL,C,1.0
4,2.25,learn,57750.0,Thu Mar 13 2025 09:07:30 GMT-0500 (Central Daylight Time),664399.0000000005,A,corn,O,n,141,1,2249.0,662150.0000000005,7105,WL,C,1.0
4,2.700000047683716,learn,57299.999952316284,Thu Mar 13 2025 09:07:30 GMT-0500 (Central Daylight Time),664849.1000000001,A,cornenter,O,enter,432,1,2699.0999999996275,662150.0000000005,7105,WL,C,1.0
4,3.1660001277923584,learn,56833.99987220764,Thu Mar 13 2025 09:07:30 GMT-0500 (Central Daylight Time),665315.5000000005,A,c,O,c,445,1,466.1000000005588,664849.3999999999,7105,WL,C,2.0
4,3.4830000400543213,learn,56516.99995994568,Thu Mar 13 2025 09:07:30 GMT-0500 (Central Daylight Time),665631.8999999999,A,ca,O,a,307,1,782.5,664849.3999999999,7105,WL,C,2.0
4,3.7660000324249268,learn,56233.99996757507,Thu Mar 13 2025 09:07:30 GMT-0500 (Central Daylight Time),665915.5000000005,A,cat,O,t,263,1,1066.1000000005588,664849.3999999999,7105,WL,C,2.0
4,3.9160001277923584,learn,56083.99987220764,Thu Mar 13 2025 09:07:30 GMT-0500 (Central Daylight Time),666065.3000000003,A,catt,O,t,131,1,1215.9000000003725,664849.3999999999,7105,WL,C,2.0
4,4.263000011444092,learn,55736.99998855591,Thu Mar 13 2025 09:07:30 GMT-0500 (Central Daylight Time),666411.8999999999,A,cattl,O,l,341,1,1562.5,664849.3999999999,7105,WL,C,2.0
4,4.4100000858306885,learn,55589.99991416931,Thu Mar 13 2025 09:07:30 GMT-0500 (Central Daylight Time),666559.0000000005,A,cattle,O,e,142,1,1709.6000000005588,664849.3999999999,7105,WL,C,2.0
4,4.64900016784668,learn,55350.99983215332,Thu Mar 13 2025 09:07:30 GMT-0500 (Central Daylight Time),666798.3000000003,A,cattleenter,O,enter,229,1,1948.9000000003725,664849.3999999999,7105,WL,C,2.0
4,4.982000112533569,learn,55017.99988746643,Thu Mar 13 2025 09:07:30 GMT-0500 (Central Daylight Time),667131.6000000001,A,s,O,s,320,1,333.0,666798.6000000001,7105,WL,C,3.0
4,5.2820000648498535,learn,54717.99993515015,Thu Mar 13 2025 09:07:30 GMT-0500 (Central Daylight Time),667431.3999999999,A,sh,O,h,283,1,632.7999999998137,666798.6000000001,7105,WL,C,3.0
4,5.366000175476074,learn,54633.999824523926,Thu Mar 13 2025 09:07:30 GMT-0500 (Central Daylight Time),667515.1000000001,A,sho,O,o,63,1,716.5,666798.6000000001,7105,WL,C,3.0
4,5.582000017166138,learn,54417.99998283386,Thu Mar 13 2025 09:07:30 GMT-0500 (Central Daylight Time),667731.6999999997,A,shor,O,r,197,1,933.0999999996275,666798.6000000001,7105,WL,C,3.0
4,5.598999977111816,learn,54401.00002288818,Thu Mar 13 2025 09:07:30 GMT-0500 (Central Daylight Time),667748.1000000001,A,shore,O,e,3,1,949.5,666798.6000000001,7105,WL,C,3.0
4,6.5320000648498535,learn,53467.99993515015,Thu Mar 13 2025 09:07:30 GMT-0500 (Central Daylight Time),668681.1000000001,A,shoreenter,O,enter,923,1,1882.5,666798.6000000001,7105,WL,C,3.0
4,7.065000057220459,learn,52934.99994277954,Thu Mar 13 2025 09:07:30 GMT-0500 (Central Daylight Time),669214.1999999997,A,n,O,n,517,1,532.6999999992549,668681.5000000005,7105,WL,C,4.0
4,7.25,learn,52750.0,Thu Mar 13 2025 09:07:30 GMT-0500 (Central Daylight Time),669398.6999999997,A,na,O,a,168,1,717.1999999992549,668681.5000000005,7105,WL,C,4.0
4,7.465000152587891,learn,52534.99984741211,Thu Mar 13 2025 09:07:30 GMT-0500 (Central Daylight Time),669614.0000000005,A,nai,O,i,200,1,932.5,668681.5000000005,7105,WL,C,4.0
4,7.682000160217285,learn,52317.999839782715,Thu Mar 13 2025 09:07:30 GMT-0500 (Central Daylight Time),669831.0000000005,A,nail,O,l,208,1,1149.5,668681.5000000005,7105,WL,C,4.0
4,8.081000089645386,learn,51918.999910354614,Thu Mar 13 2025 09:07:30 GMT-0500 (Central Daylight Time),670230.5000000005,A,nailenter,O,enter,384,1,1549.0,668681.5000000005,7105,WL,C,4.0
4,8.79800009727478,learn,51201.99990272522,Thu Mar 13 2025 09:07:30 GMT-0500 (Central Daylight Time),670947.0000000005,A,b,O,b,696,1,716.2000000001863,670230.8000000003,7105,WL,C,5.0
4,9.081000089645386,learn,50918.999910354614,Thu Mar 13 2025 09:07:30 GMT-0500 (Central Daylight Time),671230.3000000003,A,bo,O,o,275,1,999.5,670230.8000000003,7105,WL,C,5.0
4,9.21399998664856,learn,50786.00001335144,Thu Mar 13 2025 09:07:30 GMT-0500 (Central Daylight Time),671363.5000000005,A,bod,O,d,128,1,1132.7000000001863,670230.8000000003,7105,WL,C,5.0
4,9.46399998664856,learn,50536.00001335144,Thu Mar 13 2025 09:07:30 GMT-0500 (Central Daylight Time),671613.6999999997,A,body,O,y,235,1,1382.8999999994412,670230.8000000003,7105,WL,C,5.0
4,9.996999979019165,learn,50003.000020980835,Thu Mar 13 2025 09:07:30 GMT-0500 (Central Daylight Time),672146.6999999997,A,bodyenter,O,enter,521,1,1915.8999999994412,670230.8000000003,7105,WL,C,5.0
4,10.664000034332275,learn,49335.999965667725,Thu Mar 13 2025 09:07:30 GMT-0500 (Central Daylight Time),672813.1000000001,A,b,O,b,652,1,666.2000000001863,672146.8999999999,7105,WL,C,6.0
4,10.814000129699707,learn,49185.99987030029,Thu Mar 13 2025 09:07:30 GMT-0500 (Central Daylight Time),672962.8999999999,A,bo,O,o,137,1,816.0,672146.8999999999,7105,WL,C,6.0
4,11.064000129699707,learn,48935.99987030029,Thu Mar 13 2025 09:07:30 GMT-0500 (Central Daylight Time),673212.8000000003,A,boy,O,y,236,1,1065.9000000003725,672146.8999999999,7105,WL,C,6.0
4,11.44700002670288,learn,48552.99997329712,Thu Mar 13 2025 09:07:30 GMT-0500 (Central Daylight Time),673596.0000000005,A,boyenter,O,enter,370,1,1449.1000000005588,672146.8999999999,7105,WL,C,6.0
4,12.064000129699707,learn,47935.99987030029,Thu Mar 13 2025 09:07:30 GMT-0500 (Central Daylight Time),674212.8000000003,A,l,O,l,611,1,616.6000000005588,673596.1999999997,7105,WL,C,7.0
4,12.297000169754028,learn,47702.99983024597,Thu Mar 13 2025 09:07:30 GMT-0500 (Central Daylight Time),674446.0000000005,A,le,O,e,217,1,849.8000000007451,673596.1999999997,7105,WL,C,7.0
4,12.630000114440918,learn,47369.99988555908,Thu Mar 13 2025 09:07:30 GMT-0500 (Central Daylight Time),674779.3999999999,A,let,O,t,312,1,1183.2000000001863,673596.1999999997,7105,WL,C,7.0
4,12.746999979019165,learn,47253.000020980835,Thu Mar 13 2025 09:07:30 GMT-0500 (Central Daylight Time),674895.8000000003,A,lett,O,t,107,1,1299.6000000005588,673596.1999999997,7105,WL,C,7.0
4,12.980000019073486,learn,47019.999980926514,Thu Mar 13 2025 09:07:30 GMT-0500 (Central Daylight Time),675129.1000000001,A,lette,O,e,215,1,1532.9000000003725,673596.1999999997,7105,WL,C,7.0
4,13.047000169754028,learn,46952.99983024597,Thu Mar 13 2025 09:07:30 GMT-0500 (Central Daylight Time),675195.6999999997,A,letter,O,r,53,1,1599.5,673596.1999999997,7105,WL,C,7.0
4,13.646000146865845,learn,46353.999853134155,Thu Mar 13 2025 09:07:30 GMT-0500 (Central Daylight Time),675795.5000000005,A,letterenter,O,enter,587,1,2199.300000000745,673596.1999999997,7105,WL,C,7.0
4,14.013000011444092,learn,45986.99998855591,Thu Mar 13 2025 09:07:30 GMT-0500 (Central Daylight Time),676162.1000000001,A,d,O,d,347,1,366.29999999981374,675795.8000000003,7105,WL,C,8.0
4,14.279000043869019,learn,45720.99995613098,Thu Mar 13 2025 09:07:30 GMT-0500 (Central Daylight Time),676428.6000000001,A,do,O,o,252,1,632.7999999998137,675795.8000000003,7105,WL,C,8.0
4,14.396000146865845,learn,45603.999853134155,Thu Mar 13 2025 09:07:30 GMT-0500 (Central Daylight Time),676545.1999999997,A,doc,O,c,106,1,749.3999999994412,675795.8000000003,7105,WL,C,8.0
4,14.663000106811523,learn,45336.99989318848,Thu Mar 13 2025 09:07:30 GMT-0500 (Central Daylight Time),676811.8000000003,A,doct,O,t,253,1,1016.0,675795.8000000003,7105,WL,C,8.0
4,14.746000051498413,learn,45253.99994850159,Thu Mar 13 2025 09:07:30 GMT-0500 (Central Daylight Time),676895.3000000003,A,docto,O,o,75,1,1099.5,675795.8000000003,7105,WL,C,8.0
4,14.879000186920166,learn,45120.999813079834,Thu Mar 13 2025 09:07:30 GMT-0500 (Central Daylight Time),677028.3999999999,A,doctor,O,r,119,1,1232.5999999996275,675795.8000000003,7105,WL,C,8.0
4,15.562000036239624,learn,44437.999963760376,Thu Mar 13 2025 09:07:30 GMT-0500 (Central Daylight Time),677711.6000000001,A,doctorenter,O,enter,666,1,1915.7999999998137,675795.8000000003,7105,WL,C,8.0
4,15.879000186920166,learn,44120.999813079834,Thu Mar 13 2025 09:07:30 GMT-0500 (Central Daylight Time),678028.0000000005,A,c,O,c,311,1,316.1000000005588,677711.8999999999,7105,WL,C,9.0
4,16.078999996185303,learn,43921.0000038147,Thu Mar 13 2025 09:07:30 GMT-0500 (Central Daylight Time),678227.8000000003,A,ca,O,a,195,1,515.9000000003725,677711.8999999999,7105,WL,C,9.0
4,16.27900004386902,learn,43720.99995613098,Thu Mar 13 2025 09:07:30 GMT-0500 (Central Daylight Time),678428.1999999997,A,cam,O,m,187,1,716.2999999998137,677711.8999999999,7105,WL,C,9.0
4,16.41200017929077,learn,43587.99982070923,Thu Mar 13 2025 09:07:30 GMT-0500 (Central Daylight Time),678561.3000000003,A,camp,O,p,114,1,849.4000000003725,677711.8999999999,7105,WL,C,9.0
4,16.84600019454956,learn,43153.99980545044,Thu Mar 13 2025 09:07:30 GMT-0500 (Central Daylight Time),678994.8000000003,A,campenter,O,enter,413,1,1282.9000000003725,677711.8999999999,7105,WL,C,9.0
4,17.479000091552734,learn,42520.999908447266,Thu Mar 13 2025 09:07:30 GMT-0500 (Central Daylight Time),679627.8000000003,A,f,O,f,619,1,632.7999999998137,678995.0000000005,7105,WL,C,10.0
4,17.728000164031982,learn,42271.99983596802,Thu Mar 13 2025 09:07:30 GMT-0500 (Central Daylight Time),679877.5000000005,A,fl,O,l,234,1,882.5,678995.0000000005,7105,WL,C,10.0
4,17.861999988555908,learn,42138.00001144409,Thu Mar 13 2025 09:07:30 GMT-0500 (Central Daylight Time),680011.3000000003,A,fla,O,a,129,1,1016.2999999998137,678995.0000000005,7105,WL,C,10.0
4,18.32800006866455,learn,41671.99993133545,Thu Mar 13 2025 09:07:30 GMT-0500 (Central Daylight Time),680477.3000000003,A,flag,O,g,451,1,1482.2999999998137,678995.0000000005,7105,WL,C,10.0
4,18.978000164031982,learn,41021.99983596802,Thu Mar 13 2025 09:07:30 GMT-0500 (Central Daylight Time),681127.3999999999,A,flagenter,O,enter,633,1,2132.399999999441,678995.0000000005,7105,WL,C,10.0
4,20.861000061035156,learn,39138.999938964844,Thu Mar 13 2025 09:07:30 GMT-0500 (Central Daylight Time),683010.0000000005,A,q,O,q,1871,1,1882.300000000745,681127.6999999997,7105,WL,C,11.0
4,21.044000148773193,learn,38955.99985122681,Thu Mar 13 2025 09:07:30 GMT-0500 (Central Daylight Time),683193.3000000003,A,qu,O,u,165,1,2065.600000000559,681127.6999999997,7105,WL,C,11.0
4,21.294000148773193,learn,38705.99985122681,Thu Mar 13 2025 09:07:30 GMT-0500 (Central Daylight Time),683443.3000000003,A,que,O,e,245,1,2315.600000000559,681127.6999999997,7105,WL,C,11.0
4,21.444000005722046,learn,38555.999994277954,Thu Mar 13 2025 09:07:30 GMT-0500 (Central Daylight Time),683593.1999999997,A,quee,O,e,131,1,2465.5,681127.6999999997,7105,WL,C,11.0
4,21.694000005722046,learn,38305.999994277954,Thu Mar 13 2025 09:07:30 GMT-0500 (Central Daylight Time),683843.0000000005,A,queen,O,n,237,1,2715.300000000745,681127.6999999997,7105,WL,C,11.0
4,21.99400019645691,learn,38005.99980354309,Thu Mar 13 2025 09:07:30 GMT-0500 (Central Daylight Time),684142.8999999999,A,queenenter,O,enter,283,1,3015.2000000001863,681127.6999999997,7105,WL,C,11.0
4,22.594000101089478,learn,37405.99989891052,Thu Mar 13 2025 09:07:30 GMT-0500 (Central Daylight Time),684742.8000000003,A,h,O,h,592,1,599.5,684143.3000000003,7105,WL,C,12.0
4,22.74400019645691,learn,37255.99980354309,Thu Mar 13 2025 09:07:30 GMT-0500 (Central Daylight Time),684892.8000000003,A,ho,O,o,136,1,749.5,684143.3000000003,7105,WL,C,12.0
4,22.960000038146973,learn,37039.99996185303,Thu Mar 13 2025 09:07:30 GMT-0500 (Central Daylight Time),685109.1999999997,A,hom,O,m,202,1,965.8999999994412,684143.3000000003,7105,WL,C,12.0
4,23.14300012588501,learn,36856.99987411499,Thu Mar 13 2025 09:07:30 GMT-0500 (Central Daylight Time),685292.6000000001,A,home,O,e,177,1,1149.2999999998137,684143.3000000003,7105,WL,C,12.0
4,23.542999982833862,learn,36457.00001716614,Thu Mar 13 2025 09:07:30 GMT-0500 (Central Daylight Time),685692.3999999999,A,homeenter,O,enter,386,1,1549.0999999996275,684143.3000000003,7105,WL,C,12.0
4,24.276000022888184,learn,35723.99997711182,Thu Mar 13 2025 09:07:30 GMT-0500 (Central Daylight Time),686425.5000000005,A,t,O,t,714,1,732.8000000007451,685692.6999999997,7105,WL,C,13.0
4,24.39300012588501,learn,35606.99987411499,Thu Mar 13 2025 09:07:30 GMT-0500 (Central Daylight Time),686542.1000000001,A,to,O,o,109,1,849.4000000003725,685692.6999999997,7105,WL,C,13.0
4,24.526000022888184,learn,35473.99997711182,Thu Mar 13 2025 09:07:30 GMT-0500 (Central Daylight Time),686675.5000000005,A,tow,O,w,128,1,982.8000000007451,685692.6999999997,7105,WL,C,13.0
4,24.575999975204468,learn,35424.00002479553,Thu Mar 13 2025 09:07:30 GMT-0500 (Central Daylight Time),686725.5000000005,A,towe,O,e,43,1,1032.800000000745,685692.6999999997,7105,WL,C,13.0
4,24.676000118255615,learn,35323.999881744385,Thu Mar 13 2025 09:07:30 GMT-0500 (Central Daylight Time),686825.5000000005,A,tower,O,r,80,1,1132.800000000745,685692.6999999997,7105,WL,C,13.0
4,25.55900001525879,learn,34440.99998474121,Thu Mar 13 2025 09:07:30 GMT-0500 (Central Daylight Time),687708.3999999999,A,towerenter,O,enter,877,1,2015.7000000001863,685692.6999999997,7105,WL,C,13.0
4,26.659000158309937,learn,33340.99984169006,Thu Mar 13 2025 09:07:30 GMT-0500 (Central Daylight Time),688808.1999999997,A,s,O,s,1090,1,1099.5,687708.6999999997,7105,WL,C,14.0
4,26.87600016593933,learn,33123.99983406067,Thu Mar 13 2025 09:07:30 GMT-0500 (Central Daylight Time),689024.8000000003,A,su,O,u,206,1,1316.1000000005588,687708.6999999997,7105,WL,C,14.0
4,26.992000102996826,learn,33007.999897003174,Thu Mar 13 2025 09:07:30 GMT-0500 (Central Daylight Time),689141.1999999997,A,sug,O,g,102,1,1432.5,687708.6999999997,7105,WL,C,14.0
4,27.20900011062622,learn,32790.99988937378,Thu Mar 13 2025 09:07:30 GMT-0500 (Central Daylight Time),689358.1000000001,A,suga,O,a,209,1,1649.4000000003725,687708.6999999997,7105,WL,C,14.0
4,27.360000133514404,learn,32639.999866485596,Thu Mar 13 2025 09:07:30 GMT-0500 (Central Daylight Time),689509.1999999997,A,sugar,O,r,137,1,1800.5,687708.6999999997,7105,WL,C,14.0
4,27.790000200271606,learn,32209.999799728394,Thu Mar 13 2025 09:07:30 GMT-0500 (Central Daylight Time),689938.8999999999,A,sugarenter,O,enter,425,1,2230.2000000001863,687708.6999999997,7105,WL,C,14.0
4,28.325000047683716,learn,31674.999952316284,Thu Mar 13 2025 09:07:30 GMT-0500 (Central Daylight Time),690474.3000000003,A,w,O,w,516,1,535.1000000005588,689939.1999999997,7105,WL,C,15.0
4,28.425000190734863,learn,31574.999809265137,Thu Mar 13 2025 09:07:30 GMT-0500 (Central Daylight Time),690574.1999999997,A,wh,O,h,84,1,635.0,689939.1999999997,7105,WL,C,15.0
4,28.592000007629395,learn,31407.999992370605,Thu Mar 13 2025 09:07:30 GMT-0500 (Central Daylight Time),690741.0000000005,A,wha,O,a,152,1,801.8000000007451,689939.1999999997,7105,WL,C,15.0
4,29.325000047683716,learn,30674.999952316284,Thu Mar 13 2025 09:07:30 GMT-0500 (Central Daylight Time),691474.1000000001,A,wh,O,backspace,713,1,1534.9000000003725,689939.1999999997,7105,WL,C,15.0
4,29.407999992370605,learn,30592.000007629395,Thu Mar 13 2025 09:07:30 GMT-0500 (Central Daylight Time),691557.3000000003,A,whe,O,e,76,1,1618.1000000005588,689939.1999999997,7105,WL,C,15.0
4,29.591000080108643,learn,30408.999919891357,Thu Mar 13 2025 09:07:30 GMT-0500 (Central Daylight Time),691740.6999999997,A,whea,O,a,177,1,1801.5,689939.1999999997,7105,WL,C,15.0
4,30.091000080108643,learn,29908.999919891357,Thu Mar 13 2025 09:07:30 GMT-0500 (Central Daylight Time),692240.6000000001,A,wheat,O,t,482,1,2301.4000000003725,689939.1999999997,7105,WL,C,15.0
4,30.35800004005432,learn,29641.99995994568,Thu Mar 13 2025 09:07:30 GMT-0500 (Central Daylight Time),692506.8000000003,A,wheatenter,O,enter,246,1,2567.600000000559,689939.1999999997,7105,WL,C,15.0
5,0.9449999332427979,learn,60000.0,Thu Mar 13 2025 09:07:30 GMT-0500 (Central Daylight Time),760581.3000000003,A,s,O,s,942,1,945.6000000005588,759635.6999999997,7105,WL,C,1.0
5,1.1359999179840088,learn,60000.0,Thu Mar 13 2025 09:07:30 GMT-0500 (Central Daylight Time),760771.6999999997,A,sh,O,h,169,1,1136.0,759635.6999999997,7105,WL,C,1.0
5,1.25,learn,60000.0,Thu Mar 13 2025 09:07:30 GMT-0500 (Central Daylight Time),760885.6000000001,A,sho,O,o,107,1,1249.9000000003725,759635.6999999997,7105,WL,C,1.0
5,1.4500000476837158,learn,60000.0,Thu Mar 13 2025 09:07:30 GMT-0500 (Central Daylight Time),761085.3999999999,A,shor,O,r,193,1,1449.7000000001863,759635.6999999997,7105,WL,C,1.0
5,1.4830000400543213,learn,60000.0,Thu Mar 13 2025 09:07:30 GMT-0500 (Central Daylight Time),761118.6999999997,A,shore,O,e,25,1,1483.0,759635.6999999997,7105,WL,C,1.0
5,2.065999984741211,learn,60000.0,Thu Mar 13 2025 09:07:30 GMT-0500 (Central Daylight Time),761702.1000000001,A,shoreenter,O,enter,576,1,2066.4000000003725,759635.6999999997,7105,WL,C,1.0
5,2.5169999599456787,learn,60000.0,Thu Mar 13 2025 09:07:30 GMT-0500 (Central Daylight Time),762153.1999999997,A,c,O,c,432,1,450.69999999925494,761702.5000000005,7105,WL,C,2.0
5,2.815999984741211,learn,60000.0,Thu Mar 13 2025 09:07:30 GMT-0500 (Central Daylight Time),762451.6999999997,A,co,O,o,285,1,749.1999999992549,761702.5000000005,7105,WL,C,2.0
5,3.0160000324249268,learn,60000.0,Thu Mar 13 2025 09:07:30 GMT-0500 (Central Daylight Time),762651.6999999997,A,cor,O,r,179,1,949.1999999992549,761702.5000000005,7105,WL,C,2.0
5,3.115999937057495,learn,60000.0,Thu Mar 13 2025 09:07:30 GMT-0500 (Central Daylight Time),762751.5000000005,A,corn,O,n,91,1,1049.0,761702.5000000005,7105,WL,C,2.0
5,3.5490000247955322,learn,60000.0,Thu Mar 13 2025 09:07:30 GMT-0500 (Central Daylight Time),763184.8000000003,A,cornenter,O,enter,423,1,1482.2999999998137,761702.5000000005,7105,WL,C,2.0
5,3.999000072479248,learn,60000.0,Thu Mar 13 2025 09:07:30 GMT-0500 (Central Daylight Time),763634.6000000001,A,b,O,b,438,1,449.5,763185.1000000001,7105,WL,C,3.0
5,4.249000072479248,learn,60000.0,Thu Mar 13 2025 09:07:30 GMT-0500 (Central Daylight Time),763884.6000000001,A,bo,O,o,244,1,699.5,763185.1000000001,7105,WL,C,3.0
5,4.482000112533569,learn,60000.0,Thu Mar 13 2025 09:07:30 GMT-0500 (Central Daylight Time),764117.8999999999,A,bod,O,d,218,1,932.7999999998137,763185.1000000001,7105,WL,C,3.0
5,4.615000009536743,learn,60000.0,Thu Mar 13 2025 09:07:30 GMT-0500 (Central Daylight Time),764251.0000000005,A,body,O,y,121,1,1065.9000000003725,763185.1000000001,7105,WL,C,3.0
5,5.3480000495910645,learn,60000.0,Thu Mar 13 2025 09:07:30 GMT-0500 (Central Daylight Time),764984.1999999997,A,bodyenter,O,enter,715,1,1799.0999999996275,763185.1000000001,7105,WL,C,3.0
5,6.0320000648498535,learn,60000.0,Thu Mar 13 2025 09:07:30 GMT-0500 (Central Daylight Time),765667.6000000001,A,c,O,c,662,1,683.0999999996275,764984.5000000005,7105,WL,C,4.0
5,6.265000104904175,learn,60000.0,Thu Mar 13 2025 09:07:30 GMT-0500 (Central Daylight Time),765900.6000000001,A,ca,O,a,219,1,916.0999999996275,764984.5000000005,7105,WL,C,4.0
5,6.498000144958496,learn,60000.0,Thu Mar 13 2025 09:07:30 GMT-0500 (Central Daylight Time),766134.0000000005,A,cat,O,t,226,1,1149.5,764984.5000000005,7105,WL,C,4.0
5,6.63100004196167,learn,60000.0,Thu Mar 13 2025 09:07:30 GMT-0500 (Central Daylight Time),766267.0000000005,A,catt,O,t,113,1,1282.5,764984.5000000005,7105,WL,C,4.0
5,6.781000137329102,learn,60000.0,Thu Mar 13 2025 09:07:30 GMT-0500 (Central Daylight Time),766417.0000000005,A,cattl,O,l,131,1,1432.5,764984.5000000005,7105,WL,C,4.0
5,7.015000104904175,learn,60000.0,Thu Mar 13 2025 09:07:30 GMT-0500 (Central Daylight Time),766650.5000000005,A,cattle,O,e,214,1,1666.0,764984.5000000005,7105,WL,C,4.0
5,7.63100004196167,learn,60000.0,Thu Mar 13 2025 09:07:30 GMT-0500 (Central Daylight Time),767266.8000000003,A,cattleenter,O,enter,596,1,2282.2999999998137,764984.5000000005,7105,WL,C,4.0
5,8.79699993133545,learn,60000.0,Thu Mar 13 2025 09:07:30 GMT-0500 (Central Daylight Time),768433.1000000001,A,n,O,n,1155,1,1166.0,767267.1000000001,7105,WL,C,5.0
5,8.94700002670288,learn,60000.0,Thu Mar 13 2025 09:07:30 GMT-0500 (Central Daylight Time),768583.3000000003,A,na,O,a,133,1,1316.2000000001863,767267.1000000001,7105,WL,C,5.0
5,9.147000074386597,learn,60000.0,Thu Mar 13 2025 09:07:30 GMT-0500 (Central Daylight Time),768782.8999999999,A,nai,O,i,183,1,1515.7999999998137,767267.1000000001,7105,WL,C,5.0
5,9.263999938964844,learn,60000.0,Thu Mar 13 2025 09:07:30 GMT-0500 (Central Daylight Time),768899.8999999999,A,nail,O,l,96,1,1632.7999999998137,767267.1000000001,7105,WL,C,5.0
5,10.21399998664856,learn,60000.0,Thu Mar 13 2025 09:07:30 GMT-0500 (Central Daylight Time),769849.5000000005,A,nailenter,O,enter,931,1,2582.4000000003725,767267.1000000001,7105,WL,C,5.0
5,12.913000106811523,learn,60000.0,Thu Mar 13 2025 09:07:30 GMT-0500 (Central Daylight Time),772548.6000000001,A,c,O,c,2685,1,2698.7999999998137,769849.8000000003,7105,WL,C,6.0
5,13.11299991607666,learn,60000.0,Thu Mar 13 2025 09:07:30 GMT-0500 (Central Daylight Time),772748.5000000005,A,ca,O,a,186,1,2898.7000000001863,769849.8000000003,7105,WL,C,6.0
5,13.312999963760376,learn,60000.0,Thu Mar 13 2025 09:07:30 GMT-0500 (Central Daylight Time),772948.3999999999,A,cam,O,m,186,1,3098.5999999996275,769849.8000000003,7105,WL,C,6.0
5,13.531000137329102,learn,60000.0,Thu Mar 13 2025 09:07:30 GMT-0500 (Central Daylight Time),773166.3999999999,A,camp,O,p,210,1,3316.5999999996275,769849.8000000003,7105,WL,C,6.0
5,14.67900013923645,learn,60000.0,Thu Mar 13 2025 09:07:30 GMT-0500 (Central Daylight Time),774314.6999999997,A,campenter,O,enter,1128,1,4464.899999999441,769849.8000000003,7105,WL,C,6.0
5,15.378999948501587,learn,60000.0,Thu Mar 13 2025 09:07:30 GMT-0500 (Central Daylight Time),775014.3999999999,A,b,O,b,692,1,699.3999999994412,774315.0000000005,7105,WL,C,7.0
5,15.712000131607056,learn,60000.0,Thu Mar 13 2025 09:07:30 GMT-0500 (Central Daylight Time),775347.5000000005,A,bo,O,o,320,1,1032.5,774315.0000000005,7105,WL,C,7.0
5,15.995000123977661,learn,60000.0,Thu Mar 13 2025 09:07:30 GMT-0500 (Central Daylight Time),775630.8999999999,A,boy,O,y,267,1,1315.8999999994412,774315.0000000005,7105,WL,C,7.0
5,16.312000036239624,learn,60000.0,Thu Mar 13 2025 09:07:30 GMT-0500 (Central Daylight Time),775947.3000000003,A,boyenter,O,enter,312,1,1632.2999999998137,774315.0000000005,7105,WL,C,7.0
5,16.977999925613403,learn,60000.0,Thu Mar 13 2025 09:07:30 GMT-0500 (Central Daylight Time),776613.8999999999,A,d,O,d,660,1,666.2999999998137,775947.6000000001,7105,WL,C,8.0
5,17.246000051498413,learn,60000.0,Thu Mar 13 2025 09:07:30 GMT-0500 (Central Daylight Time),776881.6999999997,A,do,O,o,256,1,934.0999999996275,775947.6000000001,7105,WL,C,8.0
5,17.378000020980835,learn,60000.0,Thu Mar 13 2025 09:07:30 GMT-0500 (Central Daylight Time),777014.0000000005,A,doc,O,c,124,1,1066.4000000003725,775947.6000000001,7105,WL,C,8.0
5,17.67799997329712,learn,60000.0,Thu Mar 13 2025 09:07:30 GMT-0500 (Central Daylight Time),777313.8999999999,A,doct,O,t,281,1,1366.2999999998137,775947.6000000001,7105,WL,C,8.0
5,17.76099991798401,learn,60000.0,Thu Mar 13 2025 09:07:30 GMT-0500 (Central Daylight Time),777397.1000000001,A,docto,O,o,77,1,1449.5,775947.6000000001,7105,WL,C,8.0
5,18.64400005340576,learn,60000.0,Thu Mar 13 2025 09:07:30 GMT-0500 (Central Daylight Time),778280.1000000001,A,doctor,O,r,866,1,2332.5,775947.6000000001,7105,WL,C,8.0
5,19.427000045776367,learn,60000.0,Thu Mar 13 2025 09:07:30 GMT-0500 (Central Daylight Time),779063.1000000001,A,doctorenter,O,enter,774,1,3115.5,775947.6000000001,7105,WL,C,8.0
5,19.97699999809265,learn,60000.0,Thu Mar 13 2025 09:07:30 GMT-0500 (Central Daylight Time),779613.1000000001,A,l,O,l,536,1,549.5999999996275,779063.5000000005,7105,WL,C,9.0
5,20.16100001335144,learn,60000.0,Thu Mar 13 2025 09:07:30 GMT-0500 (Central Daylight Time),779797.3000000003,A,le,O,e,178,1,733.7999999998137,779063.5000000005,7105,WL,C,9.0
5,20.493000030517578,learn,60000.0,Thu Mar 13 2025 09:07:30 GMT-0500 (Central Daylight Time),780129.6999999997,A,let,O,t,321,1,1066.199999999255,779063.5000000005,7105,WL,C,9.0
5,20.66000008583069,learn,60000.0,Thu Mar 13 2025 09:07:30 GMT-0500 (Central Daylight Time),780296.3999999999,A,lett,O,t,149,1,1232.8999999994412,779063.5000000005,7105,WL,C,9.0
5,20.926000118255615,learn,60000.0,Thu Mar 13 2025 09:07:30 GMT-0500 (Central Daylight Time),780562.8000000003,A,lette,O,e,254,1,1499.2999999998137,779063.5000000005,7105,WL,C,9.0
5,20.993000030517578,learn,60000.0,Thu Mar 13 2025 09:07:30 GMT-0500 (Central Daylight Time),780629.5000000005,A,letter,O,r,51,1,1566.0,779063.5000000005,7105,WL,C,9.0
5,21.676000118255615,learn,60000.0,Thu Mar 13 2025 09:07:30 GMT-0500 (Central Daylight Time),781312.6999999997,A,letterenter,O,enter,673,1,2249.199999999255,779063.5000000005,7105,WL,C,9.0
5,22.509000062942505,learn,60000.0,Thu Mar 13 2025 09:07:30 GMT-0500 (Central Daylight Time),782145.6000000001,A,c,O,c,814,1,832.5,781313.1000000001,7105,WL,C,10.0
5,22.70900011062622,learn,60000.0,Thu Mar 13 2025 09:07:30 GMT-0500 (Central Daylight Time),782345.6000000001,A,ca,O,a,188,1,1032.5,781313.1000000001,7105,WL,C,10.0
5,22.858999967575073,learn,60000.0,Thu Mar 13 2025 09:07:30 GMT-0500 (Central Daylight Time),782495.3999999999,A,cam,O,m,141,1,1182.2999999998137,781313.1000000001,7105,WL,C,10.0
5,23.04200005531311,learn,60000.0,Thu Mar 13 2025 09:07:30 GMT-0500 (Central Daylight Time),782678.8000000003,A,camp,O,p,175,1,1365.7000000001863,781313.1000000001,7105,WL,C,10.0
5,23.426000118255615,learn,60000.0,Thu Mar 13 2025 09:07:30 GMT-0500 (Central Daylight Time),783062.1000000001,A,campenter,O,enter,368,1,1749.0,781313.1000000001,7105,WL,C,10.0
5,24.67900013923645,learn,60000.0,Thu Mar 13 2025 09:07:30 GMT-0500 (Central Daylight Time),784315.1999999997,A,f,O,f,1232,1,1252.7999999998137,783062.3999999999,7105,WL,C,11.0
5,24.808000087738037,learn,60000.0,Thu Mar 13 2025 09:07:30 GMT-0500 (Central Daylight Time),784444.5000000005,A,fl,O,l,115,1,1382.1000000005588,783062.3999999999,7105,WL,C,11.0
5,24.924999952316284,learn,60000.0,Thu Mar 13 2025 09:07:30 GMT-0500 (Central Daylight Time),784561.3999999999,A,fla,O,a,106,1,1499.0,783062.3999999999,7105,WL,C,11.0
5,25.308000087738037,learn,60000.0,Thu Mar 13 2025 09:07:30 GMT-0500 (Central Daylight Time),784944.8000000003,A,flag,O,g,373,1,1882.4000000003725,783062.3999999999,7105,WL,C,11.0
5,25.64199995994568,learn,60000.0,Thu Mar 13 2025 09:07:30 GMT-0500 (Central Daylight Time),785278.0000000005,A,flagenter,O,enter,326,1,2215.600000000559,783062.3999999999,7105,WL,C,11.0
5,27.60800004005432,learn,60000.0,Thu Mar 13 2025 09:07:30 GMT-0500 (Central Daylight Time),787243.8000000003,A,t,O,t,1959,1,1965.2999999998137,785278.5000000005,7105,WL,C,12.0
5,28.04200005531311,learn,60000.0,Thu Mar 13 2025 09:07:30 GMT-0500 (Central Daylight Time),787678.3000000003,A,to,O,o,419,1,2399.7999999998137,785278.5000000005,7105,WL,C,12.0
5,28.341000080108643,learn,60000.0,Thu Mar 13 2025 09:07:30 GMT-0500 (Central Daylight Time),787977.1000000001,A,tow,O,w,280,1,2698.5999999996275,785278.5000000005,7105,WL,C,12.0
5,28.407999992370605,learn,60000.0,Thu Mar 13 2025 09:07:30 GMT-0500 (Central Daylight Time),788043.8000000003,A,towe,O,e,53,1,2765.2999999998137,785278.5000000005,7105,WL,C,12.0
5,28.490999937057495,learn,60000.0,Thu Mar 13 2025 09:07:30 GMT-0500 (Central Daylight Time),788127.1999999997,A,tower,O,r,75,1,2848.699999999255,785278.5000000005,7105,WL,C,12.0
5,28.990000009536743,learn,60000.0,Thu Mar 13 2025 09:07:30 GMT-0500 (Central Daylight Time),788626.6000000001,A,towerenter,O,enter,487,1,3348.0999999996275,785278.5000000005,7105,WL,C,12.0
5,29.67300009727478,learn,60000.0,Thu Mar 13 2025 09:07:30 GMT-0500 (Central Daylight Time),789309.6999999997,A,q,O,q,668,1,682.7999999998137,788626.8999999999,7105,WL,C,13.0
5,29.924000024795532,learn,60000.0,Thu Mar 13 2025 09:07:30 GMT-0500 (Central Daylight Time),789560.0000000005,A,qu,O,u,232,1,933.1000000005588,788626.8999999999,7105,WL,C,13.0
5,30.123000144958496,learn,60000.0,Thu Mar 13 2025 09:07:30 GMT-0500 (Central Daylight Time),789759.6999999997,A,que,O,e,191,1,1132.7999999998137,788626.8999999999,7105,WL,C,13.0
5,30.306999921798706,learn,60000.0,Thu Mar 13 2025 09:07:30 GMT-0500 (Central Daylight Time),789943.1999999997,A,quee,O,e,175,1,1316.2999999998137,788626.8999999999,7105,WL,C,13.0
5,30.5239999294281,learn,60000.0,Thu Mar 13 2025 09:07:30 GMT-0500 (Central Daylight Time),790159.8000000003,A,queen,O,n,207,1,1532.9000000003725,788626.8999999999,7105,WL,C,13.0
5,30.789999961853027,learn,60000.0,Thu Mar 13 2025 09:07:30 GMT-0500 (Central Daylight Time),790426.3000000003,A,queenenter,O,enter,255,1,1799.4000000003725,788626.8999999999,7105,WL,C,13.0
5,31.240000009536743,learn,60000.0,Thu Mar 13 2025 09:07:30 GMT-0500 (Central Daylight Time),790875.8999999999,A,h,O,h,444,1,449.20000000018626,790426.6999999997,7105,WL,C,14.0
5,31.390000104904175,learn,60000.0,Thu Mar 13 2025 09:07:30 GMT-0500 (Central Daylight Time),791026.1000000001,A,ho,O,o,138,1,599.4000000003725,790426.6999999997,7105,WL,C,14.0
5,31.572999954223633,learn,60000.0,Thu Mar 13 2025 09:07:30 GMT-0500 (Central Daylight Time),791209.3000000003,A,hom,O,m,165,1,782.6000000005588,790426.6999999997,7105,WL,C,14.0
5,31.723000049591064,learn,60000.0,Thu Mar 13 2025 09:07:30 GMT-0500 (Central Daylight Time),791359.3999999999,A,home,O,e,141,1,932.7000000001863,790426.6999999997,7105,WL,C,14.0
5,32.140000104904175,learn,60000.0,Thu Mar 13 2025 09:07:30 GMT-0500 (Central Daylight Time),791775.8000000003,A,homeenter,O,enter,399,1,1349.1000000005588,790426.6999999997,7105,WL,C,14.0
5,33.039000034332275,learn,60000.0,Thu Mar 13 2025 09:07:30 GMT-0500 (Central Daylight Time),792675.5000000005,A,s,O,s,887,1,899.4000000003725,791776.1000000001,7105,WL,C,15.0
5,33.206000089645386,learn,60000.0,Thu Mar 13 2025 09:07:30 GMT-0500 (Central Daylight Time),792842.3000000003,A,su,O,u,155,1,1066.2000000001863,791776.1000000001,7105,WL,C,15.0
5,33.32299995422363,learn,60000.0,Thu Mar 13 2025 09:07:30 GMT-0500 (Central Daylight Time),792958.8000000003,A,sug,O,g,108,1,1182.7000000001863,791776.1000000001,7105,WL,C,15.0
5,33.50600004196167,learn,60000.0,Thu Mar 13 2025 09:07:30 GMT-0500 (Central Daylight Time),793142.1000000001,A,suga,O,a,176,1,1366.0,791776.1000000001,7105,WL,C,15.0
5,33.72200012207031,learn,60000.0,Thu Mar 13 2025 09:07:30 GMT-0500 (Central Daylight Time),793358.8000000003,A,sugar,O,r,209,1,1582.7000000001863,791776.1000000001,7105,WL,C,15.0
5,34.555999994277954,learn,60000.0,Thu Mar 13 2025 09:07:30 GMT-0500 (Central Daylight Time),794191.8999999999,A,sugarenter,O,enter,815,1,2415.7999999998137,791776.1000000001,7105,WL,C,15.0
6,1.0169999599456787,distr,58983.00004005432,Thu Mar 13 2025 09:07:30 GMT-0500 (Central Daylight Time),862237.3000000003,B,h,O,h,1011,1,1016.5,861220.8000000003,7105,WL,C,1.0
6,1.1999998092651367,distr,58800.00019073486,Thu Mar 13 2025 09:07:30 GMT-0500 (Central Daylight Time),862420.3999999999,B,ho,O,o,169,1,1199.5999999996275,861220.8000000003,7105,WL,C,1.0
6,1.4159998893737793,distr,58584.00011062622,Thu Mar 13 2025 09:07:30 GMT-0500 (Central Daylight Time),862637.0000000005,B,hot,O,t,202,1,1416.2000000001863,861220.8000000003,7105,WL,C,1.0
6,1.5490000247955322,distr,58450.99997520447,Thu Mar 13 2025 09:07:30 GMT-0500 (Central Daylight Time),862770.1999999997,B,hote,O,e,121,1,1549.3999999994412,861220.8000000003,7105,WL,C,1.0
6,1.7330000400543213,distr,58266.99995994568,Thu Mar 13 2025 09:07:30 GMT-0500 (Central Daylight Time),862953.6999999997,B,hotel,O,l,172,1,1732.8999999994412,861220.8000000003,7105,WL,C,1.0
6,2.3489999771118164,distr,57651.00002288818,Thu Mar 13 2025 09:07:30 GMT-0500 (Central Daylight Time),863570.1000000001,B,hotelenter,O,enter,605,1,2349.2999999998137,861220.8000000003,7105,WL,C,1.0
6,2.7819998264312744,distr,57218.000173568726,Thu Mar 13 2025 09:07:30 GMT-0500 (Central Daylight Time),864003.1999999997,B,m,O,m,413,1,432.79999999981374,863570.3999999999,7105,WL,C,2.0
6,3.0490000247955322,distr,56950.99997520447,Thu Mar 13 2025 09:07:30 GMT-0500 (Central Daylight Time),864269.8999999999,B,mo,O,o,259,1,699.5,863570.3999999999,7105,WL,C,2.0
6,3.1489999294281006,distr,56851.0000705719,Thu Mar 13 2025 09:07:30 GMT-0500 (Central Daylight Time),864369.8000000003,B,mon,O,n,89,1,799.4000000003725,863570.3999999999,7105,WL,C,2.0
6,3.2660000324249268,distr,56733.99996757507,Thu Mar 13 2025 09:07:30 GMT-0500 (Central Daylight Time),864486.3000000003,B,mone,O,e,109,1,915.9000000003725,863570.3999999999,7105,WL,C,2.0
6,3.431999921798706,distr,56568.000078201294,Thu Mar 13 2025 09:07:30 GMT-0500 (Central Daylight Time),864653.1000000001,B,money,O,y,152,1,1082.7000000001863,863570.3999999999,7105,WL,C,2.0
6,3.9819998741149902,distr,56018.00012588501,Thu Mar 13 2025 09:07:30 GMT-0500 (Central Daylight Time),865202.8000000003,B,moneyenter,O,enter,529,1,1632.4000000003725,863570.3999999999,7105,WL,C,2.0
6,4.414999961853027,distr,55585.00003814697,Thu Mar 13 2025 09:07:30 GMT-0500 (Central Daylight Time),865635.6999999997,B,f,O,f,428,1,432.5,865203.1999999997,7105,WL,C,3.0
6,4.549000024795532,distr,55450.99997520447,Thu Mar 13 2025 09:07:30 GMT-0500 (Central Daylight Time),865769.3999999999,B,fo,O,o,115,1,566.2000000001863,865203.1999999997,7105,WL,C,3.0
6,4.698999881744385,distr,55301.000118255615,Thu Mar 13 2025 09:07:30 GMT-0500 (Central Daylight Time),865919.3999999999,B,for,O,r,133,1,716.2000000001863,865203.1999999997,7105,WL,C,3.0
6,4.914999961853027,distr,55085.00003814697,Thu Mar 13 2025 09:07:30 GMT-0500 (Central Daylight Time),866136.0000000005,B,fore,O,e,199,1,932.8000000007451,865203.1999999997,7105,WL,C,3.0
6,5.131999969482422,distr,54868.00003051758,Thu Mar 13 2025 09:07:30 GMT-0500 (Central Daylight Time),866352.5000000005,B,fores,O,s,198,1,1149.300000000745,865203.1999999997,7105,WL,C,3.0
6,5.347999811172485,distr,54652.000188827515,Thu Mar 13 2025 09:07:30 GMT-0500 (Central Daylight Time),866569.0000000005,B,forest,O,t,206,1,1365.800000000745,865203.1999999997,7105,WL,C,3.0
6,6.164999961853027,distr,53835.00003814697,Thu Mar 13 2025 09:07:30 GMT-0500 (Central Daylight Time),867385.5000000005,B,forestenter,O,enter,806,1,2182.300000000745,865203.1999999997,7105,WL,C,3.0
6,6.664999961853027,distr,53335.00003814697,Thu Mar 13 2025 09:07:30 GMT-0500 (Central Daylight Time),867885.3000000003,B,t,O,t,485,1,499.5,867385.8000000003,7105,WL,C,4.0
6,6.830999851226807,distr,53169.00014877319,Thu Mar 13 2025 09:07:30 GMT-0500 (Central Daylight Time),868051.6999999997,B,to,O,o,161,1,665.8999999994412,867385.8000000003,7105,WL,C,4.0
6,6.997999906539917,distr,53002.00009346008,Thu Mar 13 2025 09:07:30 GMT-0500 (Central Daylight Time),868218.5000000005,B,too,O,o,147,1,832.7000000001863,867385.8000000003,7105,WL,C,4.0
6,7.2149999141693115,distr,52785.00008583069,Thu Mar 13 2025 09:07:30 GMT-0500 (Central Daylight Time),868435.6000000001,B,tool,O,l,212,1,1049.7999999998137,867385.8000000003,7105,WL,C,4.0
6,7.846999883651733,distr,52153.00011634827,Thu Mar 13 2025 09:07:30 GMT-0500 (Central Daylight Time),869068.1999999997,B,tools,O,s,627,1,1682.3999999994412,867385.8000000003,7105,WL,C,4.0
6,8.197999954223633,distr,51802.00004577637,Thu Mar 13 2025 09:07:30 GMT-0500 (Central Daylight Time),869418.1999999997,B,toolsenter,O,enter,331,1,2032.3999999994412,867385.8000000003,7105,WL,C,4.0
6,8.79699993133545,distr,51203.00006866455,Thu Mar 13 2025 09:07:30 GMT-0500 (Central Daylight Time),870018.1000000001,B,m,O,m,581,1,599.5,869418.6000000001,7105,WL,C,5.0
6,9.030999898910522,distr,50969.00010108948,Thu Mar 13 2025 09:07:30 GMT-0500 (Central Daylight Time),870251.3000000003,B,mo,O,o,220,1,832.7000000001863,869418.6000000001,7105,WL,C,5.0
6,9.179999828338623,distr,50820.00017166138,Thu Mar 13 2025 09:07:30 GMT-0500 (Central Daylight Time),870401.1999999997,B,mon,O,n,139,1,982.5999999996275,869418.6000000001,7105,WL,C,5.0
6,9.330999851226807,distr,50669.00014877319,Thu Mar 13 2025 09:07:30 GMT-0500 (Central Daylight Time),870551.1999999997,B,mone,O,e,133,1,1132.5999999996275,869418.6000000001,7105,WL,C,5.0
6,9.496999979019165,distr,50503.000020980835,Thu Mar 13 2025 09:07:30 GMT-0500 (Central Daylight Time),870717.8000000003,B,money,O,y,151,1,1299.2000000001863,869418.6000000001,7105,WL,C,5.0
6,10.212999820709229,distr,49787.00017929077,Thu Mar 13 2025 09:07:30 GMT-0500 (Central Daylight Time),871434.1999999997,B,moneyenter,O,enter,697,1,2015.5999999996275,869418.6000000001,7105,WL,C,5.0
6,12.245999813079834,distr,47754.000186920166,Thu Mar 13 2025 09:07:30 GMT-0500 (Central Daylight Time),873467.0000000005,B,m,O,m,2013,1,2032.6000000005588,871434.3999999999,7105,WL,C,6.0
6,12.36299991607666,distr,47637.00008392334,Thu Mar 13 2025 09:07:30 GMT-0500 (Central Daylight Time),873583.6999999997,B,mo,O,o,107,1,2149.2999999998137,871434.3999999999,7105,WL,C,6.0
6,12.513000011444092,distr,47486.99998855591,Thu Mar 13 2025 09:07:30 GMT-0500 (Central Daylight Time),873733.5000000005,B,mot,O,t,143,1,2299.100000000559,871434.3999999999,7105,WL,C,6.0
6,12.578999996185303,distr,47421.0000038147,Thu Mar 13 2025 09:07:30 GMT-0500 (Central Daylight Time),873799.8000000003,B,moth,O,h,57,1,2365.4000000003725,871434.3999999999,7105,WL,C,6.0
6,12.662999868392944,distr,47337.000131607056,Thu Mar 13 2025 09:07:30 GMT-0500 (Central Daylight Time),873883.3999999999,B,mothe,O,e,79,1,2449.0,871434.3999999999,7105,WL,C,6.0
6,12.745999813079834,distr,47254.000186920166,Thu Mar 13 2025 09:07:30 GMT-0500 (Central Daylight Time),873966.6999999997,B,mother,O,r,67,1,2532.2999999998137,871434.3999999999,7105,WL,C,6.0
6,13.296000003814697,distr,46703.9999961853,Thu Mar 13 2025 09:07:30 GMT-0500 (Central Daylight Time),874516.6999999997,B,motherenter,O,enter,544,1,3082.2999999998137,871434.3999999999,7105,WL,C,6.0
6,13.678999900817871,distr,46321.00009918213,Thu Mar 13 2025 09:07:30 GMT-0500 (Central Daylight Time),874899.6999999997,B,d,O,d,378,1,382.69999999925494,874517.0000000005,7105,WL,C,7.0
6,13.861999988555908,distr,46138.00001144409,Thu Mar 13 2025 09:07:30 GMT-0500 (Central Daylight Time),875083.1000000001,B,di,O,i,171,1,566.0999999996275,874517.0000000005,7105,WL,C,7.0
6,14.01199984550476,distr,45988.00015449524,Thu Mar 13 2025 09:07:30 GMT-0500 (Central Daylight Time),875233.1000000001,B,dia,O,a,139,1,716.0999999996275,874517.0000000005,7105,WL,C,7.0
6,14.19599986076355,distr,45804.00013923645,Thu Mar 13 2025 09:07:30 GMT-0500 (Central Daylight Time),875416.3000000003,B,diam,O,m,173,1,899.2999999998137,874517.0000000005,7105,WL,C,7.0
6,14.394999980926514,distr,45605.000019073486,Thu Mar 13 2025 09:07:30 GMT-0500 (Central Daylight Time),875616.1999999997,B,diamo,O,o,190,1,1099.199999999255,874517.0000000005,7105,WL,C,7.0
6,14.52899980545044,distr,45471.00019454956,Thu Mar 13 2025 09:07:30 GMT-0500 (Central Daylight Time),875749.6000000001,B,diamon,O,n,126,1,1232.5999999996275,874517.0000000005,7105,WL,C,7.0
6,15.244999885559082,distr,44755.00011444092,Thu Mar 13 2025 09:07:30 GMT-0500 (Central Daylight Time),876466.0000000005,B,diamond,O,d,704,1,1949.0,874517.0000000005,7105,WL,C,7.0
6,16.477999925613403,distr,43522.0000743866,Thu Mar 13 2025 09:07:30 GMT-0500 (Central Daylight Time),877699.1000000001,B,diamondenter,O,enter,1213,1,3182.0999999996275,874517.0000000005,7105,WL,C,7.0
6,17.794999837875366,distr,42205.000162124634,Thu Mar 13 2025 09:07:30 GMT-0500 (Central Daylight Time),879015.3999999999,B,c,O,c,1299,1,1316.0,877699.3999999999,7105,WL,C,8.0
6,17.944000005722046,distr,42055.999994277954,Thu Mar 13 2025 09:07:30 GMT-0500 (Central Daylight Time),879165.1000000001,B,ch,O,h,143,1,1465.7000000001863,877699.3999999999,7105,WL,C,8.0
6,18.128999948501587,distr,41871.00005149841,Thu Mar 13 2025 09:07:30 GMT-0500 (Central Daylight Time),879349.3999999999,B,chr,O,r,178,1,1650.0,877699.3999999999,7105,WL,C,8.0
6,18.26099991798401,distr,41739.00008201599,Thu Mar 13 2025 09:07:30 GMT-0500 (Central Daylight Time),879481.6999999997,B,chri,O,i,121,1,1782.2999999998137,877699.3999999999,7105,WL,C,8.0
6,18.460999965667725,distr,41539.000034332275,Thu Mar 13 2025 09:07:30 GMT-0500 (Central Daylight Time),879681.6999999997,B,chris,O,s,189,1,1982.2999999998137,877699.3999999999,7105,WL,C,8.0
6,18.626999855041504,distr,41373.000144958496,Thu Mar 13 2025 09:07:30 GMT-0500 (Central Daylight Time),879848.1000000001,B,christ,O,t,157,1,2148.7000000001863,877699.3999999999,7105,WL,C,8.0
6,18.76099991798401,distr,41239.00008201599,Thu Mar 13 2025 09:07:30 GMT-0500 (Central Daylight Time),879981.5000000005,B,christm,O,m,126,1,2282.100000000559,877699.3999999999,7105,WL,C,8.0
6,18.893999814987183,distr,41106.00018501282,Thu Mar 13 2025 09:07:30 GMT-0500 (Central Daylight Time),880114.8000000003,B,christma,O,a,121,1,2415.4000000003725,877699.3999999999,7105,WL,C,8.0
6,19.24399995803833,distr,40756.00004196167,Thu Mar 13 2025 09:07:30 GMT-0500 (Central Daylight Time),880464.6999999997,B,christmas,O,s,331,1,2765.2999999998137,877699.3999999999,7105,WL,C,8.0
6,20.126999855041504,distr,39873.000144958496,Thu Mar 13 2025 09:07:30 GMT-0500 (Central Daylight Time),881347.6999999997,B,christmasenter,O,enter,869,1,3648.2999999998137,877699.3999999999,7105,WL,C,8.0
6,20.460000038146973,distr,39539.99996185303,Thu Mar 13 2025 09:07:30 GMT-0500 (Central Daylight Time),881681.1000000001,B,m,O,m,315,1,333.0,881348.1000000001,7105,WL,C,9.0
6,20.64299988746643,distr,39357.00011253357,Thu Mar 13 2025 09:07:30 GMT-0500 (Central Daylight Time),881864.1000000001,B,me,O,e,166,1,516.0,881348.1000000001,7105,WL,C,9.0
6,20.859999895095825,distr,39140.000104904175,Thu Mar 13 2025 09:07:30 GMT-0500 (Central Daylight Time),882081.0000000005,B,mea,O,a,206,1,732.9000000003725,881348.1000000001,7105,WL,C,9.0
6,21.243000030517578,distr,38756.99996948242,Thu Mar 13 2025 09:07:30 GMT-0500 (Central Daylight Time),882464.1000000001,B,meat,O,t,366,1,1116.0,881348.1000000001,7105,WL,C,9.0
6,22.359999895095825,distr,37640.000104904175,Thu Mar 13 2025 09:07:30 GMT-0500 (Central Daylight Time),883580.6000000001,B,meatenter,O,enter,1110,1,2232.5,881348.1000000001,7105,WL,C,9.0
6,25.80900001525879,distr,34190.99998474121,Thu Mar 13 2025 09:07:30 GMT-0500 (Central Daylight Time),887029.1999999997,B,w,O,w,3441,1,3448.399999999441,883580.8000000003,7105,WL,C,10.0
6,25.908999919891357,distr,34091.00008010864,Thu Mar 13 2025 09:07:30 GMT-0500 (Central Daylight Time),887129.1999999997,B,wi,O,i,81,1,3548.399999999441,883580.8000000003,7105,WL,C,10.0
6,25.991999864578247,distr,34008.00013542175,Thu Mar 13 2025 09:07:30 GMT-0500 (Central Daylight Time),887212.6999999997,B,win,O,n,69,1,3631.899999999441,883580.8000000003,7105,WL,C,10.0
6,26.057999849319458,distr,33942.00015068054,Thu Mar 13 2025 09:07:30 GMT-0500 (Central Daylight Time),887279.1999999997,B,wint,O,t,50,1,3698.399999999441,883580.8000000003,7105,WL,C,10.0
6,26.191999912261963,distr,33808.00008773804,Thu Mar 13 2025 09:07:30 GMT-0500 (Central Daylight Time),887412.6000000001,B,winte,O,e,119,1,3831.7999999998137,883580.8000000003,7105,WL,C,10.0
6,26.274999856948853,distr,33725.00014305115,Thu Mar 13 2025 09:07:30 GMT-0500 (Central Daylight Time),887495.8999999999,B,winter,O,r,74,1,3915.0999999996275,883580.8000000003,7105,WL,C,10.0
6,26.807999849319458,distr,33192.00015068054,Thu Mar 13 2025 09:07:30 GMT-0500 (Central Daylight Time),888029.1000000001,B,winterenter,O,enter,518,1,4448.299999999814,883580.8000000003,7105,WL,C,10.0
6,27.674999952316284,distr,32325.000047683716,Thu Mar 13 2025 09:07:30 GMT-0500 (Central Daylight Time),888895.6000000001,B,s,O,s,849,1,866.2999999998137,888029.3000000003,7105,WL,C,11.0
6,27.840999841690063,distr,32159.000158309937,Thu Mar 13 2025 09:07:30 GMT-0500 (Central Daylight Time),889062.0000000005,B,sk,O,k,159,1,1032.7000000001863,888029.3000000003,7105,WL,C,11.0
6,28.141000032424927,distr,31858.999967575073,Thu Mar 13 2025 09:07:30 GMT-0500 (Central Daylight Time),889362.1000000001,B,sky,O,y,281,1,1332.7999999998137,888029.3000000003,7105,WL,C,11.0
6,28.573999881744385,distr,31426.000118255615,Thu Mar 13 2025 09:07:30 GMT-0500 (Central Daylight Time),889795.1000000001,B,skyenter,O,enter,429,1,1765.7999999998137,888029.3000000003,7105,WL,C,11.0
6,29.490999937057495,distr,30509.000062942505,Thu Mar 13 2025 09:07:30 GMT-0500 (Central Daylight Time),890711.6000000001,B,v,O,v,900,1,916.2000000001863,889795.3999999999,7105,WL,C,12.0
6,29.741999864578247,distr,30258.000135421753,Thu Mar 13 2025 09:07:30 GMT-0500 (Central Daylight Time),890962.8000000003,B,va,O,a,231,1,1167.4000000003725,889795.3999999999,7105,WL,C,12.0
6,29.957000017166138,distr,30042.999982833862,Thu Mar 13 2025 09:07:30 GMT-0500 (Central Daylight Time),891177.8999999999,B,val,O,l,204,1,1382.5,889795.3999999999,7105,WL,C,12.0
6,30.073999881744385,distr,29926.000118255615,Thu Mar 13 2025 09:07:30 GMT-0500 (Central Daylight Time),891294.6000000001,B,vall,O,l,109,1,1499.2000000001863,889795.3999999999,7105,WL,C,12.0
6,30.306999921798706,distr,29693.000078201294,Thu Mar 13 2025 09:07:30 GMT-0500 (Central Daylight Time),891528.0000000005,B,vally,O,y,224,1,1732.6000000005588,889795.3999999999,7105,WL,C,12.0
6,32.555999994277954,distr,27444.000005722046,Thu Mar 13 2025 09:07:30 GMT-0500 (Central Daylight Time),893777.1000000001,B,vall,O,backspace,2238,1,3981.7000000001863,889795.3999999999,7105,WL,C,12.0
6,33.40599989891052,distr,26594.000101089478,Thu Mar 13 2025 09:07:30 GMT-0500 (Central Daylight Time),894626.8999999999,B,valle,O,e,837,1,4831.5,889795.3999999999,7105,WL,C,12.0
6,33.972999811172485,distr,26027.000188827515,Thu Mar 13 2025 09:07:30 GMT-0500 (Central Daylight Time),895193.3999999999,B,valley,O,y,556,1,5398.0,889795.3999999999,7105,WL,C,12.0
6,35.289000034332275,distr,24710.999965667725,Thu Mar 13 2025 09:07:30 GMT-0500 (Central Daylight Time),896509.6999999997,B,valleyenter,O,enter,1301,1,6714.299999999814,889795.3999999999,7105,WL,C,12.0
6,36.52199983596802,distr,23478.000164031982,Thu Mar 13 2025 09:07:30 GMT-0500 (Central Daylight Time),897742.6000000001,B,d,O,d,1217,1,1232.5,896510.1000000001,7105,WL,C,13.0
6,36.73799991607666,distr,23262.00008392334,Thu Mar 13 2025 09:07:30 GMT-0500 (Central Daylight Time),897959.1999999997,B,do,O,o,208,1,1449.0999999996275,896510.1000000001,7105,WL,C,13.0
6,37.13800001144409,distr,22861.99998855591,Thu Mar 13 2025 09:07:30 GMT-0500 (Central Daylight Time),898359.1999999997,B,dol,O,l,383,1,1849.0999999996275,896510.1000000001,7105,WL,C,13.0
6,37.25499987602234,distr,22745.00012397766,Thu Mar 13 2025 09:07:30 GMT-0500 (Central Daylight Time),898475.6999999997,B,doll,O,l,103,1,1965.5999999996275,896510.1000000001,7105,WL,C,13.0
6,37.520999908447266,distr,22479.000091552734,Thu Mar 13 2025 09:07:30 GMT-0500 (Central Daylight Time),898742.1999999997,B,dolla,O,a,258,1,2232.0999999996275,896510.1000000001,7105,WL,C,13.0
