acc_sum,block,block_c,condition,correct,correct_response,datetime,endtime,flanker,jitter,project,response,response_test_buffer_response,response_test_target_response,response_time,response_time_test_buffer_response,response_time_test_target_response,row_sel,session_number,start_end,starttime,subject_id,target,task,task_vers,time_test_buffer,time_test_buffer_response,time_test_constants,time_test_flanker,time_test_jitter,time_test_logger,time_test_target,time_test_target_response,time_test_variables,trial
1,prac,1,inc,1,z,Fri Mar 07 2025 14:34:41 GMT-0600 (Central Standard Time),138246.5,napkin,1100,O,z,,,602,,,12,1,3010.7000000029802,135235.79999999702,7099,friend,AF,A,,,,,,,,,,1
2,prac,1,con,1,z,Fri Mar 07 2025 14:34:41 GMT-0600 (Central Standard Time),140860.8999999985,elated,800,O,z,,,503,,,9,1,2606.3000000044703,138254.59999999404,7099,elated,AF,A,,,,,,,,,,2
3,prac,1,con,1,z,Fri Mar 07 2025 14:34:41 GMT-0600 (Central Standard Time),143676.8999999985,rage,1000,O,z,,,511,,,15,1,2808.60000000149,140868.29999999702,7099,rage,AF,A,,,,,,,,,,3
4,prac,1,inc,1,z,Fri Mar 07 2025 14:34:41 GMT-0600 (Central Standard Time),146509.5,film,900,O,z,,,631,,,14,1,2824.7000000029802,143684.79999999702,7099,hate,AF,A,,,,,,,,,,4
5,prac,1,con,1,m,Fri Mar 07 2025 14:34:41 GMT-0600 (Central Standard Time),149059.8999999985,step,800,O,m,,,438,,,1,1,2541.8000000044703,146518.09999999404,7099,step,AF,A,,,,,,,,,,5
6,prac,1,inc,1,m,Fri Mar 07 2025 14:34:41 GMT-0600 (Central Standard Time),152008.79999999702,hate,1100,O,m,,,557,,,4,1,2941.7999999970198,149067.0,7099,film,AF,A,,,,,,,,,,6
7,prac,1,con,1,m,Fri Mar 07 2025 14:34:41 GMT-0600 (Central Standard Time),154791.19999999553,remote,1000,O,m,,,467,,,7,1,2775.6999999955297,152015.5,7099,remote,AF,A,,,,,,,,,,7
8,prac,1,inc,1,m,Fri Mar 07 2025 14:34:41 GMT-0600 (Central Standard Time),157622.8999999985,kind,900,O,m,,,618,,,2,1,2826.0,154796.8999999985,7099,rock,AF,A,,,,,,,,,,8
9,prac,1,con,1,m,Fri Mar 07 2025 14:34:41 GMT-0600 (Central Standard Time),160623.0,bell,1000,O,m,,,695,,,3,1,2992.8000000044703,157630.19999999553,7099,bell,AF,A,,,,,,,,,,9
10,prac,1,inc,1,z,Fri Mar 07 2025 14:34:41 GMT-0600 (Central Standard Time),163387.8999999985,rock,900,O,z,,,555,,,10,1,2759.10000000149,160628.79999999702,7099,kind,AF,A,,,,,,,,,,10
11,prac,1,con,1,z,Fri Mar 07 2025 14:34:41 GMT-0600 (Central Standard Time),166069.5,love,1000,O,z,,,376,,,11,1,2675.5,163394.0,7099,love,AF,A,,,,,,,,,,11
12,prac,1,inc,1,z,Fri Mar 07 2025 14:34:41 GMT-0600 (Central Standard Time),169152.3999999985,window,1100,O,z,,,675,,,16,1,3076.60000000149,166075.79999999702,7099,temper,AF,A,,,,,,,,,,12
13,prac,1,inc,1,m,Fri Mar 07 2025 14:34:41 GMT-0600 (Central Standard Time),172150.5,brutal,1100,O,m,,,584,,,8,1,2993.7000000029802,169156.79999999702,7099,window,AF,A,,,,,,,,,,13
14,prac,1,inc,1,m,Fri Mar 07 2025 14:34:41 GMT-0600 (Central Standard Time),174968.09999999404,elated,900,O,m,,,615,,,6,1,2813.5,172154.59999999404,7099,napkin,AF,A,,,,,,,,,,14
15,prac,1,con,1,z,Fri Mar 07 2025 14:34:41 GMT-0600 (Central Standard Time),177432.59999999404,brutal,800,O,z,,,365,,,13,1,2456.0,174976.59999999404,7099,brutal,AF,A,,,,,,,,,,15
16,prac,1,con,1,m,Fri Mar 07 2025 14:34:41 GMT-0600 (Central Standard Time),180134.29999999702,jacket,800,O,m,,,588,,,5,1,2697.2000000029802,177437.09999999404,7099,jacket,AF,A,,,,,,,,,,16
1,test,1,con,1,m,Fri Mar 07 2025 14:34:41 GMT-0600 (Central Standard Time),194978.59999999404,rock,900,O,m,m,None,483,267.0,216.0,74,1,1912.2999999970198,193066.29999999702,7099,rock,AF,A,191972,191972,190327,191239,190328,192240,191756,191756,192240,1
2,test,1,inc,1,m,Fri Mar 07 2025 14:34:41 GMT-0600 (Central Standard Time),196943.0,kind,900,O,m,m,None,527,326.0,201.0,86,1,1959.8000000044703,194983.19999999553,7099,bell,AF,A,193873,193873,192244,193157,192245,194204,193671,193671,194204,2
3,test,1,inc,1,m,Fri Mar 07 2025 14:34:41 GMT-0600 (Central Standard Time),199076.79999999702,hate,1100,O,m,m,None,497,298.0,199.0,96,1,2127.7000000029802,196949.09999999404,7099,film,AF,A,196039,196039,194210,195321,194211,196338,195839,195839,196338,3
4,test,1,con,1,z,Fri Mar 07 2025 14:34:41 GMT-0600 (Central Standard Time),200908.3999999985,kind,800,O,z,z,None,497,297.0,200.0,9,1,1823.0,199085.3999999985,7099,kind,AF,A,197871,197871,196346,197154,196347,198170,197670,197670,198169,4
5,test,1,con,1,m,Fri Mar 07 2025 14:34:41 GMT-0600 (Central Standard Time),202726.3999999985,step,800,O,m,m,None,465,266.0,199.0,65,1,1809.8000000044703,200916.59999999404,7099,step,AF,A,199703,199704,198178,198987,198178,199988,199504,199504,199987,5
6,test,1,inc,1,z,Fri Mar 07 2025 14:34:41 GMT-0600 (Central Standard Time),204772.8999999985,rock,900,O,z,z,None,606,404.0,202.0,46,1,2038.5,202734.3999999985,7099,hate,AF,A,201619,201619,199995,200906,199996,202034,201416,201416,202034,6
7,test,1,inc,1,m,Fri Mar 07 2025 14:34:41 GMT-0600 (Central Standard Time),206823.09999999404,love,1000,O,m,m,None,511,310.0,201.0,95,1,2043.0,204780.09999999404,7099,film,AF,A,203770,203770,202041,203053,202042,204084,203568,203568,204084,7
8,test,1,con,1,m,Fri Mar 07 2025 14:34:41 GMT-0600 (Central Standard Time),208706.5,napkin,800,O,m,m,None,540,326.0,214.0,105,1,1877.8000000044703,206828.69999999553,7099,napkin,AF,A,205634,205634,204090,204901,204090,205968,205419,205419,205967,8
9,test,1,inc,1,z,Fri Mar 07 2025 14:34:41 GMT-0600 (Central Standard Time),210604.09999999404,rock,900,O,z,z,None,460,245.0,215.0,14,1,1892.2999999970198,208711.79999999702,7099,kind,AF,A,207618,207618,205973,206885,205973,207865,207402,207402,207865,9
10,test,1,con,1,z,Fri Mar 07 2025 14:34:41 GMT-0600 (Central Standard Time),212904.69999999553,rage,1100,O,z,z,None,659,460.0,199.0,52,1,2294.7999999970198,210609.8999999985,7099,rage,AF,A,209699,209699,207871,208984,207871,210166,209500,209500,210166,10
11,test,1,inc,1,z,Fri Mar 07 2025 14:34:41 GMT-0600 (Central Standard Time),215020.29999999702,jacket,800,O,z,z,None,780,579.0,201.0,29,1,2109.5,212910.79999999702,7099,friend,AF,A,211701,211701,210172,210985,210172,212282,211500,211500,212281,11
12,test,1,con,1,z,Fri Mar 07 2025 14:34:41 GMT-0600 (Central Standard Time),216801.59999999404,friend,800,O,z,z,None,446,232.0,214.0,25,1,1775.0999999940395,215026.5,7099,friend,AF,A,213830,213830,212288,213099,212288,214063,213615,213615,214063,12
13,test,1,con,1,m,Fri Mar 07 2025 14:34:41 GMT-0600 (Central Standard Time),218704.09999999404,remote,900,O,m,m,None,453,237.0,216.0,114,1,1899.0,216805.09999999404,7099,remote,AF,A,215714,215714,214066,214982,214066,215965,215498,215498,215965,13
14,test,1,con,1,z,Fri Mar 07 2025 14:34:41 GMT-0600 (Central Standard Time),220669.79999999702,brutal,1000,O,z,z,None,432,233.0,199.0,35,1,1959.7999999970198,218710.0,7099,brutal,AF,A,217697,217697,215971,216983,215971,217931,217498,217498,217931,14
15,test,1,inc,1,m,Fri Mar 07 2025 14:34:41 GMT-0600 (Central Standard Time),222551.19999999553,rage,800,O,m,m,None,534,334.0,200.0,85,1,1875.5,220675.69999999553,7099,bell,AF,A,219465,219465,217937,218748,217937,219812,219263,219264,219812,15
16,test,1,inc,1,z,Fri Mar 07 2025 14:34:41 GMT-0600 (Central Standard Time),224620.8999999985,bell,1000,O,z,z,None,536,335.0,201.0,47,1,2063.60000000149,222557.29999999702,7099,hate,AF,A,221547,221547,219818,220832,219819,221882,221346,221346,221882,16
17,test,1,con,1,z,Fri Mar 07 2025 14:34:41 GMT-0600 (Central Standard Time),226766.29999999702,kind,900,O,z,z,None,703,502.0,201.0,10,1,2140.89999999851,224625.3999999985,7099,kind,AF,A,223513,223513,221886,222795,221887,224027,223312,223312,224027,17
18,test,1,inc,1,m,Fri Mar 07 2025 14:34:41 GMT-0600 (Central Standard Time),228932.59999999404,friend,1100,O,m,m,None,520,304.0,216.0,104,1,2161.0,226771.59999999404,7099,jacket,AF,A,225878,225879,224033,225147,224033,226194,225661,225662,226194,18
19,test,1,inc,1,z,Fri Mar 07 2025 14:34:41 GMT-0600 (Central Standard Time),230897.3999999985,jacket,800,O,z,z,None,620,406.0,214.0,37,1,1959.0,228938.3999999985,7099,brutal,AF,A,227744,227744,226199,227011,226200,228158,227529,227529,228158,19
20,test,1,inc,1,z,Fri Mar 07 2025 14:34:41 GMT-0600 (Central Standard Time),232815.59999999404,step,800,O,z,z,None,575,361.0,214.0,13,1,1914.2999999970198,230901.29999999702,7099,kind,AF,A,229710,229710,228162,228978,228163,230077,229495,229495,230077,20
21,test,1,con,1,m,Fri Mar 07 2025 14:34:41 GMT-0600 (Central Standard Time),234781.09999999404,film,1000,O,m,m,None,420,220.0,200.0,91,1,1961.1999999955297,232819.8999999985,7099,film,AF,A,231811,231811,230081,231094,230081,232042,231611,231611,232042,21
22,test,1,con,1,m,Fri Mar 07 2025 14:34:41 GMT-0600 (Central Standard Time),236581.5,rock,800,O,m,m,None,464,248.0,216.0,73,1,1794.8000000044703,234786.69999999553,7099,rock,AF,A,233593,233593,232048,232860,232048,233843,233377,233377,233843,22
23,test,1,inc,1,z,Fri Mar 07 2025 14:34:41 GMT-0600 (Central Standard Time),238464.09999999404,rock,900,O,z,z,None,444,244.0,200.0,22,1,1877.5,236586.59999999404,7099,love,AF,A,235475,235475,233848,234760,233848,235725,235275,235275,235725,23
24,test,1,inc,1,m,Fri Mar 07 2025 14:34:41 GMT-0600 (Central Standard Time),240397.8999999985,brutal,900,O,m,m,None,518,318.0,200.0,110,1,1929.6000000014901,238468.29999999702,7099,napkin,AF,A,237341,237341,235729,236640,235730,237659,237141,237141,237659,24
25,test,1,con,1,z,Fri Mar 07 2025 14:34:41 GMT-0600 (Central Standard Time),242545.19999999553,temper,1100,O,z,z,None,508,308.0,200.0,60,1,2142.7999999970198,240402.3999999985,7099,temper,AF,A,239491,239491,237663,238774,237664,239806,239291,239291,239806,25
26,test,1,inc,1,z,Fri Mar 07 2025 14:34:41 GMT-0600 (Central Standard Time),244677.0,film,1100,O,z,z,None,486,287.0,199.0,56,1,2127.5,242549.5,7099,rage,AF,A,241640,241640,239811,240922,239811,241938,241441,241441,241938,26
27,test,1,con,1,m,Fri Mar 07 2025 14:34:41 GMT-0600 (Central Standard Time),246828.29999999702,bell,1100,O,m,m,None,531,314.0,217.0,84,1,2146.5,244681.79999999702,7099,bell,AF,A,243774,243775,241943,243056,241943,244089,243557,243557,244089,27
28,test,1,con,1,z,Fri Mar 07 2025 14:34:41 GMT-0600 (Central Standard Time),248909.3999999985,kind,1100,O,z,z,None,445,245.0,200.0,12,1,2077.2000000029802,246832.19999999553,7099,kind,AF,A,245922,245922,244093,245205,244094,246170,245721,245721,246170,28
29,test,1,con,1,m,Fri Mar 07 2025 14:34:41 GMT-0600 (Central Standard Time),250956.79999999702,napkin,1100,O,m,m,None,415,202.0,213.0,108,1,2043.3999999985099,248913.3999999985,7099,napkin,AF,A,248004,248004,246174,247287,246175,248218,247790,247790,248218,29
30,test,1,con,1,z,Fri Mar 07 2025 14:34:41 GMT-0600 (Central Standard Time),252792.59999999404,brutal,900,O,z,z,None,400,185.0,215.0,34,1,1832.6999999955297,250959.8999999985,7099,brutal,AF,A,249854,249854,248221,249123,248221,250054,249639,249639,250054,30
31,test,1,inc,1,z,Fri Mar 07 2025 14:34:41 GMT-0600 (Central Standard Time),254725.3999999985,jacket,800,O,z,z,None,596,381.0,215.0,61,1,1927.7000000029802,252797.69999999553,7099,temper,AF,A,251603,251603,250059,250870,250059,251986,251388,251388,251986,31
32,test,1,con,1,m,Fri Mar 07 2025 14:34:41 GMT-0600 (Central Standard Time),256524.69999999553,bell,800,O,m,m,None,455,255.0,200.0,81,1,1795.6999999955297,254729.0,7099,bell,AF,A,253519,253520,251990,252803,251990,253786,253319,253319,253786,32
33,test,1,inc,1,z,Fri Mar 07 2025 14:34:41 GMT-0600 (Central Standard Time),258691.3999999985,film,1100,O,z,z,None,524,324.0,200.0,16,1,2161.3000000044703,256530.09999999404,7099,kind,AF,A,255619,255619,253791,254902,253791,255952,255419,255419,255952,33
34,test,1,inc,1,m,Fri Mar 07 2025 14:34:41 GMT-0600 (Central Standard Time),260655.5,kind,900,O,m,m,None,526,311.0,215.0,78,1,1960.9000000059605,258694.59999999404,7099,rock,AF,A,257601,257601,255956,256869,255956,257917,257386,257386,257917,34
35,test,1,con,1,m,Fri Mar 07 2025 14:34:41 GMT-0600 (Central Standard Time),262772.799999997,film,1100,O,m,m,None,487,271.0,216.0,92,1,2112.89999999851,260659.8999999985,7099,film,AF,A,259751,259752,257921,259034,257921,260034,259535,259535,260034,35
36,test,1,con,1,z,Fri Mar 07 2025 14:34:41 GMT-0600 (Central Standard Time),264855.5,friend,1000,O,z,z,None,535,320.0,215.0,27,1,2078.10000000149,262777.3999999985,7099,friend,AF,A,261783,261783,260038,261051,260039,262117,261568,261568,262116,36
37,test,1,inc,1,m,Fri Mar 07 2025 14:34:41 GMT-0600 (Central Standard Time),266889.3999999985,love,1000,O,m,m,None,509,310.0,199.0,71,1,2028.8000000044703,264860.59999999404,7099,step,AF,A,263834,263834,262122,263132,262122,264150,263634,263634,264150,37
38,test,1,inc,1,m,Fri Mar 07 2025 14:34:41 GMT-0600 (Central Standard Time),268937.299999997,love,1000,O,m,m,None,508,309.0,199.0,79,1,2043.3999999985099,266893.8999999985,7099,rock,AF,A,265882,265882,264155,265167,264155,266198,265682,265682,266198,38
39,test,1,inc,1,z,Fri Mar 07 2025 14:34:41 GMT-0600 (Central Standard Time),271019.8999999985,bell,1000,O,z,z,None,537,323.0,214.0,15,1,2077.5,268942.3999999985,7099,kind,AF,A,267948,267948,266203,267217,266204,268281,267733,267733,268281,39
40,test,1,inc,1,z,Fri Mar 07 2025 14:34:41 GMT-0600 (Central Standard Time),273352.799999997,window,1100,O,z,z,None,684,484.0,200.0,64,1,2328.2000000029802,271024.59999999404,7099,temper,AF,A,270115,270115,268286,269398,268286,270614,269915,269915,270614,40
41,test,1,con,1,m,Fri Mar 07 2025 14:34:41 GMT-0600 (Central Standard Time),275501.59999999404,window,1000,O,m,m,None,599,400.0,199.0,123,1,2144.0,273357.59999999404,7099,window,AF,A,272346,272346,270619,271632,270619,272763,272147,272147,272763,41
42,test,1,inc,1,m,Fri Mar 07 2025 14:34:41 GMT-0600 (Central Standard Time),277368.8999999985,rage,800,O,m,m,None,517,318.0,199.0,69,1,1862.3000000044703,275506.59999999404,7099,step,AF,A,274297,274297,272768,273581,272768,274630,274097,274097,274630,42
43,test,1,con,1,z,Fri Mar 07 2025 14:34:41 GMT-0600 (Central Standard Time),279434.19999999553,friend,1100,O,z,z,None,416,217.0,199.0,28,1,2059.6999999955297,277374.5,7099,friend,AF,A,276462,276462,274636,275746,274636,276695,276262,276262,276695,43
44,test,1,con,1,m,Fri Mar 07 2025 14:34:41 GMT-0600 (Central Standard Time),281468.299999997,jacket,900,O,m,m,None,600,400.0,200.0,98,1,2028.1000000014901,279440.19999999553,7099,jacket,AF,A,278329,278329,276701,277613,276702,278729,278129,278129,278729,44
45,test,1,con,1,m,Fri Mar 07 2025 14:34:41 GMT-0600 (Central Standard Time),283466.799999997,remote,1000,O,m,m,None,458,241.0,217.0,115,1,1992.7000000029802,281474.09999999404,7099,remote,AF,A,280478,280478,278735,279744,278736,280728,280261,280261,280728,45
46,test,1,con,1,m,Fri Mar 07 2025 14:34:41 GMT-0600 (Central Standard Time),285465.69999999553,bell,1000,O,m,m,None,465,266.0,199.0,83,1,1989.6999999955297,283476.0,7099,bell,AF,A,282445,282445,280737,281744,280738,282727,282245,282245,282727,46
47,test,1,con,1,m,Fri Mar 07 2025 14:34:41 GMT-0600 (Central Standard Time),287533.09999999404,jacket,1100,O,m,m,None,434,233.0,201.0,100,1,2060.39999999851,285472.69999999553,7099,jacket,AF,A,284561,284561,282734,283845,282734,284794,284359,284359,284794,47
48,test,1,inc,1,z,Fri Mar 07 2025 14:34:41 GMT-0600 (Central Standard Time),289414.299999997,step,800,O,z,z,None,546,347.0,199.0,21,1,1873.8999999985099,287540.3999999985,7099,love,AF,A,286325,286325,284801,285610,284802,286675,286126,286126,286675,48
49,test,1,con,1,m,Fri Mar 07 2025 14:34:41 GMT-0600 (Central Standard Time),291315.299999997,jacket,800,O,m,m,None,567,367.0,200.0,97,1,1895.6000000014901,289419.69999999553,7099,jacket,AF,A,288209,288209,286681,287494,286681,288576,288009,288009,288576,49
50,test,1,inc,1,m,Fri Mar 07 2025 14:34:41 GMT-0600 (Central Standard Time),293245.69999999553,elated,800,O,m,m,None,586,370.0,216.0,125,1,1925.6000000014901,291320.09999999404,7099,window,AF,A,290125,290125,288581,289392,288582,290507,289909,289909,290507,50
51,test,1,inc,1,m,Fri Mar 07 2025 14:34:41 GMT-0600 (Central Standard Time),295044.799999997,elated,800,O,m,m,None,461,245.0,216.0,117,1,1789.3999999985099,293255.3999999985,7099,remote,AF,A,292058,292058,290516,291325,290517,292306,291842,291842,292306,51
52,test,1,inc,1,m,Fri Mar 07 2025 14:34:41 GMT-0600 (Central Standard Time),297314.799999997,hate,1100,O,m,m,None,627,426.0,201.0,80,1,2260.7000000029802,295054.09999999404,7099,rock,AF,A,294141,294141,292315,293424,292316,294576,293940,293940,294576,52
53,test,1,inc,1,z,Fri Mar 07 2025 14:34:41 GMT-0600 (Central Standard Time),299527.09999999404,window,1100,O,z,z,None,576,377.0,199.0,8,1,2208.1999999955297,297318.8999999985,7099,elated,AF,A,296406,296406,294580,295692,294580,296788,296207,296207,296788,53
54,test,1,con,1,z,Fri Mar 07 2025 14:34:41 GMT-0600 (Central Standard Time),301560.59999999404,temper,1000,O,z,z,None,507,308.0,199.0,59,1,2028.0999999940395,299532.5,7099,temper,AF,A,298507,298507,296794,297805,296794,298822,298307,298307,298821,54
55,test,1,con,1,m,Fri Mar 07 2025 14:34:41 GMT-0600 (Central Standard Time),303393.09999999404,film,900,O,m,m,None,394,193.0,201.0,90,1,1825.5,301567.59999999404,7099,film,AF,A,300455,300455,298829,299738,298829,300654,300254,300254,300654,55
56,test,1,con,1,m,Fri Mar 07 2025 14:34:41 GMT-0600 (Central Standard Time),305243.3999999985,window,900,O,m,m,None,432,215.0,217.0,122,1,1844.0,303399.3999999985,7099,window,AF,A,302289,302289,300660,301571,300661,302504,302072,302072,302504,56
57,test,1,con,1,m,Fri Mar 07 2025 14:34:41 GMT-0600 (Central Standard Time),307259.3999999985,step,1000,O,m,m,None,466,251.0,215.0,67,1,2010.8999999985099,305248.5,7099,step,AF,A,304254,304254,302510,303521,302510,304521,304038,304038,304520,57
58,test,1,inc,1,z,Fri Mar 07 2025 14:34:41 GMT-0600 (Central Standard Time),309226.299999997,napkin,900,O,z,z,None,516,317.0,199.0,6,1,1959.7000000029802,307266.59999999404,7099,elated,AF,A,306154,306154,304528,305436,304528,306487,305954,305954,306487,58
59,test,1,con,1,z,Fri Mar 07 2025 14:34:41 GMT-0600 (Central Standard Time),311172.8999999985,kind,1000,O,z,z,None,413,213.0,200.0,11,1,1936.6000000014901,309236.299999997,7099,kind,AF,A,308219,308219,306497,307503,306498,308434,308019,308019,308434,59
60,test,1,inc,1,m,Fri Mar 07 2025 14:34:41 GMT-0600 (Central Standard Time),313091.299999997,kind,900,O,m,m,None,481,266.0,215.0,94,1,1909.3999999985099,311181.8999999985,7099,film,AF,A,310086,310086,308443,309352,308443,310352,309870,309870,310352,60
61,test,1,con,1,m,Fri Mar 07 2025 14:34:41 GMT-0600 (Central Standard Time),315139.5,window,1100,O,m,m,None,405,206.0,199.0,124,1,2041.9000000059605,313097.59999999404,7099,window,AF,A,312185,312185,310359,311468,310359,312401,311985,311985,312401,61
62,test,1,inc,1,m,Fri Mar 07 2025 14:34:41 GMT-0600 (Central Standard Time),317339.5,hate,1100,O,m,m,None,568,366.0,202.0,88,1,2194.2000000029802,315145.299999997,7099,bell,AF,A,314234,314234,312406,313518,312407,314601,314032,314032,314600,62
62,test,1,con,0,z,Fri Mar 07 2025 14:34:41 GMT-0600 (Central Standard Time),319038.0,temper,800,O,m,m,None,378,162.0,216.0,57,1,1693.6000000014901,317344.3999999985,7099,temper,AF,A,316134,316134,314605,315415,314606,316299,315917,315917,316299,63
62,test,1,con,0,z,Fri Mar 07 2025 14:34:41 GMT-0600 (Central Standard Time),320905.3999999985,elated,800,O,m,m,None,525,325.0,200.0,1,1,1862.6000000014901,319042.799999997,7099,elated,AF,A,317833,317833,316304,317117,316304,318166,317633,317633,318166,64
63,test,1,inc,1,z,Fri Mar 07 2025 14:34:41 GMT-0600 (Central Standard Time),322953.3999999985,remote,1000,O,z,z,None,510,310.0,200.0,31,1,2045.3000000044703,320908.09999999404,7099,friend,AF,A,319898,319898,318169,319181,318169,320214,319698,319698,320214,65
64,test,1,con,1,z,Fri Mar 07 2025 14:34:41 GMT-0600 (Central Standard Time),324836.19999999553,love,900,O,z,z,None,439,240.0,199.0,18,1,1878.0,322958.19999999553,7099,love,AF,A,321848,321848,320219,321131,320219,322097,321649,321649,322097,66
65,test,1,inc,1,z,Fri Mar 07 2025 14:34:41 GMT-0600 (Central Standard Time),326884.69999999553,rock,900,O,z,z,None,605,389.0,216.0,54,1,2043.6000000014901,324841.09999999404,7099,rage,AF,A,323747,323747,322102,323014,322102,324146,323530,323530,324146,67
66,test,1,con,1,z,Fri Mar 07 2025 14:34:41 GMT-0600 (Central Standard Time),329001.19999999553,brutal,1100,O,z,z,None,467,268.0,199.0,36,1,2111.6999999955297,326889.5,7099,brutal,AF,A,325979,325979,324151,325264,324151,326262,325779,325779,326262,68
67,test,1,inc,1,m,Fri Mar 07 2025 14:34:41 GMT-0600 (Central Standard Time),330851.299999997,elated,800,O,m,m,None,514,315.0,199.0,109,1,1845.1000000014901,329006.19999999553,7099,napkin,AF,A,327797,327797,326267,327080,326268,328112,327597,327597,328112,69
68,test,1,inc,1,m,Fri Mar 07 2025 14:34:41 GMT-0600 (Central Standard Time),332816.299999997,brutal,900,O,m,m,None,516,301.0,215.0,118,1,1960.2999999970198,330856.0,7099,remote,AF,A,329762,329762,328117,329029,328117,330077,329546,329546,330077,70
69,test,1,inc,1,m,Fri Mar 07 2025 14:34:41 GMT-0600 (Central Standard Time),334749.799999997,brutal,900,O,m,m,None,487,288.0,199.0,126,1,1927.7999999970198,332822.0,7099,window,AF,A,331712,331712,330083,330995,330083,332011,331512,331512,332011,71
70,test,1,inc,1,m,Fri Mar 07 2025 14:34:41 GMT-0600 (Central Standard Time),336699.09999999404,kind,900,O,m,m,None,524,324.0,200.0,70,1,1944.5,334754.59999999404,7099,step,AF,A,333628,333628,332016,332927,332016,333960,333428,333428,333960,72
71,test,1,inc,1,z,Fri Mar 07 2025 14:34:41 GMT-0600 (Central Standard Time),338881.59999999404,window,1100,O,z,z,None,532,333.0,199.0,32,1,2177.39999999851,336704.19999999553,7099,friend,AF,A,335795,335795,333965,335077,333966,336143,335595,335595,336143,73
72,test,1,inc,1,z,Fri Mar 07 2025 14:34:41 GMT-0600 (Central Standard Time),340914.19999999553,bell,1000,O,z,z,None,514,299.0,215.0,55,1,2026.2999999970198,338887.8999999985,7099,rage,AF,A,337876,337876,336149,337159,336149,338175,337660,337660,338175,74
73,test,1,inc,1,z,Fri Mar 07 2025 14:34:41 GMT-0600 (Central Standard Time),343097.3999999985,remote,1000,O,z,z,None,634,416.0,218.0,63,1,2179.89999999851,340917.5,7099,temper,AF,A,339927,339927,338179,339193,338179,340359,339709,339709,340358,75
74,test,1,con,1,m,Fri Mar 07 2025 14:34:41 GMT-0600 (Central Standard Time),345163.59999999404,step,1100,O,m,m,None,417,217.0,200.0,68,1,2061.0,343102.59999999404,7099,step,AF,A,342191,342191,340364,341475,340364,342425,341991,341991,342425,76
75,test,1,con,1,m,Fri Mar 07 2025 14:34:41 GMT-0600 (Central Standard Time),347061.69999999553,bell,900,O,m,m,None,460,246.0,214.0,82,1,1892.5,345169.19999999553,7099,bell,AF,A,344074,344074,342430,343342,342431,344323,343859,343859,344323,77
76,test,1,inc,1,m,Fri Mar 07 2025 14:34:41 GMT-0600 (Central Standard Time),348962.8999999985,rage,800,O,m,m,None,550,350.0,200.0,77,1,1896.3000000044703,347066.59999999404,7099,rock,AF,A,345858,345858,344328,345141,344328,346224,345657,345657,346224,78
77,test,1,con,1,m,Fri Mar 07 2025 14:34:41 GMT-0600 (Central Standard Time),351163.5,rock,1100,O,m,m,None,583,367.0,216.0,76,1,2197.10000000149,348966.3999999985,7099,rock,AF,A,348057,348057,346227,347339,346228,348425,347841,347841,348425,79
78,test,1,inc,1,m,Fri Mar 07 2025 14:34:41 GMT-0600 (Central Standard Time),353044.0,elated,800,O,m,m,None,538,324.0,214.0,101,1,1876.4000000059605,351167.59999999404,7099,jacket,AF,A,349971,349971,348429,349240,348429,350305,349756,349756,350305,80
79,test,1,inc,1,z,Fri Mar 07 2025 14:34:41 GMT-0600 (Central Standard Time),355011.299999997,napkin,900,O,z,z,None,516,317.0,199.0,38,1,1961.7000000029802,353049.59999999404,7099,brutal,AF,A,351938,351938,350311,351221,350311,352272,351738,351738,352272,81
80,test,1,con,1,z,Fri Mar 07 2025 14:34:41 GMT-0600 (Central Standard Time),356809.5,hate,800,O,z,z,None,450,234.0,216.0,41,1,1793.1000000014901,355016.3999999985,7099,hate,AF,A,353821,353821,352277,353088,352278,354071,353605,353605,354071,82
81,test,1,con,1,z,Fri Mar 07 2025 14:34:41 GMT-0600 (Central Standard Time),358757.799999997,love,1000,O,z,z,None,401,186.0,215.0,19,1,1943.3999999985099,356814.3999999985,7099,love,AF,A,355821,355821,354075,355088,354076,356019,355605,355605,356019,83
82,test,1,inc,1,m,Fri Mar 07 2025 14:34:41 GMT-0600 (Central Standard Time),360807.0,temper,1000,O,m,m,None,510,311.0,199.0,119,1,2044.9000000059605,358762.09999999404,7099,remote,AF,A,357753,357753,356023,357037,356024,358068,357554,357554,358068,84
83,test,1,inc,1,z,Fri Mar 07 2025 14:34:41 GMT-0600 (Central Standard Time),362924.59999999404,film,1100,O,z,z,None,484,283.0,201.0,24,1,2113.39999999851,360811.19999999553,7099,love,AF,A,359902,359902,358072,359185,358073,360186,359701,359701,360186,85
84,test,1,con,1,m,Fri Mar 07 2025 14:34:41 GMT-0600 (Central Standard Time),364889.0,napkin,1000,O,m,m,None,418,217.0,201.0,107,1,1958.7000000029802,362930.299999997,7099,napkin,AF,A,361918,361918,360191,361202,360192,362150,361717,361717,362150,86
85,test,1,inc,1,z,Fri Mar 07 2025 14:34:41 GMT-0600 (Central Standard Time),366773.5,step,800,O,z,z,None,548,333.0,215.0,53,1,1879.7000000029802,364893.799999997,7099,rage,AF,A,363701,363701,362155,362968,362155,364035,363485,363485,364035,87
86,test,1,inc,1,z,Fri Mar 07 2025 14:34:41 GMT-0600 (Central Standard Time),368906.3999999985,remote,1000,O,z,z,None,599,399.0,200.0,7,1,2126.39999999851,366780.0,7099,elated,AF,A,365768,365768,364041,365049,364041,366167,365567,365567,366167,88
87,test,1,inc,1,m,Fri Mar 07 2025 14:34:41 GMT-0600 (Central Standard Time),371103.3999999985,friend,1100,O,m,m,None,566,367.0,199.0,112,1,2191.10000000149,368912.299999997,7099,napkin,AF,A,367984,367984,366173,367283,366174,368365,367785,367785,368364,89
88,test,1,con,1,m,Fri Mar 07 2025 14:34:41 GMT-0600 (Central Standard Time),373104.5,jacket,1000,O,m,m,None,462,261.0,201.0,99,1,1995.0,371109.5,7099,jacket,AF,A,370099,370099,368371,369382,368371,370366,369898,369898,370366,90
89,test,1,con,1,m,Fri Mar 07 2025 14:34:41 GMT-0600 (Central Standard Time),374904.19999999553,remote,800,O,m,m,None,460,245.0,215.0,113,1,1795.2999999970198,373108.8999999985,7099,remote,AF,A,371914,371914,370370,371181,370370,372165,371698,371698,372165,91
90,test,1,con,1,z,Fri Mar 07 2025 14:34:41 GMT-0600 (Central Standard Time),376702.09999999404,rage,800,O,z,z,None,453,253.0,200.0,49,1,1793.1999999955297,374908.8999999985,7099,rage,AF,A,373698,373698,372170,372982,372170,373963,373498,373498,373963,92
91,test,1,con,1,z,Fri Mar 07 2025 14:34:41 GMT-0600 (Central Standard Time),378852.19999999553,elated,1100,O,z,z,None,506,291.0,215.0,4,1,2145.89999999851,376706.299999997,7099,elated,AF,A,375813,375813,373967,375082,373968,376113,375598,375598,376113,93
92,test,1,con,1,z,Fri Mar 07 2025 14:34:41 GMT-0600 (Central Standard Time),380668.0,love,800,O,z,z,None,482,282.0,200.0,17,1,1811.6000000014901,378856.3999999985,7099,love,AF,A,377647,377647,376117,376930,376118,377929,377447,377447,377929,94
93,test,1,con,1,z,Fri Mar 07 2025 14:34:41 GMT-0600 (Central Standard Time),382917.0,hate,1100,O,z,z,None,616,415.0,201.0,44,1,2245.5,380671.5,7099,hate,AF,A,379763,379763,377933,379048,377933,380178,379562,379562,380178,95
94,test,1,inc,1,z,Fri Mar 07 2025 14:34:41 GMT-0600 (Central Standard Time),385100.299999997,window,1100,O,z,z,None,539,340.0,199.0,40,1,2178.39999999851,382921.8999999985,7099,brutal,AF,A,382012,382012,380183,381295,380183,382361,381813,381813,382361,96
95,test,1,inc,1,m,Fri Mar 07 2025 14:34:41 GMT-0600 (Central Standard Time),387300.3999999985,hate,1100,O,m,m,None,550,351.0,199.0,72,1,2195.0,385105.3999999985,7099,step,AF,A,384194,384194,382366,383479,382367,384562,383994,383994,384561,97
96,test,1,con,1,m,Fri Mar 07 2025 14:34:41 GMT-0600 (Central Standard Time),389148.799999997,window,800,O,m,m,None,504,290.0,214.0,121,1,1843.2000000029802,387305.59999999404,7099,window,AF,A,386110,386110,384567,385379,384567,386410,385894,385895,386410,98
97,test,1,inc,1,m,Fri Mar 07 2025 14:34:41 GMT-0600 (Central Standard Time),391267.59999999404,temper,1000,O,m,m,None,583,370.0,213.0,103,1,2114.1999999955297,389153.3999999985,7099,jacket,AF,A,388141,388141,386414,387426,386415,388529,387928,387928,388529,99
98,test,1,con,1,z,Fri Mar 07 2025 14:34:41 GMT-0600 (Central Standard Time),393214.09999999404,elated,900,O,z,z,None,498,299.0,199.0,2,1,1941.7999999970198,391272.299999997,7099,elated,AF,A,390159,390160,388533,389443,388534,390475,389960,389960,390475,100
99,test,1,inc,1,m,Fri Mar 07 2025 14:34:41 GMT-0600 (Central Standard Time),395263.8999999985,love,1000,O,m,m,None,502,303.0,199.0,87,1,2045.2000000029802,393218.69999999553,7099,bell,AF,A,392208,392208,390480,391492,390480,392525,392009,392009,392525,101
100,test,1,con,1,z,Fri Mar 07 2025 14:34:41 GMT-0600 (Central Standard Time),397479.8999999985,love,1100,O,z,z,None,578,379.0,199.0,20,1,2212.39999999851,395267.5,7099,love,AF,A,394357,394357,392529,393641,392529,394741,394158,394158,394741,102
101,test,1,inc,1,z,Fri Mar 07 2025 14:34:41 GMT-0600 (Central Standard Time),399645.799999997,remote,1000,O,z,z,None,621,422.0,199.0,39,1,2160.7999999970198,397485.0,7099,brutal,AF,A,396473,396473,394746,395758,394746,396907,396274,396274,396907,103
102,test,1,inc,1,m,Fri Mar 07 2025 14:34:41 GMT-0600 (Central Standard Time),401661.69999999553,brutal,900,O,m,m,None,569,354.0,215.0,102,1,2010.6000000014901,399651.09999999404,7099,jacket,AF,A,398557,398557,396912,397823,396913,398923,398342,398342,398923,104
103,test,1,inc,1,m,Fri Mar 07 2025 14:34:41 GMT-0600 (Central Standard Time),403876.5,friend,1100,O,m,m,None,570,370.0,200.0,120,1,2210.2000000029802,401666.299999997,7099,remote,AF,A,400757,400757,398927,400040,398928,401138,400556,400556,401138,105
104,test,1,con,1,m,Fri Mar 07 2025 14:34:41 GMT-0600 (Central Standard Time),405709.799999997,film,800,O,m,m,None,495,293.0,202.0,89,1,1827.1000000014901,403882.69999999553,7099,film,AF,A,402674,402674,401144,401957,401144,402971,402472,402472,402971,106
105,test,1,con,1,m,Fri Mar 07 2025 14:34:41 GMT-0600 (Central Standard Time),407643.299999997,napkin,900,O,m,m,None,497,297.0,200.0,106,1,1929.3999999985099,405713.8999999985,7099,napkin,AF,A,404607,404607,402975,403889,402975,404904,404406,404406,404904,107
106,test,1,inc,1,m,Fri Mar 07 2025 14:34:41 GMT-0600 (Central Standard Time),409708.59999999404,temper,1000,O,m,m,None,531,332.0,199.0,127,1,2060.6999999955297,407647.8999999985,7099,window,AF,A,406637,406637,404909,405922,404909,406970,406438,406438,406970,108
107,test,1,con,1,z,Fri Mar 07 2025 14:34:41 GMT-0600 (Central Standard Time),411610.19999999553,hate,900,O,z,z,None,460,244.0,216.0,42,1,1897.5,409712.69999999553,7099,hate,AF,A,408620,408620,406974,407887,406974,408871,408404,408404,408871,109
108,test,1,inc,1,z,Fri Mar 07 2025 14:34:41 GMT-0600 (Central Standard Time),413773.09999999404,bell,1000,O,z,z,None,644,444.0,200.0,23,1,2155.7999999970198,411617.299999997,7099,love,AF,A,410587,410587,408878,409886,408879,411034,410387,410387,411034,110
109,test,1,con,1,z,Fri Mar 07 2025 14:34:41 GMT-0600 (Central Standard Time),415857.799999997,elated,1000,O,z,z,None,534,335.0,199.0,3,1,2078.39999999851,413779.3999999985,7099,elated,AF,A,412769,412769,411040,412053,411041,413119,412570,412570,413119,111
110,test,1,inc,1,m,Fri Mar 07 2025 14:34:41 GMT-0600 (Central Standard Time),418039.69999999553,friend,1100,O,m,m,None,534,335.0,199.0,128,1,2176.7999999970198,415862.8999999985,7099,window,AF,A,414952,414952,413124,414234,413124,415301,414753,414753,415301,112
111,test,1,con,1,m,Fri Mar 07 2025 14:34:41 GMT-0600 (Central Standard Time),420123.09999999404,remote,1100,O,m,m,None,450,251.0,199.0,116,1,2079.5,418043.59999999404,7099,remote,AF,A,417133,417133,415305,416419,415305,417384,416933,416933,417384,113
112,test,1,con,1,m,Fri Mar 07 2025 14:34:41 GMT-0600 (Central Standard Time),421989.0,step,900,O,m,m,None,423,206.0,217.0,66,1,1858.3000000044703,420130.69999999553,7099,step,AF,A,419034,419034,417392,418301,417392,419250,418817,418817,419250,114
113,test,1,inc,1,z,Fri Mar 07 2025 14:34:41 GMT-0600 (Central Standard Time),423838.5,jacket,800,O,z,z,None,515,315.0,200.0,5,1,1844.5,421994.0,7099,elated,AF,A,420784,420784,419255,420067,419255,421100,420584,420584,421100,115
114,test,1,inc,1,z,Fri Mar 07 2025 14:34:41 GMT-0600 (Central Standard Time),426486.69999999553,napkin,900,O,z,z,None,1228,1027.0,201.0,30,1,2644.39999999851,423842.299999997,7099,friend,AF,A,422717,422717,421103,422014,421104,423748,422515,422515,423748,116
115,test,1,inc,1,z,Fri Mar 07 2025 14:34:41 GMT-0600 (Central Standard Time),428553.3999999985,napkin,900,O,z,z,None,628,428.0,200.0,62,1,2061.2000000029802,426492.19999999553,7099,temper,AF,A,425380,425380,423753,424663,423754,425814,425180,425180,425814,117
116,test,1,con,1,z,Fri Mar 07 2025 14:34:41 GMT-0600 (Central Standard Time),430501.5,rage,900,O,z,z,None,518,319.0,199.0,50,1,1944.6000000014901,428556.8999999985,7099,rage,AF,A,427432,427432,425818,426729,425818,427763,427232,427232,427763,118
117,test,1,inc,1,z,Fri Mar 07 2025 14:34:41 GMT-0600 (Central Standard Time),432652.799999997,film,1100,O,z,z,None,506,290.0,216.0,48,1,2145.2999999970198,430507.5,7099,hate,AF,A,429613,429614,427769,428882,427769,429914,429397,429397,429914,119
118,test,1,con,1,z,Fri Mar 07 2025 14:34:41 GMT-0600 (Central Standard Time),434617.59999999404,hate,1000,O,z,z,None,426,209.0,217.0,43,1,1960.0,432657.59999999404,7099,hate,AF,A,431663,431663,429919,430930,429919,431879,431446,431446,431879,120
119,test,1,con,1,z,Fri Mar 07 2025 14:34:41 GMT-0600 (Central Standard Time),436583.59999999404,rage,1000,O,z,z,None,418,218.0,200.0,51,1,1962.0999999940395,434621.5,7099,rage,AF,A,433613,433613,431883,432896,431883,433845,433413,433413,433845,121
120,test,1,con,1,z,Fri Mar 07 2025 14:34:41 GMT-0600 (Central Standard Time),438420.3999999985,temper,900,O,z,z,None,391,191.0,200.0,58,1,1831.7000000029802,436588.69999999553,7099,temper,AF,A,435479,435479,433850,434762,433850,435681,435277,435278,435681,122
121,test,1,inc,1,m,Fri Mar 07 2025 14:34:41 GMT-0600 (Central Standard Time),440183.59999999404,rage,800,O,m,m,None,429,230.0,199.0,93,1,1759.6999999955297,438423.8999999985,7099,film,AF,A,437210,437210,435685,436496,435685,437445,437011,437011,437445,123
122,test,1,con,1,z,Fri Mar 07 2025 14:34:41 GMT-0600 (Central Standard Time),441932.3999999985,brutal,800,O,z,z,None,416,216.0,200.0,33,1,1744.3000000044703,440188.09999999404,7099,brutal,AF,A,438977,438977,437449,438260,437450,439193,438777,438777,439193,124
123,test,1,inc,1,z,Fri Mar 07 2025 14:34:41 GMT-0600 (Central Standard Time),443814.19999999553,step,800,O,z,z,None,536,336.0,200.0,45,1,1878.1000000014901,441936.09999999404,7099,hate,AF,A,440727,440727,439197,440010,439197,441075,440527,440527,441075,125
124,test,1,con,1,m,Fri Mar 07 2025 14:34:41 GMT-0600 (Central Standard Time),445915.09999999404,rock,1000,O,m,m,None,566,367.0,199.0,75,1,2096.5,443818.59999999404,7099,rock,AF,A,442809,442809,441080,442094,441080,443176,442610,442610,443176,126
124,test,1,con,0,z,Fri Mar 07 2025 14:34:41 GMT-0600 (Central Standard Time),447780.19999999553,friend,900,O,m,m,None,421,221.0,200.0,26,1,1860.5,445919.69999999553,7099,friend,AF,A,444810,444810,443181,444093,443181,445041,444609,444609,445041,127
125,test,1,inc,1,m,Fri Mar 07 2025 14:34:41 GMT-0600 (Central Standard Time),449812.5,temper,1000,O,m,m,None,496,296.0,200.0,111,1,2028.6000000014901,447783.8999999985,7099,napkin,AF,A,446776,446776,445045,446058,445045,447074,446575,446575,447073,128
