acc_sum,block,block_c,change,condition,correct,correct_response,datetime,endtime,face,project,response,response_time,row_sel,session_number,start_end,starttime,subject_id,task,task_vers,trial
0,prac,1,,1-Back,,,Mon Mar 31 2025 10:53:48 GMT-0400 (Eastern Daylight Time),,124_o_f_d_a.png,I,space,12843,1,1,,,9013,VNB,A,0
0,prac,1,0.0,1-Back,0,m,Mon Mar 31 2025 10:53:48 GMT-0400 (Eastern Daylight Time),134023.09999990463,071_y_f_n_a.png,I,z,1080,2,1,1900.5999999046326,132122.5,9013,VNB,A,1
1,prac,1,0.0,1-Back,1,m,Mon Mar 31 2025 10:53:48 GMT-0400 (Eastern Daylight Time),136606.69999980927,165_m_m_h_a.png,I,m,1756,3,1,2568.4000000953674,134038.2999997139,9013,VNB,A,2
1,prac,1,0.0,1-Back,0,m,Mon Mar 31 2025 10:53:48 GMT-0400 (Eastern Daylight Time),138706.2999997139,109_y_m_d_a.png,I,z,1260,4,1,2085.2999997138977,136621.0,9013,VNB,A,3
1,prac,1,0.0,1-Back,0,m,Mon Mar 31 2025 10:53:48 GMT-0400 (Eastern Daylight Time),141589.5,124_o_f_n_a.png,I,None,2015,5,1,2869.2000002861023,138720.2999997139,9013,VNB,A,4
2,prac,1,1.0,1-Back,1,z,Mon Mar 31 2025 10:53:48 GMT-0400 (Eastern Daylight Time),143639.7999997139,109_y_m_n_a.png,I,z,1203,6,1,2031.9000000953674,141607.89999961853,9013,VNB,A,5
3,prac,1,0.0,1-Back,1,m,Mon Mar 31 2025 10:53:48 GMT-0400 (Eastern Daylight Time),145423.09999990463,039_o_m_h_a.png,I,m,957,7,1,1768.0999999046326,143655.0,9013,VNB,A,6
3,prac,1,0.0,1-Back,0,m,Mon Mar 31 2025 10:53:48 GMT-0400 (Eastern Daylight Time),147439.69999980927,139_m_f_d_a.png,I,z,1190,8,1,2002.0,145437.69999980927,9013,VNB,A,7
3,prac,1,1.0,1-Back,0,z,Mon Mar 31 2025 10:53:48 GMT-0400 (Eastern Daylight Time),150272.89999961853,071_y_f_d_a.png,I,None,2007,9,1,2815.5999999046326,147457.2999997139,9013,VNB,A,8
3,prac,1,0.0,1-Back,0,m,Mon Mar 31 2025 10:53:48 GMT-0400 (Eastern Daylight Time),152506.39999961853,165_m_m_n_a.png,I,z,1395,10,1,2218.2999997138977,150288.09999990463,9013,VNB,A,9
3,prac,1,0.0,1-Back,0,m,Mon Mar 31 2025 10:53:48 GMT-0400 (Eastern Daylight Time),154989.59999990463,124_o_f_h_a.png,I,z,1628,11,1,2468.800000190735,152520.7999997139,9013,VNB,A,10
3,prac,1,0.0,1-Back,0,m,Mon Mar 31 2025 10:53:48 GMT-0400 (Eastern Daylight Time),157789.5,109_y_m_d_a.png,I,None,2014,12,1,2781.5,155008.0,9013,VNB,A,11
0,prac,2,0.0,1-Back,,,Mon Mar 31 2025 10:53:48 GMT-0400 (Eastern Daylight Time),157789.5,124_o_f_d_a.png,I,a,10102,1,1,2781.5,155008.0,9013,VNB,A,0
1,prac,2,0.0,1-Back,1,m,Mon Mar 31 2025 10:53:48 GMT-0400 (Eastern Daylight Time),172889.59999990463,071_y_f_n_a.png,I,m,1111,2,1,1934.5999999046326,170955.0,9013,VNB,A,1
2,prac,2,0.0,1-Back,1,m,Mon Mar 31 2025 10:53:48 GMT-0400 (Eastern Daylight Time),174689.89999961853,165_m_m_h_a.png,I,m,970,3,1,1785.5999999046326,172904.2999997139,9013,VNB,A,2
3,prac,2,0.0,1-Back,1,m,Mon Mar 31 2025 10:53:48 GMT-0400 (Eastern Daylight Time),176323.0,109_y_m_d_a.png,I,m,845,4,1,1619.0,174704.0,9013,VNB,A,3
4,prac,2,0.0,1-Back,1,m,Mon Mar 31 2025 10:53:48 GMT-0400 (Eastern Daylight Time),178139.59999990463,124_o_f_n_a.png,I,m,929,5,1,1799.2000002861023,176340.39999961853,9013,VNB,A,4
5,prac,2,1.0,1-Back,1,z,Mon Mar 31 2025 10:53:48 GMT-0400 (Eastern Daylight Time),179772.89999961853,109_y_m_n_a.png,I,z,784,6,1,1618.6999998092651,178154.19999980927,9013,VNB,A,5
6,prac,2,0.0,1-Back,1,m,Mon Mar 31 2025 10:53:48 GMT-0400 (Eastern Daylight Time),181522.89999961853,039_o_m_h_a.png,I,m,921,7,1,1735.8999996185303,179787.0,9013,VNB,A,6
7,prac,2,0.0,1-Back,1,m,Mon Mar 31 2025 10:53:48 GMT-0400 (Eastern Daylight Time),183073.0,139_m_f_d_a.png,I,m,721,8,1,1535.0,181538.0,9013,VNB,A,7
8,prac,2,1.0,1-Back,1,z,Mon Mar 31 2025 10:53:48 GMT-0400 (Eastern Daylight Time),185089.59999990463,071_y_f_d_a.png,I,z,1190,9,1,2002.9000000953674,183086.69999980927,9013,VNB,A,8
9,prac,2,0.0,1-Back,1,m,Mon Mar 31 2025 10:53:48 GMT-0400 (Eastern Daylight Time),187072.89999961853,165_m_m_n_a.png,I,m,1153,10,1,1967.8999996185303,185105.0,9013,VNB,A,9
10,prac,2,0.0,1-Back,1,m,Mon Mar 31 2025 10:53:48 GMT-0400 (Eastern Daylight Time),188756.2999997139,124_o_f_h_a.png,I,m,823,11,1,1667.2999997138977,187089.0,9013,VNB,A,10
11,prac,2,0.0,1-Back,1,m,Mon Mar 31 2025 10:53:48 GMT-0400 (Eastern Daylight Time),190356.19999980927,109_y_m_d_a.png,I,m,811,12,1,1585.5,188770.69999980927,9013,VNB,A,11
0,test,1,0.0,1-Back,,,Mon Mar 31 2025 10:53:48 GMT-0400 (Eastern Daylight Time),190356.19999980927,071_y_f_d_a.png,I,space,11677,1,1,1585.5,188770.69999980927,9013,VNB,A,0
1,test,1,0.0,1-Back,1,m,Mon Mar 31 2025 10:53:48 GMT-0400 (Eastern Daylight Time),215322.7999997139,139_m_f_n_a.png,I,m,1369,2,1,2387.4000000953674,212935.39999961853,9013,VNB,A,1
2,test,1,0.0,1-Back,1,m,Mon Mar 31 2025 10:53:48 GMT-0400 (Eastern Daylight Time),217039.69999980927,039_o_m_h_a.png,I,m,696,3,1,1704.0999999046326,215335.59999990463,9013,VNB,A,2
3,test,1,1.0,1-Back,1,z,Mon Mar 31 2025 10:53:48 GMT-0400 (Eastern Daylight Time),218856.19999980927,165_m_m_h_a.png,I,z,788,4,1,1803.0,217053.19999980927,9013,VNB,A,3
4,test,1,0.0,1-Back,1,m,Mon Mar 31 2025 10:53:48 GMT-0400 (Eastern Daylight Time),220556.19999980927,124_o_f_n_a.png,I,m,667,5,1,1687.8000001907349,218868.39999961853,9013,VNB,A,4
5,test,1,0.0,1-Back,1,m,Mon Mar 31 2025 10:53:48 GMT-0400 (Eastern Daylight Time),222306.09999990463,109_y_m_d_a.png,I,m,728,6,1,1737.3000001907349,220568.7999997139,9013,VNB,A,5
6,test,1,1.0,1-Back,1,z,Mon Mar 31 2025 10:53:48 GMT-0400 (Eastern Daylight Time),224156.19999980927,139_m_f_d_a.png,I,z,817,7,1,1836.6999998092651,222319.5,9013,VNB,A,6
7,test,1,0.0,1-Back,1,m,Mon Mar 31 2025 10:53:48 GMT-0400 (Eastern Daylight Time),225806.0,071_y_f_h_a.png,I,m,616,8,1,1636.5,224169.5,9013,VNB,A,7
8,test,1,0.0,1-Back,1,m,Mon Mar 31 2025 10:53:48 GMT-0400 (Eastern Daylight Time),227522.89999961853,039_o_m_n_a.png,I,m,694,9,1,1704.1999998092651,225818.69999980927,9013,VNB,A,8
9,test,1,0.0,1-Back,1,m,Mon Mar 31 2025 10:53:48 GMT-0400 (Eastern Daylight Time),229572.7999997139,109_y_m_h_a.png,I,m,1025,10,1,2036.5,227536.2999997139,9013,VNB,A,9
10,test,1,0.0,1-Back,1,m,Mon Mar 31 2025 10:53:48 GMT-0400 (Eastern Daylight Time),231422.39999961853,039_o_m_d_a.png,I,m,814,11,1,1831.3999996185303,229591.0,9013,VNB,A,10
11,test,1,1.0,1-Back,1,z,Mon Mar 31 2025 10:53:48 GMT-0400 (Eastern Daylight Time),233239.39999961853,124_o_f_d_a.png,I,z,789,12,1,1803.0,231436.39999961853,9013,VNB,A,11
12,test,1,0.0,1-Back,1,m,Mon Mar 31 2025 10:53:48 GMT-0400 (Eastern Daylight Time),234972.7999997139,165_m_m_n_a.png,I,m,700,13,1,1719.5999999046326,233253.19999980927,9013,VNB,A,12
13,test,1,1.0,1-Back,1,z,Mon Mar 31 2025 10:53:48 GMT-0400 (Eastern Daylight Time),236806.09999990463,071_y_f_n_a.png,I,z,790,14,1,1816.8000001907349,234989.2999997139,9013,VNB,A,13
14,test,1,0.0,1-Back,1,m,Mon Mar 31 2025 10:53:48 GMT-0400 (Eastern Daylight Time),238756.19999980927,139_m_f_h_a.png,I,m,926,15,1,1937.0999999046326,236819.09999990463,9013,VNB,A,14
14,test,1,0.0,1-Back,0,m,Mon Mar 31 2025 10:53:48 GMT-0400 (Eastern Daylight Time),240706.09999990463,165_m_m_d_a.png,I,z,928,16,1,1937.5,238768.59999990463,9013,VNB,A,15
15,test,1,0.0,1-Back,1,m,Mon Mar 31 2025 10:53:48 GMT-0400 (Eastern Daylight Time),243072.69999980927,109_y_m_n_a.png,I,m,1346,17,1,2353.699999809265,240719.0,9013,VNB,A,16
16,test,1,0.0,1-Back,1,m,Mon Mar 31 2025 10:53:48 GMT-0400 (Eastern Daylight Time),245189.5,124_o_f_h_a.png,I,m,1091,18,1,2104.300000190735,243085.19999980927,9013,VNB,A,17
0,test,2,0.0,1-Back,,,Mon Mar 31 2025 10:53:48 GMT-0400 (Eastern Daylight Time),245189.5,109_y_m_n_a.png,I,space,3030,1,1,2104.300000190735,243085.19999980927,9013,VNB,A,0
1,test,2,0.0,1-Back,1,m,Mon Mar 31 2025 10:53:48 GMT-0400 (Eastern Daylight Time),252256.5,071_y_f_h_a.png,I,m,997,2,1,2004.9000000953674,250251.59999990463,9013,VNB,A,1
2,test,2,1.0,1-Back,1,m,Mon Mar 31 2025 10:53:48 GMT-0400 (Eastern Daylight Time),253989.5,039_o_m_n_a.png,I,m,691,3,1,1716.9000000953674,252272.59999990463,9013,VNB,A,2
3,test,2,0.0,1-Back,1,m,Mon Mar 31 2025 10:53:48 GMT-0400 (Eastern Daylight Time),256072.7999997139,139_m_f_d_a.png,I,m,1055,4,1,2068.7999997138977,254004.0,9013,VNB,A,3
4,test,2,0.0,1-Back,1,z,Mon Mar 31 2025 10:53:48 GMT-0400 (Eastern Daylight Time),257989.5,165_m_m_d_a.png,I,z,890,5,1,1903.2000002861023,256086.2999997139,9013,VNB,A,4
5,test,2,0.0,1-Back,1,m,Mon Mar 31 2025 10:53:48 GMT-0400 (Eastern Daylight Time),259906.09999990463,109_y_m_h_a.png,I,m,895,6,1,1903.7000002861023,258002.39999961853,9013,VNB,A,5
6,test,2,1.0,1-Back,1,z,Mon Mar 31 2025 10:53:48 GMT-0400 (Eastern Daylight Time),261872.69999980927,124_o_f_h_a.png,I,z,947,7,1,1953.5,259919.19999980927,9013,VNB,A,6
7,test,2,0.0,1-Back,1,m,Mon Mar 31 2025 10:53:48 GMT-0400 (Eastern Daylight Time),263989.39999961853,139_m_f_n_a.png,I,m,1091,8,1,2103.2999997138977,261886.09999990463,9013,VNB,A,7
8,test,2,0.0,1-Back,1,m,Mon Mar 31 2025 10:53:48 GMT-0400 (Eastern Daylight Time),266172.59999990463,071_y_f_d_a.png,I,m,1151,9,1,2169.5,264003.09999990463,9013,VNB,A,8
9,test,2,0.0,1-Back,1,m,Mon Mar 31 2025 10:53:48 GMT-0400 (Eastern Daylight Time),267939.59999990463,165_m_m_n_a.png,I,m,743,10,1,1752.8000001907349,266186.7999997139,9013,VNB,A,9
10,test,2,1.0,1-Back,1,m,Mon Mar 31 2025 10:53:48 GMT-0400 (Eastern Daylight Time),269739.59999990463,139_m_f_h_a.png,I,m,769,11,1,1787.8000001907349,267951.7999997139,9013,VNB,A,10
11,test,2,0.0,1-Back,1,z,Mon Mar 31 2025 10:53:48 GMT-0400 (Eastern Daylight Time),271589.5,039_o_m_h_a.png,I,z,825,12,1,1834.8000001907349,269754.69999980927,9013,VNB,A,11
12,test,2,0.0,1-Back,1,m,Mon Mar 31 2025 10:53:48 GMT-0400 (Eastern Daylight Time),273456.0,109_y_m_d_a.png,I,m,846,13,1,1853.4000000953674,271602.59999990463,9013,VNB,A,12
13,test,2,0.0,1-Back,1,m,Mon Mar 31 2025 10:53:48 GMT-0400 (Eastern Daylight Time),275606.09999990463,124_o_f_n_a.png,I,m,1124,14,1,2137.4000000953674,273468.69999980927,9013,VNB,A,13
14,test,2,0.0,1-Back,1,z,Mon Mar 31 2025 10:53:48 GMT-0400 (Eastern Daylight Time),277472.69999980927,071_y_f_n_a.png,I,z,846,15,1,1853.3000001907349,275619.39999961853,9013,VNB,A,14
15,test,2,1.0,1-Back,1,m,Mon Mar 31 2025 10:53:48 GMT-0400 (Eastern Daylight Time),279156.2999997139,165_m_m_h_a.png,I,m,658,16,1,1670.7999997138977,277485.5,9013,VNB,A,15
16,test,2,0.0,1-Back,1,m,Mon Mar 31 2025 10:53:48 GMT-0400 (Eastern Daylight Time),281422.2999997139,124_o_f_d_a.png,I,m,1248,17,1,2252.9000000953674,279169.39999961853,9013,VNB,A,16
17,test,2,1.0,1-Back,1,z,Mon Mar 31 2025 10:53:48 GMT-0400 (Eastern Daylight Time),283406.2999997139,039_o_m_d_a.png,I,z,965,18,1,1972.5,281433.7999997139,9013,VNB,A,17
0,test,3,1.0,1-Back,,,Mon Mar 31 2025 10:53:48 GMT-0400 (Eastern Daylight Time),283406.2999997139,124_o_f_h_a.png,I,space,1869,1,1,1972.5,281433.7999997139,9013,VNB,A,0
1,test,3,0.0,1-Back,1,m,Mon Mar 31 2025 10:53:48 GMT-0400 (Eastern Daylight Time),289256.19999980927,139_m_f_d_a.png,I,m,855,2,1,1871.5,287384.69999980927,9013,VNB,A,1
2,test,3,1.0,1-Back,1,m,Mon Mar 31 2025 10:53:48 GMT-0400 (Eastern Daylight Time),291006.19999980927,165_m_m_n_a.png,I,m,732,3,1,1736.5,289269.69999980927,9013,VNB,A,2
3,test,3,0.0,1-Back,1,z,Mon Mar 31 2025 10:53:48 GMT-0400 (Eastern Daylight Time),292789.5,124_o_f_n_a.png,I,z,758,4,1,1771.2000002861023,291018.2999997139,9013,VNB,A,3
4,test,3,1.0,1-Back,1,m,Mon Mar 31 2025 10:53:48 GMT-0400 (Eastern Daylight Time),294522.7999997139,039_o_m_d_a.png,I,m,702,5,1,1720.5,292802.2999997139,9013,VNB,A,4
5,test,3,0.0,1-Back,1,m,Mon Mar 31 2025 10:53:48 GMT-0400 (Eastern Daylight Time),296756.0,071_y_f_h_a.png,I,m,1209,6,1,2219.0,294537.0,9013,VNB,A,5
6,test,3,0.0,1-Back,1,z,Mon Mar 31 2025 10:53:48 GMT-0400 (Eastern Daylight Time),298656.0,109_y_m_h_a.png,I,z,879,7,1,1884.9000000953674,296771.09999990463,9013,VNB,A,6
7,test,3,0.0,1-Back,1,m,Mon Mar 31 2025 10:53:48 GMT-0400 (Eastern Daylight Time),300772.89999961853,139_m_f_n_a.png,I,m,1092,8,1,2103.5999999046326,298669.2999997139,9013,VNB,A,7
8,test,3,0.0,1-Back,1,m,Mon Mar 31 2025 10:53:48 GMT-0400 (Eastern Daylight Time),302939.39999961853,071_y_f_d_a.png,I,m,1135,9,1,2153.0999999046326,300786.2999997139,9013,VNB,A,8
9,test,3,1.0,1-Back,1,m,Mon Mar 31 2025 10:53:48 GMT-0400 (Eastern Daylight Time),305206.09999990463,039_o_m_n_a.png,I,m,1241,10,1,2253.5,302952.59999990463,9013,VNB,A,9
10,test,3,0.0,1-Back,1,m,Mon Mar 31 2025 10:53:48 GMT-0400 (Eastern Daylight Time),306972.69999980927,165_m_m_h_a.png,I,m,733,11,1,1753.1999998092651,305219.5,9013,VNB,A,10
11,test,3,0.0,1-Back,1,z,Mon Mar 31 2025 10:53:48 GMT-0400 (Eastern Daylight Time),308672.39999961853,139_m_f_h_a.png,I,z,679,12,1,1687.0,306985.39999961853,9013,VNB,A,11
12,test,3,1.0,1-Back,1,m,Mon Mar 31 2025 10:53:48 GMT-0400 (Eastern Daylight Time),310439.5,124_o_f_d_a.png,I,m,739,13,1,1753.7000002861023,308685.7999997139,9013,VNB,A,12
13,test,3,0.0,1-Back,1,z,Mon Mar 31 2025 10:53:48 GMT-0400 (Eastern Daylight Time),312222.2999997139,165_m_m_d_a.png,I,z,765,14,1,1769.5,310452.7999997139,9013,VNB,A,13
14,test,3,0.0,1-Back,1,m,Mon Mar 31 2025 10:53:48 GMT-0400 (Eastern Daylight Time),314056.09999990463,109_y_m_n_a.png,I,m,805,15,1,1822.3000001907349,312233.7999997139,9013,VNB,A,14
15,test,3,1.0,1-Back,1,m,Mon Mar 31 2025 10:53:48 GMT-0400 (Eastern Daylight Time),315889.2999997139,039_o_m_h_a.png,I,m,811,16,1,1820.0999999046326,314069.19999980927,9013,VNB,A,15
16,test,3,0.0,1-Back,1,m,Mon Mar 31 2025 10:53:48 GMT-0400 (Eastern Daylight Time),317639.2999997139,109_y_m_d_a.png,I,m,723,17,1,1737.5,315901.7999997139,9013,VNB,A,16
17,test,3,1.0,1-Back,1,m,Mon Mar 31 2025 10:53:48 GMT-0400 (Eastern Daylight Time),319556.09999990463,071_y_f_n_a.png,I,m,892,18,1,1902.9000000953674,317653.19999980927,9013,VNB,A,17
0,test,4,1.0,1-Back,,,Mon Mar 31 2025 10:53:48 GMT-0400 (Eastern Daylight Time),319556.09999990463,165_m_m_d_a.png,I,space,1848,1,1,1902.9000000953674,317653.19999980927,9013,VNB,A,0
1,test,4,0.0,1-Back,1,z,Mon Mar 31 2025 10:53:48 GMT-0400 (Eastern Daylight Time),325406.2999997139,039_o_m_d_a.png,I,z,966,2,1,1970.1999998092651,323436.09999990463,9013,VNB,A,1
2,test,4,0.0,1-Back,1,m,Mon Mar 31 2025 10:53:48 GMT-0400 (Eastern Daylight Time),327089.2999997139,109_y_m_h_a.png,I,m,662,3,1,1669.1999998092651,325420.09999990463,9013,VNB,A,2
3,test,4,0.0,1-Back,1,m,Mon Mar 31 2025 10:53:48 GMT-0400 (Eastern Daylight Time),328939.39999961853,139_m_f_n_a.png,I,m,818,4,1,1836.7999997138977,327102.59999990463,9013,VNB,A,3
4,test,4,1.0,1-Back,1,m,Mon Mar 31 2025 10:53:48 GMT-0400 (Eastern Daylight Time),330672.5,124_o_f_h_a.png,I,m,712,5,1,1719.8000001907349,328952.69999980927,9013,VNB,A,4
5,test,4,0.0,1-Back,1,m,Mon Mar 31 2025 10:53:48 GMT-0400 (Eastern Daylight Time),332356.0,165_m_m_n_a.png,I,m,658,6,1,1670.1000003814697,330685.89999961853,9013,VNB,A,5
6,test,4,0.0,1-Back,1,m,Mon Mar 31 2025 10:53:48 GMT-0400 (Eastern Daylight Time),334089.39999961853,109_y_m_d_a.png,I,m,703,7,1,1720.0,332369.39999961853,9013,VNB,A,6
7,test,4,1.0,1-Back,1,z,Mon Mar 31 2025 10:53:48 GMT-0400 (Eastern Daylight Time),335856.0,071_y_f_d_a.png,I,z,747,8,1,1751.6000003814697,334104.39999961853,9013,VNB,A,7
8,test,4,0.0,1-Back,1,m,Mon Mar 31 2025 10:53:48 GMT-0400 (Eastern Daylight Time),337588.89999961853,139_m_f_h_a.png,I,m,709,9,1,1720.1999998092651,335868.69999980927,9013,VNB,A,8
9,test,4,0.0,1-Back,1,z,Mon Mar 31 2025 10:53:48 GMT-0400 (Eastern Daylight Time),339472.59999990463,039_o_m_h_a.png,I,z,864,10,1,1874.7000002861023,337597.89999961853,9013,VNB,A,9
10,test,4,1.0,1-Back,1,m,Mon Mar 31 2025 10:53:48 GMT-0400 (Eastern Daylight Time),341222.5,124_o_f_n_a.png,I,m,724,11,1,1736.7000002861023,339485.7999997139,9013,VNB,A,10
11,test,4,0.0,1-Back,1,m,Mon Mar 31 2025 10:53:48 GMT-0400 (Eastern Daylight Time),343072.69999980927,139_m_f_d_a.png,I,m,829,12,1,1836.3000001907349,341236.39999961853,9013,VNB,A,11
12,test,4,0.0,1-Back,1,m,Mon Mar 31 2025 10:53:48 GMT-0400 (Eastern Daylight Time),344989.39999961853,071_y_f_n_a.png,I,m,883,13,1,1904.1999998092651,343085.19999980927,9013,VNB,A,12
13,test,4,0.0,1-Back,1,m,Mon Mar 31 2025 10:53:48 GMT-0400 (Eastern Daylight Time),346889.2999997139,124_o_f_d_a.png,I,m,871,14,1,1886.7999997138977,345002.5,9013,VNB,A,13
14,test,4,0.0,1-Back,1,m,Mon Mar 31 2025 10:53:48 GMT-0400 (Eastern Daylight Time),348706.0,071_y_f_h_a.png,I,m,795,15,1,1803.3000001907349,346902.69999980927,9013,VNB,A,14
15,test,4,1.0,1-Back,1,z,Mon Mar 31 2025 10:53:48 GMT-0400 (Eastern Daylight Time),350439.19999980927,165_m_m_h_a.png,I,z,705,16,1,1720.1999998092651,348719.0,9013,VNB,A,15
16,test,4,0.0,1-Back,1,m,Mon Mar 31 2025 10:53:48 GMT-0400 (Eastern Daylight Time),352172.7999997139,039_o_m_n_a.png,I,m,700,17,1,1720.5999999046326,350452.19999980927,9013,VNB,A,16
16,test,4,1.0,1-Back,0,z,Mon Mar 31 2025 10:53:48 GMT-0400 (Eastern Daylight Time),354089.09999990463,109_y_m_n_a.png,I,m,870,18,1,1900.9000000953674,352188.19999980927,9013,VNB,A,17
0,test,5,1.0,1-Back,,,Mon Mar 31 2025 10:53:48 GMT-0400 (Eastern Daylight Time),354089.09999990463,039_o_m_n_a.png,I,space,2666,1,1,1900.9000000953674,352188.19999980927,9013,VNB,A,0
1,test,5,1.0,1-Back,1,m,Mon Mar 31 2025 10:53:48 GMT-0400 (Eastern Daylight Time),360705.89999961853,124_o_f_h_a.png,I,m,895,2,1,1903.5999999046326,358802.2999997139,9013,VNB,A,1
2,test,5,0.0,1-Back,1,m,Mon Mar 31 2025 10:53:48 GMT-0400 (Eastern Daylight Time),362372.59999990463,109_y_m_d_a.png,I,m,641,3,1,1655.4000000953674,360717.19999980927,9013,VNB,A,2
3,test,5,0.0,1-Back,1,z,Mon Mar 31 2025 10:53:48 GMT-0400 (Eastern Daylight Time),364472.5,039_o_m_d_a.png,I,z,1071,4,1,2086.300000190735,362386.19999980927,9013,VNB,A,3
4,test,5,0.0,1-Back,1,m,Mon Mar 31 2025 10:53:48 GMT-0400 (Eastern Daylight Time),366322.69999980927,139_m_f_h_a.png,I,m,827,5,1,1836.5999999046326,364486.09999990463,9013,VNB,A,4
5,test,5,0.0,1-Back,1,m,Mon Mar 31 2025 10:53:48 GMT-0400 (Eastern Daylight Time),368022.59999990463,071_y_f_n_a.png,I,m,674,6,1,1686.5999999046326,366336.0,9013,VNB,A,5
6,test,5,1.0,1-Back,1,z,Mon Mar 31 2025 10:53:48 GMT-0400 (Eastern Daylight Time),369906.09999990463,124_o_f_n_a.png,I,z,861,7,1,1871.0999999046326,368035.0,9013,VNB,A,6
7,test,5,0.0,1-Back,1,m,Mon Mar 31 2025 10:53:48 GMT-0400 (Eastern Daylight Time),371872.59999990463,139_m_f_d_a.png,I,m,946,8,1,1953.5,369919.09999990463,9013,VNB,A,7
8,test,5,0.0,1-Back,1,m,Mon Mar 31 2025 10:53:48 GMT-0400 (Eastern Daylight Time),373755.7999997139,109_y_m_h_a.png,I,m,851,9,1,1869.5999999046326,371886.19999980927,9013,VNB,A,8
9,test,5,0.0,1-Back,1,m,Mon Mar 31 2025 10:53:48 GMT-0400 (Eastern Daylight Time),375539.39999961853,071_y_f_d_a.png,I,m,759,10,1,1768.6999998092651,373770.69999980927,9013,VNB,A,9
10,test,5,0.0,1-Back,1,m,Mon Mar 31 2025 10:53:48 GMT-0400 (Eastern Daylight Time),377422.19999980927,165_m_m_n_a.png,I,m,864,11,1,1869.9000000953674,375552.2999997139,9013,VNB,A,10
11,test,5,1.0,1-Back,1,z,Mon Mar 31 2025 10:53:48 GMT-0400 (Eastern Daylight Time),379189.2999997139,139_m_f_n_a.png,I,z,741,12,1,1755.0999999046326,377434.19999980927,9013,VNB,A,11
12,test,5,0.0,1-Back,1,m,Mon Mar 31 2025 10:53:48 GMT-0400 (Eastern Daylight Time),381055.69999980927,039_o_m_h_a.png,I,m,846,13,1,1853.6999998092651,379202.0,9013,VNB,A,12
13,test,5,0.0,1-Back,1,z,Mon Mar 31 2025 10:53:48 GMT-0400 (Eastern Daylight Time),382972.59999990463,165_m_m_h_a.png,I,z,867,14,1,1898.0999999046326,381074.5,9013,VNB,A,13
14,test,5,1.0,1-Back,1,m,Mon Mar 31 2025 10:53:48 GMT-0400 (Eastern Daylight Time),384756.0,124_o_f_d_a.png,I,m,759,15,1,1771.2000002861023,382984.7999997139,9013,VNB,A,14
15,test,5,0.0,1-Back,1,m,Mon Mar 31 2025 10:53:48 GMT-0400 (Eastern Daylight Time),386539.2999997139,109_y_m_n_a.png,I,m,751,16,1,1769.9000000953674,384769.39999961853,9013,VNB,A,15
16,test,5,0.0,1-Back,1,m,Mon Mar 31 2025 10:53:48 GMT-0400 (Eastern Daylight Time),388439.19999980927,071_y_f_h_a.png,I,m,872,17,1,1887.5,386551.69999980927,9013,VNB,A,16
17,test,5,0.0,1-Back,1,m,Mon Mar 31 2025 10:53:48 GMT-0400 (Eastern Daylight Time),390239.19999980927,165_m_m_d_a.png,I,m,780,18,1,1787.0,388452.19999980927,9013,VNB,A,17
0,prac,1,0.0,2-Back,,,Mon Mar 31 2025 10:53:48 GMT-0400 (Eastern Daylight Time),390239.19999980927,139_m_f_n_a.png,I,space,9799,1,1,1787.0,388452.19999980927,9013,VNB,A,0
0,prac,1,0.0,2-Back,,,Mon Mar 31 2025 10:53:48 GMT-0400 (Eastern Daylight Time),390239.19999980927,124_o_f_h_a.png,I,space,9799,2,1,1787.0,388452.19999980927,9013,VNB,A,0
1,prac,1,0.0,2-Back,1,m,Mon Mar 31 2025 10:53:48 GMT-0400 (Eastern Daylight Time),497689.39999961853,039_o_m_d_a.png,I,m,1930,3,1,2751.199999809265,494938.19999980927,9013,VNB,A,1
2,prac,1,1.0,2-Back,1,z,Mon Mar 31 2025 10:53:48 GMT-0400 (Eastern Daylight Time),499906.09999990463,165_m_m_h_a.png,I,z,1379,4,1,2199.4000000953674,497706.69999980927,9013,VNB,A,2
3,prac,1,0.0,2-Back,1,m,Mon Mar 31 2025 10:53:48 GMT-0400 (Eastern Daylight Time),502639.2999997139,071_y_f_n_a.png,I,m,1829,5,1,2719.199999809265,499920.09999990463,9013,VNB,A,3
3,prac,1,1.0,2-Back,0,z,Mon Mar 31 2025 10:53:48 GMT-0400 (Eastern Daylight Time),505538.5,039_o_m_h_a.png,I,None,2013,6,1,2886.1000003814697,502652.39999961853,9013,VNB,A,4
4,prac,1,1.0,2-Back,1,z,Mon Mar 31 2025 10:53:48 GMT-0400 (Eastern Daylight Time),508372.59999990463,109_y_m_n_a.png,I,z,1909,7,1,2818.0,505554.59999990463,9013,VNB,A,5
4,prac,1,0.0,2-Back,0,m,Mon Mar 31 2025 10:53:48 GMT-0400 (Eastern Daylight Time),511255.69999980927,139_m_f_d_a.png,I,None,2006,8,1,2867.5999999046326,508388.09999990463,9013,VNB,A,6
4,prac,1,0.0,2-Back,0,m,Mon Mar 31 2025 10:53:48 GMT-0400 (Eastern Daylight Time),513622.5,124_o_f_d_a.png,I,z,1368,9,1,2351.9000000953674,511270.59999990463,9013,VNB,A,7
4,prac,1,0.0,2-Back,0,m,Mon Mar 31 2025 10:53:48 GMT-0400 (Eastern Daylight Time),515739.19999980927,165_m_m_h_a.png,I,z,1273,10,1,2098.300000190735,513640.89999961853,9013,VNB,A,8
4,prac,1,1.0,2-Back,0,z,Mon Mar 31 2025 10:53:48 GMT-0400 (Eastern Daylight Time),518055.7999997139,071_y_f_d_a.png,I,m,1402,11,1,2301.2999997138977,515754.5,9013,VNB,A,9
4,prac,1,0.0,2-Back,0,m,Mon Mar 31 2025 10:53:48 GMT-0400 (Eastern Daylight Time),520955.59999990463,039_o_m_n_a.png,I,None,2003,12,1,2884.800000190735,518070.7999997139,9013,VNB,A,10
0,prac,2,0.0,2-Back,,,Mon Mar 31 2025 10:53:48 GMT-0400 (Eastern Daylight Time),520955.59999990463,139_m_f_n_a.png,I,a,11064,1,1,2884.800000190735,518070.7999997139,9013,VNB,A,0
0,prac,2,0.0,2-Back,,,Mon Mar 31 2025 10:53:48 GMT-0400 (Eastern Daylight Time),520955.59999990463,124_o_f_h_a.png,I,a,11064,2,1,2884.800000190735,518070.7999997139,9013,VNB,A,0
1,prac,2,0.0,2-Back,1,m,Mon Mar 31 2025 10:53:48 GMT-0400 (Eastern Daylight Time),539671.8999996185,039_o_m_d_a.png,I,m,1633,3,1,2451.8999996185303,537220.0,9013,VNB,A,1
2,prac,2,1.0,2-Back,1,z,Mon Mar 31 2025 10:53:48 GMT-0400 (Eastern Daylight Time),542055.6999998093,165_m_m_h_a.png,I,z,1545,4,1,2370.5999999046326,539685.0999999046,9013,VNB,A,2
3,prac,2,0.0,2-Back,1,m,Mon Mar 31 2025 10:53:48 GMT-0400 (Eastern Daylight Time),544089.0999999046,071_y_f_n_a.png,I,m,1196,5,1,2019.4000000953674,542069.6999998093,9013,VNB,A,3
3,prac,2,1.0,2-Back,0,z,Mon Mar 31 2025 10:53:48 GMT-0400 (Eastern Daylight Time),546755.0999999046,039_o_m_h_a.png,I,m,1834,6,1,2649.300000190735,544105.7999997139,9013,VNB,A,4
4,prac,2,1.0,2-Back,1,z,Mon Mar 31 2025 10:53:48 GMT-0400 (Eastern Daylight Time),548555.5999999046,109_y_m_n_a.png,I,z,968,7,1,1788.9000000953674,546766.6999998093,9013,VNB,A,5
5,prac,2,0.0,2-Back,1,m,Mon Mar 31 2025 10:53:48 GMT-0400 (Eastern Daylight Time),550322.3999996185,139_m_f_d_a.png,I,m,933,8,1,1750.1999998092651,548572.1999998093,9013,VNB,A,6
6,prac,2,0.0,2-Back,1,m,Mon Mar 31 2025 10:53:48 GMT-0400 (Eastern Daylight Time),552789.0,124_o_f_d_a.png,I,m,1567,9,1,2447.6000003814697,550341.3999996185,9013,VNB,A,7
7,prac,2,0.0,2-Back,1,m,Mon Mar 31 2025 10:53:48 GMT-0400 (Eastern Daylight Time),555239.0999999046,165_m_m_h_a.png,I,m,1612,10,1,2435.7000002861023,552803.3999996185,9013,VNB,A,8
7,prac,2,1.0,2-Back,0,z,Mon Mar 31 2025 10:53:48 GMT-0400 (Eastern Daylight Time),558072.1999998093,071_y_f_d_a.png,I,None,2011,11,1,2818.9000000953674,555253.2999997139,9013,VNB,A,9
8,prac,2,0.0,2-Back,1,m,Mon Mar 31 2025 10:53:48 GMT-0400 (Eastern Daylight Time),560655.8999996185,039_o_m_n_a.png,I,m,1753,12,1,2564.8999996185303,558091.0,9013,VNB,A,10
0,test,1,0.0,2-Back,,,Mon Mar 31 2025 10:53:48 GMT-0400 (Eastern Daylight Time),560655.8999996185,109_y_m_h_a.png,I,space,7904,1,1,2564.8999996185303,558091.0,9013,VNB,A,0
0,test,1,0.0,2-Back,,,Mon Mar 31 2025 10:53:48 GMT-0400 (Eastern Daylight Time),560655.8999996185,124_o_f_n_a.png,I,space,7904,2,1,2564.8999996185303,558091.0,9013,VNB,A,0
1,test,1,0.0,2-Back,1,z,Mon Mar 31 2025 10:53:48 GMT-0400 (Eastern Daylight Time),586855.7999997139,039_o_m_h_a.png,I,z,1506,3,1,2520.4000000953674,584335.3999996185,9013,VNB,A,1
2,test,1,0.0,2-Back,1,m,Mon Mar 31 2025 10:53:48 GMT-0400 (Eastern Daylight Time),589272.2999997139,139_m_f_d_a.png,I,m,1388,4,1,2403.199999809265,586869.0999999046,9013,VNB,A,2
3,test,1,1.0,2-Back,1,m,Mon Mar 31 2025 10:53:48 GMT-0400 (Eastern Daylight Time),591589.0999999046,109_y_m_n_a.png,I,m,1290,5,1,2303.800000190735,589285.2999997139,9013,VNB,A,3
3,test,1,0.0,2-Back,0,z,Mon Mar 31 2025 10:53:48 GMT-0400 (Eastern Daylight Time),594622.3999996185,071_y_f_d_a.png,I,None,2015,6,1,3019.5999999046326,591602.7999997139,9013,VNB,A,4
4,test,1,0.0,2-Back,1,m,Mon Mar 31 2025 10:53:48 GMT-0400 (Eastern Daylight Time),596555.5,165_m_m_h_a.png,I,m,901,7,1,1919.7000002861023,594635.7999997139,9013,VNB,A,5
5,test,1,1.0,2-Back,1,m,Mon Mar 31 2025 10:53:48 GMT-0400 (Eastern Daylight Time),598805.5999999046,071_y_f_n_a.png,I,m,1225,8,1,2236.5,596569.0999999046,9013,VNB,A,6
6,test,1,0.0,2-Back,1,z,Mon Mar 31 2025 10:53:48 GMT-0400 (Eastern Daylight Time),600905.0999999046,124_o_f_h_a.png,I,z,1069,9,1,2085.5999999046326,598819.5,9013,VNB,A,7
7,test,1,0.0,2-Back,1,m,Mon Mar 31 2025 10:53:48 GMT-0400 (Eastern Daylight Time),602955.5,039_o_m_d_a.png,I,m,1018,10,1,2037.9000000953674,600917.5999999046,9013,VNB,A,8
8,test,1,1.0,2-Back,1,m,Mon Mar 31 2025 10:53:48 GMT-0400 (Eastern Daylight Time),605355.5,165_m_m_d_a.png,I,m,1368,11,1,2386.9000000953674,602968.5999999046,9013,VNB,A,9
9,test,1,0.0,2-Back,1,m,Mon Mar 31 2025 10:53:48 GMT-0400 (Eastern Daylight Time),607305.5999999046,139_m_f_n_a.png,I,m,920,12,1,1936.5,605369.0999999046,9013,VNB,A,10
10,test,1,0.0,2-Back,1,m,Mon Mar 31 2025 10:53:48 GMT-0400 (Eastern Daylight Time),609405.7999997139,071_y_f_h_a.png,I,m,1082,13,1,2085.9000000953674,607319.8999996185,9013,VNB,A,11
11,test,1,0.0,2-Back,1,z,Mon Mar 31 2025 10:53:48 GMT-0400 (Eastern Daylight Time),611689.0,165_m_m_n_a.png,I,z,1254,14,1,2268.7000002861023,609420.2999997139,9013,VNB,A,12
12,test,1,0.0,2-Back,1,m,Mon Mar 31 2025 10:53:48 GMT-0400 (Eastern Daylight Time),613821.7999997139,109_y_m_d_a.png,I,m,1114,15,1,2118.9000000953674,611702.8999996185,9013,VNB,A,13
13,test,1,1.0,2-Back,1,m,Mon Mar 31 2025 10:53:48 GMT-0400 (Eastern Daylight Time),616122.1999998093,139_m_f_h_a.png,I,m,1270,16,1,2287.0999999046326,613835.0999999046,9013,VNB,A,14
14,test,1,0.0,2-Back,1,z,Mon Mar 31 2025 10:53:48 GMT-0400 (Eastern Daylight Time),618088.8999996185,124_o_f_d_a.png,I,z,937,17,1,1952.2999997138977,616136.5999999046,9013,VNB,A,15
15,test,1,0.0,2-Back,1,m,Mon Mar 31 2025 10:53:48 GMT-0400 (Eastern Daylight Time),620089.0,039_o_m_n_a.png,I,m,971,18,1,1986.4000000953674,618102.5999999046,9013,VNB,A,16
0,test,2,0.0,2-Back,,,Mon Mar 31 2025 10:53:48 GMT-0400 (Eastern Daylight Time),620089.0,165_m_m_h_a.png,I,space,1962,1,1,1986.4000000953674,618102.5999999046,9013,VNB,A,0
0,test,2,0.0,2-Back,,,Mon Mar 31 2025 10:53:48 GMT-0400 (Eastern Daylight Time),620089.0,071_y_f_n_a.png,I,space,1962,2,1,1986.4000000953674,618102.5999999046,9013,VNB,A,0
1,test,2,1.0,2-Back,1,z,Mon Mar 31 2025 10:53:48 GMT-0400 (Eastern Daylight Time),629289.0,124_o_f_h_a.png,I,z,1054,3,1,2068.800000190735,627220.1999998093,9013,VNB,A,1
2,test,2,0.0,2-Back,1,m,Mon Mar 31 2025 10:53:48 GMT-0400 (Eastern Daylight Time),631688.7999997139,039_o_m_d_a.png,I,m,1370,4,1,2386.2999997138977,629302.5,9013,VNB,A,2
3,test,2,0.0,2-Back,1,m,Mon Mar 31 2025 10:53:48 GMT-0400 (Eastern Daylight Time),633688.8999996185,139_m_f_d_a.png,I,m,970,5,1,1986.2999997138977,631702.5999999046,9013,VNB,A,3
3,test,2,0.0,2-Back,0,m,Mon Mar 31 2025 10:53:48 GMT-0400 (Eastern Daylight Time),636721.7999997139,109_y_m_h_a.png,I,None,2015,6,1,3018.199999809265,633703.5999999046,9013,VNB,A,4
3,test,2,0.0,2-Back,0,m,Mon Mar 31 2025 10:53:48 GMT-0400 (Eastern Daylight Time),639755.5,124_o_f_n_a.png,I,None,2015,7,1,3022.2000002861023,636733.2999997139,9013,VNB,A,5
3,test,2,1.0,2-Back,0,z,Mon Mar 31 2025 10:53:48 GMT-0400 (Eastern Daylight Time),641689.0,039_o_m_h_a.png,I,m,904,8,1,1919.3000001907349,639769.6999998093,9013,VNB,A,6
4,test,2,0.0,2-Back,1,m,Mon Mar 31 2025 10:53:48 GMT-0400 (Eastern Daylight Time),644155.5,071_y_f_d_a.png,I,m,1434,9,1,2453.5,641702.0,9013,VNB,A,7
4,test,2,0.0,2-Back,0,m,Mon Mar 31 2025 10:53:48 GMT-0400 (Eastern Daylight Time),647188.5999999046,109_y_m_d_a.png,I,None,2016,10,1,3019.2000002861023,644169.3999996185,9013,VNB,A,8
5,test,2,0.0,2-Back,1,m,Mon Mar 31 2025 10:53:48 GMT-0400 (Eastern Daylight Time),649938.8999996185,165_m_m_n_a.png,I,m,1726,11,1,2738.199999809265,647200.6999998093,9013,VNB,A,9
5,test,2,0.0,2-Back,0,m,Mon Mar 31 2025 10:53:48 GMT-0400 (Eastern Daylight Time),652072.1999998093,139_m_f_h_a.png,I,z,1104,12,1,2120.300000190735,649951.8999996185,9013,VNB,A,10
5,test,2,1.0,2-Back,0,z,Mon Mar 31 2025 10:53:48 GMT-0400 (Eastern Daylight Time),655005.1999998093,039_o_m_n_a.png,I,m,1899,13,1,2920.0,652085.1999998093,9013,VNB,A,11
5,test,2,0.0,2-Back,0,m,Mon Mar 31 2025 10:53:48 GMT-0400 (Eastern Daylight Time),658038.5999999046,124_o_f_d_a.png,I,None,2016,14,1,3023.2000002861023,655015.3999996185,9013,VNB,A,12
5,test,2,0.0,2-Back,0,m,Mon Mar 31 2025 10:53:48 GMT-0400 (Eastern Daylight Time),661071.6999998093,071_y_f_h_a.png,I,None,2015,15,1,3019.0999999046326,658052.5999999046,9013,VNB,A,13
5,test,2,0.0,2-Back,0,z,Mon Mar 31 2025 10:53:48 GMT-0400 (Eastern Daylight Time),664105.0,165_m_m_d_a.png,I,None,2015,16,1,3021.7000002861023,661083.2999997139,9013,VNB,A,14
5,test,2,0.0,2-Back,0,m,Mon Mar 31 2025 10:53:48 GMT-0400 (Eastern Daylight Time),666205.3999996185,109_y_m_n_a.png,I,z,1066,17,1,2089.699999809265,664115.6999998093,9013,VNB,A,15
6,test,2,1.0,2-Back,1,m,Mon Mar 31 2025 10:53:48 GMT-0400 (Eastern Daylight Time),668255.5,139_m_f_n_a.png,I,m,1030,18,1,2037.0,666218.5,9013,VNB,A,16
0,test,3,1.0,2-Back,,,Mon Mar 31 2025 10:53:48 GMT-0400 (Eastern Daylight Time),668255.5,039_o_m_n_a.png,I,space,2740,1,1,2037.0,666218.5,9013,VNB,A,0
0,test,3,1.0,2-Back,,,Mon Mar 31 2025 10:53:48 GMT-0400 (Eastern Daylight Time),668255.5,124_o_f_d_a.png,I,space,2740,2,1,2037.0,666218.5,9013,VNB,A,0
1,test,3,0.0,2-Back,1,m,Mon Mar 31 2025 10:53:48 GMT-0400 (Eastern Daylight Time),678355.3999996185,071_y_f_h_a.png,I,m,1126,3,1,2137.0999999046326,676218.2999997139,9013,VNB,A,1
2,test,3,0.0,2-Back,1,z,Mon Mar 31 2025 10:53:48 GMT-0400 (Eastern Daylight Time),680721.8999996185,139_m_f_d_a.png,I,z,1327,4,1,2349.699999809265,678372.1999998093,9013,VNB,A,2
3,test,3,1.0,2-Back,1,m,Mon Mar 31 2025 10:53:48 GMT-0400 (Eastern Daylight Time),682788.7999997139,109_y_m_n_a.png,I,m,1025,5,1,2043.1999998092651,680745.5999999046,9013,VNB,A,3
4,test,3,0.0,2-Back,1,m,Mon Mar 31 2025 10:53:48 GMT-0400 (Eastern Daylight Time),685072.1999998093,039_o_m_h_a.png,I,m,1246,6,1,2266.9000000953674,682805.2999997139,9013,VNB,A,4
5,test,3,0.0,2-Back,1,z,Mon Mar 31 2025 10:53:48 GMT-0400 (Eastern Daylight Time),687055.5,071_y_f_n_a.png,I,z,963,7,1,1969.9000000953674,685085.5999999046,9013,VNB,A,5
6,test,3,1.0,2-Back,1,m,Mon Mar 31 2025 10:53:48 GMT-0400 (Eastern Daylight Time),689388.7999997139,165_m_m_d_a.png,I,m,1300,8,1,2320.0,687068.7999997139,9013,VNB,A,6
7,test,3,0.0,2-Back,1,m,Mon Mar 31 2025 10:53:48 GMT-0400 (Eastern Daylight Time),692372.0,109_y_m_d_a.png,I,m,1959,9,1,2968.800000190735,689403.1999998093,9013,VNB,A,7
8,test,3,0.0,2-Back,1,m,Mon Mar 31 2025 10:53:48 GMT-0400 (Eastern Daylight Time),694688.6999998093,124_o_f_h_a.png,I,m,1295,10,1,2302.9000000953674,692385.7999997139,9013,VNB,A,8
9,test,3,1.0,2-Back,1,m,Mon Mar 31 2025 10:53:48 GMT-0400 (Eastern Daylight Time),697155.5,139_m_f_n_a.png,I,m,1443,11,1,2453.0,694702.5,9013,VNB,A,9
10,test,3,1.0,2-Back,1,z,Mon Mar 31 2025 10:53:48 GMT-0400 (Eastern Daylight Time),699755.5999999046,165_m_m_h_a.png,I,z,1568,12,1,2585.4000000953674,697170.1999998093,9013,VNB,A,10
11,test,3,0.0,2-Back,1,m,Mon Mar 31 2025 10:53:48 GMT-0400 (Eastern Daylight Time),702188.8999996185,071_y_f_d_a.png,I,m,1400,13,1,2419.3999996185303,699769.5,9013,VNB,A,11
11,test,3,0.0,2-Back,0,m,Mon Mar 31 2025 10:53:48 GMT-0400 (Eastern Daylight Time),705222.3999996185,124_o_f_n_a.png,I,None,2015,14,1,3019.3999996185303,702203.0,9013,VNB,A,12
12,test,3,0.0,2-Back,1,z,Mon Mar 31 2025 10:53:48 GMT-0400 (Eastern Daylight Time),707905.3999996185,039_o_m_d_a.png,I,z,1661,15,1,2668.0,705237.3999996185,9013,VNB,A,13
13,test,3,1.0,2-Back,1,m,Mon Mar 31 2025 10:53:48 GMT-0400 (Eastern Daylight Time),709705.5,139_m_f_h_a.png,I,m,770,16,1,1786.7000002861023,707918.7999997139,9013,VNB,A,14
14,test,3,0.0,2-Back,1,m,Mon Mar 31 2025 10:53:48 GMT-0400 (Eastern Daylight Time),712004.8999996185,165_m_m_n_a.png,I,m,1273,17,1,2286.199999809265,709718.6999998093,9013,VNB,A,15
15,test,3,0.0,2-Back,1,z,Mon Mar 31 2025 10:53:48 GMT-0400 (Eastern Daylight Time),715007.2999997139,109_y_m_h_a.png,I,z,1914,18,1,2992.2999997138977,712015.0,9013,VNB,A,16
0,test,4,0.0,2-Back,,,Mon Mar 31 2025 10:53:48 GMT-0400 (Eastern Daylight Time),715007.2999997139,139_m_f_n_a.png,I,space,5819,1,1,2992.2999997138977,712015.0,9013,VNB,A,0
0,test,4,0.0,2-Back,,,Mon Mar 31 2025 10:53:48 GMT-0400 (Eastern Daylight Time),715007.2999997139,039_o_m_n_a.png,I,space,5819,2,1,2992.2999997138977,712015.0,9013,VNB,A,0
1,test,4,1.0,2-Back,1,m,Mon Mar 31 2025 10:53:48 GMT-0400 (Eastern Daylight Time),728372.1999998093,109_y_m_h_a.png,I,m,875,3,1,1896.8000001907349,726475.3999996185,9013,VNB,A,1
2,test,4,1.0,2-Back,1,m,Mon Mar 31 2025 10:53:48 GMT-0400 (Eastern Daylight Time),730221.6999998093,124_o_f_d_a.png,I,m,831,4,1,1835.8000001907349,728385.8999996185,9013,VNB,A,2
3,test,4,0.0,2-Back,1,z,Mon Mar 31 2025 10:53:48 GMT-0400 (Eastern Daylight Time),732188.7999997139,039_o_m_h_a.png,I,z,933,5,1,1954.0999999046326,730234.6999998093,9013,VNB,A,3
4,test,4,0.0,2-Back,1,m,Mon Mar 31 2025 10:53:48 GMT-0400 (Eastern Daylight Time),734372.0999999046,165_m_m_n_a.png,I,m,1158,6,1,2168.5,732203.5999999046,9013,VNB,A,4
5,test,4,0.0,2-Back,1,m,Mon Mar 31 2025 10:53:48 GMT-0400 (Eastern Daylight Time),736621.6999998093,139_m_f_d_a.png,I,m,1215,7,1,2231.800000190735,734389.8999996185,9013,VNB,A,5
6,test,4,0.0,2-Back,1,z,Mon Mar 31 2025 10:53:48 GMT-0400 (Eastern Daylight Time),739005.2999997139,071_y_f_n_a.png,I,z,1349,8,1,2368.4000000953674,736636.8999996185,9013,VNB,A,6
7,test,4,1.0,2-Back,1,m,Mon Mar 31 2025 10:53:48 GMT-0400 (Eastern Daylight Time),741121.6999998093,124_o_f_h_a.png,I,m,1093,9,1,2101.5,739020.1999998093,9013,VNB,A,7
8,test,4,0.0,2-Back,1,m,Mon Mar 31 2025 10:53:48 GMT-0400 (Eastern Daylight Time),743188.7999997139,165_m_m_h_a.png,I,m,1041,10,1,2052.699999809265,741136.0999999046,9013,VNB,A,8
9,test,4,0.0,2-Back,1,m,Mon Mar 31 2025 10:53:48 GMT-0400 (Eastern Daylight Time),745205.2999997139,071_y_f_d_a.png,I,m,974,11,1,2001.5,743203.7999997139,9013,VNB,A,9
10,test,4,0.0,2-Back,1,m,Mon Mar 31 2025 10:53:48 GMT-0400 (Eastern Daylight Time),747355.2999997139,109_y_m_n_a.png,I,m,1118,12,1,2136.0999999046326,745219.1999998093,9013,VNB,A,10
11,test,4,0.0,2-Back,1,z,Mon Mar 31 2025 10:53:48 GMT-0400 (Eastern Daylight Time),749455.3999996185,039_o_m_d_a.png,I,z,1080,13,1,2087.0,747368.3999996185,9013,VNB,A,11
12,test,4,1.0,2-Back,1,m,Mon Mar 31 2025 10:53:48 GMT-0400 (Eastern Daylight Time),751472.0999999046,139_m_f_h_a.png,I,m,996,14,1,2003.2000002861023,749468.8999996185,9013,VNB,A,12
12,test,4,1.0,2-Back,0,m,Mon Mar 31 2025 10:53:48 GMT-0400 (Eastern Daylight Time),753922.0,071_y_f_h_a.png,I,z,1427,15,1,2436.0,751486.0,9013,VNB,A,13
12,test,4,0.0,2-Back,0,m,Mon Mar 31 2025 10:53:48 GMT-0400 (Eastern Daylight Time),756955.5999999046,124_o_f_n_a.png,I,None,2015,16,1,3018.9000000953674,753936.6999998093,9013,VNB,A,14
13,test,4,0.0,2-Back,1,m,Mon Mar 31 2025 10:53:48 GMT-0400 (Eastern Daylight Time),759038.5,109_y_m_d_a.png,I,m,1064,17,1,2068.7000002861023,756969.7999997139,9013,VNB,A,15
14,test,4,1.0,2-Back,1,m,Mon Mar 31 2025 10:53:48 GMT-0400 (Eastern Daylight Time),761772.0999999046,165_m_m_d_a.png,I,m,1701,18,1,2719.9000000953674,759052.1999998093,9013,VNB,A,16
0,test,5,1.0,2-Back,,,Mon Mar 31 2025 10:53:48 GMT-0400 (Eastern Daylight Time),761772.0999999046,071_y_f_d_a.png,I,space,1983,1,1,2719.9000000953674,759052.1999998093,9013,VNB,A,0
0,test,5,1.0,2-Back,,,Mon Mar 31 2025 10:53:48 GMT-0400 (Eastern Daylight Time),761772.0999999046,124_o_f_h_a.png,I,space,1983,2,1,2719.9000000953674,759052.1999998093,9013,VNB,A,0
1,test,5,1.0,2-Back,1,z,Mon Mar 31 2025 10:53:48 GMT-0400 (Eastern Daylight Time),771005.5,039_o_m_d_a.png,I,z,1099,3,1,2104.0,768901.5,9013,VNB,A,1
2,test,5,1.0,2-Back,1,m,Mon Mar 31 2025 10:53:48 GMT-0400 (Eastern Daylight Time),773038.5,139_m_f_n_a.png,I,m,1014,4,1,2019.8000001907349,771018.6999998093,9013,VNB,A,2
3,test,5,0.0,2-Back,1,m,Mon Mar 31 2025 10:53:48 GMT-0400 (Eastern Daylight Time),775605.2999997139,165_m_m_h_a.png,I,m,1541,5,1,2553.4000000953674,773051.8999996185,9013,VNB,A,3
3,test,5,0.0,2-Back,0,z,Mon Mar 31 2025 10:53:48 GMT-0400 (Eastern Daylight Time),778638.7999997139,071_y_f_n_a.png,I,None,2016,6,1,3019.699999809265,775619.0999999046,9013,VNB,A,4
3,test,5,0.0,2-Back,0,m,Mon Mar 31 2025 10:53:48 GMT-0400 (Eastern Daylight Time),781671.8999996185,124_o_f_d_a.png,I,None,2016,7,1,3019.8999996185303,778652.0,9013,VNB,A,5
4,test,5,0.0,2-Back,1,m,Mon Mar 31 2025 10:53:48 GMT-0400 (Eastern Daylight Time),783571.8999996185,039_o_m_h_a.png,I,m,875,8,1,1887.7999997138977,781684.0999999046,9013,VNB,A,6
5,test,5,1.0,2-Back,1,z,Mon Mar 31 2025 10:53:48 GMT-0400 (Eastern Daylight Time),785588.5999999046,139_m_f_d_a.png,I,z,991,9,1,2003.0999999046326,783585.5,9013,VNB,A,7
6,test,5,0.0,2-Back,1,m,Mon Mar 31 2025 10:53:48 GMT-0400 (Eastern Daylight Time),787805.5,109_y_m_n_a.png,I,m,1199,10,1,2203.7000002861023,785601.7999997139,9013,VNB,A,8
7,test,5,0.0,2-Back,1,m,Mon Mar 31 2025 10:53:48 GMT-0400 (Eastern Daylight Time),790688.6999998093,165_m_m_n_a.png,I,m,1862,11,1,2870.5,787818.1999998093,9013,VNB,A,9
8,test,5,0.0,2-Back,1,m,Mon Mar 31 2025 10:53:48 GMT-0400 (Eastern Daylight Time),792688.6999998093,071_y_f_h_a.png,I,m,979,12,1,1987.0,790701.6999998093,9013,VNB,A,10
9,test,5,0.0,2-Back,1,m,Mon Mar 31 2025 10:53:48 GMT-0400 (Eastern Daylight Time),794722.0,109_y_m_d_a.png,I,m,994,13,1,2015.6000003814697,792706.3999996185,9013,VNB,A,11
10,test,5,1.0,2-Back,1,z,Mon Mar 31 2025 10:53:48 GMT-0400 (Eastern Daylight Time),797321.8999996185,139_m_f_h_a.png,I,z,1570,14,1,2586.0999999046326,794735.7999997139,9013,VNB,A,12
11,test,5,0.0,2-Back,1,m,Mon Mar 31 2025 10:53:48 GMT-0400 (Eastern Daylight Time),799221.7999997139,039_o_m_n_a.png,I,m,857,15,1,1881.7999997138977,797340.0,9013,VNB,A,13
11,test,5,0.0,2-Back,0,m,Mon Mar 31 2025 10:53:48 GMT-0400 (Eastern Daylight Time),802272.1999998093,165_m_m_d_a.png,I,None,2016,16,1,3033.9000000953674,799238.2999997139,9013,VNB,A,14
11,test,5,0.0,2-Back,0,z,Mon Mar 31 2025 10:53:48 GMT-0400 (Eastern Daylight Time),805322.0999999046,124_o_f_n_a.png,I,None,2016,17,1,3032.7000002861023,802289.3999996185,9013,VNB,A,15
12,test,5,1.0,2-Back,1,m,Mon Mar 31 2025 10:53:48 GMT-0400 (Eastern Daylight Time),807505.0999999046,109_y_m_h_a.png,I,m,1161,18,1,2170.0999999046326,805335.0,9013,VNB,A,16
