Q,Q1,Q2,Q3,Q4,acc_sum,block,block_c,correct,correct_response,datetime,endtime,project,response,response_time,row_sel,session_number,squiggle1,squiggle1x,squiggle1y,squiggle2,squiggle2x,squiggle2y,squiggle3,squiggle3x,squiggle3y,squiggle4,squiggle4x,squiggle4y,start_end,starttime,subject_id,target_congruent,task,task_vers,testsquiggle,testsquigglex,testsquiggley,time_practice_delay,time_practice_fixation,time_practice_stimuli,time_practice_study,time_test_delay,time_test_fixation,time_test_stimuli,time_test_study,trial
1,1,0,0,0,1,prac,1,1,z,Wed Feb 12 2025 11:41:06 GMT-0600 (Central Standard Time),151868.80000000447,O,z,1159,1,1,116.bmp,-120,-120,117.bmp,120,-120,118.bmp,-120,120,119.bmp,120,120,9977.30000000447,141891.5,7052,yes,SM,A,116.bmp,-120,-120,145732,139704,147751,141719,,,,,1
3,0,0,1,0,2,prac,1,1,m,Wed Feb 12 2025 11:41:06 GMT-0600 (Central Standard Time),162216.0,O,m,1524,2,1,120.bmp,-120,-120,121.bmp,120,-120,122.bmp,-120,120,123.bmp,120,120,10343.39999999851,151872.6000000015,7052,no,SM,A,123.bmp,-120,120,155713,149685,157730,151699,,,,,2
4,0,0,0,1,3,prac,1,1,m,Wed Feb 12 2025 11:41:06 GMT-0600 (Central Standard Time),172629.1000000015,O,m,1593,3,1,124.bmp,-120,-120,125.bmp,120,-120,126.bmp,-120,120,127.bmp,120,120,10409.5,162219.6000000015,7052,no,SM,A,124.bmp,120,120,166059,160032,168077,162045,,,,,3
2,0,1,0,0,4,prac,1,1,z,Wed Feb 12 2025 11:41:06 GMT-0600 (Central Standard Time),182675.90000000596,O,z,1219,4,1,128.bmp,-120,-120,129.bmp,120,-120,130.bmp,-120,120,131.bmp,120,120,10043.10000000149,172632.80000000447,7052,yes,SM,A,129.bmp,120,-120,176473,170445,178491,172458,,,,,4
3,0,0,1,0,4,prac,1,0,z,Wed Feb 12 2025 11:41:06 GMT-0600 (Central Standard Time),193106.0,O,m,1605,5,1,132.bmp,-120,-120,133.bmp,120,-120,134.bmp,-120,120,135.bmp,120,120,10425.89999999851,182680.1000000015,7052,yes,SM,A,134.bmp,-120,120,186519,180492,188537,182506,,,,,5
1,1,0,0,0,5,prac,1,1,m,Wed Feb 12 2025 11:41:06 GMT-0600 (Central Standard Time),203286.20000000298,O,m,1351,6,1,136.bmp,-120,-120,137.bmp,120,-120,138.bmp,-120,120,139.bmp,120,120,10176.70000000298,193109.5,7052,no,SM,A,139.bmp,-120,-120,196950,190922,198967,192937,,,,,6
2,0,1,0,0,6,prac,1,1,m,Wed Feb 12 2025 11:41:06 GMT-0600 (Central Standard Time),213349.70000000298,O,m,1243,7,1,140.bmp,-120,-120,141.bmp,120,-120,142.bmp,-120,120,143.bmp,120,120,10060.10000000149,203289.6000000015,7052,no,SM,A,140.bmp,120,-120,207130,201102,209147,203117,,,,,7
4,0,0,0,1,7,prac,1,1,z,Wed Feb 12 2025 11:41:06 GMT-0600 (Central Standard Time),223279.80000000447,O,z,1107,8,1,144.bmp,-120,-120,145.bmp,120,-120,146.bmp,-120,120,147.bmp,120,120,9926.89999999851,213352.90000000596,7052,yes,SM,A,147.bmp,120,120,217193,211165,219211,213179,,,,,8
4,0,0,0,1,1,test,1,1,m,Wed Feb 12 2025 11:41:06 GMT-0600 (Central Standard Time),249354.80000000447,O,m,1680,1,1,148.bmp,-120,-120,149.bmp,120,-120,150.bmp,-120,120,143.bmp,120,120,9727.70000000298,239627.1000000015,7052,no,SM,A,150.bmp,120,120,217193,211165,219211,213179,243468.0,237439.0,245486.0,239453.0,1
2,0,1,0,0,2,test,1,1,m,Wed Feb 12 2025 11:41:06 GMT-0600 (Central Standard Time),258668.5,O,m,1262,2,1,101.bmp,-120,-120,102.bmp,120,-120,103.bmp,-120,120,104.bmp,120,120,9310.69999999553,249357.80000000447,7052,no,SM,A,103.bmp,120,-120,217193,211165,219211,213179,253199.0,247170.0,255216.0,249185.0,2
1,1,0,0,0,3,test,1,1,z,Wed Feb 12 2025 11:41:06 GMT-0600 (Central Standard Time),267982.40000000596,O,z,1252,3,1,105.bmp,-120,-120,106.bmp,120,-120,107.bmp,-120,120,108.bmp,120,120,9310.5,258671.90000000596,7052,yes,SM,A,105.bmp,-120,-120,217193,211165,219211,213179,262512.0,256484.0,264530.0,258498.0,3
3,0,0,1,0,4,test,1,1,m,Wed Feb 12 2025 11:41:06 GMT-0600 (Central Standard Time),277429.40000000596,O,m,1386,4,1,109.bmp,-120,-120,110.bmp,120,-120,111.bmp,-120,120,112.bmp,120,120,9439.90000000596,267989.5,7052,no,SM,A,109.bmp,-120,120,217193,211165,219211,213179,271826.0,265802.0,273844.0,267812.0,4
2,0,1,0,0,5,test,1,1,z,Wed Feb 12 2025 11:41:06 GMT-0600 (Central Standard Time),286693.200000003,O,z,1128,5,1,113.bmp,-120,-120,114.bmp,120,-120,115.bmp,-120,120,116.bmp,120,120,9260.20000000298,277433.0,7052,yes,SM,A,114.bmp,120,-120,217193,211165,219211,213179,281371.0,275245.0,283374.0,277260.0,5
3,0,0,1,0,5,test,1,0,z,Wed Feb 12 2025 11:41:06 GMT-0600 (Central Standard Time),296040.200000003,O,m,1283,6,1,117.bmp,-120,-120,118.bmp,120,-120,119.bmp,-120,120,120.bmp,120,120,9343.70000000298,286696.5,7052,yes,SM,A,119.bmp,-120,120,217193,211165,219211,213179,290537.0,284509.0,292555.0,286523.0,6
4,0,0,0,1,5,test,1,0,z,Wed Feb 12 2025 11:41:06 GMT-0600 (Central Standard Time),306037.0,O,m,1937,7,1,121.bmp,-120,-120,122.bmp,120,-120,123.bmp,-120,120,124.bmp,120,120,9993.5,296043.5,7052,yes,SM,A,124.bmp,120,120,217193,211165,219211,213179,299884.0,293856.0,301901.0,295870.0,7
2,0,1,0,0,6,test,1,1,m,Wed Feb 12 2025 11:41:06 GMT-0600 (Central Standard Time),315317.6000000015,O,m,1219,8,1,125.bmp,-120,-120,126.bmp,120,-120,127.bmp,-120,120,128.bmp,120,120,9277.19999999553,306040.40000000596,7052,no,SM,A,125.bmp,120,-120,217193,211165,219211,213179,309881.0,303853.0,311899.0,305867.0,8
3,0,0,1,0,6,test,1,0,m,Wed Feb 12 2025 11:41:06 GMT-0600 (Central Standard Time),325380.80000000447,O,None,2014,9,1,129.bmp,-120,-120,130.bmp,120,-120,131.bmp,-120,120,132.bmp,120,120,10059.39999999851,315321.40000000596,7052,no,SM,A,130.bmp,-120,120,217193,211165,219211,213179,319161.0,313134.0,321179.0,315148.0,9
4,0,0,0,1,6,test,1,0,z,Wed Feb 12 2025 11:41:06 GMT-0600 (Central Standard Time),334378.30000000447,O,m,948,10,1,137.bmp,-120,-120,138.bmp,120,-120,139.bmp,-120,120,140.bmp,120,120,8994.39999999851,325383.90000000596,7052,yes,SM,A,140.bmp,120,120,217193,211165,219211,213179,329225.0,323196.0,331242.0,325210.0,10
3,0,0,1,0,7,test,1,1,z,Wed Feb 12 2025 11:41:06 GMT-0600 (Central Standard Time),343725.200000003,O,z,1286,11,1,133.bmp,-120,-120,134.bmp,120,-120,135.bmp,-120,120,136.bmp,120,120,9342.5,334382.700000003,7052,yes,SM,A,135.bmp,-120,120,217193,211165,219211,213179,338222.0,332195.0,340240.0,334208.0,11
2,0,1,0,0,8,test,1,1,m,Wed Feb 12 2025 11:41:06 GMT-0600 (Central Standard Time),352789.0,O,m,1011,12,1,141.bmp,-120,-120,142.bmp,120,-120,143.bmp,-120,120,144.bmp,120,120,9060.5,343728.5,7052,no,SM,A,141.bmp,120,-120,217193,211165,219211,213179,347569.0,341541.0,349587.0,343555.0,12
3,0,0,1,0,9,test,1,1,m,Wed Feb 12 2025 11:41:06 GMT-0600 (Central Standard Time),362302.80000000447,O,m,1460,13,1,145.bmp,-120,-120,146.bmp,120,-120,147.bmp,-120,120,148.bmp,120,120,9510.39999999851,352792.40000000596,7052,no,SM,A,146.bmp,-120,120,217193,211165,219211,213179,356633.0,350605.0,358650.0,352618.0,13
1,1,0,0,0,10,test,1,1,z,Wed Feb 12 2025 11:41:06 GMT-0600 (Central Standard Time),372132.90000000596,O,z,1778,14,1,149.bmp,-120,-120,150.bmp,120,-120,104.bmp,-120,120,101.bmp,120,120,9827.20000000298,362305.700000003,7052,yes,SM,A,149.bmp,-120,-120,217193,211165,219211,213179,366147.0,360118.0,368164.0,362133.0,14
4,0,0,0,1,11,test,1,1,m,Wed Feb 12 2025 11:41:06 GMT-0600 (Central Standard Time),381347.1000000015,O,m,1156,15,1,110.bmp,-120,-120,111.bmp,120,-120,112.bmp,-120,120,113.bmp,120,120,9207.39999999851,372139.700000003,7052,no,SM,A,111.bmp,120,120,217193,211165,219211,213179,375977.0,369952.0,377994.0,371963.0,15
1,1,0,0,0,12,test,1,1,m,Wed Feb 12 2025 11:41:06 GMT-0600 (Central Standard Time),390543.80000000447,O,m,1149,16,1,102.bmp,-120,-120,103.bmp,120,-120,104.bmp,-120,120,105.bmp,120,120,9193.20000000298,381350.6000000015,7052,no,SM,A,105.bmp,-120,-120,217193,211165,219211,213179,385190.0,379163.0,387193.0,381176.0,16
3,0,0,1,0,12,test,1,0,m,Wed Feb 12 2025 11:41:06 GMT-0600 (Central Standard Time),400607.5,O,None,2015,17,1,122.bmp,-120,-120,123.bmp,120,-120,124.bmp,-120,120,125.bmp,120,120,10059.79999999702,390547.700000003,7052,no,SM,A,122.bmp,-120,120,217193,211165,219211,213179,394388.0,388360.0,396405.0,390373.0,17
1,1,0,0,0,13,test,1,1,z,Wed Feb 12 2025 11:41:06 GMT-0600 (Central Standard Time),409721.200000003,O,z,1057,18,1,106.bmp,-120,-120,107.bmp,120,-120,108.bmp,-120,120,109.bmp,120,120,9110.0,400611.200000003,7052,yes,SM,A,106.bmp,-120,-120,217193,211165,219211,213179,404451.0,398423.0,406469.0,400437.0,18
2,0,1,0,0,14,test,1,1,z,Wed Feb 12 2025 11:41:06 GMT-0600 (Central Standard Time),419284.90000000596,O,z,1510,19,1,126.bmp,-120,-120,127.bmp,120,-120,128.bmp,-120,120,129.bmp,120,120,9560.5,409724.40000000596,7052,yes,SM,A,127.bmp,120,-120,217193,211165,219211,213179,413565.0,407537.0,415584.0,409551.0,19
3,0,0,1,0,15,test,1,1,z,Wed Feb 12 2025 11:41:06 GMT-0600 (Central Standard Time),428348.700000003,O,z,1004,20,1,130.bmp,-120,-120,131.bmp,120,-120,132.bmp,-120,120,133.bmp,120,120,9057.39999999851,419291.30000000447,7052,yes,SM,A,132.bmp,-120,120,217193,211165,219211,213179,423128.0,417104.0,425146.0,419114.0,20
1,1,0,0,0,16,test,1,1,m,Wed Feb 12 2025 11:41:06 GMT-0600 (Central Standard Time),438329.0,O,m,1924,21,1,114.bmp,-120,-120,115.bmp,120,-120,116.bmp,-120,120,117.bmp,120,120,9976.89999999851,428352.1000000015,7052,no,SM,A,116.bmp,-120,-120,217193,211165,219211,213179,432192.0,426164.0,434210.0,428178.0,21
4,0,0,0,1,16,test,1,0,z,Wed Feb 12 2025 11:41:06 GMT-0600 (Central Standard Time),448437.80000000447,O,None,2060,22,1,118.bmp,-120,-120,119.bmp,120,-120,120.bmp,-120,120,121.bmp,120,120,10105.80000000447,438332.0,7052,yes,SM,A,121.bmp,120,120,217193,211165,219211,213179,442173.0,436144.0,444190.0,438159.0,22
1,1,0,0,0,16,test,1,0,m,Wed Feb 12 2025 11:41:06 GMT-0600 (Central Standard Time),457706.0,O,z,1215,23,1,134.bmp,-120,-120,135.bmp,120,-120,136.bmp,-120,120,137.bmp,120,120,9265.09999999404,448440.90000000596,7052,no,SM,A,137.bmp,-120,-120,217193,211165,219211,213179,452269.0,446253.0,454287.0,448255.0,23
2,0,1,0,0,17,test,1,1,z,Wed Feb 12 2025 11:41:06 GMT-0600 (Central Standard Time),467269.80000000447,O,z,1502,24,1,142.bmp,-120,-120,143.bmp,120,-120,144.bmp,-120,120,145.bmp,120,120,9560.80000000447,457709.0,7052,yes,SM,A,143.bmp,120,-120,217193,211165,219211,213179,461550.0,455521.0,463568.0,457536.0,24
4,0,0,0,1,18,test,1,1,m,Wed Feb 12 2025 11:41:06 GMT-0600 (Central Standard Time),477083.5,O,m,1755,25,1,146.bmp,-120,-120,147.bmp,120,-120,148.bmp,-120,120,149.bmp,120,120,9810.09999999404,467273.40000000596,7052,no,SM,A,148.bmp,120,120,217193,211165,219211,213179,471113.0,465086.0,473131.0,467099.0,25
1,1,0,0,0,19,test,1,1,z,Wed Feb 12 2025 11:41:06 GMT-0600 (Central Standard Time),486398.1000000015,O,z,1253,26,1,138.bmp,-120,-120,139.bmp,120,-120,140.bmp,-120,120,141.bmp,120,120,9311.5,477086.6000000015,7052,yes,SM,A,138.bmp,-120,-120,217193,211165,219211,213179,480927.0,474899.0,482945.0,476913.0,26
4,0,0,0,1,20,test,1,1,z,Wed Feb 12 2025 11:41:06 GMT-0600 (Central Standard Time),496110.5,O,z,1658,27,1,150.bmp,-120,-120,111.bmp,120,-120,101.bmp,-120,120,102.bmp,120,120,9709.0,486401.5,7052,yes,SM,A,102.bmp,120,120,217193,211165,219211,213179,490241.0,484214.0,492259.0,486227.0,27
3,0,0,1,0,21,test,1,1,m,Wed Feb 12 2025 11:41:06 GMT-0600 (Central Standard Time),505707.80000000447,O,m,1537,28,1,103.bmp,-120,-120,104.bmp,120,-120,105.bmp,-120,120,106.bmp,120,120,9593.80000000447,496114.0,7052,no,SM,A,103.bmp,-120,120,217193,211165,219211,213179,499955.0,493926.0,501973.0,495941.0,28
2,0,1,0,0,22,test,1,1,z,Wed Feb 12 2025 11:41:06 GMT-0600 (Central Standard Time),515071.5,O,z,1301,29,1,107.bmp,-120,-120,108.bmp,120,-120,109.bmp,-120,120,110.bmp,120,120,9360.0,505711.5,7052,yes,SM,A,108.bmp,120,-120,217193,211165,219211,213179,509551.0,503524.0,511569.0,505537.0,29
3,0,0,1,0,22,test,1,0,z,Wed Feb 12 2025 11:41:06 GMT-0600 (Central Standard Time),524385.400000006,O,m,1249,30,1,111.bmp,-120,-120,112.bmp,120,-120,113.bmp,-120,120,114.bmp,120,120,9310.30000000447,515075.1000000015,7052,yes,SM,A,113.bmp,-120,120,217193,211165,219211,213179,518915.0,512887.0,520933.0,514901.0,30
1,1,0,0,0,23,test,1,1,z,Wed Feb 12 2025 11:41:06 GMT-0600 (Central Standard Time),533299.1000000015,O,z,863,31,1,115.bmp,-120,-120,116.bmp,120,-120,117.bmp,-120,120,118.bmp,120,120,8910.69999999553,524388.400000006,7052,yes,SM,A,115.bmp,-120,-120,217193,211165,219211,213179,528229.0,522201.0,530247.0,524215.0,31
2,0,1,0,0,24,test,1,1,m,Wed Feb 12 2025 11:41:06 GMT-0600 (Central Standard Time),542668.6000000015,O,m,1174,32,1,119.bmp,-120,-120,120.bmp,120,-120,121.bmp,-120,120,122.bmp,120,120,9366.0,533302.6000000015,7052,no,SM,A,119.bmp,120,-120,217193,211165,219211,213179,537143.0,531115.0,539160.0,533129.0,32
4,0,0,0,1,25,test,1,1,z,Wed Feb 12 2025 11:41:06 GMT-0600 (Central Standard Time),552009.8000000045,O,z,1282,33,1,131.bmp,-120,-120,132.bmp,120,-120,133.bmp,-120,120,134.bmp,120,120,9337.60000000149,542672.200000003,7052,yes,SM,A,134.bmp,120,120,217193,211165,219211,213179,546507.0,540485.0,548524.0,542492.0,33
2,0,1,0,0,26,test,1,1,z,Wed Feb 12 2025 11:41:06 GMT-0600 (Central Standard Time),560823.700000003,O,z,759,34,1,123.bmp,-120,-120,124.bmp,120,-120,125.bmp,-120,120,126.bmp,120,120,8810.29999999702,552013.400000006,7052,yes,SM,A,124.bmp,120,-120,217193,211165,219211,213179,555853.0,549826.0,557871.0,551840.0,34
4,0,0,0,1,27,test,1,1,m,Wed Feb 12 2025 11:41:06 GMT-0600 (Central Standard Time),570787.400000006,O,m,1905,35,1,127.bmp,-120,-120,128.bmp,120,-120,129.bmp,-120,120,130.bmp,120,120,9960.5,560826.900000006,7052,no,SM,A,129.bmp,120,120,217193,211165,219211,213179,564667.0,558639.0,566685.0,560653.0,35
3,0,0,1,0,28,test,1,1,m,Wed Feb 12 2025 11:41:06 GMT-0600 (Central Standard Time),580517.900000006,O,m,1669,36,1,135.bmp,-120,-120,136.bmp,120,-120,137.bmp,-120,120,138.bmp,120,120,9727.60000000149,570790.3000000045,7052,no,SM,A,135.bmp,-120,120,217193,211165,219211,213179,574631.0,568603.0,576649.0,570617.0,36
1,1,0,0,0,29,test,1,1,m,Wed Feb 12 2025 11:41:06 GMT-0600 (Central Standard Time),590547.700000003,O,m,1979,37,1,139.bmp,-120,-120,140.bmp,120,-120,141.bmp,-120,120,142.bmp,120,120,10026.5,580521.200000003,7052,no,SM,A,140.bmp,-120,-120,217193,211165,219211,213179,584361.0,578333.0,586379.0,580347.0,37
2,0,1,0,0,29,test,1,0,m,Wed Feb 12 2025 11:41:06 GMT-0600 (Central Standard Time),600478.0,O,z,1877,38,1,143.bmp,-120,-120,144.bmp,120,-120,145.bmp,-120,120,146.bmp,120,120,9927.0,590551.0,7052,no,SM,A,145.bmp,120,-120,217193,211165,219211,213179,594391.0,588363.0,596409.0,590378.0,38
4,0,0,0,1,30,test,1,1,z,Wed Feb 12 2025 11:41:06 GMT-0600 (Central Standard Time),609641.8000000045,O,z,1099,39,1,147.bmp,-120,-120,148.bmp,120,-120,149.bmp,-120,120,150.bmp,120,120,9161.10000000149,600480.700000003,7052,yes,SM,A,150.bmp,120,120,217193,211165,219211,213179,604322.0,598293.0,606339.0,600308.0,39
3,0,0,1,0,31,test,1,1,m,Wed Feb 12 2025 11:41:06 GMT-0600 (Central Standard Time),619105.6000000015,O,m,1407,40,1,104.bmp,-120,-120,105.bmp,120,-120,106.bmp,-120,120,107.bmp,120,120,9460.0,609645.6000000015,7052,no,SM,A,105.bmp,-120,120,217193,211165,219211,213179,613486.0,607458.0,615503.0,609472.0,40
1,1,0,0,0,32,test,1,1,z,Wed Feb 12 2025 11:41:06 GMT-0600 (Central Standard Time),628802.3000000045,O,z,1639,41,1,108.bmp,-120,-120,109.bmp,120,-120,110.bmp,-120,120,111.bmp,120,120,9693.60000000149,619108.700000003,7052,yes,SM,A,108.bmp,-120,-120,217193,211165,219211,213179,622949.0,616921.0,624967.0,618935.0,41
4,0,0,0,1,32,test,1,0,z,Wed Feb 12 2025 11:41:06 GMT-0600 (Central Standard Time),638866.0,O,None,2014,42,1,112.bmp,-120,-120,113.bmp,120,-120,114.bmp,-120,120,115.bmp,120,120,10060.39999999851,628805.6000000015,7052,yes,SM,A,115.bmp,120,120,217193,211165,219211,213179,632646.0,626618.0,634664.0,628632.0,42
1,1,0,0,0,33,test,1,1,z,Wed Feb 12 2025 11:41:06 GMT-0600 (Central Standard Time),647979.700000003,O,z,1055,43,1,116.bmp,-120,-120,117.bmp,120,-120,118.bmp,-120,120,119.bmp,120,120,9110.70000000298,638869.0,7052,yes,SM,A,116.bmp,-120,-120,217193,211165,219211,213179,642710.0,636681.0,644727.0,638695.0,43
4,0,0,0,1,34,test,1,1,m,Wed Feb 12 2025 11:41:06 GMT-0600 (Central Standard Time),657093.5,O,m,1053,44,1,104.bmp,-120,-120,101.bmp,120,-120,102.bmp,-120,120,103.bmp,120,120,9110.79999999702,647982.700000003,7052,no,SM,A,104.bmp,120,120,217193,211165,219211,213179,651823.0,645795.0,653841.0,647809.0,44
1,1,0,0,0,35,test,1,1,m,Wed Feb 12 2025 11:41:06 GMT-0600 (Central Standard Time),666340.700000003,O,m,1195,45,1,128.bmp,-120,-120,129.bmp,120,-120,130.bmp,-120,120,131.bmp,120,120,9243.89999999851,657096.8000000045,7052,no,SM,A,131.bmp,-120,-120,217193,211165,219211,213179,660937.0,654909.0,662955.0,656923.0,45
1,1,0,0,0,36,test,1,1,m,Wed Feb 12 2025 11:41:06 GMT-0600 (Central Standard Time),675254.400000006,O,m,860,46,1,120.bmp,-120,-120,121.bmp,120,-120,122.bmp,-120,120,123.bmp,120,120,8910.60000000149,666343.8000000045,7052,no,SM,A,121.bmp,-120,-120,217193,211165,219211,213179,670184.0,664156.0,672202.0,666170.0,46
3,0,0,1,0,37,test,1,1,z,Wed Feb 12 2025 11:41:06 GMT-0600 (Central Standard Time),685018.0,O,z,1714,47,1,124.bmp,-120,-120,125.bmp,120,-120,126.bmp,-120,120,127.bmp,120,120,9760.5,675257.5,7052,yes,SM,A,126.bmp,-120,120,217193,211165,219211,213179,679098.0,673070.0,681116.0,675084.0,47
3,0,0,1,0,37,test,1,0,z,Wed Feb 12 2025 11:41:06 GMT-0600 (Central Standard Time),694864.900000006,O,m,1791,48,1,140.bmp,-120,-120,141.bmp,120,-120,142.bmp,-120,120,143.bmp,120,120,9844.10000000149,685020.8000000045,7052,yes,SM,A,142.bmp,-120,120,217193,211165,219211,213179,688862.0,682833.0,690879.0,684848.0,48
2,0,1,0,0,37,test,1,0,z,Wed Feb 12 2025 11:41:06 GMT-0600 (Central Standard Time),704928.400000006,O,None,2013,49,1,136.bmp,-120,-120,137.bmp,120,-120,138.bmp,-120,120,139.bmp,120,120,10059.80000000447,694868.6000000015,7052,yes,SM,A,137.bmp,120,-120,217193,211165,219211,213179,698709.0,692681.0,700727.0,694695.0,49
3,0,0,1,0,37,test,1,0,m,Wed Feb 12 2025 11:41:06 GMT-0600 (Central Standard Time),714075.700000003,O,z,1096,50,1,132.bmp,-120,-120,133.bmp,120,-120,134.bmp,-120,120,135.bmp,120,120,9144.5,704931.200000003,7052,no,SM,A,132.bmp,-120,120,217193,211165,219211,213179,708772.0,702743.0,710790.0,704758.0,50
2,0,1,0,0,38,test,1,1,z,Wed Feb 12 2025 11:41:06 GMT-0600 (Central Standard Time),722957.5,O,z,821,51,1,144.bmp,-120,-120,145.bmp,120,-120,146.bmp,-120,120,147.bmp,120,120,8879.0,714078.5,7052,yes,SM,A,145.bmp,120,-120,217193,211165,219211,213179,717919.0,711891.0,719937.0,713906.0,51
4,0,0,0,1,38,test,1,0,m,Wed Feb 12 2025 11:41:06 GMT-0600 (Central Standard Time),733019.8000000045,O,None,2014,52,1,148.bmp,-120,-120,149.bmp,120,-120,150.bmp,-120,120,131.bmp,120,120,10059.30000000447,722960.5,7052,no,SM,A,148.bmp,120,120,217193,211165,219211,213179,726800.0,720773.0,728818.0,722786.0,52
3,0,0,1,0,39,test,1,1,z,Wed Feb 12 2025 11:41:06 GMT-0600 (Central Standard Time),741850.3000000045,O,z,765,53,1,101.bmp,-120,-120,102.bmp,120,-120,103.bmp,-120,120,104.bmp,120,120,8826.89999999851,733023.400000006,7052,yes,SM,A,103.bmp,-120,120,217193,211165,219211,213179,736863.0,730836.0,738881.0,732850.0,53
1,1,0,0,0,39,test,1,0,m,Wed Feb 12 2025 11:41:06 GMT-0600 (Central Standard Time),751463.900000006,O,z,1550,54,1,105.bmp,-120,-120,106.bmp,120,-120,107.bmp,-120,120,108.bmp,120,120,9610.80000000447,741853.1000000015,7052,no,SM,A,107.bmp,-120,-120,217193,211165,219211,213179,745694.0,739665.0,747712.0,741680.0,54
4,0,0,0,1,39,test,1,0,z,Wed Feb 12 2025 11:41:06 GMT-0600 (Central Standard Time),760677.700000003,O,m,1153,55,1,109.bmp,-120,-120,110.bmp,120,-120,111.bmp,-120,120,112.bmp,120,120,9210.29999999702,751467.400000006,7052,yes,SM,A,112.bmp,120,120,217193,211165,219211,213179,755307.0,749280.0,757325.0,751294.0,55
2,0,1,0,0,40,test,1,1,m,Wed Feb 12 2025 11:41:06 GMT-0600 (Central Standard Time),769724.900000006,O,m,995,56,1,113.bmp,-120,-120,114.bmp,120,-120,115.bmp,-120,120,116.bmp,120,120,9043.70000000298,760681.200000003,7052,no,SM,A,113.bmp,120,-120,217193,211165,219211,213179,764521.0,758494.0,766539.0,760508.0,56
4,0,0,0,1,41,test,1,1,m,Wed Feb 12 2025 11:41:06 GMT-0600 (Central Standard Time),778622.1000000015,O,m,775,57,1,117.bmp,-120,-120,118.bmp,120,-120,119.bmp,-120,120,120.bmp,120,120,8894.19999999553,769727.900000006,7052,no,SM,A,118.bmp,120,120,217193,211165,219211,213179,773568.0,767540.0,775647.0,769555.0,57
3,0,0,1,0,42,test,1,1,z,Wed Feb 12 2025 11:41:06 GMT-0600 (Central Standard Time),788285.700000003,O,z,1603,58,1,121.bmp,-120,-120,122.bmp,120,-120,123.bmp,-120,120,124.bmp,120,120,9660.5,778625.200000003,7052,yes,SM,A,123.bmp,-120,120,217193,211165,219211,213179,782466.0,776437.0,784483.0,778452.0,58
2,0,1,0,0,43,test,1,1,m,Wed Feb 12 2025 11:41:06 GMT-0600 (Central Standard Time),797232.8000000045,O,m,882,59,1,125.bmp,-120,-120,126.bmp,120,-120,127.bmp,-120,120,128.bmp,120,120,8944.10000000149,788288.700000003,7052,no,SM,A,128.bmp,120,-120,217193,211165,219211,213179,792130.0,786101.0,794147.0,788116.0,59
1,1,0,0,0,44,test,1,1,z,Wed Feb 12 2025 11:41:06 GMT-0600 (Central Standard Time),806946.3000000045,O,z,1664,60,1,129.bmp,-120,-120,130.bmp,120,-120,131.bmp,-120,120,132.bmp,120,120,9710.20000000298,797236.1000000015,7052,yes,SM,A,129.bmp,-120,-120,217193,211165,219211,213179,801077.0,795048.0,803094.0,797063.0,60
2,0,1,0,0,45,test,1,1,z,Wed Feb 12 2025 11:41:06 GMT-0600 (Central Standard Time),815943.8000000045,O,z,941,61,1,133.bmp,-120,-120,134.bmp,120,-120,135.bmp,-120,120,136.bmp,120,120,8994.70000000298,806949.1000000015,7052,yes,SM,A,134.bmp,120,-120,217193,211165,219211,213179,810790.0,804761.0,812808.0,806776.0,61
4,0,0,0,1,46,test,1,1,z,Wed Feb 12 2025 11:41:06 GMT-0600 (Central Standard Time),824740.700000003,O,z,736,62,1,141.bmp,-120,-120,142.bmp,120,-120,143.bmp,-120,120,144.bmp,120,120,8793.79999999702,815946.900000006,7052,yes,SM,A,144.bmp,120,120,217193,211165,219211,213179,819787.0,813759.0,821805.0,815773.0,62
1,1,0,0,0,46,test,1,0,m,Wed Feb 12 2025 11:41:06 GMT-0600 (Central Standard Time),834054.6000000015,O,z,1252,63,1,145.bmp,-120,-120,146.bmp,120,-120,147.bmp,-120,120,148.bmp,120,120,9310.69999999553,824743.900000006,7052,no,SM,A,145.bmp,-120,120,217193,211165,219211,213179,828585.0,822556.0,830602.0,824571.0,63
2,0,1,0,0,47,test,1,1,z,Wed Feb 12 2025 11:41:06 GMT-0600 (Central Standard Time),843235.3000000045,O,z,1122,64,1,149.bmp,-120,-120,150.bmp,120,-120,112.bmp,-120,120,101.bmp,120,120,9177.30000000447,834058.0,7052,yes,SM,A,150.bmp,120,-120,217193,211165,219211,213179,837898.0,831870.0,839916.0,833884.0,64
4,0,0,0,1,48,test,1,1,m,Wed Feb 12 2025 11:41:06 GMT-0600 (Central Standard Time),852382.5,O,m,1085,65,1,102.bmp,-120,-120,103.bmp,120,-120,104.bmp,-120,120,105.bmp,120,120,9144.5,843238.0,7052,no,SM,A,104.bmp,120,120,217193,211165,219211,213179,847079.0,841050.0,849097.0,843065.0,65
3,0,0,1,0,49,test,1,1,m,Wed Feb 12 2025 11:41:06 GMT-0600 (Central Standard Time),861380.5,O,m,946,66,1,106.bmp,-120,-120,107.bmp,120,-120,108.bmp,-120,120,109.bmp,120,120,8995.19999999553,852385.3000000045,7052,no,SM,A,109.bmp,-120,120,217193,211165,219211,213179,856226.0,850197.0,858244.0,852212.0,66
2,0,1,0,0,50,test,1,1,m,Wed Feb 12 2025 11:41:06 GMT-0600 (Central Standard Time),870959.6000000015,O,m,1517,67,1,137.bmp,-120,-120,138.bmp,120,-120,139.bmp,-120,120,140.bmp,120,120,9575.89999999851,861383.700000003,7052,no,SM,A,139.bmp,120,-120,217193,211165,219211,213179,865223.0,859196.0,867241.0,861209.0,67
3,0,0,1,0,50,test,1,0,z,Wed Feb 12 2025 11:41:06 GMT-0600 (Central Standard Time),881023.400000006,O,None,2013,68,1,110.bmp,-120,-120,111.bmp,120,-120,112.bmp,-120,120,113.bmp,120,120,10060.60000000149,870962.8000000045,7052,yes,SM,A,112.bmp,-120,120,217193,211165,219211,213179,874803.0,868775.0,876822.0,870789.0,68
1,1,0,0,0,51,test,1,1,m,Wed Feb 12 2025 11:41:06 GMT-0600 (Central Standard Time),890170.3000000045,O,m,1088,69,1,114.bmp,-120,-120,115.bmp,120,-120,116.bmp,-120,120,117.bmp,120,120,9143.30000000447,881027.0,7052,no,SM,A,115.bmp,-120,-120,217193,211165,219211,213179,884867.0,878839.0,886885.0,880853.0,69
2,0,1,0,0,52,test,1,1,m,Wed Feb 12 2025 11:41:06 GMT-0600 (Central Standard Time),899450.700000003,O,m,1230,70,1,118.bmp,-120,-120,119.bmp,120,-120,120.bmp,-120,120,121.bmp,120,120,9277.20000000298,890173.5,7052,no,SM,A,120.bmp,120,-120,217193,211165,219211,213179,894014.0,887986.0,896032.0,890000.0,70
4,0,0,0,1,53,test,1,1,z,Wed Feb 12 2025 11:41:06 GMT-0600 (Central Standard Time),909364.5,O,z,1853,71,1,122.bmp,-120,-120,123.bmp,120,-120,124.bmp,-120,120,125.bmp,120,120,9910.59999999404,899453.900000006,7052,yes,SM,A,125.bmp,120,120,217193,211165,219211,213179,903295.0,897266.0,905312.0,899280.0,71
1,1,0,0,0,54,test,1,1,z,Wed Feb 12 2025 11:41:06 GMT-0600 (Central Standard Time),918778.0,O,z,1364,72,1,126.bmp,-120,-120,127.bmp,120,-120,128.bmp,-120,120,129.bmp,120,120,9410.5,909367.5,7052,yes,SM,A,126.bmp,-120,-120,217193,211165,219211,213179,913208.0,907180.0,915226.0,909194.0,72
2,0,1,0,0,54,test,1,0,z,Wed Feb 12 2025 11:41:06 GMT-0600 (Central Standard Time),928191.900000006,O,m,1358,73,1,130.bmp,-120,-120,131.bmp,120,-120,132.bmp,-120,120,133.bmp,120,120,9410.90000000596,918781.0,7052,yes,SM,A,131.bmp,120,-120,217193,211165,219211,213179,922622.0,916593.0,924639.0,918608.0,73
4,0,0,0,1,54,test,1,0,m,Wed Feb 12 2025 11:41:06 GMT-0600 (Central Standard Time),938155.5,O,z,1912,74,1,134.bmp,-120,-120,135.bmp,120,-120,136.bmp,-120,120,137.bmp,120,120,9960.39999999851,928195.1000000015,7052,no,SM,A,136.bmp,120,120,217193,211165,219211,213179,932036.0,926007.0,934053.0,928021.0,74
2,0,1,0,0,55,test,1,1,m,Wed Feb 12 2025 11:41:06 GMT-0600 (Central Standard Time),947185.8000000045,O,m,972,75,1,138.bmp,-120,-120,139.bmp,120,-120,140.bmp,-120,120,141.bmp,120,120,9027.39999999851,938158.400000006,7052,no,SM,A,141.bmp,120,-120,217193,211165,219211,213179,941999.0,935971.0,944017.0,937985.0,75
1,1,0,0,0,56,test,1,1,z,Wed Feb 12 2025 11:41:06 GMT-0600 (Central Standard Time),956299.6000000015,O,z,1054,76,1,142.bmp,-120,-120,143.bmp,120,-120,144.bmp,-120,120,145.bmp,120,120,9110.69999999553,947188.900000006,7052,yes,SM,A,142.bmp,-120,-120,217193,211165,219211,213179,951030.0,945001.0,953047.0,947015.0,76
3,0,0,1,0,57,test,1,1,z,Wed Feb 12 2025 11:41:06 GMT-0600 (Central Standard Time),965796.6000000015,O,z,1436,77,1,150.bmp,-120,-120,111.bmp,120,-120,101.bmp,-120,120,102.bmp,120,120,9493.29999999702,956303.3000000045,7052,yes,SM,A,101.bmp,-120,120,217193,211165,219211,213179,960143.0,954116.0,962161.0,956129.0,77
1,1,0,0,0,57,test,1,0,m,Wed Feb 12 2025 11:41:06 GMT-0600 (Central Standard Time),975860.3000000045,O,None,2014,78,1,146.bmp,-120,-120,147.bmp,120,-120,148.bmp,-120,120,149.bmp,120,120,10060.39999999851,965799.900000006,7052,no,SM,A,147.bmp,-120,-120,217193,211165,219211,213179,969640.0,963612.0,971658.0,965626.0,78
4,0,0,0,1,58,test,1,1,m,Wed Feb 12 2025 11:41:06 GMT-0600 (Central Standard Time),985057.6000000015,O,m,1147,79,1,107.bmp,-120,-120,108.bmp,120,-120,109.bmp,-120,120,110.bmp,120,120,9189.29999999702,975868.3000000045,7052,no,SM,A,107.bmp,120,120,217193,211165,219211,213179,979704.0,973681.0,981721.0,975690.0,79
3,0,0,1,0,59,test,1,1,m,Wed Feb 12 2025 11:41:06 GMT-0600 (Central Standard Time),994187.6000000015,O,m,1072,80,1,103.bmp,-120,-120,104.bmp,120,-120,105.bmp,-120,120,106.bmp,120,120,9126.5,985061.1000000015,7052,no,SM,A,106.bmp,-120,120,217193,211165,219211,213179,988901.0,982873.0,990918.0,984887.0,80
