acc_sum,block,block_c,change,condition,correct,correct_response,datetime,endtime,face,project,response,response_time,row_sel,session_number,start_end,starttime,subject_id,task,task_vers,trial
0,prac,1,,1-Back,,,Mon Mar 10 2025 14:42:15 GMT-0500 (Central Daylight Time),,093_m_f_n_a.png,O,space,10619,1,1,,,7076,NNB,C,0
1,prac,1,0.0,1-Back,1,m,Mon Mar 10 2025 14:42:15 GMT-0500 (Central Daylight Time),141464.10000002384,098_y_f_n_a.png,O,m,710,2,1,1573.0,139891.10000002384,7076,NNB,C,1
2,prac,1,1.0,1-Back,1,z,Mon Mar 10 2025 14:42:15 GMT-0500 (Central Daylight Time),143764.30000001192,098_y_f_n_a.png,O,z,1508,3,1,2291.5,141472.80000001192,7076,NNB,C,2
3,prac,1,0.0,1-Back,1,m,Mon Mar 10 2025 14:42:15 GMT-0500 (Central Daylight Time),145697.10000002384,059_o_m_n_a.png,O,m,1061,4,1,1923.6000000238419,143773.5,7076,NNB,C,3
4,prac,1,0.0,1-Back,1,m,Mon Mar 10 2025 14:42:15 GMT-0500 (Central Daylight Time),148231.0,092_m_m_n_a.png,O,m,1663,5,1,2526.199999988079,145704.80000001192,7076,NNB,C,4
5,prac,1,1.0,1-Back,1,z,Mon Mar 10 2025 14:42:15 GMT-0500 (Central Daylight Time),149845.0,092_m_m_n_a.png,O,z,848,6,1,1608.699999988079,148236.30000001192,7076,NNB,C,5
6,prac,1,0.0,1-Back,1,m,Mon Mar 10 2025 14:42:15 GMT-0500 (Central Daylight Time),151710.5,130_o_f_n_a.png,O,m,984,7,1,1856.8999999761581,149853.60000002384,7076,NNB,C,6
7,prac,1,0.0,1-Back,1,m,Mon Mar 10 2025 14:42:15 GMT-0500 (Central Daylight Time),153594.10000002384,082_m_m_n_a.png,O,m,1005,8,1,1875.9000000357628,151718.19999998808,7076,NNB,C,7
8,prac,1,0.0,1-Back,1,m,Mon Mar 10 2025 14:42:15 GMT-0500 (Central Daylight Time),155209.19999998808,093_m_f_n_a.png,O,m,826,9,1,1606.699999988079,153602.5,7076,NNB,C,8
9,prac,1,1.0,1-Back,1,z,Mon Mar 10 2025 14:42:15 GMT-0500 (Central Daylight Time),156710.19999998808,093_m_f_n_a.png,O,z,708,10,1,1493.5,155216.69999998808,7076,NNB,C,9
10,prac,1,0.0,1-Back,1,m,Mon Mar 10 2025 14:42:15 GMT-0500 (Central Daylight Time),158093.30000001192,059_o_m_n_a.png,O,m,606,11,1,1374.1000000238419,156719.19999998808,7076,NNB,C,10
11,prac,1,0.0,1-Back,1,m,Mon Mar 10 2025 14:42:15 GMT-0500 (Central Daylight Time),159658.30000001192,028_y_f_n_a.png,O,m,690,12,1,1555.1000000238419,158103.19999998808,7076,NNB,C,11
0,test,1,0.0,1-Back,,,Mon Mar 10 2025 14:42:15 GMT-0500 (Central Daylight Time),159658.30000001192,098_y_f_n_a.png,O,space,9406,1,1,1555.1000000238419,158103.19999998808,7076,NNB,C,0
1,test,1,0.0,1-Back,1,m,Mon Mar 10 2025 14:42:15 GMT-0500 (Central Daylight Time),224637.30000001192,006_m_f_n_a.png,O,m,735,2,1,1757.0,222880.30000001192,7076,NNB,C,1
2,test,1,0.0,1-Back,1,m,Mon Mar 10 2025 14:42:15 GMT-0500 (Central Daylight Time),226520.19999998808,028_y_f_n_a.png,O,m,854,3,1,1874.3999999761581,224645.80000001192,7076,NNB,C,2
3,test,1,1.0,1-Back,1,z,Mon Mar 10 2025 14:42:15 GMT-0500 (Central Daylight Time),228255.30000001192,028_y_f_n_a.png,O,z,718,4,1,1728.1000000238419,226527.19999998808,7076,NNB,C,3
4,test,1,0.0,1-Back,1,m,Mon Mar 10 2025 14:42:15 GMT-0500 (Central Daylight Time),230001.5,006_m_f_n_a.png,O,m,718,5,1,1739.300000011921,228262.19999998808,7076,NNB,C,4
5,test,1,0.0,1-Back,1,m,Mon Mar 10 2025 14:42:15 GMT-0500 (Central Daylight Time),231817.69999998808,059_o_m_n_a.png,O,m,796,6,1,1808.3999999761581,230009.30000001192,7076,NNB,C,5
6,test,1,1.0,1-Back,1,z,Mon Mar 10 2025 14:42:15 GMT-0500 (Central Daylight Time),233650.5,059_o_m_n_a.png,O,z,812,7,1,1825.5,231825.0,7076,NNB,C,6
7,test,1,0.0,1-Back,1,m,Mon Mar 10 2025 14:42:15 GMT-0500 (Central Daylight Time),235582.90000003576,092_m_m_n_a.png,O,m,906,8,1,1924.2000000476837,233658.69999998808,7076,NNB,C,7
8,test,1,0.0,1-Back,1,m,Mon Mar 10 2025 14:42:15 GMT-0500 (Central Daylight Time),237549.19999998808,130_o_f_n_a.png,O,m,949,9,1,1958.3999999761581,235590.80000001192,7076,NNB,C,8
9,test,1,0.0,1-Back,1,m,Mon Mar 10 2025 14:42:15 GMT-0500 (Central Daylight Time),239200.5,092_m_m_n_a.png,O,m,622,10,1,1645.199999988079,237555.30000001192,7076,NNB,C,9
10,test,1,0.0,1-Back,1,m,Mon Mar 10 2025 14:42:15 GMT-0500 (Central Daylight Time),240881.80000001192,057_y_m_n_a.png,O,m,651,11,1,1674.800000011921,239207.0,7076,NNB,C,10
11,test,1,1.0,1-Back,1,z,Mon Mar 10 2025 14:42:15 GMT-0500 (Central Daylight Time),242546.80000001192,057_y_m_n_a.png,O,z,633,12,1,1657.3999999761581,240889.40000003576,7076,NNB,C,11
12,test,1,0.0,1-Back,1,m,Mon Mar 10 2025 14:42:15 GMT-0500 (Central Daylight Time),244314.10000002384,030_o_f_n_a.png,O,m,743,13,1,1761.0,242553.10000002384,7076,NNB,C,12
13,test,1,1.0,1-Back,1,z,Mon Mar 10 2025 14:42:15 GMT-0500 (Central Daylight Time),246231.19999998808,030_o_f_n_a.png,O,z,899,14,1,1909.5999999642372,244321.60000002384,7076,NNB,C,13
14,test,1,0.0,1-Back,1,m,Mon Mar 10 2025 14:42:15 GMT-0500 (Central Daylight Time),248046.40000003576,031_y_m_n_a.png,O,m,790,15,1,1807.1000000238419,246239.30000001192,7076,NNB,C,14
15,test,1,0.0,1-Back,1,m,Mon Mar 10 2025 14:42:15 GMT-0500 (Central Daylight Time),250078.90000003576,093_m_f_n_a.png,O,m,1014,16,1,2025.0,248053.90000003576,7076,NNB,C,15
16,test,1,0.0,1-Back,1,m,Mon Mar 10 2025 14:42:15 GMT-0500 (Central Daylight Time),251679.0,146_o_m_n_a.png,O,m,583,17,1,1593.199999988079,250085.80000001192,7076,NNB,C,16
17,test,1,0.0,1-Back,1,m,Mon Mar 10 2025 14:42:15 GMT-0500 (Central Daylight Time),253344.10000002384,093_m_f_n_a.png,O,m,647,18,1,1658.5,251685.60000002384,7076,NNB,C,17
0,test,2,0.0,1-Back,,,Mon Mar 10 2025 14:42:15 GMT-0500 (Central Daylight Time),253344.10000002384,092_m_m_n_a.png,O,space,5044,1,1,1658.5,251685.60000002384,7076,NNB,C,0
1,test,2,0.0,1-Back,1,m,Mon Mar 10 2025 14:42:15 GMT-0500 (Central Daylight Time),262691.5,006_m_f_n_a.png,O,m,1261,2,1,2274.099999964237,260417.40000003576,7076,NNB,C,1
2,test,2,1.0,1-Back,1,z,Mon Mar 10 2025 14:42:15 GMT-0500 (Central Daylight Time),264440.8000000119,006_m_f_n_a.png,O,z,720,3,1,1741.300000011921,262699.5,7076,NNB,C,2
3,test,2,0.0,1-Back,1,m,Mon Mar 10 2025 14:42:15 GMT-0500 (Central Daylight Time),266257.1999999881,092_m_m_n_a.png,O,m,785,4,1,1808.5999999642372,264448.60000002384,7076,NNB,C,3
4,test,2,0.0,1-Back,1,m,Mon Mar 10 2025 14:42:15 GMT-0500 (Central Daylight Time),268089.5,057_y_m_n_a.png,O,m,803,5,1,1824.199999988079,266265.3000000119,7076,NNB,C,4
5,test,2,0.0,1-Back,1,m,Mon Mar 10 2025 14:42:15 GMT-0500 (Central Daylight Time),269871.0,098_y_f_n_a.png,O,m,761,6,1,1774.699999988079,268096.3000000119,7076,NNB,C,5
6,test,2,1.0,1-Back,1,z,Mon Mar 10 2025 14:42:15 GMT-0500 (Central Daylight Time),271536.60000002384,098_y_f_n_a.png,O,z,643,7,1,1659.5,269877.10000002384,7076,NNB,C,6
7,test,2,0.0,1-Back,1,m,Mon Mar 10 2025 14:42:15 GMT-0500 (Central Daylight Time),273338.3000000119,057_y_m_n_a.png,O,m,776,8,1,1797.3999999761581,271540.90000003576,7076,NNB,C,7
8,test,2,0.0,1-Back,1,m,Mon Mar 10 2025 14:42:15 GMT-0500 (Central Daylight Time),275121.0,030_o_f_n_a.png,O,m,755,9,1,1776.5999999642372,273344.40000003576,7076,NNB,C,8
9,test,2,0.0,1-Back,1,m,Mon Mar 10 2025 14:42:15 GMT-0500 (Central Daylight Time),276887.10000002384,082_m_m_n_a.png,O,m,750,10,1,1759.5,275127.60000002384,7076,NNB,C,9
10,test,2,1.0,1-Back,1,z,Mon Mar 10 2025 14:42:15 GMT-0500 (Central Daylight Time),278701.60000002384,082_m_m_n_a.png,O,z,789,11,1,1806.199999988079,276895.40000003576,7076,NNB,C,10
11,test,2,0.0,1-Back,1,m,Mon Mar 10 2025 14:42:15 GMT-0500 (Central Daylight Time),280384.6999999881,030_o_f_n_a.png,O,m,662,12,1,1676.5,278708.1999999881,7076,NNB,C,11
12,test,2,0.0,1-Back,1,m,Mon Mar 10 2025 14:42:15 GMT-0500 (Central Daylight Time),282218.3000000119,130_o_f_n_a.png,O,m,809,13,1,1827.1000000238419,280391.1999999881,7076,NNB,C,12
13,test,2,0.0,1-Back,1,m,Mon Mar 10 2025 14:42:15 GMT-0500 (Central Daylight Time),283902.60000002384,059_o_m_n_a.png,O,m,667,14,1,1677.199999988079,282225.40000003576,7076,NNB,C,13
14,test,2,0.0,1-Back,1,m,Mon Mar 10 2025 14:42:15 GMT-0500 (Central Daylight Time),285734.6999999881,146_o_m_n_a.png,O,m,809,15,1,1826.0999999642372,283908.60000002384,7076,NNB,C,14
15,test,2,1.0,1-Back,1,z,Mon Mar 10 2025 14:42:15 GMT-0500 (Central Daylight Time),287383.1999999881,146_o_m_n_a.png,O,z,630,16,1,1641.5,285741.6999999881,7076,NNB,C,15
16,test,2,0.0,1-Back,1,m,Mon Mar 10 2025 14:42:15 GMT-0500 (Central Daylight Time),289585.3000000119,031_y_m_n_a.png,O,m,1185,17,1,2193.199999988079,287392.10000002384,7076,NNB,C,16
17,test,2,1.0,1-Back,1,z,Mon Mar 10 2025 14:42:15 GMT-0500 (Central Daylight Time),291300.0,031_y_m_n_a.png,O,z,694,18,1,1708.0999999642372,289591.90000003576,7076,NNB,C,17
0,test,3,1.0,1-Back,,,Mon Mar 10 2025 14:42:15 GMT-0500 (Central Daylight Time),291300.0,028_y_f_n_a.png,O,space,1993,1,1,1708.0999999642372,289591.90000003576,7076,NNB,C,0
1,test,3,0.0,1-Back,1,m,Mon Mar 10 2025 14:42:15 GMT-0500 (Central Daylight Time),297349.1999999881,146_o_m_n_a.png,O,m,925,1,1,1943.8999999761581,295405.3000000119,7076,NNB,C,1
2,test,3,1.0,1-Back,1,z,Mon Mar 10 2025 14:42:15 GMT-0500 (Central Daylight Time),299014.60000002384,146_o_m_n_a.png,O,z,649,1,1,1658.699999988079,297355.90000003576,7076,NNB,C,2
3,test,3,0.0,1-Back,1,m,Mon Mar 10 2025 14:42:15 GMT-0500 (Central Daylight Time),301031.1999999881,093_m_f_n_a.png,O,m,982,1,1,2010.5999999642372,299020.60000002384,7076,NNB,C,3
4,test,3,1.0,1-Back,1,z,Mon Mar 10 2025 14:42:15 GMT-0500 (Central Daylight Time),302679.60000002384,093_m_f_n_a.png,O,z,632,1,1,1641.699999988079,301037.90000003576,7076,NNB,C,4
5,test,3,0.0,1-Back,1,m,Mon Mar 10 2025 14:42:15 GMT-0500 (Central Daylight Time),304462.6999999881,030_o_f_n_a.png,O,m,767,1,1,1776.8999999761581,302685.8000000119,7076,NNB,C,5
6,test,3,0.0,1-Back,1,m,Mon Mar 10 2025 14:42:15 GMT-0500 (Central Daylight Time),306294.1999999881,057_y_m_n_a.png,O,m,815,1,1,1823.8999999761581,304470.3000000119,7076,NNB,C,6
7,test,3,0.0,1-Back,1,m,Mon Mar 10 2025 14:42:15 GMT-0500 (Central Daylight Time),307860.8000000119,030_o_f_n_a.png,O,m,534,1,1,1560.1000000238419,306300.6999999881,7076,NNB,C,7
8,test,3,0.0,1-Back,1,m,Mon Mar 10 2025 14:42:15 GMT-0500 (Central Daylight Time),309442.6999999881,031_y_m_n_a.png,O,m,559,1,1,1575.199999988079,307867.5,7076,NNB,C,8
9,test,3,1.0,1-Back,1,z,Mon Mar 10 2025 14:42:15 GMT-0500 (Central Daylight Time),311077.10000002384,031_y_m_n_a.png,O,z,600,1,1,1627.4000000357628,309449.6999999881,7076,NNB,C,9
10,test,3,0.0,1-Back,1,m,Mon Mar 10 2025 14:42:15 GMT-0500 (Central Daylight Time),312712.3000000119,006_m_f_n_a.png,O,m,607,1,1,1628.199999988079,311084.10000002384,7076,NNB,C,10
11,test,3,0.0,1-Back,1,m,Mon Mar 10 2025 14:42:15 GMT-0500 (Central Daylight Time),314241.40000003576,098_y_f_n_a.png,O,m,512,1,1,1526.5,312714.90000003576,7076,NNB,C,11
12,test,3,1.0,1-Back,1,z,Mon Mar 10 2025 14:42:15 GMT-0500 (Central Daylight Time),315974.6999999881,098_y_f_n_a.png,O,z,716,1,1,1726.0999999642372,314248.60000002384,7076,NNB,C,12
13,test,3,0.0,1-Back,1,m,Mon Mar 10 2025 14:42:15 GMT-0500 (Central Daylight Time),317740.3000000119,006_m_f_n_a.png,O,m,740,1,1,1760.6000000238419,315979.6999999881,7076,NNB,C,13
14,test,3,0.0,1-Back,1,m,Mon Mar 10 2025 14:42:15 GMT-0500 (Central Daylight Time),319372.90000003576,092_m_m_n_a.png,O,m,606,1,1,1625.300000011921,317747.60000002384,7076,NNB,C,14
15,test,3,1.0,1-Back,1,z,Mon Mar 10 2025 14:42:15 GMT-0500 (Central Daylight Time),321073.0,092_m_m_n_a.png,O,z,678,1,1,1692.5999999642372,319380.40000003576,7076,NNB,C,15
16,test,3,0.0,1-Back,1,m,Mon Mar 10 2025 14:42:15 GMT-0500 (Central Daylight Time),322673.90000003576,130_o_f_n_a.png,O,m,571,1,1,1594.2000000476837,321079.6999999881,7076,NNB,C,16
17,test,3,1.0,1-Back,1,z,Mon Mar 10 2025 14:42:15 GMT-0500 (Central Daylight Time),324271.60000002384,130_o_f_n_a.png,O,z,576,1,1,1588.4000000357628,322683.1999999881,7076,NNB,C,17
0,test,4,1.0,1-Back,,,Mon Mar 10 2025 14:42:15 GMT-0500 (Central Daylight Time),324271.60000002384,093_m_f_n_a.png,O,space,1573,1,1,1588.4000000357628,322683.1999999881,7076,NNB,C,0
1,test,4,0.0,1-Back,1,m,Mon Mar 10 2025 14:42:15 GMT-0500 (Central Daylight Time),329720.10000002384,146_o_m_n_a.png,O,m,748,2,1,1756.199999988079,327963.90000003576,7076,NNB,C,1
2,test,4,0.0,1-Back,1,m,Mon Mar 10 2025 14:42:15 GMT-0500 (Central Daylight Time),331301.6999999881,093_m_f_n_a.png,O,m,553,3,1,1573.5,329728.1999999881,7076,NNB,C,2
3,test,4,0.0,1-Back,1,m,Mon Mar 10 2025 14:42:15 GMT-0500 (Central Daylight Time),333051.5,030_o_f_n_a.png,O,m,727,4,1,1741.8999999761581,331309.60000002384,7076,NNB,C,3
4,test,4,1.0,1-Back,1,z,Mon Mar 10 2025 14:42:15 GMT-0500 (Central Daylight Time),334670.40000003576,030_o_f_n_a.png,O,z,599,5,1,1611.0,333059.40000003576,7076,NNB,C,4
5,test,4,0.0,1-Back,1,m,Mon Mar 10 2025 14:42:15 GMT-0500 (Central Daylight Time),336283.3000000119,098_y_f_n_a.png,O,m,590,6,1,1606.5,334676.8000000119,7076,NNB,C,5
6,test,4,0.0,1-Back,1,m,Mon Mar 10 2025 14:42:15 GMT-0500 (Central Daylight Time),338034.10000002384,057_y_m_n_a.png,O,m,718,7,1,1742.5,336291.60000002384,7076,NNB,C,6
7,test,4,1.0,1-Back,1,z,Mon Mar 10 2025 14:42:15 GMT-0500 (Central Daylight Time),339552.10000002384,057_y_m_n_a.png,O,z,489,8,1,1508.800000011921,338043.3000000119,7076,NNB,C,7
8,test,4,0.0,1-Back,1,m,Mon Mar 10 2025 14:42:15 GMT-0500 (Central Daylight Time),341701.10000002384,098_y_f_n_a.png,O,m,1118,9,1,2140.0,339561.10000002384,7076,NNB,C,8
9,test,4,0.0,1-Back,1,m,Mon Mar 10 2025 14:42:15 GMT-0500 (Central Daylight Time),343349.40000003576,082_m_m_n_a.png,O,m,625,10,1,1641.4000000357628,341708.0,7076,NNB,C,9
10,test,4,1.0,1-Back,1,z,Mon Mar 10 2025 14:42:15 GMT-0500 (Central Daylight Time),345030.90000003576,082_m_m_n_a.png,O,z,654,11,1,1673.0,343357.90000003576,7076,NNB,C,10
11,test,4,0.0,1-Back,1,m,Mon Mar 10 2025 14:42:15 GMT-0500 (Central Daylight Time),346898.5,130_o_f_n_a.png,O,m,844,12,1,1859.300000011921,345039.1999999881,7076,NNB,C,11
12,test,4,0.0,1-Back,1,m,Mon Mar 10 2025 14:42:15 GMT-0500 (Central Daylight Time),348581.0,059_o_m_n_a.png,O,m,649,13,1,1674.0,346907.0,7076,NNB,C,12
13,test,4,0.0,1-Back,1,m,Mon Mar 10 2025 14:42:15 GMT-0500 (Central Daylight Time),350479.40000003576,130_o_f_n_a.png,O,m,869,14,1,1891.5,348587.90000003576,7076,NNB,C,13
14,test,4,0.0,1-Back,1,m,Mon Mar 10 2025 14:42:15 GMT-0500 (Central Daylight Time),352179.8000000119,028_y_f_n_a.png,O,m,678,15,1,1694.6000000238419,350485.1999999881,7076,NNB,C,14
15,test,4,1.0,1-Back,1,z,Mon Mar 10 2025 14:42:15 GMT-0500 (Central Daylight Time),353728.60000002384,028_y_f_n_a.png,O,z,521,16,1,1542.0,352186.60000002384,7076,NNB,C,15
16,test,4,0.0,1-Back,1,m,Mon Mar 10 2025 14:42:15 GMT-0500 (Central Daylight Time),355329.40000003576,006_m_f_n_a.png,O,m,572,17,1,1593.5,353735.90000003576,7076,NNB,C,16
17,test,4,1.0,1-Back,1,z,Mon Mar 10 2025 14:42:15 GMT-0500 (Central Daylight Time),357011.40000003576,006_m_f_n_a.png,O,z,651,18,1,1674.0,355337.40000003576,7076,NNB,C,17
0,test,5,1.0,1-Back,,,Mon Mar 10 2025 14:42:15 GMT-0500 (Central Daylight Time),357011.40000003576,059_o_m_n_a.png,O,space,1266,1,1,1674.0,355337.40000003576,7076,NNB,C,0
1,test,5,1.0,1-Back,1,z,Mon Mar 10 2025 14:42:15 GMT-0500 (Central Daylight Time),362542.5,059_o_m_n_a.png,O,z,1231,2,1,2239.599999964237,360302.90000003576,7076,NNB,C,1
2,test,5,0.0,1-Back,1,m,Mon Mar 10 2025 14:42:15 GMT-0500 (Central Daylight Time),364441.8000000119,098_y_f_n_a.png,O,m,877,3,1,1892.699999988079,362549.10000002384,7076,NNB,C,2
3,test,5,0.0,1-Back,1,m,Mon Mar 10 2025 14:42:15 GMT-0500 (Central Daylight Time),366108.1999999881,057_y_m_n_a.png,O,m,641,4,1,1659.7999999523163,364448.40000003576,7076,NNB,C,3
4,test,5,0.0,1-Back,1,m,Mon Mar 10 2025 14:42:15 GMT-0500 (Central Daylight Time),367808.5,098_y_f_n_a.png,O,m,682,5,1,1692.5999999642372,366115.90000003576,7076,NNB,C,4
5,test,5,0.0,1-Back,1,m,Mon Mar 10 2025 14:42:15 GMT-0500 (Central Daylight Time),369457.0,092_m_m_n_a.png,O,m,628,6,1,1642.0,367815.0,7076,NNB,C,5
6,test,5,1.0,1-Back,1,z,Mon Mar 10 2025 14:42:15 GMT-0500 (Central Daylight Time),371006.60000002384,092_m_m_n_a.png,O,z,516,7,1,1542.199999988079,369464.40000003576,7076,NNB,C,6
7,test,5,0.0,1-Back,1,m,Mon Mar 10 2025 14:42:15 GMT-0500 (Central Daylight Time),372722.60000002384,028_y_f_n_a.png,O,m,695,8,1,1711.699999988079,371010.90000003576,7076,NNB,C,7
8,test,5,0.0,1-Back,1,m,Mon Mar 10 2025 14:42:15 GMT-0500 (Central Daylight Time),374606.0,031_y_m_n_a.png,O,m,859,9,1,1876.199999988079,372729.8000000119,7076,NNB,C,8
9,test,5,0.0,1-Back,1,m,Mon Mar 10 2025 14:42:15 GMT-0500 (Central Daylight Time),376154.40000003576,028_y_f_n_a.png,O,m,517,10,1,1540.800000011921,374613.60000002384,7076,NNB,C,9
10,test,5,0.0,1-Back,1,m,Mon Mar 10 2025 14:42:15 GMT-0500 (Central Daylight Time),377788.8000000119,130_o_f_n_a.png,O,m,617,11,1,1628.3999999761581,376160.40000003576,7076,NNB,C,10
11,test,5,1.0,1-Back,1,z,Mon Mar 10 2025 14:42:15 GMT-0500 (Central Daylight Time),379337.1999999881,130_o_f_n_a.png,O,z,527,12,1,1543.3999999761581,377793.8000000119,7076,NNB,C,11
12,test,5,0.0,1-Back,1,m,Mon Mar 10 2025 14:42:15 GMT-0500 (Central Daylight Time),381020.60000002384,146_o_m_n_a.png,O,m,651,13,1,1676.1000000238419,379344.5,7076,NNB,C,12
13,test,5,0.0,1-Back,1,m,Mon Mar 10 2025 14:42:15 GMT-0500 (Central Daylight Time),382569.60000002384,093_m_f_n_a.png,O,m,520,14,1,1542.0,381027.60000002384,7076,NNB,C,13
14,test,5,1.0,1-Back,1,z,Mon Mar 10 2025 14:42:15 GMT-0500 (Central Daylight Time),384103.10000002384,093_m_f_n_a.png,O,z,517,15,1,1526.300000011921,382576.8000000119,7076,NNB,C,14
15,test,5,0.0,1-Back,1,m,Mon Mar 10 2025 14:42:15 GMT-0500 (Central Daylight Time),385735.90000003576,146_o_m_n_a.png,O,m,604,16,1,1628.2000000476837,384107.6999999881,7076,NNB,C,15
16,test,5,0.0,1-Back,1,m,Mon Mar 10 2025 14:42:15 GMT-0500 (Central Daylight Time),387401.6999999881,006_m_f_n_a.png,O,m,646,17,1,1659.7999999523163,385741.90000003576,7076,NNB,C,16
17,test,5,0.0,1-Back,1,m,Mon Mar 10 2025 14:42:15 GMT-0500 (Central Daylight Time),388967.40000003576,082_m_m_n_a.png,O,m,538,18,1,1558.300000011921,387409.10000002384,7076,NNB,C,17
0,prac,1,0.0,2-Back,,,Mon Mar 10 2025 14:42:15 GMT-0500 (Central Daylight Time),388967.40000003576,031_y_m_n_a.png,O,space,10705,1,1,1558.300000011921,387409.10000002384,7076,NNB,C,0
0,prac,1,0.0,2-Back,,,Mon Mar 10 2025 14:42:15 GMT-0500 (Central Daylight Time),388967.40000003576,006_m_f_n_a.png,O,space,10705,2,1,1558.300000011921,387409.10000002384,7076,NNB,C,0
1,prac,1,1.0,2-Back,1,m,Mon Mar 10 2025 14:42:15 GMT-0500 (Central Daylight Time),519625.10000002384,146_o_m_n_a.png,O,m,988,3,1,1855.800000011921,517769.3000000119,7076,NNB,C,1
2,prac,1,0.0,2-Back,1,m,Mon Mar 10 2025 14:42:15 GMT-0500 (Central Daylight Time),521675.0,130_o_f_n_a.png,O,m,1161,4,1,2042.5,519632.5,7076,NNB,C,2
3,prac,1,0.0,2-Back,1,z,Mon Mar 10 2025 14:42:15 GMT-0500 (Central Daylight Time),523658.60000002384,146_o_m_n_a.png,O,z,1202,5,1,1976.1000000238419,521682.5,7076,NNB,C,3
4,prac,1,1.0,2-Back,1,z,Mon Mar 10 2025 14:42:15 GMT-0500 (Central Daylight Time),525623.3000000119,130_o_f_n_a.png,O,z,1177,6,1,1956.6000000238419,523666.6999999881,7076,NNB,C,4
4,prac,1,0.0,2-Back,0,m,Mon Mar 10 2025 14:42:15 GMT-0500 (Central Daylight Time),528057.8000000119,082_m_m_n_a.png,O,z,1653,7,1,2426.600000023842,525631.1999999881,7076,NNB,C,5
5,prac,1,0.0,2-Back,1,m,Mon Mar 10 2025 14:42:15 GMT-0500 (Central Daylight Time),530122.6000000238,059_o_m_n_a.png,O,m,1191,8,1,2055.5,528067.1000000238,7076,NNB,C,6
6,prac,1,0.0,2-Back,1,m,Mon Mar 10 2025 14:42:15 GMT-0500 (Central Daylight Time),532006.9000000358,028_y_f_n_a.png,O,m,1021,9,1,1876.6000000238419,530130.3000000119,7076,NNB,C,7
7,prac,1,1.0,2-Back,1,z,Mon Mar 10 2025 14:42:15 GMT-0500 (Central Daylight Time),533937.6999999881,059_o_m_n_a.png,O,z,1141,10,1,1923.199999988079,532014.5,7076,NNB,C,8
8,prac,1,0.0,2-Back,1,m,Mon Mar 10 2025 14:42:15 GMT-0500 (Central Daylight Time),535922.0,098_y_f_n_a.png,O,m,1138,11,1,1977.300000011921,533944.6999999881,7076,NNB,C,9
9,prac,1,0.0,2-Back,1,m,Mon Mar 10 2025 14:42:15 GMT-0500 (Central Daylight Time),538405.1000000238,082_m_m_n_a.png,O,m,1699,12,1,2475.199999988079,535929.9000000358,7076,NNB,C,10
0,test,1,0.0,2-Back,,,Mon Mar 10 2025 14:42:15 GMT-0500 (Central Daylight Time),538405.1000000238,057_y_m_n_a.png,O,space,10225,1,1,2475.199999988079,535929.9000000358,7076,NNB,C,0
0,test,1,0.0,2-Back,,,Mon Mar 10 2025 14:42:15 GMT-0500 (Central Daylight Time),538405.1000000238,057_y_m_n_a.png,O,space,10225,2,1,2475.199999988079,535929.9000000358,7076,NNB,C,0
1,test,1,0.0,2-Back,1,m,Mon Mar 10 2025 14:42:15 GMT-0500 (Central Daylight Time),562781.1999999881,130_o_f_n_a.png,O,m,1542,3,1,2561.099999964237,560220.1000000238,7076,NNB,C,1
2,test,1,0.0,2-Back,1,m,Mon Mar 10 2025 14:42:15 GMT-0500 (Central Daylight Time),565462.0,092_m_m_n_a.png,O,m,1647,4,1,2673.5,562788.5,7076,NNB,C,2
3,test,1,1.0,2-Back,1,z,Mon Mar 10 2025 14:42:15 GMT-0500 (Central Daylight Time),567578.3000000119,130_o_f_n_a.png,O,z,1086,5,1,2109.899999976158,565468.4000000358,7076,NNB,C,3
4,test,1,0.0,2-Back,1,m,Mon Mar 10 2025 14:42:15 GMT-0500 (Central Daylight Time),570210.0,098_y_f_n_a.png,O,m,1609,6,1,2623.300000011921,567586.6999999881,7076,NNB,C,4
5,test,1,0.0,2-Back,1,m,Mon Mar 10 2025 14:42:15 GMT-0500 (Central Daylight Time),572727.0,092_m_m_n_a.png,O,m,1493,7,1,2510.800000011921,570216.1999999881,7076,NNB,C,5
6,test,1,1.0,2-Back,1,z,Mon Mar 10 2025 14:42:15 GMT-0500 (Central Daylight Time),575061.3000000119,098_y_f_n_a.png,O,z,1301,8,1,2326.0,572735.3000000119,7076,NNB,C,6
7,test,1,0.0,2-Back,1,m,Mon Mar 10 2025 14:42:15 GMT-0500 (Central Daylight Time),577507.1000000238,031_y_m_n_a.png,O,m,1417,9,1,2439.400000035763,575067.6999999881,7076,NNB,C,7
8,test,1,0.0,2-Back,1,m,Mon Mar 10 2025 14:42:15 GMT-0500 (Central Daylight Time),579675.3000000119,030_o_f_n_a.png,O,m,1142,10,1,2162.0,577513.3000000119,7076,NNB,C,8
9,test,1,1.0,2-Back,1,z,Mon Mar 10 2025 14:42:15 GMT-0500 (Central Daylight Time),581740.1000000238,031_y_m_n_a.png,O,z,1043,11,1,2058.300000011921,579681.8000000119,7076,NNB,C,9
10,test,1,0.0,2-Back,1,m,Mon Mar 10 2025 14:42:15 GMT-0500 (Central Daylight Time),584556.1000000238,006_m_f_n_a.png,O,m,1783,12,1,2807.900000035763,581748.1999999881,7076,NNB,C,10
11,test,1,0.0,2-Back,1,m,Mon Mar 10 2025 14:42:15 GMT-0500 (Central Daylight Time),586656.0,006_m_f_n_a.png,O,m,1083,13,1,2095.399999976158,584560.6000000238,7076,NNB,C,11
12,test,1,0.0,2-Back,1,m,Mon Mar 10 2025 14:42:15 GMT-0500 (Central Daylight Time),588820.3000000119,146_o_m_n_a.png,O,m,1132,14,1,2157.800000011921,586662.5,7076,NNB,C,12
13,test,1,0.0,2-Back,1,m,Mon Mar 10 2025 14:42:15 GMT-0500 (Central Daylight Time),590969.3000000119,030_o_f_n_a.png,O,m,1120,15,1,2141.699999988079,588827.6000000238,7076,NNB,C,13
14,test,1,1.0,2-Back,1,z,Mon Mar 10 2025 14:42:15 GMT-0500 (Central Daylight Time),593036.5,146_o_m_n_a.png,O,z,1042,16,1,2060.0,590976.5,7076,NNB,C,14
15,test,1,0.0,2-Back,1,m,Mon Mar 10 2025 14:42:15 GMT-0500 (Central Daylight Time),595569.4000000358,093_m_f_n_a.png,O,m,1504,17,1,2526.100000023842,593043.3000000119,7076,NNB,C,15
15,test,1,0.0,2-Back,0,m,Mon Mar 10 2025 14:42:15 GMT-0500 (Central Daylight Time),598602.6000000238,082_m_m_n_a.png,O,None,2016,18,1,3025.900000035763,595576.6999999881,7076,NNB,C,16
0,test,2,0.0,2-Back,,,Mon Mar 10 2025 14:42:15 GMT-0500 (Central Daylight Time),598602.6000000238,082_m_m_n_a.png,O,space,3593,1,1,3025.900000035763,595576.6999999881,7076,NNB,C,0
0,test,2,0.0,2-Back,,,Mon Mar 10 2025 14:42:15 GMT-0500 (Central Daylight Time),598602.6000000238,028_y_f_n_a.png,O,space,3593,2,1,3025.900000035763,595576.6999999881,7076,NNB,C,0
1,test,2,1.0,2-Back,1,z,Mon Mar 10 2025 14:42:15 GMT-0500 (Central Daylight Time),609581.6000000238,082_m_m_n_a.png,O,z,1216,3,1,2241.600000023842,607340.0,7076,NNB,C,1
2,test,2,0.0,2-Back,1,m,Mon Mar 10 2025 14:42:15 GMT-0500 (Central Daylight Time),611663.3000000119,093_m_f_n_a.png,O,m,1054,4,1,2075.800000011921,609587.5,7076,NNB,C,2
3,test,2,0.0,2-Back,1,m,Mon Mar 10 2025 14:42:15 GMT-0500 (Central Daylight Time),613930.9000000358,028_y_f_n_a.png,O,m,1236,5,1,2259.900000035763,611671.0,7076,NNB,C,3
4,test,2,0.0,2-Back,1,m,Mon Mar 10 2025 14:42:15 GMT-0500 (Central Daylight Time),615962.1000000238,146_o_m_n_a.png,O,m,1010,6,1,2022.300000011921,613939.8000000119,7076,NNB,C,4
5,test,2,0.0,2-Back,1,m,Mon Mar 10 2025 14:42:15 GMT-0500 (Central Daylight Time),618092.6000000238,098_y_f_n_a.png,O,m,1106,7,1,2122.300000011921,615970.3000000119,7076,NNB,C,5
6,test,2,1.0,2-Back,1,z,Mon Mar 10 2025 14:42:15 GMT-0500 (Central Daylight Time),620044.6000000238,146_o_m_n_a.png,O,z,917,8,1,1949.5,618095.1000000238,7076,NNB,C,6
7,test,2,0.0,2-Back,1,m,Mon Mar 10 2025 14:42:15 GMT-0500 (Central Daylight Time),622210.4000000358,031_y_m_n_a.png,O,m,1135,9,1,2158.400000035763,620052.0,7076,NNB,C,7
8,test,2,0.0,2-Back,1,m,Mon Mar 10 2025 14:42:15 GMT-0500 (Central Daylight Time),624826.1000000238,031_y_m_n_a.png,O,m,1585,10,1,2609.699999988079,622216.4000000358,7076,NNB,C,8
9,test,2,0.0,2-Back,1,m,Mon Mar 10 2025 14:42:15 GMT-0500 (Central Daylight Time),627191.6000000238,006_m_f_n_a.png,O,m,1336,11,1,2358.100000023842,624833.5,7076,NNB,C,9
10,test,2,0.0,2-Back,1,m,Mon Mar 10 2025 14:42:15 GMT-0500 (Central Daylight Time),628976.0,028_y_f_n_a.png,O,m,767,12,1,1777.199999988079,627198.8000000119,7076,NNB,C,10
11,test,2,1.0,2-Back,1,z,Mon Mar 10 2025 14:42:15 GMT-0500 (Central Daylight Time),630940.5,006_m_f_n_a.png,O,z,942,13,1,1957.3999999761581,628983.1000000238,7076,NNB,C,11
12,test,2,0.0,2-Back,1,m,Mon Mar 10 2025 14:42:15 GMT-0500 (Central Daylight Time),633338.1000000238,059_o_m_n_a.png,O,m,1373,14,1,2390.400000035763,630947.6999999881,7076,NNB,C,12
13,test,2,0.0,2-Back,1,m,Mon Mar 10 2025 14:42:15 GMT-0500 (Central Daylight Time),636272.3000000119,059_o_m_n_a.png,O,m,1902,15,1,2931.100000023842,633341.1999999881,7076,NNB,C,13
14,test,2,0.0,2-Back,1,m,Mon Mar 10 2025 14:42:15 GMT-0500 (Central Daylight Time),638271.6000000238,030_o_f_n_a.png,O,m,982,16,1,1992.199999988079,636279.4000000358,7076,NNB,C,14
15,test,2,0.0,2-Back,1,m,Mon Mar 10 2025 14:42:15 GMT-0500 (Central Daylight Time),640239.3000000119,092_m_m_n_a.png,O,m,950,17,1,1963.5,638275.8000000119,7076,NNB,C,15
16,test,2,1.0,2-Back,1,z,Mon Mar 10 2025 14:42:15 GMT-0500 (Central Daylight Time),642119.6999999881,030_o_f_n_a.png,O,z,863,18,1,1874.0,640245.6999999881,7076,NNB,C,16
0,test,3,1.0,2-Back,,,Mon Mar 10 2025 14:42:15 GMT-0500 (Central Daylight Time),642119.6999999881,057_y_m_n_a.png,O,space,2293,1,1,1874.0,640245.6999999881,7076,NNB,C,0
0,test,3,1.0,2-Back,,,Mon Mar 10 2025 14:42:15 GMT-0500 (Central Daylight Time),642119.6999999881,057_y_m_n_a.png,O,space,2293,2,1,1874.0,640245.6999999881,7076,NNB,C,0
1,test,3,0.0,2-Back,1,m,Mon Mar 10 2025 14:42:15 GMT-0500 (Central Daylight Time),651349.8000000119,030_o_f_n_a.png,O,m,756,3,1,1774.800000011921,649575.0,7076,NNB,C,1
2,test,3,0.0,2-Back,1,m,Mon Mar 10 2025 14:42:15 GMT-0500 (Central Daylight Time),653284.1999999881,082_m_m_n_a.png,O,m,908,4,1,1927.0,651357.1999999881,7076,NNB,C,2
3,test,3,1.0,2-Back,1,z,Mon Mar 10 2025 14:42:15 GMT-0500 (Central Daylight Time),655100.6999999881,030_o_f_n_a.png,O,z,791,5,1,1808.699999988079,653292.0,7076,NNB,C,3
4,test,3,0.0,2-Back,1,m,Mon Mar 10 2025 14:42:15 GMT-0500 (Central Daylight Time),657401.3000000119,031_y_m_n_a.png,O,m,1282,6,1,2294.600000023842,655106.6999999881,7076,NNB,C,4
5,test,3,0.0,2-Back,1,m,Mon Mar 10 2025 14:42:15 GMT-0500 (Central Daylight Time),659332.1999999881,082_m_m_n_a.png,O,m,900,7,1,1924.0,657408.1999999881,7076,NNB,C,5
6,test,3,1.0,2-Back,1,z,Mon Mar 10 2025 14:42:15 GMT-0500 (Central Daylight Time),661364.0,031_y_m_n_a.png,O,z,1008,8,1,2024.3999999761581,659339.6000000238,7076,NNB,C,6
7,test,3,0.0,2-Back,1,m,Mon Mar 10 2025 14:42:15 GMT-0500 (Central Daylight Time),663297.1999999881,028_y_f_n_a.png,O,m,903,9,1,1925.8999999761581,661371.3000000119,7076,NNB,C,7
8,test,3,0.0,2-Back,1,m,Mon Mar 10 2025 14:42:15 GMT-0500 (Central Daylight Time),665364.0,092_m_m_n_a.png,O,m,1042,10,1,2059.800000011921,663304.1999999881,7076,NNB,C,8
9,test,3,1.0,2-Back,1,z,Mon Mar 10 2025 14:42:15 GMT-0500 (Central Daylight Time),667446.9000000358,028_y_f_n_a.png,O,z,1066,11,1,2077.2000000476837,665369.6999999881,7076,NNB,C,9
10,test,3,1.0,2-Back,1,z,Mon Mar 10 2025 14:42:15 GMT-0500 (Central Daylight Time),669412.8000000119,092_m_m_n_a.png,O,z,932,12,1,1961.6000000238419,667451.1999999881,7076,NNB,C,10
11,test,3,0.0,2-Back,1,m,Mon Mar 10 2025 14:42:15 GMT-0500 (Central Daylight Time),671261.1999999881,030_o_f_n_a.png,O,m,823,13,1,1841.0999999642372,669420.1000000238,7076,NNB,C,11
12,test,3,0.0,2-Back,1,m,Mon Mar 10 2025 14:42:15 GMT-0500 (Central Daylight Time),673077.6999999881,093_m_f_n_a.png,O,m,790,14,1,1809.0,671268.6999999881,7076,NNB,C,12
13,test,3,0.0,2-Back,1,m,Mon Mar 10 2025 14:42:15 GMT-0500 (Central Daylight Time),674977.4000000358,146_o_m_n_a.png,O,m,870,15,1,1893.1000000238419,673084.3000000119,7076,NNB,C,13
14,test,3,1.0,2-Back,1,z,Mon Mar 10 2025 14:42:15 GMT-0500 (Central Daylight Time),676909.3000000119,093_m_f_n_a.png,O,z,907,16,1,1924.699999988079,674984.6000000238,7076,NNB,C,14
15,test,3,0.0,2-Back,1,m,Mon Mar 10 2025 14:42:15 GMT-0500 (Central Daylight Time),678926.1999999881,130_o_f_n_a.png,O,m,989,17,1,2010.199999988079,676916.0,7076,NNB,C,15
16,test,3,0.0,2-Back,1,m,Mon Mar 10 2025 14:42:15 GMT-0500 (Central Daylight Time),681077.0,130_o_f_n_a.png,O,m,1127,18,1,2142.599999964237,678934.4000000358,7076,NNB,C,16
0,test,4,0.0,2-Back,,,Mon Mar 10 2025 14:42:15 GMT-0500 (Central Daylight Time),681077.0,059_o_m_n_a.png,O,space,1782,1,1,2142.599999964237,678934.4000000358,7076,NNB,C,0
0,test,4,0.0,2-Back,,,Mon Mar 10 2025 14:42:15 GMT-0500 (Central Daylight Time),681077.0,098_y_f_n_a.png,O,space,1782,2,1,2142.599999964237,678934.4000000358,7076,NNB,C,0
1,test,4,1.0,2-Back,1,z,Mon Mar 10 2025 14:42:15 GMT-0500 (Central Daylight Time),690022.4000000358,059_o_m_n_a.png,O,z,922,3,1,1942.7000000476837,688079.6999999881,7076,NNB,C,1
2,test,4,1.0,2-Back,1,z,Mon Mar 10 2025 14:42:15 GMT-0500 (Central Daylight Time),691871.9000000358,098_y_f_n_a.png,O,z,831,4,1,1840.0,690031.9000000358,7076,NNB,C,2
3,test,4,0.0,2-Back,1,m,Mon Mar 10 2025 14:42:15 GMT-0500 (Central Daylight Time),693902.6000000238,030_o_f_n_a.png,O,m,1012,5,1,2027.199999988079,691875.4000000358,7076,NNB,C,3
4,test,4,0.0,2-Back,1,m,Mon Mar 10 2025 14:42:15 GMT-0500 (Central Daylight Time),695821.1000000238,030_o_f_n_a.png,O,m,900,6,1,1916.0,693905.1000000238,7076,NNB,C,4
5,test,4,0.0,2-Back,1,m,Mon Mar 10 2025 14:42:15 GMT-0500 (Central Daylight Time),698037.1000000238,006_m_f_n_a.png,O,m,1182,7,1,2211.0,695826.1000000238,7076,NNB,C,5
6,test,4,0.0,2-Back,1,m,Mon Mar 10 2025 14:42:15 GMT-0500 (Central Daylight Time),699953.1999999881,031_y_m_n_a.png,O,m,894,8,1,1909.2999999523163,698043.9000000358,7076,NNB,C,6
7,test,4,1.0,2-Back,1,z,Mon Mar 10 2025 14:42:15 GMT-0500 (Central Daylight Time),701917.6999999881,006_m_f_n_a.png,O,z,934,9,1,1959.199999988079,699958.5,7076,NNB,C,7
8,test,4,0.0,2-Back,1,m,Mon Mar 10 2025 14:42:15 GMT-0500 (Central Daylight Time),703702.5,092_m_m_n_a.png,O,m,766,10,1,1777.5999999642372,701924.9000000358,7076,NNB,C,8
9,test,4,0.0,2-Back,1,m,Mon Mar 10 2025 14:42:15 GMT-0500 (Central Daylight Time),705717.6000000238,031_y_m_n_a.png,O,m,989,11,1,2011.199999988079,703706.4000000358,7076,NNB,C,9
10,test,4,0.0,2-Back,1,m,Mon Mar 10 2025 14:42:15 GMT-0500 (Central Daylight Time),707699.5,130_o_f_n_a.png,O,m,950,12,1,1973.8999999761581,705725.6000000238,7076,NNB,C,10
11,test,4,0.0,2-Back,1,m,Mon Mar 10 2025 14:42:15 GMT-0500 (Central Daylight Time),710281.1999999881,057_y_m_n_a.png,O,m,1552,13,1,2576.699999988079,707704.5,7076,NNB,C,11
12,test,4,1.0,2-Back,1,z,Mon Mar 10 2025 14:42:15 GMT-0500 (Central Daylight Time),712399.1999999881,130_o_f_n_a.png,O,z,1085,14,1,2110.0,710289.1999999881,7076,NNB,C,12
13,test,4,1.0,2-Back,1,z,Mon Mar 10 2025 14:42:15 GMT-0500 (Central Daylight Time),714679.6000000238,057_y_m_n_a.png,O,z,1262,15,1,2277.100000023842,712402.5,7076,NNB,C,13
14,test,4,0.0,2-Back,1,m,Mon Mar 10 2025 14:42:15 GMT-0500 (Central Daylight Time),716580.6999999881,082_m_m_n_a.png,O,m,875,16,1,1893.0999999642372,714687.6000000238,7076,NNB,C,14
15,test,4,0.0,2-Back,1,m,Mon Mar 10 2025 14:42:15 GMT-0500 (Central Daylight Time),718463.3000000119,093_m_f_n_a.png,O,m,855,17,1,1875.699999988079,716587.6000000238,7076,NNB,C,15
15,test,4,1.0,2-Back,0,z,Mon Mar 10 2025 14:42:15 GMT-0500 (Central Daylight Time),720296.1000000238,082_m_m_n_a.png,O,m,816,18,1,1826.1000000238419,718470.0,7076,NNB,C,16
0,test,5,1.0,2-Back,,,Mon Mar 10 2025 14:42:15 GMT-0500 (Central Daylight Time),720296.1000000238,057_y_m_n_a.png,O,space,1219,1,1,1826.1000000238419,718470.0,7076,NNB,C,0
0,test,5,1.0,2-Back,,,Mon Mar 10 2025 14:42:15 GMT-0500 (Central Daylight Time),720296.1000000238,093_m_f_n_a.png,O,space,1219,2,1,1826.1000000238419,718470.0,7076,NNB,C,0
1,test,5,1.0,2-Back,1,z,Mon Mar 10 2025 14:42:15 GMT-0500 (Central Daylight Time),728510.5,057_y_m_n_a.png,O,z,916,3,1,1924.300000011921,726586.1999999881,7076,NNB,C,1
2,test,5,1.0,2-Back,1,z,Mon Mar 10 2025 14:42:15 GMT-0500 (Central Daylight Time),730409.1000000238,093_m_f_n_a.png,O,z,870,4,1,1893.9000000357628,728515.1999999881,7076,NNB,C,2
3,test,5,0.0,2-Back,1,m,Mon Mar 10 2025 14:42:15 GMT-0500 (Central Daylight Time),732125.4000000358,130_o_f_n_a.png,O,m,682,5,1,1709.4000000357628,730416.0,7076,NNB,C,3
4,test,5,0.0,2-Back,1,m,Mon Mar 10 2025 14:42:15 GMT-0500 (Central Daylight Time),734208.0,057_y_m_n_a.png,O,m,1054,6,1,2075.699999988079,732132.3000000119,7076,NNB,C,4
5,test,5,0.0,2-Back,1,m,Mon Mar 10 2025 14:42:15 GMT-0500 (Central Daylight Time),736194.1999999881,028_y_f_n_a.png,O,m,957,7,1,1979.0999999642372,734215.1000000238,7076,NNB,C,5
6,test,5,0.0,2-Back,1,m,Mon Mar 10 2025 14:42:15 GMT-0500 (Central Daylight Time),737991.3000000119,130_o_f_n_a.png,O,m,782,8,1,1790.3999999761581,736200.9000000358,7076,NNB,C,6
7,test,5,1.0,2-Back,1,z,Mon Mar 10 2025 14:42:15 GMT-0500 (Central Daylight Time),739723.6999999881,028_y_f_n_a.png,O,z,710,9,1,1724.0,737999.6999999881,7076,NNB,C,7
8,test,5,0.0,2-Back,1,m,Mon Mar 10 2025 14:42:15 GMT-0500 (Central Daylight Time),742189.8000000119,146_o_m_n_a.png,O,m,1450,10,1,2460.0,739729.8000000119,7076,NNB,C,8
9,test,5,0.0,2-Back,1,m,Mon Mar 10 2025 14:42:15 GMT-0500 (Central Daylight Time),744137.6999999881,006_m_f_n_a.png,O,m,918,11,1,1940.3999999761581,742197.3000000119,7076,NNB,C,9
10,test,5,0.0,2-Back,1,m,Mon Mar 10 2025 14:42:15 GMT-0500 (Central Daylight Time),746204.6999999881,092_m_m_n_a.png,O,m,1034,12,1,2060.099999964237,744144.6000000238,7076,NNB,C,10
10,test,5,0.0,2-Back,0,m,Mon Mar 10 2025 14:42:15 GMT-0500 (Central Daylight Time),748420.6000000238,146_o_m_n_a.png,O,z,1193,13,1,2208.600000023842,746212.0,7076,NNB,C,11
10,test,5,1.0,2-Back,0,z,Mon Mar 10 2025 14:42:15 GMT-0500 (Central Daylight Time),750585.3000000119,092_m_m_n_a.png,O,m,1135,14,1,2157.300000011921,748428.0,7076,NNB,C,12
11,test,5,0.0,2-Back,1,m,Mon Mar 10 2025 14:42:15 GMT-0500 (Central Daylight Time),752535.3000000119,098_y_f_n_a.png,O,m,921,15,1,1944.1000000238419,750591.1999999881,7076,NNB,C,13
12,test,5,0.0,2-Back,1,m,Mon Mar 10 2025 14:42:15 GMT-0500 (Central Daylight Time),754351.0,059_o_m_n_a.png,O,m,796,16,1,1808.3999999761581,752542.6000000238,7076,NNB,C,14
13,test,5,0.0,2-Back,1,m,Mon Mar 10 2025 14:42:15 GMT-0500 (Central Daylight Time),756117.4000000358,006_m_f_n_a.png,O,m,739,17,1,1760.1000000238419,754357.3000000119,7076,NNB,C,15
14,test,5,1.0,2-Back,1,z,Mon Mar 10 2025 14:42:15 GMT-0500 (Central Daylight Time),757768.3000000119,059_o_m_n_a.png,O,z,633,18,1,1643.6000000238419,756124.6999999881,7076,NNB,C,16
