acc_sum,block,block_c,change,condition,correct,correct_response,datetime,endtime,face,project,response,response_time,row_sel,session_number,start_end,starttime,subject_id,task,task_vers,trial
0,prac,1,,1-Back,,,Wed Nov 13 2024 09:51:51 GMT-0500 (Eastern Standard Time),,050_m_f_n_a.png,I,space,14132,1,1,,,9005,NNB,A,0
1,prac,1,0.0,1-Back,1,m,Wed Nov 13 2024 09:51:51 GMT-0500 (Eastern Standard Time),151192.2999997139,063_y_f_n_a.png,I,m,826,2,1,1651.8999996185303,149540.40000009537,9005,NNB,A,1
2,prac,1,1.0,1-Back,1,z,Wed Nov 13 2024 09:51:51 GMT-0500 (Eastern Standard Time),152892.19999980927,063_y_f_n_a.png,I,z,909,3,1,1686.4000000953674,151205.7999997139,9005,NNB,A,2
3,prac,1,0.0,1-Back,1,m,Wed Nov 13 2024 09:51:51 GMT-0500 (Eastern Standard Time),155441.59999990463,053_o_m_n_a.png,I,m,1726,4,1,2534.300000190735,152907.2999997139,9005,NNB,A,3
4,prac,1,0.0,1-Back,1,m,Wed Nov 13 2024 09:51:51 GMT-0500 (Eastern Standard Time),157475.0,058_m_m_n_a.png,I,m,1211,5,1,2021.3000001907349,155453.69999980927,9005,NNB,A,4
5,prac,1,1.0,1-Back,1,z,Wed Nov 13 2024 09:51:51 GMT-0500 (Eastern Standard Time),159408.7999997139,058_m_m_n_a.png,I,z,1140,6,1,1922.3999996185303,157486.40000009537,9005,NNB,A,5
6,prac,1,0.0,1-Back,1,m,Wed Nov 13 2024 09:51:51 GMT-0500 (Eastern Standard Time),161341.2999997139,047_o_f_n_a.png,I,m,1047,7,1,1915.1999998092651,159426.09999990463,9005,NNB,A,6
7,prac,1,0.0,1-Back,1,m,Wed Nov 13 2024 09:51:51 GMT-0500 (Eastern Standard Time),163408.7999997139,045_m_m_n_a.png,I,m,1230,8,1,2052.0999999046326,161356.69999980927,9005,NNB,A,7
8,prac,1,0.0,1-Back,1,m,Wed Nov 13 2024 09:51:51 GMT-0500 (Eastern Standard Time),165325.5,050_m_f_n_a.png,I,m,1121,9,1,1900.0999999046326,163425.40000009537,9005,NNB,A,8
9,prac,1,1.0,1-Back,1,z,Wed Nov 13 2024 09:51:51 GMT-0500 (Eastern Standard Time),166808.2999997139,050_m_f_n_a.png,I,z,693,10,1,1467.5999999046326,165340.69999980927,9005,NNB,A,9
10,prac,1,0.0,1-Back,1,m,Wed Nov 13 2024 09:51:51 GMT-0500 (Eastern Standard Time),168642.0,053_o_m_n_a.png,I,m,1049,11,1,1817.0,166825.0,9005,NNB,A,10
11,prac,1,0.0,1-Back,1,m,Wed Nov 13 2024 09:51:51 GMT-0500 (Eastern Standard Time),170692.19999980927,010_y_f_n_a.png,I,m,1175,12,1,2035.0,168657.19999980927,9005,NNB,A,11
0,test,1,0.0,1-Back,,,Wed Nov 13 2024 09:51:51 GMT-0500 (Eastern Standard Time),170692.19999980927,063_y_f_n_a.png,I,space,7770,1,1,2035.0,168657.19999980927,9005,NNB,A,0
1,test,1,0.0,1-Back,1,m,Wed Nov 13 2024 09:51:51 GMT-0500 (Eastern Standard Time),198058.7999997139,043_m_f_n_a.png,I,m,825,2,1,1838.0,196220.7999997139,9005,NNB,A,1
2,test,1,0.0,1-Back,1,m,Wed Nov 13 2024 09:51:51 GMT-0500 (Eastern Standard Time),200142.0,010_y_f_n_a.png,I,m,1055,3,1,2070.5999999046326,198071.40000009537,9005,NNB,A,2
3,test,1,1.0,1-Back,1,z,Wed Nov 13 2024 09:51:51 GMT-0500 (Eastern Standard Time),201658.69999980927,010_y_f_n_a.png,I,z,492,4,1,1504.1999998092651,200154.5,9005,NNB,A,3
4,test,1,0.0,1-Back,1,m,Wed Nov 13 2024 09:51:51 GMT-0500 (Eastern Standard Time),203458.69999980927,043_m_f_n_a.png,I,m,767,5,1,1788.5,201670.19999980927,9005,NNB,A,4
5,test,1,0.0,1-Back,1,m,Wed Nov 13 2024 09:51:51 GMT-0500 (Eastern Standard Time),205292.0,053_o_m_n_a.png,I,m,807,6,1,1818.4000000953674,203473.59999990463,9005,NNB,A,5
6,test,1,1.0,1-Back,1,z,Wed Nov 13 2024 09:51:51 GMT-0500 (Eastern Standard Time),206841.90000009537,053_o_m_n_a.png,I,z,526,7,1,1538.2000002861023,205303.69999980927,9005,NNB,A,6
7,test,1,0.0,1-Back,1,m,Wed Nov 13 2024 09:51:51 GMT-0500 (Eastern Standard Time),208758.69999980927,058_m_m_n_a.png,I,m,896,8,1,1904.0,206854.69999980927,9005,NNB,A,7
8,test,1,0.0,1-Back,1,m,Wed Nov 13 2024 09:51:51 GMT-0500 (Eastern Standard Time),210541.69999980927,047_o_f_n_a.png,I,m,754,9,1,1770.4000000953674,208771.2999997139,9005,NNB,A,8
9,test,1,0.0,1-Back,1,m,Wed Nov 13 2024 09:51:51 GMT-0500 (Eastern Standard Time),212308.19999980927,058_m_m_n_a.png,I,m,748,10,1,1757.5999999046326,210550.59999990463,9005,NNB,A,9
10,test,1,0.0,1-Back,1,m,Wed Nov 13 2024 09:51:51 GMT-0500 (Eastern Standard Time),214158.59999990463,041_y_m_n_a.png,I,m,821,11,1,1840.8000001907349,212317.7999997139,9005,NNB,A,10
11,test,1,1.0,1-Back,1,z,Wed Nov 13 2024 09:51:51 GMT-0500 (Eastern Standard Time),215758.7999997139,041_y_m_n_a.png,I,z,571,12,1,1587.8999996185303,214170.90000009537,9005,NNB,A,11
12,test,1,0.0,1-Back,1,m,Wed Nov 13 2024 09:51:51 GMT-0500 (Eastern Standard Time),217575.40000009537,044_o_f_n_a.png,I,m,795,13,1,1804.4000000953674,215771.0,9005,NNB,A,12
13,test,1,1.0,1-Back,1,z,Wed Nov 13 2024 09:51:51 GMT-0500 (Eastern Standard Time),219475.40000009537,044_o_f_n_a.png,I,z,882,14,1,1885.3000001907349,217590.09999990463,9005,NNB,A,13
14,test,1,0.0,1-Back,1,m,Wed Nov 13 2024 09:51:51 GMT-0500 (Eastern Standard Time),221208.69999980927,008_y_m_n_a.png,I,m,710,15,1,1721.9000000953674,219486.7999997139,9005,NNB,A,14
15,test,1,0.0,1-Back,1,m,Wed Nov 13 2024 09:51:51 GMT-0500 (Eastern Standard Time),223275.2999997139,050_m_f_n_a.png,I,m,1041,16,1,2054.199999809265,221221.09999990463,9005,NNB,A,15
16,test,1,0.0,1-Back,1,m,Wed Nov 13 2024 09:51:51 GMT-0500 (Eastern Standard Time),224891.90000009537,046_o_m_n_a.png,I,m,590,17,1,1603.7000002861023,223288.19999980927,9005,NNB,A,16
17,test,1,0.0,1-Back,1,m,Wed Nov 13 2024 09:51:51 GMT-0500 (Eastern Standard Time),226791.90000009537,050_m_f_n_a.png,I,m,878,18,1,1887.5,224904.40000009537,9005,NNB,A,17
0,test,2,0.0,1-Back,,,Wed Nov 13 2024 09:51:51 GMT-0500 (Eastern Standard Time),226791.90000009537,058_m_m_n_a.png,I,space,4562,1,1,1887.5,224904.40000009537,9005,NNB,A,0
1,test,2,0.0,1-Back,1,m,Wed Nov 13 2024 09:51:51 GMT-0500 (Eastern Standard Time),235024.90000009537,043_m_f_n_a.png,I,m,618,2,1,1637.3000001907349,233387.59999990463,9005,NNB,A,1
2,test,2,1.0,1-Back,1,z,Wed Nov 13 2024 09:51:51 GMT-0500 (Eastern Standard Time),236758.59999990463,043_m_f_n_a.png,I,z,713,3,1,1724.5,235034.09999990463,9005,NNB,A,2
3,test,2,0.0,1-Back,1,m,Wed Nov 13 2024 09:51:51 GMT-0500 (Eastern Standard Time),238525.40000009537,058_m_m_n_a.png,I,m,739,4,1,1754.4000000953674,236771.0,9005,NNB,A,3
4,test,2,0.0,1-Back,1,m,Wed Nov 13 2024 09:51:51 GMT-0500 (Eastern Standard Time),240508.90000009537,041_y_m_n_a.png,I,m,956,5,1,1968.3000001907349,238540.59999990463,9005,NNB,A,4
5,test,2,0.0,1-Back,1,m,Wed Nov 13 2024 09:51:51 GMT-0500 (Eastern Standard Time),242658.69999980927,063_y_f_n_a.png,I,m,1117,6,1,2136.9000000953674,240521.7999997139,9005,NNB,A,5
6,test,2,1.0,1-Back,1,z,Wed Nov 13 2024 09:51:51 GMT-0500 (Eastern Standard Time),244125.5,063_y_f_n_a.png,I,z,439,7,1,1454.5,242671.0,9005,NNB,A,6
7,test,2,0.0,1-Back,1,m,Wed Nov 13 2024 09:51:51 GMT-0500 (Eastern Standard Time),245775.2999997139,041_y_m_n_a.png,I,m,620,8,1,1637.5,244137.7999997139,9005,NNB,A,7
8,test,2,0.0,1-Back,1,m,Wed Nov 13 2024 09:51:51 GMT-0500 (Eastern Standard Time),247675.5,044_o_f_n_a.png,I,m,874,9,1,1887.2000002861023,245788.2999997139,9005,NNB,A,8
9,test,2,0.0,1-Back,1,m,Wed Nov 13 2024 09:51:51 GMT-0500 (Eastern Standard Time),249691.90000009537,045_m_m_n_a.png,I,m,990,10,1,2004.3000001907349,247687.59999990463,9005,NNB,A,9
10,test,2,1.0,1-Back,1,z,Wed Nov 13 2024 09:51:51 GMT-0500 (Eastern Standard Time),251408.59999990463,045_m_m_n_a.png,I,z,686,11,1,1703.5999999046326,249705.0,9005,NNB,A,10
11,test,2,0.0,1-Back,1,m,Wed Nov 13 2024 09:51:51 GMT-0500 (Eastern Standard Time),252992.09999990463,044_o_f_n_a.png,I,m,553,12,1,1571.5999999046326,251420.5,9005,NNB,A,11
12,test,2,0.0,1-Back,1,m,Wed Nov 13 2024 09:51:51 GMT-0500 (Eastern Standard Time),254908.59999990463,047_o_f_n_a.png,I,m,873,13,1,1901.5999999046326,253007.0,9005,NNB,A,12
13,test,2,0.0,1-Back,1,m,Wed Nov 13 2024 09:51:51 GMT-0500 (Eastern Standard Time),256825.59999990463,053_o_m_n_a.png,I,m,893,14,1,1903.5999999046326,254922.0,9005,NNB,A,13
14,test,2,0.0,1-Back,1,m,Wed Nov 13 2024 09:51:51 GMT-0500 (Eastern Standard Time),258625.5,046_o_m_n_a.png,I,m,768,15,1,1786.5999999046326,256838.90000009537,9005,NNB,A,14
15,test,2,1.0,1-Back,1,z,Wed Nov 13 2024 09:51:51 GMT-0500 (Eastern Standard Time),260492.0,046_o_m_n_a.png,I,z,840,16,1,1853.5999999046326,258638.40000009537,9005,NNB,A,15
16,test,2,0.0,1-Back,1,m,Wed Nov 13 2024 09:51:51 GMT-0500 (Eastern Standard Time),262141.7999997139,008_y_m_n_a.png,I,m,621,17,1,1637.0999999046326,260504.69999980927,9005,NNB,A,16
17,test,2,1.0,1-Back,1,z,Wed Nov 13 2024 09:51:51 GMT-0500 (Eastern Standard Time),263941.69999980927,008_y_m_n_a.png,I,z,778,18,1,1786.5999999046326,262155.09999990463,9005,NNB,A,17
0,test,3,1.0,1-Back,,,Wed Nov 13 2024 09:51:51 GMT-0500 (Eastern Standard Time),263941.69999980927,010_y_f_n_a.png,I,space,4789,1,1,1786.5999999046326,262155.09999990463,9005,NNB,A,0
1,test,3,0.0,1-Back,1,m,Wed Nov 13 2024 09:51:51 GMT-0500 (Eastern Standard Time),272492.2999997139,046_o_m_n_a.png,I,m,625,2,1,1637.2999997138977,270855.0,9005,NNB,A,1
2,test,3,1.0,1-Back,1,z,Wed Nov 13 2024 09:51:51 GMT-0500 (Eastern Standard Time),274291.5,046_o_m_n_a.png,I,z,781,3,1,1787.0999999046326,272504.40000009537,9005,NNB,A,2
3,test,3,0.0,1-Back,1,m,Wed Nov 13 2024 09:51:51 GMT-0500 (Eastern Standard Time),276208.7999997139,050_m_f_n_a.png,I,m,886,4,1,1905.3999996185303,274303.40000009537,9005,NNB,A,3
4,test,3,1.0,1-Back,1,z,Wed Nov 13 2024 09:51:51 GMT-0500 (Eastern Standard Time),278125.2999997139,050_m_f_n_a.png,I,z,889,5,1,1904.0999999046326,276221.19999980927,9005,NNB,A,4
5,test,3,0.0,1-Back,1,m,Wed Nov 13 2024 09:51:51 GMT-0500 (Eastern Standard Time),280075.5,044_o_f_n_a.png,I,m,924,6,1,1938.2000002861023,278137.2999997139,9005,NNB,A,5
6,test,3,0.0,1-Back,1,m,Wed Nov 13 2024 09:51:51 GMT-0500 (Eastern Standard Time),282008.40000009537,041_y_m_n_a.png,I,m,910,7,1,1919.9000000953674,280088.5,9005,NNB,A,6
7,test,3,0.0,1-Back,1,m,Wed Nov 13 2024 09:51:51 GMT-0500 (Eastern Standard Time),284042.19999980927,044_o_f_n_a.png,I,m,1009,8,1,2022.7999997138977,282019.40000009537,9005,NNB,A,7
8,test,3,0.0,1-Back,1,m,Wed Nov 13 2024 09:51:51 GMT-0500 (Eastern Standard Time),285842.19999980927,008_y_m_n_a.png,I,m,767,9,1,1787.1999998092651,284055.0,9005,NNB,A,8
9,test,3,1.0,1-Back,1,z,Wed Nov 13 2024 09:51:51 GMT-0500 (Eastern Standard Time),287558.69999980927,008_y_m_n_a.png,I,z,695,10,1,1704.5,285854.19999980927,9005,NNB,A,9
10,test,3,0.0,1-Back,1,m,Wed Nov 13 2024 09:51:51 GMT-0500 (Eastern Standard Time),289375.2999997139,043_m_f_n_a.png,I,m,787,11,1,1803.7999997138977,287571.5,9005,NNB,A,10
11,test,3,0.0,1-Back,1,m,Wed Nov 13 2024 09:51:51 GMT-0500 (Eastern Standard Time),291374.90000009537,063_y_f_n_a.png,I,m,969,12,1,1988.3000001907349,289386.59999990463,9005,NNB,A,11
11,test,3,1.0,1-Back,0,z,Wed Nov 13 2024 09:51:51 GMT-0500 (Eastern Standard Time),293625.0,063_y_f_n_a.png,I,m,1226,13,1,2240.7000002861023,291384.2999997139,9005,NNB,A,12
12,test,3,0.0,1-Back,1,m,Wed Nov 13 2024 09:51:51 GMT-0500 (Eastern Standard Time),295608.90000009537,043_m_f_n_a.png,I,m,960,14,1,1971.0,293637.90000009537,9005,NNB,A,13
13,test,3,0.0,1-Back,1,m,Wed Nov 13 2024 09:51:51 GMT-0500 (Eastern Standard Time),297408.7999997139,058_m_m_n_a.png,I,m,769,15,1,1787.3999996185303,295621.40000009537,9005,NNB,A,14
13,test,3,1.0,1-Back,0,z,Wed Nov 13 2024 09:51:51 GMT-0500 (Eastern Standard Time),299725.69999980927,058_m_m_n_a.png,I,m,1289,16,1,2305.5,297420.19999980927,9005,NNB,A,15
14,test,3,0.0,1-Back,1,m,Wed Nov 13 2024 09:51:51 GMT-0500 (Eastern Standard Time),301591.90000009537,047_o_f_n_a.png,I,m,844,17,1,1853.4000000953674,299738.5,9005,NNB,A,16
15,test,3,1.0,1-Back,1,z,Wed Nov 13 2024 09:51:51 GMT-0500 (Eastern Standard Time),303192.0,047_o_f_n_a.png,I,z,578,18,1,1588.0,301604.0,9005,NNB,A,17
0,test,4,1.0,1-Back,,,Wed Nov 13 2024 09:51:51 GMT-0500 (Eastern Standard Time),303192.0,050_m_f_n_a.png,I,space,4210,1,1,1588.0,301604.0,9005,NNB,A,0
1,test,4,0.0,1-Back,1,m,Wed Nov 13 2024 09:51:51 GMT-0500 (Eastern Standard Time),311091.7999997139,046_o_m_n_a.png,I,m,648,2,1,1652.6999998092651,309439.09999990463,9005,NNB,A,1
2,test,4,0.0,1-Back,1,m,Wed Nov 13 2024 09:51:51 GMT-0500 (Eastern Standard Time),313175.5,050_m_f_n_a.png,I,m,1062,3,1,2072.0,311103.5,9005,NNB,A,2
3,test,4,0.0,1-Back,1,m,Wed Nov 13 2024 09:51:51 GMT-0500 (Eastern Standard Time),314958.90000009537,044_o_f_n_a.png,I,m,755,4,1,1770.7000002861023,313188.19999980927,9005,NNB,A,3
4,test,4,1.0,1-Back,1,z,Wed Nov 13 2024 09:51:51 GMT-0500 (Eastern Standard Time),316908.7999997139,044_o_f_n_a.png,I,z,923,5,1,1936.3999996185303,314972.40000009537,9005,NNB,A,4
5,test,4,0.0,1-Back,1,m,Wed Nov 13 2024 09:51:51 GMT-0500 (Eastern Standard Time),318608.59999990463,063_y_f_n_a.png,I,m,669,6,1,1687.3000001907349,316921.2999997139,9005,NNB,A,5
6,test,4,0.0,1-Back,1,m,Wed Nov 13 2024 09:51:51 GMT-0500 (Eastern Standard Time),320308.59999990463,041_y_m_n_a.png,I,m,681,7,1,1687.9000000953674,318620.69999980927,9005,NNB,A,6
7,test,4,1.0,1-Back,1,z,Wed Nov 13 2024 09:51:51 GMT-0500 (Eastern Standard Time),322108.7999997139,041_y_m_n_a.png,I,z,773,8,1,1789.0,320319.7999997139,9005,NNB,A,7
8,test,4,0.0,1-Back,1,m,Wed Nov 13 2024 09:51:51 GMT-0500 (Eastern Standard Time),324008.5,063_y_f_n_a.png,I,m,877,9,1,1887.3000001907349,322121.19999980927,9005,NNB,A,8
9,test,4,0.0,1-Back,1,m,Wed Nov 13 2024 09:51:51 GMT-0500 (Eastern Standard Time),325875.59999990463,045_m_m_n_a.png,I,m,833,10,1,1855.5,324020.09999990463,9005,NNB,A,9
10,test,4,1.0,1-Back,1,z,Wed Nov 13 2024 09:51:51 GMT-0500 (Eastern Standard Time),327425.5,045_m_m_n_a.png,I,z,518,11,1,1537.4000000953674,325888.09999990463,9005,NNB,A,10
11,test,4,0.0,1-Back,1,m,Wed Nov 13 2024 09:51:51 GMT-0500 (Eastern Standard Time),329025.5,047_o_f_n_a.png,I,m,568,12,1,1587.7000002861023,327437.7999997139,9005,NNB,A,11
12,test,4,0.0,1-Back,1,m,Wed Nov 13 2024 09:51:51 GMT-0500 (Eastern Standard Time),331059.0,053_o_m_n_a.png,I,m,984,13,1,2017.8000001907349,329041.19999980927,9005,NNB,A,12
13,test,4,0.0,1-Back,1,m,Wed Nov 13 2024 09:51:51 GMT-0500 (Eastern Standard Time),332825.0,047_o_f_n_a.png,I,m,743,14,1,1752.8000001907349,331072.19999980927,9005,NNB,A,13
14,test,4,0.0,1-Back,1,m,Wed Nov 13 2024 09:51:51 GMT-0500 (Eastern Standard Time),334625.5,010_y_f_n_a.png,I,m,768,15,1,1789.4000000953674,332836.09999990463,9005,NNB,A,14
15,test,4,1.0,1-Back,1,z,Wed Nov 13 2024 09:51:51 GMT-0500 (Eastern Standard Time),336291.7999997139,010_y_f_n_a.png,I,z,648,16,1,1654.0999999046326,334637.69999980927,9005,NNB,A,15
16,test,4,0.0,1-Back,1,m,Wed Nov 13 2024 09:51:51 GMT-0500 (Eastern Standard Time),337958.40000009537,043_m_f_n_a.png,I,m,645,17,1,1655.1000003814697,336303.2999997139,9005,NNB,A,16
17,test,4,1.0,1-Back,1,z,Wed Nov 13 2024 09:51:51 GMT-0500 (Eastern Standard Time),339625.5,043_m_f_n_a.png,I,z,644,18,1,1655.9000000953674,337969.59999990463,9005,NNB,A,17
0,test,5,1.0,1-Back,,,Wed Nov 13 2024 09:51:51 GMT-0500 (Eastern Standard Time),339625.5,053_o_m_n_a.png,I,space,3344,1,1,1655.9000000953674,337969.59999990463,9005,NNB,A,0
1,test,5,1.0,1-Back,1,z,Wed Nov 13 2024 09:51:51 GMT-0500 (Eastern Standard Time),346675.5,053_o_m_n_a.png,I,z,666,2,1,1670.9000000953674,345004.59999990463,9005,NNB,A,1
2,test,5,0.0,1-Back,1,m,Wed Nov 13 2024 09:51:51 GMT-0500 (Eastern Standard Time),348392.2999997139,063_y_f_n_a.png,I,m,694,3,1,1703.8999996185303,346688.40000009537,9005,NNB,A,2
3,test,5,0.0,1-Back,1,m,Wed Nov 13 2024 09:51:51 GMT-0500 (Eastern Standard Time),350058.90000009537,041_y_m_n_a.png,I,m,644,4,1,1654.2000002861023,348404.69999980927,9005,NNB,A,3
4,test,5,0.0,1-Back,1,m,Wed Nov 13 2024 09:51:51 GMT-0500 (Eastern Standard Time),351992.19999980927,063_y_f_n_a.png,I,m,911,5,1,1919.0999999046326,350073.09999990463,9005,NNB,A,4
5,test,5,0.0,1-Back,1,m,Wed Nov 13 2024 09:51:51 GMT-0500 (Eastern Standard Time),353875.5,058_m_m_n_a.png,I,m,850,6,1,1869.0,352006.5,9005,NNB,A,5
6,test,5,1.0,1-Back,1,z,Wed Nov 13 2024 09:51:51 GMT-0500 (Eastern Standard Time),355875.2999997139,058_m_m_n_a.png,I,z,966,7,1,1987.7999997138977,353887.5,9005,NNB,A,6
7,test,5,0.0,1-Back,1,m,Wed Nov 13 2024 09:51:51 GMT-0500 (Eastern Standard Time),357542.19999980927,010_y_f_n_a.png,I,m,646,8,1,1653.4000000953674,355888.7999997139,9005,NNB,A,7
8,test,5,0.0,1-Back,1,m,Wed Nov 13 2024 09:51:51 GMT-0500 (Eastern Standard Time),359224.90000009537,008_y_m_n_a.png,I,m,659,9,1,1669.3000001907349,357555.59999990463,9005,NNB,A,8
9,test,5,0.0,1-Back,1,m,Wed Nov 13 2024 09:51:51 GMT-0500 (Eastern Standard Time),361092.19999980927,010_y_f_n_a.png,I,m,833,10,1,1858.0999999046326,359234.09999990463,9005,NNB,A,9
10,test,5,0.0,1-Back,1,m,Wed Nov 13 2024 09:51:51 GMT-0500 (Eastern Standard Time),362942.2999997139,047_o_f_n_a.png,I,m,822,11,1,1837.5,361104.7999997139,9005,NNB,A,10
11,test,5,1.0,1-Back,1,z,Wed Nov 13 2024 09:51:51 GMT-0500 (Eastern Standard Time),364458.90000009537,047_o_f_n_a.png,I,z,492,12,1,1504.6000003814697,362954.2999997139,9005,NNB,A,11
12,test,5,0.0,1-Back,1,m,Wed Nov 13 2024 09:51:51 GMT-0500 (Eastern Standard Time),366242.0,046_o_m_n_a.png,I,m,751,13,1,1770.2000002861023,364471.7999997139,9005,NNB,A,12
13,test,5,0.0,1-Back,1,m,Wed Nov 13 2024 09:51:51 GMT-0500 (Eastern Standard Time),367992.09999990463,050_m_f_n_a.png,I,m,728,14,1,1737.9000000953674,366254.19999980927,9005,NNB,A,13
14,test,5,1.0,1-Back,1,z,Wed Nov 13 2024 09:51:51 GMT-0500 (Eastern Standard Time),369708.90000009537,050_m_f_n_a.png,I,z,690,15,1,1703.0,368005.90000009537,9005,NNB,A,14
15,test,5,0.0,1-Back,1,m,Wed Nov 13 2024 09:51:51 GMT-0500 (Eastern Standard Time),371342.09999990463,046_o_m_n_a.png,I,m,606,16,1,1618.9000000953674,369723.19999980927,9005,NNB,A,15
16,test,5,0.0,1-Back,1,m,Wed Nov 13 2024 09:51:51 GMT-0500 (Eastern Standard Time),373125.40000009537,043_m_f_n_a.png,I,m,764,17,1,1771.0,371354.40000009537,9005,NNB,A,16
17,test,5,0.0,1-Back,1,m,Wed Nov 13 2024 09:51:51 GMT-0500 (Eastern Standard Time),375175.5,045_m_m_n_a.png,I,m,1028,18,1,2035.9000000953674,373139.59999990463,9005,NNB,A,17
0,prac,1,0.0,2-Back,,,Wed Nov 13 2024 09:51:51 GMT-0500 (Eastern Standard Time),375175.5,008_y_m_n_a.png,I,space,6899,1,1,2035.9000000953674,373139.59999990463,9005,NNB,A,0
0,prac,1,0.0,2-Back,,,Wed Nov 13 2024 09:51:51 GMT-0500 (Eastern Standard Time),375175.5,043_m_f_n_a.png,I,space,6899,2,1,2035.9000000953674,373139.59999990463,9005,NNB,A,0
1,prac,1,1.0,2-Back,1,m,Wed Nov 13 2024 09:51:51 GMT-0500 (Eastern Standard Time),524242.59999990463,046_o_m_n_a.png,I,m,1360,3,1,2168.0999999046326,522074.5,9005,NNB,A,1
1,prac,1,0.0,2-Back,0,m,Wed Nov 13 2024 09:51:51 GMT-0500 (Eastern Standard Time),527125.9000000954,047_o_f_n_a.png,I,None,2006,4,1,2868.5,524257.40000009537,9005,NNB,A,2
1,prac,1,0.0,2-Back,0,z,Wed Nov 13 2024 09:51:51 GMT-0500 (Eastern Standard Time),529925.1999998093,046_o_m_n_a.png,I,None,2016,5,1,2782.9000000953674,527142.2999997139,9005,NNB,A,3
1,prac,1,1.0,2-Back,0,z,Wed Nov 13 2024 09:51:51 GMT-0500 (Eastern Standard Time),532708.6999998093,047_o_f_n_a.png,I,None,2005,6,1,2771.699999809265,529937.0,9005,NNB,A,4
1,prac,1,0.0,2-Back,0,m,Wed Nov 13 2024 09:51:51 GMT-0500 (Eastern Standard Time),535558.9000000954,045_m_m_n_a.png,I,None,2004,7,1,2836.2000002861023,532722.6999998093,9005,NNB,A,5
1,prac,1,0.0,2-Back,0,m,Wed Nov 13 2024 09:51:51 GMT-0500 (Eastern Standard Time),538492.2999997139,053_o_m_n_a.png,I,None,2007,8,1,2918.5,535573.7999997139,9005,NNB,A,6
1,prac,1,0.0,2-Back,0,m,Wed Nov 13 2024 09:51:51 GMT-0500 (Eastern Standard Time),541475.1999998093,010_y_f_n_a.png,I,None,2010,9,1,2969.4000000953674,538505.7999997139,9005,NNB,A,7
2,prac,1,1.0,2-Back,1,z,Wed Nov 13 2024 09:51:51 GMT-0500 (Eastern Standard Time),543075.5999999046,053_o_m_n_a.png,I,z,821,10,1,1588.6999998092651,541486.9000000954,9005,NNB,A,8
3,prac,1,0.0,2-Back,1,m,Wed Nov 13 2024 09:51:51 GMT-0500 (Eastern Standard Time),545359.1999998093,063_y_f_n_a.png,I,m,1360,11,1,2269.7999997138977,543089.4000000954,9005,NNB,A,9
4,prac,1,0.0,2-Back,1,m,Wed Nov 13 2024 09:51:51 GMT-0500 (Eastern Standard Time),547292.2999997139,045_m_m_n_a.png,I,m,1102,12,1,1919.1999998092651,545373.0999999046,9005,NNB,A,10
0,prac,2,0.0,2-Back,,,Wed Nov 13 2024 09:51:51 GMT-0500 (Eastern Standard Time),547292.2999997139,008_y_m_n_a.png,I,a,3387,1,1,1919.1999998092651,545373.0999999046,9005,NNB,A,0
0,prac,2,0.0,2-Back,,,Wed Nov 13 2024 09:51:51 GMT-0500 (Eastern Standard Time),547292.2999997139,043_m_f_n_a.png,I,a,3387,2,1,1919.1999998092651,545373.0999999046,9005,NNB,A,0
1,prac,2,1.0,2-Back,1,m,Wed Nov 13 2024 09:51:51 GMT-0500 (Eastern Standard Time),557725.9000000954,046_o_m_n_a.png,I,m,971,3,1,1789.7000002861023,555936.1999998093,9005,NNB,A,1
1,prac,2,0.0,2-Back,0,m,Wed Nov 13 2024 09:51:51 GMT-0500 (Eastern Standard Time),560175.6999998093,047_o_f_n_a.png,I,z,1567,4,1,2436.199999809265,557739.5,9005,NNB,A,2
1,prac,2,0.0,2-Back,0,z,Wed Nov 13 2024 09:51:51 GMT-0500 (Eastern Standard Time),561892.2999997139,046_o_m_n_a.png,I,m,929,5,1,1698.7999997138977,560193.5,9005,NNB,A,3
2,prac,2,1.0,2-Back,1,z,Wed Nov 13 2024 09:51:51 GMT-0500 (Eastern Standard Time),564192.6999998093,047_o_f_n_a.png,I,z,1504,6,1,2285.7999997138977,561906.9000000954,9005,NNB,A,4
3,prac,2,0.0,2-Back,1,m,Wed Nov 13 2024 09:51:51 GMT-0500 (Eastern Standard Time),566542.7999997139,045_m_m_n_a.png,I,m,1512,7,1,2330.8999996185303,564211.9000000954,9005,NNB,A,5
4,prac,2,0.0,2-Back,1,m,Wed Nov 13 2024 09:51:51 GMT-0500 (Eastern Standard Time),568725.9000000954,053_o_m_n_a.png,I,m,1353,8,1,2165.800000190735,566560.0999999046,9005,NNB,A,6
5,prac,2,0.0,2-Back,1,m,Wed Nov 13 2024 09:51:51 GMT-0500 (Eastern Standard Time),570992.5,010_y_f_n_a.png,I,m,1384,9,1,2250.300000190735,568742.1999998093,9005,NNB,A,7
5,prac,2,1.0,2-Back,0,z,Wed Nov 13 2024 09:51:51 GMT-0500 (Eastern Standard Time),573259.0999999046,053_o_m_n_a.png,I,m,1477,10,1,2252.699999809265,571006.4000000954,9005,NNB,A,8
6,prac,2,0.0,2-Back,1,m,Wed Nov 13 2024 09:51:51 GMT-0500 (Eastern Standard Time),575859.0999999046,063_y_f_n_a.png,I,m,1761,11,1,2586.0,573273.0999999046,9005,NNB,A,9
6,prac,2,0.0,2-Back,0,m,Wed Nov 13 2024 09:51:51 GMT-0500 (Eastern Standard Time),578692.0,045_m_m_n_a.png,I,None,2011,12,1,2818.0999999046326,575873.9000000954,9005,NNB,A,10
0,test,1,0.0,2-Back,,,Wed Nov 13 2024 09:51:51 GMT-0500 (Eastern Standard Time),578692.0,041_y_m_n_a.png,I,space,17418,1,1,2818.0999999046326,575873.9000000954,9005,NNB,A,0
0,test,1,0.0,2-Back,,,Wed Nov 13 2024 09:51:51 GMT-0500 (Eastern Standard Time),578692.0,041_y_m_n_a.png,I,space,17418,2,1,2818.0999999046326,575873.9000000954,9005,NNB,A,0
1,test,1,0.0,2-Back,1,m,Wed Nov 13 2024 09:51:51 GMT-0500 (Eastern Standard Time),624042.5,047_o_f_n_a.png,I,m,776,3,1,1787.2000002861023,622255.2999997139,9005,NNB,A,1
2,test,1,0.0,2-Back,1,m,Wed Nov 13 2024 09:51:51 GMT-0500 (Eastern Standard Time),626492.6999998093,058_m_m_n_a.png,I,m,1424,4,1,2438.0,624054.6999998093,9005,NNB,A,2
3,test,1,1.0,2-Back,1,z,Wed Nov 13 2024 09:51:51 GMT-0500 (Eastern Standard Time),628308.9000000954,047_o_f_n_a.png,I,z,798,5,1,1803.4000000953674,626505.5,9005,NNB,A,3
4,test,1,0.0,2-Back,1,m,Wed Nov 13 2024 09:51:51 GMT-0500 (Eastern Standard Time),630408.7999997139,063_y_f_n_a.png,I,m,1077,6,1,2089.0,628319.7999997139,9005,NNB,A,4
5,test,1,0.0,2-Back,1,m,Wed Nov 13 2024 09:51:51 GMT-0500 (Eastern Standard Time),632975.5,058_m_m_n_a.png,I,m,1538,7,1,2556.300000190735,630419.1999998093,9005,NNB,A,5
6,test,1,1.0,2-Back,1,z,Wed Nov 13 2024 09:51:51 GMT-0500 (Eastern Standard Time),635392.5,063_y_f_n_a.png,I,z,1387,8,1,2404.4000000953674,632988.0999999046,9005,NNB,A,6
7,test,1,0.0,2-Back,1,m,Wed Nov 13 2024 09:51:51 GMT-0500 (Eastern Standard Time),637775.7999997139,008_y_m_n_a.png,I,m,1354,9,1,2370.8999996185303,635404.9000000954,9005,NNB,A,7
8,test,1,0.0,2-Back,1,m,Wed Nov 13 2024 09:51:51 GMT-0500 (Eastern Standard Time),639975.7999997139,044_o_f_n_a.png,I,m,1162,10,1,2184.0999999046326,637791.6999998093,9005,NNB,A,8
9,test,1,1.0,2-Back,1,z,Wed Nov 13 2024 09:51:51 GMT-0500 (Eastern Standard Time),642075.6999998093,008_y_m_n_a.png,I,z,1075,11,1,2085.7999997138977,639989.9000000954,9005,NNB,A,9
10,test,1,0.0,2-Back,1,m,Wed Nov 13 2024 09:51:51 GMT-0500 (Eastern Standard Time),644642.5999999046,043_m_f_n_a.png,I,m,1534,12,1,2553.800000190735,642088.7999997139,9005,NNB,A,10
10,test,1,0.0,2-Back,0,m,Wed Nov 13 2024 09:51:51 GMT-0500 (Eastern Standard Time),647508.5999999046,043_m_f_n_a.png,I,z,1847,13,1,2852.9000000953674,644655.6999998093,9005,NNB,A,11
11,test,1,0.0,2-Back,1,m,Wed Nov 13 2024 09:51:51 GMT-0500 (Eastern Standard Time),649676.0,046_o_m_n_a.png,I,m,1142,14,1,2156.0999999046326,647519.9000000954,9005,NNB,A,12
12,test,1,0.0,2-Back,1,m,Wed Nov 13 2024 09:51:51 GMT-0500 (Eastern Standard Time),652059.1999998093,044_o_f_n_a.png,I,m,1359,15,1,2368.699999809265,649690.5,9005,NNB,A,13
13,test,1,1.0,2-Back,1,z,Wed Nov 13 2024 09:51:51 GMT-0500 (Eastern Standard Time),654592.2999997139,046_o_m_n_a.png,I,z,1504,16,1,2519.699999809265,652072.5999999046,9005,NNB,A,14
14,test,1,0.0,2-Back,1,m,Wed Nov 13 2024 09:51:51 GMT-0500 (Eastern Standard Time),656859.1999998093,050_m_f_n_a.png,I,m,1242,17,1,2254.0,654605.1999998093,9005,NNB,A,15
15,test,1,0.0,2-Back,1,m,Wed Nov 13 2024 09:51:51 GMT-0500 (Eastern Standard Time),659476.0,045_m_m_n_a.png,I,m,1583,18,1,2601.5,656874.5,9005,NNB,A,16
0,test,2,0.0,2-Back,,,Wed Nov 13 2024 09:51:51 GMT-0500 (Eastern Standard Time),659476.0,045_m_m_n_a.png,I,space,4087,1,1,2601.5,656874.5,9005,NNB,A,0
0,test,2,0.0,2-Back,,,Wed Nov 13 2024 09:51:51 GMT-0500 (Eastern Standard Time),659476.0,010_y_f_n_a.png,I,space,4087,2,1,2601.5,656874.5,9005,NNB,A,0
1,test,2,1.0,2-Back,1,z,Wed Nov 13 2024 09:51:51 GMT-0500 (Eastern Standard Time),670359.1999998093,045_m_m_n_a.png,I,z,629,3,1,1638.4000000953674,668720.7999997139,9005,NNB,A,1
2,test,2,0.0,2-Back,1,m,Wed Nov 13 2024 09:51:51 GMT-0500 (Eastern Standard Time),672959.1999998093,050_m_f_n_a.png,I,m,1572,4,1,2586.699999809265,670372.5,9005,NNB,A,2
2,test,2,0.0,2-Back,0,m,Wed Nov 13 2024 09:51:51 GMT-0500 (Eastern Standard Time),675575.6999998093,010_y_f_n_a.png,I,z,1596,5,1,2603.7999997138977,672971.9000000954,9005,NNB,A,3
3,test,2,0.0,2-Back,1,m,Wed Nov 13 2024 09:51:51 GMT-0500 (Eastern Standard Time),677876.0,046_o_m_n_a.png,I,m,1283,6,1,2286.9000000953674,675589.0999999046,9005,NNB,A,4
3,test,2,0.0,2-Back,0,m,Wed Nov 13 2024 09:51:51 GMT-0500 (Eastern Standard Time),680225.7999997139,063_y_f_n_a.png,I,z,1319,7,1,2337.2999997138977,677888.5,9005,NNB,A,5
3,test,2,1.0,2-Back,0,z,Wed Nov 13 2024 09:51:51 GMT-0500 (Eastern Standard Time),682526.0,046_o_m_n_a.png,I,m,1273,8,1,2287.5999999046326,680238.4000000954,9005,NNB,A,6
4,test,2,0.0,2-Back,1,m,Wed Nov 13 2024 09:51:51 GMT-0500 (Eastern Standard Time),684509.1999998093,008_y_m_n_a.png,I,m,957,9,1,1969.1999998092651,682540.0,9005,NNB,A,7
5,test,2,0.0,2-Back,1,m,Wed Nov 13 2024 09:51:51 GMT-0500 (Eastern Standard Time),686825.9000000954,008_y_m_n_a.png,I,m,1293,10,1,2303.7000002861023,684522.1999998093,9005,NNB,A,8
6,test,2,0.0,2-Back,1,m,Wed Nov 13 2024 09:51:51 GMT-0500 (Eastern Standard Time),689159.0999999046,043_m_f_n_a.png,I,m,1314,11,1,2320.699999809265,686838.4000000954,9005,NNB,A,9
6,test,2,0.0,2-Back,0,m,Wed Nov 13 2024 09:51:51 GMT-0500 (Eastern Standard Time),692192.7999997139,010_y_f_n_a.png,I,None,2016,12,1,3020.5999999046326,689172.1999998093,9005,NNB,A,10
6,test,2,1.0,2-Back,0,z,Wed Nov 13 2024 09:51:51 GMT-0500 (Eastern Standard Time),694392.5,043_m_f_n_a.png,I,m,1178,13,1,2186.800000190735,692205.6999998093,9005,NNB,A,11
7,test,2,0.0,2-Back,1,m,Wed Nov 13 2024 09:51:51 GMT-0500 (Eastern Standard Time),696725.7999997139,053_o_m_n_a.png,I,m,1314,14,1,2320.699999809265,694405.0999999046,9005,NNB,A,12
7,test,2,0.0,2-Back,0,m,Wed Nov 13 2024 09:51:51 GMT-0500 (Eastern Standard Time),699009.1999998093,053_o_m_n_a.png,I,z,1253,15,1,2270.199999809265,696739.0,9005,NNB,A,13
8,test,2,0.0,2-Back,1,m,Wed Nov 13 2024 09:51:51 GMT-0500 (Eastern Standard Time),701159.2999997139,044_o_f_n_a.png,I,m,1130,16,1,2137.0,699022.2999997139,9005,NNB,A,14
9,test,2,0.0,2-Back,1,m,Wed Nov 13 2024 09:51:51 GMT-0500 (Eastern Standard Time),703825.5,058_m_m_n_a.png,I,m,1634,17,1,2652.5,701173.0,9005,NNB,A,15
10,test,2,1.0,2-Back,1,z,Wed Nov 13 2024 09:51:51 GMT-0500 (Eastern Standard Time),705441.9000000954,044_o_f_n_a.png,I,z,585,18,1,1603.8000001907349,703838.0999999046,9005,NNB,A,16
0,test,3,1.0,2-Back,,,Wed Nov 13 2024 09:51:51 GMT-0500 (Eastern Standard Time),705441.9000000954,041_y_m_n_a.png,I,space,3098,1,1,1603.8000001907349,703838.0999999046,9005,NNB,A,0
0,test,3,1.0,2-Back,,,Wed Nov 13 2024 09:51:51 GMT-0500 (Eastern Standard Time),705441.9000000954,041_y_m_n_a.png,I,space,3098,2,1,1603.8000001907349,703838.0999999046,9005,NNB,A,0
1,test,3,0.0,2-Back,1,m,Wed Nov 13 2024 09:51:51 GMT-0500 (Eastern Standard Time),715510.0999999046,044_o_f_n_a.png,I,m,865,3,1,1875.0,713635.0999999046,9005,NNB,A,1
2,test,3,0.0,2-Back,1,m,Wed Nov 13 2024 09:51:51 GMT-0500 (Eastern Standard Time),717526.0,045_m_m_n_a.png,I,m,998,4,1,2001.5,715524.5,9005,NNB,A,2
3,test,3,1.0,2-Back,1,z,Wed Nov 13 2024 09:51:51 GMT-0500 (Eastern Standard Time),719409.2999997139,044_o_f_n_a.png,I,z,853,5,1,1869.8999996185303,717539.4000000954,9005,NNB,A,3
3,test,3,0.0,2-Back,0,m,Wed Nov 13 2024 09:51:51 GMT-0500 (Eastern Standard Time),721892.0,008_y_m_n_a.png,I,z,1448,6,1,2461.5,719430.5,9005,NNB,A,4
4,test,3,0.0,2-Back,1,m,Wed Nov 13 2024 09:51:51 GMT-0500 (Eastern Standard Time),724059.2999997139,045_m_m_n_a.png,I,m,1142,7,1,2157.0,721902.2999997139,9005,NNB,A,5
5,test,3,1.0,2-Back,1,z,Wed Nov 13 2024 09:51:51 GMT-0500 (Eastern Standard Time),726242.4000000954,008_y_m_n_a.png,I,z,1152,8,1,2170.0,724072.4000000954,9005,NNB,A,6
6,test,3,0.0,2-Back,1,m,Wed Nov 13 2024 09:51:51 GMT-0500 (Eastern Standard Time),727992.5999999046,010_y_f_n_a.png,I,m,728,9,1,1736.8000001907349,726255.7999997139,9005,NNB,A,7
6,test,3,0.0,2-Back,0,m,Wed Nov 13 2024 09:51:51 GMT-0500 (Eastern Standard Time),730942.5999999046,058_m_m_n_a.png,I,z,1922,10,1,2936.699999809265,728005.9000000954,9005,NNB,A,8
7,test,3,1.0,2-Back,1,z,Wed Nov 13 2024 09:51:51 GMT-0500 (Eastern Standard Time),732859.1999998093,010_y_f_n_a.png,I,z,892,11,1,1903.1999998092651,730956.0,9005,NNB,A,9
8,test,3,1.0,2-Back,1,z,Wed Nov 13 2024 09:51:51 GMT-0500 (Eastern Standard Time),735059.2999997139,058_m_m_n_a.png,I,z,1167,12,1,2186.5999999046326,732872.6999998093,9005,NNB,A,10
9,test,3,0.0,2-Back,1,m,Wed Nov 13 2024 09:51:51 GMT-0500 (Eastern Standard Time),737009.0999999046,044_o_f_n_a.png,I,m,920,13,1,1936.5999999046326,735072.5,9005,NNB,A,11
10,test,3,0.0,2-Back,1,m,Wed Nov 13 2024 09:51:51 GMT-0500 (Eastern Standard Time),739342.0999999046,050_m_f_n_a.png,I,m,1305,14,1,2320.699999809265,737021.4000000954,9005,NNB,A,12
11,test,3,0.0,2-Back,1,m,Wed Nov 13 2024 09:51:51 GMT-0500 (Eastern Standard Time),741359.0999999046,046_o_m_n_a.png,I,m,988,15,1,2007.0999999046326,739352.0,9005,NNB,A,13
12,test,3,1.0,2-Back,1,z,Wed Nov 13 2024 09:51:51 GMT-0500 (Eastern Standard Time),743176.0,050_m_f_n_a.png,I,z,795,16,1,1803.8000001907349,741372.1999998093,9005,NNB,A,14
13,test,3,0.0,2-Back,1,m,Wed Nov 13 2024 09:51:51 GMT-0500 (Eastern Standard Time),745475.9000000954,047_o_f_n_a.png,I,m,1267,17,1,2286.800000190735,743189.0999999046,9005,NNB,A,15
13,test,3,0.0,2-Back,0,m,Wed Nov 13 2024 09:51:51 GMT-0500 (Eastern Standard Time),747875.7999997139,047_o_f_n_a.png,I,z,1367,18,1,2386.699999809265,745489.0999999046,9005,NNB,A,16
0,test,4,0.0,2-Back,,,Wed Nov 13 2024 09:51:51 GMT-0500 (Eastern Standard Time),747875.7999997139,053_o_m_n_a.png,I,space,5950,1,1,2386.699999809265,745489.0999999046,9005,NNB,A,0
0,test,4,0.0,2-Back,,,Wed Nov 13 2024 09:51:51 GMT-0500 (Eastern Standard Time),747875.7999997139,063_y_f_n_a.png,I,space,5950,2,1,2386.699999809265,745489.0999999046,9005,NNB,A,0
1,test,4,1.0,2-Back,1,z,Wed Nov 13 2024 09:51:51 GMT-0500 (Eastern Standard Time),760675.5,053_o_m_n_a.png,I,z,682,3,1,1685.7000002861023,758989.7999997139,9005,NNB,A,1
2,test,4,1.0,2-Back,1,z,Wed Nov 13 2024 09:51:51 GMT-0500 (Eastern Standard Time),762676.0999999046,063_y_f_n_a.png,I,z,984,4,1,1989.3000001907349,760686.7999997139,9005,NNB,A,2
3,test,4,0.0,2-Back,1,m,Wed Nov 13 2024 09:51:51 GMT-0500 (Eastern Standard Time),764609.2999997139,044_o_f_n_a.png,I,m,903,5,1,1920.7999997138977,762688.5,9005,NNB,A,3
4,test,4,0.0,2-Back,1,m,Wed Nov 13 2024 09:51:51 GMT-0500 (Eastern Standard Time),767075.9000000954,044_o_f_n_a.png,I,m,1434,6,1,2453.7000002861023,764622.1999998093,9005,NNB,A,4
5,test,4,0.0,2-Back,1,m,Wed Nov 13 2024 09:51:51 GMT-0500 (Eastern Standard Time),769242.5,043_m_f_n_a.png,I,m,1143,7,1,2153.5,767089.0,9005,NNB,A,5
6,test,4,0.0,2-Back,1,m,Wed Nov 13 2024 09:51:51 GMT-0500 (Eastern Standard Time),771342.5999999046,008_y_m_n_a.png,I,m,1072,8,1,2087.300000190735,769255.2999997139,9005,NNB,A,6
7,test,4,1.0,2-Back,1,z,Wed Nov 13 2024 09:51:51 GMT-0500 (Eastern Standard Time),773292.5999999046,043_m_f_n_a.png,I,z,924,9,1,1937.4000000953674,771355.1999998093,9005,NNB,A,7
8,test,4,0.0,2-Back,1,m,Wed Nov 13 2024 09:51:51 GMT-0500 (Eastern Standard Time),775326.0,058_m_m_n_a.png,I,m,990,10,1,2017.8000001907349,773308.1999998093,9005,NNB,A,8
8,test,4,0.0,2-Back,0,m,Wed Nov 13 2024 09:51:51 GMT-0500 (Eastern Standard Time),777076.0999999046,008_y_m_n_a.png,I,z,717,11,1,1737.0,775339.0999999046,9005,NNB,A,9
9,test,4,0.0,2-Back,1,m,Wed Nov 13 2024 09:51:51 GMT-0500 (Eastern Standard Time),779243.0,047_o_f_n_a.png,I,m,1143,12,1,2153.5999999046326,777089.4000000954,9005,NNB,A,10
10,test,4,0.0,2-Back,1,m,Wed Nov 13 2024 09:51:51 GMT-0500 (Eastern Standard Time),781642.6999998093,041_y_m_n_a.png,I,m,1376,13,1,2388.7999997138977,779253.9000000954,9005,NNB,A,11
11,test,4,1.0,2-Back,1,z,Wed Nov 13 2024 09:51:51 GMT-0500 (Eastern Standard Time),783726.0,047_o_f_n_a.png,I,z,1056,14,1,2070.300000190735,781655.6999998093,9005,NNB,A,12
11,test,4,1.0,2-Back,0,z,Wed Nov 13 2024 09:51:51 GMT-0500 (Eastern Standard Time),785909.0999999046,041_y_m_n_a.png,I,m,1165,15,1,2169.5999999046326,783739.5,9005,NNB,A,13
12,test,4,0.0,2-Back,1,m,Wed Nov 13 2024 09:51:51 GMT-0500 (Eastern Standard Time),788592.1999998093,045_m_m_n_a.png,I,m,1653,16,1,2670.5999999046326,785921.5999999046,9005,NNB,A,14
13,test,4,0.0,2-Back,1,m,Wed Nov 13 2024 09:51:51 GMT-0500 (Eastern Standard Time),790609.1999998093,050_m_f_n_a.png,I,m,987,17,1,2006.9000000953674,788602.2999997139,9005,NNB,A,15
14,test,4,1.0,2-Back,1,z,Wed Nov 13 2024 09:51:51 GMT-0500 (Eastern Standard Time),792409.1999998093,045_m_m_n_a.png,I,z,761,18,1,1784.0,790625.1999998093,9005,NNB,A,16
0,test,5,1.0,2-Back,,,Wed Nov 13 2024 09:51:51 GMT-0500 (Eastern Standard Time),792409.1999998093,041_y_m_n_a.png,I,space,15138,1,1,1784.0,790625.1999998093,9005,NNB,A,0
0,test,5,1.0,2-Back,,,Wed Nov 13 2024 09:51:51 GMT-0500 (Eastern Standard Time),792409.1999998093,050_m_f_n_a.png,I,space,15138,2,1,1784.0,790625.1999998093,9005,NNB,A,0
1,test,5,1.0,2-Back,1,z,Wed Nov 13 2024 09:51:51 GMT-0500 (Eastern Standard Time),814376.0999999046,041_y_m_n_a.png,I,z,762,3,1,1770.5,812605.5999999046,9005,NNB,A,1
2,test,5,1.0,2-Back,1,z,Wed Nov 13 2024 09:51:51 GMT-0500 (Eastern Standard Time),816226.0,050_m_f_n_a.png,I,z,819,4,1,1837.5,814388.5,9005,NNB,A,2
3,test,5,0.0,2-Back,1,m,Wed Nov 13 2024 09:51:51 GMT-0500 (Eastern Standard Time),818642.7999997139,047_o_f_n_a.png,I,m,1384,5,1,2403.5999999046326,816239.1999998093,9005,NNB,A,3
3,test,5,0.0,2-Back,0,m,Wed Nov 13 2024 09:51:51 GMT-0500 (Eastern Standard Time),820842.6999998093,041_y_m_n_a.png,I,z,1176,6,1,2185.9000000953674,818656.7999997139,9005,NNB,A,4
4,test,5,0.0,2-Back,1,m,Wed Nov 13 2024 09:51:51 GMT-0500 (Eastern Standard Time),823009.0999999046,010_y_f_n_a.png,I,m,1136,7,1,2152.300000190735,820856.7999997139,9005,NNB,A,5
4,test,5,0.0,2-Back,0,m,Wed Nov 13 2024 09:51:51 GMT-0500 (Eastern Standard Time),825042.5999999046,047_o_f_n_a.png,I,z,1001,8,1,2020.9000000953674,823021.6999998093,9005,NNB,A,6
5,test,5,1.0,2-Back,1,z,Wed Nov 13 2024 09:51:51 GMT-0500 (Eastern Standard Time),827175.9000000954,010_y_f_n_a.png,I,z,1112,9,1,2120.1000003814697,825055.7999997139,9005,NNB,A,7
6,test,5,0.0,2-Back,1,m,Wed Nov 13 2024 09:51:51 GMT-0500 (Eastern Standard Time),829159.4000000954,046_o_m_n_a.png,I,m,946,10,1,1966.8000001907349,827192.5999999046,9005,NNB,A,8
7,test,5,0.0,2-Back,1,m,Wed Nov 13 2024 09:51:51 GMT-0500 (Eastern Standard Time),831242.6999998093,043_m_f_n_a.png,I,m,1059,11,1,2070.0,829172.6999998093,9005,NNB,A,9
7,test,5,0.0,2-Back,0,m,Wed Nov 13 2024 09:51:51 GMT-0500 (Eastern Standard Time),833476.0999999046,058_m_m_n_a.png,I,z,1200,12,1,2220.300000190735,831255.7999997139,9005,NNB,A,10
8,test,5,0.0,2-Back,1,m,Wed Nov 13 2024 09:51:51 GMT-0500 (Eastern Standard Time),835809.4000000954,046_o_m_n_a.png,I,m,1304,13,1,2320.7000002861023,833488.6999998093,9005,NNB,A,11
9,test,5,1.0,2-Back,1,z,Wed Nov 13 2024 09:51:51 GMT-0500 (Eastern Standard Time),837875.9000000954,058_m_m_n_a.png,I,z,1033,14,1,2054.0,835821.9000000954,9005,NNB,A,12
10,test,5,0.0,2-Back,1,m,Wed Nov 13 2024 09:51:51 GMT-0500 (Eastern Standard Time),840126.0,063_y_f_n_a.png,I,m,1222,15,1,2237.800000190735,837888.1999998093,9005,NNB,A,13
11,test,5,0.0,2-Back,1,m,Wed Nov 13 2024 09:51:51 GMT-0500 (Eastern Standard Time),842342.4000000954,053_o_m_n_a.png,I,m,1197,16,1,2202.5,840139.9000000954,9005,NNB,A,14
12,test,5,0.0,2-Back,1,m,Wed Nov 13 2024 09:51:51 GMT-0500 (Eastern Standard Time),844576.1999998093,043_m_f_n_a.png,I,m,1205,17,1,2221.0,842355.1999998093,9005,NNB,A,15
13,test,5,1.0,2-Back,1,z,Wed Nov 13 2024 09:51:51 GMT-0500 (Eastern Standard Time),847075.6999998093,053_o_m_n_a.png,I,z,1449,18,1,2482.5999999046326,844593.0999999046,9005,NNB,A,16
