acc_sum,block,block_c,change,condition,correct,correct_response,datetime,endtime,face,project,response,response_time,row_sel,session_number,start_end,starttime,subject_id,task,task_vers,trial
0,prac,1,,1-Back,,,Tue Apr 08 2025 09:40:51 GMT-0500 (Central Daylight Time),,124_o_f_d_a.png,I,space,10444,1,2,,,8020,VNB,A,0
1,prac,1,0.0,1-Back,1,m,Tue Apr 08 2025 09:40:51 GMT-0500 (Central Daylight Time),110622.10000000894,071_y_f_n_a.png,I,m,1439,2,2,2240.7999999970198,108381.30000001192,8020,VNB,A,1
2,prac,1,0.0,1-Back,1,m,Tue Apr 08 2025 09:40:51 GMT-0500 (Central Daylight Time),112771.5,165_m_m_h_a.png,I,m,1343,3,2,2141.2999999970198,110630.20000000298,8020,VNB,A,2
2,prac,1,0.0,1-Back,0,m,Tue Apr 08 2025 09:40:51 GMT-0500 (Central Daylight Time),115470.30000001192,109_y_m_d_a.png,I,z,1873,4,2,2690.800000011921,112779.5,8020,VNB,A,3
3,prac,1,0.0,1-Back,1,m,Tue Apr 08 2025 09:40:51 GMT-0500 (Central Daylight Time),118002.90000000596,124_o_f_n_a.png,I,m,1696,5,2,2525.4000000059605,115477.5,8020,VNB,A,4
4,prac,1,1.0,1-Back,1,z,Tue Apr 08 2025 09:40:51 GMT-0500 (Central Daylight Time),120435.60000000894,109_y_m_n_a.png,I,z,1613,6,2,2424.7000000029802,118010.90000000596,8020,VNB,A,5
5,prac,1,0.0,1-Back,1,m,Tue Apr 08 2025 09:40:51 GMT-0500 (Central Daylight Time),122318.30000001192,039_o_m_h_a.png,I,m,1069,7,2,1874.9000000059605,120443.40000000596,8020,VNB,A,6
6,prac,1,0.0,1-Back,1,m,Tue Apr 08 2025 09:40:51 GMT-0500 (Central Daylight Time),124201.0,139_m_f_d_a.png,I,m,1080,8,2,1875.5999999940395,122325.40000000596,8020,VNB,A,7
7,prac,1,1.0,1-Back,1,z,Tue Apr 08 2025 09:40:51 GMT-0500 (Central Daylight Time),125950.5,071_y_f_d_a.png,I,z,935,9,2,1741.0,124209.5,8020,VNB,A,8
8,prac,1,0.0,1-Back,1,m,Tue Apr 08 2025 09:40:51 GMT-0500 (Central Daylight Time),127999.70000000298,165_m_m_n_a.png,I,m,1231,10,2,2041.2999999970198,125958.40000000596,8020,VNB,A,9
9,prac,1,0.0,1-Back,1,m,Tue Apr 08 2025 09:40:51 GMT-0500 (Central Daylight Time),130482.30000001192,124_o_f_h_a.png,I,m,1661,11,2,2475.300000011921,128007.0,8020,VNB,A,10
10,prac,1,0.0,1-Back,1,m,Tue Apr 08 2025 09:40:51 GMT-0500 (Central Daylight Time),132365.20000000298,109_y_m_d_a.png,I,m,1102,12,2,1874.3999999910593,130490.80000001192,8020,VNB,A,11
0,test,1,0.0,1-Back,,,Tue Apr 08 2025 09:40:51 GMT-0500 (Central Daylight Time),132365.20000000298,071_y_f_d_a.png,I,space,5611,1,2,1874.3999999910593,130490.80000001192,8020,VNB,A,0
1,test,1,0.0,1-Back,1,m,Tue Apr 08 2025 09:40:51 GMT-0500 (Central Daylight Time),152192.30000001192,139_m_f_n_a.png,I,m,1291,2,2,2309.2000000029802,149883.10000000894,8020,VNB,A,1
2,test,1,0.0,1-Back,1,m,Tue Apr 08 2025 09:40:51 GMT-0500 (Central Daylight Time),154691.60000000894,039_o_m_h_a.png,I,m,1472,3,2,2492.7000000029802,152198.90000000596,8020,VNB,A,2
2,test,1,1.0,1-Back,0,z,Tue Apr 08 2025 09:40:51 GMT-0500 (Central Daylight Time),157723.90000000596,165_m_m_h_a.png,I,None,2016,4,2,3025.5999999940395,154698.30000001192,8020,VNB,A,3
3,test,1,0.0,1-Back,1,m,Tue Apr 08 2025 09:40:51 GMT-0500 (Central Daylight Time),159639.90000000596,124_o_f_n_a.png,I,m,884,5,2,1909.7000000029802,157730.20000000298,8020,VNB,A,4
4,test,1,0.0,1-Back,1,m,Tue Apr 08 2025 09:40:51 GMT-0500 (Central Daylight Time),162105.70000000298,109_y_m_d_a.png,I,m,1440,6,2,2459.5,159646.20000000298,8020,VNB,A,5
5,test,1,1.0,1-Back,1,z,Tue Apr 08 2025 09:40:51 GMT-0500 (Central Daylight Time),164055.20000000298,139_m_f_d_a.png,I,z,927,7,2,1943.0,162112.20000000298,8020,VNB,A,6
6,test,1,0.0,1-Back,1,m,Tue Apr 08 2025 09:40:51 GMT-0500 (Central Daylight Time),166404.40000000596,071_y_f_h_a.png,I,m,1321,8,2,2342.0,164062.40000000596,8020,VNB,A,7
7,test,1,0.0,1-Back,1,m,Tue Apr 08 2025 09:40:51 GMT-0500 (Central Daylight Time),168370.5,039_o_m_n_a.png,I,m,949,9,2,1959.0,166411.5,8020,VNB,A,8
8,test,1,0.0,1-Back,1,m,Tue Apr 08 2025 09:40:51 GMT-0500 (Central Daylight Time),170569.80000001192,109_y_m_h_a.png,I,m,1174,10,2,2193.0,168376.80000001192,8020,VNB,A,9
9,test,1,0.0,1-Back,1,m,Tue Apr 08 2025 09:40:51 GMT-0500 (Central Daylight Time),172902.40000000596,039_o_m_d_a.png,I,m,1302,11,2,2326.0999999940395,170576.30000001192,8020,VNB,A,10
10,test,1,1.0,1-Back,1,z,Tue Apr 08 2025 09:40:51 GMT-0500 (Central Daylight Time),174885.20000000298,124_o_f_d_a.png,I,z,954,12,2,1976.0999999940395,172909.10000000894,8020,VNB,A,11
11,test,1,0.0,1-Back,1,m,Tue Apr 08 2025 09:40:51 GMT-0500 (Central Daylight Time),176901.20000000298,165_m_m_n_a.png,I,m,987,13,2,2010.0,174891.20000000298,8020,VNB,A,12
12,test,1,1.0,1-Back,1,z,Tue Apr 08 2025 09:40:51 GMT-0500 (Central Daylight Time),179333.80000001192,071_y_f_n_a.png,I,z,1412,14,2,2425.2000000029802,176908.60000000894,8020,VNB,A,13
13,test,1,0.0,1-Back,1,m,Tue Apr 08 2025 09:40:51 GMT-0500 (Central Daylight Time),181349.80000001192,139_m_f_h_a.png,I,m,995,15,2,2009.7000000029802,179340.10000000894,8020,VNB,A,14
14,test,1,0.0,1-Back,1,m,Tue Apr 08 2025 09:40:51 GMT-0500 (Central Daylight Time),183499.20000000298,165_m_m_d_a.png,I,m,1123,16,2,2142.5,181356.70000000298,8020,VNB,A,15
15,test,1,0.0,1-Back,1,m,Tue Apr 08 2025 09:40:51 GMT-0500 (Central Daylight Time),185831.90000000596,109_y_m_n_a.png,I,m,1310,17,2,2324.7000000029802,183507.20000000298,8020,VNB,A,16
16,test,1,0.0,1-Back,1,m,Tue Apr 08 2025 09:40:51 GMT-0500 (Central Daylight Time),188180.90000000596,124_o_f_h_a.png,I,m,1329,18,2,2342.9000000059605,185838.0,8020,VNB,A,17
0,test,2,0.0,1-Back,,,Tue Apr 08 2025 09:40:51 GMT-0500 (Central Daylight Time),188180.90000000596,109_y_m_n_a.png,I,space,1611,1,2,2342.9000000059605,185838.0,8020,VNB,A,0
1,test,2,0.0,1-Back,1,m,Tue Apr 08 2025 09:40:51 GMT-0500 (Central Daylight Time),193912.60000000894,071_y_f_h_a.png,I,m,1075,2,2,2093.1000000089407,191819.5,8020,VNB,A,1
2,test,2,1.0,1-Back,1,m,Tue Apr 08 2025 09:40:51 GMT-0500 (Central Daylight Time),196162.10000000894,039_o_m_n_a.png,I,m,1233,3,2,2243.1000000089407,193919.0,8020,VNB,A,2
2,test,2,0.0,1-Back,0,m,Tue Apr 08 2025 09:40:51 GMT-0500 (Central Daylight Time),198361.10000000894,139_m_f_d_a.png,I,z,1167,4,2,2193.0,196168.10000000894,8020,VNB,A,3
2,test,2,0.0,1-Back,0,z,Tue Apr 08 2025 09:40:51 GMT-0500 (Central Daylight Time),200460.40000000596,165_m_m_d_a.png,I,m,1079,5,2,2092.5999999940395,198367.80000001192,8020,VNB,A,4
3,test,2,0.0,1-Back,1,m,Tue Apr 08 2025 09:40:51 GMT-0500 (Central Daylight Time),202643.30000001192,109_y_m_h_a.png,I,m,1156,6,2,2177.1000000089407,200466.20000000298,8020,VNB,A,5
4,test,2,1.0,1-Back,1,z,Tue Apr 08 2025 09:40:51 GMT-0500 (Central Daylight Time),204592.70000000298,124_o_f_h_a.png,I,z,917,7,2,1943.0999999940395,202649.60000000894,8020,VNB,A,6
5,test,2,0.0,1-Back,1,m,Tue Apr 08 2025 09:40:51 GMT-0500 (Central Daylight Time),206841.80000001192,139_m_f_n_a.png,I,m,1225,8,2,2242.6000000089407,204599.20000000298,8020,VNB,A,7
6,test,2,0.0,1-Back,1,m,Tue Apr 08 2025 09:40:51 GMT-0500 (Central Daylight Time),209374.30000001192,071_y_f_d_a.png,I,m,1511,9,2,2526.0,206848.30000001192,8020,VNB,A,8
7,test,2,0.0,1-Back,1,m,Tue Apr 08 2025 09:40:51 GMT-0500 (Central Daylight Time),212123.5,165_m_m_n_a.png,I,m,1731,10,2,2741.699999988079,209381.80000001192,8020,VNB,A,9
7,test,2,1.0,1-Back,0,m,Tue Apr 08 2025 09:40:51 GMT-0500 (Central Daylight Time),215156.5,139_m_f_h_a.png,I,None,2015,11,2,3026.0,212130.5,8020,VNB,A,10
8,test,2,0.0,1-Back,1,z,Tue Apr 08 2025 09:40:51 GMT-0500 (Central Daylight Time),217221.80000001192,039_o_m_h_a.png,I,z,1044,12,2,2058.5,215163.30000001192,8020,VNB,A,11
9,test,2,0.0,1-Back,1,m,Tue Apr 08 2025 09:40:51 GMT-0500 (Central Daylight Time),219088.10000000894,109_y_m_d_a.png,I,m,834,13,2,1860.5,217227.60000000894,8020,VNB,A,12
10,test,2,0.0,1-Back,1,m,Tue Apr 08 2025 09:40:51 GMT-0500 (Central Daylight Time),221720.60000000894,124_o_f_n_a.png,I,m,1609,14,2,2626.2999999970198,219094.30000001192,8020,VNB,A,13
10,test,2,0.0,1-Back,0,z,Tue Apr 08 2025 09:40:51 GMT-0500 (Central Daylight Time),224269.70000000298,071_y_f_n_a.png,I,m,1529,15,2,2541.5,221728.20000000298,8020,VNB,A,14
11,test,2,1.0,1-Back,1,m,Tue Apr 08 2025 09:40:51 GMT-0500 (Central Daylight Time),226902.20000000298,165_m_m_h_a.png,I,m,1602,16,2,2625.7999999970198,224276.40000000596,8020,VNB,A,15
12,test,2,0.0,1-Back,1,m,Tue Apr 08 2025 09:40:51 GMT-0500 (Central Daylight Time),228785.0,124_o_f_d_a.png,I,m,851,17,2,1876.2999999970198,226908.70000000298,8020,VNB,A,16
12,test,2,1.0,1-Back,0,z,Tue Apr 08 2025 09:40:51 GMT-0500 (Central Daylight Time),230950.80000001192,039_o_m_d_a.png,I,m,1143,18,2,2159.5,228791.30000001192,8020,VNB,A,17
0,test,3,1.0,1-Back,,,Tue Apr 08 2025 09:40:51 GMT-0500 (Central Daylight Time),230950.80000001192,124_o_f_h_a.png,I,space,1275,1,2,2159.5,228791.30000001192,8020,VNB,A,0
1,test,3,0.0,1-Back,1,m,Tue Apr 08 2025 09:40:51 GMT-0500 (Central Daylight Time),236116.20000000298,139_m_f_d_a.png,I,m,796,2,2,1809.7999999970198,234306.40000000596,8020,VNB,A,1
1,test,3,1.0,1-Back,0,m,Tue Apr 08 2025 09:40:51 GMT-0500 (Central Daylight Time),239148.5,165_m_m_n_a.png,I,None,2015,3,2,3025.7999999970198,236122.70000000298,8020,VNB,A,2
2,test,3,0.0,1-Back,1,z,Tue Apr 08 2025 09:40:51 GMT-0500 (Central Daylight Time),241331.0,124_o_f_n_a.png,I,z,1165,4,2,2176.0999999940395,239154.90000000596,8020,VNB,A,3
3,test,3,1.0,1-Back,1,m,Tue Apr 08 2025 09:40:51 GMT-0500 (Central Daylight Time),243497.0,039_o_m_d_a.png,I,m,1142,5,2,2159.699999988079,241337.30000001192,8020,VNB,A,4
4,test,3,0.0,1-Back,1,m,Tue Apr 08 2025 09:40:51 GMT-0500 (Central Daylight Time),245663.0,071_y_f_h_a.png,I,m,1143,6,2,2159.2999999970198,243503.70000000298,8020,VNB,A,5
5,test,3,0.0,1-Back,1,z,Tue Apr 08 2025 09:40:51 GMT-0500 (Central Daylight Time),247529.10000000894,109_y_m_h_a.png,I,z,833,7,2,1859.1000000089407,245670.0,8020,VNB,A,6
6,test,3,0.0,1-Back,1,m,Tue Apr 08 2025 09:40:51 GMT-0500 (Central Daylight Time),249578.40000000596,139_m_f_n_a.png,I,m,1023,8,2,2043.0999999940395,247535.30000001192,8020,VNB,A,7
7,test,3,0.0,1-Back,1,m,Tue Apr 08 2025 09:40:51 GMT-0500 (Central Daylight Time),251694.40000000596,071_y_f_d_a.png,I,m,1095,9,2,2109.4000000059605,249585.0,8020,VNB,A,8
8,test,3,1.0,1-Back,1,m,Tue Apr 08 2025 09:40:51 GMT-0500 (Central Daylight Time),253943.70000000298,039_o_m_n_a.png,I,m,1218,10,2,2243.2000000029802,251700.5,8020,VNB,A,9
9,test,3,0.0,1-Back,1,m,Tue Apr 08 2025 09:40:51 GMT-0500 (Central Daylight Time),256209.60000000894,165_m_m_h_a.png,I,m,1241,11,2,2258.7000000029802,253950.90000000596,8020,VNB,A,10
9,test,3,0.0,1-Back,0,z,Tue Apr 08 2025 09:40:51 GMT-0500 (Central Daylight Time),259058.80000001192,139_m_f_h_a.png,I,m,1831,12,2,2843.0,256215.80000001192,8020,VNB,A,11
10,test,3,1.0,1-Back,1,m,Tue Apr 08 2025 09:40:51 GMT-0500 (Central Daylight Time),260958.20000000298,124_o_f_d_a.png,I,m,869,13,2,1893.0999999940395,259065.10000000894,8020,VNB,A,12
10,test,3,0.0,1-Back,0,z,Tue Apr 08 2025 09:40:51 GMT-0500 (Central Daylight Time),263040.8000000119,165_m_m_d_a.png,I,m,1059,14,2,2075.7000000029802,260965.10000000894,8020,VNB,A,13
11,test,3,0.0,1-Back,1,m,Tue Apr 08 2025 09:40:51 GMT-0500 (Central Daylight Time),265040.3000000119,109_y_m_n_a.png,I,m,967,15,2,1993.1000000089407,263047.200000003,8020,VNB,A,14
12,test,3,1.0,1-Back,1,m,Tue Apr 08 2025 09:40:51 GMT-0500 (Central Daylight Time),267256.10000000894,039_o_m_h_a.png,I,m,1184,16,2,2209.5,265046.60000000894,8020,VNB,A,15
13,test,3,0.0,1-Back,1,m,Tue Apr 08 2025 09:40:51 GMT-0500 (Central Daylight Time),269155.60000000894,109_y_m_d_a.png,I,m,880,17,2,1892.9000000059605,267262.700000003,8020,VNB,A,16
14,test,3,1.0,1-Back,1,m,Tue Apr 08 2025 09:40:51 GMT-0500 (Central Daylight Time),271321.90000000596,071_y_f_n_a.png,I,m,1150,18,2,2159.5999999940395,269162.3000000119,8020,VNB,A,17
0,test,4,1.0,1-Back,,,Tue Apr 08 2025 09:40:51 GMT-0500 (Central Daylight Time),271321.90000000596,165_m_m_d_a.png,I,space,1382,1,2,2159.5999999940395,269162.3000000119,8020,VNB,A,0
1,test,4,0.0,1-Back,1,z,Tue Apr 08 2025 09:40:51 GMT-0500 (Central Daylight Time),276853.3000000119,039_o_m_d_a.png,I,z,1088,2,2,2109.9000000059605,274743.40000000596,8020,VNB,A,1
2,test,4,0.0,1-Back,1,m,Tue Apr 08 2025 09:40:51 GMT-0500 (Central Daylight Time),278885.90000000596,109_y_m_h_a.png,I,m,1012,3,2,2025.4000000059605,276860.5,8020,VNB,A,2
3,test,4,0.0,1-Back,1,m,Tue Apr 08 2025 09:40:51 GMT-0500 (Central Daylight Time),281151.90000000596,139_m_f_n_a.png,I,m,1234,4,2,2259.2999999970198,278892.60000000894,8020,VNB,A,3
4,test,4,1.0,1-Back,1,m,Tue Apr 08 2025 09:40:51 GMT-0500 (Central Daylight Time),283334.5,124_o_f_h_a.png,I,m,1152,5,2,2176.3999999910593,281158.10000000894,8020,VNB,A,4
5,test,4,0.0,1-Back,1,m,Tue Apr 08 2025 09:40:51 GMT-0500 (Central Daylight Time),285550.60000000894,165_m_m_n_a.png,I,m,1194,6,2,2209.2999999970198,283341.3000000119,8020,VNB,A,5
5,test,4,0.0,1-Back,0,m,Tue Apr 08 2025 09:40:51 GMT-0500 (Central Daylight Time),288149.700000003,109_y_m_d_a.png,I,z,1578,7,2,2592.8999999910593,285556.8000000119,8020,VNB,A,6
5,test,4,1.0,1-Back,0,z,Tue Apr 08 2025 09:40:51 GMT-0500 (Central Daylight Time),290515.700000003,071_y_f_d_a.png,I,m,1340,8,2,2359.2000000029802,288156.5,8020,VNB,A,7
6,test,4,0.0,1-Back,1,m,Tue Apr 08 2025 09:40:51 GMT-0500 (Central Daylight Time),292681.60000000894,139_m_f_h_a.png,I,m,1134,9,2,2158.9000000059605,290522.700000003,8020,VNB,A,8
6,test,4,0.0,1-Back,0,z,Tue Apr 08 2025 09:40:51 GMT-0500 (Central Daylight Time),295147.5,039_o_m_h_a.png,I,m,1440,10,2,2459.199999988079,292688.3000000119,8020,VNB,A,9
7,test,4,1.0,1-Back,1,m,Tue Apr 08 2025 09:40:51 GMT-0500 (Central Daylight Time),297480.200000003,124_o_f_n_a.png,I,m,1301,11,2,2324.7999999970198,295155.40000000596,8020,VNB,A,10
8,test,4,0.0,1-Back,1,m,Tue Apr 08 2025 09:40:51 GMT-0500 (Central Daylight Time),299462.90000000596,139_m_f_d_a.png,I,m,961,12,2,1975.9000000059605,297487.0,8020,VNB,A,11
9,test,4,0.0,1-Back,1,m,Tue Apr 08 2025 09:40:51 GMT-0500 (Central Daylight Time),301595.5,071_y_f_n_a.png,I,m,1105,13,2,2126.0,299469.5,8020,VNB,A,12
10,test,4,0.0,1-Back,1,m,Tue Apr 08 2025 09:40:51 GMT-0500 (Central Daylight Time),303644.90000000596,124_o_f_d_a.png,I,m,1030,14,2,2042.7999999970198,301602.10000000894,8020,VNB,A,13
11,test,4,0.0,1-Back,1,m,Tue Apr 08 2025 09:40:51 GMT-0500 (Central Daylight Time),305410.90000000596,071_y_f_h_a.png,I,m,747,15,2,1759.7999999970198,303651.10000000894,8020,VNB,A,14
12,test,4,1.0,1-Back,1,z,Tue Apr 08 2025 09:40:51 GMT-0500 (Central Daylight Time),307293.700000003,165_m_m_h_a.png,I,z,853,16,2,1876.2999999970198,305417.40000000596,8020,VNB,A,15
13,test,4,0.0,1-Back,1,m,Tue Apr 08 2025 09:40:51 GMT-0500 (Central Daylight Time),309009.8000000119,039_o_m_n_a.png,I,m,669,17,2,1709.7000000029802,307300.10000000894,8020,VNB,A,16
13,test,4,1.0,1-Back,0,z,Tue Apr 08 2025 09:40:51 GMT-0500 (Central Daylight Time),310975.90000000596,109_y_m_n_a.png,I,m,943,18,2,1959.5,309016.40000000596,8020,VNB,A,17
0,test,5,1.0,1-Back,,,Tue Apr 08 2025 09:40:51 GMT-0500 (Central Daylight Time),310975.90000000596,039_o_m_n_a.png,I,space,1153,1,2,1959.5,309016.40000000596,8020,VNB,A,0
1,test,5,1.0,1-Back,1,m,Tue Apr 08 2025 09:40:51 GMT-0500 (Central Daylight Time),316507.5,124_o_f_h_a.png,I,m,1322,2,2,2343.2999999970198,314164.200000003,8020,VNB,A,1
2,test,5,0.0,1-Back,1,m,Tue Apr 08 2025 09:40:51 GMT-0500 (Central Daylight Time),318940.10000000894,109_y_m_d_a.png,I,m,1413,3,2,2425.7999999970198,316514.3000000119,8020,VNB,A,2
3,test,5,0.0,1-Back,1,z,Tue Apr 08 2025 09:40:51 GMT-0500 (Central Daylight Time),320806.200000003,039_o_m_d_a.png,I,z,836,4,2,1860.0999999940395,318946.10000000894,8020,VNB,A,3
4,test,5,0.0,1-Back,1,m,Tue Apr 08 2025 09:40:51 GMT-0500 (Central Daylight Time),322838.8000000119,139_m_f_h_a.png,I,m,1011,5,2,2025.4000000059605,320813.40000000596,8020,VNB,A,4
5,test,5,0.0,1-Back,1,m,Tue Apr 08 2025 09:40:51 GMT-0500 (Central Daylight Time),324805.0,071_y_f_n_a.png,I,m,937,6,2,1959.5,322845.5,8020,VNB,A,5
6,test,5,1.0,1-Back,1,z,Tue Apr 08 2025 09:40:51 GMT-0500 (Central Daylight Time),326987.5,124_o_f_n_a.png,I,z,1163,7,2,2176.0,324811.5,8020,VNB,A,6
7,test,5,0.0,1-Back,1,m,Tue Apr 08 2025 09:40:51 GMT-0500 (Central Daylight Time),329470.0,139_m_f_d_a.png,I,m,1462,8,2,2476.0,326994.0,8020,VNB,A,7
8,test,5,0.0,1-Back,1,m,Tue Apr 08 2025 09:40:51 GMT-0500 (Central Daylight Time),331519.40000000596,109_y_m_h_a.png,I,m,1027,9,2,2043.0,329476.40000000596,8020,VNB,A,8
9,test,5,0.0,1-Back,1,m,Tue Apr 08 2025 09:40:51 GMT-0500 (Central Daylight Time),333835.5,071_y_f_d_a.png,I,m,1290,10,2,2309.5999999940395,331525.90000000596,8020,VNB,A,9
10,test,5,0.0,1-Back,1,m,Tue Apr 08 2025 09:40:51 GMT-0500 (Central Daylight Time),335951.40000000596,165_m_m_n_a.png,I,m,1094,11,2,2109.5,333841.90000000596,8020,VNB,A,10
11,test,5,1.0,1-Back,1,z,Tue Apr 08 2025 09:40:51 GMT-0500 (Central Daylight Time),337850.700000003,139_m_f_n_a.png,I,z,873,12,2,1893.0999999940395,335957.60000000894,8020,VNB,A,11
12,test,5,0.0,1-Back,1,m,Tue Apr 08 2025 09:40:51 GMT-0500 (Central Daylight Time),339883.5,039_o_m_h_a.png,I,m,1007,13,2,2026.699999988079,337856.8000000119,8020,VNB,A,12
13,test,5,0.0,1-Back,1,z,Tue Apr 08 2025 09:40:51 GMT-0500 (Central Daylight Time),341999.5,165_m_m_h_a.png,I,z,1093,14,2,2109.5999999940395,339889.90000000596,8020,VNB,A,13
14,test,5,1.0,1-Back,1,m,Tue Apr 08 2025 09:40:51 GMT-0500 (Central Daylight Time),344515.3000000119,124_o_f_d_a.png,I,m,1490,15,2,2509.4000000059605,342005.90000000596,8020,VNB,A,14
15,test,5,0.0,1-Back,1,m,Tue Apr 08 2025 09:40:51 GMT-0500 (Central Daylight Time),346548.0,109_y_m_n_a.png,I,m,1005,16,2,2026.2999999970198,344521.700000003,8020,VNB,A,15
16,test,5,0.0,1-Back,1,m,Tue Apr 08 2025 09:40:51 GMT-0500 (Central Daylight Time),348597.5,071_y_f_h_a.png,I,m,1021,17,2,2043.199999988079,346554.3000000119,8020,VNB,A,16
17,test,5,0.0,1-Back,1,m,Tue Apr 08 2025 09:40:51 GMT-0500 (Central Daylight Time),350463.5,165_m_m_d_a.png,I,m,844,18,2,1859.2999999970198,348604.200000003,8020,VNB,A,17
0,prac,1,0.0,2-Back,,,Tue Apr 08 2025 09:40:51 GMT-0500 (Central Daylight Time),350463.5,139_m_f_n_a.png,I,space,3556,1,2,1859.2999999970198,348604.200000003,8020,VNB,A,0
0,prac,1,0.0,2-Back,,,Tue Apr 08 2025 09:40:51 GMT-0500 (Central Daylight Time),350463.5,124_o_f_h_a.png,I,space,3556,2,2,1859.2999999970198,348604.200000003,8020,VNB,A,0
0,prac,1,0.0,2-Back,0,m,Tue Apr 08 2025 09:40:51 GMT-0500 (Central Daylight Time),492885.60000000894,039_o_m_d_a.png,I,None,2001,3,2,2791.2000000029802,490094.40000000596,8020,VNB,A,1
0,prac,1,1.0,2-Back,0,z,Tue Apr 08 2025 09:40:51 GMT-0500 (Central Daylight Time),495618.0,165_m_m_h_a.png,I,m,1929,4,2,2724.5,492893.5,8020,VNB,A,2
1,prac,1,0.0,2-Back,1,m,Tue Apr 08 2025 09:40:51 GMT-0500 (Central Daylight Time),498350.8000000119,071_y_f_n_a.png,I,m,1916,5,2,2724.9000000059605,495625.90000000596,8020,VNB,A,3
2,prac,1,1.0,2-Back,1,z,Tue Apr 08 2025 09:40:51 GMT-0500 (Central Daylight Time),501033.10000000894,039_o_m_h_a.png,I,z,1879,6,2,2674.1000000089407,498359.0,8020,VNB,A,4
2,prac,1,1.0,2-Back,0,z,Tue Apr 08 2025 09:40:51 GMT-0500 (Central Daylight Time),503448.90000000596,109_y_m_n_a.png,I,m,1599,7,2,2407.7999999970198,501041.10000000894,8020,VNB,A,5
3,prac,1,0.0,2-Back,1,m,Tue Apr 08 2025 09:40:51 GMT-0500 (Central Daylight Time),506248.200000003,139_m_f_d_a.png,I,m,1991,8,2,2791.0,503457.200000003,8020,VNB,A,6
3,prac,1,0.0,2-Back,0,m,Tue Apr 08 2025 09:40:51 GMT-0500 (Central Daylight Time),509097.200000003,124_o_f_d_a.png,I,None,2014,9,2,2840.7999999970198,506256.40000000596,8020,VNB,A,7
3,prac,1,0.0,2-Back,0,m,Tue Apr 08 2025 09:40:51 GMT-0500 (Central Daylight Time),511879.5,165_m_m_h_a.png,I,None,2007,10,2,2774.199999988079,509105.3000000119,8020,VNB,A,8
3,prac,1,1.0,2-Back,0,z,Tue Apr 08 2025 09:40:51 GMT-0500 (Central Daylight Time),514695.40000000596,071_y_f_d_a.png,I,None,2015,11,2,2808.0,511887.40000000596,8020,VNB,A,9
3,prac,1,0.0,2-Back,0,m,Tue Apr 08 2025 09:40:51 GMT-0500 (Central Daylight Time),517511.200000003,039_o_m_n_a.png,I,None,2017,12,2,2808.0999999940395,514703.10000000894,8020,VNB,A,10
0,test,1,0.0,2-Back,,,Tue Apr 08 2025 09:40:51 GMT-0500 (Central Daylight Time),517511.200000003,109_y_m_h_a.png,I,space,5261,1,2,2808.0999999940395,514703.10000000894,8020,VNB,A,0
0,test,1,0.0,2-Back,,,Tue Apr 08 2025 09:40:51 GMT-0500 (Central Daylight Time),517511.200000003,124_o_f_n_a.png,I,space,5261,2,2,2808.0999999940395,514703.10000000894,8020,VNB,A,0
1,test,1,0.0,2-Back,1,z,Tue Apr 08 2025 09:40:51 GMT-0500 (Central Daylight Time),562830.700000003,039_o_m_h_a.png,I,z,1328,3,2,2343.0,560487.700000003,8020,VNB,A,1
2,test,1,0.0,2-Back,1,m,Tue Apr 08 2025 09:40:51 GMT-0500 (Central Daylight Time),565629.900000006,139_m_f_d_a.png,I,m,1778,4,2,2793.0,562836.900000006,8020,VNB,A,2
2,test,1,1.0,2-Back,0,m,Tue Apr 08 2025 09:40:51 GMT-0500 (Central Daylight Time),568662.1000000089,109_y_m_n_a.png,I,None,2015,5,2,3025.7999999970198,565636.3000000119,8020,VNB,A,3
2,test,1,0.0,2-Back,0,z,Tue Apr 08 2025 09:40:51 GMT-0500 (Central Daylight Time),571612.1000000089,071_y_f_d_a.png,I,m,1931,6,2,2943.5,568668.6000000089,8020,VNB,A,4
2,test,1,0.0,2-Back,0,m,Tue Apr 08 2025 09:40:51 GMT-0500 (Central Daylight Time),574177.400000006,165_m_m_h_a.png,I,z,1534,7,2,2558.9000000059605,571618.5,8020,VNB,A,5
2,test,1,1.0,2-Back,0,m,Tue Apr 08 2025 09:40:51 GMT-0500 (Central Daylight Time),577026.1000000089,071_y_f_n_a.png,I,z,1816,8,2,2842.1000000089407,574184.0,8020,VNB,A,6
2,test,1,0.0,2-Back,0,z,Tue Apr 08 2025 09:40:51 GMT-0500 (Central Daylight Time),580058.700000003,124_o_f_h_a.png,I,None,2016,9,2,3026.3999999910593,577032.3000000119,8020,VNB,A,7
3,test,1,0.0,2-Back,1,m,Tue Apr 08 2025 09:40:51 GMT-0500 (Central Daylight Time),581708.0,039_o_m_d_a.png,I,m,623,10,2,1643.0999999940395,580064.900000006,8020,VNB,A,8
3,test,1,1.0,2-Back,0,m,Tue Apr 08 2025 09:40:51 GMT-0500 (Central Daylight Time),583890.6000000089,165_m_m_d_a.png,I,z,1165,11,2,2176.1000000089407,581714.5,8020,VNB,A,9
4,test,1,0.0,2-Back,1,m,Tue Apr 08 2025 09:40:51 GMT-0500 (Central Daylight Time),586040.400000006,139_m_f_n_a.png,I,m,1118,12,2,2143.5999999940395,583896.8000000119,8020,VNB,A,10
5,test,1,0.0,2-Back,1,m,Tue Apr 08 2025 09:40:51 GMT-0500 (Central Daylight Time),588872.400000006,071_y_f_h_a.png,I,m,1809,13,2,2824.7000000029802,586047.700000003,8020,VNB,A,11
6,test,1,0.0,2-Back,1,z,Tue Apr 08 2025 09:40:51 GMT-0500 (Central Daylight Time),591099.0,165_m_m_n_a.png,I,z,1210,14,2,2220.0999999940395,588878.900000006,8020,VNB,A,12
7,test,1,0.0,2-Back,1,m,Tue Apr 08 2025 09:40:51 GMT-0500 (Central Daylight Time),593354.5,109_y_m_d_a.png,I,m,1216,15,2,2248.2999999970198,591106.200000003,8020,VNB,A,13
8,test,1,1.0,2-Back,1,m,Tue Apr 08 2025 09:40:51 GMT-0500 (Central Daylight Time),595520.5,139_m_f_h_a.png,I,m,1135,16,2,2159.5,593361.0,8020,VNB,A,14
8,test,1,0.0,2-Back,0,z,Tue Apr 08 2025 09:40:51 GMT-0500 (Central Daylight Time),598519.400000006,124_o_f_d_a.png,I,m,1969,17,2,2992.7000000029802,595526.700000003,8020,VNB,A,15
9,test,1,0.0,2-Back,1,m,Tue Apr 08 2025 09:40:51 GMT-0500 (Central Daylight Time),600668.900000006,039_o_m_n_a.png,I,m,1130,18,2,2142.7000000029802,598526.200000003,8020,VNB,A,16
0,test,2,0.0,2-Back,,,Tue Apr 08 2025 09:40:51 GMT-0500 (Central Daylight Time),600668.900000006,165_m_m_h_a.png,I,space,1220,1,2,2142.7000000029802,598526.200000003,8020,VNB,A,0
0,test,2,0.0,2-Back,,,Tue Apr 08 2025 09:40:51 GMT-0500 (Central Daylight Time),600668.900000006,071_y_f_n_a.png,I,space,1220,2,2,2142.7000000029802,598526.200000003,8020,VNB,A,0
1,test,2,1.0,2-Back,1,z,Tue Apr 08 2025 09:40:51 GMT-0500 (Central Daylight Time),609232.8000000119,124_o_f_h_a.png,I,z,1226,3,2,2243.300000011921,606989.5,8020,VNB,A,1
1,test,2,0.0,2-Back,0,m,Tue Apr 08 2025 09:40:51 GMT-0500 (Central Daylight Time),612265.3000000119,039_o_m_d_a.png,I,None,2016,4,2,3025.1000000089407,609240.200000003,8020,VNB,A,2
2,test,2,0.0,2-Back,1,m,Tue Apr 08 2025 09:40:51 GMT-0500 (Central Daylight Time),614248.0,139_m_f_d_a.png,I,m,960,5,2,1976.3999999910593,612271.6000000089,8020,VNB,A,3
2,test,2,0.0,2-Back,0,m,Tue Apr 08 2025 09:40:51 GMT-0500 (Central Daylight Time),617280.3000000119,109_y_m_h_a.png,I,None,2015,6,2,3025.9000000059605,614254.400000006,8020,VNB,A,4
3,test,2,0.0,2-Back,1,m,Tue Apr 08 2025 09:40:51 GMT-0500 (Central Daylight Time),619746.400000006,124_o_f_n_a.png,I,m,1441,7,2,2460.0999999940395,617286.3000000119,8020,VNB,A,5
4,test,2,1.0,2-Back,1,z,Tue Apr 08 2025 09:40:51 GMT-0500 (Central Daylight Time),622328.8000000119,039_o_m_h_a.png,I,z,1559,8,2,2576.2000000029802,619752.6000000089,8020,VNB,A,6
4,test,2,0.0,2-Back,0,m,Tue Apr 08 2025 09:40:51 GMT-0500 (Central Daylight Time),625361.1000000089,071_y_f_d_a.png,I,None,2015,9,2,3025.9000000059605,622335.200000003,8020,VNB,A,7
4,test,2,0.0,2-Back,0,m,Tue Apr 08 2025 09:40:51 GMT-0500 (Central Daylight Time),627594.8000000119,109_y_m_d_a.png,I,z,1200,10,2,2227.4000000059605,625367.400000006,8020,VNB,A,8
5,test,2,0.0,2-Back,1,m,Tue Apr 08 2025 09:40:51 GMT-0500 (Central Daylight Time),629743.1000000089,165_m_m_n_a.png,I,m,1120,11,2,2141.9000000059605,627601.200000003,8020,VNB,A,9
6,test,2,0.0,2-Back,1,m,Tue Apr 08 2025 09:40:51 GMT-0500 (Central Daylight Time),632542.3000000119,139_m_f_h_a.png,I,m,1778,12,2,2792.9000000059605,629749.400000006,8020,VNB,A,10
6,test,2,1.0,2-Back,0,z,Tue Apr 08 2025 09:40:51 GMT-0500 (Central Daylight Time),634791.400000006,039_o_m_n_a.png,I,m,1219,13,2,2243.0,632548.400000006,8020,VNB,A,11
6,test,2,0.0,2-Back,0,m,Tue Apr 08 2025 09:40:51 GMT-0500 (Central Daylight Time),637823.900000006,124_o_f_d_a.png,I,None,2016,14,2,3026.5,634797.400000006,8020,VNB,A,12
6,test,2,0.0,2-Back,0,m,Tue Apr 08 2025 09:40:51 GMT-0500 (Central Daylight Time),640189.700000003,071_y_f_h_a.png,I,z,1337,15,2,2359.7000000029802,637830.0,8020,VNB,A,13
6,test,2,0.0,2-Back,0,z,Tue Apr 08 2025 09:40:51 GMT-0500 (Central Daylight Time),642172.5,165_m_m_d_a.png,I,m,963,16,2,1976.7999999970198,640195.700000003,8020,VNB,A,14
7,test,2,0.0,2-Back,1,m,Tue Apr 08 2025 09:40:51 GMT-0500 (Central Daylight Time),644421.900000006,109_y_m_n_a.png,I,m,1221,17,2,2243.4000000059605,642178.5,8020,VNB,A,15
7,test,2,1.0,2-Back,0,m,Tue Apr 08 2025 09:40:51 GMT-0500 (Central Daylight Time),646471.1000000089,139_m_f_n_a.png,I,z,1027,18,2,2043.1000000089407,644428.0,8020,VNB,A,16
0,test,3,1.0,2-Back,,,Tue Apr 08 2025 09:40:51 GMT-0500 (Central Daylight Time),646471.1000000089,039_o_m_n_a.png,I,space,1090,1,2,2043.1000000089407,644428.0,8020,VNB,A,0
0,test,3,1.0,2-Back,,,Tue Apr 08 2025 09:40:51 GMT-0500 (Central Daylight Time),646471.1000000089,124_o_f_d_a.png,I,space,1090,2,2,2043.1000000089407,644428.0,8020,VNB,A,0
1,test,3,0.0,2-Back,1,m,Tue Apr 08 2025 09:40:51 GMT-0500 (Central Daylight Time),655618.1000000089,071_y_f_h_a.png,I,m,1974,3,2,2992.6000000089407,652625.5,8020,VNB,A,1
1,test,3,0.0,2-Back,0,z,Tue Apr 08 2025 09:40:51 GMT-0500 (Central Daylight Time),658650.6000000089,139_m_f_d_a.png,I,None,2016,4,2,3026.0,655624.6000000089,8020,VNB,A,2
2,test,3,1.0,2-Back,1,m,Tue Apr 08 2025 09:40:51 GMT-0500 (Central Daylight Time),660916.6000000089,109_y_m_n_a.png,I,m,1247,5,2,2259.2000000029802,658657.400000006,8020,VNB,A,3
3,test,3,0.0,2-Back,1,m,Tue Apr 08 2025 09:40:51 GMT-0500 (Central Daylight Time),663432.400000006,039_o_m_h_a.png,I,m,1493,6,2,2509.4000000059605,660923.0,8020,VNB,A,4
4,test,3,0.0,2-Back,1,z,Tue Apr 08 2025 09:40:51 GMT-0500 (Central Daylight Time),665865.200000003,071_y_f_n_a.png,I,z,1409,7,2,2426.5999999940395,663438.6000000089,8020,VNB,A,5
5,test,3,1.0,2-Back,1,m,Tue Apr 08 2025 09:40:51 GMT-0500 (Central Daylight Time),668131.0,165_m_m_d_a.png,I,m,1240,8,2,2258.699999988079,665872.3000000119,8020,VNB,A,6
5,test,3,0.0,2-Back,0,m,Tue Apr 08 2025 09:40:51 GMT-0500 (Central Daylight Time),670197.200000003,109_y_m_d_a.png,I,z,1045,9,2,2059.8999999910593,668137.3000000119,8020,VNB,A,7
6,test,3,0.0,2-Back,1,m,Tue Apr 08 2025 09:40:51 GMT-0500 (Central Daylight Time),673046.1000000089,124_o_f_h_a.png,I,m,1828,10,2,2842.7999999970198,670203.3000000119,8020,VNB,A,8
7,test,3,1.0,2-Back,1,m,Tue Apr 08 2025 09:40:51 GMT-0500 (Central Daylight Time),675062.3000000119,139_m_f_n_a.png,I,m,995,11,2,2009.9000000059605,673052.400000006,8020,VNB,A,9
8,test,3,1.0,2-Back,1,z,Tue Apr 08 2025 09:40:51 GMT-0500 (Central Daylight Time),677044.900000006,165_m_m_h_a.png,I,z,963,12,2,1976.2000000029802,675068.700000003,8020,VNB,A,10
9,test,3,0.0,2-Back,1,m,Tue Apr 08 2025 09:40:51 GMT-0500 (Central Daylight Time),679094.200000003,071_y_f_d_a.png,I,m,1028,13,2,2043.2000000029802,677051.0,8020,VNB,A,11
10,test,3,0.0,2-Back,1,m,Tue Apr 08 2025 09:40:51 GMT-0500 (Central Daylight Time),681426.900000006,124_o_f_n_a.png,I,m,1307,14,2,2326.2999999970198,679100.6000000089,8020,VNB,A,12
11,test,3,0.0,2-Back,1,z,Tue Apr 08 2025 09:40:51 GMT-0500 (Central Daylight Time),683426.3000000119,039_o_m_d_a.png,I,z,966,15,2,1993.4000000059605,681432.900000006,8020,VNB,A,13
12,test,3,1.0,2-Back,1,m,Tue Apr 08 2025 09:40:51 GMT-0500 (Central Daylight Time),685442.200000003,139_m_f_h_a.png,I,m,991,16,2,2009.5999999940395,683432.6000000089,8020,VNB,A,14
13,test,3,0.0,2-Back,1,m,Tue Apr 08 2025 09:40:51 GMT-0500 (Central Daylight Time),687458.400000006,165_m_m_n_a.png,I,m,991,17,2,2009.7000000029802,685448.700000003,8020,VNB,A,15
14,test,3,0.0,2-Back,1,z,Tue Apr 08 2025 09:40:51 GMT-0500 (Central Daylight Time),689407.700000003,109_y_m_h_a.png,I,z,919,18,2,1942.8999999910593,687464.8000000119,8020,VNB,A,16
0,test,4,0.0,2-Back,,,Tue Apr 08 2025 09:40:51 GMT-0500 (Central Daylight Time),689407.700000003,139_m_f_n_a.png,I,space,1282,1,2,1942.8999999910593,687464.8000000119,8020,VNB,A,0
0,test,4,0.0,2-Back,,,Tue Apr 08 2025 09:40:51 GMT-0500 (Central Daylight Time),689407.700000003,039_o_m_n_a.png,I,space,1282,2,2,1942.8999999910593,687464.8000000119,8020,VNB,A,0
1,test,4,1.0,2-Back,1,m,Tue Apr 08 2025 09:40:51 GMT-0500 (Central Daylight Time),698405.0,109_y_m_h_a.png,I,m,1629,3,2,2643.2999999970198,695761.700000003,8020,VNB,A,1
2,test,4,1.0,2-Back,1,m,Tue Apr 08 2025 09:40:51 GMT-0500 (Central Daylight Time),700820.900000006,124_o_f_d_a.png,I,m,1389,4,2,2409.2999999970198,698411.6000000089,8020,VNB,A,2
3,test,4,0.0,2-Back,1,z,Tue Apr 08 2025 09:40:51 GMT-0500 (Central Daylight Time),703086.700000003,039_o_m_h_a.png,I,z,1244,5,2,2259.3999999910593,700827.3000000119,8020,VNB,A,3
4,test,4,0.0,2-Back,1,m,Tue Apr 08 2025 09:40:51 GMT-0500 (Central Daylight Time),705569.5,165_m_m_n_a.png,I,m,1450,6,2,2476.5999999940395,703092.900000006,8020,VNB,A,4
4,test,4,0.0,2-Back,0,m,Tue Apr 08 2025 09:40:51 GMT-0500 (Central Daylight Time),708699.700000003,139_m_f_d_a.png,I,None,2114,7,2,3123.5999999940395,705576.1000000089,8020,VNB,A,5
4,test,4,0.0,2-Back,0,z,Tue Apr 08 2025 09:40:51 GMT-0500 (Central Daylight Time),711484.0,071_y_f_n_a.png,I,m,1755,8,2,2778.0999999940395,708705.900000006,8020,VNB,A,6
5,test,4,1.0,2-Back,1,m,Tue Apr 08 2025 09:40:51 GMT-0500 (Central Daylight Time),713633.6000000089,124_o_f_h_a.png,I,m,1117,9,2,2143.0,711490.6000000089,8020,VNB,A,7
5,test,4,0.0,2-Back,0,m,Tue Apr 08 2025 09:40:51 GMT-0500 (Central Daylight Time),715616.1000000089,165_m_m_h_a.png,I,z,960,10,2,1975.9000000059605,713640.200000003,8020,VNB,A,8
6,test,4,0.0,2-Back,1,m,Tue Apr 08 2025 09:40:51 GMT-0500 (Central Daylight Time),717549.0,071_y_f_d_a.png,I,m,913,11,2,1926.8999999910593,715622.1000000089,8020,VNB,A,9
7,test,4,0.0,2-Back,1,m,Tue Apr 08 2025 09:40:51 GMT-0500 (Central Daylight Time),719665.0,109_y_m_n_a.png,I,m,1085,12,2,2109.5999999940395,717555.400000006,8020,VNB,A,10
7,test,4,0.0,2-Back,0,z,Tue Apr 08 2025 09:40:51 GMT-0500 (Central Daylight Time),722147.3000000119,039_o_m_d_a.png,I,m,1464,13,2,2476.1000000089407,719671.200000003,8020,VNB,A,11
8,test,4,1.0,2-Back,1,m,Tue Apr 08 2025 09:40:51 GMT-0500 (Central Daylight Time),724580.1000000089,139_m_f_h_a.png,I,m,1414,14,2,2426.9000000059605,722153.200000003,8020,VNB,A,12
8,test,4,1.0,2-Back,0,m,Tue Apr 08 2025 09:40:51 GMT-0500 (Central Daylight Time),726412.700000003,071_y_f_h_a.png,I,z,805,15,2,1826.2000000029802,724586.5,8020,VNB,A,13
9,test,4,0.0,2-Back,1,m,Tue Apr 08 2025 09:40:51 GMT-0500 (Central Daylight Time),728445.700000003,124_o_f_n_a.png,I,m,1011,16,2,2026.7999999970198,726418.900000006,8020,VNB,A,14
10,test,4,0.0,2-Back,1,m,Tue Apr 08 2025 09:40:51 GMT-0500 (Central Daylight Time),730811.400000006,109_y_m_d_a.png,I,m,1340,17,2,2359.0999999940395,728452.3000000119,8020,VNB,A,15
10,test,4,1.0,2-Back,0,m,Tue Apr 08 2025 09:40:51 GMT-0500 (Central Daylight Time),732877.5,165_m_m_d_a.png,I,z,1046,18,2,2059.5,730818.0,8020,VNB,A,16
0,test,5,1.0,2-Back,,,Tue Apr 08 2025 09:40:51 GMT-0500 (Central Daylight Time),732877.5,071_y_f_d_a.png,I,space,1596,1,2,2059.5,730818.0,8020,VNB,A,0
0,test,5,1.0,2-Back,,,Tue Apr 08 2025 09:40:51 GMT-0500 (Central Daylight Time),732877.5,124_o_f_h_a.png,I,space,1596,2,2,2059.5,730818.0,8020,VNB,A,0
1,test,5,1.0,2-Back,1,z,Tue Apr 08 2025 09:40:51 GMT-0500 (Central Daylight Time),742191.1000000089,039_o_m_d_a.png,I,z,1602,3,2,2626.1000000089407,739565.0,8020,VNB,A,1
1,test,5,1.0,2-Back,0,m,Tue Apr 08 2025 09:40:51 GMT-0500 (Central Daylight Time),745223.900000006,139_m_f_n_a.png,I,None,2016,4,2,3026.4000000059605,742197.5,8020,VNB,A,2
1,test,5,0.0,2-Back,0,m,Tue Apr 08 2025 09:40:51 GMT-0500 (Central Daylight Time),747872.8000000119,165_m_m_h_a.png,I,z,1626,5,2,2642.9000000059605,745229.900000006,8020,VNB,A,3
1,test,5,0.0,2-Back,0,z,Tue Apr 08 2025 09:40:51 GMT-0500 (Central Daylight Time),750588.400000006,071_y_f_n_a.png,I,m,1688,6,2,2709.2999999970198,747879.1000000089,8020,VNB,A,4
2,test,5,0.0,2-Back,1,m,Tue Apr 08 2025 09:40:51 GMT-0500 (Central Daylight Time),752554.6000000089,124_o_f_d_a.png,I,m,941,7,2,1959.7999999970198,750594.8000000119,8020,VNB,A,5
3,test,5,0.0,2-Back,1,m,Tue Apr 08 2025 09:40:51 GMT-0500 (Central Daylight Time),754670.700000003,039_o_m_h_a.png,I,m,1094,8,2,2109.5,752561.200000003,8020,VNB,A,6
3,test,5,1.0,2-Back,0,z,Tue Apr 08 2025 09:40:51 GMT-0500 (Central Daylight Time),757136.400000006,139_m_f_d_a.png,I,m,1305,9,2,2459.2000000029802,754677.200000003,8020,VNB,A,7
4,test,5,0.0,2-Back,1,m,Tue Apr 08 2025 09:40:51 GMT-0500 (Central Daylight Time),759235.900000006,109_y_m_n_a.png,I,m,1081,10,2,2093.4000000059605,757142.5,8020,VNB,A,8
4,test,5,0.0,2-Back,0,m,Tue Apr 08 2025 09:40:51 GMT-0500 (Central Daylight Time),760985.3000000119,165_m_m_n_a.png,I,z,717,11,2,1743.2000000029802,759242.1000000089,8020,VNB,A,9
5,test,5,0.0,2-Back,1,m,Tue Apr 08 2025 09:40:51 GMT-0500 (Central Daylight Time),762818.200000003,071_y_f_h_a.png,I,m,799,12,2,1826.0999999940395,760992.1000000089,8020,VNB,A,10
6,test,5,0.0,2-Back,1,m,Tue Apr 08 2025 09:40:51 GMT-0500 (Central Daylight Time),765650.5,109_y_m_d_a.png,I,m,1807,13,2,2826.199999988079,762824.3000000119,8020,VNB,A,11
6,test,5,1.0,2-Back,0,z,Tue Apr 08 2025 09:40:51 GMT-0500 (Central Daylight Time),767716.6000000089,139_m_f_h_a.png,I,m,1046,14,2,2060.1000000089407,765656.5,8020,VNB,A,12
7,test,5,0.0,2-Back,1,m,Tue Apr 08 2025 09:40:51 GMT-0500 (Central Daylight Time),769882.6000000089,039_o_m_n_a.png,I,m,1133,15,2,2160.0,767722.6000000089,8020,VNB,A,13
8,test,5,0.0,2-Back,1,m,Tue Apr 08 2025 09:40:51 GMT-0500 (Central Daylight Time),771831.8000000119,165_m_m_d_a.png,I,m,927,16,2,1942.800000011921,769889.0,8020,VNB,A,14
8,test,5,0.0,2-Back,0,z,Tue Apr 08 2025 09:40:51 GMT-0500 (Central Daylight Time),774064.6000000089,124_o_f_n_a.png,I,m,1209,17,2,2226.7999999970198,771837.8000000119,8020,VNB,A,15
8,test,5,1.0,2-Back,0,m,Tue Apr 08 2025 09:40:51 GMT-0500 (Central Daylight Time),776780.200000003,109_y_m_h_a.png,I,z,1697,18,2,2709.2999999970198,774070.900000006,8020,VNB,A,16
