acc_sum,block,block_c,change,condition,correct,correct_response,datetime,endtime,face,project,response,response_time,row_sel,session_number,start_end,starttime,subject_id,task,task_vers,trial
0,prac,1,,1-Back,,,Thu Mar 13 2025 10:43:20 GMT-0500 (Central Daylight Time),,093_m_f_n_a.png,O,space,10880,1,1,,,7077,NNB,C,0
1,prac,1,0.0,1-Back,1,m,Thu Mar 13 2025 10:43:20 GMT-0500 (Central Daylight Time),126496.80000000075,098_y_f_n_a.png,O,m,710,2,1,1573.5999999996275,124923.20000000112,7077,NNB,C,1
2,prac,1,1.0,1-Back,1,z,Thu Mar 13 2025 10:43:20 GMT-0500 (Central Daylight Time),128213.20000000112,098_y_f_n_a.png,O,z,929,3,1,1709.2000000011176,126504.0,7077,NNB,C,2
3,prac,1,0.0,1-Back,1,m,Thu Mar 13 2025 10:43:20 GMT-0500 (Central Daylight Time),130029.5,059_o_m_n_a.png,O,m,931,4,1,1809.0999999996275,128220.40000000037,7077,NNB,C,3
4,prac,1,0.0,1-Back,1,m,Thu Mar 13 2025 10:43:20 GMT-0500 (Central Daylight Time),131912.0,092_m_m_n_a.png,O,m,997,5,1,1875.0,130037.0,7077,NNB,C,4
5,prac,1,1.0,1-Back,1,z,Thu Mar 13 2025 10:43:20 GMT-0500 (Central Daylight Time),133461.6000000015,092_m_m_n_a.png,O,z,772,6,1,1544.2000000011176,131917.40000000037,7077,NNB,C,5
6,prac,1,0.0,1-Back,1,m,Thu Mar 13 2025 10:43:20 GMT-0500 (Central Daylight Time),135211.0,130_o_f_n_a.png,O,m,849,7,1,1741.7999999988824,133469.20000000112,7077,NNB,C,6
7,prac,1,0.0,1-Back,1,m,Thu Mar 13 2025 10:43:20 GMT-0500 (Central Daylight Time),136943.90000000037,082_m_m_n_a.png,O,m,848,8,1,1726.9000000003725,135217.0,7077,NNB,C,7
8,prac,1,0.0,1-Back,1,m,Thu Mar 13 2025 10:43:20 GMT-0500 (Central Daylight Time),138528.0,093_m_f_n_a.png,O,m,804,9,1,1578.199999999255,136949.80000000075,7077,NNB,C,8
9,prac,1,1.0,1-Back,1,z,Thu Mar 13 2025 10:43:20 GMT-0500 (Central Daylight Time),140042.80000000075,093_m_f_n_a.png,O,z,730,10,1,1507.0,138535.80000000075,7077,NNB,C,9
10,prac,1,0.0,1-Back,1,m,Thu Mar 13 2025 10:43:20 GMT-0500 (Central Daylight Time),141592.30000000075,059_o_m_n_a.png,O,m,760,11,1,1543.0999999996275,140049.20000000112,7077,NNB,C,10
11,prac,1,0.0,1-Back,1,m,Thu Mar 13 2025 10:43:20 GMT-0500 (Central Daylight Time),143325.20000000112,028_y_f_n_a.png,O,m,851,12,1,1726.5,141598.70000000112,7077,NNB,C,11
0,test,1,0.0,1-Back,,,Thu Mar 13 2025 10:43:20 GMT-0500 (Central Daylight Time),143325.20000000112,098_y_f_n_a.png,O,space,8824,1,1,1726.5,141598.70000000112,7077,NNB,C,0
1,test,1,0.0,1-Back,1,m,Thu Mar 13 2025 10:43:20 GMT-0500 (Central Daylight Time),163618.70000000112,006_m_f_n_a.png,O,m,774,2,1,1794.5999999996275,161824.1000000015,7077,NNB,C,1
2,test,1,0.0,1-Back,1,m,Thu Mar 13 2025 10:43:20 GMT-0500 (Central Daylight Time),165501.5,028_y_f_n_a.png,O,m,862,3,1,1878.199999999255,163623.30000000075,7077,NNB,C,2
3,test,1,1.0,1-Back,1,z,Thu Mar 13 2025 10:43:20 GMT-0500 (Central Daylight Time),167300.90000000037,028_y_f_n_a.png,O,z,779,4,1,1795.4000000003725,165505.5,7077,NNB,C,3
4,test,1,0.0,1-Back,1,m,Thu Mar 13 2025 10:43:20 GMT-0500 (Central Daylight Time),169068.1000000015,006_m_f_n_a.png,O,m,747,5,1,1762.4000000003725,167305.70000000112,7077,NNB,C,4
5,test,1,0.0,1-Back,1,m,Thu Mar 13 2025 10:43:20 GMT-0500 (Central Daylight Time),170850.0,059_o_m_n_a.png,O,m,750,6,1,1777.0999999996275,169072.90000000037,7077,NNB,C,5
6,test,1,1.0,1-Back,1,z,Thu Mar 13 2025 10:43:20 GMT-0500 (Central Daylight Time),172615.90000000037,059_o_m_n_a.png,O,z,735,7,1,1761.9000000003725,170854.0,7077,NNB,C,6
7,test,1,0.0,1-Back,1,m,Thu Mar 13 2025 10:43:20 GMT-0500 (Central Daylight Time),174382.1000000015,092_m_m_n_a.png,O,m,745,8,1,1761.6000000014901,172620.5,7077,NNB,C,7
8,test,1,0.0,1-Back,1,m,Thu Mar 13 2025 10:43:20 GMT-0500 (Central Daylight Time),176098.40000000037,130_o_f_n_a.png,O,m,691,9,1,1711.699999999255,174386.70000000112,7077,NNB,C,8
9,test,1,0.0,1-Back,1,m,Thu Mar 13 2025 10:43:20 GMT-0500 (Central Daylight Time),177780.80000000075,092_m_m_n_a.png,O,m,663,10,1,1678.5999999996275,176102.20000000112,7077,NNB,C,9
10,test,1,0.0,1-Back,1,m,Thu Mar 13 2025 10:43:20 GMT-0500 (Central Daylight Time),179497.1000000015,057_y_m_n_a.png,O,m,697,11,1,1712.0,177785.1000000015,7077,NNB,C,10
11,test,1,1.0,1-Back,1,z,Thu Mar 13 2025 10:43:20 GMT-0500 (Central Daylight Time),181230.1000000015,057_y_m_n_a.png,O,z,704,12,1,1729.0,179501.1000000015,7077,NNB,C,11
12,test,1,0.0,1-Back,1,m,Thu Mar 13 2025 10:43:20 GMT-0500 (Central Daylight Time),182929.5,030_o_f_n_a.png,O,m,667,13,1,1695.8999999985099,181233.6000000015,7077,NNB,C,12
13,test,1,1.0,1-Back,1,z,Thu Mar 13 2025 10:43:20 GMT-0500 (Central Daylight Time),184828.90000000037,030_o_f_n_a.png,O,z,872,14,1,1895.0999999996275,182933.80000000075,7077,NNB,C,13
14,test,1,0.0,1-Back,1,m,Thu Mar 13 2025 10:43:20 GMT-0500 (Central Daylight Time),186645.1000000015,031_y_m_n_a.png,O,m,789,15,1,1812.7000000011176,184832.40000000037,7077,NNB,C,14
15,test,1,0.0,1-Back,1,m,Thu Mar 13 2025 10:43:20 GMT-0500 (Central Daylight Time),188294.5,093_m_f_n_a.png,O,m,628,16,1,1645.0999999996275,186649.40000000037,7077,NNB,C,15
16,test,1,0.0,1-Back,1,m,Thu Mar 13 2025 10:43:20 GMT-0500 (Central Daylight Time),189943.90000000037,146_o_m_n_a.png,O,m,627,17,1,1644.9000000003725,188299.0,7077,NNB,C,16
17,test,1,0.0,1-Back,1,m,Thu Mar 13 2025 10:43:20 GMT-0500 (Central Daylight Time),191793.30000000075,093_m_f_n_a.png,O,m,825,18,1,1845.800000000745,189947.5,7077,NNB,C,17
0,test,2,0.0,1-Back,,,Thu Mar 13 2025 10:43:20 GMT-0500 (Central Daylight Time),191793.30000000075,092_m_m_n_a.png,O,space,5344,1,1,1845.800000000745,189947.5,7077,NNB,C,0
1,test,2,0.0,1-Back,1,m,Thu Mar 13 2025 10:43:20 GMT-0500 (Central Daylight Time),201440.20000000112,006_m_f_n_a.png,O,m,1252,2,1,2277.9000000003725,199162.30000000075,7077,NNB,C,1
2,test,2,1.0,1-Back,1,z,Thu Mar 13 2025 10:43:20 GMT-0500 (Central Daylight Time),203239.6000000015,006_m_f_n_a.png,O,z,776,3,1,1795.2000000011176,201444.40000000037,7077,NNB,C,2
3,test,2,0.0,1-Back,1,m,Thu Mar 13 2025 10:43:20 GMT-0500 (Central Daylight Time),204872.30000000075,092_m_m_n_a.png,O,m,610,4,1,1629.199999999255,203243.1000000015,7077,NNB,C,3
4,test,2,0.0,1-Back,1,m,Thu Mar 13 2025 10:43:20 GMT-0500 (Central Daylight Time),206722.0,057_y_m_n_a.png,O,m,816,5,1,1846.0,204876.0,7077,NNB,C,4
5,test,2,0.0,1-Back,1,m,Thu Mar 13 2025 10:43:20 GMT-0500 (Central Daylight Time),208354.6000000015,098_y_f_n_a.png,O,m,615,6,1,1628.1000000014901,206726.5,7077,NNB,C,5
5,test,2,1.0,1-Back,0,z,Thu Mar 13 2025 10:43:20 GMT-0500 (Central Daylight Time),210437.5,098_y_f_n_a.png,O,m,1055,7,1,2079.699999999255,208357.80000000075,7077,NNB,C,6
6,test,2,0.0,1-Back,1,m,Thu Mar 13 2025 10:43:20 GMT-0500 (Central Daylight Time),212171.40000000037,057_y_m_n_a.png,O,m,708,8,1,1728.9000000003725,210442.5,7077,NNB,C,7
7,test,2,0.0,1-Back,1,m,Thu Mar 13 2025 10:43:20 GMT-0500 (Central Daylight Time),213819.70000000112,030_o_f_n_a.png,O,m,631,9,1,1643.4000000003725,212176.30000000075,7077,NNB,C,8
8,test,2,0.0,1-Back,1,m,Thu Mar 13 2025 10:43:20 GMT-0500 (Central Daylight Time),215502.40000000037,082_m_m_n_a.png,O,m,653,10,1,1678.699999999255,213823.70000000112,7077,NNB,C,9
9,test,2,1.0,1-Back,1,z,Thu Mar 13 2025 10:43:20 GMT-0500 (Central Daylight Time),217118.70000000112,082_m_m_n_a.png,O,z,586,11,1,1612.2000000011176,215506.5,7077,NNB,C,10
10,test,2,0.0,1-Back,1,m,Thu Mar 13 2025 10:43:20 GMT-0500 (Central Daylight Time),218668.20000000112,030_o_f_n_a.png,O,m,523,12,1,1545.2000000011176,217123.0,7077,NNB,C,11
11,test,2,0.0,1-Back,1,m,Thu Mar 13 2025 10:43:20 GMT-0500 (Central Daylight Time),220300.80000000075,130_o_f_n_a.png,O,m,613,13,1,1629.300000000745,218671.5,7077,NNB,C,12
12,test,2,0.0,1-Back,1,m,Thu Mar 13 2025 10:43:20 GMT-0500 (Central Daylight Time),221917.30000000075,059_o_m_n_a.png,O,m,589,14,1,1613.199999999255,220304.1000000015,7077,NNB,C,13
13,test,2,0.0,1-Back,1,m,Thu Mar 13 2025 10:43:20 GMT-0500 (Central Daylight Time),223516.70000000112,146_o_m_n_a.png,O,m,580,15,1,1594.9000000003725,221921.80000000075,7077,NNB,C,14
14,test,2,1.0,1-Back,1,z,Thu Mar 13 2025 10:43:20 GMT-0500 (Central Daylight Time),225116.1000000015,146_o_m_n_a.png,O,z,581,16,1,1595.300000000745,223520.80000000075,7077,NNB,C,15
15,test,2,0.0,1-Back,1,m,Thu Mar 13 2025 10:43:20 GMT-0500 (Central Daylight Time),226698.90000000037,031_y_m_n_a.png,O,m,557,17,1,1579.4000000003725,225119.5,7077,NNB,C,16
16,test,2,1.0,1-Back,1,z,Thu Mar 13 2025 10:43:20 GMT-0500 (Central Daylight Time),228415.1000000015,031_y_m_n_a.png,O,z,694,18,1,1712.9000000003725,226702.20000000112,7077,NNB,C,17
0,test,3,1.0,1-Back,,,Thu Mar 13 2025 10:43:20 GMT-0500 (Central Daylight Time),228415.1000000015,028_y_f_n_a.png,O,space,4882,1,1,1712.9000000003725,226702.20000000112,7077,NNB,C,0
1,test,3,0.0,1-Back,1,m,Thu Mar 13 2025 10:43:20 GMT-0500 (Central Daylight Time),237262.30000000075,146_o_m_n_a.png,O,m,828,1,1,1844.699999999255,235417.6000000015,7077,NNB,C,1
2,test,3,1.0,1-Back,1,z,Thu Mar 13 2025 10:43:20 GMT-0500 (Central Daylight Time),239028.5,146_o_m_n_a.png,O,z,747,1,1,1762.699999999255,237265.80000000075,7077,NNB,C,2
3,test,3,0.0,1-Back,1,m,Thu Mar 13 2025 10:43:20 GMT-0500 (Central Daylight Time),240694.5,093_m_f_n_a.png,O,m,645,1,1,1661.5,239033.0,7077,NNB,C,3
4,test,3,1.0,1-Back,1,z,Thu Mar 13 2025 10:43:20 GMT-0500 (Central Daylight Time),242444.0,093_m_f_n_a.png,O,z,731,1,1,1746.0,240698.0,7077,NNB,C,4
5,test,3,0.0,1-Back,1,m,Thu Mar 13 2025 10:43:20 GMT-0500 (Central Daylight Time),244127.0,030_o_f_n_a.png,O,m,653,1,1,1679.199999999255,242447.80000000075,7077,NNB,C,5
6,test,3,0.0,1-Back,1,m,Thu Mar 13 2025 10:43:20 GMT-0500 (Central Daylight Time),245709.80000000075,057_y_m_n_a.png,O,m,554,1,1,1577.800000000745,244132.0,7077,NNB,C,6
7,test,3,0.0,1-Back,1,m,Thu Mar 13 2025 10:43:20 GMT-0500 (Central Daylight Time),247226.30000000075,030_o_f_n_a.png,O,m,500,1,1,1512.699999999255,245713.6000000015,7077,NNB,C,7
7,test,3,0.0,1-Back,0,m,Thu Mar 13 2025 10:43:20 GMT-0500 (Central Daylight Time),248942.0,031_y_m_n_a.png,O,z,687,1,1,1711.8999999985099,247230.1000000015,7077,NNB,C,8
8,test,3,1.0,1-Back,1,z,Thu Mar 13 2025 10:43:20 GMT-0500 (Central Daylight Time),250792.5,031_y_m_n_a.png,O,z,818,1,1,1847.0,248945.5,7077,NNB,C,9
9,test,3,0.0,1-Back,1,m,Thu Mar 13 2025 10:43:20 GMT-0500 (Central Daylight Time),252474.40000000037,006_m_f_n_a.png,O,m,666,1,1,1677.5,250796.90000000037,7077,NNB,C,10
10,test,3,0.0,1-Back,1,m,Thu Mar 13 2025 10:43:20 GMT-0500 (Central Daylight Time),254157.1000000015,098_y_f_n_a.png,O,m,663,1,1,1678.5,252478.6000000015,7077,NNB,C,11
10,test,3,1.0,1-Back,0,z,Thu Mar 13 2025 10:43:20 GMT-0500 (Central Daylight Time),256173.1000000015,098_y_f_n_a.png,O,m,996,1,1,2010.9000000003725,254162.20000000112,7077,NNB,C,12
11,test,3,0.0,1-Back,1,m,Thu Mar 13 2025 10:43:20 GMT-0500 (Central Daylight Time),258239.20000000112,006_m_f_n_a.png,O,m,1036,1,1,2061.7000000011176,256177.5,7077,NNB,C,13
12,test,3,0.0,1-Back,1,m,Thu Mar 13 2025 10:43:20 GMT-0500 (Central Daylight Time),259838.5,092_m_m_n_a.png,O,m,578,1,1,1595.7999999988824,258242.70000000112,7077,NNB,C,14
13,test,3,1.0,1-Back,1,z,Thu Mar 13 2025 10:43:20 GMT-0500 (Central Daylight Time),261438.1000000015,092_m_m_n_a.png,O,z,571,1,1,1595.800000000745,259842.30000000075,7077,NNB,C,15
14,test,3,0.0,1-Back,1,m,Thu Mar 13 2025 10:43:20 GMT-0500 (Central Daylight Time),263104.2000000011,130_o_f_n_a.png,O,m,635,1,1,1662.7000000011176,261441.5,7077,NNB,C,16
15,test,3,1.0,1-Back,1,z,Thu Mar 13 2025 10:43:20 GMT-0500 (Central Daylight Time),264803.7000000011,130_o_f_n_a.png,O,z,673,1,1,1694.9000000003725,263108.80000000075,7077,NNB,C,17
0,test,4,1.0,1-Back,,,Thu Mar 13 2025 10:43:20 GMT-0500 (Central Daylight Time),264803.7000000011,093_m_f_n_a.png,O,space,1982,1,1,1694.9000000003725,263108.80000000075,7077,NNB,C,0
1,test,4,0.0,1-Back,1,m,Thu Mar 13 2025 10:43:20 GMT-0500 (Central Daylight Time),270901.80000000075,146_o_m_n_a.png,O,m,996,2,1,2011.4000000003725,268890.4000000004,7077,NNB,C,1
2,test,4,0.0,1-Back,1,m,Thu Mar 13 2025 10:43:20 GMT-0500 (Central Daylight Time),272761.9000000004,093_m_f_n_a.png,O,m,842,3,1,1856.9000000003725,270905.0,7077,NNB,C,2
3,test,4,0.0,1-Back,1,m,Thu Mar 13 2025 10:43:20 GMT-0500 (Central Daylight Time),274367.30000000075,030_o_f_n_a.png,O,m,586,4,1,1601.5,272765.80000000075,7077,NNB,C,3
4,test,4,1.0,1-Back,1,z,Thu Mar 13 2025 10:43:20 GMT-0500 (Central Daylight Time),276083.30000000075,030_o_f_n_a.png,O,z,698,5,1,1712.5999999996275,274370.7000000011,7077,NNB,C,4
5,test,4,0.0,1-Back,1,m,Thu Mar 13 2025 10:43:20 GMT-0500 (Central Daylight Time),277783.0,098_y_f_n_a.png,O,m,678,6,1,1695.3999999985099,276087.6000000015,7077,NNB,C,5
6,test,4,0.0,1-Back,1,m,Thu Mar 13 2025 10:43:20 GMT-0500 (Central Daylight Time),279365.80000000075,057_y_m_n_a.png,O,m,562,7,1,1579.5,277786.30000000075,7077,NNB,C,6
7,test,4,1.0,1-Back,1,z,Thu Mar 13 2025 10:43:20 GMT-0500 (Central Daylight Time),280948.5,057_y_m_n_a.png,O,z,556,8,1,1578.5,279370.0,7077,NNB,C,7
8,test,4,0.0,1-Back,1,m,Thu Mar 13 2025 10:43:20 GMT-0500 (Central Daylight Time),282631.30000000075,098_y_f_n_a.png,O,m,660,9,1,1679.4000000003725,280951.9000000004,7077,NNB,C,8
9,test,4,0.0,1-Back,1,m,Thu Mar 13 2025 10:43:20 GMT-0500 (Central Daylight Time),284297.5,082_m_m_n_a.png,O,m,642,10,1,1662.0,282635.5,7077,NNB,C,9
10,test,4,1.0,1-Back,1,z,Thu Mar 13 2025 10:43:20 GMT-0500 (Central Daylight Time),285913.9000000004,082_m_m_n_a.png,O,z,583,11,1,1612.2999999988824,284301.6000000015,7077,NNB,C,10
11,test,4,0.0,1-Back,1,m,Thu Mar 13 2025 10:43:20 GMT-0500 (Central Daylight Time),287480.1000000015,130_o_f_n_a.png,O,m,535,12,1,1562.2000000011176,285917.9000000004,7077,NNB,C,11
12,test,4,0.0,1-Back,1,m,Thu Mar 13 2025 10:43:20 GMT-0500 (Central Daylight Time),289130.2000000011,059_o_m_n_a.png,O,m,625,13,1,1645.7000000011176,287484.5,7077,NNB,C,12
13,test,4,0.0,1-Back,1,m,Thu Mar 13 2025 10:43:20 GMT-0500 (Central Daylight Time),290778.5,130_o_f_n_a.png,O,m,632,14,1,1643.2999999988824,289135.2000000011,7077,NNB,C,13
14,test,4,0.0,1-Back,1,m,Thu Mar 13 2025 10:43:20 GMT-0500 (Central Daylight Time),292428.30000000075,028_y_f_n_a.png,O,m,630,15,1,1645.5,290782.80000000075,7077,NNB,C,14
15,test,4,1.0,1-Back,1,z,Thu Mar 13 2025 10:43:20 GMT-0500 (Central Daylight Time),294194.4000000004,028_y_f_n_a.png,O,z,741,16,1,1763.0,292431.4000000004,7077,NNB,C,15
16,test,4,0.0,1-Back,1,m,Thu Mar 13 2025 10:43:20 GMT-0500 (Central Daylight Time),295910.6000000015,006_m_f_n_a.png,O,m,695,17,1,1712.2000000011176,294198.4000000004,7077,NNB,C,16
17,test,4,1.0,1-Back,1,z,Thu Mar 13 2025 10:43:20 GMT-0500 (Central Daylight Time),297626.6000000015,006_m_f_n_a.png,O,z,699,18,1,1712.6000000014901,295914.0,7077,NNB,C,17
0,test,5,1.0,1-Back,,,Thu Mar 13 2025 10:43:20 GMT-0500 (Central Daylight Time),297626.6000000015,059_o_m_n_a.png,O,space,5191,1,1,1712.6000000014901,295914.0,7077,NNB,C,0
1,test,5,1.0,1-Back,1,z,Thu Mar 13 2025 10:43:20 GMT-0500 (Central Daylight Time),306790.5,059_o_m_n_a.png,O,z,920,2,1,1944.8999999985099,304845.6000000015,7077,NNB,C,1
2,test,5,0.0,1-Back,1,m,Thu Mar 13 2025 10:43:20 GMT-0500 (Central Daylight Time),308406.7000000011,098_y_f_n_a.png,O,m,594,3,1,1612.0,306794.7000000011,7077,NNB,C,2
3,test,5,0.0,1-Back,1,m,Thu Mar 13 2025 10:43:20 GMT-0500 (Central Daylight Time),310189.30000000075,057_y_m_n_a.png,O,m,763,4,1,1778.199999999255,308411.1000000015,7077,NNB,C,3
4,test,5,0.0,1-Back,1,m,Thu Mar 13 2025 10:43:20 GMT-0500 (Central Daylight Time),311855.7000000011,098_y_f_n_a.png,O,m,644,5,1,1663.0,310192.7000000011,7077,NNB,C,4
5,test,5,0.0,1-Back,1,m,Thu Mar 13 2025 10:43:20 GMT-0500 (Central Daylight Time),313605.0,092_m_m_n_a.png,O,m,730,6,1,1745.0,311860.0,7077,NNB,C,5
6,test,5,1.0,1-Back,1,z,Thu Mar 13 2025 10:43:20 GMT-0500 (Central Daylight Time),315454.4000000004,092_m_m_n_a.png,O,z,828,7,1,1845.5,313608.9000000004,7077,NNB,C,6
7,test,5,0.0,1-Back,1,m,Thu Mar 13 2025 10:43:20 GMT-0500 (Central Daylight Time),317170.7000000011,028_y_f_n_a.png,O,m,691,8,1,1712.2000000011176,315458.5,7077,NNB,C,7
8,test,5,0.0,1-Back,1,m,Thu Mar 13 2025 10:43:20 GMT-0500 (Central Daylight Time),318753.5,031_y_m_n_a.png,O,m,551,9,1,1579.3999999985099,317174.1000000015,7077,NNB,C,8
9,test,5,0.0,1-Back,1,m,Thu Mar 13 2025 10:43:20 GMT-0500 (Central Daylight Time),320553.0,028_y_f_n_a.png,O,m,705,10,1,1796.2999999988824,318756.7000000011,7077,NNB,C,9
10,test,5,0.0,1-Back,1,m,Thu Mar 13 2025 10:43:20 GMT-0500 (Central Daylight Time),322152.4000000004,130_o_f_n_a.png,O,m,576,11,1,1595.2999999988824,320557.1000000015,7077,NNB,C,10
11,test,5,1.0,1-Back,1,z,Thu Mar 13 2025 10:43:20 GMT-0500 (Central Daylight Time),323851.9000000004,130_o_f_n_a.png,O,z,681,12,1,1696.0,322155.9000000004,7077,NNB,C,11
12,test,5,0.0,1-Back,1,m,Thu Mar 13 2025 10:43:20 GMT-0500 (Central Daylight Time),325551.2000000011,146_o_m_n_a.png,O,m,677,13,1,1696.0999999996275,323855.1000000015,7077,NNB,C,12
13,test,5,0.0,1-Back,1,m,Thu Mar 13 2025 10:43:20 GMT-0500 (Central Daylight Time),327150.80000000075,093_m_f_n_a.png,O,m,570,14,1,1595.0,325555.80000000075,7077,NNB,C,13
14,test,5,1.0,1-Back,1,z,Thu Mar 13 2025 10:43:20 GMT-0500 (Central Daylight Time),328700.5,093_m_f_n_a.png,O,z,530,15,1,1545.699999999255,327154.80000000075,7077,NNB,C,14
15,test,5,0.0,1-Back,1,m,Thu Mar 13 2025 10:43:20 GMT-0500 (Central Daylight Time),330216.5,146_o_m_n_a.png,O,m,493,16,1,1513.0,328703.5,7077,NNB,C,15
16,test,5,0.0,1-Back,1,m,Thu Mar 13 2025 10:43:20 GMT-0500 (Central Daylight Time),331949.30000000075,006_m_f_n_a.png,O,m,713,17,1,1729.199999999255,330220.1000000015,7077,NNB,C,16
17,test,5,0.0,1-Back,1,m,Thu Mar 13 2025 10:43:20 GMT-0500 (Central Daylight Time),333498.9000000004,082_m_m_n_a.png,O,m,532,18,1,1545.5999999996275,331953.30000000075,7077,NNB,C,17
0,prac,1,0.0,2-Back,,,Thu Mar 13 2025 10:43:20 GMT-0500 (Central Daylight Time),333498.9000000004,031_y_m_n_a.png,O,space,10261,1,1,1545.5999999996275,331953.30000000075,7077,NNB,C,0
0,prac,1,0.0,2-Back,,,Thu Mar 13 2025 10:43:20 GMT-0500 (Central Daylight Time),333498.9000000004,006_m_f_n_a.png,O,space,10261,2,1,1545.5999999996275,331953.30000000075,7077,NNB,C,0
1,prac,1,1.0,2-Back,1,m,Thu Mar 13 2025 10:43:20 GMT-0500 (Central Daylight Time),461758.9000000004,146_o_m_n_a.png,O,m,1315,3,1,2175.9000000003725,459583.0,7077,NNB,C,1
2,prac,1,0.0,2-Back,1,m,Thu Mar 13 2025 10:43:20 GMT-0500 (Central Daylight Time),463724.9000000004,130_o_f_n_a.png,O,m,1074,4,1,1960.199999999255,461764.7000000011,7077,NNB,C,2
3,prac,1,0.0,2-Back,1,z,Thu Mar 13 2025 10:43:20 GMT-0500 (Central Daylight Time),466074.0,146_o_m_n_a.png,O,z,1565,5,1,2342.0,463732.0,7077,NNB,C,3
4,prac,1,1.0,2-Back,1,z,Thu Mar 13 2025 10:43:20 GMT-0500 (Central Daylight Time),468106.80000000075,130_o_f_n_a.png,O,z,1257,6,1,2026.699999999255,466080.1000000015,7077,NNB,C,4
5,prac,1,0.0,2-Back,1,m,Thu Mar 13 2025 10:43:20 GMT-0500 (Central Daylight Time),470256.1000000015,082_m_m_n_a.png,O,m,1369,7,1,2143.800000000745,468112.30000000075,7077,NNB,C,5
6,prac,1,0.0,2-Back,1,m,Thu Mar 13 2025 10:43:20 GMT-0500 (Central Daylight Time),472172.2000000011,059_o_m_n_a.png,O,m,1033,8,1,1909.4000000003725,470262.80000000075,7077,NNB,C,6
7,prac,1,0.0,2-Back,1,m,Thu Mar 13 2025 10:43:20 GMT-0500 (Central Daylight Time),474105.80000000075,028_y_f_n_a.png,O,m,1055,9,1,1926.5,472179.30000000075,7077,NNB,C,7
8,prac,1,1.0,2-Back,1,z,Thu Mar 13 2025 10:43:20 GMT-0500 (Central Daylight Time),475920.9000000004,059_o_m_n_a.png,O,z,1025,10,1,1808.7999999988824,474112.1000000015,7077,NNB,C,8
9,prac,1,0.0,2-Back,1,m,Thu Mar 13 2025 10:43:20 GMT-0500 (Central Daylight Time),477837.5,098_y_f_n_a.png,O,m,1050,11,1,1910.199999999255,475927.30000000075,7077,NNB,C,9
10,prac,1,0.0,2-Back,1,m,Thu Mar 13 2025 10:43:20 GMT-0500 (Central Daylight Time),480136.2000000011,082_m_m_n_a.png,O,m,1510,12,1,2292.5,477843.7000000011,7077,NNB,C,10
0,test,1,0.0,2-Back,,,Thu Mar 13 2025 10:43:20 GMT-0500 (Central Daylight Time),480136.2000000011,057_y_m_n_a.png,O,space,7657,1,1,2292.5,477843.7000000011,7077,NNB,C,0
0,test,1,0.0,2-Back,,,Thu Mar 13 2025 10:43:20 GMT-0500 (Central Daylight Time),480136.2000000011,057_y_m_n_a.png,O,space,7657,2,1,2292.5,477843.7000000011,7077,NNB,C,0
1,test,1,0.0,2-Back,1,m,Thu Mar 13 2025 10:43:20 GMT-0500 (Central Daylight Time),508074.4000000004,130_o_f_n_a.png,O,m,995,3,1,2009.699999999255,506064.7000000011,7077,NNB,C,1
2,test,1,0.0,2-Back,1,m,Thu Mar 13 2025 10:43:20 GMT-0500 (Central Daylight Time),509943.7000000011,092_m_m_n_a.png,O,m,844,4,1,1865.800000000745,508077.9000000004,7077,NNB,C,2
3,test,1,1.0,2-Back,1,z,Thu Mar 13 2025 10:43:20 GMT-0500 (Central Daylight Time),511592.9000000004,130_o_f_n_a.png,O,z,626,5,1,1646.0999999996275,509946.80000000075,7077,NNB,C,3
4,test,1,0.0,2-Back,1,m,Thu Mar 13 2025 10:43:20 GMT-0500 (Central Daylight Time),513575.6000000015,098_y_f_n_a.png,O,m,952,6,1,1978.7000000011176,511596.9000000004,7077,NNB,C,4
4,test,1,0.0,2-Back,0,m,Thu Mar 13 2025 10:43:20 GMT-0500 (Central Daylight Time),515608.4000000004,092_m_m_n_a.png,O,z,1002,7,1,2029.5,513578.9000000004,7077,NNB,C,5
5,test,1,1.0,2-Back,1,z,Thu Mar 13 2025 10:43:20 GMT-0500 (Central Daylight Time),517875.5,098_y_f_n_a.png,O,z,1240,8,1,2264.0999999996275,515611.4000000004,7077,NNB,C,6
6,test,1,0.0,2-Back,1,m,Thu Mar 13 2025 10:43:20 GMT-0500 (Central Daylight Time),519957.2000000011,031_y_m_n_a.png,O,m,1055,9,1,2077.5999999996275,517879.6000000015,7077,NNB,C,7
7,test,1,0.0,2-Back,1,m,Thu Mar 13 2025 10:43:20 GMT-0500 (Central Daylight Time),522122.7000000011,030_o_f_n_a.png,O,m,1148,10,1,2162.5,519960.2000000011,7077,NNB,C,8
8,test,1,1.0,2-Back,1,z,Thu Mar 13 2025 10:43:20 GMT-0500 (Central Daylight Time),524289.1000000015,031_y_m_n_a.png,O,z,1142,11,1,2162.7000000011176,522126.4000000004,7077,NNB,C,9
9,test,1,0.0,2-Back,1,m,Thu Mar 13 2025 10:43:20 GMT-0500 (Central Daylight Time),526255.1000000015,006_m_f_n_a.png,O,m,936,12,1,1962.0,524293.1000000015,7077,NNB,C,10
10,test,1,0.0,2-Back,1,m,Thu Mar 13 2025 10:43:20 GMT-0500 (Central Daylight Time),528487.6000000015,006_m_f_n_a.png,O,m,1202,13,1,2228.300000000745,526259.3000000007,7077,NNB,C,11
11,test,1,0.0,2-Back,1,m,Thu Mar 13 2025 10:43:20 GMT-0500 (Central Daylight Time),530920.4000000004,146_o_m_n_a.png,O,m,1402,14,1,2429.4000000003725,528491.0,7077,NNB,C,12
12,test,1,0.0,2-Back,1,m,Thu Mar 13 2025 10:43:20 GMT-0500 (Central Daylight Time),533103.0,030_o_f_n_a.png,O,m,1153,15,1,2178.699999999255,530924.3000000007,7077,NNB,C,13
13,test,1,1.0,2-Back,1,z,Thu Mar 13 2025 10:43:20 GMT-0500 (Central Daylight Time),534903.5,146_o_m_n_a.png,O,z,770,16,1,1796.5999999996275,533106.9000000004,7077,NNB,C,14
14,test,1,0.0,2-Back,1,m,Thu Mar 13 2025 10:43:20 GMT-0500 (Central Daylight Time),536702.9000000004,093_m_f_n_a.png,O,m,771,17,1,1795.5,534907.4000000004,7077,NNB,C,15
15,test,1,0.0,2-Back,1,m,Thu Mar 13 2025 10:43:20 GMT-0500 (Central Daylight Time),538717.9000000004,082_m_m_n_a.png,O,m,987,18,1,2010.9000000003725,536707.0,7077,NNB,C,16
0,test,2,0.0,2-Back,,,Thu Mar 13 2025 10:43:20 GMT-0500 (Central Daylight Time),538717.9000000004,082_m_m_n_a.png,O,space,4595,1,1,2010.9000000003725,536707.0,7077,NNB,C,0
0,test,2,0.0,2-Back,,,Thu Mar 13 2025 10:43:20 GMT-0500 (Central Daylight Time),538717.9000000004,028_y_f_n_a.png,O,space,4595,2,1,2010.9000000003725,536707.0,7077,NNB,C,0
1,test,2,1.0,2-Back,1,z,Thu Mar 13 2025 10:43:20 GMT-0500 (Central Daylight Time),550447.5,082_m_m_n_a.png,O,z,960,3,1,1978.3999999985099,548469.1000000015,7077,NNB,C,1
2,test,2,0.0,2-Back,1,m,Thu Mar 13 2025 10:43:20 GMT-0500 (Central Daylight Time),552313.5,093_m_f_n_a.png,O,m,842,4,1,1862.199999999255,550451.3000000007,7077,NNB,C,2
3,test,2,0.0,2-Back,1,m,Thu Mar 13 2025 10:43:20 GMT-0500 (Central Daylight Time),554696.3000000007,028_y_f_n_a.png,O,m,1352,5,1,2378.699999999255,552317.6000000015,7077,NNB,C,3
4,test,2,0.0,2-Back,1,m,Thu Mar 13 2025 10:43:20 GMT-0500 (Central Daylight Time),556879.1000000015,146_o_m_n_a.png,O,m,1153,6,1,2179.0,554700.1000000015,7077,NNB,C,4
5,test,2,0.0,2-Back,1,m,Thu Mar 13 2025 10:43:20 GMT-0500 (Central Daylight Time),559428.0,098_y_f_n_a.png,O,m,1521,7,1,2545.7999999988824,556882.2000000011,7077,NNB,C,5
6,test,2,1.0,2-Back,1,z,Thu Mar 13 2025 10:43:20 GMT-0500 (Central Daylight Time),561377.5,146_o_m_n_a.png,O,z,917,8,1,1945.2999999988824,559432.2000000011,7077,NNB,C,6
7,test,2,0.0,2-Back,1,m,Thu Mar 13 2025 10:43:20 GMT-0500 (Central Daylight Time),563326.8000000007,031_y_m_n_a.png,O,m,928,9,1,1945.4000000003725,561381.4000000004,7077,NNB,C,7
8,test,2,0.0,2-Back,1,m,Thu Mar 13 2025 10:43:20 GMT-0500 (Central Daylight Time),565542.6000000015,031_y_m_n_a.png,O,m,1194,10,1,2212.800000000745,563329.8000000007,7077,NNB,C,8
9,test,2,0.0,2-Back,1,m,Thu Mar 13 2025 10:43:20 GMT-0500 (Central Daylight Time),567958.8000000007,006_m_f_n_a.png,O,m,1386,11,1,2412.800000000745,565546.0,7077,NNB,C,9
10,test,2,0.0,2-Back,1,m,Thu Mar 13 2025 10:43:20 GMT-0500 (Central Daylight Time),570057.8000000007,028_y_f_n_a.png,O,m,1066,12,1,2095.199999999255,567962.6000000015,7077,NNB,C,10
11,test,2,1.0,2-Back,1,z,Thu Mar 13 2025 10:43:20 GMT-0500 (Central Daylight Time),571890.8000000007,006_m_f_n_a.png,O,z,807,13,1,1829.0,570061.8000000007,7077,NNB,C,11
12,test,2,0.0,2-Back,1,m,Thu Mar 13 2025 10:43:20 GMT-0500 (Central Daylight Time),573757.0,059_o_m_n_a.png,O,m,839,14,1,1862.5,571894.5,7077,NNB,C,12
13,test,2,0.0,2-Back,1,m,Thu Mar 13 2025 10:43:20 GMT-0500 (Central Daylight Time),575972.8000000007,059_o_m_n_a.png,O,m,1188,15,1,2212.5999999996275,573760.2000000011,7077,NNB,C,13
14,test,2,0.0,2-Back,1,m,Thu Mar 13 2025 10:43:20 GMT-0500 (Central Daylight Time),578038.9000000004,030_o_f_n_a.png,O,m,1044,16,1,2062.0,575976.9000000004,7077,NNB,C,14
15,test,2,0.0,2-Back,1,m,Thu Mar 13 2025 10:43:20 GMT-0500 (Central Daylight Time),580121.6000000015,092_m_m_n_a.png,O,m,1050,17,1,2079.300000000745,578042.3000000007,7077,NNB,C,15
16,test,2,1.0,2-Back,1,z,Thu Mar 13 2025 10:43:20 GMT-0500 (Central Daylight Time),582405.2000000011,030_o_f_n_a.png,O,z,1264,18,1,2279.4000000003725,580125.8000000007,7077,NNB,C,16
0,test,3,1.0,2-Back,,,Thu Mar 13 2025 10:43:20 GMT-0500 (Central Daylight Time),582405.2000000011,057_y_m_n_a.png,O,space,3580,1,1,2279.4000000003725,580125.8000000007,7077,NNB,C,0
0,test,3,1.0,2-Back,,,Thu Mar 13 2025 10:43:20 GMT-0500 (Central Daylight Time),582405.2000000011,057_y_m_n_a.png,O,space,3580,2,1,2279.4000000003725,580125.8000000007,7077,NNB,C,0
1,test,3,0.0,2-Back,1,m,Thu Mar 13 2025 10:43:20 GMT-0500 (Central Daylight Time),593317.2000000011,030_o_f_n_a.png,O,m,1155,3,1,2178.2000000011176,591139.0,7077,NNB,C,1
2,test,3,0.0,2-Back,1,m,Thu Mar 13 2025 10:43:20 GMT-0500 (Central Daylight Time),595351.3000000007,082_m_m_n_a.png,O,m,1004,4,1,2031.0999999996275,593320.2000000011,7077,NNB,C,2
3,test,3,1.0,2-Back,1,z,Thu Mar 13 2025 10:43:20 GMT-0500 (Central Daylight Time),597082.9000000004,030_o_f_n_a.png,O,z,707,5,1,1727.2999999988824,595355.6000000015,7077,NNB,C,3
4,test,3,0.0,2-Back,1,m,Thu Mar 13 2025 10:43:20 GMT-0500 (Central Daylight Time),599115.6000000015,031_y_m_n_a.png,O,m,1006,6,1,2029.800000000745,597085.8000000007,7077,NNB,C,4
5,test,3,0.0,2-Back,1,m,Thu Mar 13 2025 10:43:20 GMT-0500 (Central Daylight Time),601364.9000000004,082_m_m_n_a.png,O,m,1222,7,1,2245.199999999255,599119.7000000011,7077,NNB,C,5
6,test,3,1.0,2-Back,1,z,Thu Mar 13 2025 10:43:20 GMT-0500 (Central Daylight Time),603980.8000000007,031_y_m_n_a.png,O,z,1601,8,1,2612.0,601368.8000000007,7077,NNB,C,6
7,test,3,0.0,2-Back,1,m,Thu Mar 13 2025 10:43:20 GMT-0500 (Central Daylight Time),606046.8000000007,028_y_f_n_a.png,O,m,1044,9,1,2061.9000000003725,603984.9000000004,7077,NNB,C,7
8,test,3,0.0,2-Back,1,m,Thu Mar 13 2025 10:43:20 GMT-0500 (Central Daylight Time),608212.8000000007,092_m_m_n_a.png,O,m,1147,10,1,2162.0,606050.8000000007,7077,NNB,C,8
9,test,3,1.0,2-Back,1,z,Thu Mar 13 2025 10:43:20 GMT-0500 (Central Daylight Time),609995.4000000004,028_y_f_n_a.png,O,z,765,11,1,1779.4000000003725,608216.0,7077,NNB,C,9
9,test,3,1.0,2-Back,0,z,Thu Mar 13 2025 10:43:20 GMT-0500 (Central Daylight Time),611845.0,092_m_m_n_a.png,O,m,822,12,1,1846.5,609998.5,7077,NNB,C,10
10,test,3,0.0,2-Back,1,m,Thu Mar 13 2025 10:43:20 GMT-0500 (Central Daylight Time),614144.1000000015,030_o_f_n_a.png,O,m,1276,13,1,2295.10000000149,611849.0,7077,NNB,C,11
11,test,3,0.0,2-Back,1,m,Thu Mar 13 2025 10:43:20 GMT-0500 (Central Daylight Time),616593.4000000004,093_m_f_n_a.png,O,m,1425,14,1,2445.4000000003725,614148.0,7077,NNB,C,12
12,test,3,0.0,2-Back,1,m,Thu Mar 13 2025 10:43:20 GMT-0500 (Central Daylight Time),618959.3000000007,146_o_m_n_a.png,O,m,1336,15,1,2362.0,616597.3000000007,7077,NNB,C,13
13,test,3,1.0,2-Back,1,z,Thu Mar 13 2025 10:43:20 GMT-0500 (Central Daylight Time),620842.2000000011,093_m_f_n_a.png,O,z,850,16,1,1878.9000000003725,618963.3000000007,7077,NNB,C,14
14,test,3,0.0,2-Back,1,m,Thu Mar 13 2025 10:43:20 GMT-0500 (Central Daylight Time),622924.9000000004,130_o_f_n_a.png,O,m,1055,17,1,2078.9000000003725,620846.0,7077,NNB,C,15
15,test,3,0.0,2-Back,1,m,Thu Mar 13 2025 10:43:20 GMT-0500 (Central Daylight Time),625940.3000000007,130_o_f_n_a.png,O,m,1997,18,1,3011.5,622928.8000000007,7077,NNB,C,16
0,test,4,0.0,2-Back,,,Thu Mar 13 2025 10:43:20 GMT-0500 (Central Daylight Time),625940.3000000007,059_o_m_n_a.png,O,space,3669,1,1,3011.5,622928.8000000007,7077,NNB,C,0
0,test,4,0.0,2-Back,,,Thu Mar 13 2025 10:43:20 GMT-0500 (Central Daylight Time),625940.3000000007,098_y_f_n_a.png,O,space,3669,2,1,3011.5,622928.8000000007,7077,NNB,C,0
1,test,4,1.0,2-Back,1,z,Thu Mar 13 2025 10:43:20 GMT-0500 (Central Daylight Time),637586.8000000007,059_o_m_n_a.png,O,z,1707,3,1,2728.199999999255,634858.6000000015,7077,NNB,C,1
2,test,4,1.0,2-Back,1,z,Thu Mar 13 2025 10:43:20 GMT-0500 (Central Daylight Time),640119.4000000004,098_y_f_n_a.png,O,z,1503,4,1,2528.4000000003725,637591.0,7077,NNB,C,2
3,test,4,0.0,2-Back,1,m,Thu Mar 13 2025 10:43:20 GMT-0500 (Central Daylight Time),642069.0,030_o_f_n_a.png,O,m,922,5,1,1946.5,640122.5,7077,NNB,C,3
4,test,4,0.0,2-Back,1,m,Thu Mar 13 2025 10:43:20 GMT-0500 (Central Daylight Time),644151.4000000004,030_o_f_n_a.png,O,m,1052,6,1,2078.4000000003725,642073.0,7077,NNB,C,4
5,test,4,0.0,2-Back,1,m,Thu Mar 13 2025 10:43:20 GMT-0500 (Central Daylight Time),646200.7000000011,006_m_f_n_a.png,O,m,1018,7,1,2046.2000000011176,644154.5,7077,NNB,C,5
6,test,4,0.0,2-Back,1,m,Thu Mar 13 2025 10:43:20 GMT-0500 (Central Daylight Time),648100.5,031_y_m_n_a.png,O,m,872,8,1,1896.3999999985099,646204.1000000015,7077,NNB,C,6
7,test,4,1.0,2-Back,1,z,Thu Mar 13 2025 10:43:20 GMT-0500 (Central Daylight Time),649916.2000000011,006_m_f_n_a.png,O,z,789,9,1,1812.0,648104.2000000011,7077,NNB,C,7
8,test,4,0.0,2-Back,1,m,Thu Mar 13 2025 10:43:20 GMT-0500 (Central Daylight Time),652048.9000000004,092_m_m_n_a.png,O,m,1109,10,1,2128.9000000003725,649920.0,7077,NNB,C,8
9,test,4,0.0,2-Back,1,m,Thu Mar 13 2025 10:43:20 GMT-0500 (Central Daylight Time),654898.1000000015,031_y_m_n_a.png,O,m,1816,11,1,2846.0,652052.1000000015,7077,NNB,C,9
10,test,4,0.0,2-Back,1,m,Thu Mar 13 2025 10:43:20 GMT-0500 (Central Daylight Time),657163.9000000004,130_o_f_n_a.png,O,m,1239,12,1,2261.7999999988824,654902.1000000015,7077,NNB,C,10
10,test,4,0.0,2-Back,0,m,Thu Mar 13 2025 10:43:20 GMT-0500 (Central Daylight Time),659663.4000000004,057_y_m_n_a.png,O,z,1469,13,1,2495.9000000003725,657167.5,7077,NNB,C,11
11,test,4,1.0,2-Back,1,z,Thu Mar 13 2025 10:43:20 GMT-0500 (Central Daylight Time),662029.3000000007,130_o_f_n_a.png,O,z,1346,14,1,2362.4000000003725,659666.9000000004,7077,NNB,C,12
11,test,4,1.0,2-Back,0,z,Thu Mar 13 2025 10:43:20 GMT-0500 (Central Daylight Time),664778.2000000011,057_y_m_n_a.png,O,m,1732,15,1,2745.0999999996275,662033.1000000015,7077,NNB,C,13
12,test,4,0.0,2-Back,1,m,Thu Mar 13 2025 10:43:20 GMT-0500 (Central Daylight Time),667494.2000000011,082_m_m_n_a.png,O,m,1695,16,1,2712.9000000003725,664781.3000000007,7077,NNB,C,14
13,test,4,0.0,2-Back,1,m,Thu Mar 13 2025 10:43:20 GMT-0500 (Central Daylight Time),669710.0,093_m_f_n_a.png,O,m,1187,17,1,2211.89999999851,667498.1000000015,7077,NNB,C,15
14,test,4,1.0,2-Back,1,z,Thu Mar 13 2025 10:43:20 GMT-0500 (Central Daylight Time),671792.8000000007,082_m_m_n_a.png,O,z,1051,18,1,2079.300000000745,669713.5,7077,NNB,C,16
0,test,5,1.0,2-Back,,,Thu Mar 13 2025 10:43:20 GMT-0500 (Central Daylight Time),671792.8000000007,057_y_m_n_a.png,O,space,3504,1,1,2079.300000000745,669713.5,7077,NNB,C,0
0,test,5,1.0,2-Back,,,Thu Mar 13 2025 10:43:20 GMT-0500 (Central Daylight Time),671792.8000000007,093_m_f_n_a.png,O,space,3504,2,1,2079.300000000745,669713.5,7077,NNB,C,0
1,test,5,1.0,2-Back,1,z,Thu Mar 13 2025 10:43:20 GMT-0500 (Central Daylight Time),682489.6000000015,057_y_m_n_a.png,O,z,1100,3,1,2129.4000000003725,680360.2000000011,7077,NNB,C,1
2,test,5,1.0,2-Back,1,z,Thu Mar 13 2025 10:43:20 GMT-0500 (Central Daylight Time),684355.5,093_m_f_n_a.png,O,z,840,4,1,1862.3999999985099,682493.1000000015,7077,NNB,C,2
3,test,5,0.0,2-Back,1,m,Thu Mar 13 2025 10:43:20 GMT-0500 (Central Daylight Time),686273.0,130_o_f_n_a.png,O,m,894,5,1,1914.2999999988824,684358.7000000011,7077,NNB,C,3
4,test,5,0.0,2-Back,1,m,Thu Mar 13 2025 10:43:20 GMT-0500 (Central Daylight Time),688537.5,057_y_m_n_a.png,O,m,1234,6,1,2260.39999999851,686277.1000000015,7077,NNB,C,4
5,test,5,0.0,2-Back,1,m,Thu Mar 13 2025 10:43:20 GMT-0500 (Central Daylight Time),690587.9000000004,028_y_f_n_a.png,O,m,1032,7,1,2047.0,688540.9000000004,7077,NNB,C,5
5,test,5,0.0,2-Back,0,m,Thu Mar 13 2025 10:43:20 GMT-0500 (Central Daylight Time),692819.5,130_o_f_n_a.png,O,z,1206,8,1,2227.5999999996275,690591.9000000004,7077,NNB,C,6
6,test,5,1.0,2-Back,1,z,Thu Mar 13 2025 10:43:20 GMT-0500 (Central Daylight Time),695152.1000000015,028_y_f_n_a.png,O,z,1302,9,1,2329.5,692822.6000000015,7077,NNB,C,7
7,test,5,0.0,2-Back,1,m,Thu Mar 13 2025 10:43:20 GMT-0500 (Central Daylight Time),697351.4000000004,146_o_m_n_a.png,O,m,1169,10,1,2195.4000000003725,695156.0,7077,NNB,C,8
8,test,5,0.0,2-Back,1,m,Thu Mar 13 2025 10:43:20 GMT-0500 (Central Daylight Time),699200.9000000004,006_m_f_n_a.png,O,m,826,11,1,1845.2999999988824,697355.6000000015,7077,NNB,C,9
9,test,5,0.0,2-Back,1,m,Thu Mar 13 2025 10:43:20 GMT-0500 (Central Daylight Time),701100.0,092_m_m_n_a.png,O,m,880,12,1,1895.0,699205.0,7077,NNB,C,10
10,test,5,0.0,2-Back,1,m,Thu Mar 13 2025 10:43:20 GMT-0500 (Central Daylight Time),703749.7000000011,146_o_m_n_a.png,O,m,1620,13,1,2646.5,701103.2000000011,7077,NNB,C,11
10,test,5,1.0,2-Back,0,z,Thu Mar 13 2025 10:43:20 GMT-0500 (Central Daylight Time),705882.0,092_m_m_n_a.png,O,m,1108,14,1,2128.5999999996275,703753.4000000004,7077,NNB,C,12
11,test,5,0.0,2-Back,1,m,Thu Mar 13 2025 10:43:20 GMT-0500 (Central Daylight Time),707748.1000000015,098_y_f_n_a.png,O,m,839,15,1,1862.0,705886.1000000015,7077,NNB,C,13
12,test,5,0.0,2-Back,1,m,Thu Mar 13 2025 10:43:20 GMT-0500 (Central Daylight Time),710297.3000000007,059_o_m_n_a.png,O,m,1516,16,1,2545.9000000003725,707751.4000000004,7077,NNB,C,14
13,test,5,0.0,2-Back,1,m,Thu Mar 13 2025 10:43:20 GMT-0500 (Central Daylight Time),712413.5,006_m_f_n_a.png,O,m,1096,17,1,2112.89999999851,710300.6000000015,7077,NNB,C,15
14,test,5,1.0,2-Back,1,z,Thu Mar 13 2025 10:43:20 GMT-0500 (Central Daylight Time),714796.0,059_o_m_n_a.png,O,z,1356,18,1,2378.7999999988824,712417.2000000011,7077,NNB,C,16
