acc_sum,block,block_c,change,condition,correct,correct_response,datetime,endtime,face,project,response,response_time,row_sel,session_number,start_end,starttime,subject_id,task,task_vers,trial
0,prac,1,,1-Back,,,Wed Apr 02 2025 09:22:42 GMT-0500 (Central Daylight Time),,124_o_f_d_a.png,O,space,7081,1,1,,,7088,VNB,A,0
1,prac,1,0.0,1-Back,1,m,Wed Apr 02 2025 09:22:42 GMT-0500 (Central Daylight Time),141408.0,071_y_f_n_a.png,O,m,1083,2,1,1871.1000000238419,139536.89999997616,7088,VNB,A,1
2,prac,1,0.0,1-Back,1,m,Wed Apr 02 2025 09:22:42 GMT-0500 (Central Daylight Time),143441.0,165_m_m_h_a.png,O,m,1235,3,1,2021.6999999284744,141419.30000007153,7088,VNB,A,2
3,prac,1,0.0,1-Back,1,m,Wed Apr 02 2025 09:22:42 GMT-0500 (Central Daylight Time),145158.10000002384,109_y_m_d_a.png,O,m,899,4,1,1705.8999999761581,143452.20000004768,7088,VNB,A,3
4,prac,1,0.0,1-Back,1,m,Wed Apr 02 2025 09:22:42 GMT-0500 (Central Daylight Time),147090.89999997616,124_o_f_n_a.png,O,m,1108,5,1,1921.8999999761581,145169.0,7088,VNB,A,4
5,prac,1,1.0,1-Back,1,z,Wed Apr 02 2025 09:22:42 GMT-0500 (Central Daylight Time),149188.70000004768,109_y_m_n_a.png,O,z,1278,6,1,2084.2000000476837,147104.5,7088,VNB,A,5
6,prac,1,0.0,1-Back,1,m,Wed Apr 02 2025 09:22:42 GMT-0500 (Central Daylight Time),151071.60000002384,039_o_m_h_a.png,O,m,1076,7,1,1871.1000000238419,149200.5,7088,VNB,A,6
7,prac,1,0.0,1-Back,1,m,Wed Apr 02 2025 09:22:42 GMT-0500 (Central Daylight Time),152771.10000002384,139_m_f_d_a.png,O,m,897,8,1,1687.5,151083.60000002384,7088,VNB,A,7
8,prac,1,1.0,1-Back,1,z,Wed Apr 02 2025 09:22:42 GMT-0500 (Central Daylight Time),154754.0,071_y_f_d_a.png,O,z,1185,9,1,1971.1999999284744,152782.80000007153,7088,VNB,A,8
9,prac,1,0.0,1-Back,1,m,Wed Apr 02 2025 09:22:42 GMT-0500 (Central Daylight Time),156388.10000002384,165_m_m_n_a.png,O,m,839,10,1,1622.7999999523163,154765.30000007153,7088,VNB,A,9
10,prac,1,0.0,1-Back,1,m,Wed Apr 02 2025 09:22:42 GMT-0500 (Central Daylight Time),158388.89999997616,124_o_f_h_a.png,O,m,1190,11,1,1990.0999999046326,156398.80000007153,7088,VNB,A,10
11,prac,1,0.0,1-Back,1,m,Wed Apr 02 2025 09:22:42 GMT-0500 (Central Daylight Time),159853.0,109_y_m_d_a.png,O,m,683,12,1,1451.7999999523163,158401.20000004768,7088,VNB,A,11
0,test,1,0.0,1-Back,,,Wed Apr 02 2025 09:22:42 GMT-0500 (Central Daylight Time),159853.0,071_y_f_d_a.png,O,space,7349,1,1,1451.7999999523163,158401.20000004768,7088,VNB,A,0
1,test,1,0.0,1-Back,1,m,Wed Apr 02 2025 09:22:42 GMT-0500 (Central Daylight Time),175580.39999997616,139_m_f_n_a.png,O,m,686,2,1,1703.2999999523163,173877.10000002384,7088,VNB,A,1
2,test,1,0.0,1-Back,1,m,Wed Apr 02 2025 09:22:42 GMT-0500 (Central Daylight Time),177513.0,039_o_m_h_a.png,O,m,902,3,1,1924.1999999284744,175588.80000007153,7088,VNB,A,2
3,test,1,1.0,1-Back,1,z,Wed Apr 02 2025 09:22:42 GMT-0500 (Central Daylight Time),179313.70000004768,165_m_m_h_a.png,O,z,775,4,1,1791.1000000238419,177522.60000002384,7088,VNB,A,3
4,test,1,0.0,1-Back,1,m,Wed Apr 02 2025 09:22:42 GMT-0500 (Central Daylight Time),181260.89999997616,124_o_f_n_a.png,O,m,919,5,1,1937.7999999523163,179323.10000002384,7088,VNB,A,4
5,test,1,0.0,1-Back,1,m,Wed Apr 02 2025 09:22:42 GMT-0500 (Central Daylight Time),183212.80000007153,109_y_m_d_a.png,O,m,918,6,1,1943.7000000476837,181269.10000002384,7088,VNB,A,5
5,test,1,1.0,1-Back,0,z,Wed Apr 02 2025 09:22:42 GMT-0500 (Central Daylight Time),185514.60000002384,139_m_f_d_a.png,O,m,1267,7,1,2293.100000023842,183221.5,7088,VNB,A,6
6,test,1,0.0,1-Back,1,m,Wed Apr 02 2025 09:22:42 GMT-0500 (Central Daylight Time),187409.30000007153,071_y_f_h_a.png,O,m,872,8,1,1888.8000000715256,185520.5,7088,VNB,A,7
7,test,1,0.0,1-Back,1,m,Wed Apr 02 2025 09:22:42 GMT-0500 (Central Daylight Time),189193.30000007153,039_o_m_n_a.png,O,m,751,9,1,1775.5,187417.80000007153,7088,VNB,A,8
8,test,1,0.0,1-Back,1,m,Wed Apr 02 2025 09:22:42 GMT-0500 (Central Daylight Time),192124.80000007153,109_y_m_h_a.png,O,m,1913,10,1,2921.7000000476837,189203.10000002384,7088,VNB,A,9
9,test,1,0.0,1-Back,1,m,Wed Apr 02 2025 09:22:42 GMT-0500 (Central Daylight Time),194158.0,039_o_m_d_a.png,O,m,1011,11,1,2024.1999999284744,192133.80000007153,7088,VNB,A,10
10,test,1,1.0,1-Back,1,z,Wed Apr 02 2025 09:22:42 GMT-0500 (Central Daylight Time),196091.39999997616,124_o_f_d_a.png,O,z,899,12,1,1924.7999999523163,194166.60000002384,7088,VNB,A,11
11,test,1,0.0,1-Back,1,m,Wed Apr 02 2025 09:22:42 GMT-0500 (Central Daylight Time),198089.39999997616,165_m_m_n_a.png,O,m,973,13,1,1988.6999999284744,196100.70000004768,7088,VNB,A,12
11,test,1,1.0,1-Back,0,z,Wed Apr 02 2025 09:22:42 GMT-0500 (Central Daylight Time),199872.0,071_y_f_n_a.png,O,m,760,14,1,1773.2999999523163,198098.70000004768,7088,VNB,A,13
12,test,1,0.0,1-Back,1,m,Wed Apr 02 2025 09:22:42 GMT-0500 (Central Daylight Time),201988.20000004768,139_m_f_h_a.png,O,m,1096,15,1,2105.5,199882.70000004768,7088,VNB,A,14
13,test,1,0.0,1-Back,1,m,Wed Apr 02 2025 09:22:42 GMT-0500 (Central Daylight Time),203988.30000007153,165_m_m_d_a.png,O,m,972,16,1,1990.0,201998.30000007153,7088,VNB,A,15
14,test,1,0.0,1-Back,1,m,Wed Apr 02 2025 09:22:42 GMT-0500 (Central Daylight Time),205654.10000002384,109_y_m_n_a.png,O,m,644,17,1,1655.0,203999.10000002384,7088,VNB,A,16
15,test,1,0.0,1-Back,1,m,Wed Apr 02 2025 09:22:42 GMT-0500 (Central Daylight Time),208236.80000007153,124_o_f_h_a.png,O,m,1553,18,1,2571.2000000476837,205665.60000002384,7088,VNB,A,17
0,test,2,0.0,1-Back,,,Wed Apr 02 2025 09:22:42 GMT-0500 (Central Daylight Time),208236.80000007153,109_y_m_n_a.png,O,space,2508,1,1,2571.2000000476837,205665.60000002384,7088,VNB,A,0
1,test,2,0.0,1-Back,1,m,Wed Apr 02 2025 09:22:42 GMT-0500 (Central Daylight Time),214967.0,071_y_f_h_a.png,O,m,1167,2,1,2190.100000023842,212776.89999997616,7088,VNB,A,1
2,test,2,1.0,1-Back,1,m,Wed Apr 02 2025 09:22:42 GMT-0500 (Central Daylight Time),216933.60000002384,039_o_m_n_a.png,O,m,945,3,1,1956.8999999761581,214976.70000004768,7088,VNB,A,2
3,test,2,0.0,1-Back,1,m,Wed Apr 02 2025 09:22:42 GMT-0500 (Central Daylight Time),218932.60000002384,139_m_f_d_a.png,O,m,969,4,1,1990.3999999761581,216942.20000004768,7088,VNB,A,3
4,test,2,0.0,1-Back,1,z,Wed Apr 02 2025 09:22:42 GMT-0500 (Central Daylight Time),220882.39999997616,165_m_m_d_a.png,O,z,923,5,1,1938.0999999046326,218944.30000007153,7088,VNB,A,4
5,test,2,0.0,1-Back,1,m,Wed Apr 02 2025 09:22:42 GMT-0500 (Central Daylight Time),222765.80000007153,109_y_m_h_a.png,O,m,852,6,1,1872.4000000953674,220893.39999997616,7088,VNB,A,5
6,test,2,1.0,1-Back,1,z,Wed Apr 02 2025 09:22:42 GMT-0500 (Central Daylight Time),224598.10000002384,124_o_f_h_a.png,O,z,801,7,1,1822.7999999523163,222775.30000007153,7088,VNB,A,6
7,test,2,0.0,1-Back,1,m,Wed Apr 02 2025 09:22:42 GMT-0500 (Central Daylight Time),226316.10000002384,139_m_f_n_a.png,O,m,690,8,1,1707.7999999523163,224608.30000007153,7088,VNB,A,7
8,test,2,0.0,1-Back,1,m,Wed Apr 02 2025 09:22:42 GMT-0500 (Central Daylight Time),228781.60000002384,071_y_f_d_a.png,O,m,1449,9,1,2455.7000000476837,226325.89999997616,7088,VNB,A,8
9,test,2,0.0,1-Back,1,m,Wed Apr 02 2025 09:22:42 GMT-0500 (Central Daylight Time),230730.70000004768,165_m_m_n_a.png,O,m,916,10,1,1940.0,228790.70000004768,7088,VNB,A,9
10,test,2,1.0,1-Back,1,m,Wed Apr 02 2025 09:22:42 GMT-0500 (Central Daylight Time),232545.0,139_m_f_h_a.png,O,m,781,11,1,1804.3999999761581,230740.60000002384,7088,VNB,A,10
11,test,2,0.0,1-Back,1,z,Wed Apr 02 2025 09:22:42 GMT-0500 (Central Daylight Time),234428.5,039_o_m_h_a.png,O,z,860,12,1,1875.1999999284744,232553.30000007153,7088,VNB,A,11
12,test,2,0.0,1-Back,1,m,Wed Apr 02 2025 09:22:42 GMT-0500 (Central Daylight Time),236213.10000002384,109_y_m_d_a.png,O,m,766,13,1,1774.1000000238419,234439.0,7088,VNB,A,12
13,test,2,0.0,1-Back,1,m,Wed Apr 02 2025 09:22:42 GMT-0500 (Central Daylight Time),238945.10000002384,124_o_f_n_a.png,O,m,1700,14,1,2721.7999999523163,236223.30000007153,7088,VNB,A,13
14,test,2,0.0,1-Back,1,z,Wed Apr 02 2025 09:22:42 GMT-0500 (Central Daylight Time),240995.80000007153,071_y_f_n_a.png,O,z,1033,15,1,2040.9000000953674,238954.89999997616,7088,VNB,A,14
14,test,2,1.0,1-Back,0,m,Wed Apr 02 2025 09:22:42 GMT-0500 (Central Daylight Time),244024.80000007153,165_m_m_h_a.png,O,None,2015,16,1,3020.5,241004.30000007153,7088,VNB,A,15
15,test,2,0.0,1-Back,1,m,Wed Apr 02 2025 09:22:42 GMT-0500 (Central Daylight Time),246158.20000004768,124_o_f_d_a.png,O,m,1102,17,1,2125.399999976158,244032.80000007153,7088,VNB,A,16
16,test,2,1.0,1-Back,1,z,Wed Apr 02 2025 09:22:42 GMT-0500 (Central Daylight Time),248226.5,039_o_m_d_a.png,O,z,1031,18,1,2058.399999976158,246168.10000002384,7088,VNB,A,17
0,test,3,1.0,1-Back,,,Wed Apr 02 2025 09:22:42 GMT-0500 (Central Daylight Time),248226.5,124_o_f_h_a.png,O,space,2350,1,1,2058.399999976158,246168.10000002384,7088,VNB,A,0
1,test,3,0.0,1-Back,1,m,Wed Apr 02 2025 09:22:42 GMT-0500 (Central Daylight Time),254458.0,139_m_f_d_a.png,O,m,800,2,1,1806.3999999761581,252651.60000002384,7088,VNB,A,1
1,test,3,1.0,1-Back,0,m,Wed Apr 02 2025 09:22:42 GMT-0500 (Central Daylight Time),256387.80000007153,165_m_m_n_a.png,O,z,905,3,1,1919.3000000715256,254468.5,7088,VNB,A,2
2,test,3,0.0,1-Back,1,z,Wed Apr 02 2025 09:22:42 GMT-0500 (Central Daylight Time),258772.20000004768,124_o_f_n_a.png,O,z,1366,4,1,2374.0,256398.20000004768,7088,VNB,A,3
3,test,3,1.0,1-Back,1,m,Wed Apr 02 2025 09:22:42 GMT-0500 (Central Daylight Time),260836.20000004768,039_o_m_d_a.png,O,m,1046,5,1,2054.8000000715256,258781.39999997616,7088,VNB,A,4
4,test,3,0.0,1-Back,1,m,Wed Apr 02 2025 09:22:42 GMT-0500 (Central Daylight Time),263069.0,071_y_f_h_a.png,O,m,1205,6,1,2225.7999999523163,260843.20000004768,7088,VNB,A,5
5,test,3,0.0,1-Back,1,z,Wed Apr 02 2025 09:22:42 GMT-0500 (Central Daylight Time),264836.8000000715,109_y_m_h_a.png,O,z,749,7,1,1758.3000000715256,263078.5,7088,VNB,A,6
6,test,3,0.0,1-Back,1,m,Wed Apr 02 2025 09:22:42 GMT-0500 (Central Daylight Time),266601.8000000715,139_m_f_n_a.png,O,m,741,8,1,1757.1000000238419,264844.7000000477,7088,VNB,A,7
7,test,3,0.0,1-Back,1,m,Wed Apr 02 2025 09:22:42 GMT-0500 (Central Daylight Time),268500.0,071_y_f_d_a.png,O,m,871,9,1,1887.5,266612.5,7088,VNB,A,8
8,test,3,1.0,1-Back,1,m,Wed Apr 02 2025 09:22:42 GMT-0500 (Central Daylight Time),270299.2000000477,039_o_m_n_a.png,O,m,770,10,1,1788.8999999761581,268510.3000000715,7088,VNB,A,9
9,test,3,0.0,1-Back,1,m,Wed Apr 02 2025 09:22:42 GMT-0500 (Central Daylight Time),272348.60000002384,165_m_m_h_a.png,O,m,1027,11,1,2039.7000000476837,270308.89999997616,7088,VNB,A,10
10,test,3,0.0,1-Back,1,z,Wed Apr 02 2025 09:22:42 GMT-0500 (Central Daylight Time),274199.60000002384,139_m_f_h_a.png,O,z,820,12,1,1842.5,272357.10000002384,7088,VNB,A,11
11,test,3,1.0,1-Back,1,m,Wed Apr 02 2025 09:22:42 GMT-0500 (Central Daylight Time),275932.10000002384,124_o_f_d_a.png,O,m,705,13,1,1722.3999999761581,274209.7000000477,7088,VNB,A,12
12,test,3,0.0,1-Back,1,z,Wed Apr 02 2025 09:22:42 GMT-0500 (Central Daylight Time),278063.60000002384,165_m_m_d_a.png,O,z,1099,14,1,2120.2000000476837,275943.39999997616,7088,VNB,A,13
13,test,3,0.0,1-Back,1,m,Wed Apr 02 2025 09:22:42 GMT-0500 (Central Daylight Time),279799.0,109_y_m_n_a.png,O,m,715,15,1,1728.1999999284744,278070.8000000715,7088,VNB,A,14
14,test,3,1.0,1-Back,1,m,Wed Apr 02 2025 09:22:42 GMT-0500 (Central Daylight Time),281496.89999997616,039_o_m_h_a.png,O,m,667,16,1,1691.8999999761581,279805.0,7088,VNB,A,15
15,test,3,0.0,1-Back,1,m,Wed Apr 02 2025 09:22:42 GMT-0500 (Central Daylight Time),283529.8000000715,109_y_m_d_a.png,O,m,999,17,1,2024.7000000476837,281505.10000002384,7088,VNB,A,16
16,test,3,1.0,1-Back,1,m,Wed Apr 02 2025 09:22:42 GMT-0500 (Central Daylight Time),285979.39999997616,071_y_f_n_a.png,O,m,1430,18,1,2439.0,283540.39999997616,7088,VNB,A,17
0,test,4,1.0,1-Back,,,Wed Apr 02 2025 09:22:42 GMT-0500 (Central Daylight Time),285979.39999997616,165_m_m_d_a.png,O,space,1309,1,1,2439.0,283540.39999997616,7088,VNB,A,0
1,test,4,0.0,1-Back,1,z,Wed Apr 02 2025 09:22:42 GMT-0500 (Central Daylight Time),291693.89999997616,039_o_m_d_a.png,O,z,1353,2,1,2373.1999999284744,289320.7000000477,7088,VNB,A,1
2,test,4,0.0,1-Back,1,m,Wed Apr 02 2025 09:22:42 GMT-0500 (Central Daylight Time),293691.89999997616,109_y_m_h_a.png,O,m,965,3,1,1988.8999999761581,291703.0,7088,VNB,A,2
3,test,4,0.0,1-Back,1,m,Wed Apr 02 2025 09:22:42 GMT-0500 (Central Daylight Time),295477.0,139_m_f_n_a.png,O,m,767,4,1,1774.0,293703.0,7088,VNB,A,3
4,test,4,1.0,1-Back,1,m,Wed Apr 02 2025 09:22:42 GMT-0500 (Central Daylight Time),297525.60000002384,124_o_f_h_a.png,O,m,1020,5,1,2039.7000000476837,295485.89999997616,7088,VNB,A,4
5,test,4,0.0,1-Back,1,m,Wed Apr 02 2025 09:22:42 GMT-0500 (Central Daylight Time),299426.39999997616,165_m_m_n_a.png,O,m,865,6,1,1890.5999999046326,297535.8000000715,7088,VNB,A,5
6,test,4,0.0,1-Back,1,m,Wed Apr 02 2025 09:22:42 GMT-0500 (Central Daylight Time),301322.8000000715,109_y_m_d_a.png,O,m,871,7,1,1885.9000000953674,299436.89999997616,7088,VNB,A,6
6,test,4,1.0,1-Back,0,z,Wed Apr 02 2025 09:22:42 GMT-0500 (Central Daylight Time),304340.60000002384,071_y_f_d_a.png,O,m,1988,8,1,3006.899999976158,301333.7000000477,7088,VNB,A,7
6,test,4,0.0,1-Back,0,m,Wed Apr 02 2025 09:22:42 GMT-0500 (Central Daylight Time),306290.0,139_m_f_h_a.png,O,z,934,9,1,1938.1000000238419,304351.89999997616,7088,VNB,A,8
7,test,4,0.0,1-Back,1,z,Wed Apr 02 2025 09:22:42 GMT-0500 (Central Daylight Time),308886.7000000477,039_o_m_h_a.png,O,z,1568,10,1,2585.2000000476837,306301.5,7088,VNB,A,9
8,test,4,1.0,1-Back,1,m,Wed Apr 02 2025 09:22:42 GMT-0500 (Central Daylight Time),311254.2000000477,124_o_f_n_a.png,O,m,1345,11,1,2357.7000000476837,308896.5,7088,VNB,A,10
9,test,4,0.0,1-Back,1,m,Wed Apr 02 2025 09:22:42 GMT-0500 (Central Daylight Time),313154.7000000477,139_m_f_d_a.png,O,m,882,12,1,1890.7000000476837,311264.0,7088,VNB,A,11
10,test,4,0.0,1-Back,1,m,Wed Apr 02 2025 09:22:42 GMT-0500 (Central Daylight Time),315552.89999997616,071_y_f_n_a.png,O,m,1367,13,1,2389.0,313163.89999997616,7088,VNB,A,12
11,test,4,0.0,1-Back,1,m,Wed Apr 02 2025 09:22:42 GMT-0500 (Central Daylight Time),317787.3000000715,124_o_f_d_a.png,O,m,1218,14,1,2224.600000023842,315562.7000000477,7088,VNB,A,13
12,test,4,0.0,1-Back,1,m,Wed Apr 02 2025 09:22:42 GMT-0500 (Central Daylight Time),320149.3000000715,071_y_f_h_a.png,O,m,1343,15,1,2354.7000000476837,317794.60000002384,7088,VNB,A,14
13,test,4,1.0,1-Back,1,z,Wed Apr 02 2025 09:22:42 GMT-0500 (Central Daylight Time),322082.3000000715,165_m_m_h_a.png,O,z,904,16,1,1924.1000000238419,320158.2000000477,7088,VNB,A,15
14,test,4,0.0,1-Back,1,m,Wed Apr 02 2025 09:22:42 GMT-0500 (Central Daylight Time),324316.7000000477,039_o_m_n_a.png,O,m,1205,17,1,2228.7000000476837,322088.0,7088,VNB,A,16
15,test,4,1.0,1-Back,1,z,Wed Apr 02 2025 09:22:42 GMT-0500 (Central Daylight Time),326734.5,109_y_m_n_a.png,O,z,1394,18,1,2408.7999999523163,324325.7000000477,7088,VNB,A,17
0,test,5,1.0,1-Back,,,Wed Apr 02 2025 09:22:42 GMT-0500 (Central Daylight Time),326734.5,039_o_m_n_a.png,O,space,1600,1,1,2408.7999999523163,324325.7000000477,7088,VNB,A,0
1,test,5,1.0,1-Back,1,m,Wed Apr 02 2025 09:22:42 GMT-0500 (Central Daylight Time),332197.2000000477,124_o_f_h_a.png,O,m,813,2,1,1820.6000000238419,330376.60000002384,7088,VNB,A,1
2,test,5,0.0,1-Back,1,m,Wed Apr 02 2025 09:22:42 GMT-0500 (Central Daylight Time),334263.3000000715,109_y_m_d_a.png,O,m,1045,3,1,2056.100000023842,332207.2000000477,7088,VNB,A,2
3,test,5,0.0,1-Back,1,z,Wed Apr 02 2025 09:22:42 GMT-0500 (Central Daylight Time),336096.10000002384,039_o_m_d_a.png,O,z,809,4,1,1822.6000000238419,334273.5,7088,VNB,A,3
4,test,5,0.0,1-Back,1,m,Wed Apr 02 2025 09:22:42 GMT-0500 (Central Daylight Time),337895.8000000715,139_m_f_h_a.png,O,m,768,5,1,1789.7000000476837,336106.10000002384,7088,VNB,A,4
5,test,5,0.0,1-Back,1,m,Wed Apr 02 2025 09:22:42 GMT-0500 (Central Daylight Time),339996.0,071_y_f_n_a.png,O,m,1083,6,1,2089.6999999284744,337906.3000000715,7088,VNB,A,5
6,test,5,1.0,1-Back,1,z,Wed Apr 02 2025 09:22:42 GMT-0500 (Central Daylight Time),342277.39999997616,124_o_f_n_a.png,O,z,1254,7,1,2274.899999976158,340002.5,7088,VNB,A,6
7,test,5,0.0,1-Back,1,m,Wed Apr 02 2025 09:22:42 GMT-0500 (Central Daylight Time),344276.3000000715,139_m_f_d_a.png,O,m,966,8,1,1987.7000000476837,342288.60000002384,7088,VNB,A,7
8,test,5,0.0,1-Back,1,m,Wed Apr 02 2025 09:22:42 GMT-0500 (Central Daylight Time),346011.3000000715,109_y_m_h_a.png,O,m,717,9,1,1725.0,344286.3000000715,7088,VNB,A,8
9,test,5,0.0,1-Back,1,m,Wed Apr 02 2025 09:22:42 GMT-0500 (Central Daylight Time),348008.60000002384,071_y_f_d_a.png,O,m,976,10,1,1986.2999999523163,346022.3000000715,7088,VNB,A,9
10,test,5,0.0,1-Back,1,m,Wed Apr 02 2025 09:22:42 GMT-0500 (Central Daylight Time),350392.3000000715,165_m_m_n_a.png,O,m,1350,11,1,2371.9000000953674,348020.39999997616,7088,VNB,A,10
11,test,5,1.0,1-Back,1,z,Wed Apr 02 2025 09:22:42 GMT-0500 (Central Daylight Time),352241.3000000715,139_m_f_n_a.png,O,z,831,12,1,1839.9000000953674,350401.39999997616,7088,VNB,A,11
12,test,5,0.0,1-Back,1,m,Wed Apr 02 2025 09:22:42 GMT-0500 (Central Daylight Time),354190.8000000715,039_o_m_h_a.png,O,m,918,13,1,1939.3000000715256,352251.5,7088,VNB,A,12
13,test,5,0.0,1-Back,1,z,Wed Apr 02 2025 09:22:42 GMT-0500 (Central Daylight Time),355923.8000000715,165_m_m_h_a.png,O,z,707,14,1,1724.0,354199.8000000715,7088,VNB,A,13
14,test,5,1.0,1-Back,1,m,Wed Apr 02 2025 09:22:42 GMT-0500 (Central Daylight Time),358039.89999997616,124_o_f_d_a.png,O,m,1093,15,1,2106.6999999284744,355933.2000000477,7088,VNB,A,14
15,test,5,0.0,1-Back,1,m,Wed Apr 02 2025 09:22:42 GMT-0500 (Central Daylight Time),359872.3000000715,109_y_m_n_a.png,O,m,809,16,1,1822.3000000715256,358050.0,7088,VNB,A,15
16,test,5,0.0,1-Back,1,m,Wed Apr 02 2025 09:22:42 GMT-0500 (Central Daylight Time),361854.0,071_y_f_h_a.png,O,m,952,17,1,1970.1999999284744,359883.8000000715,7088,VNB,A,16
17,test,5,0.0,1-Back,1,m,Wed Apr 02 2025 09:22:42 GMT-0500 (Central Daylight Time),364338.60000002384,165_m_m_d_a.png,O,m,1457,18,1,2475.5,361863.10000002384,7088,VNB,A,17
0,prac,1,0.0,2-Back,,,Wed Apr 02 2025 09:22:42 GMT-0500 (Central Daylight Time),364338.60000002384,139_m_f_n_a.png,O,space,3516,1,1,2475.5,361863.10000002384,7088,VNB,A,0
0,prac,1,0.0,2-Back,,,Wed Apr 02 2025 09:22:42 GMT-0500 (Central Daylight Time),364338.60000002384,124_o_f_h_a.png,O,space,3516,2,1,2475.5,361863.10000002384,7088,VNB,A,0
1,prac,1,0.0,2-Back,1,m,Wed Apr 02 2025 09:22:42 GMT-0500 (Central Daylight Time),457291.89999997616,039_o_m_d_a.png,O,m,1210,3,1,2008.1999999284744,455283.7000000477,7088,VNB,A,1
2,prac,1,1.0,2-Back,1,z,Wed Apr 02 2025 09:22:42 GMT-0500 (Central Daylight Time),459822.7000000477,165_m_m_h_a.png,O,z,1716,4,1,2520.8000000715256,457301.89999997616,7088,VNB,A,2
2,prac,1,0.0,2-Back,0,m,Wed Apr 02 2025 09:22:42 GMT-0500 (Central Daylight Time),462123.0,071_y_f_n_a.png,O,z,1512,5,1,2288.600000023842,459834.39999997616,7088,VNB,A,3
3,prac,1,1.0,2-Back,1,z,Wed Apr 02 2025 09:22:42 GMT-0500 (Central Daylight Time),464622.7000000477,039_o_m_h_a.png,O,z,1706,6,1,2487.899999976158,462134.8000000715,7088,VNB,A,4
3,prac,1,1.0,2-Back,0,z,Wed Apr 02 2025 09:22:42 GMT-0500 (Central Daylight Time),467388.60000002384,109_y_m_n_a.png,O,m,1952,7,1,2754.399999976158,464634.2000000477,7088,VNB,A,5
3,prac,1,0.0,2-Back,0,m,Wed Apr 02 2025 09:22:42 GMT-0500 (Central Daylight Time),470189.60000002384,139_m_f_d_a.png,O,None,2001,8,1,2790.899999976158,467398.7000000477,7088,VNB,A,6
3,prac,1,0.0,2-Back,0,m,Wed Apr 02 2025 09:22:42 GMT-0500 (Central Daylight Time),472653.39999997616,124_o_f_d_a.png,O,z,1651,9,1,2457.1999999284744,470196.2000000477,7088,VNB,A,7
3,prac,1,0.0,2-Back,0,m,Wed Apr 02 2025 09:22:42 GMT-0500 (Central Daylight Time),474820.0,165_m_m_h_a.png,O,z,1390,10,1,2153.100000023842,472666.89999997616,7088,VNB,A,8
3,prac,1,1.0,2-Back,0,z,Wed Apr 02 2025 09:22:42 GMT-0500 (Central Daylight Time),476953.5,071_y_f_d_a.png,O,m,1335,11,1,2123.0,474830.5,7088,VNB,A,9
3,prac,1,0.0,2-Back,0,m,Wed Apr 02 2025 09:22:42 GMT-0500 (Central Daylight Time),479750.5,039_o_m_n_a.png,O,None,2003,12,1,2787.6999999284744,476962.8000000715,7088,VNB,A,10
0,prac,2,0.0,2-Back,,,Wed Apr 02 2025 09:22:42 GMT-0500 (Central Daylight Time),479750.5,139_m_f_n_a.png,O,a,5069,1,1,2787.6999999284744,476962.8000000715,7088,VNB,A,0
0,prac,2,0.0,2-Back,,,Wed Apr 02 2025 09:22:42 GMT-0500 (Central Daylight Time),479750.5,124_o_f_h_a.png,O,a,5069,2,1,2787.6999999284744,476962.8000000715,7088,VNB,A,0
1,prac,2,0.0,2-Back,1,m,Wed Apr 02 2025 09:22:42 GMT-0500 (Central Daylight Time),492113.10000002384,039_o_m_d_a.png,O,m,1386,3,1,2158.2999999523163,489954.8000000715,7088,VNB,A,1
2,prac,2,1.0,2-Back,1,z,Wed Apr 02 2025 09:22:42 GMT-0500 (Central Daylight Time),493847.10000002384,165_m_m_h_a.png,O,z,957,4,1,1723.7000000476837,492123.39999997616,7088,VNB,A,2
3,prac,2,0.0,2-Back,1,m,Wed Apr 02 2025 09:22:42 GMT-0500 (Central Daylight Time),496113.5,071_y_f_n_a.png,O,m,1449,5,1,2255.0,493858.5,7088,VNB,A,3
4,prac,2,1.0,2-Back,1,z,Wed Apr 02 2025 09:22:42 GMT-0500 (Central Daylight Time),498544.2000000477,039_o_m_h_a.png,O,z,1635,6,1,2420.100000023842,496124.10000002384,7088,VNB,A,4
4,prac,2,1.0,2-Back,0,z,Wed Apr 02 2025 09:22:42 GMT-0500 (Central Daylight Time),500461.0,109_y_m_n_a.png,O,m,1109,7,1,1904.2999999523163,498556.7000000477,7088,VNB,A,5
5,prac,2,0.0,2-Back,1,m,Wed Apr 02 2025 09:22:42 GMT-0500 (Central Daylight Time),503026.8000000715,139_m_f_d_a.png,O,m,1771,8,1,2554.7000000476837,500472.10000002384,7088,VNB,A,6
6,prac,2,0.0,2-Back,1,m,Wed Apr 02 2025 09:22:42 GMT-0500 (Central Daylight Time),505491.89999997616,124_o_f_d_a.png,O,m,1627,9,1,2454.2999999523163,503037.60000002384,7088,VNB,A,7
7,prac,2,0.0,2-Back,1,m,Wed Apr 02 2025 09:22:42 GMT-0500 (Central Daylight Time),507642.60000002384,165_m_m_h_a.png,O,m,1361,10,1,2138.899999976158,505503.7000000477,7088,VNB,A,8
8,prac,2,1.0,2-Back,1,z,Wed Apr 02 2025 09:22:42 GMT-0500 (Central Daylight Time),509906.5,071_y_f_d_a.png,O,z,1455,11,1,2253.0,507653.5,7088,VNB,A,9
9,prac,2,0.0,2-Back,1,m,Wed Apr 02 2025 09:22:42 GMT-0500 (Central Daylight Time),512373.7000000477,039_o_m_n_a.png,O,m,1657,12,1,2457.5,509916.2000000477,7088,VNB,A,10
0,test,1,0.0,2-Back,,,Wed Apr 02 2025 09:22:42 GMT-0500 (Central Daylight Time),512373.7000000477,109_y_m_h_a.png,O,space,4517,1,1,2457.5,509916.2000000477,7088,VNB,A,0
0,test,1,0.0,2-Back,,,Wed Apr 02 2025 09:22:42 GMT-0500 (Central Daylight Time),512373.7000000477,124_o_f_n_a.png,O,space,4517,2,1,2457.5,509916.2000000477,7088,VNB,A,0
1,test,1,0.0,2-Back,1,z,Wed Apr 02 2025 09:22:42 GMT-0500 (Central Daylight Time),531234.3999999762,039_o_m_h_a.png,O,z,1107,3,1,2122.0999999046326,529112.3000000715,7088,VNB,A,1
1,test,1,0.0,2-Back,0,m,Wed Apr 02 2025 09:22:42 GMT-0500 (Central Daylight Time),534266.0,139_m_f_d_a.png,O,None,2014,4,1,3023.1999999284744,531242.8000000715,7088,VNB,A,2
1,test,1,1.0,2-Back,0,m,Wed Apr 02 2025 09:22:42 GMT-0500 (Central Daylight Time),536382.7000000477,109_y_m_n_a.png,O,z,1085,5,1,2108.600000023842,534274.1000000238,7088,VNB,A,3
2,test,1,0.0,2-Back,1,z,Wed Apr 02 2025 09:22:42 GMT-0500 (Central Daylight Time),538831.3000000715,071_y_f_d_a.png,O,z,1425,6,1,2438.3000000715256,536393.0,7088,VNB,A,4
3,test,1,0.0,2-Back,1,m,Wed Apr 02 2025 09:22:42 GMT-0500 (Central Daylight Time),540746.2000000477,165_m_m_h_a.png,O,m,889,7,1,1906.2000000476837,538840.0,7088,VNB,A,5
4,test,1,1.0,2-Back,1,m,Wed Apr 02 2025 09:22:42 GMT-0500 (Central Daylight Time),543462.7000000477,071_y_f_n_a.png,O,m,1685,8,1,2711.100000023842,540751.6000000238,7088,VNB,A,6
5,test,1,0.0,2-Back,1,z,Wed Apr 02 2025 09:22:42 GMT-0500 (Central Daylight Time),545678.0,124_o_f_h_a.png,O,z,1193,9,1,2205.5,543472.5,7088,VNB,A,7
6,test,1,0.0,2-Back,1,m,Wed Apr 02 2025 09:22:42 GMT-0500 (Central Daylight Time),548011.8000000715,039_o_m_d_a.png,O,m,1306,10,1,2325.2000000476837,545686.6000000238,7088,VNB,A,8
7,test,1,1.0,2-Back,1,m,Wed Apr 02 2025 09:22:42 GMT-0500 (Central Daylight Time),550394.8999999762,165_m_m_d_a.png,O,m,1357,11,1,2373.5999999046326,548021.3000000715,7088,VNB,A,9
8,test,1,0.0,2-Back,1,m,Wed Apr 02 2025 09:22:42 GMT-0500 (Central Daylight Time),552609.7000000477,139_m_f_n_a.png,O,m,1189,12,1,2205.5,550404.2000000477,7088,VNB,A,10
9,test,1,0.0,2-Back,1,m,Wed Apr 02 2025 09:22:42 GMT-0500 (Central Daylight Time),554809.0,071_y_f_h_a.png,O,m,1174,13,1,2190.6999999284744,552618.3000000715,7088,VNB,A,11
9,test,1,0.0,2-Back,0,z,Wed Apr 02 2025 09:22:42 GMT-0500 (Central Daylight Time),557225.1000000238,165_m_m_n_a.png,O,m,1382,14,1,2407.2000000476837,554817.8999999762,7088,VNB,A,12
9,test,1,0.0,2-Back,0,m,Wed Apr 02 2025 09:22:42 GMT-0500 (Central Daylight Time),559523.8999999762,109_y_m_d_a.png,O,z,1270,15,1,2288.899999976158,557235.0,7088,VNB,A,13
10,test,1,1.0,2-Back,1,m,Wed Apr 02 2025 09:22:42 GMT-0500 (Central Daylight Time),561861.8999999762,139_m_f_h_a.png,O,m,1299,16,1,2328.899999976158,559533.0,7088,VNB,A,14
10,test,1,0.0,2-Back,0,z,Wed Apr 02 2025 09:22:42 GMT-0500 (Central Daylight Time),564523.6000000238,124_o_f_d_a.png,O,m,1648,17,1,2656.2000000476837,561867.3999999762,7088,VNB,A,15
11,test,1,0.0,2-Back,1,m,Wed Apr 02 2025 09:22:42 GMT-0500 (Central Daylight Time),566889.2000000477,039_o_m_n_a.png,O,m,1349,18,1,2355.8000000715256,564533.3999999762,7088,VNB,A,16
0,test,2,0.0,2-Back,,,Wed Apr 02 2025 09:22:42 GMT-0500 (Central Daylight Time),566889.2000000477,165_m_m_h_a.png,O,space,2287,1,1,2355.8000000715256,564533.3999999762,7088,VNB,A,0
0,test,2,0.0,2-Back,,,Wed Apr 02 2025 09:22:42 GMT-0500 (Central Daylight Time),566889.2000000477,071_y_f_n_a.png,O,space,2287,2,1,2355.8000000715256,564533.3999999762,7088,VNB,A,0
1,test,2,1.0,2-Back,1,z,Wed Apr 02 2025 09:22:42 GMT-0500 (Central Daylight Time),576536.0,124_o_f_h_a.png,O,z,1240,3,1,2256.399999976158,574279.6000000238,7088,VNB,A,1
2,test,2,0.0,2-Back,1,m,Wed Apr 02 2025 09:22:42 GMT-0500 (Central Daylight Time),578734.8000000715,039_o_m_d_a.png,O,m,1176,4,1,2189.0,576545.8000000715,7088,VNB,A,2
3,test,2,0.0,2-Back,1,m,Wed Apr 02 2025 09:22:42 GMT-0500 (Central Daylight Time),581251.8999999762,139_m_f_d_a.png,O,m,1488,5,1,2508.0,578743.8999999762,7088,VNB,A,3
3,test,2,0.0,2-Back,0,m,Wed Apr 02 2025 09:22:42 GMT-0500 (Central Daylight Time),583300.2000000477,109_y_m_h_a.png,O,z,1030,6,1,2037.7000000476837,581262.5,7088,VNB,A,4
4,test,2,0.0,2-Back,1,m,Wed Apr 02 2025 09:22:42 GMT-0500 (Central Daylight Time),586135.0,124_o_f_n_a.png,O,m,1815,7,1,2823.1999999284744,583311.8000000715,7088,VNB,A,5
4,test,2,1.0,2-Back,0,z,Wed Apr 02 2025 09:22:42 GMT-0500 (Central Daylight Time),588997.8999999762,039_o_m_h_a.png,O,m,1843,8,1,2852.2999999523163,586145.6000000238,7088,VNB,A,6
4,test,2,0.0,2-Back,0,m,Wed Apr 02 2025 09:22:42 GMT-0500 (Central Daylight Time),592030.7000000477,071_y_f_d_a.png,O,None,2012,9,1,3021.399999976158,589009.3000000715,7088,VNB,A,7
4,test,2,0.0,2-Back,0,m,Wed Apr 02 2025 09:22:42 GMT-0500 (Central Daylight Time),594299.6000000238,109_y_m_d_a.png,O,z,1232,10,1,2259.399999976158,592040.2000000477,7088,VNB,A,8
5,test,2,0.0,2-Back,1,m,Wed Apr 02 2025 09:22:42 GMT-0500 (Central Daylight Time),596746.2000000477,165_m_m_n_a.png,O,m,1423,11,1,2435.899999976158,594310.3000000715,7088,VNB,A,9
5,test,2,0.0,2-Back,0,m,Wed Apr 02 2025 09:22:42 GMT-0500 (Central Daylight Time),599362.8000000715,139_m_f_h_a.png,O,z,1590,12,1,2605.3000000715256,596757.5,7088,VNB,A,10
6,test,2,1.0,2-Back,1,z,Wed Apr 02 2025 09:22:42 GMT-0500 (Central Daylight Time),602028.3999999762,039_o_m_n_a.png,O,z,1637,13,1,2655.0999999046326,599373.3000000715,7088,VNB,A,11
7,test,2,0.0,2-Back,1,m,Wed Apr 02 2025 09:22:42 GMT-0500 (Central Daylight Time),604243.1000000238,124_o_f_d_a.png,O,m,1197,14,1,2205.0,602038.1000000238,7088,VNB,A,12
8,test,2,0.0,2-Back,1,m,Wed Apr 02 2025 09:22:42 GMT-0500 (Central Daylight Time),606775.5,071_y_f_h_a.png,O,m,1507,15,1,2521.6999999284744,604253.8000000715,7088,VNB,A,13
8,test,2,0.0,2-Back,0,z,Wed Apr 02 2025 09:22:42 GMT-0500 (Central Daylight Time),609776.2000000477,165_m_m_d_a.png,O,m,1977,16,1,2988.3000000715256,606787.8999999762,7088,VNB,A,14
9,test,2,0.0,2-Back,1,m,Wed Apr 02 2025 09:22:42 GMT-0500 (Central Daylight Time),611874.3999999762,109_y_m_n_a.png,O,m,1072,17,1,2090.0999999046326,609784.3000000715,7088,VNB,A,15
9,test,2,1.0,2-Back,0,m,Wed Apr 02 2025 09:22:42 GMT-0500 (Central Daylight Time),613975.2000000477,139_m_f_n_a.png,O,z,1067,18,1,2091.0,611884.2000000477,7088,VNB,A,16
0,test,3,1.0,2-Back,,,Wed Apr 02 2025 09:22:42 GMT-0500 (Central Daylight Time),613975.2000000477,039_o_m_n_a.png,O,space,9545,1,1,2091.0,611884.2000000477,7088,VNB,A,0
0,test,3,1.0,2-Back,,,Wed Apr 02 2025 09:22:42 GMT-0500 (Central Daylight Time),613975.2000000477,124_o_f_d_a.png,O,space,9545,2,1,2091.0,611884.2000000477,7088,VNB,A,0
1,test,3,0.0,2-Back,1,m,Wed Apr 02 2025 09:22:42 GMT-0500 (Central Daylight Time),630618.5,071_y_f_h_a.png,O,m,1030,3,1,2039.1000000238419,628579.3999999762,7088,VNB,A,1
2,test,3,0.0,2-Back,1,z,Wed Apr 02 2025 09:22:42 GMT-0500 (Central Daylight Time),632784.3000000715,139_m_f_d_a.png,O,z,1140,4,1,2157.8000000715256,630626.5,7088,VNB,A,2
2,test,3,1.0,2-Back,0,m,Wed Apr 02 2025 09:22:42 GMT-0500 (Central Daylight Time),635452.7000000477,109_y_m_n_a.png,O,z,1650,5,1,2658.600000023842,632794.1000000238,7088,VNB,A,3
3,test,3,0.0,2-Back,1,m,Wed Apr 02 2025 09:22:42 GMT-0500 (Central Daylight Time),637850.0,039_o_m_h_a.png,O,m,1374,6,1,2387.100000023842,635462.8999999762,7088,VNB,A,4
4,test,3,0.0,2-Back,1,z,Wed Apr 02 2025 09:22:42 GMT-0500 (Central Daylight Time),640165.6000000238,071_y_f_n_a.png,O,z,1286,7,1,2306.399999976158,637859.2000000477,7088,VNB,A,5
5,test,3,1.0,2-Back,1,m,Wed Apr 02 2025 09:22:42 GMT-0500 (Central Daylight Time),642866.3999999762,165_m_m_d_a.png,O,m,1682,8,1,2690.5999999046326,640175.8000000715,7088,VNB,A,6
5,test,3,0.0,2-Back,0,m,Wed Apr 02 2025 09:22:42 GMT-0500 (Central Daylight Time),645897.3000000715,109_y_m_d_a.png,O,None,2015,9,1,3022.7000000476837,642874.6000000238,7088,VNB,A,7
6,test,3,0.0,2-Back,1,m,Wed Apr 02 2025 09:22:42 GMT-0500 (Central Daylight Time),648229.8999999762,124_o_f_h_a.png,O,m,1302,10,1,2321.899999976158,645908.0,7088,VNB,A,8
6,test,3,1.0,2-Back,0,m,Wed Apr 02 2025 09:22:42 GMT-0500 (Central Daylight Time),651263.2000000477,139_m_f_n_a.png,O,None,2016,11,1,3022.399999976158,648240.8000000715,7088,VNB,A,9
7,test,3,1.0,2-Back,1,z,Wed Apr 02 2025 09:22:42 GMT-0500 (Central Daylight Time),653477.7000000477,165_m_m_h_a.png,O,z,1194,12,1,2205.0,651272.7000000477,7088,VNB,A,10
8,test,3,0.0,2-Back,1,m,Wed Apr 02 2025 09:22:42 GMT-0500 (Central Daylight Time),656260.8000000715,071_y_f_d_a.png,O,m,1754,13,1,2772.8000000715256,653488.0,7088,VNB,A,11
9,test,3,0.0,2-Back,1,m,Wed Apr 02 2025 09:22:42 GMT-0500 (Central Daylight Time),659143.6000000238,124_o_f_n_a.png,O,m,1860,14,1,2872.7000000476837,656270.8999999762,7088,VNB,A,12
9,test,3,0.0,2-Back,0,z,Wed Apr 02 2025 09:22:42 GMT-0500 (Central Daylight Time),661842.6000000238,039_o_m_d_a.png,O,m,1681,15,1,2688.600000023842,659154.0,7088,VNB,A,13
10,test,3,1.0,2-Back,1,m,Wed Apr 02 2025 09:22:42 GMT-0500 (Central Daylight Time),664357.8999999762,139_m_f_h_a.png,O,m,1485,16,1,2506.1999999284744,661851.7000000477,7088,VNB,A,14
10,test,3,0.0,2-Back,0,m,Wed Apr 02 2025 09:22:42 GMT-0500 (Central Daylight Time),667140.2000000477,165_m_m_n_a.png,O,z,1764,17,1,2771.899999976158,664368.3000000715,7088,VNB,A,15
10,test,3,0.0,2-Back,0,z,Wed Apr 02 2025 09:22:42 GMT-0500 (Central Daylight Time),669405.3000000715,109_y_m_h_a.png,O,m,1235,18,1,2255.100000023842,667150.2000000477,7088,VNB,A,16
0,test,4,0.0,2-Back,,,Wed Apr 02 2025 09:22:42 GMT-0500 (Central Daylight Time),669405.3000000715,139_m_f_n_a.png,O,space,10388,1,1,2255.100000023842,667150.2000000477,7088,VNB,A,0
0,test,4,0.0,2-Back,,,Wed Apr 02 2025 09:22:42 GMT-0500 (Central Daylight Time),669405.3000000715,039_o_m_n_a.png,O,space,10388,2,1,2255.100000023842,667150.2000000477,7088,VNB,A,0
1,test,4,1.0,2-Back,1,m,Wed Apr 02 2025 09:22:42 GMT-0500 (Central Daylight Time),686917.1000000238,109_y_m_h_a.png,O,m,1020,3,1,2040.0,684877.1000000238,7088,VNB,A,1
2,test,4,1.0,2-Back,1,m,Wed Apr 02 2025 09:22:42 GMT-0500 (Central Daylight Time),689116.8000000715,124_o_f_d_a.png,O,m,1180,4,1,2189.8000000715256,686927.0,7088,VNB,A,2
2,test,4,0.0,2-Back,0,z,Wed Apr 02 2025 09:22:42 GMT-0500 (Central Daylight Time),691598.8999999762,039_o_m_h_a.png,O,m,1460,5,1,2472.0999999046326,689126.8000000715,7088,VNB,A,3
2,test,4,0.0,2-Back,0,m,Wed Apr 02 2025 09:22:42 GMT-0500 (Central Daylight Time),694066.3999999762,165_m_m_n_a.png,O,z,1448,6,1,2458.0999999046326,691608.3000000715,7088,VNB,A,4
2,test,4,0.0,2-Back,0,m,Wed Apr 02 2025 09:22:42 GMT-0500 (Central Daylight Time),696763.8999999762,139_m_f_d_a.png,O,z,1678,7,1,2690.5999999046326,694073.3000000715,7088,VNB,A,5
2,test,4,0.0,2-Back,0,z,Wed Apr 02 2025 09:22:42 GMT-0500 (Central Daylight Time),699797.0,071_y_f_n_a.png,O,None,2016,8,1,3023.2999999523163,696773.7000000477,7088,VNB,A,6
2,test,4,1.0,2-Back,0,m,Wed Apr 02 2025 09:22:42 GMT-0500 (Central Daylight Time),702814.6000000238,124_o_f_h_a.png,O,None,2002,9,1,3007.399999976158,699807.2000000477,7088,VNB,A,7
2,test,4,0.0,2-Back,0,m,Wed Apr 02 2025 09:22:42 GMT-0500 (Central Daylight Time),705195.1000000238,165_m_m_h_a.png,O,z,1356,10,1,2374.7000000476837,702820.3999999762,7088,VNB,A,8
3,test,4,0.0,2-Back,1,m,Wed Apr 02 2025 09:22:42 GMT-0500 (Central Daylight Time),707476.3000000715,071_y_f_d_a.png,O,m,1260,11,1,2270.4000000953674,705205.8999999762,7088,VNB,A,9
4,test,4,0.0,2-Back,1,m,Wed Apr 02 2025 09:22:42 GMT-0500 (Central Daylight Time),709878.7000000477,109_y_m_n_a.png,O,m,1370,12,1,2392.399999976158,707486.3000000715,7088,VNB,A,10
5,test,4,0.0,2-Back,1,z,Wed Apr 02 2025 09:22:42 GMT-0500 (Central Daylight Time),712159.2000000477,039_o_m_d_a.png,O,z,1259,13,1,2269.5,709889.7000000477,7088,VNB,A,11
6,test,4,1.0,2-Back,1,m,Wed Apr 02 2025 09:22:42 GMT-0500 (Central Daylight Time),714358.8999999762,139_m_f_h_a.png,O,m,1168,14,1,2190.5999999046326,712168.3000000715,7088,VNB,A,12
6,test,4,1.0,2-Back,0,m,Wed Apr 02 2025 09:22:42 GMT-0500 (Central Daylight Time),716574.6000000238,071_y_f_h_a.png,O,z,1182,15,1,2206.5,714368.1000000238,7088,VNB,A,13
7,test,4,0.0,2-Back,1,m,Wed Apr 02 2025 09:22:42 GMT-0500 (Central Daylight Time),719257.3000000715,124_o_f_n_a.png,O,m,1657,16,1,2672.7000000476837,716584.6000000238,7088,VNB,A,14
7,test,4,0.0,2-Back,0,m,Wed Apr 02 2025 09:22:42 GMT-0500 (Central Daylight Time),722039.1000000238,109_y_m_d_a.png,O,z,1751,17,1,2769.100000023842,719270.0,7088,VNB,A,15
8,test,4,1.0,2-Back,1,m,Wed Apr 02 2025 09:22:42 GMT-0500 (Central Daylight Time),724707.0,165_m_m_d_a.png,O,m,1649,18,1,2656.7999999523163,722050.2000000477,7088,VNB,A,16
0,test,5,1.0,2-Back,,,Wed Apr 02 2025 09:22:42 GMT-0500 (Central Daylight Time),724707.0,071_y_f_d_a.png,O,space,7549,1,1,2656.7999999523163,722050.2000000477,7088,VNB,A,0
0,test,5,1.0,2-Back,,,Wed Apr 02 2025 09:22:42 GMT-0500 (Central Daylight Time),724707.0,124_o_f_h_a.png,O,space,7549,2,1,2656.7999999523163,722050.2000000477,7088,VNB,A,0
0,test,5,1.0,2-Back,0,z,Wed Apr 02 2025 09:22:42 GMT-0500 (Central Daylight Time),740400.1000000238,039_o_m_d_a.png,O,None,2014,3,1,3020.7999999523163,737379.3000000715,7088,VNB,A,1
0,test,5,1.0,2-Back,0,m,Wed Apr 02 2025 09:22:42 GMT-0500 (Central Daylight Time),743432.2000000477,139_m_f_n_a.png,O,None,2014,4,1,3021.2000000476837,740411.0,7088,VNB,A,2
0,test,5,0.0,2-Back,0,m,Wed Apr 02 2025 09:22:42 GMT-0500 (Central Daylight Time),745598.6000000238,165_m_m_h_a.png,O,z,1134,5,1,2155.2000000476837,743443.3999999762,7088,VNB,A,3
1,test,5,0.0,2-Back,1,z,Wed Apr 02 2025 09:22:42 GMT-0500 (Central Daylight Time),748132.3999999762,071_y_f_n_a.png,O,z,1515,6,1,2523.7999999523163,745608.6000000238,7088,VNB,A,4
2,test,5,0.0,2-Back,1,m,Wed Apr 02 2025 09:22:42 GMT-0500 (Central Daylight Time),750030.0,124_o_f_d_a.png,O,m,877,7,1,1887.2999999523163,748142.7000000477,7088,VNB,A,5
3,test,5,0.0,2-Back,1,m,Wed Apr 02 2025 09:22:42 GMT-0500 (Central Daylight Time),752563.0,039_o_m_h_a.png,O,m,1515,8,1,2523.1999999284744,750039.8000000715,7088,VNB,A,6
3,test,5,1.0,2-Back,0,z,Wed Apr 02 2025 09:22:42 GMT-0500 (Central Daylight Time),754896.2000000477,139_m_f_d_a.png,O,m,1310,9,1,2325.600000023842,752570.6000000238,7088,VNB,A,7
3,test,5,0.0,2-Back,0,m,Wed Apr 02 2025 09:22:42 GMT-0500 (Central Daylight Time),757228.1000000238,109_y_m_n_a.png,O,z,1310,10,1,2321.0,754907.1000000238,7088,VNB,A,8
3,test,5,0.0,2-Back,0,m,Wed Apr 02 2025 09:22:42 GMT-0500 (Central Daylight Time),759793.6000000238,165_m_m_n_a.png,O,z,1539,11,1,2554.899999976158,757238.7000000477,7088,VNB,A,9
4,test,5,0.0,2-Back,1,m,Wed Apr 02 2025 09:22:42 GMT-0500 (Central Daylight Time),762277.3999999762,071_y_f_h_a.png,O,m,1451,12,1,2474.2999999523163,759803.1000000238,7088,VNB,A,10
4,test,5,0.0,2-Back,0,m,Wed Apr 02 2025 09:22:42 GMT-0500 (Central Daylight Time),765309.0,109_y_m_d_a.png,O,None,2013,13,1,3021.100000023842,762287.8999999762,7088,VNB,A,11
5,test,5,1.0,2-Back,1,z,Wed Apr 02 2025 09:22:42 GMT-0500 (Central Daylight Time),767592.8000000715,139_m_f_h_a.png,O,z,1251,14,1,2275.2000000476837,765317.6000000238,7088,VNB,A,12
6,test,5,0.0,2-Back,1,m,Wed Apr 02 2025 09:22:42 GMT-0500 (Central Daylight Time),770425.0,039_o_m_n_a.png,O,m,1798,15,1,2822.600000023842,767602.3999999762,7088,VNB,A,13
7,test,5,0.0,2-Back,1,m,Wed Apr 02 2025 09:22:42 GMT-0500 (Central Daylight Time),772788.8999999762,165_m_m_d_a.png,O,m,1343,16,1,2354.5999999046326,770434.3000000715,7088,VNB,A,14
8,test,5,0.0,2-Back,1,z,Wed Apr 02 2025 09:22:42 GMT-0500 (Central Daylight Time),774855.8000000715,124_o_f_n_a.png,O,z,1042,17,1,2057.9000000953674,772797.8999999762,7088,VNB,A,15
8,test,5,1.0,2-Back,0,m,Wed Apr 02 2025 09:22:42 GMT-0500 (Central Daylight Time),777421.1000000238,109_y_m_h_a.png,O,z,1542,18,1,2555.5,774865.6000000238,7088,VNB,A,16
