acc_sum,block,block_c,change,condition,correct,correct_response,datetime,endtime,face,project,response,response_time,row_sel,session_number,start_end,starttime,subject_id,task,task_vers,trial
0,prac,1,,1-Back,,,Fri Apr 04 2025 13:18:23 GMT-0500 (Central Daylight Time),,097_m_f_n_a.png,O,space,7726,1,1,,,7097,NNB,B,0
1,prac,1,0.0,1-Back,1,m,Fri Apr 04 2025 13:18:23 GMT-0500 (Central Daylight Time),124296.69999998808,152_y_f_n_a.png,O,m,824,2,1,1715.699999988079,122581.0,7097,NNB,B,1
2,prac,1,1.0,1-Back,1,z,Fri Apr 04 2025 13:18:23 GMT-0500 (Central Daylight Time),126045.89999997616,152_y_f_n_a.png,O,z,944,3,1,1724.1000000238419,124321.79999995232,7097,NNB,B,2
3,prac,1,0.0,1-Back,1,m,Fri Apr 04 2025 13:18:23 GMT-0500 (Central Daylight Time),127645.39999997616,176_o_m_n_a.png,O,m,649,4,1,1569.1000000238419,126076.29999995232,7097,NNB,B,3
4,prac,1,0.0,1-Back,1,m,Fri Apr 04 2025 13:18:23 GMT-0500 (Central Daylight Time),129711.19999998808,126_m_m_n_a.png,O,m,1135,5,1,2031.4000000357628,127679.79999995232,7097,NNB,B,4
5,prac,1,1.0,1-Back,1,z,Fri Apr 04 2025 13:18:23 GMT-0500 (Central Daylight Time),131444.39999997616,126_m_m_n_a.png,O,z,929,6,1,1701.699999988079,129742.69999998808,7097,NNB,B,5
6,prac,1,0.0,1-Back,1,m,Fri Apr 04 2025 13:18:23 GMT-0500 (Central Daylight Time),133360.19999998808,086_o_f_n_a.png,O,m,955,7,1,1880.4000000357628,131479.79999995232,7097,NNB,B,6
7,prac,1,0.0,1-Back,1,m,Fri Apr 04 2025 13:18:23 GMT-0500 (Central Daylight Time),135209.69999998808,178_m_m_n_a.png,O,m,925,8,1,1825.199999988079,133384.5,7097,NNB,B,7
8,prac,1,0.0,1-Back,1,m,Fri Apr 04 2025 13:18:23 GMT-0500 (Central Daylight Time),136825.59999996424,097_m_f_n_a.png,O,m,680,9,1,1587.5999999642372,135238.0,7097,NNB,B,8
9,prac,1,1.0,1-Back,1,z,Fri Apr 04 2025 13:18:23 GMT-0500 (Central Daylight Time),138408.29999995232,097_m_f_n_a.png,O,z,769,10,1,1550.3999999761581,136857.89999997616,7097,NNB,B,9
10,prac,1,0.0,1-Back,1,m,Fri Apr 04 2025 13:18:23 GMT-0500 (Central Daylight Time),140158.0,176_o_m_n_a.png,O,m,803,11,1,1715.1000000238419,138442.89999997616,7097,NNB,B,10
11,prac,1,0.0,1-Back,1,m,Fri Apr 04 2025 13:18:23 GMT-0500 (Central Daylight Time),142007.09999996424,173_y_f_n_a.png,O,m,898,12,1,1819.5999999642372,140187.5,7097,NNB,B,11
0,test,1,0.0,1-Back,,,Fri Apr 04 2025 13:18:23 GMT-0500 (Central Daylight Time),142007.09999996424,152_y_f_n_a.png,O,space,8080,1,1,1819.5999999642372,140187.5,7097,NNB,B,0
1,test,1,0.0,1-Back,1,m,Fri Apr 04 2025 13:18:23 GMT-0500 (Central Daylight Time),159968.09999996424,029_m_f_n_a.png,O,m,761,2,1,1774.800000011921,158193.29999995232,7097,NNB,B,1
2,test,1,0.0,1-Back,1,m,Fri Apr 04 2025 13:18:23 GMT-0500 (Central Daylight Time),161617.09999996424,173_y_f_n_a.png,O,m,609,3,1,1625.5999999642372,159991.5,7097,NNB,B,2
3,test,1,1.0,1-Back,1,z,Fri Apr 04 2025 13:18:23 GMT-0500 (Central Daylight Time),163183.19999998808,173_y_f_n_a.png,O,z,489,4,1,1540.699999988079,161642.5,7097,NNB,B,3
4,test,1,0.0,1-Back,1,m,Fri Apr 04 2025 13:18:23 GMT-0500 (Central Daylight Time),164732.09999996424,029_m_f_n_a.png,O,m,522,5,1,1537.5999999642372,163194.5,7097,NNB,B,4
5,test,1,0.0,1-Back,1,m,Fri Apr 04 2025 13:18:23 GMT-0500 (Central Daylight Time),166499.09999996424,176_o_m_n_a.png,O,m,741,6,1,1761.5,164737.59999996424,7097,NNB,B,5
6,test,1,1.0,1-Back,1,z,Fri Apr 04 2025 13:18:23 GMT-0500 (Central Daylight Time),168265.19999998808,176_o_m_n_a.png,O,z,726,7,1,1745.4000000357628,166519.79999995232,7097,NNB,B,6
7,test,1,0.0,1-Back,1,m,Fri Apr 04 2025 13:18:23 GMT-0500 (Central Daylight Time),169997.89999997616,126_m_m_n_a.png,O,m,696,8,1,1711.6000000238419,168286.29999995232,7097,NNB,B,7
8,test,1,0.0,1-Back,1,m,Fri Apr 04 2025 13:18:23 GMT-0500 (Central Daylight Time),171764.59999996424,086_o_f_n_a.png,O,m,731,9,1,1749.0,170015.59999996424,7097,NNB,B,8
9,test,1,0.0,1-Back,1,m,Fri Apr 04 2025 13:18:23 GMT-0500 (Central Daylight Time),173346.69999998808,126_m_m_n_a.png,O,m,533,10,1,1561.800000011921,171784.89999997616,7097,NNB,B,9
10,test,1,0.0,1-Back,1,m,Fri Apr 04 2025 13:18:23 GMT-0500 (Central Daylight Time),175163.09999996424,153_y_m_n_a.png,O,m,774,11,1,1799.0,173364.09999996424,7097,NNB,B,10
10,test,1,1.0,1-Back,0,z,Fri Apr 04 2025 13:18:23 GMT-0500 (Central Daylight Time),176895.59999996424,153_y_m_n_a.png,O,m,687,12,1,1715.199999988079,175180.39999997616,7097,NNB,B,11
11,test,1,0.0,1-Back,1,m,Fri Apr 04 2025 13:18:23 GMT-0500 (Central Daylight Time),178878.39999997616,110_o_f_n_a.png,O,m,946,13,1,1964.1000000238419,176914.29999995232,7097,NNB,B,12
12,test,1,1.0,1-Back,1,z,Fri Apr 04 2025 13:18:23 GMT-0500 (Central Daylight Time),180544.39999997616,110_o_f_n_a.png,O,z,619,14,1,1646.800000011921,178897.59999996424,7097,NNB,B,13
13,test,1,0.0,1-Back,1,m,Fri Apr 04 2025 13:18:23 GMT-0500 (Central Daylight Time),182277.19999998808,013_y_m_n_a.png,O,m,689,15,1,1714.800000011921,180562.39999997616,7097,NNB,B,14
14,test,1,0.0,1-Back,1,m,Fri Apr 04 2025 13:18:23 GMT-0500 (Central Daylight Time),184093.29999995232,097_m_f_n_a.png,O,m,772,16,1,1797.3999999761581,182295.89999997616,7097,NNB,B,15
15,test,1,0.0,1-Back,1,m,Fri Apr 04 2025 13:18:23 GMT-0500 (Central Daylight Time),185809.39999997616,065_o_m_n_a.png,O,m,678,17,1,1697.199999988079,184112.19999998808,7097,NNB,B,16
16,test,1,0.0,1-Back,1,m,Fri Apr 04 2025 13:18:23 GMT-0500 (Central Daylight Time),187425.79999995232,097_m_f_n_a.png,O,m,568,18,1,1596.7999999523163,185829.0,7097,NNB,B,17
0,test,2,0.0,1-Back,,,Fri Apr 04 2025 13:18:23 GMT-0500 (Central Daylight Time),187425.79999995232,126_m_m_n_a.png,O,space,4464,1,1,1596.7999999523163,185829.0,7097,NNB,B,0
1,test,2,0.0,1-Back,1,m,Fri Apr 04 2025 13:18:23 GMT-0500 (Central Daylight Time),195756.89999997616,029_m_f_n_a.png,O,m,666,2,1,1676.6000000238419,194080.29999995232,7097,NNB,B,1
2,test,2,1.0,1-Back,1,z,Fri Apr 04 2025 13:18:23 GMT-0500 (Central Daylight Time),197339.29999995232,029_m_f_n_a.png,O,z,533,3,1,1563.199999988079,195776.09999996424,7097,NNB,B,2
3,test,2,0.0,1-Back,1,m,Fri Apr 04 2025 13:18:23 GMT-0500 (Central Daylight Time),199038.39999997616,126_m_m_n_a.png,O,m,654,4,1,1680.8999999761581,197357.5,7097,NNB,B,3
4,test,2,0.0,1-Back,1,m,Fri Apr 04 2025 13:18:23 GMT-0500 (Central Daylight Time),200904.29999995232,153_y_m_n_a.png,O,m,819,5,1,1844.7999999523163,199059.5,7097,NNB,B,4
5,test,2,0.0,1-Back,1,m,Fri Apr 04 2025 13:18:23 GMT-0500 (Central Daylight Time),202603.29999995232,152_y_f_n_a.png,O,m,657,6,1,1680.8999999761581,200922.39999997616,7097,NNB,B,5
6,test,2,1.0,1-Back,1,z,Fri Apr 04 2025 13:18:23 GMT-0500 (Central Daylight Time),204386.69999998808,152_y_f_n_a.png,O,z,758,7,1,1777.1000000238419,202609.59999996424,7097,NNB,B,6
7,test,2,0.0,1-Back,1,m,Fri Apr 04 2025 13:18:23 GMT-0500 (Central Daylight Time),206036.89999997616,153_y_m_n_a.png,O,m,615,8,1,1629.699999988079,204407.19999998808,7097,NNB,B,7
8,test,2,0.0,1-Back,1,m,Fri Apr 04 2025 13:18:23 GMT-0500 (Central Daylight Time),207952.09999996424,110_o_f_n_a.png,O,m,877,9,1,1895.800000011921,206056.29999995232,7097,NNB,B,8
9,test,2,0.0,1-Back,1,m,Fri Apr 04 2025 13:18:23 GMT-0500 (Central Daylight Time),209618.59999996424,178_m_m_n_a.png,O,m,617,10,1,1647.5999999642372,207971.0,7097,NNB,B,9
10,test,2,1.0,1-Back,1,z,Fri Apr 04 2025 13:18:23 GMT-0500 (Central Daylight Time),211434.39999997616,178_m_m_n_a.png,O,z,767,11,1,1796.0,209638.39999997616,7097,NNB,B,10
11,test,2,0.0,1-Back,1,m,Fri Apr 04 2025 13:18:23 GMT-0500 (Central Daylight Time),213250.39999997616,110_o_f_n_a.png,O,m,775,12,1,1797.8999999761581,211452.5,7097,NNB,B,11
12,test,2,0.0,1-Back,1,m,Fri Apr 04 2025 13:18:23 GMT-0500 (Central Daylight Time),215149.79999995232,086_o_f_n_a.png,O,m,855,13,1,1880.3999999761581,213269.39999997616,7097,NNB,B,12
13,test,2,0.0,1-Back,1,m,Fri Apr 04 2025 13:18:23 GMT-0500 (Central Daylight Time),216949.29999995232,176_o_m_n_a.png,O,m,756,14,1,1777.699999988079,215171.59999996424,7097,NNB,B,13
14,test,2,0.0,1-Back,1,m,Fri Apr 04 2025 13:18:23 GMT-0500 (Central Daylight Time),218715.19999998808,065_o_m_n_a.png,O,m,716,15,1,1748.699999988079,216966.5,7097,NNB,B,14
15,test,2,1.0,1-Back,1,z,Fri Apr 04 2025 13:18:23 GMT-0500 (Central Daylight Time),220315.09999996424,065_o_m_n_a.png,O,z,550,16,1,1580.3999999761581,218734.69999998808,7097,NNB,B,15
16,test,2,0.0,1-Back,1,m,Fri Apr 04 2025 13:18:23 GMT-0500 (Central Daylight Time),221997.19999998808,013_y_m_n_a.png,O,m,647,17,1,1664.199999988079,220333.0,7097,NNB,B,16
17,test,2,1.0,1-Back,1,z,Fri Apr 04 2025 13:18:23 GMT-0500 (Central Daylight Time),223929.39999997616,013_y_m_n_a.png,O,z,891,18,1,1917.8999999761581,222011.5,7097,NNB,B,17
0,test,3,1.0,1-Back,,,Fri Apr 04 2025 13:18:23 GMT-0500 (Central Daylight Time),223929.39999997616,173_y_f_n_a.png,O,space,2266,1,1,1917.8999999761581,222011.5,7097,NNB,B,0
1,test,3,0.0,1-Back,1,m,Fri Apr 04 2025 13:18:23 GMT-0500 (Central Daylight Time),229943.89999997616,065_o_m_n_a.png,O,m,549,1,1,1576.199999988079,228367.69999998808,7097,NNB,B,1
2,test,3,1.0,1-Back,1,z,Fri Apr 04 2025 13:18:23 GMT-0500 (Central Daylight Time),231776.89999997616,065_o_m_n_a.png,O,z,800,1,1,1829.300000011921,229947.59999996424,7097,NNB,B,2
3,test,3,0.0,1-Back,1,m,Fri Apr 04 2025 13:18:23 GMT-0500 (Central Daylight Time),233693.5,097_m_f_n_a.png,O,m,896,1,1,1908.800000011921,231784.69999998808,7097,NNB,B,3
4,test,3,1.0,1-Back,1,z,Fri Apr 04 2025 13:18:23 GMT-0500 (Central Daylight Time),235659.19999998808,097_m_f_n_a.png,O,z,925,1,1,1948.300000011921,233710.89999997616,7097,NNB,B,4
5,test,3,0.0,1-Back,1,m,Fri Apr 04 2025 13:18:23 GMT-0500 (Central Daylight Time),237342.39999997616,110_o_f_n_a.png,O,m,662,1,1,1673.699999988079,235668.69999998808,7097,NNB,B,5
6,test,3,0.0,1-Back,1,m,Fri Apr 04 2025 13:18:23 GMT-0500 (Central Daylight Time),239157.5,153_y_m_n_a.png,O,m,778,1,1,1798.300000011921,237359.19999998808,7097,NNB,B,6
7,test,3,0.0,1-Back,1,m,Fri Apr 04 2025 13:18:23 GMT-0500 (Central Daylight Time),240757.89999997616,110_o_f_n_a.png,O,m,579,1,1,1595.8999999761581,239162.0,7097,NNB,B,7
8,test,3,0.0,1-Back,1,m,Fri Apr 04 2025 13:18:23 GMT-0500 (Central Daylight Time),242707.5,013_y_m_n_a.png,O,m,908,1,1,1930.800000011921,240776.69999998808,7097,NNB,B,8
9,test,3,1.0,1-Back,1,z,Fri Apr 04 2025 13:18:23 GMT-0500 (Central Daylight Time),244257.0,013_y_m_n_a.png,O,z,510,1,1,1532.2000000476837,242724.79999995232,7097,NNB,B,9
10,test,3,0.0,1-Back,1,m,Fri Apr 04 2025 13:18:23 GMT-0500 (Central Daylight Time),245873.0,029_m_f_n_a.png,O,m,577,1,1,1598.5,244274.5,7097,NNB,B,10
11,test,3,0.0,1-Back,1,m,Fri Apr 04 2025 13:18:23 GMT-0500 (Central Daylight Time),247622.5,152_y_f_n_a.png,O,m,704,1,1,1732.6000000238419,245889.89999997616,7097,NNB,B,11
12,test,3,1.0,1-Back,1,z,Fri Apr 04 2025 13:18:23 GMT-0500 (Central Daylight Time),249238.59999996424,152_y_f_n_a.png,O,z,571,1,1,1595.5999999642372,247643.0,7097,NNB,B,12
13,test,3,0.0,1-Back,1,m,Fri Apr 04 2025 13:18:23 GMT-0500 (Central Daylight Time),250837.69999998808,029_m_f_n_a.png,O,m,563,1,1,1569.699999988079,249268.0,7097,NNB,B,13
14,test,3,0.0,1-Back,1,m,Fri Apr 04 2025 13:18:23 GMT-0500 (Central Daylight Time),252604.09999996424,126_m_m_n_a.png,O,m,715,1,1,1741.0999999642372,250863.0,7097,NNB,B,14
15,test,3,1.0,1-Back,1,z,Fri Apr 04 2025 13:18:23 GMT-0500 (Central Daylight Time),254320.19999998808,126_m_m_n_a.png,O,z,677,1,1,1693.4000000357628,252626.79999995232,7097,NNB,B,15
16,test,3,0.0,1-Back,1,m,Fri Apr 04 2025 13:18:23 GMT-0500 (Central Daylight Time),256036.39999997616,086_o_f_n_a.png,O,m,665,1,1,1696.3999999761581,254340.0,7097,NNB,B,16
17,test,3,1.0,1-Back,1,z,Fri Apr 04 2025 13:18:23 GMT-0500 (Central Daylight Time),257769.19999998808,086_o_f_n_a.png,O,z,693,1,1,1711.9000000357628,256057.29999995232,7097,NNB,B,17
0,test,4,1.0,1-Back,,,Fri Apr 04 2025 13:18:23 GMT-0500 (Central Daylight Time),257769.19999998808,097_m_f_n_a.png,O,space,2609,1,1,1711.9000000357628,256057.29999995232,7097,NNB,B,0
1,test,4,0.0,1-Back,1,m,Fri Apr 04 2025 13:18:23 GMT-0500 (Central Daylight Time),264250.09999996424,065_o_m_n_a.png,O,m,667,2,1,1694.0,262556.09999996424,7097,NNB,B,1
1,test,4,0.0,1-Back,0,m,Fri Apr 04 2025 13:18:23 GMT-0500 (Central Daylight Time),266066.5,097_m_f_n_a.png,O,z,767,3,1,1798.6000000238419,264267.89999997616,7097,NNB,B,2
2,test,4,0.0,1-Back,1,m,Fri Apr 04 2025 13:18:23 GMT-0500 (Central Daylight Time),267882.59999996424,110_o_f_n_a.png,O,m,775,4,1,1798.300000011921,266084.2999999523,7097,NNB,B,3
3,test,4,1.0,1-Back,1,z,Fri Apr 04 2025 13:18:23 GMT-0500 (Central Daylight Time),269698.5,110_o_f_n_a.png,O,z,775,5,1,1797.9000000357628,267900.59999996424,7097,NNB,B,4
4,test,4,0.0,1-Back,1,m,Fri Apr 04 2025 13:18:23 GMT-0500 (Central Daylight Time),271664.39999997616,152_y_f_n_a.png,O,m,910,6,1,1934.300000011921,269730.09999996424,7097,NNB,B,5
5,test,4,0.0,1-Back,1,m,Fri Apr 04 2025 13:18:23 GMT-0500 (Central Daylight Time),273530.89999997616,153_y_m_n_a.png,O,m,816,7,1,1849.199999988079,271681.6999999881,7097,NNB,B,6
6,test,4,1.0,1-Back,1,z,Fri Apr 04 2025 13:18:23 GMT-0500 (Central Daylight Time),275080.09999996424,153_y_m_n_a.png,O,z,511,8,1,1526.3999999761581,273553.6999999881,7097,NNB,B,7
7,test,4,0.0,1-Back,1,m,Fri Apr 04 2025 13:18:23 GMT-0500 (Central Daylight Time),276862.6999999881,152_y_f_n_a.png,O,m,720,9,1,1763.699999988079,275099.0,7097,NNB,B,8
8,test,4,0.0,1-Back,1,m,Fri Apr 04 2025 13:18:23 GMT-0500 (Central Daylight Time),278512.39999997616,178_m_m_n_a.png,O,m,604,10,1,1631.1000000238419,276881.2999999523,7097,NNB,B,9
9,test,4,1.0,1-Back,1,z,Fri Apr 04 2025 13:18:23 GMT-0500 (Central Daylight Time),280261.5,178_m_m_n_a.png,O,z,712,11,1,1730.300000011921,278531.1999999881,7097,NNB,B,10
10,test,4,0.0,1-Back,1,m,Fri Apr 04 2025 13:18:23 GMT-0500 (Central Daylight Time),281894.5,086_o_f_n_a.png,O,m,595,12,1,1615.6000000238419,280278.89999997616,7097,NNB,B,11
11,test,4,0.0,1-Back,1,m,Fri Apr 04 2025 13:18:23 GMT-0500 (Central Daylight Time),283593.1999999881,176_o_m_n_a.png,O,m,650,13,1,1680.0,281913.1999999881,7097,NNB,B,12
12,test,4,0.0,1-Back,1,m,Fri Apr 04 2025 13:18:23 GMT-0500 (Central Daylight Time),285509.7999999523,086_o_f_n_a.png,O,m,896,14,1,1911.5999999642372,283598.1999999881,7097,NNB,B,13
13,test,4,0.0,1-Back,1,m,Fri Apr 04 2025 13:18:23 GMT-0500 (Central Daylight Time),287109.39999997616,173_y_f_n_a.png,O,m,565,15,1,1582.800000011921,285526.59999996424,7097,NNB,B,14
14,test,4,1.0,1-Back,1,z,Fri Apr 04 2025 13:18:23 GMT-0500 (Central Daylight Time),288858.2999999523,173_y_f_n_a.png,O,z,707,16,1,1731.5,287126.7999999523,7097,NNB,B,15
15,test,4,0.0,1-Back,1,m,Fri Apr 04 2025 13:18:23 GMT-0500 (Central Daylight Time),290508.89999997616,029_m_f_n_a.png,O,m,631,17,1,1645.699999988079,288863.1999999881,7097,NNB,B,16
16,test,4,1.0,1-Back,1,z,Fri Apr 04 2025 13:18:23 GMT-0500 (Central Daylight Time),292608.0,029_m_f_n_a.png,O,z,1053,18,1,2081.100000023842,290526.89999997616,7097,NNB,B,17
0,test,5,1.0,1-Back,,,Fri Apr 04 2025 13:18:23 GMT-0500 (Central Daylight Time),292608.0,176_o_m_n_a.png,O,space,1546,1,1,2081.100000023842,290526.89999997616,7097,NNB,B,0
1,test,5,1.0,1-Back,1,z,Fri Apr 04 2025 13:18:23 GMT-0500 (Central Daylight Time),298155.89999997616,176_o_m_n_a.png,O,z,807,2,1,1820.5,296335.39999997616,7097,NNB,B,1
2,test,5,0.0,1-Back,1,m,Fri Apr 04 2025 13:18:23 GMT-0500 (Central Daylight Time),299939.0,152_y_f_n_a.png,O,m,733,3,1,1765.800000011921,298173.1999999881,7097,NNB,B,2
3,test,5,0.0,1-Back,1,m,Fri Apr 04 2025 13:18:23 GMT-0500 (Central Daylight Time),301671.2999999523,153_y_m_n_a.png,O,m,687,4,1,1715.0,299956.2999999523,7097,NNB,B,3
4,test,5,0.0,1-Back,1,m,Fri Apr 04 2025 13:18:23 GMT-0500 (Central Daylight Time),303287.59999996424,152_y_f_n_a.png,O,m,570,5,1,1591.0,301696.59999996424,7097,NNB,B,4
5,test,5,0.0,1-Back,1,m,Fri Apr 04 2025 13:18:23 GMT-0500 (Central Daylight Time),305020.2999999523,126_m_m_n_a.png,O,m,690,6,1,1713.3999999761581,303306.89999997616,7097,NNB,B,5
6,test,5,1.0,1-Back,1,z,Fri Apr 04 2025 13:18:23 GMT-0500 (Central Daylight Time),306569.89999997616,126_m_m_n_a.png,O,z,509,7,1,1532.1000000238419,305037.7999999523,7097,NNB,B,6
7,test,5,0.0,1-Back,1,m,Fri Apr 04 2025 13:18:23 GMT-0500 (Central Daylight Time),308218.5,173_y_f_n_a.png,O,m,598,8,1,1630.0,306588.5,7097,NNB,B,7
7,test,5,0.0,1-Back,0,m,Fri Apr 04 2025 13:18:23 GMT-0500 (Central Daylight Time),309985.59999996424,013_y_m_n_a.png,O,z,744,9,1,1763.5,308222.09999996424,7097,NNB,B,8
8,test,5,0.0,1-Back,1,m,Fri Apr 04 2025 13:18:23 GMT-0500 (Central Daylight Time),312168.0,173_y_f_n_a.png,O,m,1144,10,1,2161.5,310006.5,7097,NNB,B,9
9,test,5,0.0,1-Back,1,m,Fri Apr 04 2025 13:18:23 GMT-0500 (Central Daylight Time),313884.1999999881,086_o_f_n_a.png,O,m,666,11,1,1696.6000000238419,312187.59999996424,7097,NNB,B,10
10,test,5,1.0,1-Back,1,z,Fri Apr 04 2025 13:18:23 GMT-0500 (Central Daylight Time),315766.7999999523,086_o_f_n_a.png,O,z,837,12,1,1864.7999999523163,313902.0,7097,NNB,B,11
11,test,5,0.0,1-Back,1,m,Fri Apr 04 2025 13:18:23 GMT-0500 (Central Daylight Time),317716.09999996424,065_o_m_n_a.png,O,m,907,13,1,1932.0999999642372,315784.0,7097,NNB,B,12
12,test,5,0.0,1-Back,1,m,Fri Apr 04 2025 13:18:23 GMT-0500 (Central Daylight Time),319348.89999997616,097_m_f_n_a.png,O,m,583,14,1,1611.8999999761581,317737.0,7097,NNB,B,13
13,test,5,1.0,1-Back,1,z,Fri Apr 04 2025 13:18:23 GMT-0500 (Central Daylight Time),321098.2999999523,097_m_f_n_a.png,O,z,701,15,1,1732.0999999642372,319366.1999999881,7097,NNB,B,14
14,test,5,0.0,1-Back,1,m,Fri Apr 04 2025 13:18:23 GMT-0500 (Central Daylight Time),322797.6999999881,065_o_m_n_a.png,O,m,663,16,1,1682.5,321115.1999999881,7097,NNB,B,15
15,test,5,0.0,1-Back,1,m,Fri Apr 04 2025 13:18:23 GMT-0500 (Central Daylight Time),324497.5,029_m_f_n_a.png,O,m,652,17,1,1681.6000000238419,322815.89999997616,7097,NNB,B,16
15,test,5,0.0,1-Back,0,m,Fri Apr 04 2025 13:18:23 GMT-0500 (Central Daylight Time),326346.6999999881,178_m_m_n_a.png,O,z,808,18,1,1830.9000000357628,324515.7999999523,7097,NNB,B,17
0,prac,1,0.0,2-Back,,,Fri Apr 04 2025 13:18:23 GMT-0500 (Central Daylight Time),326346.6999999881,013_y_m_n_a.png,O,space,8737,1,1,1830.9000000357628,324515.7999999523,7097,NNB,B,0
0,prac,1,0.0,2-Back,,,Fri Apr 04 2025 13:18:23 GMT-0500 (Central Daylight Time),326346.6999999881,029_m_f_n_a.png,O,space,8737,2,1,1830.9000000357628,324515.7999999523,7097,NNB,B,0
1,prac,1,1.0,2-Back,1,m,Fri Apr 04 2025 13:18:23 GMT-0500 (Central Daylight Time),459407.0,065_o_m_n_a.png,O,m,1309,3,1,2217.400000035763,457189.59999996424,7097,NNB,B,1
2,prac,1,0.0,2-Back,1,m,Fri Apr 04 2025 13:18:23 GMT-0500 (Central Daylight Time),461202.7999999523,086_o_f_n_a.png,O,m,808,4,1,1763.0999999642372,459439.6999999881,7097,NNB,B,2
3,prac,1,0.0,2-Back,1,z,Fri Apr 04 2025 13:18:23 GMT-0500 (Central Daylight Time),462952.2999999523,065_o_m_n_a.png,O,z,943,5,1,1716.7999999523163,461235.5,7097,NNB,B,3
4,prac,1,1.0,2-Back,1,z,Fri Apr 04 2025 13:18:23 GMT-0500 (Central Daylight Time),465284.5,086_o_f_n_a.png,O,z,1539,6,1,2303.300000011921,462981.1999999881,7097,NNB,B,4
5,prac,1,0.0,2-Back,1,m,Fri Apr 04 2025 13:18:23 GMT-0500 (Central Daylight Time),467433.89999997616,178_m_m_n_a.png,O,m,1194,7,1,2112.199999988079,465321.6999999881,7097,NNB,B,5
6,prac,1,0.0,2-Back,1,m,Fri Apr 04 2025 13:18:23 GMT-0500 (Central Daylight Time),469471.7999999523,176_o_m_n_a.png,O,m,1081,8,1,2008.3999999761581,467463.39999997616,7097,NNB,B,6
6,prac,1,0.0,2-Back,0,m,Fri Apr 04 2025 13:18:23 GMT-0500 (Central Daylight Time),471764.89999997616,173_y_f_n_a.png,O,z,1362,9,1,2266.0,469498.89999997616,7097,NNB,B,7
7,prac,1,1.0,2-Back,1,z,Fri Apr 04 2025 13:18:23 GMT-0500 (Central Daylight Time),473515.09999996424,176_o_m_n_a.png,O,z,973,10,1,1742.5,471772.59999996424,7097,NNB,B,8
8,prac,1,0.0,2-Back,1,m,Fri Apr 04 2025 13:18:23 GMT-0500 (Central Daylight Time),475697.6999999881,152_y_f_n_a.png,O,m,1231,11,1,2157.100000023842,473540.59999996424,7097,NNB,B,9
8,prac,1,0.0,2-Back,0,m,Fri Apr 04 2025 13:18:23 GMT-0500 (Central Daylight Time),477663.6999999881,178_m_m_n_a.png,O,z,1026,12,1,1933.199999988079,475730.5,7097,NNB,B,10
0,test,1,0.0,2-Back,,,Fri Apr 04 2025 13:18:23 GMT-0500 (Central Daylight Time),477663.6999999881,153_y_m_n_a.png,O,space,10294,1,1,1933.199999988079,475730.5,7097,NNB,B,0
0,test,1,0.0,2-Back,,,Fri Apr 04 2025 13:18:23 GMT-0500 (Central Daylight Time),477663.6999999881,153_y_m_n_a.png,O,space,10294,2,1,1933.199999988079,475730.5,7097,NNB,B,0
1,test,1,0.0,2-Back,1,m,Fri Apr 04 2025 13:18:23 GMT-0500 (Central Daylight Time),503705.1999999881,086_o_f_n_a.png,O,m,923,3,1,1946.5,501758.6999999881,7097,NNB,B,1
2,test,1,0.0,2-Back,1,m,Fri Apr 04 2025 13:18:23 GMT-0500 (Central Daylight Time),505754.59999996424,126_m_m_n_a.png,O,m,1000,4,1,2032.199999988079,503722.39999997616,7097,NNB,B,2
3,test,1,1.0,2-Back,1,z,Fri Apr 04 2025 13:18:23 GMT-0500 (Central Daylight Time),507753.7999999523,086_o_f_n_a.png,O,z,952,5,1,1981.5999999642372,505772.1999999881,7097,NNB,B,3
4,test,1,0.0,2-Back,1,m,Fri Apr 04 2025 13:18:23 GMT-0500 (Central Daylight Time),510086.1999999881,152_y_f_n_a.png,O,m,1294,6,1,2310.699999988079,507775.5,7097,NNB,B,4
4,test,1,0.0,2-Back,0,m,Fri Apr 04 2025 13:18:23 GMT-0500 (Central Daylight Time),511952.39999997616,126_m_m_n_a.png,O,z,819,7,1,1842.5,510109.89999997616,7097,NNB,B,5
4,test,1,1.0,2-Back,0,z,Fri Apr 04 2025 13:18:23 GMT-0500 (Central Daylight Time),513968.39999997616,152_y_f_n_a.png,O,m,977,8,1,1999.5,511968.89999997616,7097,NNB,B,6
5,test,1,0.0,2-Back,1,m,Fri Apr 04 2025 13:18:23 GMT-0500 (Central Daylight Time),516151.0,013_y_m_n_a.png,O,m,1140,9,1,2164.2000000476837,513986.7999999523,7097,NNB,B,7
6,test,1,0.0,2-Back,1,m,Fri Apr 04 2025 13:18:23 GMT-0500 (Central Daylight Time),518183.5,110_o_f_n_a.png,O,m,987,10,1,2015.1000000238419,516168.39999997616,7097,NNB,B,8
7,test,1,1.0,2-Back,1,z,Fri Apr 04 2025 13:18:23 GMT-0500 (Central Daylight Time),519899.89999997616,013_y_m_n_a.png,O,z,674,11,1,1696.5,518203.39999997616,7097,NNB,B,9
8,test,1,0.0,2-Back,1,m,Fri Apr 04 2025 13:18:23 GMT-0500 (Central Daylight Time),522049.09999996424,029_m_f_n_a.png,O,m,1102,12,1,2130.699999988079,519918.39999997616,7097,NNB,B,10
9,test,1,0.0,2-Back,1,m,Fri Apr 04 2025 13:18:23 GMT-0500 (Central Daylight Time),524031.39999997616,029_m_f_n_a.png,O,m,943,13,1,1961.5,522069.89999997616,7097,NNB,B,11
10,test,1,0.0,2-Back,1,m,Fri Apr 04 2025 13:18:23 GMT-0500 (Central Daylight Time),526014.2999999523,065_o_m_n_a.png,O,m,948,14,1,1965.2999999523163,524049.0,7097,NNB,B,12
11,test,1,0.0,2-Back,1,m,Fri Apr 04 2025 13:18:23 GMT-0500 (Central Daylight Time),527997.3999999762,110_o_f_n_a.png,O,m,939,15,1,1964.1000000238419,526033.2999999523,7097,NNB,B,13
12,test,1,1.0,2-Back,1,z,Fri Apr 04 2025 13:18:23 GMT-0500 (Central Daylight Time),529946.8999999762,065_o_m_n_a.png,O,z,900,16,1,1931.3999999761581,528015.5,7097,NNB,B,14
13,test,1,0.0,2-Back,1,m,Fri Apr 04 2025 13:18:23 GMT-0500 (Central Daylight Time),532129.0999999642,097_m_f_n_a.png,O,m,1135,17,1,2162.0,529967.0999999642,7097,NNB,B,15
14,test,1,0.0,2-Back,1,m,Fri Apr 04 2025 13:18:23 GMT-0500 (Central Daylight Time),534311.6999999881,178_m_m_n_a.png,O,m,1136,18,1,2162.300000011921,532149.3999999762,7097,NNB,B,16
0,test,2,0.0,2-Back,,,Fri Apr 04 2025 13:18:23 GMT-0500 (Central Daylight Time),534311.6999999881,178_m_m_n_a.png,O,space,3928,1,1,2162.300000011921,532149.3999999762,7097,NNB,B,0
0,test,2,0.0,2-Back,,,Fri Apr 04 2025 13:18:23 GMT-0500 (Central Daylight Time),534311.6999999881,173_y_f_n_a.png,O,space,3928,2,1,2162.300000011921,532149.3999999762,7097,NNB,B,0
1,test,2,1.0,2-Back,1,z,Fri Apr 04 2025 13:18:23 GMT-0500 (Central Daylight Time),545491.3999999762,178_m_m_n_a.png,O,z,1012,3,1,2031.800000011921,543459.5999999642,7097,NNB,B,1
2,test,2,0.0,2-Back,1,m,Fri Apr 04 2025 13:18:23 GMT-0500 (Central Daylight Time),547507.3999999762,097_m_f_n_a.png,O,m,975,4,1,1996.800000011921,545510.5999999642,7097,NNB,B,2
3,test,2,0.0,2-Back,1,m,Fri Apr 04 2025 13:18:23 GMT-0500 (Central Daylight Time),550073.1999999881,173_y_f_n_a.png,O,m,1509,5,1,2534.5,547538.6999999881,7097,NNB,B,3
4,test,2,0.0,2-Back,1,m,Fri Apr 04 2025 13:18:23 GMT-0500 (Central Daylight Time),552772.2999999523,065_o_m_n_a.png,O,m,1649,6,1,2681.7999999523163,550090.5,7097,NNB,B,4
5,test,2,0.0,2-Back,1,m,Fri Apr 04 2025 13:18:23 GMT-0500 (Central Daylight Time),554905.0999999642,152_y_f_n_a.png,O,m,1093,7,1,2115.099999964237,552790.0,7097,NNB,B,5
6,test,2,1.0,2-Back,1,z,Fri Apr 04 2025 13:18:23 GMT-0500 (Central Daylight Time),556953.6999999881,065_o_m_n_a.png,O,z,1001,8,1,2029.699999988079,554924.0,7097,NNB,B,6
7,test,2,0.0,2-Back,1,m,Fri Apr 04 2025 13:18:23 GMT-0500 (Central Daylight Time),559137.0999999642,013_y_m_n_a.png,O,m,1153,9,1,2179.399999976158,556957.6999999881,7097,NNB,B,7
8,test,2,0.0,2-Back,1,m,Fri Apr 04 2025 13:18:23 GMT-0500 (Central Daylight Time),561402.8999999762,013_y_m_n_a.png,O,m,1226,10,1,2245.699999988079,559157.1999999881,7097,NNB,B,8
9,test,2,0.0,2-Back,1,m,Fri Apr 04 2025 13:18:23 GMT-0500 (Central Daylight Time),563302.0,029_m_f_n_a.png,O,m,863,11,1,1880.800000011921,561421.1999999881,7097,NNB,B,9
9,test,2,0.0,2-Back,0,m,Fri Apr 04 2025 13:18:23 GMT-0500 (Central Daylight Time),565984.7999999523,173_y_f_n_a.png,O,z,1635,12,1,2665.399999976158,563319.3999999762,7097,NNB,B,10
10,test,2,1.0,2-Back,1,z,Fri Apr 04 2025 13:18:23 GMT-0500 (Central Daylight Time),568100.5999999642,029_m_f_n_a.png,O,z,1074,13,1,2097.099999964237,566003.5,7097,NNB,B,11
11,test,2,0.0,2-Back,1,m,Fri Apr 04 2025 13:18:23 GMT-0500 (Central Daylight Time),570116.6999999881,176_o_m_n_a.png,O,m,965,14,1,1999.5,568117.1999999881,7097,NNB,B,12
12,test,2,0.0,2-Back,1,m,Fri Apr 04 2025 13:18:23 GMT-0500 (Central Daylight Time),572415.8999999762,176_o_m_n_a.png,O,m,1249,15,1,2282.300000011921,570133.5999999642,7097,NNB,B,13
13,test,2,0.0,2-Back,1,m,Fri Apr 04 2025 13:18:23 GMT-0500 (Central Daylight Time),574548.5999999642,110_o_f_n_a.png,O,m,1090,16,1,2114.399999976158,572434.1999999881,7097,NNB,B,14
14,test,2,0.0,2-Back,1,m,Fri Apr 04 2025 13:18:23 GMT-0500 (Central Daylight Time),576498.0,126_m_m_n_a.png,O,m,909,17,1,1931.300000011921,574566.6999999881,7097,NNB,B,15
15,test,2,1.0,2-Back,1,z,Fri Apr 04 2025 13:18:23 GMT-0500 (Central Daylight Time),578180.6999999881,110_o_f_n_a.png,O,z,641,18,1,1664.0,576516.6999999881,7097,NNB,B,16
0,test,3,1.0,2-Back,,,Fri Apr 04 2025 13:18:23 GMT-0500 (Central Daylight Time),578180.6999999881,153_y_m_n_a.png,O,space,1756,1,1,1664.0,576516.6999999881,7097,NNB,B,0
0,test,3,1.0,2-Back,,,Fri Apr 04 2025 13:18:23 GMT-0500 (Central Daylight Time),578180.6999999881,153_y_m_n_a.png,O,space,1756,2,1,1664.0,576516.6999999881,7097,NNB,B,0
1,test,3,0.0,2-Back,1,m,Fri Apr 04 2025 13:18:23 GMT-0500 (Central Daylight Time),587310.1999999881,110_o_f_n_a.png,O,m,1179,3,1,2195.400000035763,585114.7999999523,7097,NNB,B,1
2,test,3,0.0,2-Back,1,m,Fri Apr 04 2025 13:18:23 GMT-0500 (Central Daylight Time),589659.5999999642,178_m_m_n_a.png,O,m,1332,4,1,2345.5,587314.0999999642,7097,NNB,B,2
3,test,3,1.0,2-Back,1,z,Fri Apr 04 2025 13:18:23 GMT-0500 (Central Daylight Time),591626.0999999642,110_o_f_n_a.png,O,z,943,5,1,1962.0999999642372,589664.0,7097,NNB,B,3
4,test,3,0.0,2-Back,1,m,Fri Apr 04 2025 13:18:23 GMT-0500 (Central Daylight Time),593575.2999999523,013_y_m_n_a.png,O,m,912,6,1,1931.3999999761581,591643.8999999762,7097,NNB,B,4
4,test,3,0.0,2-Back,0,m,Fri Apr 04 2025 13:18:23 GMT-0500 (Central Daylight Time),595491.5999999642,178_m_m_n_a.png,O,z,883,7,1,1901.199999988079,593590.3999999762,7097,NNB,B,5
5,test,3,1.0,2-Back,1,z,Fri Apr 04 2025 13:18:23 GMT-0500 (Central Daylight Time),597857.7999999523,013_y_m_n_a.png,O,z,1318,8,1,2349.699999988079,595508.0999999642,7097,NNB,B,6
6,test,3,0.0,2-Back,1,m,Fri Apr 04 2025 13:18:23 GMT-0500 (Central Daylight Time),600206.5999999642,173_y_f_n_a.png,O,m,1313,9,1,2326.0,597880.5999999642,7097,NNB,B,7
7,test,3,0.0,2-Back,1,m,Fri Apr 04 2025 13:18:23 GMT-0500 (Central Daylight Time),602339.6999999881,126_m_m_n_a.png,O,m,1083,10,1,2109.900000035763,600229.7999999523,7097,NNB,B,8
8,test,3,1.0,2-Back,1,z,Fri Apr 04 2025 13:18:23 GMT-0500 (Central Daylight Time),604222.0999999642,173_y_f_n_a.png,O,z,838,11,1,1858.5999999642372,602363.5,7097,NNB,B,9
9,test,3,1.0,2-Back,1,z,Fri Apr 04 2025 13:18:23 GMT-0500 (Central Daylight Time),606371.2999999523,126_m_m_n_a.png,O,z,1107,12,1,2131.099999964237,604240.1999999881,7097,NNB,B,10
10,test,3,0.0,2-Back,1,m,Fri Apr 04 2025 13:18:23 GMT-0500 (Central Daylight Time),608337.5,110_o_f_n_a.png,O,m,926,13,1,1948.5,606389.0,7097,NNB,B,11
11,test,3,0.0,2-Back,1,m,Fri Apr 04 2025 13:18:23 GMT-0500 (Central Daylight Time),610403.3999999762,097_m_f_n_a.png,O,m,1025,14,1,2043.8999999761581,608359.5,7097,NNB,B,12
12,test,3,0.0,2-Back,1,m,Fri Apr 04 2025 13:18:23 GMT-0500 (Central Daylight Time),612268.5999999642,065_o_m_n_a.png,O,m,829,15,1,1846.699999988079,610421.8999999762,7097,NNB,B,13
13,test,3,1.0,2-Back,1,z,Fri Apr 04 2025 13:18:23 GMT-0500 (Central Daylight Time),614019.0,097_m_f_n_a.png,O,z,725,16,1,1746.9000000357628,612272.0999999642,7097,NNB,B,14
14,test,3,0.0,2-Back,1,m,Fri Apr 04 2025 13:18:23 GMT-0500 (Central Daylight Time),616151.5,086_o_f_n_a.png,O,m,1096,17,1,2110.0,614041.5,7097,NNB,B,15
15,test,3,0.0,2-Back,1,m,Fri Apr 04 2025 13:18:23 GMT-0500 (Central Daylight Time),618300.8999999762,086_o_f_n_a.png,O,m,1098,18,1,2131.199999988079,616169.6999999881,7097,NNB,B,16
0,test,4,0.0,2-Back,,,Fri Apr 04 2025 13:18:23 GMT-0500 (Central Daylight Time),618300.8999999762,176_o_m_n_a.png,O,space,2069,1,1,2131.199999988079,616169.6999999881,7097,NNB,B,0
0,test,4,0.0,2-Back,,,Fri Apr 04 2025 13:18:23 GMT-0500 (Central Daylight Time),618300.8999999762,152_y_f_n_a.png,O,space,2069,2,1,2131.199999988079,616169.6999999881,7097,NNB,B,0
1,test,4,1.0,2-Back,1,z,Fri Apr 04 2025 13:18:23 GMT-0500 (Central Daylight Time),627581.0999999642,176_o_m_n_a.png,O,z,823,3,1,1836.199999988079,625744.8999999762,7097,NNB,B,1
2,test,4,1.0,2-Back,1,z,Fri Apr 04 2025 13:18:23 GMT-0500 (Central Daylight Time),629347.1999999881,152_y_f_n_a.png,O,z,724,4,1,1748.199999988079,627599.0,7097,NNB,B,2
3,test,4,0.0,2-Back,1,m,Fri Apr 04 2025 13:18:23 GMT-0500 (Central Daylight Time),631313.1999999881,110_o_f_n_a.png,O,m,918,5,1,1948.0,629365.1999999881,7097,NNB,B,3
4,test,4,0.0,2-Back,1,m,Fri Apr 04 2025 13:18:23 GMT-0500 (Central Daylight Time),633311.5999999642,110_o_f_n_a.png,O,m,959,6,1,1980.5,631331.0999999642,7097,NNB,B,4
5,test,4,0.0,2-Back,1,m,Fri Apr 04 2025 13:18:23 GMT-0500 (Central Daylight Time),635878.2999999523,029_m_f_n_a.png,O,m,1538,7,1,2561.5,633316.7999999523,7097,NNB,B,5
6,test,4,0.0,2-Back,1,m,Fri Apr 04 2025 13:18:23 GMT-0500 (Central Daylight Time),637794.5,013_y_m_n_a.png,O,m,877,8,1,1894.1000000238419,635900.3999999762,7097,NNB,B,6
7,test,4,1.0,2-Back,1,z,Fri Apr 04 2025 13:18:23 GMT-0500 (Central Daylight Time),639493.7999999523,029_m_f_n_a.png,O,z,664,9,1,1678.5999999642372,637815.1999999881,7097,NNB,B,7
8,test,4,0.0,2-Back,1,m,Fri Apr 04 2025 13:18:23 GMT-0500 (Central Daylight Time),641493.1999999881,126_m_m_n_a.png,O,m,955,10,1,1982.0,639511.1999999881,7097,NNB,B,8
8,test,4,0.0,2-Back,0,m,Fri Apr 04 2025 13:18:23 GMT-0500 (Central Daylight Time),643642.7999999523,013_y_m_n_a.png,O,z,1110,11,1,2131.099999964237,641511.6999999881,7097,NNB,B,9
9,test,4,0.0,2-Back,1,m,Fri Apr 04 2025 13:18:23 GMT-0500 (Central Daylight Time),645707.5999999642,086_o_f_n_a.png,O,m,1029,12,1,2046.5999999642372,643661.0,7097,NNB,B,10
10,test,4,0.0,2-Back,1,m,Fri Apr 04 2025 13:18:23 GMT-0500 (Central Daylight Time),647674.3999999762,153_y_m_n_a.png,O,m,934,13,1,1963.1000000238419,645711.2999999523,7097,NNB,B,11
11,test,4,1.0,2-Back,1,z,Fri Apr 04 2025 13:18:23 GMT-0500 (Central Daylight Time),649256.6999999881,086_o_f_n_a.png,O,z,535,14,1,1560.300000011921,647696.3999999762,7097,NNB,B,12
12,test,4,1.0,2-Back,1,z,Fri Apr 04 2025 13:18:23 GMT-0500 (Central Daylight Time),651273.3999999762,153_y_m_n_a.png,O,z,987,15,1,2010.0,649263.3999999762,7097,NNB,B,13
13,test,4,0.0,2-Back,1,m,Fri Apr 04 2025 13:18:23 GMT-0500 (Central Daylight Time),653239.2999999523,178_m_m_n_a.png,O,m,921,16,1,1935.7999999523163,651303.5,7097,NNB,B,14
14,test,4,0.0,2-Back,1,m,Fri Apr 04 2025 13:18:23 GMT-0500 (Central Daylight Time),655155.3999999762,097_m_f_n_a.png,O,m,866,17,1,1889.300000011921,653266.0999999642,7097,NNB,B,15
15,test,4,1.0,2-Back,1,z,Fri Apr 04 2025 13:18:23 GMT-0500 (Central Daylight Time),656704.7999999523,178_m_m_n_a.png,O,z,502,18,1,1531.3999999761581,655173.3999999762,7097,NNB,B,16
0,test,5,1.0,2-Back,,,Fri Apr 04 2025 13:18:23 GMT-0500 (Central Daylight Time),656704.7999999523,153_y_m_n_a.png,O,space,2018,1,1,1531.3999999761581,655173.3999999762,7097,NNB,B,0
0,test,5,1.0,2-Back,,,Fri Apr 04 2025 13:18:23 GMT-0500 (Central Daylight Time),656704.7999999523,097_m_f_n_a.png,O,space,2018,2,1,1531.3999999761581,655173.3999999762,7097,NNB,B,0
1,test,5,1.0,2-Back,1,z,Fri Apr 04 2025 13:18:23 GMT-0500 (Central Daylight Time),665668.8999999762,153_y_m_n_a.png,O,z,699,3,1,1728.199999988079,663940.6999999881,7097,NNB,B,1
2,test,5,1.0,2-Back,1,z,Fri Apr 04 2025 13:18:23 GMT-0500 (Central Daylight Time),667434.6999999881,097_m_f_n_a.png,O,z,725,4,1,1747.800000011921,665686.8999999762,7097,NNB,B,2
3,test,5,0.0,2-Back,1,m,Fri Apr 04 2025 13:18:23 GMT-0500 (Central Daylight Time),669750.5999999642,086_o_f_n_a.png,O,m,1280,5,1,2298.899999976158,667451.6999999881,7097,NNB,B,3
3,test,5,0.0,2-Back,0,m,Fri Apr 04 2025 13:18:23 GMT-0500 (Central Daylight Time),672266.5,153_y_m_n_a.png,O,z,1467,6,1,2497.900000035763,669768.5999999642,7097,NNB,B,4
4,test,5,0.0,2-Back,1,m,Fri Apr 04 2025 13:18:23 GMT-0500 (Central Daylight Time),675232.5,173_y_f_n_a.png,O,m,1919,7,1,2947.5,672285.0,7097,NNB,B,5
5,test,5,0.0,2-Back,1,m,Fri Apr 04 2025 13:18:23 GMT-0500 (Central Daylight Time),677364.6999999881,086_o_f_n_a.png,O,m,1083,8,1,2113.400000035763,675251.2999999523,7097,NNB,B,6
5,test,5,1.0,2-Back,0,z,Fri Apr 04 2025 13:18:23 GMT-0500 (Central Daylight Time),679963.8999999762,173_y_f_n_a.png,O,m,1557,9,1,2580.899999976158,677383.0,7097,NNB,B,7
6,test,5,0.0,2-Back,1,m,Fri Apr 04 2025 13:18:23 GMT-0500 (Central Daylight Time),681963.5,065_o_m_n_a.png,O,m,950,10,1,1978.9000000357628,679984.5999999642,7097,NNB,B,8
7,test,5,0.0,2-Back,1,m,Fri Apr 04 2025 13:18:23 GMT-0500 (Central Daylight Time),683778.6999999881,029_m_f_n_a.png,O,m,765,11,1,1795.0,681983.6999999881,7097,NNB,B,9
8,test,5,0.0,2-Back,1,m,Fri Apr 04 2025 13:18:23 GMT-0500 (Central Daylight Time),685562.1999999881,126_m_m_n_a.png,O,m,752,12,1,1770.199999988079,683792.0,7097,NNB,B,10
9,test,5,0.0,2-Back,1,m,Fri Apr 04 2025 13:18:23 GMT-0500 (Central Daylight Time),687894.5,065_o_m_n_a.png,O,m,1296,13,1,2314.7000000476837,685579.7999999523,7097,NNB,B,11
9,test,5,1.0,2-Back,0,z,Fri Apr 04 2025 13:18:23 GMT-0500 (Central Daylight Time),689693.7999999523,126_m_m_n_a.png,O,m,763,14,1,1778.199999988079,687915.5999999642,7097,NNB,B,12
10,test,5,0.0,2-Back,1,m,Fri Apr 04 2025 13:18:23 GMT-0500 (Central Daylight Time),691593.5,152_y_f_n_a.png,O,m,860,15,1,1883.2000000476837,689710.2999999523,7097,NNB,B,13
11,test,5,0.0,2-Back,1,m,Fri Apr 04 2025 13:18:23 GMT-0500 (Central Daylight Time),693492.7999999523,176_o_m_n_a.png,O,m,856,16,1,1882.0,691610.7999999523,7097,NNB,B,14
12,test,5,0.0,2-Back,1,m,Fri Apr 04 2025 13:18:23 GMT-0500 (Central Daylight Time),695425.5,029_m_f_n_a.png,O,m,886,17,1,1915.7000000476837,693509.7999999523,7097,NNB,B,15
12,test,5,1.0,2-Back,0,z,Fri Apr 04 2025 13:18:23 GMT-0500 (Central Daylight Time),697874.7999999523,176_o_m_n_a.png,O,m,1400,18,1,2434.7999999523163,695440.0,7097,NNB,B,16
