acc_sum,block,block_c,change,condition,correct,correct_response,datetime,endtime,face,project,response,response_time,row_sel,session_number,start_end,starttime,subject_id,task,task_vers,trial
0,prac,1,,1-Back,,,Wed Sep 18 2024 17:49:10 GMT-0500 (Central Daylight Time),,012_o_f_d_a.png,I,space,12029,1,1,,,8007,VNB,C,0
1,prac,1,0.0,1-Back,1,m,Wed Sep 18 2024 17:49:10 GMT-0500 (Central Daylight Time),282499.2999999998,022_y_f_n_a.png,I,m,1295,2,1,2189.5,280309.7999999998,8007,VNB,C,1
1,prac,1,0.0,1-Back,0,m,Wed Sep 18 2024 17:49:10 GMT-0500 (Central Daylight Time),284881.7999999998,014_m_m_h_a.png,I,z,1497,3,1,2376.0,282505.7999999998,8007,VNB,C,2
2,prac,1,0.0,1-Back,1,m,Wed Sep 18 2024 17:49:10 GMT-0500 (Central Daylight Time),287647.39999999944,025_y_m_d_a.png,I,m,1891,4,1,2757.5,284889.89999999944,8007,VNB,C,3
2,prac,1,0.0,1-Back,0,m,Wed Sep 18 2024 17:49:10 GMT-0500 (Central Daylight Time),290546.39999999944,012_o_f_n_a.png,I,None,2010,5,1,2892.899999999441,287653.5,8007,VNB,C,4
3,prac,1,1.0,1-Back,1,z,Wed Sep 18 2024 17:49:10 GMT-0500 (Central Daylight Time),292595.89999999944,025_y_m_n_a.png,I,z,1184,6,1,2043.8999999994412,290552.0,8007,VNB,C,5
4,prac,1,0.0,1-Back,1,m,Wed Sep 18 2024 17:49:10 GMT-0500 (Central Daylight Time),295194.7999999998,015_o_m_h_a.png,I,m,1699,7,1,2593.0,292601.7999999998,8007,VNB,C,6
4,prac,1,0.0,1-Back,0,m,Wed Sep 18 2024 17:49:10 GMT-0500 (Central Daylight Time),298027.5,019_m_f_d_a.png,I,z,1942,8,1,2826.7999999998137,295200.7000000002,8007,VNB,C,7
5,prac,1,1.0,1-Back,1,z,Wed Sep 18 2024 17:49:10 GMT-0500 (Central Daylight Time),300726.5,022_y_f_d_a.png,I,z,1768,9,1,2653.9000000003725,298072.5999999996,8007,VNB,C,8
6,prac,1,0.0,1-Back,1,m,Wed Sep 18 2024 17:49:10 GMT-0500 (Central Daylight Time),303409.0,014_m_m_n_a.png,I,m,1808,10,1,2676.7000000001863,300732.2999999998,8007,VNB,C,9
6,prac,1,0.0,1-Back,0,m,Wed Sep 18 2024 17:49:10 GMT-0500 (Central Daylight Time),306308.0,012_o_f_h_a.png,I,None,2007,11,1,2893.4000000003725,303414.5999999996,8007,VNB,C,10
7,prac,1,0.0,1-Back,1,m,Wed Sep 18 2024 17:49:10 GMT-0500 (Central Daylight Time),309023.7999999998,025_y_m_d_a.png,I,m,1831,12,1,2709.2000000001863,306314.5999999996,8007,VNB,C,11
0,prac,2,0.0,1-Back,,,Wed Sep 18 2024 17:49:10 GMT-0500 (Central Daylight Time),309023.7999999998,012_o_f_d_a.png,I,a,5039,1,1,2709.2000000001863,306314.5999999996,8007,VNB,C,0
1,prac,2,0.0,1-Back,1,m,Wed Sep 18 2024 17:49:10 GMT-0500 (Central Daylight Time),319820.5999999996,022_y_f_n_a.png,I,m,1817,2,1,2708.0,317112.5999999996,8007,VNB,C,1
2,prac,2,0.0,1-Back,1,m,Wed Sep 18 2024 17:49:10 GMT-0500 (Central Daylight Time),322269.89999999944,014_m_m_h_a.png,I,m,1568,3,1,2443.899999999441,319826.0,8007,VNB,C,2
3,prac,2,0.0,1-Back,1,m,Wed Sep 18 2024 17:49:10 GMT-0500 (Central Daylight Time),324952.2999999998,025_y_m_d_a.png,I,m,1894,4,1,2676.5,322275.7999999998,8007,VNB,C,3
3,prac,2,0.0,1-Back,0,m,Wed Sep 18 2024 17:49:10 GMT-0500 (Central Daylight Time),327685.0,012_o_f_n_a.png,I,z,1845,5,1,2727.2000000001863,324957.7999999998,8007,VNB,C,4
4,prac,2,1.0,1-Back,1,z,Wed Sep 18 2024 17:49:10 GMT-0500 (Central Daylight Time),329817.39999999944,025_y_m_n_a.png,I,z,1260,6,1,2127.199999999255,327690.2000000002,8007,VNB,C,5
5,prac,2,0.0,1-Back,1,m,Wed Sep 18 2024 17:49:10 GMT-0500 (Central Daylight Time),332050.0,015_o_m_h_a.png,I,m,1341,7,1,2226.9000000003725,329823.0999999996,8007,VNB,C,6
5,prac,2,0.0,1-Back,0,m,Wed Sep 18 2024 17:49:10 GMT-0500 (Central Daylight Time),334082.89999999944,019_m_f_d_a.png,I,z,1140,8,1,2027.199999999255,332055.7000000002,8007,VNB,C,7
6,prac,2,1.0,1-Back,1,z,Wed Sep 18 2024 17:49:10 GMT-0500 (Central Daylight Time),336265.2999999998,022_y_f_d_a.png,I,z,1286,9,1,2176.7999999998137,334088.5,8007,VNB,C,8
7,prac,2,0.0,1-Back,1,m,Wed Sep 18 2024 17:49:10 GMT-0500 (Central Daylight Time),338797.5999999996,014_m_m_n_a.png,I,m,1653,10,1,2526.5,336271.0999999996,8007,VNB,C,9
8,prac,2,0.0,1-Back,1,m,Wed Sep 18 2024 17:49:10 GMT-0500 (Central Daylight Time),340880.39999999944,012_o_f_h_a.png,I,m,1185,11,1,2076.5999999996275,338803.7999999998,8007,VNB,C,10
8,prac,2,0.0,1-Back,0,m,Wed Sep 18 2024 17:49:10 GMT-0500 (Central Daylight Time),343762.89999999944,025_y_m_d_a.png,I,None,2014,12,1,2876.899999999441,340886.0,8007,VNB,C,11
0,test,1,0.0,1-Back,,,Wed Sep 18 2024 17:49:10 GMT-0500 (Central Daylight Time),343762.89999999944,022_y_f_d_a.png,I,space,9248,1,1,2876.899999999441,340886.0,8007,VNB,C,0
1,test,1,0.0,1-Back,1,m,Wed Sep 18 2024 17:49:10 GMT-0500 (Central Daylight Time),363473.5,019_m_f_n_a.png,I,m,976,2,1,1995.2000000001863,361478.2999999998,8007,VNB,C,1
2,test,1,0.0,1-Back,1,m,Wed Sep 18 2024 17:49:10 GMT-0500 (Central Daylight Time),366035.0,015_o_m_h_a.png,I,m,1545,3,1,2557.7999999998137,363477.2000000002,8007,VNB,C,2
3,test,1,1.0,1-Back,1,z,Wed Sep 18 2024 17:49:10 GMT-0500 (Central Daylight Time),368255.2000000002,014_m_m_h_a.png,I,z,1195,4,1,2215.7000000001863,366039.5,8007,VNB,C,3
4,test,1,0.0,1-Back,1,m,Wed Sep 18 2024 17:49:10 GMT-0500 (Central Daylight Time),370354.7999999998,012_o_f_n_a.png,I,m,1067,5,1,2095.9000000003725,368258.89999999944,8007,VNB,C,4
5,test,1,0.0,1-Back,1,m,Wed Sep 18 2024 17:49:10 GMT-0500 (Central Daylight Time),372270.89999999944,025_y_m_d_a.png,I,m,895,6,1,1911.8999999994412,370359.0,8007,VNB,C,5
6,test,1,1.0,1-Back,1,z,Wed Sep 18 2024 17:49:10 GMT-0500 (Central Daylight Time),374636.5,019_m_f_d_a.png,I,z,1339,7,1,2361.5,372275.0,8007,VNB,C,6
7,test,1,0.0,1-Back,1,m,Wed Sep 18 2024 17:49:10 GMT-0500 (Central Daylight Time),376619.5,022_y_f_h_a.png,I,m,958,8,1,1978.9000000003725,374640.5999999996,8007,VNB,C,7
8,test,1,0.0,1-Back,1,m,Wed Sep 18 2024 17:49:10 GMT-0500 (Central Daylight Time),378851.7999999998,015_o_m_n_a.png,I,m,1182,9,1,2228.7999999998137,376623.0,8007,VNB,C,8
8,test,1,0.0,1-Back,0,m,Wed Sep 18 2024 17:49:10 GMT-0500 (Central Daylight Time),380801.5,025_y_m_h_a.png,I,z,885,10,1,1945.7999999998137,378855.7000000002,8007,VNB,C,9
8,test,1,0.0,1-Back,0,m,Wed Sep 18 2024 17:49:10 GMT-0500 (Central Daylight Time),382984.0999999996,015_o_m_d_a.png,I,z,1120,11,1,2178.5,380805.5999999996,8007,VNB,C,10
9,test,1,1.0,1-Back,1,z,Wed Sep 18 2024 17:49:10 GMT-0500 (Central Daylight Time),385633.0999999996,012_o_f_d_a.png,I,z,1585,12,1,2644.7999999998137,382988.2999999998,8007,VNB,C,11
9,test,1,0.0,1-Back,0,m,Wed Sep 18 2024 17:49:10 GMT-0500 (Central Daylight Time),388082.5,014_m_m_n_a.png,I,z,1392,13,1,2445.5,385637.0,8007,VNB,C,12
10,test,1,1.0,1-Back,1,z,Wed Sep 18 2024 17:49:10 GMT-0500 (Central Daylight Time),390498.2999999998,022_y_f_n_a.png,I,z,1342,14,1,2411.2999999998137,388087.0,8007,VNB,C,13
11,test,1,0.0,1-Back,1,m,Wed Sep 18 2024 17:49:10 GMT-0500 (Central Daylight Time),392331.0,019_m_f_h_a.png,I,m,750,15,1,1828.7999999998137,390502.2000000002,8007,VNB,C,14
12,test,1,0.0,1-Back,1,m,Wed Sep 18 2024 17:49:10 GMT-0500 (Central Daylight Time),394363.7000000002,014_m_m_d_a.png,I,m,974,16,1,2028.800000000745,392334.89999999944,8007,VNB,C,15
13,test,1,0.0,1-Back,1,m,Wed Sep 18 2024 17:49:10 GMT-0500 (Central Daylight Time),397063.0,025_y_m_n_a.png,I,m,1645,17,1,2695.5,394367.5,8007,VNB,C,16
14,test,1,0.0,1-Back,1,m,Wed Sep 18 2024 17:49:10 GMT-0500 (Central Daylight Time),399079.0,012_o_f_h_a.png,I,m,954,18,1,2012.7999999998137,397066.2000000002,8007,VNB,C,17
0,test,2,0.0,1-Back,,,Wed Sep 18 2024 17:49:10 GMT-0500 (Central Daylight Time),399079.0,025_y_m_n_a.png,I,space,1283,1,1,2012.7999999998137,397066.2000000002,8007,VNB,C,0
1,test,2,0.0,1-Back,1,m,Wed Sep 18 2024 17:49:10 GMT-0500 (Central Daylight Time),404827.39999999944,022_y_f_h_a.png,I,m,1408,2,1,2428.699999999255,402398.7000000002,8007,VNB,C,1
2,test,2,1.0,1-Back,1,m,Wed Sep 18 2024 17:49:10 GMT-0500 (Central Daylight Time),406909.7999999998,015_o_m_n_a.png,I,m,1054,3,1,2078.0999999996275,404831.7000000002,8007,VNB,C,2
2,test,2,0.0,1-Back,0,m,Wed Sep 18 2024 17:49:10 GMT-0500 (Central Daylight Time),408875.7999999998,019_m_f_d_a.png,I,z,941,4,1,1962.0999999996275,406913.7000000002,8007,VNB,C,3
3,test,2,0.0,1-Back,1,z,Wed Sep 18 2024 17:49:10 GMT-0500 (Central Daylight Time),411425.0999999996,014_m_m_d_a.png,I,z,1485,5,1,2545.0999999996275,408880.0,8007,VNB,C,4
4,test,2,0.0,1-Back,1,m,Wed Sep 18 2024 17:49:10 GMT-0500 (Central Daylight Time),413574.5,025_y_m_h_a.png,I,m,1096,6,1,2145.600000000559,411428.89999999944,8007,VNB,C,5
5,test,2,1.0,1-Back,1,z,Wed Sep 18 2024 17:49:10 GMT-0500 (Central Daylight Time),416156.89999999944,012_o_f_h_a.png,I,z,1522,7,1,2578.399999999441,413578.5,8007,VNB,C,6
6,test,2,0.0,1-Back,1,m,Wed Sep 18 2024 17:49:10 GMT-0500 (Central Daylight Time),418439.5999999996,019_m_f_n_a.png,I,m,1220,8,1,2278.7999999998137,416160.7999999998,8007,VNB,C,7
7,test,2,0.0,1-Back,1,m,Wed Sep 18 2024 17:49:10 GMT-0500 (Central Daylight Time),420838.7999999998,022_y_f_d_a.png,I,m,1345,9,1,2393.7999999998137,418445.0,8007,VNB,C,8
8,test,2,0.0,1-Back,1,m,Wed Sep 18 2024 17:49:10 GMT-0500 (Central Daylight Time),423754.5,014_m_m_n_a.png,I,m,1850,10,1,2912.2000000001863,420842.2999999998,8007,VNB,C,9
9,test,2,1.0,1-Back,1,m,Wed Sep 18 2024 17:49:10 GMT-0500 (Central Daylight Time),426437.0,019_m_f_h_a.png,I,m,1630,11,1,2678.7999999998137,423758.2000000002,8007,VNB,C,10
10,test,2,0.0,1-Back,1,z,Wed Sep 18 2024 17:49:10 GMT-0500 (Central Daylight Time),428902.89999999944,015_o_m_h_a.png,I,z,1403,12,1,2461.899999999441,426441.0,8007,VNB,C,11
11,test,2,0.0,1-Back,1,m,Wed Sep 18 2024 17:49:10 GMT-0500 (Central Daylight Time),430735.7999999998,025_y_m_d_a.png,I,m,778,13,1,1829.0,428906.7999999998,8007,VNB,C,12
12,test,2,0.0,1-Back,1,m,Wed Sep 18 2024 17:49:10 GMT-0500 (Central Daylight Time),433318.39999999944,012_o_f_n_a.png,I,m,1521,14,1,2578.699999999255,430739.7000000002,8007,VNB,C,13
13,test,2,0.0,1-Back,1,z,Wed Sep 18 2024 17:49:10 GMT-0500 (Central Daylight Time),435484.0999999996,022_y_f_n_a.png,I,z,1140,15,1,2162.5,433321.5999999996,8007,VNB,C,14
14,test,2,1.0,1-Back,1,m,Wed Sep 18 2024 17:49:10 GMT-0500 (Central Daylight Time),437633.7000000002,014_m_m_h_a.png,I,m,978,16,1,2146.0,435487.7000000002,8007,VNB,C,15
14,test,2,0.0,1-Back,0,m,Wed Sep 18 2024 17:49:10 GMT-0500 (Central Daylight Time),440316.0,012_o_f_d_a.png,I,z,1631,17,1,2678.7999999998137,437637.2000000002,8007,VNB,C,16
15,test,2,1.0,1-Back,1,z,Wed Sep 18 2024 17:49:10 GMT-0500 (Central Daylight Time),442065.5,015_o_m_d_a.png,I,z,693,18,1,1745.7999999998137,440319.7000000002,8007,VNB,C,17
0,test,3,1.0,1-Back,,,Wed Sep 18 2024 17:49:10 GMT-0500 (Central Daylight Time),442065.5,012_o_f_h_a.png,I,space,1177,1,1,1745.7999999998137,440319.7000000002,8007,VNB,C,0
1,test,3,0.0,1-Back,1,m,Wed Sep 18 2024 17:49:10 GMT-0500 (Central Daylight Time),447313.7999999998,019_m_f_d_a.png,I,m,893,2,1,1945.0999999996275,445368.7000000002,8007,VNB,C,1
2,test,3,1.0,1-Back,1,m,Wed Sep 18 2024 17:49:10 GMT-0500 (Central Daylight Time),449229.7999999998,014_m_m_n_a.png,I,m,863,3,1,1912.0,447317.7999999998,8007,VNB,C,2
2,test,3,0.0,1-Back,0,z,Wed Sep 18 2024 17:49:10 GMT-0500 (Central Daylight Time),452296.0999999996,012_o_f_n_a.png,I,None,2016,4,1,3062.5,449233.5999999996,8007,VNB,C,3
2,test,3,1.0,1-Back,0,m,Wed Sep 18 2024 17:49:10 GMT-0500 (Central Daylight Time),454145.39999999944,015_o_m_d_a.png,I,z,784,5,1,1845.5,452299.89999999944,8007,VNB,C,4
3,test,3,0.0,1-Back,1,m,Wed Sep 18 2024 17:49:10 GMT-0500 (Central Daylight Time),456444.2999999998,022_y_f_h_a.png,I,m,1248,6,1,2294.9000000003725,454149.39999999944,8007,VNB,C,5
3,test,3,0.0,1-Back,0,z,Wed Sep 18 2024 17:49:10 GMT-0500 (Central Daylight Time),458360.39999999944,025_y_m_h_a.png,I,m,861,7,1,1910.699999999255,456449.7000000002,8007,VNB,C,6
3,test,3,0.0,1-Back,0,m,Wed Sep 18 2024 17:49:10 GMT-0500 (Central Daylight Time),461392.89999999944,019_m_f_n_a.png,I,None,2016,8,1,3028.5,458364.39999999944,8007,VNB,C,7
3,test,3,0.0,1-Back,0,m,Wed Sep 18 2024 17:49:10 GMT-0500 (Central Daylight Time),463825.2999999998,022_y_f_d_a.png,I,z,1402,9,1,2429.0999999996275,461396.2000000002,8007,VNB,C,8
3,test,3,1.0,1-Back,0,m,Wed Sep 18 2024 17:49:10 GMT-0500 (Central Daylight Time),466291.2000000002,015_o_m_n_a.png,I,z,1449,10,1,2461.9000000003725,463829.2999999998,8007,VNB,C,9
4,test,3,0.0,1-Back,1,m,Wed Sep 18 2024 17:49:10 GMT-0500 (Central Daylight Time),468390.7000000002,014_m_m_h_a.png,I,m,1079,11,1,2096.100000000559,466294.5999999996,8007,VNB,C,10
5,test,3,0.0,1-Back,1,z,Wed Sep 18 2024 17:49:10 GMT-0500 (Central Daylight Time),470839.7999999998,019_m_f_h_a.png,I,z,1419,12,1,2445.0,468394.7999999998,8007,VNB,C,11
6,test,3,1.0,1-Back,1,m,Wed Sep 18 2024 17:49:10 GMT-0500 (Central Daylight Time),472755.5999999996,012_o_f_d_a.png,I,m,899,13,1,1912.0999999996275,470843.5,8007,VNB,C,12
7,test,3,0.0,1-Back,1,z,Wed Sep 18 2024 17:49:10 GMT-0500 (Central Daylight Time),475338.5,014_m_m_d_a.png,I,z,1550,14,1,2579.2000000001863,472759.2999999998,8007,VNB,C,13
7,test,3,0.0,1-Back,0,m,Wed Sep 18 2024 17:49:10 GMT-0500 (Central Daylight Time),477937.5999999996,025_y_m_n_a.png,I,z,1567,15,1,2595.2000000001863,475342.39999999944,8007,VNB,C,14
8,test,3,1.0,1-Back,1,m,Wed Sep 18 2024 17:49:10 GMT-0500 (Central Daylight Time),479903.5999999996,015_o_m_h_a.png,I,m,937,16,1,1962.7000000001863,477940.89999999944,8007,VNB,C,15
9,test,3,0.0,1-Back,1,m,Wed Sep 18 2024 17:49:10 GMT-0500 (Central Daylight Time),482402.7999999998,025_y_m_d_a.png,I,m,1483,17,1,2495.4000000003725,479907.39999999944,8007,VNB,C,16
10,test,3,1.0,1-Back,1,m,Wed Sep 18 2024 17:49:10 GMT-0500 (Central Daylight Time),485301.7999999998,022_y_f_n_a.png,I,m,1872,18,1,2895.7000000001863,482406.0999999996,8007,VNB,C,17
0,test,4,1.0,1-Back,,,Wed Sep 18 2024 17:49:10 GMT-0500 (Central Daylight Time),485301.7999999998,014_m_m_d_a.png,I,space,1716,1,1,2895.7000000001863,482406.0999999996,8007,VNB,C,0
1,test,4,0.0,1-Back,1,z,Wed Sep 18 2024 17:49:10 GMT-0500 (Central Daylight Time),491366.89999999944,015_o_m_d_a.png,I,z,1287,2,1,2312.2999999998137,489054.5999999996,8007,VNB,C,1
2,test,4,0.0,1-Back,1,m,Wed Sep 18 2024 17:49:10 GMT-0500 (Central Daylight Time),493449.2999999998,025_y_m_h_a.png,I,m,1051,3,1,2078.5999999996275,491370.7000000002,8007,VNB,C,2
3,test,4,0.0,1-Back,1,m,Wed Sep 18 2024 17:49:10 GMT-0500 (Central Daylight Time),496215.0999999996,019_m_f_n_a.png,I,m,1737,4,1,2762.0999999996275,493453.0,8007,VNB,C,3
4,test,4,1.0,1-Back,1,m,Wed Sep 18 2024 17:49:10 GMT-0500 (Central Daylight Time),498447.7999999998,012_o_f_h_a.png,I,m,1203,5,1,2228.7000000001863,496219.0999999996,8007,VNB,C,4
5,test,4,0.0,1-Back,1,m,Wed Sep 18 2024 17:49:10 GMT-0500 (Central Daylight Time),500913.7000000002,014_m_m_n_a.png,I,m,1434,6,1,2461.800000000745,498451.89999999944,8007,VNB,C,5
5,test,4,0.0,1-Back,0,m,Wed Sep 18 2024 17:49:10 GMT-0500 (Central Daylight Time),503296.2999999998,025_y_m_d_a.png,I,z,1327,7,1,2378.5999999996275,500917.7000000002,8007,VNB,C,6
6,test,4,1.0,1-Back,1,z,Wed Sep 18 2024 17:49:10 GMT-0500 (Central Daylight Time),505162.39999999944,022_y_f_d_a.png,I,z,800,8,1,1862.199999999255,503300.2000000002,8007,VNB,C,7
7,test,4,0.0,1-Back,1,m,Wed Sep 18 2024 17:49:10 GMT-0500 (Central Daylight Time),507045.2000000002,019_m_f_h_a.png,I,m,831,9,1,1879.1000000005588,505166.0999999996,8007,VNB,C,8
8,test,4,0.0,1-Back,1,z,Wed Sep 18 2024 17:49:10 GMT-0500 (Central Daylight Time),509294.39999999944,015_o_m_h_a.png,I,z,1188,10,1,2245.399999999441,507049.0,8007,VNB,C,9
9,test,4,1.0,1-Back,1,m,Wed Sep 18 2024 17:49:10 GMT-0500 (Central Daylight Time),511393.7000000002,012_o_f_n_a.png,I,m,1043,11,1,2095.4000000003725,509298.2999999998,8007,VNB,C,10
10,test,4,0.0,1-Back,1,m,Wed Sep 18 2024 17:49:10 GMT-0500 (Central Daylight Time),513776.2999999998,019_m_f_d_a.png,I,m,1319,12,1,2378.4000000003725,511397.89999999944,8007,VNB,C,11
11,test,4,0.0,1-Back,1,m,Wed Sep 18 2024 17:49:10 GMT-0500 (Central Daylight Time),516025.7000000002,022_y_f_n_a.png,I,m,1193,13,1,2245.4000000003725,513780.2999999998,8007,VNB,C,12
12,test,4,0.0,1-Back,1,m,Wed Sep 18 2024 17:49:10 GMT-0500 (Central Daylight Time),518924.89999999944,012_o_f_d_a.png,I,m,1839,14,1,2895.5,516029.39999999944,8007,VNB,C,13
13,test,4,0.0,1-Back,1,m,Wed Sep 18 2024 17:49:10 GMT-0500 (Central Daylight Time),521023.89999999944,022_y_f_h_a.png,I,m,1044,15,1,2094.7999999998137,518929.0999999996,8007,VNB,C,14
14,test,4,1.0,1-Back,1,z,Wed Sep 18 2024 17:49:10 GMT-0500 (Central Daylight Time),522940.39999999944,014_m_m_h_a.png,I,z,857,16,1,1912.699999999255,521027.7000000002,8007,VNB,C,15
15,test,4,0.0,1-Back,1,m,Wed Sep 18 2024 17:49:10 GMT-0500 (Central Daylight Time),525172.7000000002,015_o_m_n_a.png,I,m,1181,17,1,2229.0,522943.7000000002,8007,VNB,C,16
15,test,4,1.0,1-Back,0,z,Wed Sep 18 2024 17:49:10 GMT-0500 (Central Daylight Time),527705.8999999994,025_y_m_n_a.png,I,m,1476,18,1,2528.899999999441,525177.0,8007,VNB,C,17
0,test,5,1.0,1-Back,,,Wed Sep 18 2024 17:49:10 GMT-0500 (Central Daylight Time),527705.8999999994,015_o_m_n_a.png,I,space,1144,1,1,2528.899999999441,525177.0,8007,VNB,C,0
1,test,5,1.0,1-Back,1,m,Wed Sep 18 2024 17:49:10 GMT-0500 (Central Daylight Time),532953.7999999998,012_o_f_h_a.png,I,m,984,2,1,2002.5,530951.2999999998,8007,VNB,C,1
2,test,5,0.0,1-Back,1,m,Wed Sep 18 2024 17:49:10 GMT-0500 (Central Daylight Time),535486.2999999998,025_y_m_d_a.png,I,m,1479,3,1,2528.4000000003725,532957.8999999994,8007,VNB,C,2
3,test,5,0.0,1-Back,1,z,Wed Sep 18 2024 17:49:10 GMT-0500 (Central Daylight Time),537868.7000000002,015_o_m_d_a.png,I,z,1323,4,1,2378.100000000559,535490.5999999996,8007,VNB,C,3
4,test,5,0.0,1-Back,1,m,Wed Sep 18 2024 17:49:10 GMT-0500 (Central Daylight Time),539918.2999999998,019_m_f_h_a.png,I,m,988,5,1,2045.7999999998137,537872.5,8007,VNB,C,4
5,test,5,0.0,1-Back,1,m,Wed Sep 18 2024 17:49:10 GMT-0500 (Central Daylight Time),542083.8999999994,022_y_f_n_a.png,I,m,1146,6,1,2161.7999999998137,539922.0999999996,8007,VNB,C,5
6,test,5,1.0,1-Back,1,z,Wed Sep 18 2024 17:49:10 GMT-0500 (Central Daylight Time),544316.5999999996,012_o_f_n_a.png,I,z,1214,7,1,2229.2999999998137,542087.2999999998,8007,VNB,C,6
7,test,5,0.0,1-Back,1,m,Wed Sep 18 2024 17:49:10 GMT-0500 (Central Daylight Time),546915.8999999994,019_m_f_d_a.png,I,m,1581,8,1,2596.199999999255,544319.7000000002,8007,VNB,C,7
7,test,5,0.0,1-Back,0,m,Wed Sep 18 2024 17:49:10 GMT-0500 (Central Daylight Time),548798.7999999998,025_y_m_h_a.png,I,z,862,9,1,1879.5,546919.2999999998,8007,VNB,C,8
7,test,5,0.0,1-Back,0,m,Wed Sep 18 2024 17:49:10 GMT-0500 (Central Daylight Time),551347.8999999994,022_y_f_d_a.png,I,z,1522,10,1,2545.899999999441,548802.0,8007,VNB,C,9
8,test,5,0.0,1-Back,1,m,Wed Sep 18 2024 17:49:10 GMT-0500 (Central Daylight Time),553614.0,014_m_m_n_a.png,I,m,1246,11,1,2262.2999999998137,551351.7000000002,8007,VNB,C,10
9,test,5,1.0,1-Back,1,z,Wed Sep 18 2024 17:49:10 GMT-0500 (Central Daylight Time),555779.5,019_m_f_n_a.png,I,z,1149,12,1,2161.9000000003725,553617.5999999996,8007,VNB,C,11
10,test,5,0.0,1-Back,1,m,Wed Sep 18 2024 17:49:10 GMT-0500 (Central Daylight Time),558779.0,015_o_m_h_a.png,I,m,1949,13,1,2995.7999999998137,555783.2000000002,8007,VNB,C,12
11,test,5,0.0,1-Back,1,z,Wed Sep 18 2024 17:49:10 GMT-0500 (Central Daylight Time),560961.5999999996,014_m_m_h_a.png,I,z,1151,14,1,2178.7000000001863,558782.8999999994,8007,VNB,C,13
12,test,5,1.0,1-Back,1,m,Wed Sep 18 2024 17:49:10 GMT-0500 (Central Daylight Time),563044.3999999994,012_o_f_d_a.png,I,m,1007,15,1,2079.199999999255,560965.2000000002,8007,VNB,C,14
12,test,5,0.0,1-Back,0,m,Wed Sep 18 2024 17:49:10 GMT-0500 (Central Daylight Time),566110.5,025_y_m_n_a.png,I,None,2016,16,1,3062.600000000559,563047.8999999994,8007,VNB,C,15
12,test,5,0.0,1-Back,0,m,Wed Sep 18 2024 17:49:10 GMT-0500 (Central Daylight Time),569175.7000000002,022_y_f_h_a.png,I,None,2016,17,1,3061.2000000001863,566114.5,8007,VNB,C,16
12,test,5,0.0,1-Back,0,m,Wed Sep 18 2024 17:49:10 GMT-0500 (Central Daylight Time),572241.3999999994,014_m_m_d_a.png,I,None,2015,18,1,3061.7999999998137,569179.5999999996,8007,VNB,C,17
0,prac,1,0.0,2-Back,,,Wed Sep 18 2024 17:49:10 GMT-0500 (Central Daylight Time),572241.3999999994,019_m_f_n_a.png,I,space,8008,1,1,3061.7999999998137,569179.5999999996,8007,VNB,C,0
0,prac,1,0.0,2-Back,,,Wed Sep 18 2024 17:49:10 GMT-0500 (Central Daylight Time),572241.3999999994,012_o_f_h_a.png,I,space,8008,2,1,3061.7999999998137,569179.5999999996,8007,VNB,C,0
0,prac,1,0.0,2-Back,0,m,Wed Sep 18 2024 17:49:10 GMT-0500 (Central Daylight Time),682357.0,015_o_m_d_a.png,I,z,989,3,1,1877.1000000005588,680479.8999999994,8007,VNB,C,1
0,prac,1,1.0,2-Back,0,z,Wed Sep 18 2024 17:49:10 GMT-0500 (Central Daylight Time),685239.2000000002,014_m_m_h_a.png,I,None,2014,4,1,2877.300000000745,682361.8999999994,8007,VNB,C,2
0,prac,1,0.0,2-Back,0,m,Wed Sep 18 2024 17:49:10 GMT-0500 (Central Daylight Time),687871.7999999998,022_y_f_n_a.png,I,z,1731,5,1,2627.5,685244.2999999998,8007,VNB,C,3
0,prac,1,1.0,2-Back,0,z,Wed Sep 18 2024 17:49:10 GMT-0500 (Central Daylight Time),690454.3999999994,015_o_m_h_a.png,I,m,1683,6,1,2577.0,687877.3999999994,8007,VNB,C,4
1,prac,1,1.0,2-Back,1,z,Wed Sep 18 2024 17:49:10 GMT-0500 (Central Daylight Time),692587.2000000002,025_y_m_n_a.png,I,z,1260,7,1,2127.5,690459.7000000002,8007,VNB,C,5
1,prac,1,0.0,2-Back,0,m,Wed Sep 18 2024 17:49:10 GMT-0500 (Central Daylight Time),694969.8999999994,019_m_f_d_a.png,I,z,1474,8,1,2377.2999999998137,692592.5999999996,8007,VNB,C,6
2,prac,1,0.0,2-Back,1,m,Wed Sep 18 2024 17:49:10 GMT-0500 (Central Daylight Time),696668.8999999994,012_o_f_d_a.png,I,m,804,9,1,1694.199999999255,694974.7000000002,8007,VNB,C,7
2,prac,1,0.0,2-Back,0,m,Wed Sep 18 2024 17:49:10 GMT-0500 (Central Daylight Time),699401.5,014_m_m_h_a.png,I,z,1961,10,1,2727.2999999998137,696674.2000000002,8007,VNB,C,8
3,prac,1,1.0,2-Back,1,z,Wed Sep 18 2024 17:49:10 GMT-0500 (Central Daylight Time),702034.2999999998,022_y_f_d_a.png,I,z,1744,11,1,2627.0999999996275,699407.2000000002,8007,VNB,C,9
4,prac,1,0.0,2-Back,1,m,Wed Sep 18 2024 17:49:10 GMT-0500 (Central Daylight Time),704666.5,015_o_m_n_a.png,I,m,1739,12,1,2626.100000000559,702040.3999999994,8007,VNB,C,10
0,prac,2,0.0,2-Back,,,Wed Sep 18 2024 17:49:10 GMT-0500 (Central Daylight Time),704666.5,019_m_f_n_a.png,I,a,7988,1,1,2626.100000000559,702040.3999999994,8007,VNB,C,0
0,prac,2,0.0,2-Back,,,Wed Sep 18 2024 17:49:10 GMT-0500 (Central Daylight Time),704666.5,012_o_f_h_a.png,I,a,7988,2,1,2626.100000000559,702040.3999999994,8007,VNB,C,0
1,prac,2,0.0,2-Back,1,m,Wed Sep 18 2024 17:49:10 GMT-0500 (Central Daylight Time),720695.0,015_o_m_d_a.png,I,m,1869,3,1,2759.5,717935.5,8007,VNB,C,1
1,prac,2,1.0,2-Back,0,z,Wed Sep 18 2024 17:49:10 GMT-0500 (Central Daylight Time),723477.2000000002,014_m_m_h_a.png,I,None,2010,4,1,2776.9000000003725,720700.2999999998,8007,VNB,C,2
1,prac,2,0.0,2-Back,0,m,Wed Sep 18 2024 17:49:10 GMT-0500 (Central Daylight Time),726010.0,022_y_f_n_a.png,I,z,1629,5,1,2527.7000000001863,723482.2999999998,8007,VNB,C,3
1,prac,2,1.0,2-Back,0,z,Wed Sep 18 2024 17:49:10 GMT-0500 (Central Daylight Time),726959.5999999996,015_o_m_h_a.png,I,m,45,6,1,944.5,726015.0999999996,8007,VNB,C,4
1,prac,2,1.0,2-Back,0,z,Wed Sep 18 2024 17:49:10 GMT-0500 (Central Daylight Time),728592.3999999994,025_y_m_n_a.png,I,m,754,7,1,1627.2999999998137,726965.0999999996,8007,VNB,C,5
1,prac,2,0.0,2-Back,0,m,Wed Sep 18 2024 17:49:10 GMT-0500 (Central Daylight Time),730491.7999999998,019_m_f_d_a.png,I,z,999,8,1,1894.0,728597.7999999998,8007,VNB,C,6
1,prac,2,0.0,2-Back,0,m,Wed Sep 18 2024 17:49:10 GMT-0500 (Central Daylight Time),733207.3999999994,012_o_f_d_a.png,I,z,1817,9,1,2710.199999999255,730497.2000000002,8007,VNB,C,7
2,prac,2,0.0,2-Back,1,m,Wed Sep 18 2024 17:49:10 GMT-0500 (Central Daylight Time),735190.3999999994,014_m_m_h_a.png,I,m,1198,10,1,1977.8999999994412,733212.5,8007,VNB,C,8
2,prac,2,1.0,2-Back,0,z,Wed Sep 18 2024 17:49:10 GMT-0500 (Central Daylight Time),738089.2999999998,022_y_f_d_a.png,I,None,2011,11,1,2893.7999999998137,735195.5,8007,VNB,C,9
2,prac,2,0.0,2-Back,0,m,Wed Sep 18 2024 17:49:10 GMT-0500 (Central Daylight Time),740738.7000000002,015_o_m_n_a.png,I,z,1751,12,1,2644.300000000745,738094.3999999994,8007,VNB,C,10
0,test,1,0.0,2-Back,,,Wed Sep 18 2024 17:49:10 GMT-0500 (Central Daylight Time),740738.7000000002,025_y_m_h_a.png,I,space,17409,1,1,2644.300000000745,738094.3999999994,8007,VNB,C,0
0,test,1,0.0,2-Back,,,Wed Sep 18 2024 17:49:10 GMT-0500 (Central Daylight Time),740738.7000000002,012_o_f_n_a.png,I,space,17409,2,1,2644.300000000745,738094.3999999994,8007,VNB,C,0
1,test,1,0.0,2-Back,1,z,Wed Sep 18 2024 17:49:10 GMT-0500 (Central Daylight Time),776445.0999999996,015_o_m_h_a.png,I,z,948,3,1,1996.8999999994412,774448.2000000002,8007,VNB,C,1
1,test,1,0.0,2-Back,0,m,Wed Sep 18 2024 17:49:10 GMT-0500 (Central Daylight Time),779043.0,019_m_f_d_a.png,I,z,1533,4,1,2594.2999999998137,776448.7000000002,8007,VNB,C,2
2,test,1,1.0,2-Back,1,m,Wed Sep 18 2024 17:49:10 GMT-0500 (Central Daylight Time),780876.0999999996,025_y_m_n_a.png,I,m,807,5,1,1829.3999999994412,779046.7000000002,8007,VNB,C,3
2,test,1,0.0,2-Back,0,z,Wed Sep 18 2024 17:49:10 GMT-0500 (Central Daylight Time),783575.0,022_y_f_d_a.png,I,m,1637,6,1,2695.4000000003725,780879.5999999996,8007,VNB,C,4
2,test,1,0.0,2-Back,0,m,Wed Sep 18 2024 17:49:10 GMT-0500 (Central Daylight Time),785674.2999999998,014_m_m_h_a.png,I,z,1025,7,1,2095.5999999996275,783578.7000000002,8007,VNB,C,5
2,test,1,1.0,2-Back,0,m,Wed Sep 18 2024 17:49:10 GMT-0500 (Central Daylight Time),788123.3999999994,022_y_f_n_a.png,I,z,1432,8,1,2445.899999999441,785677.5,8007,VNB,C,6
3,test,1,0.0,2-Back,1,z,Wed Sep 18 2024 17:49:10 GMT-0500 (Central Daylight Time),790589.7000000002,012_o_f_h_a.png,I,z,1404,9,1,2462.7000000001863,788127.0,8007,VNB,C,7
4,test,1,0.0,2-Back,1,m,Wed Sep 18 2024 17:49:10 GMT-0500 (Central Daylight Time),793055.2999999998,015_o_m_d_a.png,I,m,1403,10,1,2462.0,790593.2999999998,8007,VNB,C,8
4,test,1,1.0,2-Back,0,m,Wed Sep 18 2024 17:49:10 GMT-0500 (Central Daylight Time),795654.5,014_m_m_d_a.png,I,z,1537,11,1,2595.4000000003725,793059.0999999996,8007,VNB,C,9
4,test,1,0.0,2-Back,0,m,Wed Sep 18 2024 17:49:10 GMT-0500 (Central Daylight Time),798487.0,019_m_f_n_a.png,I,z,1771,12,1,2828.7000000001863,795658.2999999998,8007,VNB,C,10
5,test,1,0.0,2-Back,1,m,Wed Sep 18 2024 17:49:10 GMT-0500 (Central Daylight Time),800886.2999999998,022_y_f_h_a.png,I,m,1346,13,1,2395.2000000001863,798491.0999999996,8007,VNB,C,11
5,test,1,0.0,2-Back,0,z,Wed Sep 18 2024 17:49:10 GMT-0500 (Central Daylight Time),803118.7999999998,014_m_m_n_a.png,I,m,1179,14,1,2229.4000000003725,800889.3999999994,8007,VNB,C,12
5,test,1,0.0,2-Back,0,m,Wed Sep 18 2024 17:49:10 GMT-0500 (Central Daylight Time),805301.5999999996,025_y_m_d_a.png,I,z,1114,15,1,2179.2000000001863,803122.3999999994,8007,VNB,C,13
5,test,1,1.0,2-Back,0,m,Wed Sep 18 2024 17:49:10 GMT-0500 (Central Daylight Time),807650.8999999994,019_m_f_h_a.png,I,z,1317,16,1,2345.899999999441,805305.0,8007,VNB,C,14
5,test,1,0.0,2-Back,0,z,Wed Sep 18 2024 17:49:10 GMT-0500 (Central Daylight Time),809883.2999999998,012_o_f_d_a.png,I,m,1216,17,1,2229.2000000001863,807654.0999999996,8007,VNB,C,15
6,test,1,0.0,2-Back,1,m,Wed Sep 18 2024 17:49:10 GMT-0500 (Central Daylight Time),812549.3999999994,015_o_m_n_a.png,I,m,1639,18,1,2662.899999999441,809886.5,8007,VNB,C,16
0,test,2,0.0,2-Back,,,Wed Sep 18 2024 17:49:10 GMT-0500 (Central Daylight Time),812549.3999999994,014_m_m_h_a.png,I,space,3085,1,1,2662.899999999441,809886.5,8007,VNB,C,0
0,test,2,0.0,2-Back,,,Wed Sep 18 2024 17:49:10 GMT-0500 (Central Daylight Time),812549.3999999994,022_y_f_n_a.png,I,space,3085,2,1,2662.899999999441,809886.5,8007,VNB,C,0
1,test,2,1.0,2-Back,1,z,Wed Sep 18 2024 17:49:10 GMT-0500 (Central Daylight Time),823629.0999999996,012_o_f_h_a.png,I,z,1697,3,1,2712.2999999998137,820916.7999999998,8007,VNB,C,1
1,test,2,0.0,2-Back,0,m,Wed Sep 18 2024 17:49:10 GMT-0500 (Central Daylight Time),825895.2999999998,015_o_m_d_a.png,I,z,1245,4,1,2262.7999999998137,823632.5,8007,VNB,C,2
2,test,2,0.0,2-Back,1,m,Wed Sep 18 2024 17:49:10 GMT-0500 (Central Daylight Time),828244.3999999994,019_m_f_d_a.png,I,m,1331,5,1,2345.399999999441,825899.0,8007,VNB,C,3
2,test,2,0.0,2-Back,0,m,Wed Sep 18 2024 17:49:10 GMT-0500 (Central Daylight Time),830560.2000000002,025_y_m_h_a.png,I,z,1294,6,1,2312.2000000001863,828248.0,8007,VNB,C,4
3,test,2,0.0,2-Back,1,m,Wed Sep 18 2024 17:49:10 GMT-0500 (Central Daylight Time),832959.5999999996,012_o_f_n_a.png,I,m,1378,7,1,2395.7999999998137,830563.7999999998,8007,VNB,C,5
4,test,2,1.0,2-Back,1,z,Wed Sep 18 2024 17:49:10 GMT-0500 (Central Daylight Time),835059.0999999996,015_o_m_h_a.png,I,z,1083,8,1,2095.899999999441,832963.2000000002,8007,VNB,C,6
4,test,2,0.0,2-Back,0,m,Wed Sep 18 2024 17:49:10 GMT-0500 (Central Daylight Time),837358.0999999996,022_y_f_d_a.png,I,z,1279,9,1,2296.0,835062.0999999996,8007,VNB,C,7
4,test,2,0.0,2-Back,0,m,Wed Sep 18 2024 17:49:10 GMT-0500 (Central Daylight Time),839140.8999999994,025_y_m_d_a.png,I,z,764,10,1,1779.2999999998137,837361.5999999996,8007,VNB,C,8
5,test,2,0.0,2-Back,1,m,Wed Sep 18 2024 17:49:10 GMT-0500 (Central Daylight Time),840840.3999999994,014_m_m_n_a.png,I,m,669,11,1,1695.7999999998137,839144.5999999996,8007,VNB,C,9
5,test,2,0.0,2-Back,0,m,Wed Sep 18 2024 17:49:10 GMT-0500 (Central Daylight Time),842856.5,019_m_f_h_a.png,I,z,961,12,1,2012.6000000005588,840843.8999999994,8007,VNB,C,10
5,test,2,1.0,2-Back,0,z,Wed Sep 18 2024 17:49:10 GMT-0500 (Central Daylight Time),845238.8999999994,015_o_m_n_a.png,I,m,1329,13,1,2378.699999999255,842860.2000000002,8007,VNB,C,11
6,test,2,0.0,2-Back,1,m,Wed Sep 18 2024 17:49:10 GMT-0500 (Central Daylight Time),847355.0999999996,012_o_f_d_a.png,I,m,1099,14,1,2113.0,845242.0999999996,8007,VNB,C,12
6,test,2,0.0,2-Back,0,m,Wed Sep 18 2024 17:49:10 GMT-0500 (Central Daylight Time),849704.2000000002,022_y_f_h_a.png,I,z,1327,15,1,2346.0,847358.2000000002,8007,VNB,C,13
6,test,2,0.0,2-Back,0,z,Wed Sep 18 2024 17:49:10 GMT-0500 (Central Daylight Time),851703.5999999996,014_m_m_d_a.png,I,m,970,16,1,1995.7999999998137,849707.7999999998,8007,VNB,C,14
7,test,2,0.0,2-Back,1,m,Wed Sep 18 2024 17:49:10 GMT-0500 (Central Daylight Time),853536.3999999994,025_y_m_n_a.png,I,m,811,17,1,1829.5,851706.8999999994,8007,VNB,C,15
7,test,2,1.0,2-Back,0,m,Wed Sep 18 2024 17:49:10 GMT-0500 (Central Daylight Time),855952.5999999996,019_m_f_n_a.png,I,z,1386,18,1,2412.399999999441,853540.2000000002,8007,VNB,C,16
0,test,3,1.0,2-Back,,,Wed Sep 18 2024 17:49:10 GMT-0500 (Central Daylight Time),855952.5999999996,015_o_m_n_a.png,I,space,2577,1,1,2412.399999999441,853540.2000000002,8007,VNB,C,0
0,test,3,1.0,2-Back,,,Wed Sep 18 2024 17:49:10 GMT-0500 (Central Daylight Time),855952.5999999996,012_o_f_d_a.png,I,space,2577,2,1,2412.399999999441,853540.2000000002,8007,VNB,C,0
1,test,3,0.0,2-Back,1,m,Wed Sep 18 2024 17:49:10 GMT-0500 (Central Daylight Time),865865.8999999994,022_y_f_h_a.png,I,m,1251,3,1,2278.699999999255,863587.2000000002,8007,VNB,C,1
2,test,3,0.0,2-Back,1,z,Wed Sep 18 2024 17:49:10 GMT-0500 (Central Daylight Time),868165.2000000002,019_m_f_d_a.png,I,z,1272,4,1,2295.7000000001863,865869.5,8007,VNB,C,2
3,test,3,1.0,2-Back,1,m,Wed Sep 18 2024 17:49:10 GMT-0500 (Central Daylight Time),870581.0,025_y_m_n_a.png,I,m,1397,5,1,2412.2999999998137,868168.7000000002,8007,VNB,C,3
4,test,3,0.0,2-Back,1,m,Wed Sep 18 2024 17:49:10 GMT-0500 (Central Daylight Time),873113.7999999998,015_o_m_h_a.png,I,m,1509,6,1,2529.5,870584.2999999998,8007,VNB,C,4
5,test,3,0.0,2-Back,1,z,Wed Sep 18 2024 17:49:10 GMT-0500 (Central Daylight Time),875229.5,022_y_f_n_a.png,I,z,1097,7,1,2112.2999999998137,873117.2000000002,8007,VNB,C,5
5,test,3,1.0,2-Back,0,m,Wed Sep 18 2024 17:49:10 GMT-0500 (Central Daylight Time),877678.8999999994,014_m_m_d_a.png,I,z,1421,8,1,2445.899999999441,875233.0,8007,VNB,C,6
5,test,3,0.0,2-Back,0,m,Wed Sep 18 2024 17:49:10 GMT-0500 (Central Daylight Time),880244.8999999994,025_y_m_d_a.png,I,z,1540,9,1,2562.2999999998137,877682.5999999996,8007,VNB,C,7
6,test,3,0.0,2-Back,1,m,Wed Sep 18 2024 17:49:10 GMT-0500 (Central Daylight Time),882410.8999999994,012_o_f_h_a.png,I,m,1134,10,1,2162.899999999441,880248.0,8007,VNB,C,8
6,test,3,1.0,2-Back,0,m,Wed Sep 18 2024 17:49:10 GMT-0500 (Central Daylight Time),884510.0,019_m_f_n_a.png,I,z,1072,11,1,2095.5,882414.5,8007,VNB,C,9
7,test,3,1.0,2-Back,1,z,Wed Sep 18 2024 17:49:10 GMT-0500 (Central Daylight Time),886592.8999999994,014_m_m_h_a.png,I,z,1052,12,1,2079.199999999255,884513.7000000002,8007,VNB,C,10
8,test,3,0.0,2-Back,1,m,Wed Sep 18 2024 17:49:10 GMT-0500 (Central Daylight Time),888775.3999999994,022_y_f_d_a.png,I,m,1154,13,1,2178.699999999255,886596.7000000002,8007,VNB,C,11
8,test,3,0.0,2-Back,0,m,Wed Sep 18 2024 17:49:10 GMT-0500 (Central Daylight Time),891124.7000000002,012_o_f_n_a.png,I,z,1331,14,1,2345.800000000745,888778.8999999994,8007,VNB,C,12
9,test,3,0.0,2-Back,1,z,Wed Sep 18 2024 17:49:10 GMT-0500 (Central Daylight Time),893407.2000000002,015_o_m_d_a.png,I,z,1254,15,1,2279.0,891128.2000000002,8007,VNB,C,13
10,test,3,1.0,2-Back,1,m,Wed Sep 18 2024 17:49:10 GMT-0500 (Central Daylight Time),895406.7000000002,019_m_f_h_a.png,I,m,971,16,1,1995.7000000001863,893411.0,8007,VNB,C,14
10,test,3,0.0,2-Back,0,m,Wed Sep 18 2024 17:49:10 GMT-0500 (Central Daylight Time),897672.5,014_m_m_n_a.png,I,z,1244,17,1,2262.100000000559,895410.3999999994,8007,VNB,C,15
11,test,3,0.0,2-Back,1,z,Wed Sep 18 2024 17:49:10 GMT-0500 (Central Daylight Time),899755.5,025_y_m_h_a.png,I,z,1050,18,1,2079.5,897676.0,8007,VNB,C,16
0,test,4,0.0,2-Back,,,Wed Sep 18 2024 17:49:10 GMT-0500 (Central Daylight Time),899755.5,019_m_f_n_a.png,I,space,1294,1,1,2079.5,897676.0,8007,VNB,C,0
0,test,4,0.0,2-Back,,,Wed Sep 18 2024 17:49:10 GMT-0500 (Central Daylight Time),899755.5,015_o_m_n_a.png,I,space,1294,2,1,2079.5,897676.0,8007,VNB,C,0
0,test,4,1.0,2-Back,0,m,Wed Sep 18 2024 17:49:10 GMT-0500 (Central Daylight Time),908602.5,025_y_m_h_a.png,I,z,1092,3,1,2262.2000000001863,906340.2999999998,8007,VNB,C,1
1,test,4,1.0,2-Back,1,m,Wed Sep 18 2024 17:49:10 GMT-0500 (Central Daylight Time),910801.7000000002,012_o_f_d_a.png,I,m,1168,4,1,2195.800000000745,908605.8999999994,8007,VNB,C,2
2,test,4,0.0,2-Back,1,z,Wed Sep 18 2024 17:49:10 GMT-0500 (Central Daylight Time),912868.7000000002,015_o_m_h_a.png,I,z,1048,5,1,2063.300000000745,910805.3999999994,8007,VNB,C,3
2,test,4,0.0,2-Back,0,m,Wed Sep 18 2024 17:49:10 GMT-0500 (Central Daylight Time),915316.8999999994,014_m_m_n_a.png,I,z,1430,6,1,2444.7999999998137,912872.0999999996,8007,VNB,C,4
2,test,4,0.0,2-Back,0,m,Wed Sep 18 2024 17:49:10 GMT-0500 (Central Daylight Time),917416.2999999998,019_m_f_d_a.png,I,z,1069,7,1,2095.7000000001863,915320.5999999996,8007,VNB,C,5
2,test,4,0.0,2-Back,0,z,Wed Sep 18 2024 17:49:10 GMT-0500 (Central Daylight Time),919615.7999999998,022_y_f_n_a.png,I,m,1178,8,1,2195.7999999998137,917420.0,8007,VNB,C,6
2,test,4,1.0,2-Back,0,m,Wed Sep 18 2024 17:49:10 GMT-0500 (Central Daylight Time),921848.2999999998,012_o_f_h_a.png,I,z,1211,9,1,2228.7999999998137,919619.5,8007,VNB,C,7
2,test,4,0.0,2-Back,0,m,Wed Sep 18 2024 17:49:10 GMT-0500 (Central Daylight Time),923931.0,014_m_m_h_a.png,I,z,1066,10,1,2079.0,921852.0,8007,VNB,C,8
2,test,4,0.0,2-Back,0,m,Wed Sep 18 2024 17:49:10 GMT-0500 (Central Daylight Time),926113.5999999996,022_y_f_d_a.png,I,z,1151,11,1,2179.2000000001863,923934.3999999994,8007,VNB,C,9
3,test,4,0.0,2-Back,1,m,Wed Sep 18 2024 17:49:10 GMT-0500 (Central Daylight Time),928196.2999999998,025_y_m_n_a.png,I,m,1065,12,1,2078.7999999998137,926117.5,8007,VNB,C,10
4,test,4,0.0,2-Back,1,z,Wed Sep 18 2024 17:49:10 GMT-0500 (Central Daylight Time),930245.7999999998,015_o_m_d_a.png,I,z,1030,13,1,2046.5,928199.2999999998,8007,VNB,C,11
5,test,4,1.0,2-Back,1,m,Wed Sep 18 2024 17:49:10 GMT-0500 (Central Daylight Time),932461.5999999996,019_m_f_h_a.png,I,m,1189,14,1,2212.2000000001863,930249.3999999994,8007,VNB,C,12
5,test,4,1.0,2-Back,0,m,Wed Sep 18 2024 17:49:10 GMT-0500 (Central Daylight Time),934594.7000000002,022_y_f_h_a.png,I,z,1100,15,1,2129.300000000745,932465.3999999994,8007,VNB,C,13
5,test,4,0.0,2-Back,0,m,Wed Sep 18 2024 17:49:10 GMT-0500 (Central Daylight Time),936610.2999999998,012_o_f_n_a.png,I,z,951,16,1,2012.0999999996275,934598.2000000002,8007,VNB,C,14
6,test,4,0.0,2-Back,1,m,Wed Sep 18 2024 17:49:10 GMT-0500 (Central Daylight Time),938876.0999999996,025_y_m_d_a.png,I,m,1215,17,1,2262.0999999996275,936614.0,8007,VNB,C,15
6,test,4,1.0,2-Back,0,m,Wed Sep 18 2024 17:49:10 GMT-0500 (Central Daylight Time),941725.3999999994,014_m_m_d_a.png,I,z,1789,18,1,2845.7999999998137,938879.5999999996,8007,VNB,C,16
0,test,5,1.0,2-Back,,,Wed Sep 18 2024 17:49:10 GMT-0500 (Central Daylight Time),941725.3999999994,022_y_f_d_a.png,I,space,2077,1,1,2845.7999999998137,938879.5999999996,8007,VNB,C,0
0,test,5,1.0,2-Back,,,Wed Sep 18 2024 17:49:10 GMT-0500 (Central Daylight Time),941725.3999999994,012_o_f_h_a.png,I,space,2077,2,1,2845.7999999998137,938879.5999999996,8007,VNB,C,0
1,test,5,1.0,2-Back,1,z,Wed Sep 18 2024 17:49:10 GMT-0500 (Central Daylight Time),951322.7999999998,015_o_m_d_a.png,I,z,1184,3,1,2246.0,949076.7999999998,8007,VNB,C,1
1,test,5,1.0,2-Back,0,m,Wed Sep 18 2024 17:49:10 GMT-0500 (Central Daylight Time),954435.2999999998,019_m_f_n_a.png,I,None,2062,4,1,3109.0999999996275,951326.2000000002,8007,VNB,C,2
2,test,5,0.0,2-Back,1,m,Wed Sep 18 2024 17:49:10 GMT-0500 (Central Daylight Time),956787.2000000002,014_m_m_h_a.png,I,m,1158,5,1,2348.600000000559,954438.5999999996,8007,VNB,C,3
3,test,5,0.0,2-Back,1,z,Wed Sep 18 2024 17:49:10 GMT-0500 (Central Daylight Time),959303.2999999998,022_y_f_n_a.png,I,z,1454,6,1,2512.2999999998137,956791.0,8007,VNB,C,4
4,test,5,0.0,2-Back,1,m,Wed Sep 18 2024 17:49:10 GMT-0500 (Central Daylight Time),961802.3999999994,012_o_f_d_a.png,I,m,1433,7,1,2495.699999999255,959306.7000000002,8007,VNB,C,5
4,test,5,0.0,2-Back,0,m,Wed Sep 18 2024 17:49:10 GMT-0500 (Central Daylight Time),963835.2000000002,015_o_m_h_a.png,I,z,975,8,1,2029.1000000005588,961806.0999999996,8007,VNB,C,6
5,test,5,1.0,2-Back,1,z,Wed Sep 18 2024 17:49:10 GMT-0500 (Central Daylight Time),966084.5,019_m_f_d_a.png,I,z,1190,9,1,2245.7000000001863,963838.7999999998,8007,VNB,C,7
5,test,5,0.0,2-Back,0,m,Wed Sep 18 2024 17:49:10 GMT-0500 (Central Daylight Time),968234.0,025_y_m_n_a.png,I,z,1126,10,1,2146.0,966088.0,8007,VNB,C,8
5,test,5,0.0,2-Back,0,m,Wed Sep 18 2024 17:49:10 GMT-0500 (Central Daylight Time),970266.5999999996,014_m_m_n_a.png,I,z,967,11,1,2028.5999999996275,968238.0,8007,VNB,C,9
6,test,5,0.0,2-Back,1,m,Wed Sep 18 2024 17:49:10 GMT-0500 (Central Daylight Time),972782.2999999998,022_y_f_h_a.png,I,m,1455,12,1,2512.2999999998137,970270.0,8007,VNB,C,10
6,test,5,0.0,2-Back,0,m,Wed Sep 18 2024 17:49:10 GMT-0500 (Central Daylight Time),974864.8999999994,025_y_m_d_a.png,I,z,1052,13,1,2079.399999999441,972785.5,8007,VNB,C,11
7,test,5,1.0,2-Back,1,z,Wed Sep 18 2024 17:49:10 GMT-0500 (Central Daylight Time),977197.5999999996,019_m_f_h_a.png,I,z,1272,14,1,2329.0,974868.5999999996,8007,VNB,C,12
7,test,5,0.0,2-Back,0,m,Wed Sep 18 2024 17:49:10 GMT-0500 (Central Daylight Time),979430.2999999998,015_o_m_n_a.png,I,z,1205,15,1,2228.9000000003725,977201.3999999994,8007,VNB,C,13
8,test,5,0.0,2-Back,1,m,Wed Sep 18 2024 17:49:10 GMT-0500 (Central Daylight Time),981479.5999999996,014_m_m_d_a.png,I,m,987,16,1,2045.7000000001863,979433.8999999994,8007,VNB,C,14
9,test,5,0.0,2-Back,1,z,Wed Sep 18 2024 17:49:10 GMT-0500 (Central Daylight Time),983712.0999999996,012_o_f_n_a.png,I,z,1211,17,1,2229.5999999996275,981482.5,8007,VNB,C,15
9,test,5,1.0,2-Back,0,m,Wed Sep 18 2024 17:49:10 GMT-0500 (Central Daylight Time),985861.5999999996,025_y_m_h_a.png,I,z,1122,18,1,2146.2999999998137,983715.2999999998,8007,VNB,C,16
