block_c,block_dur,condition,countdown,datetime,endtime,list,multichar_response,project,response,response_time,session_number,start_end,starttime,subject_id,task,task_vers,trial
,,,,Fri Apr 25 2025 15:40:24 GMT-0500 (Central Daylight Time),,,,I,space,487,1,,,8038,WL,B,
prac,,0,,Fri Apr 25 2025 15:40:24 GMT-0500 (Central Daylight Time),,NA,b,I,b,9450,1,,,8038,WL,B,1.0
prac,,0,,Fri Apr 25 2025 15:40:24 GMT-0500 (Central Daylight Time),,NA,bo,I,o,301,1,,,8038,WL,B,1.0
prac,,0,,Fri Apr 25 2025 15:40:24 GMT-0500 (Central Daylight Time),,NA,boo,I,o,114,1,,,8038,WL,B,1.0
prac,,0,,Fri Apr 25 2025 15:40:24 GMT-0500 (Central Daylight Time),,NA,boos,I,s,371,1,,,8038,WL,B,1.0
prac,,0,,Fri Apr 25 2025 15:40:24 GMT-0500 (Central Daylight Time),,NA,boost,I,t,518,1,,,8038,WL,B,1.0
prac,,0,,Fri Apr 25 2025 15:40:24 GMT-0500 (Central Daylight Time),,NA,boostenter,I,enter,1045,1,,,8038,WL,B,1.0
1,1.749000072479248,learn,58250.99992752075,Fri Apr 25 2025 15:40:24 GMT-0500 (Central Daylight Time),134482.70000000112,A,w,I,w,1735,1,1749.1000000014901,132733.59999999963,8038,WL,B,1.0
1,1.8829998970031738,learn,58117.000102996826,Fri Apr 25 2025 15:40:24 GMT-0500 (Central Daylight Time),134616.09999999963,A,wi,I,i,113,1,1882.5,132733.59999999963,8038,WL,B,1.0
1,2.0329999923706055,learn,57967.000007629395,Fri Apr 25 2025 15:40:24 GMT-0500 (Central Daylight Time),134766.30000000075,A,wif,I,f,133,1,2032.7000000011176,132733.59999999963,8038,WL,B,1.0
1,2.1659998893737793,learn,57834.00011062622,Fri Apr 25 2025 15:40:24 GMT-0500 (Central Daylight Time),134899.30000000075,A,wife,I,e,118,1,2165.7000000011176,132733.59999999963,8038,WL,B,1.0
1,2.5490000247955322,learn,57450.99997520447,Fri Apr 25 2025 15:40:24 GMT-0500 (Central Daylight Time),135282.5,A,wifeenter,I,enter,370,1,2548.9000000003725,132733.59999999963,8038,WL,B,1.0
1,4.547999858856201,learn,55452.0001411438,Fri Apr 25 2025 15:40:24 GMT-0500 (Central Daylight Time),137281.80000000075,A,s,I,s,1987,1,1998.9000000003725,135282.90000000037,8038,WL,B,2.0
1,4.764999866485596,learn,55235.000133514404,Fri Apr 25 2025 15:40:24 GMT-0500 (Central Daylight Time),137498.40000000037,A,st,I,t,202,1,2215.5,135282.90000000037,8038,WL,B,2.0
1,4.9649999141693115,learn,55035.00008583069,Fri Apr 25 2025 15:40:24 GMT-0500 (Central Daylight Time),137698.40000000037,A,sta,I,a,179,1,2415.5,135282.90000000037,8038,WL,B,2.0
1,5.065000057220459,learn,54934.99994277954,Fri Apr 25 2025 15:40:24 GMT-0500 (Central Daylight Time),137798.30000000075,A,star,I,r,91,1,2515.4000000003725,135282.90000000037,8038,WL,B,2.0
1,5.365000009536743,learn,54634.99999046326,Fri Apr 25 2025 15:40:24 GMT-0500 (Central Daylight Time),138098.20000000112,A,starenter,I,enter,279,1,2815.300000000745,135282.90000000037,8038,WL,B,2.0
1,5.930999994277954,learn,54069.000005722046,Fri Apr 25 2025 15:40:24 GMT-0500 (Central Daylight Time),138664.80000000075,A,w,I,w,546,1,566.0999999996275,138098.70000000112,8038,WL,B,3.0
1,6.230999946594238,learn,53769.00005340576,Fri Apr 25 2025 15:40:24 GMT-0500 (Central Daylight Time),138964.70000000112,A,wi,I,i,292,1,866.0,138098.70000000112,8038,WL,B,3.0
1,6.38100004196167,learn,53618.99995803833,Fri Apr 25 2025 15:40:24 GMT-0500 (Central Daylight Time),139114.70000000112,A,win,I,n,129,1,1016.0,138098.70000000112,8038,WL,B,3.0
1,6.398000001907349,learn,53601.99999809265,Fri Apr 25 2025 15:40:24 GMT-0500 (Central Daylight Time),139131.20000000112,A,wino,I,o,2,1,1032.5,138098.70000000112,8038,WL,B,3.0
1,6.5980000495910645,learn,53401.999950408936,Fri Apr 25 2025 15:40:24 GMT-0500 (Central Daylight Time),139331.09999999963,A,winod,I,d,186,1,1232.3999999985099,138098.70000000112,8038,WL,B,3.0
1,7.246999979019165,learn,52753.000020980835,Fri Apr 25 2025 15:40:24 GMT-0500 (Central Daylight Time),139981.0,A,wino,I,backspace,642,1,1882.2999999988824,138098.70000000112,8038,WL,B,3.0
1,7.398000001907349,learn,52601.99999809265,Fri Apr 25 2025 15:40:24 GMT-0500 (Central Daylight Time),140131.09999999963,A,win,I,backspace,129,1,2032.3999999985099,138098.70000000112,8038,WL,B,3.0
1,7.796999931335449,learn,52203.00006866455,Fri Apr 25 2025 15:40:24 GMT-0500 (Central Daylight Time),140531.0,A,wind,I,d,395,1,2432.2999999988824,138098.70000000112,8038,WL,B,3.0
1,8.613999843597412,learn,51386.00015640259,Fri Apr 25 2025 15:40:24 GMT-0500 (Central Daylight Time),141347.20000000112,A,windo,I,o,802,1,3248.5,138098.70000000112,8038,WL,B,3.0
1,8.730000019073486,learn,51269.999980926514,Fri Apr 25 2025 15:40:24 GMT-0500 (Central Daylight Time),141463.90000000037,A,window,I,w,98,1,3365.199999999255,138098.70000000112,8038,WL,B,3.0
1,9.096999883651733,learn,50903.00011634827,Fri Apr 25 2025 15:40:24 GMT-0500 (Central Daylight Time),141830.40000000037,A,windowenter,I,enter,357,1,3731.699999999255,138098.70000000112,8038,WL,B,3.0
1,9.763000011444092,learn,50236.99998855591,Fri Apr 25 2025 15:40:24 GMT-0500 (Central Daylight Time),142496.80000000075,A,g,I,g,655,1,666.0999999996275,141830.70000000112,8038,WL,B,4.0
1,9.980000019073486,learn,50019.999980926514,Fri Apr 25 2025 15:40:24 GMT-0500 (Central Daylight Time),142713.40000000037,A,gr,I,r,204,1,882.6999999992549,141830.70000000112,8038,WL,B,4.0
1,10.763000011444092,learn,49236.99998855591,Fri Apr 25 2025 15:40:24 GMT-0500 (Central Daylight Time),143496.5,A,gra,I,a,772,1,1665.7999999988824,141830.70000000112,8038,WL,B,4.0
1,11.046000003814697,learn,48953.9999961853,Fri Apr 25 2025 15:40:24 GMT-0500 (Central Daylight Time),143779.80000000075,A,gras,I,s,268,1,1949.0999999996275,141830.70000000112,8038,WL,B,4.0
1,11.230000019073486,learn,48769.999980926514,Fri Apr 25 2025 15:40:24 GMT-0500 (Central Daylight Time),143963.09999999963,A,grass,I,s,169,1,2132.39999999851,141830.70000000112,8038,WL,B,4.0
1,11.546000003814697,learn,48453.9999961853,Fri Apr 25 2025 15:40:24 GMT-0500 (Central Daylight Time),144279.59999999963,A,grassenter,I,enter,305,1,2448.89999999851,141830.70000000112,8038,WL,B,4.0
1,11.812999963760376,learn,48187.000036239624,Fri Apr 25 2025 15:40:24 GMT-0500 (Central Daylight Time),144546.30000000075,A,s,I,s,254,1,266.30000000074506,144280.0,8038,WL,B,5.0
1,12.029000043869019,learn,47970.99995613098,Fri Apr 25 2025 15:40:24 GMT-0500 (Central Daylight Time),144762.90000000037,A,st,I,t,201,1,482.90000000037253,144280.0,8038,WL,B,5.0
1,12.312999963760376,learn,47687.000036239624,Fri Apr 25 2025 15:40:24 GMT-0500 (Central Daylight Time),145046.09999999963,A,str,I,r,274,1,766.0999999996275,144280.0,8038,WL,B,5.0
1,12.395999908447266,learn,47604.000091552734,Fri Apr 25 2025 15:40:24 GMT-0500 (Central Daylight Time),145129.40000000037,A,stre,I,e,63,1,849.4000000003725,144280.0,8038,WL,B,5.0
1,12.94599986076355,learn,47054.00013923645,Fri Apr 25 2025 15:40:24 GMT-0500 (Central Daylight Time),145679.30000000075,A,stree,I,e,531,1,1399.300000000745,144280.0,8038,WL,B,5.0
1,13.345999956130981,learn,46654.00004386902,Fri Apr 25 2025 15:40:24 GMT-0500 (Central Daylight Time),146079.09999999963,A,street,I,t,381,1,1799.0999999996275,144280.0,8038,WL,B,5.0
1,13.84500002861023,learn,46154.99997138977,Fri Apr 25 2025 15:40:24 GMT-0500 (Central Daylight Time),146578.90000000037,A,streetenter,I,enter,495,1,2298.9000000003725,144280.0,8038,WL,B,5.0
1,15.378000020980835,learn,44621.999979019165,Fri Apr 25 2025 15:40:24 GMT-0500 (Central Daylight Time),148111.90000000037,A,p,I,p,1521,1,1532.699999999255,146579.20000000112,8038,WL,B,6.0
1,15.527999877929688,learn,44472.00012207031,Fri Apr 25 2025 15:40:24 GMT-0500 (Central Daylight Time),148261.59999999963,A,pu,I,u,133,1,1682.3999999985099,146579.20000000112,8038,WL,B,6.0
1,15.694999933242798,learn,44305.0000667572,Fri Apr 25 2025 15:40:24 GMT-0500 (Central Daylight Time),148428.30000000075,A,pup,I,p,159,1,1849.0999999996275,146579.20000000112,8038,WL,B,6.0
1,15.960999965667725,learn,44039.000034332275,Fri Apr 25 2025 15:40:24 GMT-0500 (Central Daylight Time),148695.09999999963,A,pupi,I,i,257,1,2115.89999999851,146579.20000000112,8038,WL,B,6.0
1,16.294999837875366,learn,43705.000162124634,Fri Apr 25 2025 15:40:24 GMT-0500 (Central Daylight Time),149028.20000000112,A,pupil,I,l,326,1,2449.0,146579.20000000112,8038,WL,B,6.0
1,16.64400005340576,learn,43355.99994659424,Fri Apr 25 2025 15:40:24 GMT-0500 (Central Daylight Time),149378.0,A,pupilenter,I,enter,329,1,2798.7999999988824,146579.20000000112,8038,WL,B,6.0
1,18.47699999809265,learn,41523.00000190735,Fri Apr 25 2025 15:40:24 GMT-0500 (Central Daylight Time),151210.90000000037,A,a,I,a,1812,1,1832.5,149378.40000000037,8038,WL,B,7.0
1,18.677000045776367,learn,41322.99995422363,Fri Apr 25 2025 15:40:24 GMT-0500 (Central Daylight Time),151410.70000000112,A,ar,I,r,179,1,2032.300000000745,149378.40000000037,8038,WL,B,7.0
1,18.82699990272522,learn,41173.00009727478,Fri Apr 25 2025 15:40:24 GMT-0500 (Central Daylight Time),151560.90000000037,A,arm,I,m,139,1,2182.5,149378.40000000037,8038,WL,B,7.0
1,19.0939998626709,learn,40906.0001373291,Fri Apr 25 2025 15:40:24 GMT-0500 (Central Daylight Time),151827.30000000075,A,armenter,I,enter,252,1,2448.9000000003725,149378.40000000037,8038,WL,B,7.0
1,27.407999992370605,learn,32592.000007629395,Fri Apr 25 2025 15:40:24 GMT-0500 (Central Daylight Time),160141.20000000112,A,d,I,d,8307,1,8313.700000001118,151827.5,8038,WL,B,8.0
1,27.72099995613098,learn,32279.00004386902,Fri Apr 25 2025 15:40:24 GMT-0500 (Central Daylight Time),160454.70000000112,A,do,I,o,307,1,8627.200000001118,151827.5,8038,WL,B,8.0
1,27.728999853134155,learn,32271.000146865845,Fri Apr 25 2025 15:40:24 GMT-0500 (Central Daylight Time),160462.20000000112,A,doo,I,o,1,1,8634.700000001118,151827.5,8038,WL,B,8.0
1,27.86899995803833,learn,32131.00004196167,Fri Apr 25 2025 15:40:24 GMT-0500 (Central Daylight Time),160602.90000000037,A,door,I,r,96,1,8775.400000000373,151827.5,8038,WL,B,8.0
1,28.424000024795532,learn,31575.999975204468,Fri Apr 25 2025 15:40:24 GMT-0500 (Central Daylight Time),161157.70000000112,A,doorenter,I,enter,538,1,9330.200000001118,151827.5,8038,WL,B,8.0
1,29.223999977111816,learn,30776.000022888184,Fri Apr 25 2025 15:40:24 GMT-0500 (Central Daylight Time),161957.40000000037,A,enter,I,enter,791,1,799.3000000007451,161158.09999999963,8038,WL,B,9.0
1,29.573999881744385,learn,30426.000118255615,Fri Apr 25 2025 15:40:24 GMT-0500 (Central Daylight Time),162307.30000000075,A,enter,I,enter,345,1,349.5,161957.80000000075,8038,WL,B,10.0
1,30.006999969482422,learn,29993.000030517578,Fri Apr 25 2025 15:40:24 GMT-0500 (Central Daylight Time),162740.40000000037,A,enter,I,enter,426,1,432.80000000074506,162307.59999999963,8038,WL,B,11.0
1,30.407000064849854,learn,29592.999935150146,Fri Apr 25 2025 15:40:24 GMT-0500 (Central Daylight Time),163140.40000000037,A,enter,I,enter,394,1,399.59999999962747,162740.80000000075,8038,WL,B,12.0
1,30.77300000190735,learn,29226.99999809265,Fri Apr 25 2025 15:40:24 GMT-0500 (Central Daylight Time),163507.09999999963,A,enter,I,enter,354,1,366.5,163140.59999999963,8038,WL,B,13.0
1,31.122999906539917,learn,28877.000093460083,Fri Apr 25 2025 15:40:24 GMT-0500 (Central Daylight Time),163856.90000000037,A,enter,I,enter,330,1,349.59999999962747,163507.30000000075,8038,WL,B,14.0
1,31.555999994277954,learn,28444.000005722046,Fri Apr 25 2025 15:40:24 GMT-0500 (Central Daylight Time),164290.0,A,enter,I,enter,412,1,432.7999999988824,163857.20000000112,8038,WL,B,15.0
2,1.5830001831054688,learn,58416.99981689453,Fri Apr 25 2025 15:40:24 GMT-0500 (Central Daylight Time),232851.90000000037,A,p,I,p,1569,1,1582.699999999255,231269.20000000112,8038,WL,B,1.0
2,1.8670001029968262,learn,58132.999897003174,Fri Apr 25 2025 15:40:24 GMT-0500 (Central Daylight Time),233135.30000000075,A,pi,I,i,266,1,1866.0999999996275,231269.20000000112,8038,WL,B,1.0
2,2.0830001831054688,learn,57916.99981689453,Fri Apr 25 2025 15:40:24 GMT-0500 (Central Daylight Time),233351.70000000112,A,pip,I,p,206,1,2082.5,231269.20000000112,8038,WL,B,1.0
2,2.2160000801086426,learn,57783.99991989136,Fri Apr 25 2025 15:40:24 GMT-0500 (Central Daylight Time),233484.90000000037,A,pipe,I,e,118,1,2215.699999999255,231269.20000000112,8038,WL,B,1.0
2,3.1660001277923584,learn,56833.99987220764,Fri Apr 25 2025 15:40:24 GMT-0500 (Central Daylight Time),234434.70000000112,A,pipeenter,I,enter,937,1,3165.5,231269.20000000112,8038,WL,B,1.0
2,4.3490002155303955,learn,55650.999784469604,Fri Apr 25 2025 15:40:24 GMT-0500 (Central Daylight Time),235617.59999999963,A,l,I,l,1162,1,1182.5999999996275,234435.0,8038,WL,B,2.0
2,4.466000080108643,learn,55533.99991989136,Fri Apr 25 2025 15:40:24 GMT-0500 (Central Daylight Time),235734.30000000075,A,la,I,a,108,1,1299.300000000745,234435.0,8038,WL,B,2.0
2,4.982000112533569,learn,55017.99988746643,Fri Apr 25 2025 15:40:24 GMT-0500 (Central Daylight Time),236250.80000000075,A,lak,I,k,503,1,1815.800000000745,234435.0,8038,WL,B,2.0
2,5.0990002155303955,learn,54900.999784469604,Fri Apr 25 2025 15:40:24 GMT-0500 (Central Daylight Time),236367.40000000037,A,lake,I,e,99,1,1932.4000000003725,234435.0,8038,WL,B,2.0
2,5.265000104904175,learn,54734.999895095825,Fri Apr 25 2025 15:40:24 GMT-0500 (Central Daylight Time),236534.0,A,lakeenter,I,enter,150,1,2099.0,234435.0,8038,WL,B,2.0
2,5.5990002155303955,learn,54400.999784469604,Fri Apr 25 2025 15:40:24 GMT-0500 (Central Daylight Time),236867.09999999963,A,c,I,c,320,1,332.7999999988824,236534.30000000075,8038,WL,B,3.0
2,6.015000104904175,learn,53984.999895095825,Fri Apr 25 2025 15:40:24 GMT-0500 (Central Daylight Time),237283.90000000037,A,cb,I,b,410,1,749.5999999996275,236534.30000000075,8038,WL,B,3.0
2,6.4150002002716064,learn,53584.99979972839,Fri Apr 25 2025 15:40:24 GMT-0500 (Central Daylight Time),237683.59999999963,A,c,I,backspace,394,1,1149.2999999988824,236534.30000000075,8038,WL,B,3.0
2,7.265000104904175,learn,52734.999895095825,Fri Apr 25 2025 15:40:24 GMT-0500 (Central Daylight Time),238533.40000000037,A,ca,I,a,843,1,1999.0999999996275,236534.30000000075,8038,WL,B,3.0
2,7.5980000495910645,learn,52401.999950408936,Fri Apr 25 2025 15:40:24 GMT-0500 (Central Daylight Time),238867.0,A,cab,I,b,329,1,2332.699999999255,236534.30000000075,8038,WL,B,3.0
2,7.765000104904175,learn,52234.999895095825,Fri Apr 25 2025 15:40:24 GMT-0500 (Central Daylight Time),239033.40000000037,A,cabi,I,i,147,1,2499.0999999996275,236534.30000000075,8038,WL,B,3.0
2,7.89900016784668,learn,52100.99983215332,Fri Apr 25 2025 15:40:24 GMT-0500 (Central Daylight Time),239167.5,A,cabin,I,n,124,1,2633.199999999255,236534.30000000075,8038,WL,B,3.0
2,8.231000185012817,learn,51768.99981498718,Fri Apr 25 2025 15:40:24 GMT-0500 (Central Daylight Time),239499.59999999963,A,cabinenter,I,enter,318,1,2965.2999999988824,236534.30000000075,8038,WL,B,3.0
2,8.464000225067139,learn,51535.99977493286,Fri Apr 25 2025 15:40:24 GMT-0500 (Central Daylight Time),239733.0,A,f,I,f,218,1,233.09999999962747,239499.90000000037,8038,WL,B,4.0
2,8.581000089645386,learn,51418.999910354614,Fri Apr 25 2025 15:40:24 GMT-0500 (Central Daylight Time),239849.70000000112,A,fi,I,i,96,1,349.80000000074506,239499.90000000037,8038,WL,B,4.0
2,8.698000192642212,learn,51301.99980735779,Fri Apr 25 2025 15:40:24 GMT-0500 (Central Daylight Time),239966.20000000112,A,fir,I,r,99,1,466.30000000074506,239499.90000000037,8038,WL,B,4.0
2,8.814000129699707,learn,51185.99987030029,Fri Apr 25 2025 15:40:24 GMT-0500 (Central Daylight Time),240082.90000000037,A,fire,I,e,95,1,583.0,239499.90000000037,8038,WL,B,4.0
2,9.04800009727478,learn,50951.99990272522,Fri Apr 25 2025 15:40:24 GMT-0500 (Central Daylight Time),240316.20000000112,A,fireenter,I,enter,218,1,816.3000000007451,239499.90000000037,8038,WL,B,4.0
2,9.747000217437744,learn,50252.999782562256,Fri Apr 25 2025 15:40:24 GMT-0500 (Central Daylight Time),241016.0,A,a,I,a,690,1,699.5,240316.5,8038,WL,B,5.0
2,9.914000034332275,learn,50085.999965667725,Fri Apr 25 2025 15:40:24 GMT-0500 (Central Daylight Time),241182.70000000112,A,ar,I,r,150,1,866.2000000011176,240316.5,8038,WL,B,5.0
2,10.064000129699707,learn,49935.99987030029,Fri Apr 25 2025 15:40:24 GMT-0500 (Central Daylight Time),241332.5,A,arm,I,m,136,1,1016.0,240316.5,8038,WL,B,5.0
2,10.314000129699707,learn,49685.99987030029,Fri Apr 25 2025 15:40:24 GMT-0500 (Central Daylight Time),241582.40000000037,A,armenter,I,enter,241,1,1265.9000000003725,240316.5,8038,WL,B,5.0
2,10.53000020980835,learn,49469.99979019165,Fri Apr 25 2025 15:40:24 GMT-0500 (Central Daylight Time),241799.20000000112,A,d,I,d,208,1,216.5,241582.70000000112,8038,WL,B,6.0
2,10.647000074386597,learn,49352.9999256134,Fri Apr 25 2025 15:40:24 GMT-0500 (Central Daylight Time),241915.90000000037,A,do,I,o,103,1,333.19999999925494,241582.70000000112,8038,WL,B,6.0
2,10.797000169754028,learn,49202.99983024597,Fri Apr 25 2025 15:40:24 GMT-0500 (Central Daylight Time),242065.59999999963,A,doo,I,o,138,1,482.8999999985099,241582.70000000112,8038,WL,B,6.0
2,10.880000114440918,learn,49119.99988555908,Fri Apr 25 2025 15:40:24 GMT-0500 (Central Daylight Time),242149.09999999963,A,door,I,r,69,1,566.3999999985099,241582.70000000112,8038,WL,B,6.0
2,11.080000162124634,learn,48919.999837875366,Fri Apr 25 2025 15:40:24 GMT-0500 (Central Daylight Time),242348.80000000075,A,doorenter,I,enter,193,1,766.0999999996275,241582.70000000112,8038,WL,B,6.0
2,11.830000162124634,learn,48169.999837875366,Fri Apr 25 2025 15:40:24 GMT-0500 (Central Daylight Time),243098.70000000112,A,w,I,w,729,1,749.5,242349.20000000112,8038,WL,B,7.0
2,11.94700002670288,learn,48052.99997329712,Fri Apr 25 2025 15:40:24 GMT-0500 (Central Daylight Time),243215.40000000037,A,wi,I,i,99,1,866.1999999992549,242349.20000000112,8038,WL,B,7.0
2,12.080000162124634,learn,47919.999837875366,Fri Apr 25 2025 15:40:24 GMT-0500 (Central Daylight Time),243348.5,A,wif,I,f,119,1,999.2999999988824,242349.20000000112,8038,WL,B,7.0
2,12.230000019073486,learn,47769.999980926514,Fri Apr 25 2025 15:40:24 GMT-0500 (Central Daylight Time),243498.59999999963,A,wife,I,e,137,1,1149.3999999985099,242349.20000000112,8038,WL,B,7.0
2,12.380000114440918,learn,47619.99988555908,Fri Apr 25 2025 15:40:24 GMT-0500 (Central Daylight Time),243648.30000000075,A,wifeenter,I,enter,139,1,1299.0999999996275,242349.20000000112,8038,WL,B,7.0
2,13.563000202178955,learn,46436.999797821045,Fri Apr 25 2025 15:40:24 GMT-0500 (Central Daylight Time),244831.5,A,s,I,s,1174,1,1182.9000000003725,243648.59999999963,8038,WL,B,8.0
2,13.78000020980835,learn,46219.99979019165,Fri Apr 25 2025 15:40:24 GMT-0500 (Central Daylight Time),245048.20000000112,A,st,I,t,199,1,1399.6000000014901,243648.59999999963,8038,WL,B,8.0
2,14.013000011444092,learn,45986.99998855591,Fri Apr 25 2025 15:40:24 GMT-0500 (Central Daylight Time),245281.30000000075,A,str,I,r,213,1,1632.7000000011176,243648.59999999963,8038,WL,B,8.0
2,14.163000106811523,learn,45836.99989318848,Fri Apr 25 2025 15:40:24 GMT-0500 (Central Daylight Time),245431.30000000075,A,stre,I,e,141,1,1782.7000000011176,243648.59999999963,8038,WL,B,8.0
2,14.313000202178955,learn,45686.999797821045,Fri Apr 25 2025 15:40:24 GMT-0500 (Central Daylight Time),245581.30000000075,A,stree,I,e,134,1,1932.7000000011176,243648.59999999963,8038,WL,B,8.0
2,14.546000003814697,learn,45453.9999961853,Fri Apr 25 2025 15:40:24 GMT-0500 (Central Daylight Time),245814.5,A,street,I,t,225,1,2165.9000000003725,243648.59999999963,8038,WL,B,8.0
2,14.729000091552734,learn,45270.999908447266,Fri Apr 25 2025 15:40:24 GMT-0500 (Central Daylight Time),245997.70000000112,A,streetenter,I,enter,175,1,2349.10000000149,243648.59999999963,8038,WL,B,8.0
2,15.01200008392334,learn,44987.99991607666,Fri Apr 25 2025 15:40:24 GMT-0500 (Central Daylight Time),246281.0,A,g,I,g,265,1,283.09999999962747,245997.90000000037,8038,WL,B,9.0
2,15.229000091552734,learn,44770.999908447266,Fri Apr 25 2025 15:40:24 GMT-0500 (Central Daylight Time),246497.59999999963,A,gr,I,r,205,1,499.69999999925494,245997.90000000037,8038,WL,B,9.0
2,15.379000186920166,learn,44620.999813079834,Fri Apr 25 2025 15:40:24 GMT-0500 (Central Daylight Time),246647.59999999963,A,gra,I,a,140,1,649.6999999992549,245997.90000000037,8038,WL,B,9.0
2,15.578999996185303,learn,44421.0000038147,Fri Apr 25 2025 15:40:24 GMT-0500 (Central Daylight Time),246847.5,A,gras,I,s,190,1,849.5999999996275,245997.90000000037,8038,WL,B,9.0
2,15.746000051498413,learn,44253.99994850159,Fri Apr 25 2025 15:40:24 GMT-0500 (Central Daylight Time),247014.20000000112,A,grass,I,s,150,1,1016.3000000007451,245997.90000000037,8038,WL,B,9.0
2,15.979000091552734,learn,44020.999908447266,Fri Apr 25 2025 15:40:24 GMT-0500 (Central Daylight Time),247247.5,A,grassenter,I,enter,224,1,1249.5999999996275,245997.90000000037,8038,WL,B,9.0
2,16.51200008392334,learn,43487.99991607666,Fri Apr 25 2025 15:40:24 GMT-0500 (Central Daylight Time),247780.59999999963,A,d,I,d,526,1,532.6999999992549,247247.90000000037,8038,WL,B,10.0
2,16.645000219345093,learn,43354.99978065491,Fri Apr 25 2025 15:40:24 GMT-0500 (Central Daylight Time),247913.90000000037,A,do,I,o,114,1,666.0,247247.90000000037,8038,WL,B,10.0
2,16.795000076293945,learn,43204.999923706055,Fri Apr 25 2025 15:40:24 GMT-0500 (Central Daylight Time),248063.80000000075,A,doo,I,o,131,1,815.9000000003725,247247.90000000037,8038,WL,B,10.0
2,16.862000226974487,learn,43137.99977302551,Fri Apr 25 2025 15:40:24 GMT-0500 (Central Daylight Time),248130.80000000075,A,door,I,r,61,1,882.9000000003725,247247.90000000037,8038,WL,B,10.0
2,17.128000020980835,learn,42871.999979019165,Fri Apr 25 2025 15:40:24 GMT-0500 (Central Daylight Time),248396.70000000112,A,doorenter,I,enter,250,1,1148.800000000745,247247.90000000037,8038,WL,B,10.0
2,17.378000020980835,learn,42621.999979019165,Fri Apr 25 2025 15:40:24 GMT-0500 (Central Daylight Time),248646.80000000075,A,a,I,a,241,1,249.80000000074506,248397.0,8038,WL,B,11.0
2,17.562000036239624,learn,42437.999963760376,Fri Apr 25 2025 15:40:24 GMT-0500 (Central Daylight Time),248830.09999999963,A,ar,I,r,175,1,433.09999999962747,248397.0,8038,WL,B,11.0
2,17.695000171661377,learn,42304.99982833862,Fri Apr 25 2025 15:40:24 GMT-0500 (Central Daylight Time),248963.59999999963,A,arm,I,m,127,1,566.5999999996275,248397.0,8038,WL,B,11.0
2,17.945000171661377,learn,42054.99982833862,Fri Apr 25 2025 15:40:24 GMT-0500 (Central Daylight Time),249213.90000000037,A,armenter,I,enter,243,1,816.9000000003725,248397.0,8038,WL,B,11.0
2,24.776000022888184,learn,35223.99997711182,Fri Apr 25 2025 15:40:24 GMT-0500 (Central Daylight Time),256045.20000000112,A,enter,I,enter,6816,1,6830.9000000003725,249214.30000000075,8038,WL,B,12.0
2,25.14300012588501,learn,34856.99987411499,Fri Apr 25 2025 15:40:24 GMT-0500 (Central Daylight Time),256411.30000000075,A,enter,I,enter,360,1,365.59999999962747,256045.70000000112,8038,WL,B,13.0
2,25.54300022125244,learn,34456.99977874756,Fri Apr 25 2025 15:40:24 GMT-0500 (Central Daylight Time),256811.30000000075,A,enter,I,enter,387,1,399.7000000011176,256411.59999999963,8038,WL,B,14.0
2,26.093000173568726,learn,33906.999826431274,Fri Apr 25 2025 15:40:24 GMT-0500 (Central Daylight Time),257361.40000000037,A,enter,I,enter,531,1,549.6999999992549,256811.70000000112,8038,WL,B,15.0
3,0.432999849319458,learn,59567.00015068054,Fri Apr 25 2025 15:40:24 GMT-0500 (Central Daylight Time),323840.4000000004,A,c,I,c,424,1,432.90000000037253,323407.5,8038,WL,B,1.0
3,0.7829999923706055,learn,59217.000007629395,Fri Apr 25 2025 15:40:24 GMT-0500 (Central Daylight Time),324190.2000000011,A,cl,I,l,341,1,782.7000000011176,323407.5,8038,WL,B,1.0
3,0.9659998416900635,learn,59034.00015830994,Fri Apr 25 2025 15:40:24 GMT-0500 (Central Daylight Time),324373.5999999996,A,clo,I,o,176,1,966.0999999996275,323407.5,8038,WL,B,1.0
3,1.4659998416900635,learn,58534.00015830994,Fri Apr 25 2025 15:40:24 GMT-0500 (Central Daylight Time),324873.5,A,cloc,I,c,489,1,1466.0,323407.5,8038,WL,B,1.0
3,2.2660000324249268,learn,57733.99996757507,Fri Apr 25 2025 15:40:24 GMT-0500 (Central Daylight Time),325673.30000000075,A,clock,I,k,781,1,2265.800000000745,323407.5,8038,WL,B,1.0
3,2.998999834060669,learn,57001.00016593933,Fri Apr 25 2025 15:40:24 GMT-0500 (Central Daylight Time),326406.2000000011,A,clockenter,I,enter,725,1,2998.7000000011176,323407.5,8038,WL,B,1.0
3,3.3980000019073486,learn,56601.99999809265,Fri Apr 25 2025 15:40:24 GMT-0500 (Central Daylight Time),326806.0,A,f,I,f,384,1,399.40000000037253,326406.5999999996,8038,WL,B,2.0
3,3.865000009536743,learn,56134.99999046326,Fri Apr 25 2025 15:40:24 GMT-0500 (Central Daylight Time),327272.7000000011,A,fi,I,i,457,1,866.1000000014901,326406.5999999996,8038,WL,B,2.0
3,4.014999866485596,learn,55985.000133514404,Fri Apr 25 2025 15:40:24 GMT-0500 (Central Daylight Time),327422.9000000004,A,fir,I,r,134,1,1016.3000000007451,326406.5999999996,8038,WL,B,2.0
3,4.148000001907349,learn,55851.99999809265,Fri Apr 25 2025 15:40:24 GMT-0500 (Central Daylight Time),327555.5999999996,A,fire,I,e,128,1,1149.0,326406.5999999996,8038,WL,B,2.0
3,4.38100004196167,learn,55618.99995803833,Fri Apr 25 2025 15:40:24 GMT-0500 (Central Daylight Time),327789.2000000011,A,fireenter,I,enter,219,1,1382.6000000014901,326406.5999999996,8038,WL,B,2.0
3,4.747999906539917,learn,55252.00009346008,Fri Apr 25 2025 15:40:24 GMT-0500 (Central Daylight Time),328155.7000000011,A,c,I,c,361,1,366.1000000014901,327789.5999999996,8038,WL,B,3.0
3,5.014999866485596,learn,54985.000133514404,Fri Apr 25 2025 15:40:24 GMT-0500 (Central Daylight Time),328422.5,A,ca,I,a,259,1,632.9000000003725,327789.5999999996,8038,WL,B,3.0
3,5.38100004196167,learn,54618.99995803833,Fri Apr 25 2025 15:40:24 GMT-0500 (Central Daylight Time),328788.5,A,cab,I,b,351,1,998.9000000003725,327789.5999999996,8038,WL,B,3.0
3,5.5309998989105225,learn,54469.00010108948,Fri Apr 25 2025 15:40:24 GMT-0500 (Central Daylight Time),328938.5,A,cabi,I,i,130,1,1148.9000000003725,327789.5999999996,8038,WL,B,3.0
3,5.648000001907349,learn,54351.99999809265,Fri Apr 25 2025 15:40:24 GMT-0500 (Central Daylight Time),329055.30000000075,A,cabin,I,n,107,1,1265.7000000011176,327789.5999999996,8038,WL,B,3.0
3,5.930999994277954,learn,54069.000005722046,Fri Apr 25 2025 15:40:24 GMT-0500 (Central Daylight Time),329338.7000000011,A,cabinenter,I,enter,271,1,1549.1000000014901,327789.5999999996,8038,WL,B,3.0
3,6.247999906539917,learn,53752.00009346008,Fri Apr 25 2025 15:40:24 GMT-0500 (Central Daylight Time),329655.30000000075,A,l,I,l,308,1,316.09999999962747,329339.2000000011,8038,WL,B,4.0
3,6.38100004196167,learn,53618.99995803833,Fri Apr 25 2025 15:40:24 GMT-0500 (Central Daylight Time),329788.5999999996,A,la,I,a,127,1,449.3999999985099,329339.2000000011,8038,WL,B,4.0
3,6.648000001907349,learn,53351.99999809265,Fri Apr 25 2025 15:40:24 GMT-0500 (Central Daylight Time),330055.4000000004,A,lak,I,k,250,1,716.1999999992549,329339.2000000011,8038,WL,B,4.0
3,6.763999938964844,learn,53236.000061035156,Fri Apr 25 2025 15:40:24 GMT-0500 (Central Daylight Time),330171.80000000075,A,lake,I,e,103,1,832.5999999996275,329339.2000000011,8038,WL,B,4.0
3,6.96399998664856,learn,53036.00001335144,Fri Apr 25 2025 15:40:24 GMT-0500 (Central Daylight Time),330371.7000000011,A,lakeenter,I,enter,187,1,1032.5,329339.2000000011,8038,WL,B,4.0
3,8.013999938964844,learn,51986.000061035156,Fri Apr 25 2025 15:40:24 GMT-0500 (Central Daylight Time),331421.30000000075,A,p,I,p,1043,1,1049.300000000745,330372.0,8038,WL,B,5.0
3,8.246999979019165,learn,51753.000020980835,Fri Apr 25 2025 15:40:24 GMT-0500 (Central Daylight Time),331654.5999999996,A,pi,I,i,217,1,1282.5999999996275,330372.0,8038,WL,B,5.0
3,8.462999820709229,learn,51537.00017929077,Fri Apr 25 2025 15:40:24 GMT-0500 (Central Daylight Time),331871.0,A,pip,I,p,208,1,1499.0,330372.0,8038,WL,B,5.0
3,8.879999876022339,learn,51120.00012397766,Fri Apr 25 2025 15:40:24 GMT-0500 (Central Daylight Time),332287.7000000011,A,pipe,I,e,399,1,1915.7000000011176,330372.0,8038,WL,B,5.0
3,9.27999997138977,learn,50720.00002861023,Fri Apr 25 2025 15:40:24 GMT-0500 (Central Daylight Time),332687.5999999996,A,pipeenter,I,enter,383,1,2315.5999999996275,330372.0,8038,WL,B,5.0
3,10.329999923706055,learn,49670.000076293945,Fri Apr 25 2025 15:40:24 GMT-0500 (Central Daylight Time),333737.30000000075,A,s,I,s,1031,1,1049.4000000003725,332687.9000000004,8038,WL,B,6.0
3,10.513000011444092,learn,49486.99998855591,Fri Apr 25 2025 15:40:24 GMT-0500 (Central Daylight Time),333920.7000000011,A,st,I,t,173,1,1232.800000000745,332687.9000000004,8038,WL,B,6.0
3,10.679999828338623,learn,49320.00017166138,Fri Apr 25 2025 15:40:24 GMT-0500 (Central Daylight Time),334087.30000000075,A,sta,I,a,149,1,1399.4000000003725,332687.9000000004,8038,WL,B,6.0
3,10.779000043869019,learn,49220.99995613098,Fri Apr 25 2025 15:40:24 GMT-0500 (Central Daylight Time),334187.0999999996,A,star,I,r,95,1,1499.199999999255,332687.9000000004,8038,WL,B,6.0
3,11.44599986076355,learn,48554.00013923645,Fri Apr 25 2025 15:40:24 GMT-0500 (Central Daylight Time),334853.5,A,starenter,I,enter,652,1,2165.5999999996275,332687.9000000004,8038,WL,B,6.0
3,11.961999893188477,learn,48038.00010681152,Fri Apr 25 2025 15:40:24 GMT-0500 (Central Daylight Time),335370.0999999996,A,w,I,w,496,1,516.1999999992549,334853.9000000004,8038,WL,B,7.0
3,12.19599986076355,learn,47804.00013923645,Fri Apr 25 2025 15:40:24 GMT-0500 (Central Daylight Time),335603.4000000004,A,wi,I,i,229,1,749.5,334853.9000000004,8038,WL,B,7.0
3,12.296000003814697,learn,47703.9999961853,Fri Apr 25 2025 15:40:24 GMT-0500 (Central Daylight Time),335703.30000000075,A,win,I,n,91,1,849.4000000003725,334853.9000000004,8038,WL,B,7.0
3,12.44599986076355,learn,47554.00013923645,Fri Apr 25 2025 15:40:24 GMT-0500 (Central Daylight Time),335853.2000000011,A,wind,I,d,143,1,999.3000000007451,334853.9000000004,8038,WL,B,7.0
3,12.546000003814697,learn,47453.9999961853,Fri Apr 25 2025 15:40:24 GMT-0500 (Central Daylight Time),335953.30000000075,A,windo,I,o,89,1,1099.4000000003725,334853.9000000004,8038,WL,B,7.0
3,14.111999988555908,learn,45888.00001144409,Fri Apr 25 2025 15:40:24 GMT-0500 (Central Daylight Time),337519.7000000011,A,window,I,w,1557,1,2665.800000000745,334853.9000000004,8038,WL,B,7.0
3,14.361999988555908,learn,45638.00001144409,Fri Apr 25 2025 15:40:24 GMT-0500 (Central Daylight Time),337769.4000000004,A,windowenter,I,enter,231,1,2915.5,334853.9000000004,8038,WL,B,7.0
3,14.794999837875366,learn,45205.000162124634,Fri Apr 25 2025 15:40:24 GMT-0500 (Central Daylight Time),338202.5999999996,A,s,I,s,413,1,432.7999999988824,337769.80000000075,8038,WL,B,8.0
3,15.027999877929688,learn,44972.00012207031,Fri Apr 25 2025 15:40:24 GMT-0500 (Central Daylight Time),338436.0999999996,A,st,I,t,220,1,666.2999999988824,337769.80000000075,8038,WL,B,8.0
3,15.310999870300293,learn,44689.00012969971,Fri Apr 25 2025 15:40:24 GMT-0500 (Central Daylight Time),338719.0999999996,A,str,I,r,266,1,949.2999999988824,337769.80000000075,8038,WL,B,8.0
3,15.494999885559082,learn,44505.00011444092,Fri Apr 25 2025 15:40:24 GMT-0500 (Central Daylight Time),338902.4000000004,A,stre,I,e,175,1,1132.5999999996275,337769.80000000075,8038,WL,B,8.0
3,15.66100001335144,learn,44338.99998664856,Fri Apr 25 2025 15:40:24 GMT-0500 (Central Daylight Time),339069.0,A,stree,I,e,161,1,1299.199999999255,337769.80000000075,8038,WL,B,8.0
3,15.827999830245972,learn,44172.00016975403,Fri Apr 25 2025 15:40:24 GMT-0500 (Central Daylight Time),339235.5999999996,A,street,I,t,161,1,1465.7999999988824,337769.80000000075,8038,WL,B,8.0
3,16.677000045776367,learn,43322.99995422363,Fri Apr 25 2025 15:40:24 GMT-0500 (Central Daylight Time),340085.0999999996,A,streetenter,I,enter,835,1,2315.2999999988824,337769.80000000075,8038,WL,B,8.0
3,16.91100001335144,learn,43088.99998664856,Fri Apr 25 2025 15:40:24 GMT-0500 (Central Daylight Time),340318.5999999996,A,g,I,g,225,1,233.0,340085.5999999996,8038,WL,B,9.0
3,17.244999885559082,learn,42755.00011444092,Fri Apr 25 2025 15:40:24 GMT-0500 (Central Daylight Time),340652.9000000004,A,gr,I,r,328,1,567.3000000007451,340085.5999999996,8038,WL,B,9.0
3,17.49399995803833,learn,42506.00004196167,Fri Apr 25 2025 15:40:24 GMT-0500 (Central Daylight Time),340901.9000000004,A,gra,I,a,233,1,816.3000000007451,340085.5999999996,8038,WL,B,9.0
3,17.776999950408936,learn,42223.000049591064,Fri Apr 25 2025 15:40:24 GMT-0500 (Central Daylight Time),341185.0999999996,A,gras,I,s,273,1,1099.5,340085.5999999996,8038,WL,B,9.0
3,17.927000045776367,learn,42072.99995422363,Fri Apr 25 2025 15:40:24 GMT-0500 (Central Daylight Time),341334.9000000004,A,grass,I,s,141,1,1249.300000000745,340085.5999999996,8038,WL,B,9.0
3,18.24399995803833,learn,41756.00004196167,Fri Apr 25 2025 15:40:24 GMT-0500 (Central Daylight Time),341651.4000000004,A,grassenter,I,enter,304,1,1565.800000000745,340085.5999999996,8038,WL,B,9.0
3,20.276000022888184,learn,39723.99997711182,Fri Apr 25 2025 15:40:24 GMT-0500 (Central Daylight Time),343683.80000000075,A,a,I,a,2027,1,2031.9000000003725,341651.9000000004,8038,WL,B,10.0
3,20.47599983215332,learn,39524.00016784668,Fri Apr 25 2025 15:40:24 GMT-0500 (Central Daylight Time),343883.7000000011,A,ar,I,r,194,1,2231.800000000745,341651.9000000004,8038,WL,B,10.0
3,20.658999919891357,learn,39341.00008010864,Fri Apr 25 2025 15:40:24 GMT-0500 (Central Daylight Time),344067.0999999996,A,arm,I,m,170,1,2415.199999999255,341651.9000000004,8038,WL,B,10.0
3,20.942999839782715,learn,39057.000160217285,Fri Apr 25 2025 15:40:24 GMT-0500 (Central Daylight Time),344350.4000000004,A,armenter,I,enter,267,1,2698.5,341651.9000000004,8038,WL,B,10.0
3,22.875999927520752,learn,37124.00007247925,Fri Apr 25 2025 15:40:24 GMT-0500 (Central Daylight Time),346283.30000000075,A,w,I,w,1912,1,1932.5,344350.80000000075,8038,WL,B,11.0
3,23.04199981689453,learn,36958.00018310547,Fri Apr 25 2025 15:40:24 GMT-0500 (Central Daylight Time),346450.2000000011,A,wi,I,i,155,1,2099.4000000003725,344350.80000000075,8038,WL,B,11.0
3,23.20899987220764,learn,36791.00012779236,Fri Apr 25 2025 15:40:24 GMT-0500 (Central Daylight Time),346616.5,A,wif,I,f,148,1,2265.699999999255,344350.80000000075,8038,WL,B,11.0
3,23.358999967575073,learn,36641.00003242493,Fri Apr 25 2025 15:40:24 GMT-0500 (Central Daylight Time),346766.7000000011,A,wife,I,e,134,1,2415.9000000003725,344350.80000000075,8038,WL,B,11.0
3,23.72599983215332,learn,36274.00016784668,Fri Apr 25 2025 15:40:24 GMT-0500 (Central Daylight Time),347133.30000000075,A,wifeenter,I,enter,360,1,2782.5,344350.80000000075,8038,WL,B,11.0
3,35.454999923706055,learn,24545.000076293945,Fri Apr 25 2025 15:40:24 GMT-0500 (Central Daylight Time),358862.7000000011,A,enter,I,enter,11721,1,11729.10000000149,347133.5999999996,8038,WL,B,12.0
3,35.954999923706055,learn,24045.000076293945,Fri Apr 25 2025 15:40:24 GMT-0500 (Central Daylight Time),359362.5,A,enter,I,enter,479,1,499.40000000037253,358863.0999999996,8038,WL,B,13.0
3,36.30499982833862,learn,23695.000171661377,Fri Apr 25 2025 15:40:24 GMT-0500 (Central Daylight Time),359712.4000000004,A,enter,I,enter,340,1,349.59999999962747,359362.80000000075,8038,WL,B,14.0
3,36.787999868392944,learn,23212.000131607056,Fri Apr 25 2025 15:40:24 GMT-0500 (Central Daylight Time),360195.80000000075,A,enter,I,enter,470,1,483.0,359712.80000000075,8038,WL,B,15.0
4,0.41699981689453125,learn,59583.00018310547,Fri Apr 25 2025 15:40:24 GMT-0500 (Central Daylight Time),426791.5,A,s,I,s,408,1,416.40000000037253,426375.0999999996,8038,WL,B,1.0
4,0.6169998645782471,learn,59383.00013542175,Fri Apr 25 2025 15:40:24 GMT-0500 (Central Daylight Time),426991.4000000004,A,sk,I,k,190,1,616.3000000007451,426375.0999999996,8038,WL,B,1.0
4,0.8159999847412109,learn,59184.00001525879,Fri Apr 25 2025 15:40:24 GMT-0500 (Central Daylight Time),427191.2000000011,A,ski,I,i,183,1,816.1000000014901,426375.0999999996,8038,WL,B,1.0
4,1.0329999923706055,learn,58967.000007629395,Fri Apr 25 2025 15:40:24 GMT-0500 (Central Daylight Time),427407.9000000004,A,skin,I,n,199,1,1032.800000000745,426375.0999999996,8038,WL,B,1.0
4,1.3999998569488525,learn,58600.00014305115,Fri Apr 25 2025 15:40:24 GMT-0500 (Central Daylight Time),427774.5,A,skinenter,I,enter,351,1,1399.4000000003725,426375.0999999996,8038,WL,B,1.0
4,1.682999849319458,learn,58317.00015068054,Fri Apr 25 2025 15:40:24 GMT-0500 (Central Daylight Time),428057.7000000011,A,f,I,f,271,1,282.80000000074506,427774.9000000004,8038,WL,B,2.0
4,1.815999984741211,learn,58184.00001525879,Fri Apr 25 2025 15:40:24 GMT-0500 (Central Daylight Time),428191.0,A,fi,I,i,125,1,416.09999999962747,427774.9000000004,8038,WL,B,2.0
4,2.065999984741211,learn,57934.00001525879,Fri Apr 25 2025 15:40:24 GMT-0500 (Central Daylight Time),428441.0999999996,A,fir,I,r,239,1,666.1999999992549,427774.9000000004,8038,WL,B,2.0
4,2.182999849319458,learn,57817.00015068054,Fri Apr 25 2025 15:40:24 GMT-0500 (Central Daylight Time),428557.5999999996,A,fire,I,e,101,1,782.6999999992549,427774.9000000004,8038,WL,B,2.0
4,2.5989999771118164,learn,57401.00002288818,Fri Apr 25 2025 15:40:24 GMT-0500 (Central Daylight Time),428974.0999999996,A,fireenter,I,enter,401,1,1199.199999999255,427774.9000000004,8038,WL,B,2.0
4,2.9159998893737793,learn,57084.00011062622,Fri Apr 25 2025 15:40:24 GMT-0500 (Central Daylight Time),429290.5999999996,A,c,I,c,304,1,316.0,428974.5999999996,8038,WL,B,3.0
4,3.0319998264312744,learn,56968.000173568726,Fri Apr 25 2025 15:40:24 GMT-0500 (Central Daylight Time),429407.0,A,cl,I,l,108,1,432.40000000037253,428974.5999999996,8038,WL,B,3.0
4,3.2330000400543213,learn,56766.99995994568,Fri Apr 25 2025 15:40:24 GMT-0500 (Central Daylight Time),429607.30000000075,A,clo,I,o,184,1,632.7000000011176,428974.5999999996,8038,WL,B,3.0
4,3.365999937057495,learn,56634.000062942505,Fri Apr 25 2025 15:40:24 GMT-0500 (Central Daylight Time),429740.5,A,clos,I,s,127,1,765.9000000003725,428974.5999999996,8038,WL,B,3.0
4,4.031999826431274,learn,55968.000173568726,Fri Apr 25 2025 15:40:24 GMT-0500 (Central Daylight Time),430407.0,A,clo,I,backspace,658,1,1432.4000000003725,428974.5999999996,8038,WL,B,3.0
4,4.266000032424927,learn,55733.99996757507,Fri Apr 25 2025 15:40:24 GMT-0500 (Central Daylight Time),430640.30000000075,A,cloc,I,c,216,1,1665.7000000011176,428974.5999999996,8038,WL,B,3.0
4,4.448999881744385,learn,55551.000118255615,Fri Apr 25 2025 15:40:24 GMT-0500 (Central Daylight Time),430823.5999999996,A,clock,I,k,166,1,1849.0,428974.5999999996,8038,WL,B,3.0
4,4.747999906539917,learn,55252.00009346008,Fri Apr 25 2025 15:40:24 GMT-0500 (Central Daylight Time),431123.2000000011,A,clockenter,I,enter,295,1,2148.60000000149,428974.5999999996,8038,WL,B,3.0
4,5.097999811172485,learn,54902.000188827515,Fri Apr 25 2025 15:40:24 GMT-0500 (Central Daylight Time),431473.30000000075,A,c,I,c,340,1,349.90000000037253,431123.4000000004,8038,WL,B,4.0
4,5.332000017166138,learn,54667.99998283386,Fri Apr 25 2025 15:40:24 GMT-0500 (Central Daylight Time),431706.5999999996,A,ca,I,a,221,1,583.1999999992549,431123.4000000004,8038,WL,B,4.0
4,5.547999858856201,learn,54452.0001411438,Fri Apr 25 2025 15:40:24 GMT-0500 (Central Daylight Time),431923.0999999996,A,cab,I,b,196,1,799.6999999992549,431123.4000000004,8038,WL,B,4.0
4,6.164999961853027,learn,53835.00003814697,Fri Apr 25 2025 15:40:24 GMT-0500 (Central Daylight Time),432539.80000000075,A,cabi,I,i,595,1,1416.4000000003725,431123.4000000004,8038,WL,B,4.0
4,6.2809998989105225,learn,53719.00010108948,Fri Apr 25 2025 15:40:24 GMT-0500 (Central Daylight Time),432656.2000000011,A,cabin,I,n,99,1,1532.800000000745,431123.4000000004,8038,WL,B,4.0
4,6.648000001907349,learn,53351.99999809265,Fri Apr 25 2025 15:40:24 GMT-0500 (Central Daylight Time),433022.9000000004,A,cabinenter,I,enter,358,1,1899.5,431123.4000000004,8038,WL,B,4.0
4,7.247999906539917,learn,52752.00009346008,Fri Apr 25 2025 15:40:24 GMT-0500 (Central Daylight Time),433622.7000000011,A,p,I,p,592,1,599.6000000014901,433023.0999999996,8038,WL,B,5.0
4,7.5309998989105225,learn,52469.00010108948,Fri Apr 25 2025 15:40:24 GMT-0500 (Central Daylight Time),433906.0,A,pi,I,i,264,1,882.9000000003725,433023.0999999996,8038,WL,B,5.0
4,7.914000034332275,learn,52085.999965667725,Fri Apr 25 2025 15:40:24 GMT-0500 (Central Daylight Time),434288.9000000004,A,pip,I,p,364,1,1265.800000000745,433023.0999999996,8038,WL,B,5.0
4,8.313999891281128,learn,51686.00010871887,Fri Apr 25 2025 15:40:24 GMT-0500 (Central Daylight Time),434689.0999999996,A,pipe,I,e,389,1,1666.0,433023.0999999996,8038,WL,B,5.0
4,8.813999891281128,learn,51186.00010871887,Fri Apr 25 2025 15:40:24 GMT-0500 (Central Daylight Time),435188.80000000075,A,pipeenter,I,enter,485,1,2165.7000000011176,433023.0999999996,8038,WL,B,5.0
4,9.164000034332275,learn,50835.999965667725,Fri Apr 25 2025 15:40:24 GMT-0500 (Central Daylight Time),435538.5999999996,A,l,I,l,338,1,349.5,435189.0999999996,8038,WL,B,6.0
4,9.313999891281128,learn,50686.00010871887,Fri Apr 25 2025 15:40:24 GMT-0500 (Central Daylight Time),435688.7000000011,A,la,I,a,140,1,499.6000000014901,435189.0999999996,8038,WL,B,6.0
4,9.579999923706055,learn,50420.000076293945,Fri Apr 25 2025 15:40:24 GMT-0500 (Central Daylight Time),435955.30000000075,A,lak,I,k,246,1,766.2000000011176,435189.0999999996,8038,WL,B,6.0
4,9.746999979019165,learn,50253.000020980835,Fri Apr 25 2025 15:40:24 GMT-0500 (Central Daylight Time),436121.80000000075,A,lake,I,e,147,1,932.7000000011176,435189.0999999996,8038,WL,B,6.0
4,9.996999979019165,learn,50003.000020980835,Fri Apr 25 2025 15:40:24 GMT-0500 (Central Daylight Time),436371.5999999996,A,lakeenter,I,enter,245,1,1182.5,435189.0999999996,8038,WL,B,6.0
4,10.19700002670288,learn,49802.99997329712,Fri Apr 25 2025 15:40:24 GMT-0500 (Central Daylight Time),436571.7000000011,A,a,I,a,187,1,199.90000000037253,436371.80000000075,8038,WL,B,7.0
4,10.379999876022339,learn,49620.00012397766,Fri Apr 25 2025 15:40:24 GMT-0500 (Central Daylight Time),436754.9000000004,A,ar,I,r,171,1,383.09999999962747,436371.80000000075,8038,WL,B,7.0
4,10.579999923706055,learn,49420.000076293945,Fri Apr 25 2025 15:40:24 GMT-0500 (Central Daylight Time),436955.0,A,arm,I,m,180,1,583.1999999992549,436371.80000000075,8038,WL,B,7.0
4,10.929999828338623,learn,49070.00017166138,Fri Apr 25 2025 15:40:24 GMT-0500 (Central Daylight Time),437304.9000000004,A,armenter,I,enter,331,1,933.0999999996275,436371.80000000075,8038,WL,B,7.0
4,11.164000034332275,learn,48835.999965667725,Fri Apr 25 2025 15:40:24 GMT-0500 (Central Daylight Time),437538.4000000004,A,w,I,w,214,1,233.09999999962747,437305.30000000075,8038,WL,B,8.0
4,11.379999876022339,learn,48620.00012397766,Fri Apr 25 2025 15:40:24 GMT-0500 (Central Daylight Time),437755.0999999996,A,wi,I,i,212,1,449.7999999988824,437305.30000000075,8038,WL,B,8.0
4,11.396999835968018,learn,48603.00016403198,Fri Apr 25 2025 15:40:24 GMT-0500 (Central Daylight Time),437771.5,A,wik,I,k,4,1,466.19999999925494,437305.30000000075,8038,WL,B,8.0
4,11.429999828338623,learn,48570.00017166138,Fri Apr 25 2025 15:40:24 GMT-0500 (Central Daylight Time),437804.5,A,wikn,I,n,19,1,499.19999999925494,437305.30000000075,8038,WL,B,8.0
4,11.895999908447266,learn,48104.000091552734,Fri Apr 25 2025 15:40:24 GMT-0500 (Central Daylight Time),438271.0,A,wik,I,backspace,450,1,965.6999999992549,437305.30000000075,8038,WL,B,8.0
4,12.046000003814697,learn,47953.9999961853,Fri Apr 25 2025 15:40:24 GMT-0500 (Central Daylight Time),438421.0,A,wi,I,backspace,143,1,1115.699999999255,437305.30000000075,8038,WL,B,8.0
4,12.94599986076355,learn,47054.00013923645,Fri Apr 25 2025 15:40:24 GMT-0500 (Central Daylight Time),439320.9000000004,A,win,I,n,882,1,2015.5999999996275,437305.30000000075,8038,WL,B,8.0
4,13.062999963760376,learn,46937.000036239624,Fri Apr 25 2025 15:40:24 GMT-0500 (Central Daylight Time),439437.30000000075,A,wind,I,d,101,1,2132.0,437305.30000000075,8038,WL,B,8.0
4,13.179999828338623,learn,46820.00017166138,Fri Apr 25 2025 15:40:24 GMT-0500 (Central Daylight Time),439554.7000000011,A,windo,I,o,105,1,2249.4000000003725,437305.30000000075,8038,WL,B,8.0
4,13.628999948501587,learn,46371.00005149841,Fri Apr 25 2025 15:40:24 GMT-0500 (Central Daylight Time),440004.0999999996,A,window,I,w,436,1,2698.7999999988824,437305.30000000075,8038,WL,B,8.0
4,13.828999996185303,learn,46171.0000038147,Fri Apr 25 2025 15:40:24 GMT-0500 (Central Daylight Time),440203.7000000011,A,windowenter,I,enter,194,1,2898.4000000003725,437305.30000000075,8038,WL,B,8.0
4,14.02899980545044,learn,45971.00019454956,Fri Apr 25 2025 15:40:24 GMT-0500 (Central Daylight Time),440404.0999999996,A,s,I,s,187,1,200.19999999925494,440203.9000000004,8038,WL,B,9.0
4,14.26199984550476,learn,45738.00015449524,Fri Apr 25 2025 15:40:24 GMT-0500 (Central Daylight Time),440637.30000000075,A,st,I,t,226,1,433.40000000037253,440203.9000000004,8038,WL,B,9.0
4,14.495999813079834,learn,45504.000186920166,Fri Apr 25 2025 15:40:24 GMT-0500 (Central Daylight Time),440870.5,A,str,I,r,225,1,666.5999999996275,440203.9000000004,8038,WL,B,9.0
4,14.628999948501587,learn,45371.00005149841,Fri Apr 25 2025 15:40:24 GMT-0500 (Central Daylight Time),441003.5999999996,A,stre,I,e,120,1,799.6999999992549,440203.9000000004,8038,WL,B,9.0
4,14.812000036239624,learn,45187.999963760376,Fri Apr 25 2025 15:40:24 GMT-0500 (Central Daylight Time),441187.0999999996,A,stree,I,e,162,1,983.1999999992549,440203.9000000004,8038,WL,B,9.0
4,14.995999813079834,learn,45004.000186920166,Fri Apr 25 2025 15:40:24 GMT-0500 (Central Daylight Time),441370.4000000004,A,street,I,t,163,1,1166.5,440203.9000000004,8038,WL,B,9.0
4,15.361999988555908,learn,44638.00001144409,Fri Apr 25 2025 15:40:24 GMT-0500 (Central Daylight Time),441736.80000000075,A,streetenter,I,enter,348,1,1532.9000000003725,440203.9000000004,8038,WL,B,9.0
4,15.67799997329712,learn,44322.00002670288,Fri Apr 25 2025 15:40:24 GMT-0500 (Central Daylight Time),442053.2000000011,A,g,I,g,302,1,316.1000000014901,441737.0999999996,8038,WL,B,10.0
4,15.92799997329712,learn,44072.00002670288,Fri Apr 25 2025 15:40:24 GMT-0500 (Central Daylight Time),442303.2000000011,A,gr,I,r,242,1,566.1000000014901,441737.0999999996,8038,WL,B,10.0
4,16.09500002861023,learn,43904.99997138977,Fri Apr 25 2025 15:40:24 GMT-0500 (Central Daylight Time),442470.0999999996,A,gra,I,a,151,1,733.0,441737.0999999996,8038,WL,B,10.0
4,16.312000036239624,learn,43687.999963760376,Fri Apr 25 2025 15:40:24 GMT-0500 (Central Daylight Time),442686.4000000004,A,gras,I,s,209,1,949.3000000007451,441737.0999999996,8038,WL,B,10.0
4,16.51099991798401,learn,43489.00008201599,Fri Apr 25 2025 15:40:24 GMT-0500 (Central Daylight Time),442886.30000000075,A,grass,I,s,184,1,1149.2000000011176,441737.0999999996,8038,WL,B,10.0
4,17.128000020980835,learn,42871.999979019165,Fri Apr 25 2025 15:40:24 GMT-0500 (Central Daylight Time),443503.0999999996,A,grassenter,I,enter,600,1,1766.0,441737.0999999996,8038,WL,B,10.0
4,17.41100001335144,learn,42588.99998664856,Fri Apr 25 2025 15:40:24 GMT-0500 (Central Daylight Time),443786.0,A,a,I,a,263,1,282.59999999962747,443503.4000000004,8038,WL,B,11.0
4,17.66100001335144,learn,42338.99998664856,Fri Apr 25 2025 15:40:24 GMT-0500 (Central Daylight Time),444035.9000000004,A,ar,I,r,244,1,532.5,443503.4000000004,8038,WL,B,11.0
4,18.110999822616577,learn,41889.00017738342,Fri Apr 25 2025 15:40:24 GMT-0500 (Central Daylight Time),444486.0,A,are,I,e,435,1,982.5999999996275,443503.4000000004,8038,WL,B,11.0
4,18.527999877929688,learn,41472.00012207031,Fri Apr 25 2025 15:40:24 GMT-0500 (Central Daylight Time),444902.5,A,ar,I,backspace,409,1,1399.0999999996275,443503.4000000004,8038,WL,B,11.0
4,18.894999980926514,learn,41105.000019073486,Fri Apr 25 2025 15:40:24 GMT-0500 (Central Daylight Time),445269.4000000004,A,arm,I,m,352,1,1766.0,443503.4000000004,8038,WL,B,11.0
4,20.043999910354614,learn,39956.000089645386,Fri Apr 25 2025 15:40:24 GMT-0500 (Central Daylight Time),446418.80000000075,A,armenter,I,enter,1137,1,2915.4000000003725,443503.4000000004,8038,WL,B,11.0
4,20.82699990272522,learn,39173.00009727478,Fri Apr 25 2025 15:40:24 GMT-0500 (Central Daylight Time),447201.7000000011,A,w,I,w,764,1,782.6000000014901,446419.0999999996,8038,WL,B,12.0
4,21.026999950408936,learn,38973.000049591064,Fri Apr 25 2025 15:40:24 GMT-0500 (Central Daylight Time),447401.9000000004,A,wi,I,i,188,1,982.8000000007451,446419.0999999996,8038,WL,B,12.0
4,21.126999855041504,learn,38873.000144958496,Fri Apr 25 2025 15:40:24 GMT-0500 (Central Daylight Time),447501.80000000075,A,wif,I,f,84,1,1082.7000000011176,446419.0999999996,8038,WL,B,12.0
4,21.609999895095825,learn,38390.000104904175,Fri Apr 25 2025 15:40:24 GMT-0500 (Central Daylight Time),447984.9000000004,A,wife,I,e,465,1,1565.800000000745,446419.0999999996,8038,WL,B,12.0
4,22.710000038146973,learn,37289.99996185303,Fri Apr 25 2025 15:40:24 GMT-0500 (Central Daylight Time),449084.4000000004,A,wifes,I,s,1094,1,2665.300000000745,446419.0999999996,8038,WL,B,12.0
4,23.243000030517578,learn,36756.99996948242,Fri Apr 25 2025 15:40:24 GMT-0500 (Central Daylight Time),449617.7000000011,A,wife,I,backspace,522,1,3198.60000000149,446419.0999999996,8038,WL,B,12.0
4,24.108999967575073,learn,35891.00003242493,Fri Apr 25 2025 15:40:24 GMT-0500 (Central Daylight Time),450483.80000000075,A,wifeenter,I,enter,861,1,4064.7000000011176,446419.0999999996,8038,WL,B,12.0
4,24.325999975204468,learn,35674.00002479553,Fri Apr 25 2025 15:40:24 GMT-0500 (Central Daylight Time),450700.80000000075,A,s,I,s,211,1,216.7000000011176,450484.0999999996,8038,WL,B,13.0
4,24.55900001525879,learn,35440.99998474121,Fri Apr 25 2025 15:40:24 GMT-0500 (Central Daylight Time),450933.9000000004,A,st,I,t,226,1,449.80000000074506,450484.0999999996,8038,WL,B,13.0
4,24.79199981689453,learn,35208.00018310547,Fri Apr 25 2025 15:40:24 GMT-0500 (Central Daylight Time),451167.0999999996,A,sta,I,a,224,1,683.0,450484.0999999996,8038,WL,B,13.0
4,24.97599983215332,learn,35024.00016784668,Fri Apr 25 2025 15:40:24 GMT-0500 (Central Daylight Time),451350.4000000004,A,star,I,r,175,1,866.3000000007451,450484.0999999996,8038,WL,B,13.0
4,25.29199981689453,learn,34708.00018310547,Fri Apr 25 2025 15:40:24 GMT-0500 (Central Daylight Time),451667.0999999996,A,starenter,I,enter,312,1,1183.0,450484.0999999996,8038,WL,B,13.0
4,36.121999979019165,learn,23878.000020980835,Fri Apr 25 2025 15:40:24 GMT-0500 (Central Daylight Time),462497.0,A,enter,I,enter,10812,1,10829.599999999627,451667.4000000004,8038,WL,B,14.0
4,37.15499997138977,learn,22845.00002861023,Fri Apr 25 2025 15:40:24 GMT-0500 (Central Daylight Time),463530.0999999996,A,enter,I,enter,1013,1,1032.7999999988824,462497.30000000075,8038,WL,B,15.0
5,0.9170000553131104,learn,60000.0,Fri Apr 25 2025 15:40:24 GMT-0500 (Central Daylight Time),529909.2000000011,A,s,I,s,911,1,916.3000000007451,528992.9000000004,8038,WL,B,1.0
5,1.2000000476837158,learn,60000.0,Fri Apr 25 2025 15:40:24 GMT-0500 (Central Daylight Time),530192.3000000007,A,sk,I,k,265,1,1199.4000000003725,528992.9000000004,8038,WL,B,1.0
5,1.4000000953674316,learn,60000.0,Fri Apr 25 2025 15:40:24 GMT-0500 (Central Daylight Time),530392.3000000007,A,ski,I,i,182,1,1399.4000000003725,528992.9000000004,8038,WL,B,1.0
5,1.633000135421753,learn,60000.0,Fri Apr 25 2025 15:40:24 GMT-0500 (Central Daylight Time),530625.3000000007,A,skin,I,n,221,1,1632.4000000003725,528992.9000000004,8038,WL,B,1.0
5,2.6490001678466797,learn,60000.0,Fri Apr 25 2025 15:40:24 GMT-0500 (Central Daylight Time),531641.5999999996,A,skinenter,I,enter,997,1,2648.699999999255,528992.9000000004,8038,WL,B,1.0
5,2.949000120162964,learn,60000.0,Fri Apr 25 2025 15:40:24 GMT-0500 (Central Daylight Time),531941.9000000004,A,f,I,f,293,1,300.0,531641.9000000004,8038,WL,B,2.0
5,3.449000120162964,learn,60000.0,Fri Apr 25 2025 15:40:24 GMT-0500 (Central Daylight Time),532442.0,A,fi,I,i,488,1,800.0999999996275,531641.9000000004,8038,WL,B,2.0
5,3.5829999446868896,learn,60000.0,Fri Apr 25 2025 15:40:24 GMT-0500 (Central Daylight Time),532575.0999999996,A,fir,I,r,116,1,933.1999999992549,531641.9000000004,8038,WL,B,2.0
5,3.7320001125335693,learn,60000.0,Fri Apr 25 2025 15:40:24 GMT-0500 (Central Daylight Time),532724.9000000004,A,fire,I,e,143,1,1083.0,531641.9000000004,8038,WL,B,2.0
5,4.065999984741211,learn,60000.0,Fri Apr 25 2025 15:40:24 GMT-0500 (Central Daylight Time),533058.0999999996,A,fireenter,I,enter,314,1,1416.199999999255,531641.9000000004,8038,WL,B,2.0
5,4.914999961853027,learn,60000.0,Fri Apr 25 2025 15:40:24 GMT-0500 (Central Daylight Time),533907.5999999996,A,c,I,c,845,1,849.0999999996275,533058.5,8038,WL,B,3.0
5,4.999000072479248,learn,60000.0,Fri Apr 25 2025 15:40:24 GMT-0500 (Central Daylight Time),533991.0999999996,A,cl,I,l,67,1,932.5999999996275,533058.5,8038,WL,B,3.0
5,5.131999969482422,learn,60000.0,Fri Apr 25 2025 15:40:24 GMT-0500 (Central Daylight Time),534124.5,A,clo,I,o,127,1,1066.0,533058.5,8038,WL,B,3.0
5,5.249000072479248,learn,60000.0,Fri Apr 25 2025 15:40:24 GMT-0500 (Central Daylight Time),534241.0999999996,A,cloc,I,c,106,1,1182.5999999996275,533058.5,8038,WL,B,3.0
5,5.365000009536743,learn,60000.0,Fri Apr 25 2025 15:40:24 GMT-0500 (Central Daylight Time),534357.9000000004,A,clock,I,k,102,1,1299.4000000003725,533058.5,8038,WL,B,3.0
5,5.748000144958496,learn,60000.0,Fri Apr 25 2025 15:40:24 GMT-0500 (Central Daylight Time),534740.9000000004,A,clockenter,I,enter,376,1,1682.4000000003725,533058.5,8038,WL,B,3.0
5,6.065000057220459,learn,60000.0,Fri Apr 25 2025 15:40:24 GMT-0500 (Central Daylight Time),535057.5,A,l,I,l,305,1,316.19999999925494,534741.3000000007,8038,WL,B,4.0
5,6.182000160217285,learn,60000.0,Fri Apr 25 2025 15:40:24 GMT-0500 (Central Daylight Time),535174.0999999996,A,la,I,a,101,1,432.7999999988824,534741.3000000007,8038,WL,B,4.0
5,6.3480000495910645,learn,60000.0,Fri Apr 25 2025 15:40:24 GMT-0500 (Central Daylight Time),535340.8000000007,A,lak,I,k,160,1,599.5,534741.3000000007,8038,WL,B,4.0
5,6.465000152587891,learn,60000.0,Fri Apr 25 2025 15:40:24 GMT-0500 (Central Daylight Time),535457.5999999996,A,lake,I,e,98,1,716.2999999988824,534741.3000000007,8038,WL,B,4.0
5,6.947999954223633,learn,60000.0,Fri Apr 25 2025 15:40:24 GMT-0500 (Central Daylight Time),535940.4000000004,A,lakeenter,I,enter,477,1,1199.0999999996275,534741.3000000007,8038,WL,B,4.0
5,8.549999952316284,learn,60000.0,Fri Apr 25 2025 15:40:24 GMT-0500 (Central Daylight Time),537542.9000000004,A,w,I,w,1594,1,1602.199999999255,535940.7000000011,8038,WL,B,5.0
5,8.680999994277954,learn,60000.0,Fri Apr 25 2025 15:40:24 GMT-0500 (Central Daylight Time),537673.3000000007,A,wi,I,i,119,1,1732.5999999996275,535940.7000000011,8038,WL,B,5.0
5,8.830000162124634,learn,60000.0,Fri Apr 25 2025 15:40:24 GMT-0500 (Central Daylight Time),537823.2000000011,A,wif,I,f,133,1,1882.5,535940.7000000011,8038,WL,B,5.0
5,9.046000003814697,learn,60000.0,Fri Apr 25 2025 15:40:24 GMT-0500 (Central Daylight Time),538039.9000000004,A,wife,I,e,199,1,2099.199999999255,535940.7000000011,8038,WL,B,5.0
5,9.413000106811523,learn,60000.0,Fri Apr 25 2025 15:40:24 GMT-0500 (Central Daylight Time),538406.3000000007,A,wifeenter,I,enter,358,1,2465.5999999996275,535940.7000000011,8038,WL,B,5.0
5,9.746000051498413,learn,60000.0,Fri Apr 25 2025 15:40:24 GMT-0500 (Central Daylight Time),538739.9000000004,A,c,I,c,320,1,333.30000000074506,538406.5999999996,8038,WL,B,6.0
5,9.946000099182129,learn,60000.0,Fri Apr 25 2025 15:40:24 GMT-0500 (Central Daylight Time),538939.7000000011,A,ca,I,a,186,1,533.1000000014901,538406.5999999996,8038,WL,B,6.0
5,10.361999988555908,learn,60000.0,Fri Apr 25 2025 15:40:24 GMT-0500 (Central Daylight Time),539355.9000000004,A,cab,I,b,410,1,949.3000000007451,538406.5999999996,8038,WL,B,6.0
5,10.513000011444092,learn,60000.0,Fri Apr 25 2025 15:40:24 GMT-0500 (Central Daylight Time),539506.0999999996,A,cabi,I,i,139,1,1099.5,538406.5999999996,8038,WL,B,6.0
5,10.646000146865845,learn,60000.0,Fri Apr 25 2025 15:40:24 GMT-0500 (Central Daylight Time),539639.5,A,cabin,I,n,116,1,1232.9000000003725,538406.5999999996,8038,WL,B,6.0
5,10.963000059127808,learn,60000.0,Fri Apr 25 2025 15:40:24 GMT-0500 (Central Daylight Time),539956.3000000007,A,cabinenter,I,enter,303,1,1549.7000000011176,538406.5999999996,8038,WL,B,6.0
5,11.946000099182129,learn,60000.0,Fri Apr 25 2025 15:40:24 GMT-0500 (Central Daylight Time),540939.2000000011,A,p,I,p,970,1,982.5,539956.7000000011,8038,WL,B,7.0
5,12.195000171661377,learn,60000.0,Fri Apr 25 2025 15:40:24 GMT-0500 (Central Daylight Time),541188.9000000004,A,pi,I,i,244,1,1232.199999999255,539956.7000000011,8038,WL,B,7.0
5,12.462000131607056,learn,60000.0,Fri Apr 25 2025 15:40:24 GMT-0500 (Central Daylight Time),541455.3000000007,A,pip,I,p,250,1,1498.5999999996275,539956.7000000011,8038,WL,B,7.0
5,12.57800006866455,learn,60000.0,Fri Apr 25 2025 15:40:24 GMT-0500 (Central Daylight Time),541572.0999999996,A,pipe,I,e,103,1,1615.3999999985099,539956.7000000011,8038,WL,B,7.0
5,13.195000171661377,learn,60000.0,Fri Apr 25 2025 15:40:24 GMT-0500 (Central Daylight Time),542188.8000000007,A,pipeenter,I,enter,610,1,2232.0999999996275,539956.7000000011,8038,WL,B,7.0
5,15.278000116348267,learn,60000.0,Fri Apr 25 2025 15:40:24 GMT-0500 (Central Daylight Time),544271.4000000004,A,s,I,s,2073,1,2082.4000000003725,542189.0,8038,WL,B,8.0
5,15.478000164031982,learn,60000.0,Fri Apr 25 2025 15:40:24 GMT-0500 (Central Daylight Time),544471.2000000011,A,st,I,t,183,1,2282.2000000011176,542189.0,8038,WL,B,8.0
5,15.67799997329712,learn,60000.0,Fri Apr 25 2025 15:40:24 GMT-0500 (Central Daylight Time),544671.0999999996,A,str,I,r,191,1,2482.0999999996275,542189.0,8038,WL,B,8.0
5,15.794000148773193,learn,60000.0,Fri Apr 25 2025 15:40:24 GMT-0500 (Central Daylight Time),544787.9000000004,A,stre,I,e,103,1,2598.9000000003725,542189.0,8038,WL,B,8.0
5,15.99399995803833,learn,60000.0,Fri Apr 25 2025 15:40:24 GMT-0500 (Central Daylight Time),544987.9000000004,A,stret,I,t,195,1,2798.9000000003725,542189.0,8038,WL,B,8.0
5,16.694000005722046,learn,60000.0,Fri Apr 25 2025 15:40:24 GMT-0500 (Central Daylight Time),545687.5,A,stre,I,backspace,683,1,3498.5,542189.0,8038,WL,B,8.0
5,16.811000108718872,learn,60000.0,Fri Apr 25 2025 15:40:24 GMT-0500 (Central Daylight Time),545804.0999999996,A,stree,I,e,103,1,3615.0999999996275,542189.0,8038,WL,B,8.0
5,16.97699999809265,learn,60000.0,Fri Apr 25 2025 15:40:24 GMT-0500 (Central Daylight Time),545970.8000000007,A,street,I,t,154,1,3781.800000000745,542189.0,8038,WL,B,8.0
5,17.177000045776367,learn,60000.0,Fri Apr 25 2025 15:40:24 GMT-0500 (Central Daylight Time),546170.5999999996,A,streett,I,t,188,1,3981.5999999996275,542189.0,8038,WL,B,8.0
5,17.526999950408936,learn,60000.0,Fri Apr 25 2025 15:40:24 GMT-0500 (Central Daylight Time),546520.5999999996,A,street,I,backspace,332,1,4331.5999999996275,542189.0,8038,WL,B,8.0
5,18.177000045776367,learn,60000.0,Fri Apr 25 2025 15:40:24 GMT-0500 (Central Daylight Time),547170.3000000007,A,streetenter,I,enter,638,1,4981.300000000745,542189.0,8038,WL,B,8.0
5,19.743000030517578,learn,60000.0,Fri Apr 25 2025 15:40:24 GMT-0500 (Central Daylight Time),548736.5,A,g,I,g,1548,1,1565.9000000003725,547170.5999999996,8038,WL,B,9.0
5,19.9760000705719,learn,60000.0,Fri Apr 25 2025 15:40:24 GMT-0500 (Central Daylight Time),548969.9000000004,A,gr,I,r,222,1,1799.300000000745,547170.5999999996,8038,WL,B,9.0
5,20.14300012588501,learn,60000.0,Fri Apr 25 2025 15:40:24 GMT-0500 (Central Daylight Time),549136.4000000004,A,gra,I,a,156,1,1965.800000000745,547170.5999999996,8038,WL,B,9.0
5,20.343000173568726,learn,60000.0,Fri Apr 25 2025 15:40:24 GMT-0500 (Central Daylight Time),549336.4000000004,A,gras,I,s,190,1,2165.800000000745,547170.5999999996,8038,WL,B,9.0
5,20.509000062942505,learn,60000.0,Fri Apr 25 2025 15:40:24 GMT-0500 (Central Daylight Time),549503.0,A,grass,I,s,158,1,2332.4000000003725,547170.5999999996,8038,WL,B,9.0
5,20.759000062942505,learn,60000.0,Fri Apr 25 2025 15:40:24 GMT-0500 (Central Daylight Time),549753.0,A,grassenter,I,enter,239,1,2582.4000000003725,547170.5999999996,8038,WL,B,9.0
5,21.259000062942505,learn,60000.0,Fri Apr 25 2025 15:40:24 GMT-0500 (Central Daylight Time),550252.8000000007,A,a,I,a,493,1,499.30000000074506,549753.5,8038,WL,B,10.0
5,21.443000078201294,learn,60000.0,Fri Apr 25 2025 15:40:24 GMT-0500 (Central Daylight Time),550436.3000000007,A,ar,I,r,170,1,682.8000000007451,549753.5,8038,WL,B,10.0
5,21.79200005531311,learn,60000.0,Fri Apr 25 2025 15:40:24 GMT-0500 (Central Daylight Time),550786.0,A,arm,I,m,338,1,1032.5,549753.5,8038,WL,B,10.0
5,22.276000022888184,learn,60000.0,Fri Apr 25 2025 15:40:24 GMT-0500 (Central Daylight Time),551269.3000000007,A,armenter,I,enter,468,1,1515.800000000745,549753.5,8038,WL,B,10.0
5,24.942000150680542,learn,60000.0,Fri Apr 25 2025 15:40:24 GMT-0500 (Central Daylight Time),553935.2000000011,A,d,I,d,2649,1,2665.60000000149,551269.5999999996,8038,WL,B,11.0
5,25.075000047683716,learn,60000.0,Fri Apr 25 2025 15:40:24 GMT-0500 (Central Daylight Time),554068.2000000011,A,do,I,o,119,1,2798.60000000149,551269.5999999996,8038,WL,B,11.0
5,25.241000175476074,learn,60000.0,Fri Apr 25 2025 15:40:24 GMT-0500 (Central Daylight Time),554234.9000000004,A,doo,I,o,154,1,2965.300000000745,551269.5999999996,8038,WL,B,11.0
5,25.308000087738037,learn,60000.0,Fri Apr 25 2025 15:40:24 GMT-0500 (Central Daylight Time),554301.4000000004,A,door,I,r,52,1,3031.800000000745,551269.5999999996,8038,WL,B,11.0
5,25.741000175476074,learn,60000.0,Fri Apr 25 2025 15:40:24 GMT-0500 (Central Daylight Time),554734.5999999996,A,doorenter,I,enter,425,1,3465.0,551269.5999999996,8038,WL,B,11.0
5,28.807000160217285,learn,60000.0,Fri Apr 25 2025 15:40:24 GMT-0500 (Central Daylight Time),557800.2000000011,A,s,I,s,3056,1,3065.2000000011176,554735.0,8038,WL,B,12.0
5,29.006999969482422,learn,60000.0,Fri Apr 25 2025 15:40:24 GMT-0500 (Central Daylight Time),558000.4000000004,A,st,I,t,182,1,3265.4000000003725,554735.0,8038,WL,B,12.0
5,29.19000005722046,learn,60000.0,Fri Apr 25 2025 15:40:24 GMT-0500 (Central Daylight Time),558183.7000000011,A,sta,I,a,166,1,3448.7000000011176,554735.0,8038,WL,B,12.0
5,29.390000104904175,learn,60000.0,Fri Apr 25 2025 15:40:24 GMT-0500 (Central Daylight Time),558383.5,A,star,I,r,191,1,3648.5,554735.0,8038,WL,B,12.0
5,29.9060001373291,learn,60000.0,Fri Apr 25 2025 15:40:24 GMT-0500 (Central Daylight Time),558900.0,A,starenter,I,enter,503,1,4165.0,554735.0,8038,WL,B,12.0
5,42.21900010108948,learn,60000.0,Fri Apr 25 2025 15:40:24 GMT-0500 (Central Daylight Time),571212.8000000007,A,p,I,p,12299,1,12312.400000000373,558900.4000000004,8038,WL,B,13.0
5,42.43600010871887,learn,60000.0,Fri Apr 25 2025 15:40:24 GMT-0500 (Central Daylight Time),571429.3000000007,A,pu,I,u,209,1,12528.900000000373,558900.4000000004,8038,WL,B,13.0
5,42.63600015640259,learn,60000.0,Fri Apr 25 2025 15:40:24 GMT-0500 (Central Daylight Time),571629.5,A,pup,I,p,193,1,12729.099999999627,558900.4000000004,8038,WL,B,13.0
5,42.9520001411438,learn,60000.0,Fri Apr 25 2025 15:40:24 GMT-0500 (Central Daylight Time),571946.0,A,pupi,I,i,297,1,13045.599999999627,558900.4000000004,8038,WL,B,13.0
5,43.18600010871887,learn,60000.0,Fri Apr 25 2025 15:40:24 GMT-0500 (Central Daylight Time),572179.3000000007,A,pupil,I,l,212,1,13278.900000000373,558900.4000000004,8038,WL,B,13.0
5,43.58500003814697,learn,60000.0,Fri Apr 25 2025 15:40:24 GMT-0500 (Central Daylight Time),572579.0999999996,A,pupilenter,I,enter,387,1,13678.699999999255,558900.4000000004,8038,WL,B,13.0
5,49.73399996757507,learn,60000.0,Fri Apr 25 2025 15:40:24 GMT-0500 (Central Daylight Time),578727.0999999996,A,s,I,s,6132,1,6147.699999999255,572579.4000000004,8038,WL,B,14.0
5,49.90000009536743,learn,60000.0,Fri Apr 25 2025 15:40:24 GMT-0500 (Central Daylight Time),578893.8000000007,A,st,I,t,151,1,6314.4000000003725,572579.4000000004,8038,WL,B,14.0
5,50.10000014305115,learn,60000.0,Fri Apr 25 2025 15:40:24 GMT-0500 (Central Daylight Time),579093.7000000011,A,sta,I,a,185,1,6514.300000000745,572579.4000000004,8038,WL,B,14.0
5,50.26699995994568,learn,60000.0,Fri Apr 25 2025 15:40:24 GMT-0500 (Central Daylight Time),579260.4000000004,A,star,I,r,153,1,6681.0,572579.4000000004,8038,WL,B,14.0
5,50.56700015068054,learn,60000.0,Fri Apr 25 2025 15:40:24 GMT-0500 (Central Daylight Time),579560.2000000011,A,starenter,I,enter,291,1,6980.800000000745,572579.4000000004,8038,WL,B,14.0
5,52.366000175476074,learn,60000.0,Fri Apr 25 2025 15:40:24 GMT-0500 (Central Daylight Time),581359.9000000004,A,enter,I,enter,1790,1,1799.5,579560.4000000004,8038,WL,B,15.0
6,0.932999849319458,distr,59067.00015068054,Fri Apr 25 2025 15:40:24 GMT-0500 (Central Daylight Time),650271.8000000007,B,b,I,b,925,1,933.3000000007451,649338.5,8038,WL,B,1.0
6,2.2990000247955322,distr,57700.99997520447,Fri Apr 25 2025 15:40:24 GMT-0500 (Central Daylight Time),651637.3000000007,B,ba,I,a,1357,1,2298.800000000745,649338.5,8038,WL,B,1.0
6,2.6649999618530273,distr,57335.00003814697,Fri Apr 25 2025 15:40:24 GMT-0500 (Central Daylight Time),652004.0,B,bab,I,b,353,1,2665.5,649338.5,8038,WL,B,1.0
6,3.0320000648498535,distr,56967.99993515015,Fri Apr 25 2025 15:40:24 GMT-0500 (Central Daylight Time),652370.8000000007,B,baby,I,y,353,1,3032.300000000745,649338.5,8038,WL,B,1.0
6,3.631999969482422,distr,56368.00003051758,Fri Apr 25 2025 15:40:24 GMT-0500 (Central Daylight Time),652970.5,B,babyenter,I,enter,587,1,3632.0,649338.5,8038,WL,B,1.0
6,3.931999921798706,distr,56068.000078201294,Fri Apr 25 2025 15:40:24 GMT-0500 (Central Daylight Time),653270.5,B,l,I,l,284,1,299.69999999925494,652970.8000000007,8038,WL,B,2.0
6,4.2149999141693115,distr,55785.00008583069,Fri Apr 25 2025 15:40:24 GMT-0500 (Central Daylight Time),653553.8000000007,B,li,I,i,264,1,583.0,652970.8000000007,8038,WL,B,2.0
6,4.483000040054321,distr,55516.99995994568,Fri Apr 25 2025 15:40:24 GMT-0500 (Central Daylight Time),653821.4000000004,B,lip,I,p,261,1,850.5999999996275,652970.8000000007,8038,WL,B,2.0
6,5.991999864578247,distr,54008.00013542175,Fri Apr 25 2025 15:40:24 GMT-0500 (Central Daylight Time),655330.5,B,lipenter,I,enter,1488,1,2359.699999999255,652970.8000000007,8038,WL,B,2.0
6,6.46399998664856,distr,53536.00001335144,Fri Apr 25 2025 15:40:24 GMT-0500 (Central Daylight Time),655803.0,B,o,I,o,452,1,472.2999999988824,655330.7000000011,8038,WL,B,3.0
6,6.613999843597412,distr,53386.00015640259,Fri Apr 25 2025 15:40:24 GMT-0500 (Central Daylight Time),655953.0,B,oc,I,c,140,1,622.2999999988824,655330.7000000011,8038,WL,B,3.0
6,6.88100004196167,distr,53118.99995803833,Fri Apr 25 2025 15:40:24 GMT-0500 (Central Daylight Time),656219.4000000004,B,oce,I,e,254,1,888.6999999992549,655330.7000000011,8038,WL,B,3.0
6,7.063999891281128,distr,52936.00010871887,Fri Apr 25 2025 15:40:24 GMT-0500 (Central Daylight Time),656402.8000000007,B,ocea,I,a,171,1,1072.0999999996275,655330.7000000011,8038,WL,B,3.0
6,7.197999954223633,distr,52802.00004577637,Fri Apr 25 2025 15:40:24 GMT-0500 (Central Daylight Time),656536.2000000011,B,ocean,I,n,115,1,1205.5,655330.7000000011,8038,WL,B,3.0
6,8.496000051498413,distr,51503.99994850159,Fri Apr 25 2025 15:40:24 GMT-0500 (Central Daylight Time),657835.3000000007,B,oceanenter,I,enter,1294,1,2504.5999999996275,655330.7000000011,8038,WL,B,3.0
6,9.361999988555908,distr,50638.00001144409,Fri Apr 25 2025 15:40:24 GMT-0500 (Central Daylight Time),658702.0999999996,B,p,I,p,851,1,866.5,657835.5999999996,8038,WL,B,4.0
6,9.478999853134155,distr,50521.000146865845,Fri Apr 25 2025 15:40:24 GMT-0500 (Central Daylight Time),658818.5999999996,B,pa,I,a,96,1,983.0,657835.5999999996,8038,WL,B,4.0
6,10.295000076293945,distr,49704.999923706055,Fri Apr 25 2025 15:40:24 GMT-0500 (Central Daylight Time),659635.2000000011,B,pal,I,l,797,1,1799.6000000014901,657835.5999999996,8038,WL,B,4.0
6,10.494999885559082,distr,49505.00011444092,Fri Apr 25 2025 15:40:24 GMT-0500 (Central Daylight Time),659835.0,B,pala,I,a,187,1,1999.4000000003725,657835.5999999996,8038,WL,B,4.0
6,10.779000043869019,distr,49220.99995613098,Fri Apr 25 2025 15:40:24 GMT-0500 (Central Daylight Time),660118.5,B,palac,I,c,275,1,2282.9000000003725,657835.5999999996,8038,WL,B,4.0
6,11.111999988555908,distr,48888.00001144409,Fri Apr 25 2025 15:40:24 GMT-0500 (Central Daylight Time),660451.5,B,palace,I,e,320,1,2615.9000000003725,657835.5999999996,8038,WL,B,4.0
6,11.477999925613403,distr,48522.0000743866,Fri Apr 25 2025 15:40:24 GMT-0500 (Central Daylight Time),660818.0999999996,B,palaceenter,I,enter,355,1,2982.5,657835.5999999996,8038,WL,B,4.0
6,17.009999990463257,distr,42990.00000953674,Fri Apr 25 2025 15:40:24 GMT-0500 (Central Daylight Time),666349.8000000007,B,v,I,v,5524,1,5531.300000000745,660818.5,8038,WL,B,5.0
6,17.126999855041504,distr,42873.000144958496,Fri Apr 25 2025 15:40:24 GMT-0500 (Central Daylight Time),666466.4000000004,B,vi,I,i,96,1,5647.9000000003725,660818.5,8038,WL,B,5.0
6,17.32699990272522,distr,42673.00009727478,Fri Apr 25 2025 15:40:24 GMT-0500 (Central Daylight Time),666666.5,B,vil,I,l,180,1,5848.0,660818.5,8038,WL,B,5.0
6,17.493000030517578,distr,42506.99996948242,Fri Apr 25 2025 15:40:24 GMT-0500 (Central Daylight Time),666833.0,B,vill,I,l,148,1,6014.5,660818.5,8038,WL,B,5.0
6,17.55999994277954,distr,42440.00005722046,Fri Apr 25 2025 15:40:24 GMT-0500 (Central Daylight Time),666899.5999999996,B,villa,I,a,61,1,6081.0999999996275,660818.5,8038,WL,B,5.0
6,17.675999879837036,distr,42324.000120162964,Fri Apr 25 2025 15:40:24 GMT-0500 (Central Daylight Time),667015.9000000004,B,villag,I,g,99,1,6197.4000000003725,660818.5,8038,WL,B,5.0
6,17.842999935150146,distr,42157.00006484985,Fri Apr 25 2025 15:40:24 GMT-0500 (Central Daylight Time),667182.8000000007,B,village,I,e,158,1,6364.300000000745,660818.5,8038,WL,B,5.0
6,18.042999982833862,distr,41957.00001716614,Fri Apr 25 2025 15:40:24 GMT-0500 (Central Daylight Time),667382.8000000007,B,villageenter,I,enter,191,1,6564.300000000745,660818.5,8038,WL,B,5.0
6,24.391000032424927,distr,35608.99996757507,Fri Apr 25 2025 15:40:24 GMT-0500 (Central Daylight Time),673730.8000000007,B,enter,I,enter,6336,1,6347.700000001118,667383.0999999996,8038,WL,B,6.0
6,24.624000072479248,distr,35375.99992752075,Fri Apr 25 2025 15:40:24 GMT-0500 (Central Daylight Time),673964.0,B,enter,I,enter,219,1,232.7999999988824,673731.2000000011,8038,WL,B,7.0
6,24.840999841690063,distr,35159.00015830994,Fri Apr 25 2025 15:40:24 GMT-0500 (Central Daylight Time),674180.4000000004,B,enter,I,enter,202,1,216.0,673964.4000000004,8038,WL,B,8.0
6,25.10699987411499,distr,34893.00012588501,Fri Apr 25 2025 15:40:24 GMT-0500 (Central Daylight Time),674447.0999999996,B,enter,I,enter,258,1,266.3999999985099,674180.7000000011,8038,WL,B,9.0
6,25.473999977111816,distr,34526.00002288818,Fri Apr 25 2025 15:40:24 GMT-0500 (Central Daylight Time),674813.9000000004,B,enter,I,enter,351,1,366.40000000037253,674447.5,8038,WL,B,10.0
6,25.657000064849854,distr,34342.99993515015,Fri Apr 25 2025 15:40:24 GMT-0500 (Central Daylight Time),674997.0999999996,B,enter,I,enter,169,1,182.89999999850988,674814.2000000011,8038,WL,B,11.0
6,25.874000072479248,distr,34125.99992752075,Fri Apr 25 2025 15:40:24 GMT-0500 (Central Daylight Time),675213.5,B,enter,I,enter,210,1,216.0,674997.5,8038,WL,B,12.0
6,26.306999921798706,distr,33693.000078201294,Fri Apr 25 2025 15:40:24 GMT-0500 (Central Daylight Time),675646.9000000004,B,enter,I,enter,417,1,433.09999999962747,675213.8000000007,8038,WL,B,13.0
6,26.6729998588562,distr,33327.0001411438,Fri Apr 25 2025 15:40:24 GMT-0500 (Central Daylight Time),676013.3000000007,B,enter,I,enter,360,1,366.09999999962747,675647.2000000011,8038,WL,B,14.0
6,27.139999866485596,distr,32860.000133514404,Fri Apr 25 2025 15:40:24 GMT-0500 (Central Daylight Time),676480.0,B,enter,I,enter,457,1,466.40000000037253,676013.5999999996,8038,WL,B,15.0
7,1.383000135421753,immed,58616.99986457825,Fri Apr 25 2025 15:40:24 GMT-0500 (Central Daylight Time),688376.0999999996,A,s,I,s,1366,1,1382.7999999988824,686993.3000000007,8038,WL,B,1.0
7,1.6000001430511475,immed,58399.99985694885,Fri Apr 25 2025 15:40:24 GMT-0500 (Central Daylight Time),688592.9000000004,A,st,I,t,206,1,1599.5999999996275,686993.3000000007,8038,WL,B,1.0
7,1.7829999923706055,immed,58217.000007629395,Fri Apr 25 2025 15:40:24 GMT-0500 (Central Daylight Time),688776.0,A,str,I,r,166,1,1782.699999999255,686993.3000000007,8038,WL,B,1.0
7,1.933000087738037,immed,58066.99991226196,Fri Apr 25 2025 15:40:24 GMT-0500 (Central Daylight Time),688926.0,A,stre,I,e,134,1,1932.699999999255,686993.3000000007,8038,WL,B,1.0
7,2.450000047683716,immed,57549.999952316284,Fri Apr 25 2025 15:40:24 GMT-0500 (Central Daylight Time),689442.4000000004,A,stree,I,e,497,1,2449.0999999996275,686993.3000000007,8038,WL,B,1.0
7,2.6490001678466797,immed,57350.99983215332,Fri Apr 25 2025 15:40:24 GMT-0500 (Central Daylight Time),689642.3000000007,A,street,I,t,188,1,2649.0,686993.3000000007,8038,WL,B,1.0
7,3.3330001831054688,immed,56666.99981689453,Fri Apr 25 2025 15:40:24 GMT-0500 (Central Daylight Time),690325.3000000007,A,streetenter,I,enter,668,1,3332.0,686993.3000000007,8038,WL,B,1.0
7,3.6490001678466797,immed,56350.99983215332,Fri Apr 25 2025 15:40:24 GMT-0500 (Central Daylight Time),690642.0,A,g,I,g,304,1,316.2999999988824,690325.7000000011,8038,WL,B,2.0
7,3.8489999771118164,immed,56151.00002288818,Fri Apr 25 2025 15:40:24 GMT-0500 (Central Daylight Time),690842.0,A,gr,I,r,189,1,516.2999999988824,690325.7000000011,8038,WL,B,2.0
7,3.9660000801086426,immed,56033.99991989136,Fri Apr 25 2025 15:40:24 GMT-0500 (Central Daylight Time),690958.5999999996,A,gra,I,a,109,1,632.8999999985099,690325.7000000011,8038,WL,B,2.0
7,4.166000127792358,immed,55833.99987220764,Fri Apr 25 2025 15:40:24 GMT-0500 (Central Daylight Time),691158.5999999996,A,gras,I,s,192,1,832.8999999985099,690325.7000000011,8038,WL,B,2.0
7,4.332000017166138,immed,55667.99998283386,Fri Apr 25 2025 15:40:24 GMT-0500 (Central Daylight Time),691325.2000000011,A,grass,I,s,160,1,999.5,690325.7000000011,8038,WL,B,2.0
7,4.483000040054321,immed,55516.99995994568,Fri Apr 25 2025 15:40:24 GMT-0500 (Central Daylight Time),691475.4000000004,A,grassenter,I,enter,145,1,1149.699999999255,690325.7000000011,8038,WL,B,2.0
7,4.716000080108643,immed,55283.99991989136,Fri Apr 25 2025 15:40:24 GMT-0500 (Central Daylight Time),691708.4000000004,A,a,I,a,220,1,232.80000000074506,691475.5999999996,8038,WL,B,3.0
7,4.89900016784668,immed,55100.99983215332,Fri Apr 25 2025 15:40:24 GMT-0500 (Central Daylight Time),691891.8000000007,A,am,I,m,170,1,416.2000000011176,691475.5999999996,8038,WL,B,3.0
7,5.414999961853027,immed,54585.00003814697,Fri Apr 25 2025 15:40:24 GMT-0500 (Central Daylight Time),692408.2000000011,A,a,I,backspace,499,1,932.6000000014901,691475.5999999996,8038,WL,B,3.0
7,5.549000024795532,immed,54450.99997520447,Fri Apr 25 2025 15:40:24 GMT-0500 (Central Daylight Time),692541.5,A,ar,I,r,118,1,1065.9000000003725,691475.5999999996,8038,WL,B,3.0
7,5.749000072479248,immed,54250.99992752075,Fri Apr 25 2025 15:40:24 GMT-0500 (Central Daylight Time),692741.4000000004,A,arm,I,m,185,1,1265.800000000745,691475.5999999996,8038,WL,B,3.0
7,6.04800009727478,immed,53951.99990272522,Fri Apr 25 2025 15:40:24 GMT-0500 (Central Daylight Time),693041.3000000007,A,armenter,I,enter,289,1,1565.7000000011176,691475.5999999996,8038,WL,B,3.0
7,6.631999969482422,immed,53368.00003051758,Fri Apr 25 2025 15:40:24 GMT-0500 (Central Daylight Time),693624.4000000004,A,w,I,w,573,1,582.8000000007451,693041.5999999996,8038,WL,B,4.0
7,7.498000144958496,immed,52501.999855041504,Fri Apr 25 2025 15:40:24 GMT-0500 (Central Daylight Time),694491.3000000007,A,wi,I,i,862,1,1449.7000000011176,693041.5999999996,8038,WL,B,4.0
7,7.615000009536743,immed,52384.99999046326,Fri Apr 25 2025 15:40:24 GMT-0500 (Central Daylight Time),694607.5999999996,A,wif,I,f,107,1,1566.0,693041.5999999996,8038,WL,B,4.0
7,7.781000137329102,immed,52218.9998626709,Fri Apr 25 2025 15:40:24 GMT-0500 (Central Daylight Time),694774.0999999996,A,wife,I,e,151,1,1732.5,693041.5999999996,8038,WL,B,4.0
7,7.965000152587891,immed,52034.99984741211,Fri Apr 25 2025 15:40:24 GMT-0500 (Central Daylight Time),694957.4000000004,A,wifeenter,I,enter,169,1,1915.800000000745,693041.5999999996,8038,WL,B,4.0
7,8.164000034332275,immed,51835.999965667725,Fri Apr 25 2025 15:40:24 GMT-0500 (Central Daylight Time),695157.0999999996,A,s,I,s,185,1,199.39999999850988,694957.7000000011,8038,WL,B,5.0
7,8.331000089645386,immed,51668.999910354614,Fri Apr 25 2025 15:40:24 GMT-0500 (Central Daylight Time),695323.7000000011,A,st,I,t,161,1,366.0,694957.7000000011,8038,WL,B,5.0
7,8.481000185012817,immed,51518.99981498718,Fri Apr 25 2025 15:40:24 GMT-0500 (Central Daylight Time),695474.0,A,sta,I,a,131,1,516.2999999988824,694957.7000000011,8038,WL,B,5.0
7,8.63100004196167,immed,51368.99995803833,Fri Apr 25 2025 15:40:24 GMT-0500 (Central Daylight Time),695623.9000000004,A,star,I,r,133,1,666.1999999992549,694957.7000000011,8038,WL,B,5.0
7,9.031000137329102,immed,50968.9998626709,Fri Apr 25 2025 15:40:24 GMT-0500 (Central Daylight Time),696023.5999999996,A,starenter,I,enter,382,1,1065.8999999985099,694957.7000000011,8038,WL,B,5.0
7,9.647000074386597,immed,50352.9999256134,Fri Apr 25 2025 15:40:24 GMT-0500 (Central Daylight Time),696640.2000000011,A,d,I,d,597,1,616.3000000007451,696023.9000000004,8038,WL,B,6.0
7,9.764000177383423,immed,50235.99982261658,Fri Apr 25 2025 15:40:24 GMT-0500 (Central Daylight Time),696756.9000000004,A,do,I,o,102,1,733.0,696023.9000000004,8038,WL,B,6.0
7,9.914000034332275,immed,50085.999965667725,Fri Apr 25 2025 15:40:24 GMT-0500 (Central Daylight Time),696906.9000000004,A,doo,I,o,130,1,883.0,696023.9000000004,8038,WL,B,6.0
7,9.981000185012817,immed,50018.99981498718,Fri Apr 25 2025 15:40:24 GMT-0500 (Central Daylight Time),696973.4000000004,A,door,I,r,52,1,949.5,696023.9000000004,8038,WL,B,6.0
7,10.21399998664856,immed,49786.00001335144,Fri Apr 25 2025 15:40:24 GMT-0500 (Central Daylight Time),697206.8000000007,A,doorenter,I,enter,217,1,1182.9000000003725,696023.9000000004,8038,WL,B,6.0
7,11.597000122070312,immed,48402.99987792969,Fri Apr 25 2025 15:40:24 GMT-0500 (Central Daylight Time),698589.5999999996,A,p,I,p,1368,1,1382.3999999985099,697207.2000000011,8038,WL,B,7.0
7,11.746000051498413,immed,48253.99994850159,Fri Apr 25 2025 15:40:24 GMT-0500 (Central Daylight Time),698739.3000000007,A,pu,I,u,144,1,1532.0999999996275,697207.2000000011,8038,WL,B,7.0
7,11.94700002670288,immed,48052.99997329712,Fri Apr 25 2025 15:40:24 GMT-0500 (Central Daylight Time),698939.5,A,pup,I,p,187,1,1732.2999999988824,697207.2000000011,8038,WL,B,7.0
7,12.230000019073486,immed,47769.999980926514,Fri Apr 25 2025 15:40:24 GMT-0500 (Central Daylight Time),699222.7000000011,A,pupi,I,i,267,1,2015.5,697207.2000000011,8038,WL,B,7.0
7,12.463000059127808,immed,47536.99994087219,Fri Apr 25 2025 15:40:24 GMT-0500 (Central Daylight Time),699456.2000000011,A,pupil,I,l,216,1,2249.0,697207.2000000011,8038,WL,B,7.0
7,12.763000011444092,immed,47236.99998855591,Fri Apr 25 2025 15:40:24 GMT-0500 (Central Daylight Time),699755.7000000011,A,pupilenter,I,enter,294,1,2548.5,697207.2000000011,8038,WL,B,7.0
7,13.629000186920166,immed,46370.999813079834,Fri Apr 25 2025 15:40:24 GMT-0500 (Central Daylight Time),700622.3000000007,A,l,I,l,859,1,866.3000000007451,699756.0,8038,WL,B,8.0
7,14.229000091552734,immed,45770.999908447266,Fri Apr 25 2025 15:40:24 GMT-0500 (Central Daylight Time),701222.2000000011,A,la,I,a,592,1,1466.2000000011176,699756.0,8038,WL,B,8.0
7,14.446000099182129,immed,45553.99990081787,Fri Apr 25 2025 15:40:24 GMT-0500 (Central Daylight Time),701438.8000000007,A,lak,I,k,208,1,1682.800000000745,699756.0,8038,WL,B,8.0
7,14.562999963760376,immed,45437.000036239624,Fri Apr 25 2025 15:40:24 GMT-0500 (Central Daylight Time),701555.4000000004,A,lake,I,e,112,1,1799.4000000003725,699756.0,8038,WL,B,8.0
7,14.979000091552734,immed,45020.999908447266,Fri Apr 25 2025 15:40:24 GMT-0500 (Central Daylight Time),701971.7000000011,A,lakeenter,I,enter,411,1,2215.7000000011176,699756.0,8038,WL,B,8.0
7,15.392000198364258,immed,44607.99980163574,Fri Apr 25 2025 15:40:24 GMT-0500 (Central Daylight Time),702384.8000000007,A,c,I,c,291,1,412.90000000037253,701971.9000000004,8038,WL,B,9.0
7,15.480000019073486,immed,44519.999980926514,Fri Apr 25 2025 15:40:24 GMT-0500 (Central Daylight Time),702472.3000000007,A,ca,I,a,68,1,500.40000000037253,701971.9000000004,8038,WL,B,9.0
7,15.696000099182129,immed,44303.99990081787,Fri Apr 25 2025 15:40:24 GMT-0500 (Central Daylight Time),702688.4000000004,A,cab,I,b,206,1,716.5,701971.9000000004,8038,WL,B,9.0
7,15.92900013923645,immed,44070.99986076355,Fri Apr 25 2025 15:40:24 GMT-0500 (Central Daylight Time),702921.7000000011,A,cabi,I,i,222,1,949.8000000007451,701971.9000000004,8038,WL,B,9.0
7,16.195000171661377,immed,43804.99982833862,Fri Apr 25 2025 15:40:24 GMT-0500 (Central Daylight Time),703188.0999999996,A,cabin,I,n,253,1,1216.199999999255,701971.9000000004,8038,WL,B,9.0
7,16.445000171661377,immed,43554.99982833862,Fri Apr 25 2025 15:40:24 GMT-0500 (Central Daylight Time),703438.0999999996,A,cabinenter,I,enter,234,1,1466.199999999255,701971.9000000004,8038,WL,B,9.0
7,17.24500012397766,immed,42754.99987602234,Fri Apr 25 2025 15:40:24 GMT-0500 (Central Daylight Time),704237.9000000004,A,p,I,p,785,1,799.5,703438.4000000004,8038,WL,B,10.0
7,17.478000164031982,immed,42521.99983596802,Fri Apr 25 2025 15:40:24 GMT-0500 (Central Daylight Time),704470.9000000004,A,pi,I,i,225,1,1032.5,703438.4000000004,8038,WL,B,10.0
7,17.712000131607056,immed,42287.999868392944,Fri Apr 25 2025 15:40:24 GMT-0500 (Central Daylight Time),704704.4000000004,A,pip,I,p,223,1,1266.0,703438.4000000004,8038,WL,B,10.0
7,17.861000061035156,immed,42138.999938964844,Fri Apr 25 2025 15:40:24 GMT-0500 (Central Daylight Time),704854.0999999996,A,pipe,I,e,142,1,1415.699999999255,703438.4000000004,8038,WL,B,10.0
7,18.195000171661377,immed,41804.99982833862,Fri Apr 25 2025 15:40:24 GMT-0500 (Central Daylight Time),705187.3000000007,A,pipeenter,I,enter,328,1,1748.9000000003725,703438.4000000004,8038,WL,B,10.0
7,19.094000101089478,immed,40905.99989891052,Fri Apr 25 2025 15:40:24 GMT-0500 (Central Daylight Time),706087.0,A,c,I,c,883,1,899.4000000003725,705187.5999999996,8038,WL,B,11.0
7,19.194000005722046,immed,40805.999994277954,Fri Apr 25 2025 15:40:24 GMT-0500 (Central Daylight Time),706187.2000000011,A,cl,I,l,87,1,999.6000000014901,705187.5999999996,8038,WL,B,11.0
7,19.32800006866455,immed,40671.99993133545,Fri Apr 25 2025 15:40:24 GMT-0500 (Central Daylight Time),706320.5,A,clo,I,o,124,1,1132.9000000003725,705187.5999999996,8038,WL,B,11.0
7,19.460999965667725,immed,40539.000034332275,Fri Apr 25 2025 15:40:24 GMT-0500 (Central Daylight Time),706454.0999999996,A,cloc,I,c,118,1,1266.5,705187.5999999996,8038,WL,B,11.0
7,19.561000108718872,immed,40438.99989128113,Fri Apr 25 2025 15:40:24 GMT-0500 (Central Daylight Time),706554.0,A,clock,I,k,80,1,1366.4000000003725,705187.5999999996,8038,WL,B,11.0
7,19.877000093460083,immed,40122.99990653992,Fri Apr 25 2025 15:40:24 GMT-0500 (Central Daylight Time),706870.2000000011,A,clockenter,I,enter,301,1,1682.6000000014901,705187.5999999996,8038,WL,B,11.0
7,20.460999965667725,immed,39539.000034332275,Fri Apr 25 2025 15:40:24 GMT-0500 (Central Daylight Time),707453.4000000004,A,f,I,f,576,1,582.8000000007451,706870.5999999996,8038,WL,B,12.0
7,20.5770001411438,immed,39422.9998588562,Fri Apr 25 2025 15:40:24 GMT-0500 (Central Daylight Time),707570.0999999996,A,fi,I,i,97,1,699.5,706870.5999999996,8038,WL,B,12.0
7,20.677000045776367,immed,39322.99995422363,Fri Apr 25 2025 15:40:24 GMT-0500 (Central Daylight Time),707670.0,A,fir,I,r,92,1,799.4000000003725,706870.5999999996,8038,WL,B,12.0
7,21.0770001411438,immed,38922.9998588562,Fri Apr 25 2025 15:40:24 GMT-0500 (Central Daylight Time),708070.0999999996,A,fire,I,e,393,1,1199.5,706870.5999999996,8038,WL,B,12.0
7,21.361000061035156,immed,38638.999938964844,Fri Apr 25 2025 15:40:24 GMT-0500 (Central Daylight Time),708353.4000000004,A,fireenter,I,enter,272,1,1482.800000000745,706870.5999999996,8038,WL,B,12.0
7,26.842000007629395,immed,33157.999992370605,Fri Apr 25 2025 15:40:24 GMT-0500 (Central Daylight Time),713834.8000000007,A,enter,I,enter,5462,1,5481.0999999996275,708353.7000000011,8038,WL,B,13.0
7,27.175000190734863,immed,32824.99980926514,Fri Apr 25 2025 15:40:24 GMT-0500 (Central Daylight Time),714168.0,A,enter,I,enter,323,1,332.90000000037253,713835.0999999996,8038,WL,B,14.0
7,27.79200005531311,immed,32207.99994468689,Fri Apr 25 2025 15:40:24 GMT-0500 (Central Daylight Time),714784.5999999996,A,enter,I,enter,599,1,616.1999999992549,714168.4000000004,8038,WL,B,15.0
