acc_sum,block,block_c,change,condition,correct,correct_response,datetime,endtime,face,project,response,response_time,row_sel,session_number,start_end,starttime,subject_id,task,task_vers,trial
0,prac,1,,1-Back,,,Wed Mar 12 2025 18:18:42 GMT-0500 (Central Daylight Time),,124_o_f_d_a.png,O,space,18149,1,1,,,7082,VNB,A,0
1,prac,1,0.0,1-Back,1,m,Wed Mar 12 2025 18:18:42 GMT-0500 (Central Daylight Time),161479.2000000002,071_y_f_n_a.png,O,m,1335,2,1,2137.9000000003725,159341.2999999998,7082,VNB,A,1
2,prac,1,0.0,1-Back,1,m,Wed Mar 12 2025 18:18:42 GMT-0500 (Central Daylight Time),163444.5,165_m_m_h_a.png,O,m,1158,3,1,1954.7999999998137,161489.7000000002,7082,VNB,A,2
2,prac,1,0.0,1-Back,0,m,Wed Mar 12 2025 18:18:42 GMT-0500 (Central Daylight Time),165177.60000000056,109_y_m_d_a.png,O,z,915,4,1,1722.1000000005588,163455.5,7082,VNB,A,3
3,prac,1,0.0,1-Back,1,m,Wed Mar 12 2025 18:18:42 GMT-0500 (Central Daylight Time),167993.2999999998,124_o_f_n_a.png,O,m,1976,5,1,2804.5,165188.7999999998,7082,VNB,A,4
4,prac,1,1.0,1-Back,1,z,Wed Mar 12 2025 18:18:42 GMT-0500 (Central Daylight Time),170493.2000000002,109_y_m_n_a.png,O,z,1686,6,1,2489.7000000001863,168003.5,7082,VNB,A,5
5,prac,1,0.0,1-Back,1,m,Wed Mar 12 2025 18:18:42 GMT-0500 (Central Daylight Time),172076.2000000002,039_o_m_h_a.png,O,m,794,7,1,1572.4000000003725,170503.7999999998,7082,VNB,A,6
5,prac,1,0.0,1-Back,0,m,Wed Mar 12 2025 18:18:42 GMT-0500 (Central Daylight Time),173892.2000000002,139_m_f_d_a.png,O,z,1017,8,1,1805.5999999996275,172086.60000000056,7082,VNB,A,7
6,prac,1,1.0,1-Back,1,z,Wed Mar 12 2025 18:18:42 GMT-0500 (Central Daylight Time),175592.7999999998,071_y_f_d_a.png,O,z,915,9,1,1690.2999999998137,173902.5,7082,VNB,A,8
7,prac,1,0.0,1-Back,1,m,Wed Mar 12 2025 18:18:42 GMT-0500 (Central Daylight Time),177440.90000000037,165_m_m_n_a.png,O,m,1029,10,1,1842.0,175598.90000000037,7082,VNB,A,9
8,prac,1,0.0,1-Back,1,m,Wed Mar 12 2025 18:18:42 GMT-0500 (Central Daylight Time),179356.60000000056,124_o_f_h_a.png,O,m,1095,11,1,1905.800000000745,177450.7999999998,7082,VNB,A,10
8,prac,1,0.0,1-Back,0,m,Wed Mar 12 2025 18:18:42 GMT-0500 (Central Daylight Time),181139.7999999998,109_y_m_d_a.png,O,z,990,12,1,1773.0,179366.7999999998,7082,VNB,A,11
0,test,1,0.0,1-Back,,,Wed Mar 12 2025 18:18:42 GMT-0500 (Central Daylight Time),181139.7999999998,071_y_f_d_a.png,O,space,14772,1,1,1773.0,179366.7999999998,7082,VNB,A,0
1,test,1,0.0,1-Back,1,m,Wed Mar 12 2025 18:18:42 GMT-0500 (Central Daylight Time),215495.7000000002,139_m_f_n_a.png,O,m,1173,2,1,2188.4000000003725,213307.2999999998,7082,VNB,A,1
2,test,1,0.0,1-Back,1,m,Wed Mar 12 2025 18:18:42 GMT-0500 (Central Daylight Time),217861.2999999998,039_o_m_h_a.png,O,m,1335,3,1,2356.2999999998137,215505.0,7082,VNB,A,2
3,test,1,1.0,1-Back,1,z,Wed Mar 12 2025 18:18:42 GMT-0500 (Central Daylight Time),219927.10000000056,165_m_m_h_a.png,O,z,1047,4,1,2056.600000000559,217870.5,7082,VNB,A,3
4,test,1,0.0,1-Back,1,m,Wed Mar 12 2025 18:18:42 GMT-0500 (Central Daylight Time),221908.90000000037,124_o_f_n_a.png,O,m,957,5,1,1971.6000000005588,219937.2999999998,7082,VNB,A,4
4,test,1,0.0,1-Back,0,m,Wed Mar 12 2025 18:18:42 GMT-0500 (Central Daylight Time),224008.90000000037,109_y_m_d_a.png,O,z,1066,6,1,2090.9000000003725,221918.0,7082,VNB,A,5
4,test,1,1.0,1-Back,0,z,Wed Mar 12 2025 18:18:42 GMT-0500 (Central Daylight Time),226510.60000000056,139_m_f_d_a.png,O,m,1484,7,1,2491.300000000745,224019.2999999998,7082,VNB,A,6
5,test,1,0.0,1-Back,1,m,Wed Mar 12 2025 18:18:42 GMT-0500 (Central Daylight Time),228392.10000000056,071_y_f_h_a.png,O,m,865,8,1,1871.800000000745,226520.2999999998,7082,VNB,A,7
6,test,1,0.0,1-Back,1,m,Wed Mar 12 2025 18:18:42 GMT-0500 (Central Daylight Time),230555.90000000037,039_o_m_n_a.png,O,m,1143,9,1,2153.4000000003725,228402.5,7082,VNB,A,8
7,test,1,0.0,1-Back,1,m,Wed Mar 12 2025 18:18:42 GMT-0500 (Central Daylight Time),232589.90000000037,109_y_m_h_a.png,O,m,1008,10,1,2024.1000000005588,230565.7999999998,7082,VNB,A,9
8,test,1,0.0,1-Back,1,m,Wed Mar 12 2025 18:18:42 GMT-0500 (Central Daylight Time),234705.0,039_o_m_d_a.png,O,m,1085,11,1,2105.899999999441,232599.10000000056,7082,VNB,A,10
9,test,1,1.0,1-Back,1,z,Wed Mar 12 2025 18:18:42 GMT-0500 (Central Daylight Time),236720.90000000037,124_o_f_d_a.png,O,z,984,12,1,2009.0,234711.90000000037,7082,VNB,A,11
10,test,1,0.0,1-Back,1,m,Wed Mar 12 2025 18:18:42 GMT-0500 (Central Daylight Time),238688.0,165_m_m_n_a.png,O,m,949,13,1,1958.5999999996275,236729.40000000037,7082,VNB,A,12
11,test,1,1.0,1-Back,1,z,Wed Mar 12 2025 18:18:42 GMT-0500 (Central Daylight Time),240969.40000000037,071_y_f_n_a.png,O,z,1261,14,1,2270.600000000559,238698.7999999998,7082,VNB,A,13
12,test,1,0.0,1-Back,1,m,Wed Mar 12 2025 18:18:42 GMT-0500 (Central Daylight Time),242986.90000000037,139_m_f_h_a.png,O,m,985,15,1,2007.6000000005588,240979.2999999998,7082,VNB,A,14
12,test,1,0.0,1-Back,0,m,Wed Mar 12 2025 18:18:42 GMT-0500 (Central Daylight Time),244935.40000000037,165_m_m_d_a.png,O,z,922,16,1,1939.1000000005588,242996.2999999998,7082,VNB,A,15
13,test,1,0.0,1-Back,1,m,Wed Mar 12 2025 18:18:42 GMT-0500 (Central Daylight Time),247185.2999999998,109_y_m_n_a.png,O,m,1222,17,1,2239.2999999998137,244946.0,7082,VNB,A,16
14,test,1,0.0,1-Back,1,m,Wed Mar 12 2025 18:18:42 GMT-0500 (Central Daylight Time),249284.2000000002,124_o_f_h_a.png,O,m,1067,18,1,2089.0,247195.2000000002,7082,VNB,A,17
0,test,2,0.0,1-Back,,,Wed Mar 12 2025 18:18:42 GMT-0500 (Central Daylight Time),249284.2000000002,109_y_m_n_a.png,O,space,2808,1,1,2089.0,247195.2000000002,7082,VNB,A,0
1,test,2,0.0,1-Back,1,m,Wed Mar 12 2025 18:18:42 GMT-0500 (Central Daylight Time),256097.7999999998,071_y_f_h_a.png,O,m,927,2,1,1936.2999999998137,254161.5,7082,VNB,A,1
2,test,2,1.0,1-Back,1,m,Wed Mar 12 2025 18:18:42 GMT-0500 (Central Daylight Time),258014.60000000056,039_o_m_n_a.png,O,m,888,3,1,1907.0,256107.60000000056,7082,VNB,A,2
3,test,2,0.0,1-Back,1,m,Wed Mar 12 2025 18:18:42 GMT-0500 (Central Daylight Time),260129.60000000056,139_m_f_d_a.png,O,m,1093,4,1,2105.800000000745,258023.7999999998,7082,VNB,A,3
4,test,2,0.0,1-Back,1,z,Wed Mar 12 2025 18:18:42 GMT-0500 (Central Daylight Time),262047.0,165_m_m_d_a.png,O,z,897,5,1,1907.5,260139.5,7082,VNB,A,4
5,test,2,0.0,1-Back,1,m,Wed Mar 12 2025 18:18:42 GMT-0500 (Central Daylight Time),263729.7000000002,109_y_m_h_a.png,O,m,653,6,1,1673.9000000003725,262055.7999999998,7082,VNB,A,5
6,test,2,1.0,1-Back,1,z,Wed Mar 12 2025 18:18:42 GMT-0500 (Central Daylight Time),266144.2999999998,124_o_f_h_a.png,O,z,1395,7,1,2404.399999999441,263739.9000000004,7082,VNB,A,6
7,test,2,0.0,1-Back,1,m,Wed Mar 12 2025 18:18:42 GMT-0500 (Central Daylight Time),267910.10000000056,139_m_f_n_a.png,O,m,739,8,1,1756.0,266154.10000000056,7082,VNB,A,7
8,test,2,0.0,1-Back,1,m,Wed Mar 12 2025 18:18:42 GMT-0500 (Central Daylight Time),270111.9000000004,071_y_f_d_a.png,O,m,1186,9,1,2194.600000000559,267917.2999999998,7082,VNB,A,8
9,test,2,0.0,1-Back,1,m,Wed Mar 12 2025 18:18:42 GMT-0500 (Central Daylight Time),272545.4000000004,165_m_m_n_a.png,O,m,1405,10,1,2423.7999999998137,270121.60000000056,7082,VNB,A,9
10,test,2,1.0,1-Back,1,m,Wed Mar 12 2025 18:18:42 GMT-0500 (Central Daylight Time),274310.0,139_m_f_h_a.png,O,m,750,11,1,1757.2000000001863,272552.7999999998,7082,VNB,A,10
11,test,2,0.0,1-Back,1,z,Wed Mar 12 2025 18:18:42 GMT-0500 (Central Daylight Time),276292.2000000002,039_o_m_h_a.png,O,z,949,12,1,1971.7000000001863,274320.5,7082,VNB,A,11
12,test,2,0.0,1-Back,1,m,Wed Mar 12 2025 18:18:42 GMT-0500 (Central Daylight Time),278006.60000000056,109_y_m_d_a.png,O,m,686,13,1,1704.6000000005588,276302.0,7082,VNB,A,12
13,test,2,0.0,1-Back,1,m,Wed Mar 12 2025 18:18:42 GMT-0500 (Central Daylight Time),279975.4000000004,124_o_f_n_a.png,O,m,950,14,1,1959.7000000001863,278015.7000000002,7082,VNB,A,13
14,test,2,0.0,1-Back,1,z,Wed Mar 12 2025 18:18:42 GMT-0500 (Central Daylight Time),282055.4000000004,071_y_f_n_a.png,O,z,1052,15,1,2068.2999999998137,279987.10000000056,7082,VNB,A,14
15,test,2,1.0,1-Back,1,m,Wed Mar 12 2025 18:18:42 GMT-0500 (Central Daylight Time),283808.7000000002,165_m_m_h_a.png,O,m,724,16,1,1747.5999999996275,282061.10000000056,7082,VNB,A,15
16,test,2,0.0,1-Back,1,m,Wed Mar 12 2025 18:18:42 GMT-0500 (Central Daylight Time),286138.5,124_o_f_d_a.png,O,m,1300,17,1,2321.0999999996275,283817.4000000004,7082,VNB,A,16
17,test,2,1.0,1-Back,1,z,Wed Mar 12 2025 18:18:42 GMT-0500 (Central Daylight Time),288003.9000000004,039_o_m_d_a.png,O,z,839,18,1,1855.5,286148.4000000004,7082,VNB,A,17
0,test,3,1.0,1-Back,,,Wed Mar 12 2025 18:18:42 GMT-0500 (Central Daylight Time),288003.9000000004,124_o_f_h_a.png,O,space,1681,1,1,1855.5,286148.4000000004,7082,VNB,A,0
1,test,3,0.0,1-Back,1,m,Wed Mar 12 2025 18:18:42 GMT-0500 (Central Daylight Time),293736.10000000056,139_m_f_d_a.png,O,m,980,2,1,1987.800000000745,291748.2999999998,7082,VNB,A,1
2,test,3,1.0,1-Back,1,m,Wed Mar 12 2025 18:18:42 GMT-0500 (Central Daylight Time),295785.4000000004,165_m_m_n_a.png,O,m,1019,3,1,2039.1000000005588,293746.2999999998,7082,VNB,A,2
3,test,3,0.0,1-Back,1,z,Wed Mar 12 2025 18:18:42 GMT-0500 (Central Daylight Time),297867.9000000004,124_o_f_n_a.png,O,z,1049,4,1,2072.5,295795.4000000004,7082,VNB,A,3
4,test,3,1.0,1-Back,1,m,Wed Mar 12 2025 18:18:42 GMT-0500 (Central Daylight Time),300118.5,039_o_m_d_a.png,O,m,1230,5,1,2240.0,297878.5,7082,VNB,A,4
5,test,3,0.0,1-Back,1,m,Wed Mar 12 2025 18:18:42 GMT-0500 (Central Daylight Time),302068.2000000002,071_y_f_h_a.png,O,m,920,6,1,1941.7999999998137,300126.4000000004,7082,VNB,A,5
6,test,3,0.0,1-Back,1,z,Wed Mar 12 2025 18:18:42 GMT-0500 (Central Daylight Time),304116.7999999998,109_y_m_h_a.png,O,z,1017,7,1,2039.0,302077.7999999998,7082,VNB,A,6
7,test,3,0.0,1-Back,1,m,Wed Mar 12 2025 18:18:42 GMT-0500 (Central Daylight Time),305964.0,139_m_f_n_a.png,O,m,823,8,1,1836.0999999996275,304127.9000000004,7082,VNB,A,7
7,test,3,0.0,1-Back,0,m,Wed Mar 12 2025 18:18:42 GMT-0500 (Central Daylight Time),308200.2000000002,071_y_f_d_a.png,O,z,1217,9,1,2226.5,305973.7000000002,7082,VNB,A,8
8,test,3,1.0,1-Back,1,m,Wed Mar 12 2025 18:18:42 GMT-0500 (Central Daylight Time),310164.7999999998,039_o_m_n_a.png,O,m,942,10,1,1954.3999999994412,308210.4000000004,7082,VNB,A,9
9,test,3,0.0,1-Back,1,m,Wed Mar 12 2025 18:18:42 GMT-0500 (Central Daylight Time),312231.7000000002,165_m_m_h_a.png,O,m,1040,11,1,2056.5,310175.2000000002,7082,VNB,A,10
10,test,3,0.0,1-Back,1,z,Wed Mar 12 2025 18:18:42 GMT-0500 (Central Daylight Time),314330.0,139_m_f_h_a.png,O,z,1068,12,1,2088.2000000001863,312241.7999999998,7082,VNB,A,11
11,test,3,1.0,1-Back,1,m,Wed Mar 12 2025 18:18:42 GMT-0500 (Central Daylight Time),316145.10000000056,124_o_f_d_a.png,O,m,784,13,1,1806.4000000003725,314338.7000000002,7082,VNB,A,12
12,test,3,0.0,1-Back,1,z,Wed Mar 12 2025 18:18:42 GMT-0500 (Central Daylight Time),318062.7000000002,165_m_m_d_a.png,O,z,900,14,1,1908.5,316154.2000000002,7082,VNB,A,13
13,test,3,0.0,1-Back,1,m,Wed Mar 12 2025 18:18:42 GMT-0500 (Central Daylight Time),320111.60000000056,109_y_m_n_a.png,O,m,1021,15,1,2042.7000000001863,318068.9000000004,7082,VNB,A,14
14,test,3,1.0,1-Back,1,m,Wed Mar 12 2025 18:18:42 GMT-0500 (Central Daylight Time),322293.9000000004,039_o_m_h_a.png,O,m,1157,16,1,2173.2000000001863,320120.7000000002,7082,VNB,A,15
15,test,3,0.0,1-Back,1,m,Wed Mar 12 2025 18:18:42 GMT-0500 (Central Daylight Time),324526.2999999998,109_y_m_d_a.png,O,m,1204,17,1,2222.199999999255,322304.10000000056,7082,VNB,A,16
16,test,3,1.0,1-Back,1,m,Wed Mar 12 2025 18:18:42 GMT-0500 (Central Daylight Time),326392.2999999998,071_y_f_n_a.png,O,m,847,18,1,1855.0,324537.2999999998,7082,VNB,A,17
0,test,4,1.0,1-Back,,,Wed Mar 12 2025 18:18:42 GMT-0500 (Central Daylight Time),326392.2999999998,165_m_m_d_a.png,O,space,1291,1,1,1855.0,324537.2999999998,7082,VNB,A,0
1,test,4,0.0,1-Back,1,z,Wed Mar 12 2025 18:18:42 GMT-0500 (Central Daylight Time),331658.2000000002,039_o_m_d_a.png,O,z,912,2,1,1935.5999999996275,329722.60000000056,7082,VNB,A,1
2,test,4,0.0,1-Back,1,m,Wed Mar 12 2025 18:18:42 GMT-0500 (Central Daylight Time),333407.5,109_y_m_h_a.png,O,m,732,3,1,1739.5,331668.0,7082,VNB,A,2
3,test,4,0.0,1-Back,1,m,Wed Mar 12 2025 18:18:42 GMT-0500 (Central Daylight Time),335356.5,139_m_f_n_a.png,O,m,924,4,1,1940.5,333416.0,7082,VNB,A,3
4,test,4,1.0,1-Back,1,m,Wed Mar 12 2025 18:18:42 GMT-0500 (Central Daylight Time),337223.10000000056,124_o_f_h_a.png,O,m,841,5,1,1857.2000000001863,335365.9000000004,7082,VNB,A,4
5,test,4,0.0,1-Back,1,m,Wed Mar 12 2025 18:18:42 GMT-0500 (Central Daylight Time),339188.7000000002,165_m_m_n_a.png,O,m,943,6,1,1956.5999999996275,337232.10000000056,7082,VNB,A,5
6,test,4,0.0,1-Back,1,m,Wed Mar 12 2025 18:18:42 GMT-0500 (Central Daylight Time),341173.0,109_y_m_d_a.png,O,m,964,7,1,1974.2999999998137,339198.7000000002,7082,VNB,A,6
7,test,4,1.0,1-Back,1,z,Wed Mar 12 2025 18:18:42 GMT-0500 (Central Daylight Time),342954.10000000056,071_y_f_d_a.png,O,z,752,8,1,1772.2000000001863,341181.9000000004,7082,VNB,A,7
8,test,4,0.0,1-Back,1,m,Wed Mar 12 2025 18:18:42 GMT-0500 (Central Daylight Time),344720.0,139_m_f_h_a.png,O,m,737,9,1,1755.5,342964.5,7082,VNB,A,8
9,test,4,0.0,1-Back,1,z,Wed Mar 12 2025 18:18:42 GMT-0500 (Central Daylight Time),346719.60000000056,039_o_m_h_a.png,O,z,974,10,1,1989.4000000003725,344730.2000000002,7082,VNB,A,9
10,test,4,1.0,1-Back,1,m,Wed Mar 12 2025 18:18:42 GMT-0500 (Central Daylight Time),348436.7999999998,124_o_f_n_a.png,O,m,684,11,1,1707.0,346729.7999999998,7082,VNB,A,10
10,test,4,0.0,1-Back,0,m,Wed Mar 12 2025 18:18:42 GMT-0500 (Central Daylight Time),350368.5,139_m_f_d_a.png,O,z,905,12,1,1922.0999999996275,348446.4000000004,7082,VNB,A,11
11,test,4,0.0,1-Back,1,m,Wed Mar 12 2025 18:18:42 GMT-0500 (Central Daylight Time),352518.2000000002,071_y_f_n_a.png,O,m,1133,13,1,2140.4000000003725,350377.7999999998,7082,VNB,A,12
12,test,4,0.0,1-Back,1,m,Wed Mar 12 2025 18:18:42 GMT-0500 (Central Daylight Time),354468.5,124_o_f_d_a.png,O,m,924,14,1,1940.5999999996275,352527.9000000004,7082,VNB,A,13
13,test,4,0.0,1-Back,1,m,Wed Mar 12 2025 18:18:42 GMT-0500 (Central Daylight Time),356134.7000000002,071_y_f_h_a.png,O,m,649,15,1,1657.9000000003725,354476.7999999998,7082,VNB,A,14
14,test,4,1.0,1-Back,1,z,Wed Mar 12 2025 18:18:42 GMT-0500 (Central Daylight Time),358048.7000000002,165_m_m_h_a.png,O,z,885,16,1,1904.0,356144.7000000002,7082,VNB,A,15
15,test,4,0.0,1-Back,1,m,Wed Mar 12 2025 18:18:42 GMT-0500 (Central Daylight Time),359699.7000000002,039_o_m_n_a.png,O,m,618,17,1,1641.2000000001863,358058.5,7082,VNB,A,16
16,test,4,1.0,1-Back,1,z,Wed Mar 12 2025 18:18:42 GMT-0500 (Central Daylight Time),361816.0,109_y_m_n_a.png,O,z,1097,18,1,2106.7999999998137,359709.2000000002,7082,VNB,A,17
0,test,5,1.0,1-Back,,,Wed Mar 12 2025 18:18:42 GMT-0500 (Central Daylight Time),361816.0,039_o_m_n_a.png,O,space,1382,1,1,2106.7999999998137,359709.2000000002,7082,VNB,A,0
1,test,5,1.0,1-Back,1,m,Wed Mar 12 2025 18:18:42 GMT-0500 (Central Daylight Time),367296.4000000004,124_o_f_h_a.png,O,m,1051,2,1,2071.4000000003725,365225.0,7082,VNB,A,1
2,test,5,0.0,1-Back,1,m,Wed Mar 12 2025 18:18:42 GMT-0500 (Central Daylight Time),369046.4000000004,109_y_m_d_a.png,O,m,725,3,1,1739.9000000003725,367306.5,7082,VNB,A,2
3,test,5,0.0,1-Back,1,z,Wed Mar 12 2025 18:18:42 GMT-0500 (Central Daylight Time),371095.5,039_o_m_d_a.png,O,z,1022,4,1,2039.7999999998137,369055.7000000002,7082,VNB,A,3
4,test,5,0.0,1-Back,1,m,Wed Mar 12 2025 18:18:42 GMT-0500 (Central Daylight Time),372777.2000000002,139_m_f_h_a.png,O,m,660,5,1,1671.2000000001863,371106.0,7082,VNB,A,4
5,test,5,0.0,1-Back,1,m,Wed Mar 12 2025 18:18:42 GMT-0500 (Central Daylight Time),374560.60000000056,071_y_f_n_a.png,O,m,754,6,1,1774.2000000001863,372786.4000000004,7082,VNB,A,5
6,test,5,1.0,1-Back,1,z,Wed Mar 12 2025 18:18:42 GMT-0500 (Central Daylight Time),376675.2999999998,124_o_f_n_a.png,O,z,1091,7,1,2105.399999999441,374569.9000000004,7082,VNB,A,6
7,test,5,0.0,1-Back,1,m,Wed Mar 12 2025 18:18:42 GMT-0500 (Central Daylight Time),378425.10000000056,139_m_f_d_a.png,O,m,725,8,1,1740.4000000003725,376684.7000000002,7082,VNB,A,7
8,test,5,0.0,1-Back,1,m,Wed Mar 12 2025 18:18:42 GMT-0500 (Central Daylight Time),380192.5,109_y_m_h_a.png,O,m,738,9,1,1758.2999999998137,378434.2000000002,7082,VNB,A,8
9,test,5,0.0,1-Back,1,m,Wed Mar 12 2025 18:18:42 GMT-0500 (Central Daylight Time),382007.60000000056,071_y_f_d_a.png,O,m,787,10,1,1805.800000000745,380201.7999999998,7082,VNB,A,9
10,test,5,0.0,1-Back,1,m,Wed Mar 12 2025 18:18:42 GMT-0500 (Central Daylight Time),383906.7999999998,165_m_m_n_a.png,O,m,874,11,1,1888.699999999255,382018.10000000056,7082,VNB,A,10
11,test,5,1.0,1-Back,1,z,Wed Mar 12 2025 18:18:42 GMT-0500 (Central Daylight Time),385657.7000000002,139_m_f_n_a.png,O,z,727,12,1,1741.9000000003725,383915.7999999998,7082,VNB,A,11
12,test,5,0.0,1-Back,1,m,Wed Mar 12 2025 18:18:42 GMT-0500 (Central Daylight Time),387324.7999999998,039_o_m_h_a.png,O,m,640,13,1,1658.2999999998137,385666.5,7082,VNB,A,12
13,test,5,0.0,1-Back,1,z,Wed Mar 12 2025 18:18:42 GMT-0500 (Central Daylight Time),389289.0,165_m_m_h_a.png,O,z,944,14,1,1957.0,387332.0,7082,VNB,A,13
14,test,5,1.0,1-Back,1,m,Wed Mar 12 2025 18:18:42 GMT-0500 (Central Daylight Time),391537.5,124_o_f_d_a.png,O,m,1218,15,1,2238.7999999998137,389298.7000000002,7082,VNB,A,14
15,test,5,0.0,1-Back,1,m,Wed Mar 12 2025 18:18:42 GMT-0500 (Central Daylight Time),393287.9000000004,109_y_m_n_a.png,O,m,720,16,1,1741.1000000005588,391546.7999999998,7082,VNB,A,15
16,test,5,0.0,1-Back,1,m,Wed Mar 12 2025 18:18:42 GMT-0500 (Central Daylight Time),395021.10000000056,071_y_f_h_a.png,O,m,708,17,1,1724.7000000001863,393296.4000000004,7082,VNB,A,16
16,test,5,0.0,1-Back,0,m,Wed Mar 12 2025 18:18:42 GMT-0500 (Central Daylight Time),397053.0,165_m_m_d_a.png,O,z,1007,18,1,2022.8999999994412,395030.10000000056,7082,VNB,A,17
0,prac,1,0.0,2-Back,,,Wed Mar 12 2025 18:18:42 GMT-0500 (Central Daylight Time),397053.0,139_m_f_n_a.png,O,space,8913,1,1,2022.8999999994412,395030.10000000056,7082,VNB,A,0
0,prac,1,0.0,2-Back,,,Wed Mar 12 2025 18:18:42 GMT-0500 (Central Daylight Time),397053.0,124_o_f_h_a.png,O,space,8913,2,1,2022.8999999994412,395030.10000000056,7082,VNB,A,0
0,prac,1,0.0,2-Back,0,m,Wed Mar 12 2025 18:18:42 GMT-0500 (Central Daylight Time),525613.9000000004,039_o_m_d_a.png,O,None,2001,3,1,2772.4000000003725,522841.5,7082,VNB,A,1
0,prac,1,1.0,2-Back,0,z,Wed Mar 12 2025 18:18:42 GMT-0500 (Central Daylight Time),528429.2999999998,165_m_m_h_a.png,O,None,2017,4,1,2804.2999999998137,525625.0,7082,VNB,A,2
1,prac,1,0.0,2-Back,1,m,Wed Mar 12 2025 18:18:42 GMT-0500 (Central Daylight Time),531026.5,071_y_f_n_a.png,O,m,1801,5,1,2586.899999999441,528439.6000000006,7082,VNB,A,3
1,prac,1,1.0,2-Back,0,z,Wed Mar 12 2025 18:18:42 GMT-0500 (Central Daylight Time),533143.6000000006,039_o_m_h_a.png,O,m,1320,6,1,2110.5,531033.1000000006,7082,VNB,A,4
1,prac,1,1.0,2-Back,0,z,Wed Mar 12 2025 18:18:42 GMT-0500 (Central Daylight Time),534909.5,109_y_m_n_a.png,O,m,950,7,1,1754.7999999998137,533154.7000000002,7082,VNB,A,5
2,prac,1,0.0,2-Back,1,m,Wed Mar 12 2025 18:18:42 GMT-0500 (Central Daylight Time),537259.7000000002,139_m_f_d_a.png,O,m,1538,8,1,2339.0,534920.7000000002,7082,VNB,A,6
2,prac,1,0.0,2-Back,0,m,Wed Mar 12 2025 18:18:42 GMT-0500 (Central Daylight Time),539409.4000000004,124_o_f_d_a.png,O,z,1312,9,1,2139.5,537269.9000000004,7082,VNB,A,7
3,prac,1,0.0,2-Back,1,m,Wed Mar 12 2025 18:18:42 GMT-0500 (Central Daylight Time),541524.7000000002,165_m_m_h_a.png,O,m,1338,10,1,2105.0,539419.7000000002,7082,VNB,A,8
3,prac,1,1.0,2-Back,0,z,Wed Mar 12 2025 18:18:42 GMT-0500 (Central Daylight Time),543657.6000000006,071_y_f_d_a.png,O,m,1328,11,1,2122.2000000001863,541535.4000000004,7082,VNB,A,9
3,prac,1,0.0,2-Back,0,m,Wed Mar 12 2025 18:18:42 GMT-0500 (Central Daylight Time),546089.0,039_o_m_n_a.png,O,z,1630,12,1,2421.2000000001863,543667.7999999998,7082,VNB,A,10
0,prac,2,0.0,2-Back,,,Wed Mar 12 2025 18:18:42 GMT-0500 (Central Daylight Time),546089.0,139_m_f_n_a.png,O,a,10792,1,1,2421.2000000001863,543667.7999999998,7082,VNB,A,0
0,prac,2,0.0,2-Back,,,Wed Mar 12 2025 18:18:42 GMT-0500 (Central Daylight Time),546089.0,124_o_f_h_a.png,O,a,10792,2,1,2421.2000000001863,543667.7999999998,7082,VNB,A,0
1,prac,2,0.0,2-Back,1,m,Wed Mar 12 2025 18:18:42 GMT-0500 (Central Daylight Time),564519.2000000002,039_o_m_d_a.png,O,m,1732,3,1,2519.0,562000.2000000002,7082,VNB,A,1
1,prac,2,1.0,2-Back,0,z,Wed Mar 12 2025 18:18:42 GMT-0500 (Central Daylight Time),566915.9000000004,165_m_m_h_a.png,O,m,1610,4,1,2384.2999999998137,564531.6000000006,7082,VNB,A,2
2,prac,2,0.0,2-Back,1,m,Wed Mar 12 2025 18:18:42 GMT-0500 (Central Daylight Time),568832.2999999998,071_y_f_n_a.png,O,m,1107,5,1,1907.3999999994412,566924.9000000004,7082,VNB,A,3
2,prac,2,1.0,2-Back,0,z,Wed Mar 12 2025 18:18:42 GMT-0500 (Central Daylight Time),571631.1000000006,039_o_m_h_a.png,O,None,2003,6,1,2788.0,568843.1000000006,7082,VNB,A,4
2,prac,2,1.0,2-Back,0,z,Wed Mar 12 2025 18:18:42 GMT-0500 (Central Daylight Time),573131.9000000004,109_y_m_n_a.png,O,m,677,7,1,1487.7999999998137,571644.1000000006,7082,VNB,A,5
2,prac,2,0.0,2-Back,0,m,Wed Mar 12 2025 18:18:42 GMT-0500 (Central Daylight Time),574997.5,139_m_f_d_a.png,O,z,1058,8,1,1855.0,573142.5,7082,VNB,A,6
2,prac,2,0.0,2-Back,0,m,Wed Mar 12 2025 18:18:42 GMT-0500 (Central Daylight Time),577396.4000000004,124_o_f_d_a.png,O,z,1556,9,1,2390.5,575005.9000000004,7082,VNB,A,7
3,prac,2,0.0,2-Back,1,m,Wed Mar 12 2025 18:18:42 GMT-0500 (Central Daylight Time),579131.0,165_m_m_h_a.png,O,m,951,10,1,1724.7000000001863,577406.2999999998,7082,VNB,A,8
3,prac,2,1.0,2-Back,0,z,Wed Mar 12 2025 18:18:42 GMT-0500 (Central Daylight Time),580961.2000000002,071_y_f_d_a.png,O,m,1019,11,1,1819.5999999996275,579141.6000000006,7082,VNB,A,9
4,prac,2,0.0,2-Back,1,m,Wed Mar 12 2025 18:18:42 GMT-0500 (Central Daylight Time),582812.2000000002,039_o_m_n_a.png,O,m,1044,12,1,1840.5999999996275,580971.6000000006,7082,VNB,A,10
0,test,1,0.0,2-Back,,,Wed Mar 12 2025 18:18:42 GMT-0500 (Central Daylight Time),582812.2000000002,109_y_m_h_a.png,O,space,4291,1,1,1840.5999999996275,580971.6000000006,7082,VNB,A,0
0,test,1,0.0,2-Back,,,Wed Mar 12 2025 18:18:42 GMT-0500 (Central Daylight Time),582812.2000000002,124_o_f_n_a.png,O,space,4291,2,1,1840.5999999996275,580971.6000000006,7082,VNB,A,0
0,test,1,0.0,2-Back,0,z,Wed Mar 12 2025 18:18:42 GMT-0500 (Central Daylight Time),605204.7000000002,039_o_m_h_a.png,O,m,1642,3,1,2657.0,602547.7000000002,7082,VNB,A,1
1,test,1,0.0,2-Back,1,m,Wed Mar 12 2025 18:18:42 GMT-0500 (Central Daylight Time),607737.0,139_m_f_d_a.png,O,m,1515,4,1,2522.2999999998137,605214.7000000002,7082,VNB,A,2
2,test,1,1.0,2-Back,1,m,Wed Mar 12 2025 18:18:42 GMT-0500 (Central Daylight Time),610169.4000000004,109_y_m_n_a.png,O,m,1413,5,1,2423.2000000001863,607746.2000000002,7082,VNB,A,3
2,test,1,0.0,2-Back,0,z,Wed Mar 12 2025 18:18:42 GMT-0500 (Central Daylight Time),613201.0,071_y_f_d_a.png,O,None,2014,6,1,3022.2999999998137,610178.7000000002,7082,VNB,A,4
2,test,1,0.0,2-Back,0,m,Wed Mar 12 2025 18:18:42 GMT-0500 (Central Daylight Time),615599.9000000004,165_m_m_h_a.png,O,z,1372,7,1,2390.2000000001863,613209.7000000002,7082,VNB,A,5
3,test,1,1.0,2-Back,1,m,Wed Mar 12 2025 18:18:42 GMT-0500 (Central Daylight Time),617849.7999999998,071_y_f_n_a.png,O,m,1227,8,1,2239.5,615610.2999999998,7082,VNB,A,6
4,test,1,0.0,2-Back,1,z,Wed Mar 12 2025 18:18:42 GMT-0500 (Central Daylight Time),620314.6000000006,124_o_f_h_a.png,O,z,1441,9,1,2455.0,617859.6000000006,7082,VNB,A,7
4,test,1,0.0,2-Back,0,m,Wed Mar 12 2025 18:18:42 GMT-0500 (Central Daylight Time),622365.5,039_o_m_d_a.png,O,z,1024,10,1,2042.2000000001863,620323.2999999998,7082,VNB,A,8
5,test,1,1.0,2-Back,1,m,Wed Mar 12 2025 18:18:42 GMT-0500 (Central Daylight Time),624782.7999999998,165_m_m_d_a.png,O,m,1400,11,1,2407.699999999255,622375.1000000006,7082,VNB,A,9
6,test,1,0.0,2-Back,1,m,Wed Mar 12 2025 18:18:42 GMT-0500 (Central Daylight Time),626598.2000000002,139_m_f_n_a.png,O,m,785,12,1,1807.4000000003725,624790.7999999998,7082,VNB,A,10
7,test,1,0.0,2-Back,1,m,Wed Mar 12 2025 18:18:42 GMT-0500 (Central Daylight Time),628497.4000000004,071_y_f_h_a.png,O,m,867,13,1,1890.2999999998137,626607.1000000006,7082,VNB,A,11
7,test,1,0.0,2-Back,0,z,Wed Mar 12 2025 18:18:42 GMT-0500 (Central Daylight Time),630379.0,165_m_m_n_a.png,O,m,851,14,1,1871.0999999996275,628507.9000000004,7082,VNB,A,12
8,test,1,0.0,2-Back,1,m,Wed Mar 12 2025 18:18:42 GMT-0500 (Central Daylight Time),632795.4000000004,109_y_m_d_a.png,O,m,1393,15,1,2407.7000000001863,630387.7000000002,7082,VNB,A,13
9,test,1,1.0,2-Back,1,m,Wed Mar 12 2025 18:18:42 GMT-0500 (Central Daylight Time),634910.7999999998,139_m_f_h_a.png,O,m,1086,16,1,2105.2999999998137,632805.5,7082,VNB,A,14
9,test,1,0.0,2-Back,0,z,Wed Mar 12 2025 18:18:42 GMT-0500 (Central Daylight Time),636961.1000000006,124_o_f_d_a.png,O,m,1020,17,1,2040.300000000745,634920.7999999998,7082,VNB,A,15
10,test,1,0.0,2-Back,1,m,Wed Mar 12 2025 18:18:42 GMT-0500 (Central Daylight Time),638542.2999999998,039_o_m_n_a.png,O,m,555,18,1,1570.8999999994412,636971.4000000004,7082,VNB,A,16
0,test,2,0.0,2-Back,,,Wed Mar 12 2025 18:18:42 GMT-0500 (Central Daylight Time),638542.2999999998,165_m_m_h_a.png,O,space,1758,1,1,1570.8999999994412,636971.4000000004,7082,VNB,A,0
0,test,2,0.0,2-Back,,,Wed Mar 12 2025 18:18:42 GMT-0500 (Central Daylight Time),638542.2999999998,071_y_f_n_a.png,O,space,1758,2,1,1570.8999999994412,636971.4000000004,7082,VNB,A,0
0,test,2,1.0,2-Back,0,z,Wed Mar 12 2025 18:18:42 GMT-0500 (Central Daylight Time),647158.0,124_o_f_h_a.png,O,m,733,3,1,1757.2000000001863,645400.7999999998,7082,VNB,A,1
1,test,2,0.0,2-Back,1,m,Wed Mar 12 2025 18:18:42 GMT-0500 (Central Daylight Time),649439.2000000002,039_o_m_d_a.png,O,m,1253,4,1,2270.7000000001863,647168.5,7082,VNB,A,2
2,test,2,0.0,2-Back,1,m,Wed Mar 12 2025 18:18:42 GMT-0500 (Central Daylight Time),651820.2999999998,139_m_f_d_a.png,O,m,1363,5,1,2374.5999999996275,649445.7000000002,7082,VNB,A,3
3,test,2,0.0,2-Back,1,m,Wed Mar 12 2025 18:18:42 GMT-0500 (Central Daylight Time),654072.2999999998,109_y_m_h_a.png,O,m,1231,6,1,2246.5,651825.7999999998,7082,VNB,A,4
3,test,2,0.0,2-Back,0,m,Wed Mar 12 2025 18:18:42 GMT-0500 (Central Daylight Time),656138.7000000002,124_o_f_n_a.png,O,z,1043,7,1,2056.7000000001863,654082.0,7082,VNB,A,5
3,test,2,1.0,2-Back,0,z,Wed Mar 12 2025 18:18:42 GMT-0500 (Central Daylight Time),659087.2000000002,039_o_m_h_a.png,O,m,1921,8,1,2938.0,656149.2000000002,7082,VNB,A,6
4,test,2,0.0,2-Back,1,m,Wed Mar 12 2025 18:18:42 GMT-0500 (Central Daylight Time),661418.9000000004,071_y_f_d_a.png,O,m,1310,9,1,2322.600000000559,659096.2999999998,7082,VNB,A,7
4,test,2,0.0,2-Back,0,m,Wed Mar 12 2025 18:18:42 GMT-0500 (Central Daylight Time),663735.6000000006,109_y_m_d_a.png,O,z,1287,10,1,2306.800000000745,661428.7999999998,7082,VNB,A,8
4,test,2,0.0,2-Back,0,m,Wed Mar 12 2025 18:18:42 GMT-0500 (Central Daylight Time),666051.7999999998,165_m_m_n_a.png,O,z,1285,11,1,2306.5999999996275,663745.2000000002,7082,VNB,A,9
5,test,2,0.0,2-Back,1,m,Wed Mar 12 2025 18:18:42 GMT-0500 (Central Daylight Time),668384.2999999998,139_m_f_h_a.png,O,m,1303,12,1,2321.899999999441,666062.4000000004,7082,VNB,A,10
6,test,2,1.0,2-Back,1,z,Wed Mar 12 2025 18:18:42 GMT-0500 (Central Daylight Time),670233.0,039_o_m_n_a.png,O,z,827,13,1,1839.0999999996275,668393.9000000004,7082,VNB,A,11
7,test,2,0.0,2-Back,1,m,Wed Mar 12 2025 18:18:42 GMT-0500 (Central Daylight Time),671900.2999999998,124_o_f_d_a.png,O,m,633,14,1,1657.2999999998137,670243.0,7082,VNB,A,12
8,test,2,0.0,2-Back,1,m,Wed Mar 12 2025 18:18:42 GMT-0500 (Central Daylight Time),674082.2000000002,071_y_f_h_a.png,O,m,1161,15,1,2172.0,671910.2000000002,7082,VNB,A,13
8,test,2,0.0,2-Back,0,z,Wed Mar 12 2025 18:18:42 GMT-0500 (Central Daylight Time),676448.4000000004,165_m_m_d_a.png,O,m,1346,16,1,2357.5,674090.9000000004,7082,VNB,A,14
9,test,2,0.0,2-Back,1,m,Wed Mar 12 2025 18:18:42 GMT-0500 (Central Daylight Time),678631.0,109_y_m_n_a.png,O,m,1154,17,1,2171.0999999996275,676459.9000000004,7082,VNB,A,15
10,test,2,1.0,2-Back,1,m,Wed Mar 12 2025 18:18:42 GMT-0500 (Central Daylight Time),680414.0,139_m_f_n_a.png,O,m,758,18,1,1773.2000000001863,678640.7999999998,7082,VNB,A,16
0,test,3,1.0,2-Back,,,Wed Mar 12 2025 18:18:42 GMT-0500 (Central Daylight Time),680414.0,039_o_m_n_a.png,O,space,1454,1,1,1773.2000000001863,678640.7999999998,7082,VNB,A,0
0,test,3,1.0,2-Back,,,Wed Mar 12 2025 18:18:42 GMT-0500 (Central Daylight Time),680414.0,124_o_f_d_a.png,O,space,1454,2,1,1773.2000000001863,678640.7999999998,7082,VNB,A,0
1,test,3,0.0,2-Back,1,m,Wed Mar 12 2025 18:18:42 GMT-0500 (Central Daylight Time),689343.5,071_y_f_h_a.png,O,m,1320,3,1,2337.5,687006.0,7082,VNB,A,1
2,test,3,0.0,2-Back,1,z,Wed Mar 12 2025 18:18:42 GMT-0500 (Central Daylight Time),691629.4000000004,139_m_f_d_a.png,O,z,1260,4,1,2275.2999999998137,689354.1000000006,7082,VNB,A,2
2,test,3,1.0,2-Back,0,m,Wed Mar 12 2025 18:18:42 GMT-0500 (Central Daylight Time),693991.2999999998,109_y_m_n_a.png,O,z,1347,5,1,2352.0999999996275,691639.2000000002,7082,VNB,A,3
3,test,3,0.0,2-Back,1,m,Wed Mar 12 2025 18:18:42 GMT-0500 (Central Daylight Time),695925.7999999998,039_o_m_h_a.png,O,m,909,6,1,1925.8999999994412,693999.9000000004,7082,VNB,A,4
4,test,3,0.0,2-Back,1,z,Wed Mar 12 2025 18:18:42 GMT-0500 (Central Daylight Time),698743.1000000006,071_y_f_n_a.png,O,z,1789,7,1,2807.2000000001863,695935.9000000004,7082,VNB,A,5
4,test,3,1.0,2-Back,0,m,Wed Mar 12 2025 18:18:42 GMT-0500 (Central Daylight Time),700922.7000000002,165_m_m_d_a.png,O,z,1158,8,1,2168.5999999996275,698754.1000000006,7082,VNB,A,6
4,test,3,0.0,2-Back,0,m,Wed Mar 12 2025 18:18:42 GMT-0500 (Central Daylight Time),703289.9000000004,109_y_m_d_a.png,O,z,1338,9,1,2356.5,700933.4000000004,7082,VNB,A,7
5,test,3,0.0,2-Back,1,m,Wed Mar 12 2025 18:18:42 GMT-0500 (Central Daylight Time),705155.7000000002,124_o_f_h_a.png,O,m,842,10,1,1856.0,703299.7000000002,7082,VNB,A,8
6,test,3,1.0,2-Back,1,m,Wed Mar 12 2025 18:18:42 GMT-0500 (Central Daylight Time),706887.5,139_m_f_n_a.png,O,m,703,11,1,1721.2999999998137,705166.2000000002,7082,VNB,A,9
6,test,3,1.0,2-Back,0,z,Wed Mar 12 2025 18:18:42 GMT-0500 (Central Daylight Time),709072.7000000002,165_m_m_h_a.png,O,m,1166,12,1,2176.2000000001863,706896.5,7082,VNB,A,10
6,test,3,0.0,2-Back,0,m,Wed Mar 12 2025 18:18:42 GMT-0500 (Central Daylight Time),711104.1000000006,071_y_f_d_a.png,O,z,1005,13,1,2021.5,709082.6000000006,7082,VNB,A,11
7,test,3,0.0,2-Back,1,m,Wed Mar 12 2025 18:18:42 GMT-0500 (Central Daylight Time),713054.0,124_o_f_n_a.png,O,m,927,14,1,1939.0,711115.0,7082,VNB,A,12
7,test,3,0.0,2-Back,0,z,Wed Mar 12 2025 18:18:42 GMT-0500 (Central Daylight Time),714920.5,039_o_m_d_a.png,O,m,849,15,1,1857.2999999998137,713063.2000000002,7082,VNB,A,13
8,test,3,1.0,2-Back,1,m,Wed Mar 12 2025 18:18:42 GMT-0500 (Central Daylight Time),717051.9000000004,139_m_f_h_a.png,O,m,1110,16,1,2121.4000000003725,714930.5,7082,VNB,A,14
9,test,3,0.0,2-Back,1,m,Wed Mar 12 2025 18:18:42 GMT-0500 (Central Daylight Time),718685.5,165_m_m_n_a.png,O,m,615,17,1,1623.5,717062.0,7082,VNB,A,15
9,test,3,0.0,2-Back,0,z,Wed Mar 12 2025 18:18:42 GMT-0500 (Central Daylight Time),720767.5,109_y_m_h_a.png,O,m,1055,18,1,2072.7000000001863,718694.7999999998,7082,VNB,A,16
0,test,4,0.0,2-Back,,,Wed Mar 12 2025 18:18:42 GMT-0500 (Central Daylight Time),720767.5,139_m_f_n_a.png,O,space,1452,1,1,2072.7000000001863,718694.7999999998,7082,VNB,A,0
0,test,4,0.0,2-Back,,,Wed Mar 12 2025 18:18:42 GMT-0500 (Central Daylight Time),720767.5,039_o_m_n_a.png,O,space,1452,2,1,2072.7000000001863,718694.7999999998,7082,VNB,A,0
1,test,4,1.0,2-Back,1,m,Wed Mar 12 2025 18:18:42 GMT-0500 (Central Daylight Time),729448.1000000006,109_y_m_h_a.png,O,m,1105,3,1,2121.800000000745,727326.2999999998,7082,VNB,A,1
2,test,4,1.0,2-Back,1,m,Wed Mar 12 2025 18:18:42 GMT-0500 (Central Daylight Time),731731.5,124_o_f_d_a.png,O,m,1259,4,1,2273.2999999998137,729458.2000000002,7082,VNB,A,2
2,test,4,0.0,2-Back,0,z,Wed Mar 12 2025 18:18:42 GMT-0500 (Central Daylight Time),734695.7000000002,039_o_m_h_a.png,O,m,1937,5,1,2955.0,731740.7000000002,7082,VNB,A,3
3,test,4,0.0,2-Back,1,m,Wed Mar 12 2025 18:18:42 GMT-0500 (Central Daylight Time),737045.6000000006,165_m_m_n_a.png,O,m,1321,6,1,2340.300000000745,734705.2999999998,7082,VNB,A,4
3,test,4,0.0,2-Back,0,m,Wed Mar 12 2025 18:18:42 GMT-0500 (Central Daylight Time),739128.2999999998,139_m_f_d_a.png,O,z,1054,7,1,2073.5999999996275,737054.7000000002,7082,VNB,A,5
3,test,4,0.0,2-Back,0,z,Wed Mar 12 2025 18:18:42 GMT-0500 (Central Daylight Time),741578.7999999998,071_y_f_n_a.png,O,m,1419,8,1,2441.5999999996275,739137.2000000002,7082,VNB,A,6
4,test,4,1.0,2-Back,1,m,Wed Mar 12 2025 18:18:42 GMT-0500 (Central Daylight Time),744111.5,124_o_f_h_a.png,O,m,1516,9,1,2522.5,741589.0,7082,VNB,A,7
5,test,4,0.0,2-Back,1,m,Wed Mar 12 2025 18:18:42 GMT-0500 (Central Daylight Time),746225.1000000006,165_m_m_h_a.png,O,m,1095,10,1,2104.2000000001863,744120.9000000004,7082,VNB,A,8
5,test,4,0.0,2-Back,0,m,Wed Mar 12 2025 18:18:42 GMT-0500 (Central Daylight Time),748642.7000000002,071_y_f_d_a.png,O,z,1385,11,1,2409.2000000001863,746233.5,7082,VNB,A,9
6,test,4,0.0,2-Back,1,m,Wed Mar 12 2025 18:18:42 GMT-0500 (Central Daylight Time),750441.1000000006,109_y_m_n_a.png,O,m,770,12,1,1788.7000000001863,748652.4000000004,7082,VNB,A,10
6,test,4,0.0,2-Back,0,z,Wed Mar 12 2025 18:18:42 GMT-0500 (Central Daylight Time),752673.5,039_o_m_d_a.png,O,m,1202,13,1,2223.0,750450.5,7082,VNB,A,11
7,test,4,1.0,2-Back,1,m,Wed Mar 12 2025 18:18:42 GMT-0500 (Central Daylight Time),754507.1000000006,139_m_f_h_a.png,O,m,811,14,1,1826.0,752681.1000000006,7082,VNB,A,12
8,test,4,1.0,2-Back,1,m,Wed Mar 12 2025 18:18:42 GMT-0500 (Central Daylight Time),756539.7000000002,071_y_f_h_a.png,O,m,1008,15,1,2022.5999999996275,754517.1000000006,7082,VNB,A,13
9,test,4,0.0,2-Back,1,m,Wed Mar 12 2025 18:18:42 GMT-0500 (Central Daylight Time),758671.4000000004,124_o_f_n_a.png,O,m,1115,16,1,2122.4000000003725,756549.0,7082,VNB,A,14
10,test,4,0.0,2-Back,1,m,Wed Mar 12 2025 18:18:42 GMT-0500 (Central Daylight Time),760421.4000000004,109_y_m_d_a.png,O,m,716,17,1,1741.0,758680.4000000004,7082,VNB,A,15
10,test,4,1.0,2-Back,0,m,Wed Mar 12 2025 18:18:42 GMT-0500 (Central Daylight Time),762757.6000000006,165_m_m_d_a.png,O,z,1301,18,1,2327.5,760430.1000000006,7082,VNB,A,16
0,test,5,1.0,2-Back,,,Wed Mar 12 2025 18:18:42 GMT-0500 (Central Daylight Time),762757.6000000006,071_y_f_d_a.png,O,space,1840,1,1,2327.5,760430.1000000006,7082,VNB,A,0
0,test,5,1.0,2-Back,,,Wed Mar 12 2025 18:18:42 GMT-0500 (Central Daylight Time),762757.6000000006,124_o_f_h_a.png,O,space,1840,2,1,2327.5,760430.1000000006,7082,VNB,A,0
0,test,5,1.0,2-Back,0,z,Wed Mar 12 2025 18:18:42 GMT-0500 (Central Daylight Time),771485.1000000006,039_o_m_d_a.png,O,m,750,3,1,1772.4000000003725,769712.7000000002,7082,VNB,A,1
0,test,5,1.0,2-Back,0,m,Wed Mar 12 2025 18:18:42 GMT-0500 (Central Daylight Time),774116.6000000006,139_m_f_n_a.png,O,z,1601,4,1,2622.100000000559,771494.5,7082,VNB,A,2
1,test,5,0.0,2-Back,1,m,Wed Mar 12 2025 18:18:42 GMT-0500 (Central Daylight Time),776001.1000000006,165_m_m_h_a.png,O,m,849,5,1,1875.2000000001863,774125.9000000004,7082,VNB,A,3
2,test,5,0.0,2-Back,1,z,Wed Mar 12 2025 18:18:42 GMT-0500 (Central Daylight Time),778232.2999999998,071_y_f_n_a.png,O,z,1203,6,1,2222.399999999441,776009.9000000004,7082,VNB,A,4
3,test,5,0.0,2-Back,1,m,Wed Mar 12 2025 18:18:42 GMT-0500 (Central Daylight Time),780432.9000000004,124_o_f_d_a.png,O,m,1182,7,1,2191.0,778241.9000000004,7082,VNB,A,5
3,test,5,0.0,2-Back,0,m,Wed Mar 12 2025 18:18:42 GMT-0500 (Central Daylight Time),782763.9000000004,039_o_m_h_a.png,O,z,1309,8,1,2321.100000000559,780442.7999999998,7082,VNB,A,6
3,test,5,1.0,2-Back,0,z,Wed Mar 12 2025 18:18:42 GMT-0500 (Central Daylight Time),785063.7999999998,139_m_f_d_a.png,O,m,1271,9,1,2290.0999999996275,782773.7000000002,7082,VNB,A,7
4,test,5,0.0,2-Back,1,m,Wed Mar 12 2025 18:18:42 GMT-0500 (Central Daylight Time),787063.2999999998,109_y_m_n_a.png,O,m,971,10,1,1989.7999999998137,785073.5,7082,VNB,A,8
5,test,5,0.0,2-Back,1,m,Wed Mar 12 2025 18:18:42 GMT-0500 (Central Daylight Time),788679.2999999998,165_m_m_n_a.png,O,m,589,11,1,1606.0999999996275,787073.2000000002,7082,VNB,A,9
6,test,5,0.0,2-Back,1,m,Wed Mar 12 2025 18:18:42 GMT-0500 (Central Daylight Time),790995.6000000006,071_y_f_h_a.png,O,m,1294,12,1,2305.9000000003725,788689.7000000002,7082,VNB,A,10
6,test,5,0.0,2-Back,0,m,Wed Mar 12 2025 18:18:42 GMT-0500 (Central Daylight Time),793196.0,109_y_m_d_a.png,O,z,1177,13,1,2191.0,791005.0,7082,VNB,A,11
6,test,5,1.0,2-Back,0,z,Wed Mar 12 2025 18:18:42 GMT-0500 (Central Daylight Time),794760.7999999998,139_m_f_h_a.png,O,m,536,14,1,1553.7999999998137,793207.0,7082,VNB,A,12
6,test,5,0.0,2-Back,0,m,Wed Mar 12 2025 18:18:42 GMT-0500 (Central Daylight Time),796461.0,039_o_m_n_a.png,O,z,667,15,1,1689.7999999998137,794771.2000000002,7082,VNB,A,13
7,test,5,0.0,2-Back,1,m,Wed Mar 12 2025 18:18:42 GMT-0500 (Central Daylight Time),798209.7000000002,165_m_m_d_a.png,O,m,728,16,1,1742.0,796467.7000000002,7082,VNB,A,14
8,test,5,0.0,2-Back,1,z,Wed Mar 12 2025 18:18:42 GMT-0500 (Central Daylight Time),800025.7000000002,124_o_f_n_a.png,O,z,786,17,1,1804.4000000003725,798221.2999999998,7082,VNB,A,15
9,test,5,1.0,2-Back,1,m,Wed Mar 12 2025 18:18:42 GMT-0500 (Central Daylight Time),802275.2000000002,109_y_m_h_a.png,O,m,1217,18,1,2239.5,800035.7000000002,7082,VNB,A,16
