acc_sum,block,block_c,block_cond,con_img,correct,correct_response,datetime,endtime,face,jitter,line,project,response,response_time,row_sel,session_number,start_end,starttime,subject_id,task,task_vers,trial
1,prac,1,A,haborder.png,1,m,Wed Apr 30 2025 13:06:08 GMT-0500 (Central Daylight Time),50726.799999952316,CFD-BM-034-035-HC.jpg,1700,solid,O,m,877,1,1,3366.5,47360.299999952316,7134,ATS,C,1
2,prac,1,A,haborder.png,1,m,Wed Apr 30 2025 13:06:08 GMT-0500 (Central Daylight Time),53709.0,CFD-BM-022-004-HC.jpg,1500,solid,O,m,694,3,1,6348.700000047684,47360.299999952316,7134,ATS,C,2
3,prac,1,A,haborder.png,1,z,Wed Apr 30 2025 13:06:08 GMT-0500 (Central Daylight Time),56674.700000047684,CFD-BM-043-014-A.jpg,1600,solid,O,z,571,2,1,9314.400000095367,47360.299999952316,7134,ATS,C,3
4,prac,1,A,haborder.png,1,z,Wed Apr 30 2025 13:06:08 GMT-0500 (Central Daylight Time),59424.799999952316,CFD-WF-023-013-A.jpg,1000,solid,O,z,959,12,1,12064.5,47360.299999952316,7134,ATS,C,4
5,prac,1,A,haborder.png,1,m,Wed Apr 30 2025 13:06:08 GMT-0500 (Central Daylight Time),62457.5,CFD-WF-013-009-HC.jpg,1500,solid,O,m,749,11,1,15097.200000047684,47360.299999952316,7134,ATS,C,5
6,prac,1,A,haborder.png,1,z,Wed Apr 30 2025 13:06:08 GMT-0500 (Central Daylight Time),64938.10000002384,CFD-BF-031-020-A.jpg,1000,solid,O,z,698,4,1,17577.800000071526,47360.299999952316,7134,ATS,C,6
7,prac,1,A,haborder.png,1,m,Wed Apr 30 2025 13:06:08 GMT-0500 (Central Daylight Time),67853.20000004768,CFD-WM-028-005-HC.jpg,1400,solid,O,m,718,7,1,20492.900000095367,47360.299999952316,7134,ATS,C,7
8,prac,1,A,haborder.png,1,m,Wed Apr 30 2025 13:06:08 GMT-0500 (Central Daylight Time),71536.79999995232,CFD-BF-019-004-HC.jpg,2000,solid,O,m,890,5,1,24176.5,47360.299999952316,7134,ATS,C,8
9,prac,1,A,haborder.png,1,z,Wed Apr 30 2025 13:06:08 GMT-0500 (Central Daylight Time),74736.10000002384,CFD-WF-037-016-A.jpg,1600,solid,O,z,823,10,1,27375.800000071526,47360.299999952316,7134,ATS,C,9
10,prac,1,A,haborder.png,1,z,Wed Apr 30 2025 13:06:08 GMT-0500 (Central Daylight Time),77418.29999995232,CFD-BF-002-018-A.jpg,1200,solid,O,z,707,6,1,30058.0,47360.299999952316,7134,ATS,C,10
11,prac,1,A,haborder.png,1,z,Wed Apr 30 2025 13:06:08 GMT-0500 (Central Daylight Time),81050.60000002384,CFD-WM-036-018-A.jpg,1900,solid,O,z,934,8,1,33690.300000071526,47360.299999952316,7134,ATS,C,11
12,prac,1,A,haborder.png,1,m,Wed Apr 30 2025 13:06:08 GMT-0500 (Central Daylight Time),84316.10000002384,CFD-WM-035-036-HC.jpg,1700,solid,O,m,770,9,1,36955.800000071526,47360.299999952316,7134,ATS,C,12
0,prac,1,B,mfborder.png,0,m,Wed Apr 30 2025 13:06:08 GMT-0500 (Central Daylight Time),96696.10000002384,CFD-WM-034-040-A.jpg,1200,6,O,None,1516,dash,1,3501.399999976158,93194.70000004768,7134,ATS,C,1
1,prac,1,B,mfborder.png,1,z,Wed Apr 30 2025 13:06:08 GMT-0500 (Central Daylight Time),99827.89999997616,CFD-WF-037-016-A.jpg,1500,11,O,z,852,dash,1,6633.199999928474,93194.70000004768,7134,ATS,C,2
2,prac,1,B,mfborder.png,1,m,Wed Apr 30 2025 13:06:08 GMT-0500 (Central Daylight Time),103577.20000004768,CFD-BM-043-014-A.jpg,2000,5,O,m,973,dash,1,10382.5,93194.70000004768,7134,ATS,C,3
3,prac,1,B,mfborder.png,1,z,Wed Apr 30 2025 13:06:08 GMT-0500 (Central Daylight Time),106593.39999997616,CFD-BF-042-031-HC.jpg,1500,3,O,z,741,dash,1,13398.699999928474,93194.70000004768,7134,ATS,C,4
4,prac,1,B,mfborder.png,1,m,Wed Apr 30 2025 13:06:08 GMT-0500 (Central Daylight Time),109674.79999995232,CFD-BM-022-004-HC.jpg,1700,1,O,m,588,dash,1,16480.099999904633,93194.70000004768,7134,ATS,C,5
5,prac,1,B,mfborder.png,1,m,Wed Apr 30 2025 13:06:08 GMT-0500 (Central Daylight Time),112756.79999995232,CFD-WM-035-036-HC.jpg,1600,10,O,m,686,dash,1,19562.099999904633,93194.70000004768,7134,ATS,C,6
6,prac,1,B,mfborder.png,1,z,Wed Apr 30 2025 13:06:08 GMT-0500 (Central Daylight Time),115056.79999995232,CFD-BF-031-020-A.jpg,1000,4,O,z,500,dash,1,21862.099999904633,93194.70000004768,7134,ATS,C,7
7,prac,1,B,mfborder.png,1,m,Wed Apr 30 2025 13:06:08 GMT-0500 (Central Daylight Time),118085.60000002384,CFD-BM-021-026-A.jpg,1600,2,O,m,639,dash,1,24890.899999976158,93194.70000004768,7134,ATS,C,8
8,prac,1,B,mfborder.png,1,z,Wed Apr 30 2025 13:06:08 GMT-0500 (Central Daylight Time),120453.79999995232,CFD-WF-013-009-HC.jpg,1000,12,O,z,585,dash,1,27259.099999904633,93194.70000004768,7134,ATS,C,9
9,prac,1,B,mfborder.png,1,z,Wed Apr 30 2025 13:06:08 GMT-0500 (Central Daylight Time),123818.89999997616,CFD-WF-001-010-HC.jpg,1900,8,O,z,670,dash,1,30624.199999928474,93194.70000004768,7134,ATS,C,10
10,prac,1,B,mfborder.png,1,m,Wed Apr 30 2025 13:06:08 GMT-0500 (Central Daylight Time),127086.10000002384,CFD-WM-036-018-A.jpg,1700,9,O,m,759,dash,1,33891.39999997616,93194.70000004768,7134,ATS,C,11
11,prac,1,B,mfborder.png,1,z,Wed Apr 30 2025 13:06:08 GMT-0500 (Central Daylight Time),130116.89999997616,CFD-BF-019-004-HC.jpg,1400,7,O,z,844,dash,1,36922.199999928474,93194.70000004768,7134,ATS,C,12
1,test,1,A,haborder.png,1,z,Wed Apr 30 2025 13:06:08 GMT-0500 (Central Daylight Time),141748.10000002384,CFD-BM-043-014-A.jpg,1600,solid,O,z,783,2,1,2414.7000000476837,139333.39999997616,7134,ATS,C,1
2,test,1,A,haborder.png,1,z,Wed Apr 30 2025 13:06:08 GMT-0500 (Central Daylight Time),145078.39999997616,CFD-WM-036-018-A.jpg,1900,solid,O,z,1393,8,1,5745.0,139333.39999997616,7134,ATS,C,2
3,test,1,A,haborder.png,1,m,Wed Apr 30 2025 13:06:08 GMT-0500 (Central Daylight Time),147412.39999997616,CFD-BM-034-035-HC.jpg,1700,solid,O,m,615,1,1,8079.0,139333.39999997616,7134,ATS,C,3
4,test,1,A,haborder.png,1,m,Wed Apr 30 2025 13:06:08 GMT-0500 (Central Daylight Time),150260.89999997616,CFD-WM-028-005-HC.jpg,1400,solid,O,m,1430,7,1,10927.5,139333.39999997616,7134,ATS,C,4
5,test,1,A,haborder.png,1,z,Wed Apr 30 2025 13:06:08 GMT-0500 (Central Daylight Time),151977.79999995232,CFD-WF-023-013-A.jpg,1000,solid,O,z,676,12,1,12644.399999976158,139333.39999997616,7134,ATS,C,5
6,test,1,A,haborder.png,1,m,Wed Apr 30 2025 13:06:08 GMT-0500 (Central Daylight Time),154325.60000002384,CFD-BM-034-035-HC.jpg,1700,solid,O,m,627,1,1,14992.200000047684,139333.39999997616,7134,ATS,C,6
7,test,1,A,haborder.png,1,m,Wed Apr 30 2025 13:06:08 GMT-0500 (Central Daylight Time),156708.39999997616,CFD-WF-013-009-HC.jpg,1500,solid,O,m,852,11,1,17375.0,139333.39999997616,7134,ATS,C,7
8,test,1,A,haborder.png,1,m,Wed Apr 30 2025 13:06:08 GMT-0500 (Central Daylight Time),158973.70000004768,CFD-BM-022-004-HC.jpg,1500,solid,O,m,734,3,1,19640.300000071526,139333.39999997616,7134,ATS,C,8
9,test,1,A,haborder.png,1,z,Wed Apr 30 2025 13:06:08 GMT-0500 (Central Daylight Time),161324.20000004768,CFD-BM-043-014-A.jpg,1600,solid,O,z,718,2,1,21990.800000071526,139333.39999997616,7134,ATS,C,9
10,test,1,A,haborder.png,1,z,Wed Apr 30 2025 13:06:08 GMT-0500 (Central Daylight Time),163940.39999997616,CFD-WM-036-018-A.jpg,1900,solid,O,z,698,8,1,24607.0,139333.39999997616,7134,ATS,C,10
11,test,1,A,haborder.png,1,m,Wed Apr 30 2025 13:06:08 GMT-0500 (Central Daylight Time),166524.60000002384,CFD-WF-013-009-HC.jpg,1500,solid,O,m,1049,11,1,27191.200000047684,139333.39999997616,7134,ATS,C,11
12,test,1,A,haborder.png,1,z,Wed Apr 30 2025 13:06:08 GMT-0500 (Central Daylight Time),169060.60000002384,CFD-WF-037-016-A.jpg,1600,solid,O,z,901,10,1,29727.200000047684,139333.39999997616,7134,ATS,C,12
12,test,1,A,haborder.png,0,z,Wed Apr 30 2025 13:06:08 GMT-0500 (Central Daylight Time),172188.5,CFD-WF-037-016-A.jpg,1600,solid,O,None,1516,10,1,32855.10000002384,139333.39999997616,7134,ATS,C,13
12,test,1,A,haborder.png,0,z,Wed Apr 30 2025 13:06:08 GMT-0500 (Central Daylight Time),174721.79999995232,CFD-WF-023-013-A.jpg,1000,solid,O,None,1518,12,1,35388.39999997616,139333.39999997616,7134,ATS,C,14
13,test,1,A,haborder.png,1,z,Wed Apr 30 2025 13:06:08 GMT-0500 (Central Daylight Time),176485.79999995232,CFD-BF-031-020-A.jpg,1000,solid,O,z,729,4,1,37152.39999997616,139333.39999997616,7134,ATS,C,15
14,test,1,A,haborder.png,1,z,Wed Apr 30 2025 13:06:08 GMT-0500 (Central Daylight Time),178135.0,CFD-BF-031-020-A.jpg,1000,solid,O,z,616,4,1,38801.60000002384,139333.39999997616,7134,ATS,C,16
15,test,1,A,haborder.png,1,z,Wed Apr 30 2025 13:06:08 GMT-0500 (Central Daylight Time),180400.29999995232,CFD-BF-002-018-A.jpg,1200,solid,O,z,1038,6,1,41066.89999997616,139333.39999997616,7134,ATS,C,17
16,test,1,A,haborder.png,1,m,Wed Apr 30 2025 13:06:08 GMT-0500 (Central Daylight Time),182602.0,CFD-WM-028-005-HC.jpg,1400,solid,O,m,767,7,1,43268.60000002384,139333.39999997616,7134,ATS,C,18
17,test,1,A,haborder.png,1,m,Wed Apr 30 2025 13:06:08 GMT-0500 (Central Daylight Time),185616.10000002384,CFD-BF-019-004-HC.jpg,2000,solid,O,m,993,5,1,46282.700000047684,139333.39999997616,7134,ATS,C,19
18,test,1,A,haborder.png,1,m,Wed Apr 30 2025 13:06:08 GMT-0500 (Central Daylight Time),188115.29999995232,CFD-WM-035-036-HC.jpg,1700,solid,O,m,765,9,1,48781.89999997616,139333.39999997616,7134,ATS,C,20
19,test,1,A,haborder.png,1,m,Wed Apr 30 2025 13:06:08 GMT-0500 (Central Daylight Time),190581.60000002384,CFD-WM-035-036-HC.jpg,1700,solid,O,m,734,9,1,51248.200000047684,139333.39999997616,7134,ATS,C,21
20,test,1,A,haborder.png,1,m,Wed Apr 30 2025 13:06:08 GMT-0500 (Central Daylight Time),193396.89999997616,CFD-BF-019-004-HC.jpg,2000,solid,O,m,787,5,1,54063.5,139333.39999997616,7134,ATS,C,22
21,test,1,A,haborder.png,1,z,Wed Apr 30 2025 13:06:08 GMT-0500 (Central Daylight Time),195498.10000002384,CFD-BF-002-018-A.jpg,1200,solid,O,z,874,6,1,56164.700000047684,139333.39999997616,7134,ATS,C,23
22,test,1,A,haborder.png,1,m,Wed Apr 30 2025 13:06:08 GMT-0500 (Central Daylight Time),197662.0,CFD-BM-022-004-HC.jpg,1500,solid,O,m,636,3,1,58328.60000002384,139333.39999997616,7134,ATS,C,24
1,test,1,B,mfborder.png,1,z,Wed Apr 30 2025 13:06:08 GMT-0500 (Central Daylight Time),207175.29999995232,CFD-BF-019-004-HC.jpg,1400,dash,O,z,650,7,1,2082.5999999046326,205092.70000004768,7134,ATS,C,1
2,test,1,B,mfborder.png,1,m,Wed Apr 30 2025 13:06:08 GMT-0500 (Central Daylight Time),209540.70000004768,CFD-WM-035-036-HC.jpg,1600,dash,O,m,737,10,1,4448.0,205092.70000004768,7134,ATS,C,2
3,test,1,B,mfborder.png,1,m,Wed Apr 30 2025 13:06:08 GMT-0500 (Central Daylight Time),211825.0,CFD-WM-034-040-A.jpg,1200,dash,O,m,1049,6,1,6732.299999952316,205092.70000004768,7134,ATS,C,3
4,test,1,B,mfborder.png,1,z,Wed Apr 30 2025 13:06:08 GMT-0500 (Central Daylight Time),214291.79999995232,CFD-WF-037-016-A.jpg,1500,dash,O,z,940,11,1,9199.099999904633,205092.70000004768,7134,ATS,C,4
5,test,1,B,mfborder.png,1,m,Wed Apr 30 2025 13:06:08 GMT-0500 (Central Daylight Time),216172.29999995232,CFD-WM-034-040-A.jpg,1200,dash,O,m,662,6,1,11079.599999904633,205092.70000004768,7134,ATS,C,5
6,test,1,B,mfborder.png,1,m,Wed Apr 30 2025 13:06:08 GMT-0500 (Central Daylight Time),218872.5,CFD-WM-036-018-A.jpg,1700,dash,O,m,966,9,1,13779.799999952316,205092.70000004768,7134,ATS,C,6
7,test,1,B,mfborder.png,1,z,Wed Apr 30 2025 13:06:08 GMT-0500 (Central Daylight Time),220637.60000002384,CFD-BF-031-020-A.jpg,1000,dash,O,z,743,4,1,15544.899999976158,205092.70000004768,7134,ATS,C,7
8,test,1,B,mfborder.png,1,m,Wed Apr 30 2025 13:06:08 GMT-0500 (Central Daylight Time),223237.10000002384,CFD-BM-022-004-HC.jpg,1700,dash,O,m,879,1,1,18144.399999976158,205092.70000004768,7134,ATS,C,8
9,test,1,B,mfborder.png,1,z,Wed Apr 30 2025 13:06:08 GMT-0500 (Central Daylight Time),225354.0,CFD-BF-019-004-HC.jpg,1400,dash,O,z,683,7,1,20261.299999952316,205092.70000004768,7134,ATS,C,9
10,test,1,B,mfborder.png,1,z,Wed Apr 30 2025 13:06:08 GMT-0500 (Central Daylight Time),227535.5,CFD-WF-037-016-A.jpg,1500,dash,O,z,650,11,1,22442.799999952316,205092.70000004768,7134,ATS,C,10
11,test,1,B,mfborder.png,1,z,Wed Apr 30 2025 13:06:08 GMT-0500 (Central Daylight Time),230334.20000004768,CFD-WF-001-010-HC.jpg,1900,dash,O,z,867,8,1,25241.5,205092.70000004768,7134,ATS,C,11
12,test,1,B,mfborder.png,1,z,Wed Apr 30 2025 13:06:08 GMT-0500 (Central Daylight Time),232934.5,CFD-WF-001-010-HC.jpg,1900,dash,O,z,663,8,1,27841.799999952316,205092.70000004768,7134,ATS,C,12
13,test,1,B,mfborder.png,1,m,Wed Apr 30 2025 13:06:08 GMT-0500 (Central Daylight Time),235183.20000004768,CFD-WM-035-036-HC.jpg,1600,dash,O,m,626,10,1,30090.5,205092.70000004768,7134,ATS,C,13
14,test,1,B,mfborder.png,1,z,Wed Apr 30 2025 13:06:08 GMT-0500 (Central Daylight Time),236815.89999997616,CFD-BF-031-020-A.jpg,1000,dash,O,z,600,4,1,31723.199999928474,205092.70000004768,7134,ATS,C,14
15,test,1,B,mfborder.png,1,m,Wed Apr 30 2025 13:06:08 GMT-0500 (Central Daylight Time),239467.89999997616,CFD-BM-043-014-A.jpg,2000,dash,O,m,634,5,1,34375.199999928474,205092.70000004768,7134,ATS,C,15
16,test,1,B,mfborder.png,1,m,Wed Apr 30 2025 13:06:08 GMT-0500 (Central Daylight Time),241829.5,CFD-BM-021-026-A.jpg,1600,dash,O,m,734,2,1,36736.799999952316,205092.70000004768,7134,ATS,C,16
17,test,1,B,mfborder.png,1,z,Wed Apr 30 2025 13:06:08 GMT-0500 (Central Daylight Time),244379.10000002384,CFD-BF-042-031-HC.jpg,1500,dash,O,z,1029,3,1,39286.39999997616,205092.70000004768,7134,ATS,C,17
18,test,1,B,mfborder.png,1,m,Wed Apr 30 2025 13:06:08 GMT-0500 (Central Daylight Time),247096.10000002384,CFD-BM-021-026-A.jpg,1600,dash,O,m,1091,2,1,42003.39999997616,205092.70000004768,7134,ATS,C,18
19,test,1,B,mfborder.png,1,z,Wed Apr 30 2025 13:06:08 GMT-0500 (Central Daylight Time),249179.20000004768,CFD-BF-042-031-HC.jpg,1500,dash,O,z,557,3,1,44086.5,205092.70000004768,7134,ATS,C,19
20,test,1,B,mfborder.png,1,m,Wed Apr 30 2025 13:06:08 GMT-0500 (Central Daylight Time),251545.10000002384,CFD-WM-036-018-A.jpg,1700,dash,O,m,635,9,1,46452.39999997616,205092.70000004768,7134,ATS,C,20
21,test,1,B,mfborder.png,1,m,Wed Apr 30 2025 13:06:08 GMT-0500 (Central Daylight Time),254328.29999995232,CFD-BM-043-014-A.jpg,2000,dash,O,m,759,5,1,49235.59999990463,205092.70000004768,7134,ATS,C,21
22,test,1,B,mfborder.png,1,m,Wed Apr 30 2025 13:06:08 GMT-0500 (Central Daylight Time),256676.60000002384,CFD-BM-022-004-HC.jpg,1700,dash,O,m,631,1,1,51583.89999997616,205092.70000004768,7134,ATS,C,22
23,test,1,B,mfborder.png,1,z,Wed Apr 30 2025 13:06:08 GMT-0500 (Central Daylight Time),258459.5,CFD-WF-013-009-HC.jpg,1000,dash,O,z,764,12,1,53366.799999952316,205092.70000004768,7134,ATS,C,23
24,test,1,B,mfborder.png,1,z,Wed Apr 30 2025 13:06:08 GMT-0500 (Central Daylight Time),260092.79999995232,CFD-WF-013-009-HC.jpg,1000,dash,O,z,618,12,1,55000.09999990463,205092.70000004768,7134,ATS,C,24
0,prac,1,C,haborder.png,0,m,Wed Apr 30 2025 13:06:08 GMT-0500 (Central Daylight Time),286666.60000002384,CFD-WM-028-005-HC.jpg,1400,solid,O,None,1514,12,1,3697.2000000476837,282969.39999997616,7134,ATS,C,1
1,prac,1,C,haborder.png,1,z,Wed Apr 30 2025 13:06:08 GMT-0500 (Central Daylight Time),290367.5,CFD-BF-031-020-A.jpg,1900,dash,O,z,1008,12,1,7398.100000023842,282969.39999997616,7134,ATS,C,2
1,prac,1,C,mfborder.png,0,m,Wed Apr 30 2025 13:06:08 GMT-0500 (Central Daylight Time),293916.2999999523,CFD-WM-036-018-A.jpg,1700,solid,O,z,1069,12,1,10946.899999976158,282969.39999997616,7134,ATS,C,3
2,prac,1,C,mfborder.png,1,m,Wed Apr 30 2025 13:06:08 GMT-0500 (Central Daylight Time),297647.7999999523,CFD-BM-034-035-HC.jpg,2000,solid,O,m,949,12,1,14678.399999976158,282969.39999997616,7134,ATS,C,4
3,prac,1,C,mfborder.png,1,z,Wed Apr 30 2025 13:06:08 GMT-0500 (Central Daylight Time),300531.10000002384,CFD-BF-019-004-HC.jpg,1000,dash,O,z,1101,12,1,17561.700000047684,282969.39999997616,7134,ATS,C,5
4,prac,1,C,haborder.png,1,m,Wed Apr 30 2025 13:06:08 GMT-0500 (Central Daylight Time),303944.7000000477,CFD-BM-022-004-HC.jpg,1500,solid,O,m,1120,12,1,20975.300000071526,282969.39999997616,7134,ATS,C,6
5,prac,1,C,haborder.png,1,z,Wed Apr 30 2025 13:06:08 GMT-0500 (Central Daylight Time),307478.10000002384,CFD-BF-002-018-A.jpg,1700,solid,O,z,1040,12,1,24508.700000047684,282969.39999997616,7134,ATS,C,7
6,prac,1,C,mfborder.png,1,z,Wed Apr 30 2025 13:06:08 GMT-0500 (Central Daylight Time),310761.2000000477,CFD-WF-023-013-A.jpg,1500,solid,O,z,985,12,1,27791.800000071526,282969.39999997616,7134,ATS,C,8
6,prac,1,C,mfborder.png,0,m,Wed Apr 30 2025 13:06:08 GMT-0500 (Central Daylight Time),313791.7000000477,CFD-BM-043-014-A.jpg,1200,dash,O,z,1017,12,1,30822.300000071526,282969.39999997616,7134,ATS,C,9
7,prac,1,C,haborder.png,1,z,Wed Apr 30 2025 13:06:08 GMT-0500 (Central Daylight Time),317624.7000000477,CFD-WF-037-016-A.jpg,1600,dash,O,z,1440,12,1,34655.300000071526,282969.39999997616,7134,ATS,C,10
7,prac,1,C,haborder.png,0,m,Wed Apr 30 2025 13:06:08 GMT-0500 (Central Daylight Time),320923.5,CFD-WM-028-005-HC.jpg,1000,dash,O,None,1516,12,1,37954.10000002384,282969.39999997616,7134,ATS,C,11
8,prac,1,C,mfborder.png,1,z,Wed Apr 30 2025 13:06:08 GMT-0500 (Central Daylight Time),324238.5,CFD-WF-013-009-HC.jpg,1600,dash,O,z,915,12,1,41269.10000002384,282969.39999997616,7134,ATS,C,12
1,test,1,C,mfborder.png,1,m,Wed Apr 30 2025 13:06:08 GMT-0500 (Central Daylight Time),340049.7000000477,CFD-WM-034-040-A.jpg,2000,dash,O,m,801,5,1,2832.0,337217.7000000477,7134,ATS,C,1
2,test,1,C,mfborder.png,1,m,Wed Apr 30 2025 13:06:08 GMT-0500 (Central Daylight Time),342399.60000002384,CFD-BM-022-004-HC.jpg,1200,dash,O,m,1117,6,1,5181.899999976158,337217.7000000477,7134,ATS,C,2
3,test,1,C,haborder.png,1,z,Wed Apr 30 2025 13:06:08 GMT-0500 (Central Daylight Time),345414.5,CFD-BM-043-014-A.jpg,1900,solid,O,z,1091,8,1,8196.799999952316,337217.7000000477,7134,ATS,C,3
4,test,1,C,haborder.png,1,z,Wed Apr 30 2025 13:06:08 GMT-0500 (Central Daylight Time),348030.60000002384,CFD-BM-021-026-A.jpg,1700,solid,O,z,893,9,1,10812.899999976158,337217.7000000477,7134,ATS,C,4
5,test,1,C,mfborder.png,1,z,Wed Apr 30 2025 13:06:08 GMT-0500 (Central Daylight Time),350595.7999999523,CFD-BF-031-020-A.jpg,1600,dash,O,z,947,2,1,13378.099999904633,337217.7000000477,7134,ATS,C,5
6,test,1,C,mfborder.png,1,z,Wed Apr 30 2025 13:06:08 GMT-0500 (Central Daylight Time),353411.60000002384,CFD-BF-031-020-A.jpg,1600,dash,O,z,1189,2,1,16193.899999976158,337217.7000000477,7134,ATS,C,6
7,test,1,C,haborder.png,1,m,Wed Apr 30 2025 13:06:08 GMT-0500 (Central Daylight Time),356279.10000002384,CFD-BF-019-004-HC.jpg,1600,solid,O,m,1236,10,1,19061.399999976158,337217.7000000477,7134,ATS,C,7
8,test,1,C,haborder.png,1,m,Wed Apr 30 2025 13:06:08 GMT-0500 (Central Daylight Time),358212.60000002384,CFD-WF-013-009-HC.jpg,1000,solid,O,m,909,12,1,20994.899999976158,337217.7000000477,7134,ATS,C,8
9,test,1,C,haborder.png,1,z,Wed Apr 30 2025 13:06:08 GMT-0500 (Central Daylight Time),361027.89999997616,CFD-BM-021-026-A.jpg,1700,solid,O,z,1085,9,1,23810.199999928474,337217.7000000477,7134,ATS,C,9
10,test,1,C,mfborder.png,1,z,Wed Apr 30 2025 13:06:08 GMT-0500 (Central Daylight Time),363476.39999997616,CFD-WF-037-016-A.jpg,1500,dash,O,z,930,3,1,26258.699999928474,337217.7000000477,7134,ATS,C,10
11,test,1,C,mfborder.png,1,z,Wed Apr 30 2025 13:06:08 GMT-0500 (Central Daylight Time),366293.10000002384,CFD-BF-042-031-HC.jpg,1700,dash,O,z,1098,1,1,29075.399999976158,337217.7000000477,7134,ATS,C,11
12,test,1,C,haborder.png,1,m,Wed Apr 30 2025 13:06:08 GMT-0500 (Central Daylight Time),369158.7000000477,CFD-WF-001-010-HC.jpg,1500,solid,O,m,1343,11,1,31941.0,337217.7000000477,7134,ATS,C,12
13,test,1,C,haborder.png,1,z,Wed Apr 30 2025 13:06:08 GMT-0500 (Central Daylight Time),371490.7000000477,CFD-WM-036-018-A.jpg,1400,solid,O,z,900,7,1,34273.0,337217.7000000477,7134,ATS,C,13
14,test,1,C,mfborder.png,1,m,Wed Apr 30 2025 13:06:08 GMT-0500 (Central Daylight Time),373756.89999997616,CFD-BM-022-004-HC.jpg,1200,dash,O,m,1050,6,1,36539.199999928474,337217.7000000477,7134,ATS,C,14
15,test,1,C,mfborder.png,1,z,Wed Apr 30 2025 13:06:08 GMT-0500 (Central Daylight Time),376323.2000000477,CFD-BF-042-031-HC.jpg,1700,dash,O,z,833,1,1,39105.5,337217.7000000477,7134,ATS,C,15
15,test,1,C,haborder.png,0,z,Wed Apr 30 2025 13:06:08 GMT-0500 (Central Daylight Time),379756.5,CFD-BM-043-014-A.jpg,1900,solid,O,None,1515,8,1,42538.799999952316,337217.7000000477,7134,ATS,C,16
15,test,1,C,haborder.png,0,m,Wed Apr 30 2025 13:06:08 GMT-0500 (Central Daylight Time),382405.0,CFD-BF-019-004-HC.jpg,1600,solid,O,z,1022,10,1,45187.299999952316,337217.7000000477,7134,ATS,C,17
15,test,1,C,mfborder.png,0,m,Wed Apr 30 2025 13:06:08 GMT-0500 (Central Daylight Time),384736.7999999523,CFD-WM-035-036-HC.jpg,1000,dash,O,z,1309,4,1,47519.09999990463,337217.7000000477,7134,ATS,C,18
16,test,1,C,mfborder.png,1,m,Wed Apr 30 2025 13:06:08 GMT-0500 (Central Daylight Time),387601.89999997616,CFD-WM-034-040-A.jpg,2000,dash,O,m,841,5,1,50384.199999928474,337217.7000000477,7134,ATS,C,19
17,test,1,C,mfborder.png,1,m,Wed Apr 30 2025 13:06:08 GMT-0500 (Central Daylight Time),389385.39999997616,CFD-WM-035-036-HC.jpg,1000,dash,O,m,742,4,1,52167.699999928474,337217.7000000477,7134,ATS,C,20
18,test,1,C,haborder.png,1,m,Wed Apr 30 2025 13:06:08 GMT-0500 (Central Daylight Time),391883.7000000477,CFD-WF-001-010-HC.jpg,1500,solid,O,m,969,11,1,54666.0,337217.7000000477,7134,ATS,C,21
19,test,1,C,haborder.png,1,z,Wed Apr 30 2025 13:06:08 GMT-0500 (Central Daylight Time),394200.10000002384,CFD-WM-036-018-A.jpg,1400,solid,O,z,893,7,1,56982.39999997616,337217.7000000477,7134,ATS,C,22
20,test,1,C,haborder.png,1,m,Wed Apr 30 2025 13:06:08 GMT-0500 (Central Daylight Time),396198.5,CFD-WF-013-009-HC.jpg,1000,solid,O,m,977,12,1,58980.799999952316,337217.7000000477,7134,ATS,C,23
21,test,1,C,mfborder.png,1,z,Wed Apr 30 2025 13:06:08 GMT-0500 (Central Daylight Time),398748.10000002384,CFD-WF-037-016-A.jpg,1500,dash,O,z,1012,3,1,61530.39999997616,337217.7000000477,7134,ATS,C,24
1,test,2,C,haborder.png,1,m,Wed Apr 30 2025 13:06:08 GMT-0500 (Central Daylight Time),403480.0,CFD-BM-022-004-HC.jpg,1600,solid,O,m,1073,10,1,2717.7999999523163,400762.2000000477,7134,ATS,C,1
2,test,2,C,haborder.png,1,z,Wed Apr 30 2025 13:06:08 GMT-0500 (Central Daylight Time),406129.5,CFD-WF-037-016-A.jpg,1700,solid,O,z,923,9,1,5367.299999952316,400762.2000000477,7134,ATS,C,2
2,test,2,C,mfborder.png,0,m,Wed Apr 30 2025 13:06:08 GMT-0500 (Central Daylight Time),408596.60000002384,CFD-WM-036-018-A.jpg,1200,dash,O,z,1250,6,1,7834.399999976158,400762.2000000477,7134,ATS,C,3
3,test,2,C,haborder.png,1,m,Wed Apr 30 2025 13:06:08 GMT-0500 (Central Daylight Time),410660.7000000477,CFD-WM-028-005-HC.jpg,1000,solid,O,m,1037,12,1,9898.5,400762.2000000477,7134,ATS,C,4
3,test,2,C,mfborder.png,0,z,Wed Apr 30 2025 13:06:08 GMT-0500 (Central Daylight Time),413694.2000000477,CFD-BF-019-004-HC.jpg,1500,dash,O,None,1515,3,1,12932.0,400762.2000000477,7134,ATS,C,5
4,test,2,C,mfborder.png,1,m,Wed Apr 30 2025 13:06:08 GMT-0500 (Central Daylight Time),415559.5,CFD-BM-034-035-HC.jpg,1000,dash,O,m,830,4,1,14797.299999952316,400762.2000000477,7134,ATS,C,6
5,test,2,C,mfborder.png,1,m,Wed Apr 30 2025 13:06:08 GMT-0500 (Central Daylight Time),418042.2000000477,CFD-WM-036-018-A.jpg,1200,dash,O,m,1257,6,1,17280.0,400762.2000000477,7134,ATS,C,7
5,test,2,C,haborder.png,0,m,Wed Apr 30 2025 13:06:08 GMT-0500 (Central Daylight Time),421075.7999999523,CFD-WM-028-005-HC.jpg,1500,solid,O,None,1516,11,1,20313.599999904633,400762.2000000477,7134,ATS,C,8
6,test,2,C,haborder.png,1,z,Wed Apr 30 2025 13:06:08 GMT-0500 (Central Daylight Time),423390.89999997616,CFD-BF-031-020-A.jpg,1400,solid,O,z,869,7,1,22628.699999928474,400762.2000000477,7134,ATS,C,9
7,test,2,C,haborder.png,1,m,Wed Apr 30 2025 13:06:08 GMT-0500 (Central Daylight Time),425890.7000000477,CFD-BM-022-004-HC.jpg,1600,solid,O,m,867,10,1,25128.5,400762.2000000477,7134,ATS,C,10
8,test,2,C,haborder.png,1,z,Wed Apr 30 2025 13:06:08 GMT-0500 (Central Daylight Time),428587.7999999523,CFD-WF-037-016-A.jpg,1700,solid,O,z,970,9,1,27825.599999904633,400762.2000000477,7134,ATS,C,11
9,test,2,C,haborder.png,1,z,Wed Apr 30 2025 13:06:08 GMT-0500 (Central Daylight Time),430738.0,CFD-BF-031-020-A.jpg,1400,solid,O,z,717,7,1,29975.799999952316,400762.2000000477,7134,ATS,C,12
9,test,2,C,mfborder.png,0,m,Wed Apr 30 2025 13:06:08 GMT-0500 (Central Daylight Time),433903.7999999523,CFD-BM-043-014-A.jpg,2000,dash,O,z,1134,5,1,33141.59999990463,400762.2000000477,7134,ATS,C,13
10,test,2,C,haborder.png,1,z,Wed Apr 30 2025 13:06:08 GMT-0500 (Central Daylight Time),436754.0,CFD-BF-002-018-A.jpg,1900,solid,O,z,925,8,1,35991.799999952316,400762.2000000477,7134,ATS,C,14
10,test,2,C,mfborder.png,0,z,Wed Apr 30 2025 13:06:08 GMT-0500 (Central Daylight Time),439534.60000002384,CFD-WF-013-009-HC.jpg,1700,dash,O,m,1056,1,1,38772.39999997616,400762.2000000477,7134,ATS,C,15
11,test,2,C,mfborder.png,1,m,Wed Apr 30 2025 13:06:08 GMT-0500 (Central Daylight Time),441384.60000002384,CFD-BM-034-035-HC.jpg,1000,dash,O,m,816,4,1,40622.39999997616,400762.2000000477,7134,ATS,C,16
12,test,2,C,haborder.png,1,m,Wed Apr 30 2025 13:06:08 GMT-0500 (Central Daylight Time),443783.89999997616,CFD-WM-028-005-HC.jpg,1500,solid,O,m,876,11,1,43021.699999928474,400762.2000000477,7134,ATS,C,17
13,test,2,C,haborder.png,1,z,Wed Apr 30 2025 13:06:08 GMT-0500 (Central Daylight Time),446599.2999999523,CFD-BF-002-018-A.jpg,1900,solid,O,z,884,8,1,45837.09999990463,400762.2000000477,7134,ATS,C,18
14,test,2,C,mfborder.png,1,z,Wed Apr 30 2025 13:06:08 GMT-0500 (Central Daylight Time),449681.7999999523,CFD-WF-013-009-HC.jpg,1700,dash,O,z,1367,1,1,48919.59999990463,400762.2000000477,7134,ATS,C,19
15,test,2,C,mfborder.png,1,z,Wed Apr 30 2025 13:06:08 GMT-0500 (Central Daylight Time),452181.0,CFD-WF-023-013-A.jpg,1600,dash,O,z,869,2,1,51418.799999952316,400762.2000000477,7134,ATS,C,20
16,test,2,C,mfborder.png,1,m,Wed Apr 30 2025 13:06:08 GMT-0500 (Central Daylight Time),455049.0,CFD-BM-043-014-A.jpg,2000,dash,O,m,843,5,1,54286.799999952316,400762.2000000477,7134,ATS,C,21
17,test,2,C,mfborder.png,1,z,Wed Apr 30 2025 13:06:08 GMT-0500 (Central Daylight Time),457646.7000000477,CFD-WF-023-013-A.jpg,1600,dash,O,z,968,2,1,56884.5,400762.2000000477,7134,ATS,C,22
17,test,2,C,haborder.png,0,m,Wed Apr 30 2025 13:06:08 GMT-0500 (Central Daylight Time),460180.10000002384,CFD-WM-028-005-HC.jpg,1000,solid,O,None,1510,12,1,59417.89999997616,400762.2000000477,7134,ATS,C,23
17,test,2,C,mfborder.png,0,z,Wed Apr 30 2025 13:06:08 GMT-0500 (Central Daylight Time),463212.10000002384,CFD-BF-019-004-HC.jpg,1500,dash,O,None,1513,3,1,62449.89999997616,400762.2000000477,7134,ATS,C,24
0,test,3,C,haborder.png,0,m,Wed Apr 30 2025 13:06:08 GMT-0500 (Central Daylight Time),484621.60000002384,CFD-BF-019-004-HC.jpg,1600,solid,O,None,1514,10,1,3132.7000000476837,481488.89999997616,7134,ATS,C,1
0,test,3,C,mfborder.png,0,m,Wed Apr 30 2025 13:06:08 GMT-0500 (Central Daylight Time),486886.39999997616,CFD-WM-035-036-HC.jpg,1000,dash,O,z,1237,4,1,5397.5,481488.89999997616,7134,ATS,C,2
0,test,3,C,haborder.png,0,m,Wed Apr 30 2025 13:06:08 GMT-0500 (Central Daylight Time),489420.89999997616,CFD-WF-013-009-HC.jpg,1000,solid,O,None,1515,12,1,7932.0,481488.89999997616,7134,ATS,C,3
1,test,3,C,mfborder.png,1,m,Wed Apr 30 2025 13:06:08 GMT-0500 (Central Daylight Time),491669.2000000477,CFD-BM-022-004-HC.jpg,1200,dash,O,m,1030,6,1,10180.300000071526,481488.89999997616,7134,ATS,C,4
2,test,3,C,haborder.png,1,z,Wed Apr 30 2025 13:06:08 GMT-0500 (Central Daylight Time),494500.39999997616,CFD-BM-043-014-A.jpg,1900,solid,O,z,912,8,1,13011.5,481488.89999997616,7134,ATS,C,5
3,test,3,C,haborder.png,1,m,Wed Apr 30 2025 13:06:08 GMT-0500 (Central Daylight Time),497067.7999999523,CFD-WF-001-010-HC.jpg,1500,solid,O,m,1039,11,1,15578.899999976158,481488.89999997616,7134,ATS,C,6
4,test,3,C,mfborder.png,1,z,Wed Apr 30 2025 13:06:08 GMT-0500 (Central Daylight Time),499467.10000002384,CFD-BF-031-020-A.jpg,1600,dash,O,z,768,2,1,17978.200000047684,481488.89999997616,7134,ATS,C,7
5,test,3,C,haborder.png,1,m,Wed Apr 30 2025 13:06:08 GMT-0500 (Central Daylight Time),502066.2999999523,CFD-WF-001-010-HC.jpg,1500,solid,O,m,1068,11,1,20577.399999976158,481488.89999997616,7134,ATS,C,8
6,test,3,C,mfborder.png,1,z,Wed Apr 30 2025 13:06:08 GMT-0500 (Central Daylight Time),505115.2000000477,CFD-BF-042-031-HC.jpg,1700,dash,O,z,1321,1,1,23626.300000071526,481488.89999997616,7134,ATS,C,9
7,test,3,C,mfborder.png,1,m,Wed Apr 30 2025 13:06:08 GMT-0500 (Central Daylight Time),507064.10000002384,CFD-BM-022-004-HC.jpg,1200,dash,O,m,717,6,1,25575.200000047684,481488.89999997616,7134,ATS,C,10
8,test,3,C,mfborder.png,1,m,Wed Apr 30 2025 13:06:08 GMT-0500 (Central Daylight Time),509932.39999997616,CFD-WM-034-040-A.jpg,2000,dash,O,m,836,5,1,28443.5,481488.89999997616,7134,ATS,C,11
9,test,3,C,mfborder.png,1,z,Wed Apr 30 2025 13:06:08 GMT-0500 (Central Daylight Time),512162.10000002384,CFD-WF-037-016-A.jpg,1500,dash,O,z,705,3,1,30673.200000047684,481488.89999997616,7134,ATS,C,12
10,test,3,C,haborder.png,1,z,Wed Apr 30 2025 13:06:08 GMT-0500 (Central Daylight Time),514627.2000000477,CFD-BM-021-026-A.jpg,1700,solid,O,z,745,9,1,33138.300000071526,481488.89999997616,7134,ATS,C,13
11,test,3,C,haborder.png,1,z,Wed Apr 30 2025 13:06:08 GMT-0500 (Central Daylight Time),516877.7000000477,CFD-WM-036-018-A.jpg,1400,solid,O,z,827,7,1,35388.800000071526,481488.89999997616,7134,ATS,C,14
12,test,3,C,mfborder.png,1,z,Wed Apr 30 2025 13:06:08 GMT-0500 (Central Daylight Time),519225.7000000477,CFD-BF-031-020-A.jpg,1600,dash,O,z,722,2,1,37736.800000071526,481488.89999997616,7134,ATS,C,15
13,test,3,C,mfborder.png,1,z,Wed Apr 30 2025 13:06:08 GMT-0500 (Central Daylight Time),521859.7000000477,CFD-WF-037-016-A.jpg,1500,dash,O,z,1100,3,1,40370.800000071526,481488.89999997616,7134,ATS,C,16
13,test,3,C,haborder.png,0,m,Wed Apr 30 2025 13:06:08 GMT-0500 (Central Daylight Time),523892.2000000477,CFD-WF-013-009-HC.jpg,1000,solid,O,z,1006,12,1,42403.300000071526,481488.89999997616,7134,ATS,C,17
14,test,3,C,haborder.png,1,z,Wed Apr 30 2025 13:06:08 GMT-0500 (Central Daylight Time),526374.2999999523,CFD-BM-021-026-A.jpg,1700,solid,O,z,760,9,1,44885.39999997616,481488.89999997616,7134,ATS,C,18
15,test,3,C,haborder.png,1,z,Wed Apr 30 2025 13:06:08 GMT-0500 (Central Daylight Time),529257.5,CFD-BM-043-014-A.jpg,1900,solid,O,z,950,8,1,47768.60000002384,481488.89999997616,7134,ATS,C,19
16,test,3,C,mfborder.png,1,m,Wed Apr 30 2025 13:06:08 GMT-0500 (Central Daylight Time),532509.7000000477,CFD-WM-034-040-A.jpg,2000,dash,O,m,1219,5,1,51020.800000071526,481488.89999997616,7134,ATS,C,20
17,test,3,C,mfborder.png,1,m,Wed Apr 30 2025 13:06:08 GMT-0500 (Central Daylight Time),534621.5,CFD-WM-035-036-HC.jpg,1000,dash,O,m,1077,4,1,53132.60000002384,481488.89999997616,7134,ATS,C,21
18,test,3,C,haborder.png,1,z,Wed Apr 30 2025 13:06:08 GMT-0500 (Central Daylight Time),537220.7999999523,CFD-WM-036-018-A.jpg,1400,solid,O,z,1170,7,1,55731.89999997616,481488.89999997616,7134,ATS,C,22
18,test,3,C,mfborder.png,0,z,Wed Apr 30 2025 13:06:08 GMT-0500 (Central Daylight Time),540153.7999999523,CFD-BF-042-031-HC.jpg,1700,dash,O,m,1199,1,1,58664.89999997616,481488.89999997616,7134,ATS,C,23
19,test,3,C,haborder.png,1,m,Wed Apr 30 2025 13:06:08 GMT-0500 (Central Daylight Time),543035.0,CFD-BF-019-004-HC.jpg,1600,solid,O,m,1249,10,1,61546.10000002384,481488.89999997616,7134,ATS,C,24
1,test,4,C,mfborder.png,1,m,Wed Apr 30 2025 13:06:08 GMT-0500 (Central Daylight Time),551266.0,CFD-BM-034-035-HC.jpg,1000,dash,O,m,868,4,1,1898.2000000476837,549367.7999999523,7134,ATS,C,1
2,test,4,C,mfborder.png,1,m,Wed Apr 30 2025 13:06:08 GMT-0500 (Central Daylight Time),554449.0,CFD-BM-043-014-A.jpg,2000,dash,O,m,1150,5,1,5081.200000047684,549367.7999999523,7134,ATS,C,2
3,test,4,C,haborder.png,1,m,Wed Apr 30 2025 13:06:08 GMT-0500 (Central Daylight Time),556364.7999999523,CFD-WM-028-005-HC.jpg,1000,solid,O,m,897,12,1,6997.0,549367.7999999523,7134,ATS,C,3
4,test,4,C,mfborder.png,1,m,Wed Apr 30 2025 13:06:08 GMT-0500 (Central Daylight Time),558630.2000000477,CFD-WM-036-018-A.jpg,1200,dash,O,m,1035,6,1,9262.400000095367,549367.7999999523,7134,ATS,C,4
5,test,4,C,mfborder.png,1,z,Wed Apr 30 2025 13:06:08 GMT-0500 (Central Daylight Time),561246.7999999523,CFD-BF-019-004-HC.jpg,1500,dash,O,z,1084,3,1,11879.0,549367.7999999523,7134,ATS,C,5
6,test,4,C,haborder.png,1,z,Wed Apr 30 2025 13:06:08 GMT-0500 (Central Daylight Time),563962.3999999762,CFD-BF-002-018-A.jpg,1900,solid,O,z,784,8,1,14594.600000023842,549367.7999999523,7134,ATS,C,6
6,test,4,C,mfborder.png,0,m,Wed Apr 30 2025 13:06:08 GMT-0500 (Central Daylight Time),567495.2999999523,CFD-BM-043-014-A.jpg,2000,dash,O,None,1515,5,1,18127.5,549367.7999999523,7134,ATS,C,7
7,test,4,C,haborder.png,1,z,Wed Apr 30 2025 13:06:08 GMT-0500 (Central Daylight Time),570194.7000000477,CFD-WF-037-016-A.jpg,1700,solid,O,z,969,9,1,20826.900000095367,549367.7999999523,7134,ATS,C,8
7,test,4,C,mfborder.png,0,m,Wed Apr 30 2025 13:06:08 GMT-0500 (Central Daylight Time),572842.3999999762,CFD-WM-036-018-A.jpg,1200,dash,O,z,1423,6,1,23474.600000023842,549367.7999999523,7134,ATS,C,9
8,test,4,C,haborder.png,1,m,Wed Apr 30 2025 13:06:08 GMT-0500 (Central Daylight Time),575293.7000000477,CFD-WM-028-005-HC.jpg,1500,solid,O,m,917,11,1,25925.900000095367,549367.7999999523,7134,ATS,C,10
8,test,4,C,mfborder.png,0,z,Wed Apr 30 2025 13:06:08 GMT-0500 (Central Daylight Time),578324.7999999523,CFD-BF-019-004-HC.jpg,1500,dash,O,None,1515,3,1,28957.0,549367.7999999523,7134,ATS,C,11
9,test,4,C,haborder.png,1,z,Wed Apr 30 2025 13:06:08 GMT-0500 (Central Daylight Time),581072.2999999523,CFD-WF-037-016-A.jpg,1700,solid,O,z,1014,9,1,31704.5,549367.7999999523,7134,ATS,C,12
10,test,4,C,haborder.png,1,m,Wed Apr 30 2025 13:06:08 GMT-0500 (Central Daylight Time),582956.5,CFD-WM-028-005-HC.jpg,1000,solid,O,m,865,12,1,33588.700000047684,549367.7999999523,7134,ATS,C,13
11,test,4,C,mfborder.png,1,z,Wed Apr 30 2025 13:06:08 GMT-0500 (Central Daylight Time),585938.0,CFD-WF-013-009-HC.jpg,1700,dash,O,z,1249,1,1,36570.200000047684,549367.7999999523,7134,ATS,C,14
12,test,4,C,haborder.png,1,m,Wed Apr 30 2025 13:06:08 GMT-0500 (Central Daylight Time),588255.2000000477,CFD-WM-028-005-HC.jpg,1500,solid,O,m,793,11,1,38887.40000009537,549367.7999999523,7134,ATS,C,15
13,test,4,C,mfborder.png,1,m,Wed Apr 30 2025 13:06:08 GMT-0500 (Central Daylight Time),590371.2999999523,CFD-BM-034-035-HC.jpg,1000,dash,O,m,1084,4,1,41003.5,549367.7999999523,7134,ATS,C,16
14,test,4,C,haborder.png,1,z,Wed Apr 30 2025 13:06:08 GMT-0500 (Central Daylight Time),592852.7999999523,CFD-BF-031-020-A.jpg,1400,solid,O,z,1053,7,1,43485.0,549367.7999999523,7134,ATS,C,17
15,test,4,C,mfborder.png,1,z,Wed Apr 30 2025 13:06:08 GMT-0500 (Central Daylight Time),595468.5,CFD-WF-023-013-A.jpg,1600,dash,O,z,995,2,1,46100.700000047684,549367.7999999523,7134,ATS,C,18
16,test,4,C,haborder.png,1,m,Wed Apr 30 2025 13:06:08 GMT-0500 (Central Daylight Time),598333.6000000238,CFD-BM-022-004-HC.jpg,1600,solid,O,m,1242,10,1,48965.800000071526,549367.7999999523,7134,ATS,C,19
17,test,4,C,mfborder.png,1,z,Wed Apr 30 2025 13:06:08 GMT-0500 (Central Daylight Time),600634.8999999762,CFD-WF-023-013-A.jpg,1600,dash,O,z,667,2,1,51267.10000002384,549367.7999999523,7134,ATS,C,20
18,test,4,C,haborder.png,1,m,Wed Apr 30 2025 13:06:08 GMT-0500 (Central Daylight Time),603116.8999999762,CFD-BM-022-004-HC.jpg,1600,solid,O,m,849,10,1,53749.10000002384,549367.7999999523,7134,ATS,C,21
19,test,4,C,haborder.png,1,z,Wed Apr 30 2025 13:06:08 GMT-0500 (Central Daylight Time),605332.6000000238,CFD-BF-031-020-A.jpg,1400,solid,O,z,784,7,1,55964.800000071526,549367.7999999523,7134,ATS,C,22
20,test,4,C,haborder.png,1,z,Wed Apr 30 2025 13:06:08 GMT-0500 (Central Daylight Time),607914.1000000238,CFD-BF-002-018-A.jpg,1900,solid,O,z,654,8,1,58546.300000071526,549367.7999999523,7134,ATS,C,23
21,test,4,C,mfborder.png,1,z,Wed Apr 30 2025 13:06:08 GMT-0500 (Central Daylight Time),610197.6000000238,CFD-WF-013-009-HC.jpg,1700,dash,O,z,562,1,1,60829.800000071526,549367.7999999523,7134,ATS,C,24
