acc_sum,block,block_c,change,condition,correct,correct_response,datetime,endtime,face,project,response,response_time,row_sel,session_number,start_end,starttime,subject_id,task,task_vers,trial
0,prac,1,,1-Back,,,Wed Jan 08 2025 10:29:36 GMT-0600 (Central Standard Time),,050_m_f_n_a.png,I,space,9853,1,1,,,8012,NNB,A,0
1,prac,1,0.0,1-Back,1,m,Wed Jan 08 2025 10:29:36 GMT-0600 (Central Standard Time),122808.10000014305,063_y_f_n_a.png,I,m,1370,2,1,2178.5,120629.60000014305,8012,NNB,A,1
2,prac,1,1.0,1-Back,1,z,Wed Jan 08 2025 10:29:36 GMT-0600 (Central Standard Time),124457.40000009537,063_y_f_n_a.png,I,z,875,3,1,1644.2999999523163,122813.10000014305,8012,NNB,A,2
3,prac,1,0.0,1-Back,1,m,Wed Jan 08 2025 10:29:36 GMT-0600 (Central Standard Time),126207.0,053_o_m_n_a.png,I,m,929,4,1,1745.5999999046326,124461.40000009537,8012,NNB,A,3
4,prac,1,0.0,1-Back,1,m,Wed Jan 08 2025 10:29:36 GMT-0600 (Central Standard Time),127706.5,058_m_m_n_a.png,I,m,688,5,1,1495.3999998569489,126211.10000014305,8012,NNB,A,4
5,prac,1,1.0,1-Back,1,z,Wed Jan 08 2025 10:29:36 GMT-0600 (Central Standard Time),129122.5,058_m_m_n_a.png,I,z,641,6,1,1410.7999999523163,127711.70000004768,8012,NNB,A,5
6,prac,1,0.0,1-Back,1,m,Wed Jan 08 2025 10:29:36 GMT-0600 (Central Standard Time),130872.20000004768,047_o_f_n_a.png,I,m,901,7,1,1745.7000000476837,129126.5,8012,NNB,A,6
7,prac,1,0.0,1-Back,1,m,Wed Jan 08 2025 10:29:36 GMT-0600 (Central Standard Time),132438.20000004768,045_m_m_n_a.png,I,m,755,8,1,1562.2000000476837,130876.0,8012,NNB,A,7
8,prac,1,0.0,1-Back,1,m,Wed Jan 08 2025 10:29:36 GMT-0600 (Central Standard Time),133954.5,050_m_f_n_a.png,I,m,719,9,1,1512.7000000476837,132441.79999995232,8012,NNB,A,8
9,prac,1,1.0,1-Back,1,z,Wed Jan 08 2025 10:29:36 GMT-0600 (Central Standard Time),135404.29999995232,050_m_f_n_a.png,I,z,674,10,1,1446.0999999046326,133958.20000004768,8012,NNB,A,9
10,prac,1,0.0,1-Back,1,m,Wed Jan 08 2025 10:29:36 GMT-0600 (Central Standard Time),137220.10000014305,053_o_m_n_a.png,I,m,1031,11,1,1810.3000001907349,135409.79999995232,8012,NNB,A,10
11,prac,1,0.0,1-Back,1,m,Wed Jan 08 2025 10:29:36 GMT-0600 (Central Standard Time),138853.0,010_y_f_n_a.png,I,m,802,12,1,1628.5,137224.5,8012,NNB,A,11
0,test,1,0.0,1-Back,,,Wed Jan 08 2025 10:29:36 GMT-0600 (Central Standard Time),138853.0,063_y_f_n_a.png,I,space,13887,1,1,1628.5,137224.5,8012,NNB,A,0
1,test,1,0.0,1-Back,1,m,Wed Jan 08 2025 10:29:36 GMT-0600 (Central Standard Time),161695.70000004768,043_m_f_n_a.png,I,m,609,2,1,1630.2999999523163,160065.40000009537,8012,NNB,A,1
2,test,1,0.0,1-Back,1,m,Wed Jan 08 2025 10:29:36 GMT-0600 (Central Standard Time),163762.0,010_y_f_n_a.png,I,m,1032,3,1,2063.7000000476837,161698.29999995232,8012,NNB,A,2
3,test,1,1.0,1-Back,1,z,Wed Jan 08 2025 10:29:36 GMT-0600 (Central Standard Time),165427.90000009537,010_y_f_n_a.png,I,z,638,4,1,1663.2999999523163,163764.60000014305,8012,NNB,A,3
4,test,1,0.0,1-Back,1,m,Wed Jan 08 2025 10:29:36 GMT-0600 (Central Standard Time),167144.10000014305,043_m_f_n_a.png,I,m,684,5,1,1713.8000001907349,165430.29999995232,8012,NNB,A,4
5,test,1,0.0,1-Back,1,m,Wed Jan 08 2025 10:29:36 GMT-0600 (Central Standard Time),169044.60000014305,053_o_m_n_a.png,I,m,872,6,1,1897.8000001907349,167146.79999995232,8012,NNB,A,5
6,test,1,1.0,1-Back,1,z,Wed Jan 08 2025 10:29:36 GMT-0600 (Central Standard Time),170743.20000004768,053_o_m_n_a.png,I,z,668,7,1,1695.9000000953674,169047.29999995232,8012,NNB,A,6
7,test,1,0.0,1-Back,1,m,Wed Jan 08 2025 10:29:36 GMT-0600 (Central Standard Time),172425.90000009537,058_m_m_n_a.png,I,m,657,8,1,1680.5,170745.40000009537,8012,NNB,A,7
8,test,1,0.0,1-Back,1,m,Wed Jan 08 2025 10:29:36 GMT-0600 (Central Standard Time),174042.10000014305,047_o_f_n_a.png,I,m,598,9,1,1613.7000000476837,172428.40000009537,8012,NNB,A,8
9,test,1,0.0,1-Back,1,m,Wed Jan 08 2025 10:29:36 GMT-0600 (Central Standard Time),175907.79999995232,058_m_m_n_a.png,I,m,846,10,1,1863.3999998569489,174044.40000009537,8012,NNB,A,9
10,test,1,0.0,1-Back,1,m,Wed Jan 08 2025 10:29:36 GMT-0600 (Central Standard Time),177725.0,041_y_m_n_a.png,I,m,796,11,1,1814.7000000476837,175910.29999995232,8012,NNB,A,10
11,test,1,1.0,1-Back,1,z,Wed Jan 08 2025 10:29:36 GMT-0600 (Central Standard Time),179323.40000009537,041_y_m_n_a.png,I,z,572,12,1,1595.7000000476837,177727.70000004768,8012,NNB,A,11
12,test,1,0.0,1-Back,1,m,Wed Jan 08 2025 10:29:36 GMT-0600 (Central Standard Time),181023.0,044_o_f_n_a.png,I,m,675,13,1,1697.0999999046326,179325.90000009537,8012,NNB,A,12
13,test,1,1.0,1-Back,1,z,Wed Jan 08 2025 10:29:36 GMT-0600 (Central Standard Time),182672.40000009537,044_o_f_n_a.png,I,z,617,14,1,1646.9000000953674,181025.5,8012,NNB,A,13
14,test,1,0.0,1-Back,1,m,Wed Jan 08 2025 10:29:36 GMT-0600 (Central Standard Time),184388.70000004768,008_y_m_n_a.png,I,m,687,15,1,1713.9000000953674,182674.79999995232,8012,NNB,A,14
15,test,1,0.0,1-Back,1,m,Wed Jan 08 2025 10:29:36 GMT-0600 (Central Standard Time),185954.70000004768,050_m_f_n_a.png,I,m,539,16,1,1563.5999999046326,184391.10000014305,8012,NNB,A,15
16,test,1,0.0,1-Back,1,m,Wed Jan 08 2025 10:29:36 GMT-0600 (Central Standard Time),187654.29999995232,046_o_m_n_a.png,I,m,669,17,1,1697.0,185957.29999995232,8012,NNB,A,16
17,test,1,0.0,1-Back,1,m,Wed Jan 08 2025 10:29:36 GMT-0600 (Central Standard Time),189403.70000004768,050_m_f_n_a.png,I,m,722,18,1,1747.0,187656.70000004768,8012,NNB,A,17
0,test,2,0.0,1-Back,,,Wed Jan 08 2025 10:29:36 GMT-0600 (Central Standard Time),189403.70000004768,058_m_m_n_a.png,I,space,3981,1,1,1747.0,187656.70000004768,8012,NNB,A,0
1,test,2,0.0,1-Back,1,m,Wed Jan 08 2025 10:29:36 GMT-0600 (Central Standard Time),197184.60000014305,043_m_f_n_a.png,I,m,733,2,1,1763.4000000953674,195421.20000004768,8012,NNB,A,1
2,test,2,1.0,1-Back,1,z,Wed Jan 08 2025 10:29:36 GMT-0600 (Central Standard Time),198917.20000004768,043_m_f_n_a.png,I,z,703,3,1,1730.2000000476837,197187.0,8012,NNB,A,2
3,test,2,0.0,1-Back,1,m,Wed Jan 08 2025 10:29:36 GMT-0600 (Central Standard Time),200683.20000004768,058_m_m_n_a.png,I,m,746,4,1,1763.4000000953674,198919.79999995232,8012,NNB,A,3
4,test,2,0.0,1-Back,1,m,Wed Jan 08 2025 10:29:36 GMT-0600 (Central Standard Time),202416.20000004768,041_y_m_n_a.png,I,m,701,5,1,1730.2999999523163,200685.90000009537,8012,NNB,A,4
5,test,2,0.0,1-Back,1,m,Wed Jan 08 2025 10:29:36 GMT-0600 (Central Standard Time),204165.79999995232,063_y_f_n_a.png,I,m,720,6,1,1747.0999999046326,202418.70000004768,8012,NNB,A,5
6,test,2,1.0,1-Back,1,z,Wed Jan 08 2025 10:29:36 GMT-0600 (Central Standard Time),205848.40000009537,063_y_f_n_a.png,I,z,658,7,1,1680.2999999523163,204168.10000014305,8012,NNB,A,6
7,test,2,0.0,1-Back,1,m,Wed Jan 08 2025 10:29:36 GMT-0600 (Central Standard Time),207448.0,041_y_m_n_a.png,I,m,567,8,1,1596.8999998569489,205851.10000014305,8012,NNB,A,7
8,test,2,0.0,1-Back,1,m,Wed Jan 08 2025 10:29:36 GMT-0600 (Central Standard Time),209230.90000009537,044_o_f_n_a.png,I,m,752,9,1,1780.4000000953674,207450.5,8012,NNB,A,8
9,test,2,0.0,1-Back,1,m,Wed Jan 08 2025 10:29:36 GMT-0600 (Central Standard Time),210797.0,045_m_m_n_a.png,I,m,537,10,1,1563.5999999046326,209233.40000009537,8012,NNB,A,9
10,test,2,1.0,1-Back,1,z,Wed Jan 08 2025 10:29:36 GMT-0600 (Central Standard Time),212413.10000014305,045_m_m_n_a.png,I,z,595,11,1,1613.7000000476837,210799.40000009537,8012,NNB,A,10
11,test,2,0.0,1-Back,1,m,Wed Jan 08 2025 10:29:36 GMT-0600 (Central Standard Time),214096.0,044_o_f_n_a.png,I,m,651,12,1,1680.5,212415.5,8012,NNB,A,11
12,test,2,0.0,1-Back,1,m,Wed Jan 08 2025 10:29:36 GMT-0600 (Central Standard Time),215695.40000009537,047_o_f_n_a.png,I,m,576,13,1,1597.1000001430511,214098.29999995232,8012,NNB,A,12
13,test,2,0.0,1-Back,1,m,Wed Jan 08 2025 10:29:36 GMT-0600 (Central Standard Time),217311.5,053_o_m_n_a.png,I,m,593,14,1,1613.5999999046326,215697.90000009537,8012,NNB,A,13
14,test,2,0.0,1-Back,1,m,Wed Jan 08 2025 10:29:36 GMT-0600 (Central Standard Time),218911.0,046_o_m_n_a.png,I,m,568,15,1,1597.0999999046326,217313.90000009537,8012,NNB,A,14
15,test,2,1.0,1-Back,1,z,Wed Jan 08 2025 10:29:36 GMT-0600 (Central Standard Time),220443.90000009537,046_o_m_n_a.png,I,z,513,16,1,1530.2999999523163,218913.60000014305,8012,NNB,A,15
16,test,2,0.0,1-Back,1,m,Wed Jan 08 2025 10:29:36 GMT-0600 (Central Standard Time),222076.79999995232,008_y_m_n_a.png,I,m,612,17,1,1630.2999999523163,220446.5,8012,NNB,A,16
17,test,2,1.0,1-Back,1,z,Wed Jan 08 2025 10:29:36 GMT-0600 (Central Standard Time),223692.90000009537,008_y_m_n_a.png,I,z,587,18,1,1613.4000000953674,222079.5,8012,NNB,A,17
0,test,3,1.0,1-Back,,,Wed Jan 08 2025 10:29:36 GMT-0600 (Central Standard Time),223692.90000009537,010_y_f_n_a.png,I,space,2148,1,1,1613.4000000953674,222079.5,8012,NNB,A,0
1,test,3,0.0,1-Back,1,m,Wed Jan 08 2025 10:29:36 GMT-0600 (Central Standard Time),229574.29999995232,046_o_m_n_a.png,I,m,636,2,1,1663.5,227910.79999995232,8012,NNB,A,1
2,test,3,1.0,1-Back,1,z,Wed Jan 08 2025 10:29:36 GMT-0600 (Central Standard Time),231223.90000009537,046_o_m_n_a.png,I,z,618,3,1,1647.1000001430511,229576.79999995232,8012,NNB,A,2
3,test,3,0.0,1-Back,1,m,Wed Jan 08 2025 10:29:36 GMT-0600 (Central Standard Time),232823.29999995232,050_m_f_n_a.png,I,m,568,4,1,1596.8999998569489,231226.40000009537,8012,NNB,A,3
4,test,3,1.0,1-Back,1,z,Wed Jan 08 2025 10:29:36 GMT-0600 (Central Standard Time),234322.70000004768,050_m_f_n_a.png,I,z,480,5,1,1496.7999999523163,232825.90000009537,8012,NNB,A,4
5,test,3,0.0,1-Back,1,m,Wed Jan 08 2025 10:29:36 GMT-0600 (Central Standard Time),235855.79999995232,044_o_f_n_a.png,I,m,509,6,1,1531.0999999046326,234324.70000004768,8012,NNB,A,5
6,test,3,0.0,1-Back,1,m,Wed Jan 08 2025 10:29:36 GMT-0600 (Central Standard Time),237538.60000014305,041_y_m_n_a.png,I,m,648,7,1,1680.3000001907349,235858.29999995232,8012,NNB,A,6
7,test,3,0.0,1-Back,1,m,Wed Jan 08 2025 10:29:36 GMT-0600 (Central Standard Time),239154.79999995232,044_o_f_n_a.png,I,m,589,8,1,1613.7999999523163,237541.0,8012,NNB,A,7
8,test,3,0.0,1-Back,1,m,Wed Jan 08 2025 10:29:36 GMT-0600 (Central Standard Time),240754.5,008_y_m_n_a.png,I,m,565,9,1,1597.3999998569489,239157.10000014305,8012,NNB,A,8
9,test,3,1.0,1-Back,1,z,Wed Jan 08 2025 10:29:36 GMT-0600 (Central Standard Time),242237.20000004768,008_y_m_n_a.png,I,z,454,10,1,1480.4000000953674,240756.79999995232,8012,NNB,A,9
10,test,3,0.0,1-Back,1,m,Wed Jan 08 2025 10:29:36 GMT-0600 (Central Standard Time),244136.79999995232,043_m_f_n_a.png,I,m,867,11,1,1897.2999999523163,242239.5,8012,NNB,A,10
11,test,3,0.0,1-Back,1,m,Wed Jan 08 2025 10:29:36 GMT-0600 (Central Standard Time),245969.29999995232,063_y_f_n_a.png,I,m,800,12,1,1829.5999999046326,244139.70000004768,8012,NNB,A,11
12,test,3,1.0,1-Back,1,z,Wed Jan 08 2025 10:29:36 GMT-0600 (Central Standard Time),247585.60000014305,063_y_f_n_a.png,I,z,582,13,1,1613.7000000476837,245971.90000009537,8012,NNB,A,12
13,test,3,0.0,1-Back,1,m,Wed Jan 08 2025 10:29:36 GMT-0600 (Central Standard Time),249234.60000014305,043_m_f_n_a.png,I,m,631,14,1,1646.6000001430511,247588.0,8012,NNB,A,13
14,test,3,0.0,1-Back,1,m,Wed Jan 08 2025 10:29:36 GMT-0600 (Central Standard Time),250944.40000009537,058_m_m_n_a.png,I,m,692,15,1,1707.2999999523163,249237.10000014305,8012,NNB,A,14
15,test,3,1.0,1-Back,1,z,Wed Jan 08 2025 10:29:36 GMT-0600 (Central Standard Time),252617.0,058_m_m_n_a.png,I,z,650,16,1,1670.2000000476837,250946.79999995232,8012,NNB,A,15
16,test,3,0.0,1-Back,1,m,Wed Jan 08 2025 10:29:36 GMT-0600 (Central Standard Time),254383.29999995232,047_o_f_n_a.png,I,m,735,17,1,1763.2999999523163,252620.0,8012,NNB,A,16
17,test,3,1.0,1-Back,1,z,Wed Jan 08 2025 10:29:36 GMT-0600 (Central Standard Time),256099.29999995232,047_o_f_n_a.png,I,z,696,18,1,1713.8999998569489,254385.40000009537,8012,NNB,A,17
0,test,4,1.0,1-Back,,,Wed Jan 08 2025 10:29:36 GMT-0600 (Central Standard Time),256099.29999995232,050_m_f_n_a.png,I,space,1942,1,1,1713.8999998569489,254385.40000009537,8012,NNB,A,0
1,test,4,0.0,1-Back,1,m,Wed Jan 08 2025 10:29:36 GMT-0600 (Central Standard Time),261764.29999995232,046_o_m_n_a.png,I,m,671,2,1,1697.3999998569489,260066.90000009537,8012,NNB,A,1
2,test,4,0.0,1-Back,1,m,Wed Jan 08 2025 10:29:36 GMT-0600 (Central Standard Time),263447.2999999523,050_m_f_n_a.png,I,m,660,3,1,1680.5999999046326,261766.70000004768,8012,NNB,A,2
3,test,4,0.0,1-Back,1,m,Wed Jan 08 2025 10:29:36 GMT-0600 (Central Standard Time),265080.0,044_o_f_n_a.png,I,m,609,4,1,1630.0999999046326,263449.90000009537,8012,NNB,A,3
4,test,4,1.0,1-Back,1,z,Wed Jan 08 2025 10:29:36 GMT-0600 (Central Standard Time),266712.7000000477,044_o_f_n_a.png,I,z,600,5,1,1630.0,265082.7000000477,8012,NNB,A,4
5,test,4,0.0,1-Back,1,m,Wed Jan 08 2025 10:29:36 GMT-0600 (Central Standard Time),268795.2999999523,063_y_f_n_a.png,I,m,1055,6,1,2080.2999999523163,266715.0,8012,NNB,A,5
6,test,4,0.0,1-Back,1,m,Wed Jan 08 2025 10:29:36 GMT-0600 (Central Standard Time),270378.2999999523,041_y_m_n_a.png,I,m,549,7,1,1580.7999999523163,268797.5,8012,NNB,A,6
7,test,4,1.0,1-Back,1,z,Wed Jan 08 2025 10:29:36 GMT-0600 (Central Standard Time),271944.5,041_y_m_n_a.png,I,z,534,8,1,1563.7999999523163,270380.7000000477,8012,NNB,A,7
8,test,4,0.0,1-Back,1,m,Wed Jan 08 2025 10:29:36 GMT-0600 (Central Standard Time),273610.40000009537,063_y_f_n_a.png,I,m,632,9,1,1663.4000000953674,271947.0,8012,NNB,A,8
9,test,4,0.0,1-Back,1,m,Wed Jan 08 2025 10:29:36 GMT-0600 (Central Standard Time),275326.7000000477,045_m_m_n_a.png,I,m,694,10,1,1714.0,273612.7000000477,8012,NNB,A,9
10,test,4,1.0,1-Back,1,z,Wed Jan 08 2025 10:29:36 GMT-0600 (Central Standard Time),276876.10000014305,045_m_m_n_a.png,I,z,521,11,1,1546.5,275329.60000014305,8012,NNB,A,10
11,test,4,0.0,1-Back,1,m,Wed Jan 08 2025 10:29:36 GMT-0600 (Central Standard Time),278625.90000009537,047_o_f_n_a.png,I,m,716,12,1,1747.2999999523163,276878.60000014305,8012,NNB,A,11
12,test,4,0.0,1-Back,1,m,Wed Jan 08 2025 10:29:36 GMT-0600 (Central Standard Time),280291.60000014305,053_o_m_n_a.png,I,m,646,13,1,1662.7000000476837,278628.90000009537,8012,NNB,A,12
13,test,4,0.0,1-Back,1,m,Wed Jan 08 2025 10:29:36 GMT-0600 (Central Standard Time),282124.60000014305,047_o_f_n_a.png,I,m,812,14,1,1830.5,280294.10000014305,8012,NNB,A,13
14,test,4,0.0,1-Back,1,m,Wed Jan 08 2025 10:29:36 GMT-0600 (Central Standard Time),283757.2000000477,010_y_f_n_a.png,I,m,603,15,1,1630.0999999046326,282127.10000014305,8012,NNB,A,14
15,test,4,1.0,1-Back,1,z,Wed Jan 08 2025 10:29:36 GMT-0600 (Central Standard Time),285357.10000014305,010_y_f_n_a.png,I,z,579,16,1,1597.5,283759.60000014305,8012,NNB,A,15
16,test,4,0.0,1-Back,1,m,Wed Jan 08 2025 10:29:36 GMT-0600 (Central Standard Time),286939.7999999523,043_m_f_n_a.png,I,m,555,17,1,1580.3999998569489,285359.40000009537,8012,NNB,A,16
17,test,4,1.0,1-Back,1,z,Wed Jan 08 2025 10:29:36 GMT-0600 (Central Standard Time),288605.7999999523,043_m_f_n_a.png,I,z,636,18,1,1663.3999998569489,286942.40000009537,8012,NNB,A,17
0,test,5,1.0,1-Back,,,Wed Jan 08 2025 10:29:36 GMT-0600 (Central Standard Time),288605.7999999523,053_o_m_n_a.png,I,space,1563,1,1,1663.3999998569489,286942.40000009537,8012,NNB,A,0
1,test,5,1.0,1-Back,1,z,Wed Jan 08 2025 10:29:36 GMT-0600 (Central Standard Time),293787.7000000477,053_o_m_n_a.png,I,z,572,2,1,1597.2999999523163,292190.40000009537,8012,NNB,A,1
2,test,5,0.0,1-Back,1,m,Wed Jan 08 2025 10:29:36 GMT-0600 (Central Standard Time),295337.0,063_y_f_n_a.png,I,m,525,3,1,1547.0,293790.0,8012,NNB,A,2
3,test,5,0.0,1-Back,1,m,Wed Jan 08 2025 10:29:36 GMT-0600 (Central Standard Time),296920.0,041_y_m_n_a.png,I,m,559,4,1,1580.5999999046326,295339.40000009537,8012,NNB,A,3
4,test,5,0.0,1-Back,1,m,Wed Jan 08 2025 10:29:36 GMT-0600 (Central Standard Time),298669.2000000477,063_y_f_n_a.png,I,m,594,5,1,1746.7000000476837,296922.5,8012,NNB,A,4
5,test,5,0.0,1-Back,1,m,Wed Jan 08 2025 10:29:36 GMT-0600 (Central Standard Time),300235.60000014305,058_m_m_n_a.png,I,m,538,6,1,1563.4000000953674,298672.2000000477,8012,NNB,A,5
6,test,5,1.0,1-Back,1,z,Wed Jan 08 2025 10:29:36 GMT-0600 (Central Standard Time),301801.90000009537,058_m_m_n_a.png,I,z,532,7,1,1563.7999999523163,300238.10000014305,8012,NNB,A,6
7,test,5,0.0,1-Back,1,m,Wed Jan 08 2025 10:29:36 GMT-0600 (Central Standard Time),303434.60000014305,010_y_f_n_a.png,I,m,614,8,1,1630.2000000476837,301804.40000009537,8012,NNB,A,7
8,test,5,0.0,1-Back,1,m,Wed Jan 08 2025 10:29:36 GMT-0600 (Central Standard Time),305167.2999999523,008_y_m_n_a.png,I,m,701,9,1,1730.2999999523163,303437.0,8012,NNB,A,8
9,test,5,0.0,1-Back,1,m,Wed Jan 08 2025 10:29:36 GMT-0600 (Central Standard Time),306866.7000000477,010_y_f_n_a.png,I,m,681,10,1,1697.0,305169.7000000477,8012,NNB,A,9
10,test,5,0.0,1-Back,1,m,Wed Jan 08 2025 10:29:36 GMT-0600 (Central Standard Time),308816.2000000477,047_o_f_n_a.png,I,m,925,11,1,1947.0999999046326,306869.10000014305,8012,NNB,A,10
11,test,5,1.0,1-Back,1,z,Wed Jan 08 2025 10:29:36 GMT-0600 (Central Standard Time),310465.7000000477,047_o_f_n_a.png,I,z,624,12,1,1647.0,308818.7000000477,8012,NNB,A,11
12,test,5,0.0,1-Back,1,m,Wed Jan 08 2025 10:29:36 GMT-0600 (Central Standard Time),312165.0,046_o_m_n_a.png,I,m,670,13,1,1697.0999999046326,310467.90000009537,8012,NNB,A,12
13,test,5,0.0,1-Back,1,m,Wed Jan 08 2025 10:29:36 GMT-0600 (Central Standard Time),314081.2000000477,050_m_f_n_a.png,I,m,883,14,1,1913.7000000476837,312167.5,8012,NNB,A,13
14,test,5,1.0,1-Back,1,z,Wed Jan 08 2025 10:29:36 GMT-0600 (Central Standard Time),315514.0,050_m_f_n_a.png,I,z,407,15,1,1430.2999999523163,314083.7000000477,8012,NNB,A,14
15,test,5,0.0,1-Back,1,m,Wed Jan 08 2025 10:29:36 GMT-0600 (Central Standard Time),317013.7999999523,046_o_m_n_a.png,I,m,470,16,1,1497.5,315516.2999999523,8012,NNB,A,15
16,test,5,0.0,1-Back,1,m,Wed Jan 08 2025 10:29:36 GMT-0600 (Central Standard Time),318596.40000009537,043_m_f_n_a.png,I,m,554,17,1,1580.2000000476837,317016.2000000477,8012,NNB,A,16
17,test,5,0.0,1-Back,1,m,Wed Jan 08 2025 10:29:36 GMT-0600 (Central Standard Time),320280.40000009537,045_m_m_n_a.png,I,m,650,18,1,1681.6000001430511,318598.7999999523,8012,NNB,A,17
0,prac,1,0.0,2-Back,,,Wed Jan 08 2025 10:29:36 GMT-0600 (Central Standard Time),320280.40000009537,008_y_m_n_a.png,I,space,9496,1,1,1681.6000001430511,318598.7999999523,8012,NNB,A,0
0,prac,1,0.0,2-Back,,,Wed Jan 08 2025 10:29:36 GMT-0600 (Central Standard Time),320280.40000009537,043_m_f_n_a.png,I,space,9496,2,1,1681.6000001430511,318598.7999999523,8012,NNB,A,0
1,prac,1,1.0,2-Back,1,m,Wed Jan 08 2025 10:29:36 GMT-0600 (Central Standard Time),429811.7000000477,046_o_m_n_a.png,I,m,1044,3,1,1846.2999999523163,427965.40000009537,8012,NNB,A,1
2,prac,1,0.0,2-Back,1,m,Wed Jan 08 2025 10:29:36 GMT-0600 (Central Standard Time),431611.2000000477,047_o_f_n_a.png,I,m,961,4,1,1794.0999999046326,429817.10000014305,8012,NNB,A,2
3,prac,1,0.0,2-Back,1,z,Wed Jan 08 2025 10:29:36 GMT-0600 (Central Standard Time),433810.2000000477,046_o_m_n_a.png,I,z,1417,5,1,2194.9000000953674,431615.2999999523,8012,NNB,A,3
4,prac,1,1.0,2-Back,1,z,Wed Jan 08 2025 10:29:36 GMT-0600 (Central Standard Time),435776.5,047_o_f_n_a.png,I,z,1179,6,1,1962.7000000476837,433813.7999999523,8012,NNB,A,4
4,prac,1,0.0,2-Back,0,m,Wed Jan 08 2025 10:29:36 GMT-0600 (Central Standard Time),438575.40000009537,045_m_m_n_a.png,I,None,2005,7,1,2795.600000143051,435779.7999999523,8012,NNB,A,5
5,prac,1,0.0,2-Back,1,m,Wed Jan 08 2025 10:29:36 GMT-0600 (Central Standard Time),440541.40000009537,053_o_m_n_a.png,I,m,1157,8,1,1962.4000000953674,438579.0,8012,NNB,A,6
5,prac,1,0.0,2-Back,0,m,Wed Jan 08 2025 10:29:36 GMT-0600 (Central Standard Time),442724.2999999523,010_y_f_n_a.png,I,z,1406,9,1,2178.2999999523163,440546.0,8012,NNB,A,7
6,prac,1,1.0,2-Back,1,z,Wed Jan 08 2025 10:29:36 GMT-0600 (Central Standard Time),444573.90000009537,053_o_m_n_a.png,I,z,1073,10,1,1846.2999999523163,442727.60000014305,8012,NNB,A,8
7,prac,1,0.0,2-Back,1,m,Wed Jan 08 2025 10:29:36 GMT-0600 (Central Standard Time),446339.7000000477,063_y_f_n_a.png,I,m,943,11,1,1762.7999999523163,444576.90000009537,8012,NNB,A,9
8,prac,1,0.0,2-Back,1,m,Wed Jan 08 2025 10:29:36 GMT-0600 (Central Standard Time),448389.2000000477,045_m_m_n_a.png,I,m,1266,12,1,2046.2999999523163,446342.90000009537,8012,NNB,A,10
0,test,1,0.0,2-Back,,,Wed Jan 08 2025 10:29:36 GMT-0600 (Central Standard Time),448389.2000000477,041_y_m_n_a.png,I,space,9315,1,1,2046.2999999523163,446342.90000009537,8012,NNB,A,0
0,test,1,0.0,2-Back,,,Wed Jan 08 2025 10:29:36 GMT-0600 (Central Standard Time),448389.2000000477,041_y_m_n_a.png,I,space,9315,2,1,2046.2999999523163,446342.90000009537,8012,NNB,A,0
1,test,1,0.0,2-Back,1,m,Wed Jan 08 2025 10:29:36 GMT-0600 (Central Standard Time),473481.10000014305,047_o_f_n_a.png,I,m,824,3,1,1846.9000000953674,471634.2000000477,8012,NNB,A,1
2,test,1,0.0,2-Back,1,m,Wed Jan 08 2025 10:29:36 GMT-0600 (Central Standard Time),475514.10000014305,058_m_m_n_a.png,I,m,999,4,1,2030.7000000476837,473483.40000009537,8012,NNB,A,2
3,test,1,1.0,2-Back,1,z,Wed Jan 08 2025 10:29:36 GMT-0600 (Central Standard Time),477330.0,047_o_f_n_a.png,I,z,782,5,1,1813.5999999046326,475516.40000009537,8012,NNB,A,3
4,test,1,0.0,2-Back,1,m,Wed Jan 08 2025 10:29:36 GMT-0600 (Central Standard Time),479212.7000000477,063_y_f_n_a.png,I,m,854,6,1,1880.4000000953674,477332.2999999523,8012,NNB,A,4
5,test,1,0.0,2-Back,1,m,Wed Jan 08 2025 10:29:36 GMT-0600 (Central Standard Time),481245.60000014305,058_m_m_n_a.png,I,m,1003,7,1,2030.5,479215.10000014305,8012,NNB,A,5
6,test,1,1.0,2-Back,1,z,Wed Jan 08 2025 10:29:36 GMT-0600 (Central Standard Time),483444.7000000477,063_y_f_n_a.png,I,z,1171,8,1,2197.0,481247.7000000477,8012,NNB,A,6
7,test,1,0.0,2-Back,1,m,Wed Jan 08 2025 10:29:36 GMT-0600 (Central Standard Time),485510.7000000477,008_y_m_n_a.png,I,m,1035,9,1,2063.5999999046326,483447.10000014305,8012,NNB,A,7
8,test,1,0.0,2-Back,1,m,Wed Jan 08 2025 10:29:36 GMT-0600 (Central Standard Time),487443.40000009537,044_o_f_n_a.png,I,m,903,10,1,1930.2000000476837,485513.2000000477,8012,NNB,A,8
9,test,1,1.0,2-Back,1,z,Wed Jan 08 2025 10:29:36 GMT-0600 (Central Standard Time),489226.10000014305,008_y_m_n_a.png,I,z,765,11,1,1780.5,487445.60000014305,8012,NNB,A,9
10,test,1,0.0,2-Back,1,m,Wed Jan 08 2025 10:29:36 GMT-0600 (Central Standard Time),491175.60000014305,043_m_f_n_a.png,I,m,926,12,1,1946.9000000953674,489228.7000000477,8012,NNB,A,10
11,test,1,0.0,2-Back,1,m,Wed Jan 08 2025 10:29:36 GMT-0600 (Central Standard Time),493708.0,043_m_f_n_a.png,I,m,1504,13,1,2529.7999999523163,491178.2000000477,8012,NNB,A,11
12,test,1,0.0,2-Back,1,m,Wed Jan 08 2025 10:29:36 GMT-0600 (Central Standard Time),495790.7999999523,046_o_m_n_a.png,I,m,1052,14,1,2080.2999999523163,493710.5,8012,NNB,A,12
13,test,1,0.0,2-Back,1,m,Wed Jan 08 2025 10:29:36 GMT-0600 (Central Standard Time),497840.2000000477,044_o_f_n_a.png,I,m,1025,15,1,2047.0,495793.2000000477,8012,NNB,A,13
13,test,1,1.0,2-Back,0,z,Wed Jan 08 2025 10:29:36 GMT-0600 (Central Standard Time),500422.7999999523,046_o_m_n_a.png,I,m,1552,16,1,2580.199999809265,497842.60000014305,8012,NNB,A,14
14,test,1,0.0,2-Back,1,m,Wed Jan 08 2025 10:29:36 GMT-0600 (Central Standard Time),502173.2999999523,050_m_f_n_a.png,I,m,721,17,1,1747.6999998092651,500425.60000014305,8012,NNB,A,15
15,test,1,0.0,2-Back,1,m,Wed Jan 08 2025 10:29:36 GMT-0600 (Central Standard Time),504104.7999999523,045_m_m_n_a.png,I,m,908,18,1,1928.8999998569489,502175.90000009537,8012,NNB,A,16
0,test,2,0.0,2-Back,,,Wed Jan 08 2025 10:29:36 GMT-0600 (Central Standard Time),504104.7999999523,045_m_m_n_a.png,I,space,3928,1,1,1928.8999998569489,502175.90000009537,8012,NNB,A,0
0,test,2,0.0,2-Back,,,Wed Jan 08 2025 10:29:36 GMT-0600 (Central Standard Time),504104.7999999523,010_y_f_n_a.png,I,space,3928,2,1,1928.8999998569489,502175.90000009537,8012,NNB,A,0
1,test,2,1.0,2-Back,1,z,Wed Jan 08 2025 10:29:36 GMT-0600 (Central Standard Time),515068.10000014305,045_m_m_n_a.png,I,z,872,3,1,1896.9000000953674,513171.2000000477,8012,NNB,A,1
2,test,2,0.0,2-Back,1,m,Wed Jan 08 2025 10:29:36 GMT-0600 (Central Standard Time),516850.60000014305,050_m_f_n_a.png,I,m,764,4,1,1780.3000001907349,515070.2999999523,8012,NNB,A,2
2,test,2,0.0,2-Back,0,m,Wed Jan 08 2025 10:29:36 GMT-0600 (Central Standard Time),519166.90000009537,010_y_f_n_a.png,I,z,1293,5,1,2314.100000143051,516852.7999999523,8012,NNB,A,3
3,test,2,0.0,2-Back,1,m,Wed Jan 08 2025 10:29:36 GMT-0600 (Central Standard Time),521916.10000014305,046_o_m_n_a.png,I,m,1729,6,1,2746.7000000476837,519169.40000009537,8012,NNB,A,4
4,test,2,0.0,2-Back,1,m,Wed Jan 08 2025 10:29:36 GMT-0600 (Central Standard Time),524714.9000000954,063_y_f_n_a.png,I,m,1780,7,1,2796.5,521918.40000009537,8012,NNB,A,5
5,test,2,1.0,2-Back,1,z,Wed Jan 08 2025 10:29:36 GMT-0600 (Central Standard Time),526298.0,046_o_m_n_a.png,I,z,549,8,1,1581.0999999046326,524716.9000000954,8012,NNB,A,6
6,test,2,0.0,2-Back,1,m,Wed Jan 08 2025 10:29:36 GMT-0600 (Central Standard Time),528064.0,008_y_m_n_a.png,I,m,734,9,1,1763.7000000476837,526300.2999999523,8012,NNB,A,7
7,test,2,0.0,2-Back,1,m,Wed Jan 08 2025 10:29:36 GMT-0600 (Central Standard Time),530130.7999999523,008_y_m_n_a.png,I,m,1032,10,1,2064.5999999046326,528066.2000000477,8012,NNB,A,8
8,test,2,0.0,2-Back,1,m,Wed Jan 08 2025 10:29:36 GMT-0600 (Central Standard Time),532112.7999999523,043_m_f_n_a.png,I,m,958,11,1,1979.5,530133.2999999523,8012,NNB,A,9
9,test,2,0.0,2-Back,1,m,Wed Jan 08 2025 10:29:36 GMT-0600 (Central Standard Time),535078.4000000954,010_y_f_n_a.png,I,m,1935,12,1,2963.2999999523163,532115.100000143,8012,NNB,A,10
10,test,2,1.0,2-Back,1,z,Wed Jan 08 2025 10:29:36 GMT-0600 (Central Standard Time),536861.2000000477,043_m_f_n_a.png,I,z,761,13,1,1780.2999999523163,535080.9000000954,8012,NNB,A,11
11,test,2,0.0,2-Back,1,m,Wed Jan 08 2025 10:29:36 GMT-0600 (Central Standard Time),539393.7999999523,053_o_m_n_a.png,I,m,1507,14,1,2530.199999809265,536863.600000143,8012,NNB,A,12
12,test,2,0.0,2-Back,1,m,Wed Jan 08 2025 10:29:36 GMT-0600 (Central Standard Time),541409.9000000954,053_o_m_n_a.png,I,m,990,15,1,2013.7000000476837,539396.2000000477,8012,NNB,A,13
13,test,2,0.0,2-Back,1,m,Wed Jan 08 2025 10:29:36 GMT-0600 (Central Standard Time),543942.4000000954,044_o_f_n_a.png,I,m,1502,16,1,2529.9000000953674,541412.5,8012,NNB,A,14
14,test,2,0.0,2-Back,1,m,Wed Jan 08 2025 10:29:36 GMT-0600 (Central Standard Time),545741.7999999523,058_m_m_n_a.png,I,m,770,17,1,1797.0,543944.7999999523,8012,NNB,A,15
15,test,2,1.0,2-Back,1,z,Wed Jan 08 2025 10:29:36 GMT-0600 (Central Standard Time),547608.0,044_o_f_n_a.png,I,z,842,18,1,1863.7000000476837,545744.2999999523,8012,NNB,A,16
0,test,3,1.0,2-Back,,,Wed Jan 08 2025 10:29:36 GMT-0600 (Central Standard Time),547608.0,041_y_m_n_a.png,I,space,2545,1,1,1863.7000000476837,545744.2999999523,8012,NNB,A,0
0,test,3,1.0,2-Back,,,Wed Jan 08 2025 10:29:36 GMT-0600 (Central Standard Time),547608.0,041_y_m_n_a.png,I,space,2545,2,1,1863.7000000476837,545744.2999999523,8012,NNB,A,0
1,test,3,0.0,2-Back,1,m,Wed Jan 08 2025 10:29:36 GMT-0600 (Central Standard Time),557454.9000000954,044_o_f_n_a.png,I,m,1202,3,1,2230.2999999523163,555224.600000143,8012,NNB,A,1
2,test,3,0.0,2-Back,1,m,Wed Jan 08 2025 10:29:36 GMT-0600 (Central Standard Time),559421.0,045_m_m_n_a.png,I,m,945,4,1,1963.7000000476837,557457.2999999523,8012,NNB,A,2
3,test,3,1.0,2-Back,1,z,Wed Jan 08 2025 10:29:36 GMT-0600 (Central Standard Time),561170.2000000477,044_o_f_n_a.png,I,z,723,5,1,1746.7000000476837,559423.5,8012,NNB,A,3
3,test,3,0.0,2-Back,0,m,Wed Jan 08 2025 10:29:36 GMT-0600 (Central Standard Time),563186.4000000954,008_y_m_n_a.png,I,z,990,6,1,2013.9000000953674,561172.5,8012,NNB,A,4
4,test,3,0.0,2-Back,1,m,Wed Jan 08 2025 10:29:36 GMT-0600 (Central Standard Time),565069.0,045_m_m_n_a.png,I,m,854,7,1,1880.2999999523163,563188.7000000477,8012,NNB,A,5
5,test,3,1.0,2-Back,1,z,Wed Jan 08 2025 10:29:36 GMT-0600 (Central Standard Time),566868.5,008_y_m_n_a.png,I,z,771,8,1,1797.0999999046326,565071.4000000954,8012,NNB,A,6
6,test,3,0.0,2-Back,1,m,Wed Jan 08 2025 10:29:36 GMT-0600 (Central Standard Time),568867.7999999523,010_y_f_n_a.png,I,m,971,9,1,1996.5999999046326,566871.2000000477,8012,NNB,A,7
7,test,3,0.0,2-Back,1,m,Wed Jan 08 2025 10:29:36 GMT-0600 (Central Standard Time),570717.2999999523,058_m_m_n_a.png,I,m,828,10,1,1847.0999999046326,568870.2000000477,8012,NNB,A,8
8,test,3,1.0,2-Back,1,z,Wed Jan 08 2025 10:29:36 GMT-0600 (Central Standard Time),572333.600000143,010_y_f_n_a.png,I,z,587,11,1,1613.6000001430511,570720.0,8012,NNB,A,9
9,test,3,1.0,2-Back,1,z,Wed Jan 08 2025 10:29:36 GMT-0600 (Central Standard Time),573983.100000143,058_m_m_n_a.png,I,z,626,12,1,1646.8000001907349,572336.2999999523,8012,NNB,A,10
10,test,3,0.0,2-Back,1,m,Wed Jan 08 2025 10:29:36 GMT-0600 (Central Standard Time),575932.2000000477,044_o_f_n_a.png,I,m,921,13,1,1946.7000000476837,573985.5,8012,NNB,A,11
11,test,3,0.0,2-Back,1,m,Wed Jan 08 2025 10:29:36 GMT-0600 (Central Standard Time),577798.4000000954,050_m_f_n_a.png,I,m,844,14,1,1863.9000000953674,575934.5,8012,NNB,A,12
12,test,3,0.0,2-Back,1,m,Wed Jan 08 2025 10:29:36 GMT-0600 (Central Standard Time),579464.600000143,046_o_m_n_a.png,I,m,633,15,1,1663.8000001907349,577800.7999999523,8012,NNB,A,13
13,test,3,1.0,2-Back,1,z,Wed Jan 08 2025 10:29:36 GMT-0600 (Central Standard Time),581147.100000143,050_m_f_n_a.png,I,z,627,16,1,1680.2000000476837,579466.9000000954,8012,NNB,A,14
14,test,3,0.0,2-Back,1,m,Wed Jan 08 2025 10:29:36 GMT-0600 (Central Standard Time),583163.600000143,047_o_f_n_a.png,I,m,997,17,1,2014.2000000476837,581149.4000000954,8012,NNB,A,15
15,test,3,0.0,2-Back,1,m,Wed Jan 08 2025 10:29:36 GMT-0600 (Central Standard Time),585129.2999999523,047_o_f_n_a.png,I,m,933,18,1,1963.3999998569489,583165.9000000954,8012,NNB,A,16
0,test,4,0.0,2-Back,,,Wed Jan 08 2025 10:29:36 GMT-0600 (Central Standard Time),585129.2999999523,053_o_m_n_a.png,I,space,2328,1,1,1963.3999998569489,583165.9000000954,8012,NNB,A,0
0,test,4,0.0,2-Back,,,Wed Jan 08 2025 10:29:36 GMT-0600 (Central Standard Time),585129.2999999523,063_y_f_n_a.png,I,space,2328,2,1,1963.3999998569489,583165.9000000954,8012,NNB,A,0
1,test,4,1.0,2-Back,1,z,Wed Jan 08 2025 10:29:36 GMT-0600 (Central Standard Time),594576.4000000954,053_o_m_n_a.png,I,z,991,3,1,2013.6000001430511,592562.7999999523,8012,NNB,A,1
2,test,4,1.0,2-Back,1,z,Wed Jan 08 2025 10:29:36 GMT-0600 (Central Standard Time),596475.7999999523,063_y_f_n_a.png,I,z,879,4,1,1897.1999998092651,594578.600000143,8012,NNB,A,2
3,test,4,0.0,2-Back,1,m,Wed Jan 08 2025 10:29:36 GMT-0600 (Central Standard Time),598142.0,044_o_f_n_a.png,I,m,636,5,1,1663.3999998569489,596478.600000143,8012,NNB,A,3
4,test,4,0.0,2-Back,1,m,Wed Jan 08 2025 10:29:36 GMT-0600 (Central Standard Time),600008.100000143,044_o_f_n_a.png,I,m,843,6,1,1863.8000001907349,598144.2999999523,8012,NNB,A,4
5,test,4,0.0,2-Back,1,m,Wed Jan 08 2025 10:29:36 GMT-0600 (Central Standard Time),602307.5,043_m_f_n_a.png,I,m,1280,7,1,2297.0,600010.5,8012,NNB,A,5
6,test,4,0.0,2-Back,1,m,Wed Jan 08 2025 10:29:36 GMT-0600 (Central Standard Time),604236.0,008_y_m_n_a.png,I,m,902,8,1,1925.7999999523163,602310.2000000477,8012,NNB,A,6
7,test,4,1.0,2-Back,1,z,Wed Jan 08 2025 10:29:36 GMT-0600 (Central Standard Time),605906.4000000954,043_m_f_n_a.png,I,z,648,9,1,1667.9000000953674,604238.5,8012,NNB,A,7
8,test,4,0.0,2-Back,1,m,Wed Jan 08 2025 10:29:36 GMT-0600 (Central Standard Time),607805.7000000477,058_m_m_n_a.png,I,m,877,10,1,1897.0999999046326,605908.600000143,8012,NNB,A,8
9,test,4,0.0,2-Back,1,m,Wed Jan 08 2025 10:29:36 GMT-0600 (Central Standard Time),609838.2999999523,008_y_m_n_a.png,I,m,1003,11,1,2030.2999999523163,607808.0,8012,NNB,A,9
10,test,4,0.0,2-Back,1,m,Wed Jan 08 2025 10:29:36 GMT-0600 (Central Standard Time),611854.2999999523,047_o_f_n_a.png,I,m,986,12,1,2013.8999998569489,609840.4000000954,8012,NNB,A,10
11,test,4,0.0,2-Back,1,m,Wed Jan 08 2025 10:29:36 GMT-0600 (Central Standard Time),613787.100000143,041_y_m_n_a.png,I,m,906,13,1,1930.3000001907349,611856.7999999523,8012,NNB,A,11
12,test,4,1.0,2-Back,1,z,Wed Jan 08 2025 10:29:36 GMT-0600 (Central Standard Time),615486.600000143,047_o_f_n_a.png,I,z,669,14,1,1696.9000000953674,613789.7000000477,8012,NNB,A,12
13,test,4,1.0,2-Back,1,z,Wed Jan 08 2025 10:29:36 GMT-0600 (Central Standard Time),617336.0,041_y_m_n_a.png,I,z,817,15,1,1847.0,615489.0,8012,NNB,A,13
14,test,4,0.0,2-Back,1,m,Wed Jan 08 2025 10:29:36 GMT-0600 (Central Standard Time),619419.7000000477,045_m_m_n_a.png,I,m,1064,16,1,2081.0,617338.7000000477,8012,NNB,A,14
15,test,4,0.0,2-Back,1,m,Wed Jan 08 2025 10:29:36 GMT-0600 (Central Standard Time),621334.7999999523,050_m_f_n_a.png,I,m,886,17,1,1912.5999999046326,619422.2000000477,8012,NNB,A,15
16,test,4,1.0,2-Back,1,z,Wed Jan 08 2025 10:29:36 GMT-0600 (Central Standard Time),623733.9000000954,045_m_m_n_a.png,I,z,1370,18,1,2396.9000000953674,621337.0,8012,NNB,A,16
0,test,5,1.0,2-Back,,,Wed Jan 08 2025 10:29:36 GMT-0600 (Central Standard Time),623733.9000000954,041_y_m_n_a.png,I,space,1795,1,1,2396.9000000953674,621337.0,8012,NNB,A,0
0,test,5,1.0,2-Back,,,Wed Jan 08 2025 10:29:36 GMT-0600 (Central Standard Time),623733.9000000954,050_m_f_n_a.png,I,space,1795,2,1,2396.9000000953674,621337.0,8012,NNB,A,0
1,test,5,1.0,2-Back,1,z,Wed Jan 08 2025 10:29:36 GMT-0600 (Central Standard Time),632531.2999999523,041_y_m_n_a.png,I,z,855,3,1,1879.0999999046326,630652.2000000477,8012,NNB,A,1
2,test,5,1.0,2-Back,1,z,Wed Jan 08 2025 10:29:36 GMT-0600 (Central Standard Time),634497.2999999523,050_m_f_n_a.png,I,z,941,4,1,1963.6999998092651,632533.600000143,8012,NNB,A,2
3,test,5,0.0,2-Back,1,m,Wed Jan 08 2025 10:29:36 GMT-0600 (Central Standard Time),636313.5,047_o_f_n_a.png,I,m,783,5,1,1813.5999999046326,634499.9000000954,8012,NNB,A,3
4,test,5,0.0,2-Back,1,m,Wed Jan 08 2025 10:29:36 GMT-0600 (Central Standard Time),638212.7999999523,041_y_m_n_a.png,I,m,871,6,1,1897.1999998092651,636315.600000143,8012,NNB,A,4
5,test,5,0.0,2-Back,1,m,Wed Jan 08 2025 10:29:36 GMT-0600 (Central Standard Time),640062.100000143,010_y_f_n_a.png,I,m,819,7,1,1846.9000000953674,638215.2000000477,8012,NNB,A,5
6,test,5,0.0,2-Back,1,m,Wed Jan 08 2025 10:29:36 GMT-0600 (Central Standard Time),641878.2999999523,047_o_f_n_a.png,I,m,794,8,1,1813.6999998092651,640064.600000143,8012,NNB,A,6
7,test,5,1.0,2-Back,1,z,Wed Jan 08 2025 10:29:36 GMT-0600 (Central Standard Time),643594.4000000954,010_y_f_n_a.png,I,z,690,9,1,1713.7999999523163,641880.600000143,8012,NNB,A,7
8,test,5,0.0,2-Back,1,m,Wed Jan 08 2025 10:29:36 GMT-0600 (Central Standard Time),645327.4000000954,046_o_m_n_a.png,I,m,709,10,1,1730.6000001430511,643596.7999999523,8012,NNB,A,8
9,test,5,0.0,2-Back,1,m,Wed Jan 08 2025 10:29:36 GMT-0600 (Central Standard Time),647626.2000000477,043_m_f_n_a.png,I,m,1281,11,1,2296.5,645329.7000000477,8012,NNB,A,9
10,test,5,0.0,2-Back,1,m,Wed Jan 08 2025 10:29:36 GMT-0600 (Central Standard Time),649909.4000000954,058_m_m_n_a.png,I,m,1253,12,1,2280.9000000953674,647628.5,8012,NNB,A,10
11,test,5,0.0,2-Back,1,m,Wed Jan 08 2025 10:29:36 GMT-0600 (Central Standard Time),651808.600000143,046_o_m_n_a.png,I,m,867,13,1,1896.7000000476837,649911.9000000954,8012,NNB,A,11
12,test,5,1.0,2-Back,1,z,Wed Jan 08 2025 10:29:36 GMT-0600 (Central Standard Time),654824.100000143,058_m_m_n_a.png,I,z,1991,14,1,3013.100000143051,651811.0,8012,NNB,A,12
13,test,5,0.0,2-Back,1,m,Wed Jan 08 2025 10:29:36 GMT-0600 (Central Standard Time),656506.9000000954,063_y_f_n_a.png,I,m,656,15,1,1680.6000001430511,654826.2999999523,8012,NNB,A,13
14,test,5,0.0,2-Back,1,m,Wed Jan 08 2025 10:29:36 GMT-0600 (Central Standard Time),658356.5,053_o_m_n_a.png,I,m,821,16,1,1847.0999999046326,656509.4000000954,8012,NNB,A,14
15,test,5,0.0,2-Back,1,m,Wed Jan 08 2025 10:29:36 GMT-0600 (Central Standard Time),660172.4000000954,043_m_f_n_a.png,I,m,787,17,1,1813.5,658358.9000000954,8012,NNB,A,15
15,test,5,1.0,2-Back,0,z,Wed Jan 08 2025 10:29:36 GMT-0600 (Central Standard Time),663088.2000000477,053_o_m_n_a.png,I,m,1883,18,1,2913.4000000953674,660174.7999999523,8012,NNB,A,16
