block_c,block_dur,condition,countdown,datetime,endtime,list,multichar_response,project,response,response_time,session_number,start_end,starttime,subject_id,task,task_vers,trial
,,,,Tue Apr 08 2025 15:04:38 GMT-0500 (Central Daylight Time),,,,I,space,548,2,,,8017,WL,B,
prac,,0,,Tue Apr 08 2025 15:04:38 GMT-0500 (Central Daylight Time),,NA,b,I,b,6522,2,,,8017,WL,B,1.0
prac,,0,,Tue Apr 08 2025 15:04:38 GMT-0500 (Central Daylight Time),,NA,bo,I,o,255,2,,,8017,WL,B,1.0
prac,,0,,Tue Apr 08 2025 15:04:38 GMT-0500 (Central Daylight Time),,NA,boo,I,o,197,2,,,8017,WL,B,1.0
prac,,0,,Tue Apr 08 2025 15:04:38 GMT-0500 (Central Daylight Time),,NA,boos,I,s,50,2,,,8017,WL,B,1.0
prac,,0,,Tue Apr 08 2025 15:04:38 GMT-0500 (Central Daylight Time),,NA,boost,I,t,130,2,,,8017,WL,B,1.0
prac,,0,,Tue Apr 08 2025 15:04:38 GMT-0500 (Central Daylight Time),,NA,boostenter,I,enter,1122,2,,,8017,WL,B,1.0
1,1.315000057220459,learn,58684.99994277954,Tue Apr 08 2025 15:04:38 GMT-0500 (Central Daylight Time),124610.5,A,a,I,a,1303,2,1315.5,123295.0,8017,WL,B,1.0
1,2.248999834060669,learn,57751.00016593933,Tue Apr 08 2025 15:04:38 GMT-0500 (Central Daylight Time),125544.29999995232,A,,I,backspace,913,2,2249.2999999523163,123295.0,8017,WL,B,1.0
1,2.565999984741211,learn,57434.00001525879,Tue Apr 08 2025 15:04:38 GMT-0500 (Central Daylight Time),125861.5,A,s,I,s,301,2,2566.5,123295.0,8017,WL,B,1.0
1,2.815000057220459,learn,57184.99994277954,Tue Apr 08 2025 15:04:38 GMT-0500 (Central Daylight Time),126110.5,A,st,I,t,234,2,2815.5,123295.0,8017,WL,B,1.0
1,3.0490000247955322,learn,56950.99997520447,Tue Apr 08 2025 15:04:38 GMT-0500 (Central Daylight Time),126344.19999998808,A,str,I,r,212,2,3049.199999988079,123295.0,8017,WL,B,1.0
1,3.0980000495910645,learn,56901.999950408936,Tue Apr 08 2025 15:04:38 GMT-0500 (Central Daylight Time),126392.89999997616,A,stre,I,e,36,2,3097.899999976158,123295.0,8017,WL,B,1.0
1,3.5,learn,56500.0,Tue Apr 08 2025 15:04:38 GMT-0500 (Central Daylight Time),126795.0,A,stree,I,e,390,2,3500.0,123295.0,8017,WL,B,1.0
1,3.697999954223633,learn,56302.00004577637,Tue Apr 08 2025 15:04:38 GMT-0500 (Central Daylight Time),126993.39999997616,A,street,I,t,175,2,3698.399999976158,123295.0,8017,WL,B,1.0
1,4.098999977111816,learn,55901.00002288818,Tue Apr 08 2025 15:04:38 GMT-0500 (Central Daylight Time),127393.79999995232,A,streetenter,I,enter,381,2,4098.799999952316,123295.0,8017,WL,B,1.0
1,5.680999994277954,learn,54319.000005722046,Tue Apr 08 2025 15:04:38 GMT-0500 (Central Daylight Time),128976.09999996424,A,g,I,g,1571,2,1581.8999999761581,127394.19999998808,8017,WL,B,2.0
1,5.950999975204468,learn,54049.00002479553,Tue Apr 08 2025 15:04:38 GMT-0500 (Central Daylight Time),129245.79999995232,A,gr,I,r,263,2,1851.5999999642372,127394.19999998808,8017,WL,B,2.0
1,6.013999938964844,learn,53986.000061035156,Tue Apr 08 2025 15:04:38 GMT-0500 (Central Daylight Time),129309.59999996424,A,gra,I,a,47,2,1915.3999999761581,127394.19999998808,8017,WL,B,2.0
1,6.181999921798706,learn,53818.000078201294,Tue Apr 08 2025 15:04:38 GMT-0500 (Central Daylight Time),129476.69999998808,A,gras,I,s,154,2,2082.5,127394.19999998808,8017,WL,B,2.0
1,6.430999994277954,learn,53569.000005722046,Tue Apr 08 2025 15:04:38 GMT-0500 (Central Daylight Time),129725.89999997616,A,grass,I,s,242,2,2331.699999988079,127394.19999998808,8017,WL,B,2.0
1,6.764999866485596,learn,53235.000133514404,Tue Apr 08 2025 15:04:38 GMT-0500 (Central Daylight Time),130059.79999995232,A,grassenter,I,enter,322,2,2665.599999964237,127394.19999998808,8017,WL,B,2.0
1,9.134000062942505,learn,50865.999937057495,Tue Apr 08 2025 15:04:38 GMT-0500 (Central Daylight Time),132429.39999997616,A,s,I,s,2354,2,2369.199999988079,130060.19999998808,8017,WL,B,3.0
1,9.346999883651733,learn,50653.00011634827,Tue Apr 08 2025 15:04:38 GMT-0500 (Central Daylight Time),132641.5,A,st,I,t,202,2,2581.300000011921,130060.19999998808,8017,WL,B,3.0
1,9.411999940872192,learn,50588.00005912781,Tue Apr 08 2025 15:04:38 GMT-0500 (Central Daylight Time),132707.39999997616,A,sta,I,a,53,2,2647.199999988079,130060.19999998808,8017,WL,B,3.0
1,9.562999963760376,learn,50437.000036239624,Tue Apr 08 2025 15:04:38 GMT-0500 (Central Daylight Time),132858.0,A,star,I,r,130,2,2797.800000011921,130060.19999998808,8017,WL,B,3.0
1,10.197999954223633,learn,49802.00004577637,Tue Apr 08 2025 15:04:38 GMT-0500 (Central Daylight Time),133492.89999997616,A,starenter,I,enter,613,2,3432.699999988079,130060.19999998808,8017,WL,B,3.0
1,11.315000057220459,learn,48684.99994277954,Tue Apr 08 2025 15:04:38 GMT-0500 (Central Daylight Time),134610.39999997616,A,w,I,w,1105,2,1117.199999988079,133493.19999998808,8017,WL,B,4.0
1,11.412999868392944,learn,48587.000131607056,Tue Apr 08 2025 15:04:38 GMT-0500 (Central Daylight Time),134707.5,A,wi,I,i,84,2,1214.300000011921,133493.19999998808,8017,WL,B,4.0
1,11.628999948501587,learn,48371.00005149841,Tue Apr 08 2025 15:04:38 GMT-0500 (Central Daylight Time),134924.29999995232,A,wif,I,f,204,2,1431.0999999642372,133493.19999998808,8017,WL,B,4.0
1,11.746000051498413,learn,48253.99994850159,Tue Apr 08 2025 15:04:38 GMT-0500 (Central Daylight Time),135041.19999998808,A,wife,I,e,106,2,1548.0,133493.19999998808,8017,WL,B,4.0
1,12.129999876022339,learn,47870.00012397766,Tue Apr 08 2025 15:04:38 GMT-0500 (Central Daylight Time),135424.59999996424,A,wifeenter,I,enter,364,2,1931.3999999761581,133493.19999998808,8017,WL,B,4.0
1,13.079999923706055,learn,46920.000076293945,Tue Apr 08 2025 15:04:38 GMT-0500 (Central Daylight Time),136375.5,A,d,I,d,944,2,950.6000000238419,135424.89999997616,8017,WL,B,5.0
1,13.228999853134155,learn,46771.000146865845,Tue Apr 08 2025 15:04:38 GMT-0500 (Central Daylight Time),136524.19999998808,A,do,I,o,133,2,1099.300000011921,135424.89999997616,8017,WL,B,5.0
1,13.411999940872192,learn,46588.00005912781,Tue Apr 08 2025 15:04:38 GMT-0500 (Central Daylight Time),136707.19999998808,A,doo,I,o,162,2,1282.300000011921,135424.89999997616,8017,WL,B,5.0
1,13.494999885559082,learn,46505.00011444092,Tue Apr 08 2025 15:04:38 GMT-0500 (Central Daylight Time),136789.89999997616,A,door,I,r,68,2,1365.0,135424.89999997616,8017,WL,B,5.0
1,13.67799997329712,learn,46322.00002670288,Tue Apr 08 2025 15:04:38 GMT-0500 (Central Daylight Time),136973.39999997616,A,doorenter,I,enter,176,2,1548.5,135424.89999997616,8017,WL,B,5.0
1,14.01199984550476,learn,45988.00015449524,Tue Apr 08 2025 15:04:38 GMT-0500 (Central Daylight Time),137306.89999997616,A,w,I,w,321,2,333.10000002384186,136973.79999995232,8017,WL,B,6.0
1,14.144000053405762,learn,45855.99994659424,Tue Apr 08 2025 15:04:38 GMT-0500 (Central Daylight Time),137439.5,A,wi,I,i,114,2,465.7000000476837,136973.79999995232,8017,WL,B,6.0
1,14.328999996185303,learn,45671.0000038147,Tue Apr 08 2025 15:04:38 GMT-0500 (Central Daylight Time),137624.39999997616,A,win,I,n,161,2,650.6000000238419,136973.79999995232,8017,WL,B,6.0
1,14.41100001335144,learn,45588.99998664856,Tue Apr 08 2025 15:04:38 GMT-0500 (Central Daylight Time),137705.59999996424,A,wind,I,d,59,2,731.8000000119209,136973.79999995232,8017,WL,B,6.0
1,14.562000036239624,learn,45437.999963760376,Tue Apr 08 2025 15:04:38 GMT-0500 (Central Daylight Time),137857.39999997616,A,windo,I,o,131,2,883.6000000238419,136973.79999995232,8017,WL,B,6.0
1,14.744999885559082,learn,45255.00011444092,Tue Apr 08 2025 15:04:38 GMT-0500 (Central Daylight Time),138039.79999995232,A,window,I,w,159,2,1066.0,136973.79999995232,8017,WL,B,6.0
1,14.894999980926514,learn,45105.000019073486,Tue Apr 08 2025 15:04:38 GMT-0500 (Central Daylight Time),138189.89999997616,A,windowenter,I,enter,143,2,1216.1000000238419,136973.79999995232,8017,WL,B,6.0
1,15.294999837875366,learn,44705.000162124634,Tue Apr 08 2025 15:04:38 GMT-0500 (Central Daylight Time),138590.39999997616,A,p,I,p,395,2,400.19999998807907,138190.19999998808,8017,WL,B,7.0
1,15.44700002670288,learn,44552.99997329712,Tue Apr 08 2025 15:04:38 GMT-0500 (Central Daylight Time),138742.19999998808,A,pu,I,u,127,2,552.0,138190.19999998808,8017,WL,B,7.0
1,15.794999837875366,learn,44205.000162124634,Tue Apr 08 2025 15:04:38 GMT-0500 (Central Daylight Time),139090.29999995232,A,pup,I,p,335,2,900.0999999642372,138190.19999998808,8017,WL,B,7.0
1,16.128999948501587,learn,43871.00005149841,Tue Apr 08 2025 15:04:38 GMT-0500 (Central Daylight Time),139424.0,A,pupi,I,i,326,2,1233.800000011921,138190.19999998808,8017,WL,B,7.0
1,16.461999893188477,learn,43538.00010681152,Tue Apr 08 2025 15:04:38 GMT-0500 (Central Daylight Time),139757.0,A,pupil,I,l,316,2,1566.800000011921,138190.19999998808,8017,WL,B,7.0
1,16.694999933242798,learn,43305.0000667572,Tue Apr 08 2025 15:04:38 GMT-0500 (Central Daylight Time),139990.19999998808,A,pupilenter,I,enter,225,2,1800.0,138190.19999998808,8017,WL,B,7.0
1,17.128000020980835,learn,42871.999979019165,Tue Apr 08 2025 15:04:38 GMT-0500 (Central Daylight Time),140423.5,A,p,I,p,417,2,433.0,139990.5,8017,WL,B,8.0
1,17.246000051498413,learn,42753.99994850159,Tue Apr 08 2025 15:04:38 GMT-0500 (Central Daylight Time),140540.79999995232,A,pi,I,i,104,2,550.2999999523163,139990.5,8017,WL,B,8.0
1,17.560999870300293,learn,42439.00012969971,Tue Apr 08 2025 15:04:38 GMT-0500 (Central Daylight Time),140856.19999998808,A,pii,I,i,296,2,865.6999999880791,139990.5,8017,WL,B,8.0
1,17.60800004005432,learn,42391.99995994568,Tue Apr 08 2025 15:04:38 GMT-0500 (Central Daylight Time),140903.5,A,piip,I,p,29,2,913.0,139990.5,8017,WL,B,8.0
1,18.177000045776367,learn,41822.99995422363,Tue Apr 08 2025 15:04:38 GMT-0500 (Central Daylight Time),141472.09999996424,A,pii,I,backspace,551,2,1481.5999999642372,139990.5,8017,WL,B,8.0
1,18.310999870300293,learn,41689.00012969971,Tue Apr 08 2025 15:04:38 GMT-0500 (Central Daylight Time),141606.29999995232,A,pi,I,backspace,128,2,1615.7999999523163,139990.5,8017,WL,B,8.0
1,18.57699990272522,learn,41423.00009727478,Tue Apr 08 2025 15:04:38 GMT-0500 (Central Daylight Time),141872.29999995232,A,pip,I,p,255,2,1881.7999999523163,139990.5,8017,WL,B,8.0
1,18.76099991798401,learn,41239.00008201599,Tue Apr 08 2025 15:04:38 GMT-0500 (Central Daylight Time),142055.79999995232,A,pipe,I,e,164,2,2065.2999999523163,139990.5,8017,WL,B,8.0
1,18.960000038146973,learn,41039.99996185303,Tue Apr 08 2025 15:04:38 GMT-0500 (Central Daylight Time),142255.09999996424,A,pipeenter,I,enter,183,2,2264.599999964237,139990.5,8017,WL,B,8.0
1,19.5939998626709,learn,40406.0001373291,Tue Apr 08 2025 15:04:38 GMT-0500 (Central Daylight Time),142888.79999995232,A,c,I,c,616,2,633.2999999523163,142255.5,8017,WL,B,9.0
1,19.67799997329712,learn,40322.00002670288,Tue Apr 08 2025 15:04:38 GMT-0500 (Central Daylight Time),142972.79999995232,A,ca,I,a,77,2,717.2999999523163,142255.5,8017,WL,B,9.0
1,20.009999990463257,learn,39990.00000953674,Tue Apr 08 2025 15:04:38 GMT-0500 (Central Daylight Time),143305.09999996424,A,cab,I,b,322,2,1049.5999999642372,142255.5,8017,WL,B,9.0
1,20.177000045776367,learn,39822.99995422363,Tue Apr 08 2025 15:04:38 GMT-0500 (Central Daylight Time),143471.89999997616,A,cabi,I,i,148,2,1216.3999999761581,142255.5,8017,WL,B,9.0
1,20.277999877929688,learn,39722.00012207031,Tue Apr 08 2025 15:04:38 GMT-0500 (Central Daylight Time),143572.59999996424,A,cabin,I,n,77,2,1317.0999999642372,142255.5,8017,WL,B,9.0
1,20.64299988746643,learn,39357.00011253357,Tue Apr 08 2025 15:04:38 GMT-0500 (Central Daylight Time),143938.29999995232,A,cabinenter,I,enter,344,2,1682.7999999523163,142255.5,8017,WL,B,9.0
1,21.692999839782715,learn,38307.000160217285,Tue Apr 08 2025 15:04:38 GMT-0500 (Central Daylight Time),144988.19999998808,A,f,I,f,1028,2,1049.5,143938.69999998808,8017,WL,B,10.0
1,21.79200005531311,learn,38207.99994468689,Tue Apr 08 2025 15:04:38 GMT-0500 (Central Daylight Time),145086.79999995232,A,fi,I,i,89,2,1148.0999999642372,143938.69999998808,8017,WL,B,10.0
1,21.91100001335144,learn,38088.99998664856,Tue Apr 08 2025 15:04:38 GMT-0500 (Central Daylight Time),145206.39999997616,A,fir,I,r,112,2,1267.699999988079,143938.69999998808,8017,WL,B,10.0
1,21.993000030517578,learn,38006.99996948242,Tue Apr 08 2025 15:04:38 GMT-0500 (Central Daylight Time),145288.19999998808,A,fire,I,e,63,2,1349.5,143938.69999998808,8017,WL,B,10.0
1,22.358999967575073,learn,37641.00003242493,Tue Apr 08 2025 15:04:38 GMT-0500 (Central Daylight Time),145654.39999997616,A,fireenter,I,enter,349,2,1715.699999988079,143938.69999998808,8017,WL,B,10.0
1,32.539000034332275,learn,27460.999965667725,Tue Apr 08 2025 15:04:38 GMT-0500 (Central Daylight Time),155834.39999997616,A,i,I,i,10164,2,10179.800000011921,145654.59999996424,8017,WL,B,11.0
1,33.03999996185303,learn,26960.000038146973,Tue Apr 08 2025 15:04:38 GMT-0500 (Central Daylight Time),156335.0,A,,I,backspace,492,2,10680.400000035763,145654.59999996424,8017,WL,B,11.0
1,33.19099998474121,learn,26809.00001525879,Tue Apr 08 2025 15:04:38 GMT-0500 (Central Daylight Time),156486.19999998808,A,w,I,w,143,2,10831.600000023842,145654.59999996424,8017,WL,B,11.0
1,33.33899998664856,learn,26661.00001335144,Tue Apr 08 2025 15:04:38 GMT-0500 (Central Daylight Time),156634.5,A,wi,I,i,126,2,10979.900000035763,145654.59999996424,8017,WL,B,11.0
1,33.48899984359741,learn,26511.000156402588,Tue Apr 08 2025 15:04:38 GMT-0500 (Central Daylight Time),156783.89999997616,A,win,I,n,142,2,11129.300000011921,145654.59999996424,8017,WL,B,11.0
1,33.60699987411499,learn,26393.00012588501,Tue Apr 08 2025 15:04:38 GMT-0500 (Central Daylight Time),156901.79999995232,A,wind,I,d,111,2,11247.199999988079,145654.59999996424,8017,WL,B,11.0
1,33.77199983596802,learn,26228.000164031982,Tue Apr 08 2025 15:04:38 GMT-0500 (Central Daylight Time),157067.09999996424,A,windo,I,o,152,2,11412.5,145654.59999996424,8017,WL,B,11.0
1,33.92199993133545,learn,26078.00006866455,Tue Apr 08 2025 15:04:38 GMT-0500 (Central Daylight Time),157217.19999998808,A,window,I,w,131,2,11562.600000023842,145654.59999996424,8017,WL,B,11.0
1,34.055999994277954,learn,25944.000005722046,Tue Apr 08 2025 15:04:38 GMT-0500 (Central Daylight Time),157351.0,A,windowenter,I,enter,116,2,11696.400000035763,145654.59999996424,8017,WL,B,11.0
1,39.937000036239624,learn,20062.999963760376,Tue Apr 08 2025 15:04:38 GMT-0500 (Central Daylight Time),163231.69999998808,A,w,I,w,5864,2,5880.300000011921,157351.39999997616,8017,WL,B,12.0
1,40.15499997138977,learn,19845.00002861023,Tue Apr 08 2025 15:04:38 GMT-0500 (Central Daylight Time),163450.09999996424,A,wi,I,i,206,2,6098.699999988079,157351.39999997616,8017,WL,B,12.0
1,40.269999980926514,learn,19730.000019073486,Tue Apr 08 2025 15:04:38 GMT-0500 (Central Daylight Time),163565.39999997616,A,wif,I,f,99,2,6214.0,157351.39999997616,8017,WL,B,12.0
1,40.35199999809265,learn,19648.00000190735,Tue Apr 08 2025 15:04:38 GMT-0500 (Central Daylight Time),163647.29999995232,A,wife,I,e,65,2,6295.899999976158,157351.39999997616,8017,WL,B,12.0
1,40.550999879837036,learn,19449.000120162964,Tue Apr 08 2025 15:04:38 GMT-0500 (Central Daylight Time),163846.09999996424,A,wifeenter,I,enter,181,2,6494.699999988079,157351.39999997616,8017,WL,B,12.0
1,44.78600001335144,learn,15213.99998664856,Tue Apr 08 2025 15:04:38 GMT-0500 (Central Daylight Time),168080.89999997616,A,s,I,s,4219,2,4234.600000023842,163846.29999995232,8017,WL,B,13.0
1,45.61899995803833,learn,14381.00004196167,Tue Apr 08 2025 15:04:38 GMT-0500 (Central Daylight Time),168914.0,A,,I,backspace,814,2,5067.700000047684,163846.29999995232,8017,WL,B,13.0
1,58.6800000667572,learn,1319.9999332427979,Tue Apr 08 2025 15:04:38 GMT-0500 (Central Daylight Time),181975.5,A,s,I,s,13046,2,18129.200000047684,163846.29999995232,8017,WL,B,13.0
1,59.079999923706055,learn,920.0000762939453,Tue Apr 08 2025 15:04:38 GMT-0500 (Central Daylight Time),182375.69999998808,A,,I,backspace,384,2,18529.400000035763,163846.29999995232,8017,WL,B,13.0
1,59.24499988555908,learn,755.000114440918,Tue Apr 08 2025 15:04:38 GMT-0500 (Central Daylight Time),182541.0,A,c,I,c,151,2,18694.700000047684,163846.29999995232,8017,WL,B,13.0
1,59.36399984359741,learn,636.0001564025879,Tue Apr 08 2025 15:04:38 GMT-0500 (Central Daylight Time),182659.39999997616,A,ci,I,i,99,2,18813.100000023842,163846.29999995232,8017,WL,B,13.0
1,59.562999963760376,learn,437.000036239624,Tue Apr 08 2025 15:04:38 GMT-0500 (Central Daylight Time),182858.79999995232,A,cit,I,t,188,2,19012.5,163846.29999995232,8017,WL,B,13.0
1,59.662999868392944,learn,337.00013160705566,Tue Apr 08 2025 15:04:38 GMT-0500 (Central Daylight Time),182958.89999997616,A,city,I,y,93,2,19112.600000023842,163846.29999995232,8017,WL,B,13.0
1,59.94599986076355,learn,54.000139236450195,Tue Apr 08 2025 15:04:38 GMT-0500 (Central Daylight Time),183241.39999997616,A,cityenter,I,enter,265,2,19395.100000023842,163846.29999995232,8017,WL,B,13.0
1,60.01300001144409,learn,-13.000011444091797,Tue Apr 08 2025 15:04:38 GMT-0500 (Central Daylight Time),183308.79999995232,A,None,I,None,63,2,67.09999996423721,183241.69999998808,8017,WL,B,14.0
2,0.9839999675750732,learn,59016.00003242493,Tue Apr 08 2025 15:04:38 GMT-0500 (Central Daylight Time),253687.79999995232,A,c,I,c,972,2,983.6999999880791,252704.09999996424,8017,WL,B,1.0
2,1.0999999046325684,learn,58900.00009536743,Tue Apr 08 2025 15:04:38 GMT-0500 (Central Daylight Time),253803.5,A,cl,I,l,99,2,1099.4000000357628,252704.09999996424,8017,WL,B,1.0
2,1.3509998321533203,learn,58649.00016784668,Tue Apr 08 2025 15:04:38 GMT-0500 (Central Daylight Time),254054.0,A,clo,I,o,229,2,1349.9000000357628,252704.09999996424,8017,WL,B,1.0
2,1.4149999618530273,learn,58585.00003814697,Tue Apr 08 2025 15:04:38 GMT-0500 (Central Daylight Time),254117.89999997616,A,clos,I,s,52,2,1413.800000011921,252704.09999996424,8017,WL,B,1.0
2,1.6159999370574951,learn,58384.000062942505,Tue Apr 08 2025 15:04:38 GMT-0500 (Central Daylight Time),254319.79999995232,A,closc,I,c,192,2,1615.699999988079,252704.09999996424,8017,WL,B,1.0
2,1.7349998950958252,learn,58265.000104904175,Tue Apr 08 2025 15:04:38 GMT-0500 (Central Daylight Time),254438.09999996424,A,closck,I,k,96,2,1734.0,252704.09999996424,8017,WL,B,1.0
2,2.550999879837036,learn,57449.000120162964,Tue Apr 08 2025 15:04:38 GMT-0500 (Central Daylight Time),255254.79999995232,A,closc,I,backspace,793,2,2550.699999988079,252704.09999996424,8017,WL,B,1.0
2,2.7849998474121094,learn,57215.00015258789,Tue Apr 08 2025 15:04:38 GMT-0500 (Central Daylight Time),255488.59999996424,A,clos,I,backspace,212,2,2784.5,252704.09999996424,8017,WL,B,1.0
2,2.93399977684021,learn,57066.00022315979,Tue Apr 08 2025 15:04:38 GMT-0500 (Central Daylight Time),255637.29999995232,A,clo,I,backspace,131,2,2933.199999988079,252704.09999996424,8017,WL,B,1.0
2,4.247999906539917,learn,55752.00009346008,Tue Apr 08 2025 15:04:38 GMT-0500 (Central Daylight Time),256951.39999997616,A,cloc,I,c,1299,2,4247.300000011921,252704.09999996424,8017,WL,B,1.0
2,4.382999897003174,learn,55617.000102996826,Tue Apr 08 2025 15:04:38 GMT-0500 (Central Daylight Time),257086.59999996424,A,clock,I,k,117,2,4382.5,252704.09999996424,8017,WL,B,1.0
2,4.73199987411499,learn,55268.00012588501,Tue Apr 08 2025 15:04:38 GMT-0500 (Central Daylight Time),257435.69999998808,A,clockenter,I,enter,334,2,4731.600000023842,252704.09999996424,8017,WL,B,1.0
2,7.732999801635742,learn,52267.00019836426,Tue Apr 08 2025 15:04:38 GMT-0500 (Central Daylight Time),260435.89999997616,A,c,I,c,2989,2,2999.899999976158,257436.0,8017,WL,B,2.0
2,7.966999769210815,learn,52033.000230789185,Tue Apr 08 2025 15:04:38 GMT-0500 (Central Daylight Time),260670.09999996424,A,ca,I,a,227,2,3234.099999964237,257436.0,8017,WL,B,2.0
2,8.163999795913696,learn,51836.000204086304,Tue Apr 08 2025 15:04:38 GMT-0500 (Central Daylight Time),260867.69999998808,A,cab,I,b,184,2,3431.699999988079,257436.0,8017,WL,B,2.0
2,8.381999969482422,learn,51618.00003051758,Tue Apr 08 2025 15:04:38 GMT-0500 (Central Daylight Time),261084.89999997616,A,cabi,I,i,210,2,3648.899999976158,257436.0,8017,WL,B,2.0
2,8.480999946594238,learn,51519.00005340576,Tue Apr 08 2025 15:04:38 GMT-0500 (Central Daylight Time),261184.39999997616,A,cabin,I,n,90,2,3748.399999976158,257436.0,8017,WL,B,2.0
2,8.781999826431274,learn,51218.000173568726,Tue Apr 08 2025 15:04:38 GMT-0500 (Central Daylight Time),261485.19999998808,A,cabinenter,I,enter,294,2,4049.199999988079,257436.0,8017,WL,B,2.0
2,9.38099980354309,learn,50619.00019645691,Tue Apr 08 2025 15:04:38 GMT-0500 (Central Daylight Time),262084.39999997616,A,d,I,d,578,2,598.8999999761581,261485.5,8017,WL,B,3.0
2,9.496999979019165,learn,50503.000020980835,Tue Apr 08 2025 15:04:38 GMT-0500 (Central Daylight Time),262200.0,A,do,I,o,107,2,714.5,261485.5,8017,WL,B,3.0
2,9.663999795913696,learn,50336.000204086304,Tue Apr 08 2025 15:04:38 GMT-0500 (Central Daylight Time),262367.1999999881,A,doo,I,o,159,2,881.6999999880791,261485.5,8017,WL,B,3.0
2,9.780999898910522,learn,50219.00010108948,Tue Apr 08 2025 15:04:38 GMT-0500 (Central Daylight Time),262484.09999996424,A,door,I,r,102,2,998.5999999642372,261485.5,8017,WL,B,3.0
2,10.246999979019165,learn,49753.000020980835,Tue Apr 08 2025 15:04:38 GMT-0500 (Central Daylight Time),262950.7999999523,A,doorenter,I,enter,451,2,1465.2999999523163,261485.5,8017,WL,B,3.0
2,10.563999891281128,learn,49436.00010871887,Tue Apr 08 2025 15:04:38 GMT-0500 (Central Daylight Time),263266.89999997616,A,w,I,w,305,2,315.89999997615814,262951.0,8017,WL,B,4.0
2,10.679999828338623,learn,49320.00017166138,Tue Apr 08 2025 15:04:38 GMT-0500 (Central Daylight Time),263383.1999999881,A,wi,I,i,109,2,432.19999998807907,262951.0,8017,WL,B,4.0
2,10.77999997138977,learn,49220.00002861023,Tue Apr 08 2025 15:04:38 GMT-0500 (Central Daylight Time),263483.6999999881,A,win,I,n,85,2,532.6999999880791,262951.0,8017,WL,B,4.0
2,10.846999883651733,learn,49153.00011634827,Tue Apr 08 2025 15:04:38 GMT-0500 (Central Daylight Time),263550.0,A,wind,I,d,60,2,599.0,262951.0,8017,WL,B,4.0
2,10.997999906539917,learn,49002.00009346008,Tue Apr 08 2025 15:04:38 GMT-0500 (Central Daylight Time),263701.6999999881,A,windo,I,o,145,2,750.6999999880791,262951.0,8017,WL,B,4.0
2,11.230999946594238,learn,48769.00005340576,Tue Apr 08 2025 15:04:38 GMT-0500 (Central Daylight Time),263934.5,A,window,I,w,226,2,983.5,262951.0,8017,WL,B,4.0
2,11.348999977111816,learn,48651.00002288818,Tue Apr 08 2025 15:04:38 GMT-0500 (Central Daylight Time),264052.2999999523,A,windowenter,I,enter,112,2,1101.2999999523163,262951.0,8017,WL,B,4.0
2,11.895999908447266,learn,48104.000091552734,Tue Apr 08 2025 15:04:38 GMT-0500 (Central Daylight Time),264599.0,A,w,I,w,538,2,546.3000000119209,264052.6999999881,8017,WL,B,5.0
2,12.01199984550476,learn,47988.00015449524,Tue Apr 08 2025 15:04:38 GMT-0500 (Central Daylight Time),264714.7999999523,A,wi,I,i,105,2,662.0999999642372,264052.6999999881,8017,WL,B,5.0
2,12.180999994277954,learn,47819.000005722046,Tue Apr 08 2025 15:04:38 GMT-0500 (Central Daylight Time),264884.0,A,wif,I,f,148,2,831.3000000119209,264052.6999999881,8017,WL,B,5.0
2,12.245999813079834,learn,47754.000186920166,Tue Apr 08 2025 15:04:38 GMT-0500 (Central Daylight Time),264949.2999999523,A,wife,I,e,43,2,896.5999999642372,264052.6999999881,8017,WL,B,5.0
2,12.495999813079834,learn,47504.000186920166,Tue Apr 08 2025 15:04:38 GMT-0500 (Central Daylight Time),265199.39999997616,A,wifeenter,I,enter,233,2,1146.699999988079,264052.6999999881,8017,WL,B,5.0
2,13.995999813079834,learn,46004.000186920166,Tue Apr 08 2025 15:04:38 GMT-0500 (Central Daylight Time),266699.7999999523,A,s,I,s,1481,2,1500.199999988079,265199.59999996424,8017,WL,B,6.0
2,14.127999782562256,learn,45872.000217437744,Tue Apr 08 2025 15:04:38 GMT-0500 (Central Daylight Time),266831.89999997616,A,sk,I,k,121,2,1632.300000011921,265199.59999996424,8017,WL,B,6.0
2,14.329999923706055,learn,45670.000076293945,Tue Apr 08 2025 15:04:38 GMT-0500 (Central Daylight Time),267033.1999999881,A,ski,I,i,184,2,1833.6000000238419,265199.59999996424,8017,WL,B,6.0
2,14.412999868392944,learn,45587.000131607056,Tue Apr 08 2025 15:04:38 GMT-0500 (Central Daylight Time),267116.6999999881,A,skin,I,n,77,2,1917.1000000238419,265199.59999996424,8017,WL,B,6.0
2,14.662999868392944,learn,45337.000131607056,Tue Apr 08 2025 15:04:38 GMT-0500 (Central Daylight Time),267366.1999999881,A,skinenter,I,enter,234,2,2166.600000023842,265199.59999996424,8017,WL,B,6.0
2,14.912999868392944,learn,45087.000131607056,Tue Apr 08 2025 15:04:38 GMT-0500 (Central Daylight Time),267615.89999997616,A,a,I,a,242,2,249.39999997615814,267366.5,8017,WL,B,7.0
2,15.095999956130981,learn,44904.00004386902,Tue Apr 08 2025 15:04:38 GMT-0500 (Central Daylight Time),267799.5,A,ar,I,r,168,2,433.0,267366.5,8017,WL,B,7.0
2,15.262999773025513,learn,44737.00022697449,Tue Apr 08 2025 15:04:38 GMT-0500 (Central Daylight Time),267966.89999997616,A,arm,I,m,160,2,600.3999999761581,267366.5,8017,WL,B,7.0
2,15.678999900817871,learn,44321.00009918213,Tue Apr 08 2025 15:04:38 GMT-0500 (Central Daylight Time),268381.7999999523,A,armenter,I,enter,399,2,1015.2999999523163,267366.5,8017,WL,B,7.0
2,15.977999925613403,learn,44022.0000743866,Tue Apr 08 2025 15:04:38 GMT-0500 (Central Daylight Time),268681.09999996424,A,p,I,p,282,2,298.89999997615814,268382.1999999881,8017,WL,B,8.0
2,16.07799983024597,learn,43922.00016975403,Tue Apr 08 2025 15:04:38 GMT-0500 (Central Daylight Time),268781.2999999523,A,pi,I,i,93,2,399.0999999642372,268382.1999999881,8017,WL,B,8.0
2,16.27999997138977,learn,43720.00002861023,Tue Apr 08 2025 15:04:38 GMT-0500 (Central Daylight Time),268982.7999999523,A,pip,I,p,194,2,600.5999999642372,268382.1999999881,8017,WL,B,8.0
2,16.494999885559082,learn,43505.00011444092,Tue Apr 08 2025 15:04:38 GMT-0500 (Central Daylight Time),269198.5,A,pipe,I,e,207,2,816.3000000119209,268382.1999999881,8017,WL,B,8.0
2,16.645999908447266,learn,43354.000091552734,Tue Apr 08 2025 15:04:38 GMT-0500 (Central Daylight Time),269348.89999997616,A,pipeenter,I,enter,134,2,966.6999999880791,268382.1999999881,8017,WL,B,8.0
2,17.144999980926514,learn,42855.000019073486,Tue Apr 08 2025 15:04:38 GMT-0500 (Central Daylight Time),269848.0,A,s,I,s,482,2,498.9000000357628,269349.09999996424,8017,WL,B,9.0
2,17.32799983024597,learn,42672.00016975403,Tue Apr 08 2025 15:04:38 GMT-0500 (Central Daylight Time),270031.59999996424,A,st,I,t,167,2,682.5,269349.09999996424,8017,WL,B,9.0
2,17.39299988746643,learn,42607.00011253357,Tue Apr 08 2025 15:04:38 GMT-0500 (Central Daylight Time),270096.59999996424,A,sta,I,a,54,2,747.5,269349.09999996424,8017,WL,B,9.0
2,17.51199984550476,learn,42488.00015449524,Tue Apr 08 2025 15:04:38 GMT-0500 (Central Daylight Time),270215.09999996424,A,star,I,r,104,2,866.0,269349.09999996424,8017,WL,B,9.0
2,18.126999855041504,learn,41873.000144958496,Tue Apr 08 2025 15:04:38 GMT-0500 (Central Daylight Time),270830.2999999523,A,starenter,I,enter,600,2,1481.199999988079,269349.09999996424,8017,WL,B,9.0
2,18.59499979019165,learn,41405.00020980835,Tue Apr 08 2025 15:04:38 GMT-0500 (Central Daylight Time),271298.39999997616,A,p,I,p,458,2,467.69999998807907,270830.6999999881,8017,WL,B,10.0
2,18.76099991798401,learn,41239.00008201599,Tue Apr 08 2025 15:04:38 GMT-0500 (Central Daylight Time),271464.6999999881,A,pu,I,u,160,2,634.0,270830.6999999881,8017,WL,B,10.0
2,18.977999925613403,learn,41022.0000743866,Tue Apr 08 2025 15:04:38 GMT-0500 (Central Daylight Time),271681.1999999881,A,pub,I,b,206,2,850.5,270830.6999999881,8017,WL,B,10.0
2,19.360999822616577,learn,40639.00017738342,Tue Apr 08 2025 15:04:38 GMT-0500 (Central Daylight Time),272064.7999999523,A,pu,I,backspace,367,2,1234.0999999642372,270830.6999999881,8017,WL,B,10.0
2,19.610999822616577,learn,40389.00017738342,Tue Apr 08 2025 15:04:38 GMT-0500 (Central Daylight Time),272314.5,A,pup,I,p,230,2,1483.800000011921,270830.6999999881,8017,WL,B,10.0
2,19.693999767303467,learn,40306.00023269653,Tue Apr 08 2025 15:04:38 GMT-0500 (Central Daylight Time),272396.89999997616,A,pupi,I,i,59,2,1566.199999988079,270830.6999999881,8017,WL,B,10.0
2,19.960999965667725,learn,40039.000034332275,Tue Apr 08 2025 15:04:38 GMT-0500 (Central Daylight Time),272664.2999999523,A,pupil,I,l,248,2,1833.5999999642372,270830.6999999881,8017,WL,B,10.0
2,20.192999839782715,learn,39807.000160217285,Tue Apr 08 2025 15:04:38 GMT-0500 (Central Daylight Time),272896.6999999881,A,pupilenter,I,enter,216,2,2066.0,270830.6999999881,8017,WL,B,10.0
2,21.59499979019165,learn,38405.00020980835,Tue Apr 08 2025 15:04:38 GMT-0500 (Central Daylight Time),274298.0,A,f,I,f,1384,2,1401.0,272897.0,8017,WL,B,11.0
2,21.893999814987183,learn,38106.00018501282,Tue Apr 08 2025 15:04:38 GMT-0500 (Central Daylight Time),274597.6999999881,A,fi,I,i,293,2,1700.699999988079,272897.0,8017,WL,B,11.0
2,22.027999877929688,learn,37972.00012207031,Tue Apr 08 2025 15:04:38 GMT-0500 (Central Daylight Time),274730.89999997616,A,fir,I,r,112,2,1833.8999999761581,272897.0,8017,WL,B,11.0
2,22.074999809265137,learn,37925.00019073486,Tue Apr 08 2025 15:04:38 GMT-0500 (Central Daylight Time),274778.7999999523,A,fire,I,e,32,2,1881.7999999523163,272897.0,8017,WL,B,11.0
2,22.375999927520752,learn,37624.00007247925,Tue Apr 08 2025 15:04:38 GMT-0500 (Central Daylight Time),275079.2999999523,A,fireenter,I,enter,293,2,2182.2999999523163,272897.0,8017,WL,B,11.0
2,23.0939998626709,learn,36906.0001373291,Tue Apr 08 2025 15:04:38 GMT-0500 (Central Daylight Time),275797.6999999881,A,g,I,g,697,2,718.1000000238419,275079.59999996424,8017,WL,B,12.0
2,23.277999877929688,learn,36722.00012207031,Tue Apr 08 2025 15:04:38 GMT-0500 (Central Daylight Time),275981.5,A,gr,I,r,176,2,901.9000000357628,275079.59999996424,8017,WL,B,12.0
2,23.341999769210815,learn,36658.000230789185,Tue Apr 08 2025 15:04:38 GMT-0500 (Central Daylight Time),276045.6999999881,A,gra,I,a,49,2,966.1000000238419,275079.59999996424,8017,WL,B,12.0
2,23.55999994277954,learn,36440.00005722046,Tue Apr 08 2025 15:04:38 GMT-0500 (Central Daylight Time),276263.1999999881,A,gras,I,s,202,2,1183.6000000238419,275079.59999996424,8017,WL,B,12.0
2,23.759999990463257,learn,36240.00000953674,Tue Apr 08 2025 15:04:38 GMT-0500 (Central Daylight Time),276463.2999999523,A,grass,I,s,191,2,1383.699999988079,275079.59999996424,8017,WL,B,12.0
2,23.89199995994568,learn,36108.00004005432,Tue Apr 08 2025 15:04:38 GMT-0500 (Central Daylight Time),276595.39999997616,A,grassenter,I,enter,108,2,1515.800000011921,275079.59999996424,8017,WL,B,12.0
2,24.20899987220764,learn,35791.00012779236,Tue Apr 08 2025 15:04:38 GMT-0500 (Central Daylight Time),276912.59999996424,A,c,I,c,309,2,316.89999997615814,276595.6999999881,8017,WL,B,13.0
2,24.360999822616577,learn,35639.00017738342,Tue Apr 08 2025 15:04:38 GMT-0500 (Central Daylight Time),277064.0,A,ci,I,i,144,2,468.30000001192093,276595.6999999881,8017,WL,B,13.0
2,24.492999792099,learn,35507.000207901,Tue Apr 08 2025 15:04:38 GMT-0500 (Central Daylight Time),277196.5,A,cit,I,t,109,2,600.8000000119209,276595.6999999881,8017,WL,B,13.0
2,24.592999935150146,learn,35407.00006484985,Tue Apr 08 2025 15:04:38 GMT-0500 (Central Daylight Time),277296.09999996424,A,city,I,y,88,2,700.3999999761581,276595.6999999881,8017,WL,B,13.0
2,24.893999814987183,learn,35106.00018501282,Tue Apr 08 2025 15:04:38 GMT-0500 (Central Daylight Time),277597.1999999881,A,cityenter,I,enter,294,2,1001.5,276595.6999999881,8017,WL,B,13.0
2,25.191999912261963,learn,34808.00008773804,Tue Apr 08 2025 15:04:38 GMT-0500 (Central Daylight Time),277895.2999999523,A,s,I,s,282,2,297.89999997615814,277597.39999997616,8017,WL,B,14.0
2,25.407999992370605,learn,34592.000007629395,Tue Apr 08 2025 15:04:38 GMT-0500 (Central Daylight Time),278111.5,A,st,I,t,210,2,514.1000000238419,277597.39999997616,8017,WL,B,14.0
2,25.575999975204468,learn,34424.00002479553,Tue Apr 08 2025 15:04:38 GMT-0500 (Central Daylight Time),278279.7999999523,A,str,I,r,163,2,682.3999999761581,277597.39999997616,8017,WL,B,14.0
2,25.62399983406067,learn,34376.00016593933,Tue Apr 08 2025 15:04:38 GMT-0500 (Central Daylight Time),278327.0,A,stre,I,e,29,2,729.6000000238419,277597.39999997616,8017,WL,B,14.0
2,25.80999994277954,learn,34190.00005722046,Tue Apr 08 2025 15:04:38 GMT-0500 (Central Daylight Time),278513.6999999881,A,stree,I,e,169,2,916.3000000119209,277597.39999997616,8017,WL,B,14.0
2,25.87399983406067,learn,34126.00016593933,Tue Apr 08 2025 15:04:38 GMT-0500 (Central Daylight Time),278577.39999997616,A,street,I,t,53,2,980.0,277597.39999997616,8017,WL,B,14.0
2,26.20899987220764,learn,33791.00012779236,Tue Apr 08 2025 15:04:38 GMT-0500 (Central Daylight Time),278912.39999997616,A,streetenter,I,enter,317,2,1315.0,277597.39999997616,8017,WL,B,14.0
2,26.692999839782715,learn,33307.000160217285,Tue Apr 08 2025 15:04:38 GMT-0500 (Central Daylight Time),279396.6999999881,A,c,I,c,463,2,484.10000002384186,278912.59999996424,8017,WL,B,15.0
2,26.774999856948853,learn,33225.00014305115,Tue Apr 08 2025 15:04:38 GMT-0500 (Central Daylight Time),279478.1999999881,A,ca,I,a,76,2,565.6000000238419,278912.59999996424,8017,WL,B,15.0
2,26.942999839782715,learn,33057.000160217285,Tue Apr 08 2025 15:04:38 GMT-0500 (Central Daylight Time),279646.7999999523,A,cab,I,b,153,2,734.1999999880791,278912.59999996424,8017,WL,B,15.0
2,27.057999849319458,learn,32942.00015068054,Tue Apr 08 2025 15:04:38 GMT-0500 (Central Daylight Time),279760.89999997616,A,cabi,I,i,95,2,848.3000000119209,278912.59999996424,8017,WL,B,15.0
2,27.14299988746643,learn,32857.00011253357,Tue Apr 08 2025 15:04:38 GMT-0500 (Central Daylight Time),279846.6999999881,A,cabin,I,n,67,2,934.1000000238419,278912.59999996424,8017,WL,B,15.0
2,27.341999769210815,learn,32658.000230789185,Tue Apr 08 2025 15:04:38 GMT-0500 (Central Daylight Time),280045.59999996424,A,cabinenter,I,enter,189,2,1133.0,278912.59999996424,8017,WL,B,15.0
3,2.0490000247955322,learn,57950.99997520447,Tue Apr 08 2025 15:04:38 GMT-0500 (Central Daylight Time),350839.59999996424,A,p,I,p,2042,2,2048.399999976158,348791.1999999881,8017,WL,B,1.0
3,2.4000000953674316,learn,57599.99990463257,Tue Apr 08 2025 15:04:38 GMT-0500 (Central Daylight Time),351190.6999999881,A,pi,I,i,335,2,2399.5,348791.1999999881,8017,WL,B,1.0
3,2.5999999046325684,learn,57400.00009536743,Tue Apr 08 2025 15:04:38 GMT-0500 (Central Daylight Time),351391.1999999881,A,pip,I,p,194,2,2600.0,348791.1999999881,8017,WL,B,1.0
3,2.8329999446868896,learn,57167.00005531311,Tue Apr 08 2025 15:04:38 GMT-0500 (Central Daylight Time),351623.6999999881,A,pipe,I,e,226,2,2832.5,348791.1999999881,8017,WL,B,1.0
3,3.197000026702881,learn,56802.99997329712,Tue Apr 08 2025 15:04:38 GMT-0500 (Central Daylight Time),351988.1999999881,A,pipeenter,I,enter,352,2,3197.0,348791.1999999881,8017,WL,B,1.0
3,3.631999969482422,learn,56368.00003051758,Tue Apr 08 2025 15:04:38 GMT-0500 (Central Daylight Time),352422.89999997616,A,c,I,c,420,2,434.39999997615814,351988.5,8017,WL,B,2.0
3,3.746999979019165,learn,56253.000020980835,Tue Apr 08 2025 15:04:38 GMT-0500 (Central Daylight Time),352537.7999999523,A,cl,I,l,102,2,549.2999999523163,351988.5,8017,WL,B,2.0
3,4.0309998989105225,learn,55969.00010108948,Tue Apr 08 2025 15:04:38 GMT-0500 (Central Daylight Time),352822.2999999523,A,clo,I,o,268,2,833.7999999523163,351988.5,8017,WL,B,2.0
3,4.164999961853027,learn,55835.00003814697,Tue Apr 08 2025 15:04:38 GMT-0500 (Central Daylight Time),352955.6999999881,A,clos,I,s,120,2,967.1999999880791,351988.5,8017,WL,B,2.0
3,4.648999929428101,learn,55351.0000705719,Tue Apr 08 2025 15:04:38 GMT-0500 (Central Daylight Time),353439.7999999523,A,clo,I,backspace,479,2,1451.2999999523163,351988.5,8017,WL,B,2.0
3,4.765000104904175,learn,55234.999895095825,Tue Apr 08 2025 15:04:38 GMT-0500 (Central Daylight Time),353555.5,A,cloc,I,c,94,2,1567.0,351988.5,8017,WL,B,2.0
3,4.914999961853027,learn,55085.00003814697,Tue Apr 08 2025 15:04:38 GMT-0500 (Central Daylight Time),353706.0,A,clock,I,k,131,2,1717.5,351988.5,8017,WL,B,2.0
3,5.263999938964844,learn,54736.000061035156,Tue Apr 08 2025 15:04:38 GMT-0500 (Central Daylight Time),354054.7999999523,A,clockenter,I,enter,340,2,2066.2999999523163,351988.5,8017,WL,B,2.0
3,6.730999946594238,learn,53269.00005340576,Tue Apr 08 2025 15:04:38 GMT-0500 (Central Daylight Time),355521.7999999523,A,l,I,l,1457,2,1466.699999988079,354055.09999996424,8017,WL,B,3.0
3,6.796000003814697,learn,53203.9999961853,Tue Apr 08 2025 15:04:38 GMT-0500 (Central Daylight Time),355586.89999997616,A,la,I,a,49,2,1531.800000011921,354055.09999996424,8017,WL,B,3.0
3,6.980999946594238,learn,53019.00005340576,Tue Apr 08 2025 15:04:38 GMT-0500 (Central Daylight Time),355771.59999996424,A,lak,I,k,163,2,1716.5,354055.09999996424,8017,WL,B,3.0
3,7.11299991607666,learn,52887.00008392334,Tue Apr 08 2025 15:04:38 GMT-0500 (Central Daylight Time),355903.6999999881,A,lake,I,e,122,2,1848.6000000238419,354055.09999996424,8017,WL,B,3.0
3,7.430000066757202,learn,52569.9999332428,Tue Apr 08 2025 15:04:38 GMT-0500 (Central Daylight Time),356221.0,A,lakeenter,I,enter,308,2,2165.900000035763,354055.09999996424,8017,WL,B,3.0
3,7.7799999713897705,learn,52220.00002861023,Tue Apr 08 2025 15:04:38 GMT-0500 (Central Daylight Time),356571.2999999523,A,c,I,c,339,2,350.0999999642372,356221.1999999881,8017,WL,B,4.0
3,7.878999948501587,learn,52121.00005149841,Tue Apr 08 2025 15:04:38 GMT-0500 (Central Daylight Time),356670.39999997616,A,ca,I,a,76,2,449.19999998807907,356221.1999999881,8017,WL,B,4.0
3,8.230999946594238,learn,51769.00005340576,Tue Apr 08 2025 15:04:38 GMT-0500 (Central Daylight Time),357022.0,A,cab,I,b,330,2,800.8000000119209,356221.1999999881,8017,WL,B,4.0
3,8.329999923706055,learn,51670.000076293945,Tue Apr 08 2025 15:04:38 GMT-0500 (Central Daylight Time),357121.39999997616,A,cabi,I,i,84,2,900.1999999880791,356221.1999999881,8017,WL,B,4.0
3,8.430000066757202,learn,51569.9999332428,Tue Apr 08 2025 15:04:38 GMT-0500 (Central Daylight Time),357221.0,A,cabin,I,n,83,2,999.8000000119209,356221.1999999881,8017,WL,B,4.0
3,8.795000076293945,learn,51204.999923706055,Tue Apr 08 2025 15:04:38 GMT-0500 (Central Daylight Time),357586.5,A,cabinenter,I,enter,354,2,1365.300000011921,356221.1999999881,8017,WL,B,4.0
3,10.461999893188477,learn,49538.00010681152,Tue Apr 08 2025 15:04:38 GMT-0500 (Central Daylight Time),359253.7999999523,A,g,I,g,1661,2,1666.8999999761581,357586.89999997616,8017,WL,B,5.0
3,10.879999876022339,learn,49120.00012397766,Tue Apr 08 2025 15:04:38 GMT-0500 (Central Daylight Time),359671.2999999523,A,gr,I,r,401,2,2084.399999976158,357586.89999997616,8017,WL,B,5.0
3,11.046000003814697,learn,48953.9999961853,Tue Apr 08 2025 15:04:38 GMT-0500 (Central Daylight Time),359837.7999999523,A,gra,I,a,152,2,2250.899999976158,357586.89999997616,8017,WL,B,5.0
3,11.194999933242798,learn,48805.0000667572,Tue Apr 08 2025 15:04:38 GMT-0500 (Central Daylight Time),359986.5,A,gras,I,s,135,2,2399.600000023842,357586.89999997616,8017,WL,B,5.0
3,11.39299988746643,learn,48607.00011253357,Tue Apr 08 2025 15:04:38 GMT-0500 (Central Daylight Time),360184.59999996424,A,grass,I,s,185,2,2597.699999988079,357586.89999997616,8017,WL,B,5.0
3,11.611000061035156,learn,48388.999938964844,Tue Apr 08 2025 15:04:38 GMT-0500 (Central Daylight Time),360402.1999999881,A,grassenter,I,enter,208,2,2815.300000011921,357586.89999997616,8017,WL,B,5.0
3,12.529000043869019,learn,47470.99995613098,Tue Apr 08 2025 15:04:38 GMT-0500 (Central Daylight Time),361320.39999997616,A,c,I,c,910,2,918.0,360402.39999997616,8017,WL,B,6.0
3,12.727999925613403,learn,47272.0000743866,Tue Apr 08 2025 15:04:38 GMT-0500 (Central Daylight Time),361519.7999999523,A,ci,I,i,175,2,1117.3999999761581,360402.39999997616,8017,WL,B,6.0
3,12.878999948501587,learn,47121.00005149841,Tue Apr 08 2025 15:04:38 GMT-0500 (Central Daylight Time),361670.6999999881,A,cit,I,t,143,2,1268.300000011921,360402.39999997616,8017,WL,B,6.0
3,13.013000011444092,learn,46986.99998855591,Tue Apr 08 2025 15:04:38 GMT-0500 (Central Daylight Time),361804.59999996424,A,city,I,y,119,2,1402.199999988079,360402.39999997616,8017,WL,B,6.0
3,13.609999895095825,learn,46390.000104904175,Tue Apr 08 2025 15:04:38 GMT-0500 (Central Daylight Time),362401.1999999881,A,cityenter,I,enter,577,2,1998.800000011921,360402.39999997616,8017,WL,B,6.0
3,13.844000101089478,learn,46155.99989891052,Tue Apr 08 2025 15:04:38 GMT-0500 (Central Daylight Time),362635.89999997616,A,s,I,s,223,2,234.5,362401.39999997616,8017,WL,B,7.0
3,13.976999998092651,learn,46023.00000190735,Tue Apr 08 2025 15:04:38 GMT-0500 (Central Daylight Time),362768.7999999523,A,st,I,t,124,2,367.39999997615814,362401.39999997616,8017,WL,B,7.0
3,14.193000078201294,learn,45806.999921798706,Tue Apr 08 2025 15:04:38 GMT-0500 (Central Daylight Time),362984.39999997616,A,str,I,r,196,2,583.0,362401.39999997616,8017,WL,B,7.0
3,14.244999885559082,learn,45755.00011444092,Tue Apr 08 2025 15:04:38 GMT-0500 (Central Daylight Time),363036.6999999881,A,stre,I,e,37,2,635.3000000119209,362401.39999997616,8017,WL,B,7.0
3,14.460999965667725,learn,45539.000034332275,Tue Apr 08 2025 15:04:38 GMT-0500 (Central Daylight Time),363252.09999996424,A,stree,I,e,201,2,850.6999999880791,362401.39999997616,8017,WL,B,7.0
3,14.526000022888184,learn,45473.99997711182,Tue Apr 08 2025 15:04:38 GMT-0500 (Central Daylight Time),363317.2999999523,A,street,I,t,57,2,915.8999999761581,362401.39999997616,8017,WL,B,7.0
3,14.677000045776367,learn,45322.99995422363,Tue Apr 08 2025 15:04:38 GMT-0500 (Central Daylight Time),363469.0,A,streetenter,I,enter,145,2,1067.6000000238419,362401.39999997616,8017,WL,B,7.0
3,15.210999965667725,learn,44789.000034332275,Tue Apr 08 2025 15:04:38 GMT-0500 (Central Daylight Time),364002.5,A,d,I,d,523,2,533.2000000476837,363469.2999999523,8017,WL,B,8.0
3,15.377000093460083,learn,44622.99990653992,Tue Apr 08 2025 15:04:38 GMT-0500 (Central Daylight Time),364168.5,A,do,I,o,160,2,699.2000000476837,363469.2999999523,8017,WL,B,8.0
3,15.559999942779541,learn,44440.00005722046,Tue Apr 08 2025 15:04:38 GMT-0500 (Central Daylight Time),364351.89999997616,A,doo,I,o,167,2,882.6000000238419,363469.2999999523,8017,WL,B,8.0
3,15.573999881744385,learn,44426.000118255615,Tue Apr 08 2025 15:04:38 GMT-0500 (Central Daylight Time),364366.0,A,door,I,r,7,2,896.7000000476837,363469.2999999523,8017,WL,B,8.0
3,15.825999975204468,learn,44174.00002479553,Tue Apr 08 2025 15:04:38 GMT-0500 (Central Daylight Time),364618.0,A,doorenter,I,enter,235,2,1148.7000000476837,363469.2999999523,8017,WL,B,8.0
3,16.227999925613403,learn,43772.0000743866,Tue Apr 08 2025 15:04:38 GMT-0500 (Central Daylight Time),365019.09999996424,A,w,I,w,382,2,400.89999997615814,364618.1999999881,8017,WL,B,9.0
3,16.30999994277954,learn,43690.00005722046,Tue Apr 08 2025 15:04:38 GMT-0500 (Central Daylight Time),365101.1999999881,A,wi,I,i,76,2,483.0,364618.1999999881,8017,WL,B,9.0
3,16.460000038146973,learn,43539.99996185303,Tue Apr 08 2025 15:04:38 GMT-0500 (Central Daylight Time),365251.59999996424,A,win,I,n,130,2,633.3999999761581,364618.1999999881,8017,WL,B,9.0
3,16.575999975204468,learn,43424.00002479553,Tue Apr 08 2025 15:04:38 GMT-0500 (Central Daylight Time),365367.2999999523,A,wind,I,d,111,2,749.0999999642372,364618.1999999881,8017,WL,B,9.0
3,16.743000030517578,learn,43256.99996948242,Tue Apr 08 2025 15:04:38 GMT-0500 (Central Daylight Time),365534.7999999523,A,windo,I,o,162,2,916.5999999642372,364618.1999999881,8017,WL,B,9.0
3,16.92799997329712,learn,43072.00002670288,Tue Apr 08 2025 15:04:38 GMT-0500 (Central Daylight Time),365719.09999996424,A,window,I,w,166,2,1100.8999999761581,364618.1999999881,8017,WL,B,9.0
3,17.244999885559082,learn,42755.00011444092,Tue Apr 08 2025 15:04:38 GMT-0500 (Central Daylight Time),366036.7999999523,A,windowenter,I,enter,310,2,1418.5999999642372,364618.1999999881,8017,WL,B,9.0
3,19.424999952316284,learn,40575.000047683716,Tue Apr 08 2025 15:04:38 GMT-0500 (Central Daylight Time),368216.7999999523,A,w,I,w,2171,2,2179.699999988079,366037.09999996424,8017,WL,B,10.0
3,19.545000076293945,learn,40454.999923706055,Tue Apr 08 2025 15:04:38 GMT-0500 (Central Daylight Time),368336.2999999523,A,wi,I,i,113,2,2299.199999988079,366037.09999996424,8017,WL,B,10.0
3,19.675999879837036,learn,40324.000120162964,Tue Apr 08 2025 15:04:38 GMT-0500 (Central Daylight Time),368467.59999996424,A,wif,I,f,118,2,2430.5,366037.09999996424,8017,WL,B,10.0
3,19.72499990463257,learn,40275.00009536743,Tue Apr 08 2025 15:04:38 GMT-0500 (Central Daylight Time),368516.6999999881,A,wife,I,e,44,2,2479.600000023842,366037.09999996424,8017,WL,B,10.0
3,20.14199995994568,learn,39858.00004005432,Tue Apr 08 2025 15:04:38 GMT-0500 (Central Daylight Time),368933.59999996424,A,wifeenter,I,enter,403,2,2896.5,366037.09999996424,8017,WL,B,10.0
3,20.743000030517578,learn,39256.99996948242,Tue Apr 08 2025 15:04:38 GMT-0500 (Central Daylight Time),369534.1999999881,A,s,I,s,580,2,600.4000000357628,368933.7999999523,8017,WL,B,11.0
3,21.109999895095825,learn,38890.000104904175,Tue Apr 08 2025 15:04:38 GMT-0500 (Central Daylight Time),369901.1999999881,A,st,I,t,344,2,967.4000000357628,368933.7999999523,8017,WL,B,11.0
3,21.2739999294281,learn,38726.0000705719,Tue Apr 08 2025 15:04:38 GMT-0500 (Central Daylight Time),370065.59999996424,A,sta,I,a,144,2,1131.800000011921,368933.7999999523,8017,WL,B,11.0
3,21.375,learn,38625.0,Tue Apr 08 2025 15:04:38 GMT-0500 (Central Daylight Time),370166.09999996424,A,star,I,r,78,2,1232.300000011921,368933.7999999523,8017,WL,B,11.0
3,21.85800004005432,learn,38141.99995994568,Tue Apr 08 2025 15:04:38 GMT-0500 (Central Daylight Time),370650.0,A,starenter,I,enter,462,2,1716.2000000476837,368933.7999999523,8017,WL,B,11.0
3,22.20900011062622,learn,37790.99988937378,Tue Apr 08 2025 15:04:38 GMT-0500 (Central Daylight Time),371000.6999999881,A,p,I,p,334,2,350.5,370650.1999999881,8017,WL,B,12.0
3,22.32699990272522,learn,37673.00009727478,Tue Apr 08 2025 15:04:38 GMT-0500 (Central Daylight Time),371118.09999996424,A,pu,I,u,109,2,467.89999997615814,370650.1999999881,8017,WL,B,12.0
3,22.507999897003174,learn,37492.000102996826,Tue Apr 08 2025 15:04:38 GMT-0500 (Central Daylight Time),371299.1999999881,A,pup,I,p,168,2,649.0,370650.1999999881,8017,WL,B,12.0
3,22.64199995994568,learn,37358.00004005432,Tue Apr 08 2025 15:04:38 GMT-0500 (Central Daylight Time),371433.1999999881,A,pupi,I,i,124,2,783.0,370650.1999999881,8017,WL,B,12.0
3,22.907000064849854,learn,37092.99993515015,Tue Apr 08 2025 15:04:38 GMT-0500 (Central Daylight Time),371698.39999997616,A,pupil,I,l,247,2,1048.199999988079,370650.1999999881,8017,WL,B,12.0
3,23.157999992370605,learn,36842.000007629395,Tue Apr 08 2025 15:04:38 GMT-0500 (Central Daylight Time),371949.39999997616,A,pupilenter,I,enter,226,2,1299.199999988079,370650.1999999881,8017,WL,B,12.0
3,26.5239999294281,learn,33476.0000705719,Tue Apr 08 2025 15:04:38 GMT-0500 (Central Daylight Time),375315.09999996424,A,w,I,w,3354,2,3365.300000011921,371949.7999999523,8017,WL,B,13.0
3,26.7739999294281,learn,33226.0000705719,Tue Apr 08 2025 15:04:38 GMT-0500 (Central Daylight Time),375565.5,A,wi,I,i,244,2,3615.7000000476837,371949.7999999523,8017,WL,B,13.0
3,26.874000072479248,learn,33125.99992752075,Tue Apr 08 2025 15:04:38 GMT-0500 (Central Daylight Time),375665.1999999881,A,wif,I,f,90,2,3715.400000035763,371949.7999999523,8017,WL,B,13.0
3,26.956000089645386,learn,33043.999910354614,Tue Apr 08 2025 15:04:38 GMT-0500 (Central Daylight Time),375748.0,A,wife,I,e,59,2,3798.2000000476837,371949.7999999523,8017,WL,B,13.0
3,27.206000089645386,learn,32793.999910354614,Tue Apr 08 2025 15:04:38 GMT-0500 (Central Daylight Time),375997.39999997616,A,wifeenter,I,enter,236,2,4047.600000023842,371949.7999999523,8017,WL,B,13.0
3,27.456000089645386,learn,32543.999910354614,Tue Apr 08 2025 15:04:38 GMT-0500 (Central Daylight Time),376248.09999996424,A,c,I,c,243,2,250.39999997615814,375997.6999999881,8017,WL,B,14.0
3,27.54099988937378,learn,32459.00011062622,Tue Apr 08 2025 15:04:38 GMT-0500 (Central Daylight Time),376332.7999999523,A,cl,I,l,61,2,335.0999999642372,375997.6999999881,8017,WL,B,14.0
3,27.740999937057495,learn,32259.000062942505,Tue Apr 08 2025 15:04:38 GMT-0500 (Central Daylight Time),376532.2999999523,A,clo,I,o,185,2,534.5999999642372,375997.6999999881,8017,WL,B,14.0
3,27.872999906539917,learn,32127.000093460083,Tue Apr 08 2025 15:04:38 GMT-0500 (Central Daylight Time),376664.2999999523,A,cloc,I,c,122,2,666.5999999642372,375997.6999999881,8017,WL,B,14.0
3,27.973999977111816,learn,32026.000022888184,Tue Apr 08 2025 15:04:38 GMT-0500 (Central Daylight Time),376765.5,A,clock,I,k,92,2,767.8000000119209,375997.6999999881,8017,WL,B,14.0
3,29.973999977111816,learn,30026.000022888184,Tue Apr 08 2025 15:04:38 GMT-0500 (Central Daylight Time),378765.6999999881,A,cloc,I,backspace,1993,2,2768.0,375997.6999999881,8017,WL,B,14.0
3,30.206000089645386,learn,29793.999910354614,Tue Apr 08 2025 15:04:38 GMT-0500 (Central Daylight Time),378997.09999996424,A,clo,I,backspace,218,2,2999.399999976158,375997.6999999881,8017,WL,B,14.0
3,30.407000064849854,learn,29592.999935150146,Tue Apr 08 2025 15:04:38 GMT-0500 (Central Daylight Time),379198.1999999881,A,cl,I,backspace,196,2,3200.5,375997.6999999881,8017,WL,B,14.0
3,30.60699987411499,learn,29393.00012588501,Tue Apr 08 2025 15:04:38 GMT-0500 (Central Daylight Time),379398.09999996424,A,c,I,backspace,195,2,3400.399999976158,375997.6999999881,8017,WL,B,14.0
3,30.823999881744385,learn,29176.000118255615,Tue Apr 08 2025 15:04:38 GMT-0500 (Central Daylight Time),379615.09999996424,A,,I,backspace,202,2,3617.399999976158,375997.6999999881,8017,WL,B,14.0
3,31.02300000190735,learn,28976.99999809265,Tue Apr 08 2025 15:04:38 GMT-0500 (Central Daylight Time),379815.0,A,,I,backspace,195,2,3817.300000011921,375997.6999999881,8017,WL,B,14.0
3,31.48799991607666,learn,28512.00008392334,Tue Apr 08 2025 15:04:38 GMT-0500 (Central Daylight Time),380279.5,A,f,I,f,459,2,4281.800000011921,375997.6999999881,8017,WL,B,14.0
3,31.77300000190735,learn,28226.99999809265,Tue Apr 08 2025 15:04:38 GMT-0500 (Central Daylight Time),380564.2999999523,A,fi,I,i,274,2,4566.599999964237,375997.6999999881,8017,WL,B,14.0
3,31.852999925613403,learn,28147.000074386597,Tue Apr 08 2025 15:04:38 GMT-0500 (Central Daylight Time),380645.1999999881,A,fir,I,r,67,2,4647.5,375997.6999999881,8017,WL,B,14.0
3,31.937000036239624,learn,28062.999963760376,Tue Apr 08 2025 15:04:38 GMT-0500 (Central Daylight Time),380728.39999997616,A,fire,I,e,74,2,4730.699999988079,375997.6999999881,8017,WL,B,14.0
3,32.187999963760376,learn,27812.000036239624,Tue Apr 08 2025 15:04:38 GMT-0500 (Central Daylight Time),380979.6999999881,A,fireenter,I,enter,239,2,4982.0,375997.6999999881,8017,WL,B,14.0
3,35.08800005912781,learn,24911.999940872192,Tue Apr 08 2025 15:04:38 GMT-0500 (Central Daylight Time),383879.7999999523,A,p,I,p,2884,2,2899.899999976158,380979.89999997616,8017,WL,B,15.0
3,35.355000019073486,learn,24644.999980926514,Tue Apr 08 2025 15:04:38 GMT-0500 (Central Daylight Time),384146.5,A,pi,I,i,257,2,3166.600000023842,380979.89999997616,8017,WL,B,15.0
3,35.57100009918213,learn,24428.99990081787,Tue Apr 08 2025 15:04:38 GMT-0500 (Central Daylight Time),384362.1999999881,A,pip,I,p,207,2,3382.300000011921,380979.89999997616,8017,WL,B,15.0
3,36.43600010871887,learn,23563.999891281128,Tue Apr 08 2025 15:04:38 GMT-0500 (Central Daylight Time),385227.5,A,pipe,I,e,842,2,4247.600000023842,380979.89999997616,8017,WL,B,15.0
3,36.63599991798401,learn,23364.00008201599,Tue Apr 08 2025 15:04:38 GMT-0500 (Central Daylight Time),385427.39999997616,A,pipeenter,I,enter,186,2,4447.5,380979.89999997616,8017,WL,B,15.0
4,1.248000144958496,learn,58751.999855041504,Tue Apr 08 2025 15:04:38 GMT-0500 (Central Daylight Time),455406.2999999523,A,p,I,p,1239,2,1247.699999988079,454158.59999996424,8017,WL,B,1.0
4,1.3650000095367432,learn,58634.99999046326,Tue Apr 08 2025 15:04:38 GMT-0500 (Central Daylight Time),455522.89999997616,A,pi,I,i,95,2,1364.300000011921,454158.59999996424,8017,WL,B,1.0
4,1.7309999465942383,learn,58269.00005340576,Tue Apr 08 2025 15:04:38 GMT-0500 (Central Daylight Time),455889.59999996424,A,pip,I,p,348,2,1731.0,454158.59999996424,8017,WL,B,1.0
4,1.8320000171661377,learn,58167.99998283386,Tue Apr 08 2025 15:04:38 GMT-0500 (Central Daylight Time),455990.5,A,pipe,I,e,93,2,1831.9000000357628,454158.59999996424,8017,WL,B,1.0
4,2.2309999465942383,learn,57769.00005340576,Tue Apr 08 2025 15:04:38 GMT-0500 (Central Daylight Time),456389.39999997616,A,pipeenter,I,enter,393,2,2230.800000011921,454158.59999996424,8017,WL,B,1.0
4,2.63100004196167,learn,57368.99995803833,Tue Apr 08 2025 15:04:38 GMT-0500 (Central Daylight Time),456789.6999999881,A,c,I,c,387,2,400.0,456389.6999999881,8017,WL,B,2.0
4,2.7309999465942383,learn,57269.00005340576,Tue Apr 08 2025 15:04:38 GMT-0500 (Central Daylight Time),456888.89999997616,A,cl,I,l,89,2,499.19999998807907,456389.6999999881,8017,WL,B,2.0
4,2.947000026702881,learn,57052.99997329712,Tue Apr 08 2025 15:04:38 GMT-0500 (Central Daylight Time),457105.6999999881,A,clo,I,o,206,2,716.0,456389.6999999881,8017,WL,B,2.0
4,3.199000120162964,learn,56800.999879837036,Tue Apr 08 2025 15:04:38 GMT-0500 (Central Daylight Time),457357.09999996424,A,clos,I,s,245,2,967.3999999761581,456389.6999999881,8017,WL,B,2.0
4,3.63100004196167,learn,56368.99995803833,Tue Apr 08 2025 15:04:38 GMT-0500 (Central Daylight Time),457789.0,A,clo,I,backspace,417,2,1399.300000011921,456389.6999999881,8017,WL,B,2.0
4,3.7290000915527344,learn,56270.999908447266,Tue Apr 08 2025 15:04:38 GMT-0500 (Central Daylight Time),457887.5,A,cloc,I,c,88,2,1497.800000011921,456389.6999999881,8017,WL,B,2.0
4,3.864000082015991,learn,56135.99991798401,Tue Apr 08 2025 15:04:38 GMT-0500 (Central Daylight Time),458021.7999999523,A,clock,I,k,118,2,1632.0999999642372,456389.6999999881,8017,WL,B,2.0
4,4.146000146865845,learn,55853.999853134155,Tue Apr 08 2025 15:04:38 GMT-0500 (Central Daylight Time),458304.5,A,clockenter,I,enter,264,2,1914.800000011921,456389.6999999881,8017,WL,B,2.0
4,4.430000066757202,learn,55569.9999332428,Tue Apr 08 2025 15:04:38 GMT-0500 (Central Daylight Time),458588.2999999523,A,s,I,s,271,2,283.5,458304.7999999523,8017,WL,B,3.0
4,4.546000003814697,learn,55453.9999961853,Tue Apr 08 2025 15:04:38 GMT-0500 (Central Daylight Time),458704.1999999881,A,st,I,t,106,2,399.4000000357628,458304.7999999523,8017,WL,B,3.0
4,4.647000074386597,learn,55352.9999256134,Tue Apr 08 2025 15:04:38 GMT-0500 (Central Daylight Time),458805.09999996424,A,sta,I,a,86,2,500.30000001192093,458304.7999999523,8017,WL,B,3.0
4,4.797000169754028,learn,55202.99983024597,Tue Apr 08 2025 15:04:38 GMT-0500 (Central Daylight Time),458954.6999999881,A,star,I,r,140,2,649.9000000357628,458304.7999999523,8017,WL,B,3.0
4,5.71399998664856,learn,54286.00001335144,Tue Apr 08 2025 15:04:38 GMT-0500 (Central Daylight Time),459871.7999999523,A,sta,I,backspace,910,2,1567.0,458304.7999999523,8017,WL,B,3.0
4,5.930000066757202,learn,54069.9999332428,Tue Apr 08 2025 15:04:38 GMT-0500 (Central Daylight Time),460087.7999999523,A,st,I,backspace,199,2,1783.0,458304.7999999523,8017,WL,B,3.0
4,6.0959999561309814,learn,53904.00004386902,Tue Apr 08 2025 15:04:38 GMT-0500 (Central Daylight Time),460254.39999997616,A,s,I,backspace,159,2,1949.6000000238419,458304.7999999523,8017,WL,B,3.0
4,6.278000116348267,learn,53721.99988365173,Tue Apr 08 2025 15:04:38 GMT-0500 (Central Daylight Time),460436.39999997616,A,,I,backspace,166,2,2131.600000023842,458304.7999999523,8017,WL,B,3.0
4,6.861999988555908,learn,53138.00001144409,Tue Apr 08 2025 15:04:38 GMT-0500 (Central Daylight Time),461020.6999999881,A,s,I,s,572,2,2715.900000035763,458304.7999999523,8017,WL,B,3.0
4,6.962000131607056,learn,53037.999868392944,Tue Apr 08 2025 15:04:38 GMT-0500 (Central Daylight Time),461119.6999999881,A,sk,I,k,81,2,2814.900000035763,458304.7999999523,8017,WL,B,3.0
4,7.130000114440918,learn,52869.99988555908,Tue Apr 08 2025 15:04:38 GMT-0500 (Central Daylight Time),461288.5,A,ski,I,i,149,2,2983.7000000476837,458304.7999999523,8017,WL,B,3.0
4,7.216000080108643,learn,52783.99991989136,Tue Apr 08 2025 15:04:38 GMT-0500 (Central Daylight Time),461373.89999997616,A,skin,I,n,72,2,3069.100000023842,458304.7999999523,8017,WL,B,3.0
4,7.479000091552734,learn,52520.999908447266,Tue Apr 08 2025 15:04:38 GMT-0500 (Central Daylight Time),461637.1999999881,A,skinenter,I,enter,259,2,3332.400000035763,458304.7999999523,8017,WL,B,3.0
4,7.663000106811523,learn,52336.99989318848,Tue Apr 08 2025 15:04:38 GMT-0500 (Central Daylight Time),461821.0,A,a,I,a,171,2,183.60000002384186,461637.39999997616,8017,WL,B,4.0
4,7.795000076293945,learn,52204.999923706055,Tue Apr 08 2025 15:04:38 GMT-0500 (Central Daylight Time),461953.59999996424,A,ar,I,r,111,2,316.19999998807907,461637.39999997616,8017,WL,B,4.0
4,7.963000059127808,learn,52036.99994087219,Tue Apr 08 2025 15:04:38 GMT-0500 (Central Daylight Time),462121.1999999881,A,arm,I,m,150,2,483.80000001192093,461637.39999997616,8017,WL,B,4.0
4,8.297000169754028,learn,51702.99983024597,Tue Apr 08 2025 15:04:38 GMT-0500 (Central Daylight Time),462454.89999997616,A,armenter,I,enter,327,2,817.5,461637.39999997616,8017,WL,B,4.0
4,9.095999956130981,learn,50904.00004386902,Tue Apr 08 2025 15:04:38 GMT-0500 (Central Daylight Time),463254.5,A,l,I,l,785,2,799.4000000357628,462455.09999996424,8017,WL,B,5.0
4,9.144000053405762,learn,50855.99994659424,Tue Apr 08 2025 15:04:38 GMT-0500 (Central Daylight Time),463302.09999996424,A,la,I,a,39,2,847.0,462455.09999996424,8017,WL,B,5.0
4,9.328999996185303,learn,50671.0000038147,Tue Apr 08 2025 15:04:38 GMT-0500 (Central Daylight Time),463487.2999999523,A,lak,I,k,171,2,1032.199999988079,462455.09999996424,8017,WL,B,5.0
4,9.446000099182129,learn,50553.99990081787,Tue Apr 08 2025 15:04:38 GMT-0500 (Central Daylight Time),463603.89999997616,A,lake,I,e,94,2,1148.800000011921,462455.09999996424,8017,WL,B,5.0
4,9.695000171661377,learn,50304.99982833862,Tue Apr 08 2025 15:04:38 GMT-0500 (Central Daylight Time),463853.5,A,lakeenter,I,enter,226,2,1398.4000000357628,462455.09999996424,8017,WL,B,5.0
4,10.011000156402588,learn,49988.99984359741,Tue Apr 08 2025 15:04:38 GMT-0500 (Central Daylight Time),464169.59999996424,A,c,I,c,307,2,315.80000001192093,463853.7999999523,8017,WL,B,6.0
4,10.077000141143799,learn,49922.9998588562,Tue Apr 08 2025 15:04:38 GMT-0500 (Central Daylight Time),464235.6999999881,A,ca,I,a,45,2,381.9000000357628,463853.7999999523,8017,WL,B,6.0
4,10.27999997138977,learn,49720.00002861023,Tue Apr 08 2025 15:04:38 GMT-0500 (Central Daylight Time),464438.09999996424,A,cab,I,b,196,2,584.3000000119209,463853.7999999523,8017,WL,B,6.0
4,10.361999988555908,learn,49638.00001144409,Tue Apr 08 2025 15:04:38 GMT-0500 (Central Daylight Time),464519.6999999881,A,cabi,I,i,74,2,665.9000000357628,463853.7999999523,8017,WL,B,6.0
4,10.444000005722046,learn,49555.999994277954,Tue Apr 08 2025 15:04:38 GMT-0500 (Central Daylight Time),464602.09999996424,A,cabin,I,n,61,2,748.3000000119209,463853.7999999523,8017,WL,B,6.0
4,10.695000171661377,learn,49304.99982833862,Tue Apr 08 2025 15:04:38 GMT-0500 (Central Daylight Time),464853.5,A,cabinenter,I,enter,235,2,999.7000000476837,463853.7999999523,8017,WL,B,6.0
4,10.896000146865845,learn,49103.999853134155,Tue Apr 08 2025 15:04:38 GMT-0500 (Central Daylight Time),465053.7999999523,A,d,I,d,195,2,200.0,464853.7999999523,8017,WL,B,7.0
4,11.029000043869019,learn,48970.99995613098,Tue Apr 08 2025 15:04:38 GMT-0500 (Central Daylight Time),465186.89999997616,A,do,I,o,121,2,333.10000002384186,464853.7999999523,8017,WL,B,7.0
4,11.212000131607056,learn,48787.999868392944,Tue Apr 08 2025 15:04:38 GMT-0500 (Central Daylight Time),465369.89999997616,A,doo,I,o,172,2,516.1000000238419,464853.7999999523,8017,WL,B,7.0
4,11.259000062942505,learn,48740.999937057495,Tue Apr 08 2025 15:04:38 GMT-0500 (Central Daylight Time),465417.2999999523,A,door,I,r,37,2,563.5,464853.7999999523,8017,WL,B,7.0
4,11.544000148773193,learn,48455.99985122681,Tue Apr 08 2025 15:04:38 GMT-0500 (Central Daylight Time),465702.39999997616,A,doorenter,I,enter,279,2,848.6000000238419,464853.7999999523,8017,WL,B,7.0
4,11.811000108718872,learn,48188.99989128113,Tue Apr 08 2025 15:04:38 GMT-0500 (Central Daylight Time),465968.89999997616,A,w,I,w,258,2,266.19999998807907,465702.6999999881,8017,WL,B,8.0
4,12.128000020980835,learn,47871.999979019165,Tue Apr 08 2025 15:04:38 GMT-0500 (Central Daylight Time),466286.1999999881,A,wi,I,i,300,2,583.5,465702.6999999881,8017,WL,B,8.0
4,12.210999965667725,learn,47789.000034332275,Tue Apr 08 2025 15:04:38 GMT-0500 (Central Daylight Time),466369.2999999523,A,win,I,n,62,2,666.5999999642372,465702.6999999881,8017,WL,B,8.0
4,12.361999988555908,learn,47638.00001144409,Tue Apr 08 2025 15:04:38 GMT-0500 (Central Daylight Time),466519.6999999881,A,wind,I,d,133,2,817.0,465702.6999999881,8017,WL,B,8.0
4,12.460999965667725,learn,47539.000034332275,Tue Apr 08 2025 15:04:38 GMT-0500 (Central Daylight Time),466619.09999996424,A,windo,I,o,86,2,916.3999999761581,465702.6999999881,8017,WL,B,8.0
4,12.610000133514404,learn,47389.999866485596,Tue Apr 08 2025 15:04:38 GMT-0500 (Central Daylight Time),466768.1999999881,A,window,I,w,139,2,1065.5,465702.6999999881,8017,WL,B,8.0
4,13.07800006866455,learn,46921.99993133545,Tue Apr 08 2025 15:04:38 GMT-0500 (Central Daylight Time),467236.39999997616,A,windowenter,I,enter,452,2,1533.699999988079,465702.6999999881,8017,WL,B,8.0
4,13.49399995803833,learn,46506.00004196167,Tue Apr 08 2025 15:04:38 GMT-0500 (Central Daylight Time),467652.39999997616,A,c,I,c,404,2,415.60000002384186,467236.7999999523,8017,WL,B,9.0
4,13.611999988555908,learn,46388.00001144409,Tue Apr 08 2025 15:04:38 GMT-0500 (Central Daylight Time),467769.89999997616,A,ci,I,i,99,2,533.1000000238419,467236.7999999523,8017,WL,B,9.0
4,13.792999982833862,learn,46207.00001716614,Tue Apr 08 2025 15:04:38 GMT-0500 (Central Daylight Time),467951.2999999523,A,cit,I,t,168,2,714.5,467236.7999999523,8017,WL,B,9.0
4,13.911999940872192,learn,46088.00005912781,Tue Apr 08 2025 15:04:38 GMT-0500 (Central Daylight Time),468070.1999999881,A,city,I,y,96,2,833.4000000357628,467236.7999999523,8017,WL,B,9.0
4,14.194000005722046,learn,45805.999994277954,Tue Apr 08 2025 15:04:38 GMT-0500 (Central Daylight Time),468352.09999996424,A,cityenter,I,enter,274,2,1115.300000011921,467236.7999999523,8017,WL,B,9.0
4,14.39300012588501,learn,45606.99987411499,Tue Apr 08 2025 15:04:38 GMT-0500 (Central Daylight Time),468551.09999996424,A,s,I,s,179,2,198.69999998807907,468352.39999997616,8017,WL,B,10.0
4,14.542999982833862,learn,45457.00001716614,Tue Apr 08 2025 15:04:38 GMT-0500 (Central Daylight Time),468701.2999999523,A,st,I,t,144,2,348.89999997615814,468352.39999997616,8017,WL,B,10.0
4,14.74399995803833,learn,45256.00004196167,Tue Apr 08 2025 15:04:38 GMT-0500 (Central Daylight Time),468902.1999999881,A,str,I,r,178,2,549.8000000119209,468352.39999997616,8017,WL,B,10.0
4,14.792999982833862,learn,45207.00001716614,Tue Apr 08 2025 15:04:38 GMT-0500 (Central Daylight Time),468950.89999997616,A,stre,I,e,34,2,598.5,468352.39999997616,8017,WL,B,10.0
4,14.962000131607056,learn,45037.999868392944,Tue Apr 08 2025 15:04:38 GMT-0500 (Central Daylight Time),469120.1999999881,A,stree,I,e,164,2,767.8000000119209,468352.39999997616,8017,WL,B,10.0
4,15.061000108718872,learn,44938.99989128113,Tue Apr 08 2025 15:04:38 GMT-0500 (Central Daylight Time),469219.0,A,street,I,t,74,2,866.6000000238419,468352.39999997616,8017,WL,B,10.0
4,15.177000045776367,learn,44822.99995422363,Tue Apr 08 2025 15:04:38 GMT-0500 (Central Daylight Time),469335.1999999881,A,streetenter,I,enter,110,2,982.8000000119209,468352.39999997616,8017,WL,B,10.0
4,15.442000150680542,learn,44557.99984931946,Tue Apr 08 2025 15:04:38 GMT-0500 (Central Daylight Time),469600.59999996424,A,g,I,g,257,2,265.0999999642372,469335.5,8017,WL,B,11.0
4,15.627000093460083,learn,44372.99990653992,Tue Apr 08 2025 15:04:38 GMT-0500 (Central Daylight Time),469785.09999996424,A,gr,I,r,167,2,449.5999999642372,469335.5,8017,WL,B,11.0
4,15.746000051498413,learn,44253.99994850159,Tue Apr 08 2025 15:04:38 GMT-0500 (Central Daylight Time),469904.09999996424,A,gra,I,a,96,2,568.5999999642372,469335.5,8017,WL,B,11.0
4,16.026000022888184,learn,43973.99997711182,Tue Apr 08 2025 15:04:38 GMT-0500 (Central Daylight Time),470183.89999997616,A,gras,I,s,263,2,848.3999999761581,469335.5,8017,WL,B,11.0
4,16.24399995803833,learn,43756.00004196167,Tue Apr 08 2025 15:04:38 GMT-0500 (Central Daylight Time),470401.7999999523,A,grass,I,s,208,2,1066.2999999523163,469335.5,8017,WL,B,11.0
4,16.5770001411438,learn,43422.9998588562,Tue Apr 08 2025 15:04:38 GMT-0500 (Central Daylight Time),470734.7999999523,A,grassenter,I,enter,317,2,1399.2999999523163,469335.5,8017,WL,B,11.0
4,17.64300012588501,learn,42356.99987411499,Tue Apr 08 2025 15:04:38 GMT-0500 (Central Daylight Time),471800.89999997616,A,s,I,s,1047,2,1065.800000011921,470735.09999996424,8017,WL,B,12.0
4,17.87600016593933,learn,42123.99983406067,Tue Apr 08 2025 15:04:38 GMT-0500 (Central Daylight Time),472034.09999996424,A,st,I,t,223,2,1299.0,470735.09999996424,8017,WL,B,12.0
4,17.95900011062622,learn,42040.99988937378,Tue Apr 08 2025 15:04:38 GMT-0500 (Central Daylight Time),472117.59999996424,A,sta,I,a,77,2,1382.5,470735.09999996424,8017,WL,B,12.0
4,18.242000102996826,learn,41757.999897003174,Tue Apr 08 2025 15:04:38 GMT-0500 (Central Daylight Time),472399.7999999523,A,star,I,r,264,2,1664.699999988079,470735.09999996424,8017,WL,B,12.0
4,18.72699999809265,learn,41273.00000190735,Tue Apr 08 2025 15:04:38 GMT-0500 (Central Daylight Time),472885.2999999523,A,starenter,I,enter,480,2,2150.199999988079,470735.09999996424,8017,WL,B,12.0
4,19.05999994277954,learn,40940.00005722046,Tue Apr 08 2025 15:04:38 GMT-0500 (Central Daylight Time),473218.59999996424,A,p,I,p,315,2,333.0999999642372,472885.5,8017,WL,B,13.0
4,19.223000049591064,learn,40776.999950408936,Tue Apr 08 2025 15:04:38 GMT-0500 (Central Daylight Time),473381.39999997616,A,pu,I,u,156,2,495.89999997615814,472885.5,8017,WL,B,13.0
4,19.424000024795532,learn,40575.99997520447,Tue Apr 08 2025 15:04:38 GMT-0500 (Central Daylight Time),473582.39999997616,A,pup,I,p,188,2,696.8999999761581,472885.5,8017,WL,B,13.0
4,19.557000160217285,learn,40442.999839782715,Tue Apr 08 2025 15:04:38 GMT-0500 (Central Daylight Time),473715.59999996424,A,pupi,I,i,114,2,830.0999999642372,472885.5,8017,WL,B,13.0
4,19.776000022888184,learn,40223.99997711182,Tue Apr 08 2025 15:04:38 GMT-0500 (Central Daylight Time),473934.39999997616,A,pupil,I,l,205,2,1048.8999999761581,472885.5,8017,WL,B,13.0
4,20.009999990463257,learn,39990.00000953674,Tue Apr 08 2025 15:04:38 GMT-0500 (Central Daylight Time),474168.09999996424,A,pupilenter,I,enter,224,2,1282.5999999642372,472885.5,8017,WL,B,13.0
4,21.460000038146973,learn,38539.99996185303,Tue Apr 08 2025 15:04:38 GMT-0500 (Central Daylight Time),475617.89999997616,A,w,I,w,1432,2,1449.6000000238419,474168.2999999523,8017,WL,B,14.0
4,21.659000158309937,learn,38340.99984169006,Tue Apr 08 2025 15:04:38 GMT-0500 (Central Daylight Time),475817.09999996424,A,wi,I,i,193,2,1648.800000011921,474168.2999999523,8017,WL,B,14.0
4,21.79100012779236,learn,38208.99987220764,Tue Apr 08 2025 15:04:38 GMT-0500 (Central Daylight Time),475949.09999996424,A,wif,I,f,112,2,1780.800000011921,474168.2999999523,8017,WL,B,14.0
4,21.84000015258789,learn,38159.99984741211,Tue Apr 08 2025 15:04:38 GMT-0500 (Central Daylight Time),475997.89999997616,A,wife,I,e,26,2,1829.6000000238419,474168.2999999523,8017,WL,B,14.0
4,22.14199995994568,learn,37858.00004005432,Tue Apr 08 2025 15:04:38 GMT-0500 (Central Daylight Time),476299.59999996424,A,wifeenter,I,enter,280,2,2131.300000011921,474168.2999999523,8017,WL,B,14.0
4,29.973000049591064,learn,30026.999950408936,Tue Apr 08 2025 15:04:38 GMT-0500 (Central Daylight Time),484131.6999999881,A,f,I,f,7811,2,7831.800000011921,476299.89999997616,8017,WL,B,15.0
4,30.121000051498413,learn,29878.999948501587,Tue Apr 08 2025 15:04:38 GMT-0500 (Central Daylight Time),484280.2999999523,A,fi,I,i,136,2,7980.399999976158,476299.89999997616,8017,WL,B,15.0
4,30.223000049591064,learn,29776.999950408936,Tue Apr 08 2025 15:04:38 GMT-0500 (Central Daylight Time),484381.6999999881,A,fir,I,r,91,2,8081.800000011921,476299.89999997616,8017,WL,B,15.0
4,30.30400013923645,learn,29695.99986076355,Tue Apr 08 2025 15:04:38 GMT-0500 (Central Daylight Time),484463.1999999881,A,fire,I,e,74,2,8163.300000011921,476299.89999997616,8017,WL,B,15.0
4,31.854000091552734,learn,28145.999908447266,Tue Apr 08 2025 15:04:38 GMT-0500 (Central Daylight Time),486012.5,A,fireenter,I,enter,1529,2,9712.600000023842,476299.89999997616,8017,WL,B,15.0
5,0.8670001029968262,learn,60000.0,Tue Apr 08 2025 15:04:38 GMT-0500 (Central Daylight Time),556724.3999999762,A,w,I,w,855,2,866.6000000238419,555857.7999999523,8017,WL,B,1.0
5,1.065000057220459,learn,60000.0,Tue Apr 08 2025 15:04:38 GMT-0500 (Central Daylight Time),556922.7999999523,A,wi,I,i,186,2,1065.0,555857.7999999523,8017,WL,B,1.0
5,1.2680001258850098,learn,60000.0,Tue Apr 08 2025 15:04:38 GMT-0500 (Central Daylight Time),557125.2999999523,A,wif,I,f,189,2,1267.5,555857.7999999523,8017,WL,B,1.0
5,1.3310000896453857,learn,60000.0,Tue Apr 08 2025 15:04:38 GMT-0500 (Central Daylight Time),557188.6999999881,A,wife,I,e,41,2,1330.9000000357628,555857.7999999523,8017,WL,B,1.0
5,1.817000150680542,learn,60000.0,Tue Apr 08 2025 15:04:38 GMT-0500 (Central Daylight Time),557674.0999999642,A,wifeenter,I,enter,475,2,1816.300000011921,555857.7999999523,8017,WL,B,1.0
5,3.5329999923706055,learn,60000.0,Tue Apr 08 2025 15:04:38 GMT-0500 (Central Daylight Time),559390.5999999642,A,c,I,c,1711,2,1716.0,557674.5999999642,8017,WL,B,2.0
5,4.3490002155303955,learn,60000.0,Tue Apr 08 2025 15:04:38 GMT-0500 (Central Daylight Time),560206.2999999523,A,ci,I,i,800,2,2531.699999988079,557674.5999999642,8017,WL,B,2.0
5,4.514000177383423,learn,60000.0,Tue Apr 08 2025 15:04:38 GMT-0500 (Central Daylight Time),560371.8999999762,A,cit,I,t,153,2,2697.300000011921,557674.5999999642,8017,WL,B,2.0
5,4.647000074386597,learn,60000.0,Tue Apr 08 2025 15:04:38 GMT-0500 (Central Daylight Time),560504.7999999523,A,city,I,y,115,2,2830.199999988079,557674.5999999642,8017,WL,B,2.0
5,4.898000001907349,learn,60000.0,Tue Apr 08 2025 15:04:38 GMT-0500 (Central Daylight Time),560755.8999999762,A,cityenter,I,enter,235,2,3081.300000011921,557674.5999999642,8017,WL,B,2.0
5,5.1650002002716064,learn,60000.0,Tue Apr 08 2025 15:04:38 GMT-0500 (Central Daylight Time),561022.0,A,s,I,s,253,2,265.80000001192093,560756.1999999881,8017,WL,B,3.0
5,5.5329999923706055,learn,60000.0,Tue Apr 08 2025 15:04:38 GMT-0500 (Central Daylight Time),561390.0,A,st,I,t,353,2,633.8000000119209,560756.1999999881,8017,WL,B,3.0
5,5.698000192642212,learn,60000.0,Tue Apr 08 2025 15:04:38 GMT-0500 (Central Daylight Time),561555.1999999881,A,str,I,r,153,2,799.0,560756.1999999881,8017,WL,B,3.0
5,5.749000072479248,learn,60000.0,Tue Apr 08 2025 15:04:38 GMT-0500 (Central Daylight Time),561606.6999999881,A,stre,I,e,46,2,850.5,560756.1999999881,8017,WL,B,3.0
5,5.934000015258789,learn,60000.0,Tue Apr 08 2025 15:04:38 GMT-0500 (Central Daylight Time),561791.0,A,stree,I,e,180,2,1034.800000011921,560756.1999999881,8017,WL,B,3.0
5,6.0320000648498535,learn,60000.0,Tue Apr 08 2025 15:04:38 GMT-0500 (Central Daylight Time),561889.0,A,street,I,t,88,2,1132.800000011921,560756.1999999881,8017,WL,B,3.0
5,6.613000154495239,learn,60000.0,Tue Apr 08 2025 15:04:38 GMT-0500 (Central Daylight Time),562470.2999999523,A,streetenter,I,enter,566,2,1714.0999999642372,560756.1999999881,8017,WL,B,3.0
5,7.680999994277954,learn,60000.0,Tue Apr 08 2025 15:04:38 GMT-0500 (Central Daylight Time),563538.2999999523,A,l,I,l,1049,2,1067.699999988079,562470.5999999642,8017,WL,B,4.0
5,7.814000129699707,learn,60000.0,Tue Apr 08 2025 15:04:38 GMT-0500 (Central Daylight Time),563671.8999999762,A,la,I,a,119,2,1201.300000011921,562470.5999999642,8017,WL,B,4.0
5,7.981000185012817,learn,60000.0,Tue Apr 08 2025 15:04:38 GMT-0500 (Central Daylight Time),563838.3999999762,A,lak,I,k,150,2,1367.800000011921,562470.5999999642,8017,WL,B,4.0
5,8.115000009536743,learn,60000.0,Tue Apr 08 2025 15:04:38 GMT-0500 (Central Daylight Time),563972.0,A,lake,I,e,113,2,1501.4000000357628,562470.5999999642,8017,WL,B,4.0
5,8.515000104904175,learn,60000.0,Tue Apr 08 2025 15:04:38 GMT-0500 (Central Daylight Time),564372.1999999881,A,lakeenter,I,enter,385,2,1901.6000000238419,562470.5999999642,8017,WL,B,4.0
5,8.879000186920166,learn,60000.0,Tue Apr 08 2025 15:04:38 GMT-0500 (Central Daylight Time),564736.7999999523,A,c,I,c,350,2,364.2999999523163,564372.5,8017,WL,B,5.0
5,8.946000099182129,learn,60000.0,Tue Apr 08 2025 15:04:38 GMT-0500 (Central Daylight Time),564803.0999999642,A,ca,I,a,55,2,430.5999999642372,564372.5,8017,WL,B,5.0
5,9.180999994277954,learn,60000.0,Tue Apr 08 2025 15:04:38 GMT-0500 (Central Daylight Time),565038.6999999881,A,cab,I,b,221,2,666.1999999880791,564372.5,8017,WL,B,5.0
5,9.297000169754028,learn,60000.0,Tue Apr 08 2025 15:04:38 GMT-0500 (Central Daylight Time),565154.1999999881,A,cabi,I,i,96,2,781.6999999880791,564372.5,8017,WL,B,5.0
5,9.44700002670288,learn,60000.0,Tue Apr 08 2025 15:04:38 GMT-0500 (Central Daylight Time),565304.8999999762,A,cabin,I,n,144,2,932.3999999761581,564372.5,8017,WL,B,5.0
5,9.813000202178955,learn,60000.0,Tue Apr 08 2025 15:04:38 GMT-0500 (Central Daylight Time),565670.7999999523,A,cabinenter,I,enter,358,2,1298.2999999523163,564372.5,8017,WL,B,5.0
5,10.13100004196167,learn,60000.0,Tue Apr 08 2025 15:04:38 GMT-0500 (Central Daylight Time),565988.6999999881,A,f,I,f,296,2,317.60000002384186,565671.0999999642,8017,WL,B,6.0
5,10.247000217437744,learn,60000.0,Tue Apr 08 2025 15:04:38 GMT-0500 (Central Daylight Time),566104.5999999642,A,fi,I,i,93,2,433.5,565671.0999999642,8017,WL,B,6.0
5,10.380000114440918,learn,60000.0,Tue Apr 08 2025 15:04:38 GMT-0500 (Central Daylight Time),566237.5,A,fir,I,r,116,2,566.4000000357628,565671.0999999642,8017,WL,B,6.0
5,10.462000131607056,learn,60000.0,Tue Apr 08 2025 15:04:38 GMT-0500 (Central Daylight Time),566319.8999999762,A,fire,I,e,65,2,648.8000000119209,565671.0999999642,8017,WL,B,6.0
5,10.78000020980835,learn,60000.0,Tue Apr 08 2025 15:04:38 GMT-0500 (Central Daylight Time),566637.5999999642,A,fireenter,I,enter,302,2,966.5,565671.0999999642,8017,WL,B,6.0
5,11.446000099182129,learn,60000.0,Tue Apr 08 2025 15:04:38 GMT-0500 (Central Daylight Time),567303.8999999762,A,d,I,d,650,2,666.1000000238419,566637.7999999523,8017,WL,B,7.0
5,11.581000089645386,learn,60000.0,Tue Apr 08 2025 15:04:38 GMT-0500 (Central Daylight Time),567438.3999999762,A,do,I,o,128,2,800.6000000238419,566637.7999999523,8017,WL,B,7.0
5,11.729000091552734,learn,60000.0,Tue Apr 08 2025 15:04:38 GMT-0500 (Central Daylight Time),567586.5999999642,A,doo,I,o,137,2,948.8000000119209,566637.7999999523,8017,WL,B,7.0
5,11.828999996185303,learn,60000.0,Tue Apr 08 2025 15:04:38 GMT-0500 (Central Daylight Time),567686.8999999762,A,door,I,r,85,2,1049.1000000238419,566637.7999999523,8017,WL,B,7.0
5,12.045000076293945,learn,60000.0,Tue Apr 08 2025 15:04:38 GMT-0500 (Central Daylight Time),567902.8999999762,A,doorenter,I,enter,201,2,1265.1000000238419,566637.7999999523,8017,WL,B,7.0
5,12.379000186920166,learn,60000.0,Tue Apr 08 2025 15:04:38 GMT-0500 (Central Daylight Time),568236.8999999762,A,w,I,w,322,2,333.60000002384186,567903.2999999523,8017,WL,B,8.0
5,12.445000171661377,learn,60000.0,Tue Apr 08 2025 15:04:38 GMT-0500 (Central Daylight Time),568302.8999999762,A,wi,I,i,60,2,399.60000002384186,567903.2999999523,8017,WL,B,8.0
5,12.545000076293945,learn,60000.0,Tue Apr 08 2025 15:04:38 GMT-0500 (Central Daylight Time),568402.2999999523,A,win,I,n,80,2,499.0,567903.2999999523,8017,WL,B,8.0
5,12.663000106811523,learn,60000.0,Tue Apr 08 2025 15:04:38 GMT-0500 (Central Daylight Time),568520.5,A,wind,I,d,110,2,617.2000000476837,567903.2999999523,8017,WL,B,8.0
5,12.781000137329102,learn,60000.0,Tue Apr 08 2025 15:04:38 GMT-0500 (Central Daylight Time),568638.5999999642,A,windo,I,o,102,2,735.3000000119209,567903.2999999523,8017,WL,B,8.0
5,12.92900013923645,learn,60000.0,Tue Apr 08 2025 15:04:38 GMT-0500 (Central Daylight Time),568786.5999999642,A,window,I,w,135,2,883.3000000119209,567903.2999999523,8017,WL,B,8.0
5,13.09500002861023,learn,60000.0,Tue Apr 08 2025 15:04:38 GMT-0500 (Central Daylight Time),568952.8999999762,A,windowenter,I,enter,149,2,1049.6000000238419,567903.2999999523,8017,WL,B,8.0
5,13.930999994277954,learn,60000.0,Tue Apr 08 2025 15:04:38 GMT-0500 (Central Daylight Time),569788.0999999642,A,p,I,p,815,2,835.0,568953.0999999642,8017,WL,B,9.0
5,14.062000036239624,learn,60000.0,Tue Apr 08 2025 15:04:38 GMT-0500 (Central Daylight Time),569919.7999999523,A,pi,I,i,115,2,966.6999999880791,568953.0999999642,8017,WL,B,9.0
5,14.228000164031982,learn,60000.0,Tue Apr 08 2025 15:04:38 GMT-0500 (Central Daylight Time),570085.5999999642,A,pip,I,p,152,2,1132.5,568953.0999999642,8017,WL,B,9.0
5,14.461000204086304,learn,60000.0,Tue Apr 08 2025 15:04:38 GMT-0500 (Central Daylight Time),570318.3999999762,A,pipe,I,e,217,2,1365.300000011921,568953.0999999642,8017,WL,B,9.0
5,14.944000005722046,learn,60000.0,Tue Apr 08 2025 15:04:38 GMT-0500 (Central Daylight Time),570801.0999999642,A,pipeenter,I,enter,463,2,1848.0,568953.0999999642,8017,WL,B,9.0
5,15.945000171661377,learn,60000.0,Tue Apr 08 2025 15:04:38 GMT-0500 (Central Daylight Time),571802.0,A,c,I,c,991,2,1000.7000000476837,570801.2999999523,8017,WL,B,10.0
5,16.044000148773193,learn,60000.0,Tue Apr 08 2025 15:04:38 GMT-0500 (Central Daylight Time),571901.6999999881,A,cl,I,l,86,2,1100.4000000357628,570801.2999999523,8017,WL,B,10.0
5,16.229000091552734,learn,60000.0,Tue Apr 08 2025 15:04:38 GMT-0500 (Central Daylight Time),572086.1999999881,A,clo,I,o,178,2,1284.9000000357628,570801.2999999523,8017,WL,B,10.0
5,16.66100001335144,learn,60000.0,Tue Apr 08 2025 15:04:38 GMT-0500 (Central Daylight Time),572518.8999999762,A,cloc,I,c,415,2,1717.6000000238419,570801.2999999523,8017,WL,B,10.0
5,16.74400019645691,learn,60000.0,Tue Apr 08 2025 15:04:38 GMT-0500 (Central Daylight Time),572601.3999999762,A,clock,I,k,70,2,1800.1000000238419,570801.2999999523,8017,WL,B,10.0
5,17.01200008392334,learn,60000.0,Tue Apr 08 2025 15:04:38 GMT-0500 (Central Daylight Time),572869.0999999642,A,clockenter,I,enter,254,2,2067.800000011921,570801.2999999523,8017,WL,B,10.0
5,18.59500002861023,learn,60000.0,Tue Apr 08 2025 15:04:38 GMT-0500 (Central Daylight Time),574452.5,A,a,I,a,1564,2,1583.2000000476837,572869.2999999523,8017,WL,B,11.0
5,18.72699999809265,learn,60000.0,Tue Apr 08 2025 15:04:38 GMT-0500 (Central Daylight Time),574584.3999999762,A,ar,I,r,122,2,1715.1000000238419,572869.2999999523,8017,WL,B,11.0
5,18.895000219345093,learn,60000.0,Tue Apr 08 2025 15:04:38 GMT-0500 (Central Daylight Time),574752.0999999642,A,arm,I,m,162,2,1882.800000011921,572869.2999999523,8017,WL,B,11.0
5,19.295000076293945,learn,60000.0,Tue Apr 08 2025 15:04:38 GMT-0500 (Central Daylight Time),575152.0,A,armenter,I,enter,381,2,2282.7000000476837,572869.2999999523,8017,WL,B,11.0
5,19.645000219345093,learn,60000.0,Tue Apr 08 2025 15:04:38 GMT-0500 (Central Daylight Time),575502.6999999881,A,s,I,s,346,2,350.30000001192093,575152.3999999762,8017,WL,B,12.0
5,19.759999990463257,learn,60000.0,Tue Apr 08 2025 15:04:38 GMT-0500 (Central Daylight Time),575618.0,A,st,I,t,96,2,465.60000002384186,575152.3999999762,8017,WL,B,12.0
5,19.860000133514404,learn,60000.0,Tue Apr 08 2025 15:04:38 GMT-0500 (Central Daylight Time),575717.7999999523,A,sta,I,a,91,2,565.3999999761581,575152.3999999762,8017,WL,B,12.0
5,19.993000030517578,learn,60000.0,Tue Apr 08 2025 15:04:38 GMT-0500 (Central Daylight Time),575850.5999999642,A,star,I,r,115,2,698.1999999880791,575152.3999999762,8017,WL,B,12.0
5,20.41000008583069,learn,60000.0,Tue Apr 08 2025 15:04:38 GMT-0500 (Central Daylight Time),576267.8999999762,A,starenter,I,enter,405,2,1115.5,575152.3999999762,8017,WL,B,12.0
5,20.710000038146973,learn,60000.0,Tue Apr 08 2025 15:04:38 GMT-0500 (Central Daylight Time),576567.3999999762,A,p,I,p,284,2,299.30000001192093,576268.0999999642,8017,WL,B,13.0
5,20.877000093460083,learn,60000.0,Tue Apr 08 2025 15:04:38 GMT-0500 (Central Daylight Time),576734.7999999523,A,pu,I,u,152,2,466.69999998807907,576268.0999999642,8017,WL,B,13.0
5,21.026000022888184,learn,60000.0,Tue Apr 08 2025 15:04:38 GMT-0500 (Central Daylight Time),576883.7999999523,A,pup,I,p,137,2,615.6999999880791,576268.0999999642,8017,WL,B,13.0
5,21.127000093460083,learn,60000.0,Tue Apr 08 2025 15:04:38 GMT-0500 (Central Daylight Time),576984.2999999523,A,pupi,I,i,83,2,716.1999999880791,576268.0999999642,8017,WL,B,13.0
5,21.444000005722046,learn,60000.0,Tue Apr 08 2025 15:04:38 GMT-0500 (Central Daylight Time),577301.6999999881,A,pupil,I,l,295,2,1033.6000000238419,576268.0999999642,8017,WL,B,13.0
5,21.62600016593933,learn,60000.0,Tue Apr 08 2025 15:04:38 GMT-0500 (Central Daylight Time),577483.5,A,pupilenter,I,enter,169,2,1215.4000000357628,576268.0999999642,8017,WL,B,13.0
5,23.243000030517578,learn,60000.0,Tue Apr 08 2025 15:04:38 GMT-0500 (Central Daylight Time),579100.5999999642,A,f,I,f,1604,2,1616.8999999761581,577483.6999999881,8017,WL,B,14.0
5,23.35800004005432,learn,60000.0,Tue Apr 08 2025 15:04:38 GMT-0500 (Central Daylight Time),579215.8999999762,A,fi,I,i,94,2,1732.199999988079,577483.6999999881,8017,WL,B,14.0
5,23.508000135421753,learn,60000.0,Tue Apr 08 2025 15:04:38 GMT-0500 (Central Daylight Time),579365.6999999881,A,fir,I,r,142,2,1882.0,577483.6999999881,8017,WL,B,14.0
5,23.60800004005432,learn,60000.0,Tue Apr 08 2025 15:04:38 GMT-0500 (Central Daylight Time),579465.6999999881,A,fire,I,e,88,2,1982.0,577483.6999999881,8017,WL,B,14.0
5,23.926000118255615,learn,60000.0,Tue Apr 08 2025 15:04:38 GMT-0500 (Central Daylight Time),579783.1999999881,A,fireenter,I,enter,311,2,2299.5,577483.6999999881,8017,WL,B,14.0
5,31.474000215530396,learn,60000.0,Tue Apr 08 2025 15:04:38 GMT-0500 (Central Daylight Time),587332.0,A,g,I,g,7537,2,7548.600000023842,579783.3999999762,8017,WL,B,15.0
5,31.790000200271606,learn,60000.0,Tue Apr 08 2025 15:04:38 GMT-0500 (Central Daylight Time),587647.1999999881,A,gr,I,r,294,2,7863.800000011921,579783.3999999762,8017,WL,B,15.0
5,31.83899998664856,learn,60000.0,Tue Apr 08 2025 15:04:38 GMT-0500 (Central Daylight Time),587696.3999999762,A,gra,I,a,37,2,7913.0,579783.3999999762,8017,WL,B,15.0
5,32.00600004196167,learn,60000.0,Tue Apr 08 2025 15:04:38 GMT-0500 (Central Daylight Time),587863.8999999762,A,gras,I,s,150,2,8080.5,579783.3999999762,8017,WL,B,15.0
5,32.224000215530396,learn,60000.0,Tue Apr 08 2025 15:04:38 GMT-0500 (Central Daylight Time),588081.1999999881,A,grass,I,s,212,2,8297.800000011921,579783.3999999762,8017,WL,B,15.0
5,32.390000104904175,learn,60000.0,Tue Apr 08 2025 15:04:38 GMT-0500 (Central Daylight Time),588247.0999999642,A,grassenter,I,enter,157,2,8463.699999988079,579783.3999999762,8017,WL,B,15.0
6,0.817000150680542,distr,59182.99984931946,Tue Apr 08 2025 15:04:38 GMT-0500 (Central Daylight Time),658109.8999999762,B,b,I,b,803,2,817.3000000119209,657292.5999999642,8017,WL,B,1.0
6,0.9309999942779541,distr,59069.000005722046,Tue Apr 08 2025 15:04:38 GMT-0500 (Central Daylight Time),658224.0999999642,B,ba,I,a,106,2,931.5,657292.5999999642,8017,WL,B,1.0
6,1.0989999771118164,distr,58901.00002288818,Tue Apr 08 2025 15:04:38 GMT-0500 (Central Daylight Time),658392.0,B,bab,I,b,150,2,1099.4000000357628,657292.5999999642,8017,WL,B,1.0
6,1.3320000171661377,distr,58667.99998283386,Tue Apr 08 2025 15:04:38 GMT-0500 (Central Daylight Time),658625.0,B,baby,I,y,223,2,1332.4000000357628,657292.5999999642,8017,WL,B,1.0
6,1.8819999694824219,distr,58118.00003051758,Tue Apr 08 2025 15:04:38 GMT-0500 (Central Daylight Time),659174.8999999762,B,babyenter,I,enter,535,2,1882.300000011921,657292.5999999642,8017,WL,B,1.0
6,2.2170000076293945,distr,57782.999992370605,Tue Apr 08 2025 15:04:38 GMT-0500 (Central Daylight Time),659509.3999999762,B,l,I,l,329,2,334.30000001192093,659175.0999999642,8017,WL,B,2.0
6,2.3310000896453857,distr,57668.999910354614,Tue Apr 08 2025 15:04:38 GMT-0500 (Central Daylight Time),659623.5999999642,B,li,I,i,107,2,448.5,659175.0999999642,8017,WL,B,2.0
6,2.564000129699707,distr,57435.99987030029,Tue Apr 08 2025 15:04:38 GMT-0500 (Central Daylight Time),659857.0,B,lip,I,p,224,2,681.9000000357628,659175.0999999642,8017,WL,B,2.0
6,2.930999994277954,distr,57069.000005722046,Tue Apr 08 2025 15:04:38 GMT-0500 (Central Daylight Time),660223.8999999762,B,lipenter,I,enter,351,2,1048.800000011921,659175.0999999642,8017,WL,B,2.0
6,3.249000072479248,distr,56750.99992752075,Tue Apr 08 2025 15:04:38 GMT-0500 (Central Daylight Time),660541.3999999762,B,o,I,o,312,2,317.19999998807907,660224.1999999881,8017,WL,B,3.0
6,3.4660000801086426,distr,56533.99991989136,Tue Apr 08 2025 15:04:38 GMT-0500 (Central Daylight Time),660759.0,B,oc,I,c,211,2,534.8000000119209,660224.1999999881,8017,WL,B,3.0
6,3.7160000801086426,distr,56283.99991989136,Tue Apr 08 2025 15:04:38 GMT-0500 (Central Daylight Time),661008.7999999523,B,oce,I,e,243,2,784.5999999642372,660224.1999999881,8017,WL,B,3.0
6,3.7810001373291016,distr,56218.9998626709,Tue Apr 08 2025 15:04:38 GMT-0500 (Central Daylight Time),661073.2999999523,B,ocea,I,a,53,2,849.0999999642372,660224.1999999881,8017,WL,B,3.0
6,3.9810001850128174,distr,56018.99981498718,Tue Apr 08 2025 15:04:38 GMT-0500 (Central Daylight Time),661274.0,B,ocean,I,n,183,2,1049.800000011921,660224.1999999881,8017,WL,B,3.0
6,4.314000129699707,distr,55685.99987030029,Tue Apr 08 2025 15:04:38 GMT-0500 (Central Daylight Time),661606.7999999523,B,oceanenter,I,enter,325,2,1382.5999999642372,660224.1999999881,8017,WL,B,3.0
6,4.814000129699707,distr,55185.99987030029,Tue Apr 08 2025 15:04:38 GMT-0500 (Central Daylight Time),662106.5999999642,B,p,I,p,489,2,499.5999999642372,661607.0,8017,WL,B,4.0
6,5.014000177383423,distr,54985.99982261658,Tue Apr 08 2025 15:04:38 GMT-0500 (Central Daylight Time),662307.0,B,pa,I,a,190,2,700.0,661607.0,8017,WL,B,4.0
6,5.164000034332275,distr,54835.999965667725,Tue Apr 08 2025 15:04:38 GMT-0500 (Central Daylight Time),662457.0,B,pal,I,l,129,2,850.0,661607.0,8017,WL,B,4.0
6,5.2820000648498535,distr,54717.99993515015,Tue Apr 08 2025 15:04:38 GMT-0500 (Central Daylight Time),662575.0999999642,B,pala,I,a,113,2,968.0999999642372,661607.0,8017,WL,B,4.0
6,5.514000177383423,distr,54485.99982261658,Tue Apr 08 2025 15:04:38 GMT-0500 (Central Daylight Time),662807.0999999642,B,palac,I,c,216,2,1200.0999999642372,661607.0,8017,WL,B,4.0
6,5.864000082015991,distr,54135.99991798401,Tue Apr 08 2025 15:04:38 GMT-0500 (Central Daylight Time),663157.0,B,palace,I,e,337,2,1550.0,661607.0,8017,WL,B,4.0
6,6.230000019073486,distr,53769.999980926514,Tue Apr 08 2025 15:04:38 GMT-0500 (Central Daylight Time),663522.2999999523,B,palaceenter,I,enter,347,2,1915.2999999523163,661607.0,8017,WL,B,4.0
6,7.281000137329102,distr,52718.9998626709,Tue Apr 08 2025 15:04:38 GMT-0500 (Central Daylight Time),664573.8999999762,B,c,I,c,1047,2,1051.3999999761581,663522.5,8017,WL,B,5.0
6,7.363000154495239,distr,52636.99984550476,Tue Apr 08 2025 15:04:38 GMT-0500 (Central Daylight Time),664655.5999999642,B,co,I,o,74,2,1133.0999999642372,663522.5,8017,WL,B,5.0
6,7.482000112533569,distr,52517.99988746643,Tue Apr 08 2025 15:04:38 GMT-0500 (Central Daylight Time),664774.5,B,coi,I,i,112,2,1252.0,663522.5,8017,WL,B,5.0
6,7.648000001907349,distr,52351.99999809265,Tue Apr 08 2025 15:04:38 GMT-0500 (Central Daylight Time),664940.2999999523,B,coin,I,n,153,2,1417.7999999523163,663522.5,8017,WL,B,5.0
6,7.980000019073486,distr,52019.999980926514,Tue Apr 08 2025 15:04:38 GMT-0500 (Central Daylight Time),665272.5,B,coinenter,I,enter,323,2,1750.0,663522.5,8017,WL,B,5.0
6,8.663000106811523,distr,51336.99989318848,Tue Apr 08 2025 15:04:38 GMT-0500 (Central Daylight Time),665955.5999999642,B,a,I,a,663,2,682.8000000119209,665272.7999999523,8017,WL,B,6.0
6,8.797000169754028,distr,51202.99983024597,Tue Apr 08 2025 15:04:38 GMT-0500 (Central Daylight Time),666089.5,B,ar,I,r,116,2,816.7000000476837,665272.7999999523,8017,WL,B,6.0
6,8.930000066757202,distr,51069.9999332428,Tue Apr 08 2025 15:04:38 GMT-0500 (Central Daylight Time),666222.7999999523,B,arm,I,m,118,2,950.0,665272.7999999523,8017,WL,B,6.0
6,9.17900013923645,distr,50820.99986076355,Tue Apr 08 2025 15:04:38 GMT-0500 (Central Daylight Time),666472.0,B,army,I,y,232,2,1199.2000000476837,665272.7999999523,8017,WL,B,6.0
6,9.462000131607056,distr,50537.999868392944,Tue Apr 08 2025 15:04:38 GMT-0500 (Central Daylight Time),666754.6999999881,B,armyenter,I,enter,271,2,1481.9000000357628,665272.7999999523,8017,WL,B,6.0
6,9.879000186920166,distr,50120.999813079834,Tue Apr 08 2025 15:04:38 GMT-0500 (Central Daylight Time),667171.1999999881,B,b,I,b,405,2,416.19999998807907,666755.0,8017,WL,B,7.0
6,9.962000131607056,distr,50037.999868392944,Tue Apr 08 2025 15:04:38 GMT-0500 (Central Daylight Time),667254.5,B,bu,I,u,77,2,499.5,666755.0,8017,WL,B,7.0
6,10.063000202178955,distr,49936.999797821045,Tue Apr 08 2025 15:04:38 GMT-0500 (Central Daylight Time),667356.0999999642,B,bui,I,i,87,2,601.0999999642372,666755.0,8017,WL,B,7.0
6,10.246999979019165,distr,49753.000020980835,Tue Apr 08 2025 15:04:38 GMT-0500 (Central Daylight Time),667539.6999999881,B,buil,I,l,162,2,784.6999999880791,666755.0,8017,WL,B,7.0
6,10.413000106811523,distr,49586.99989318848,Tue Apr 08 2025 15:04:38 GMT-0500 (Central Daylight Time),667706.0999999642,B,build,I,d,155,2,951.0999999642372,666755.0,8017,WL,B,7.0
6,10.529000043869019,distr,49470.99995613098,Tue Apr 08 2025 15:04:38 GMT-0500 (Central Daylight Time),667822.1999999881,B,buildi,I,i,104,2,1067.199999988079,666755.0,8017,WL,B,7.0
6,10.61300015449524,distr,49386.99984550476,Tue Apr 08 2025 15:04:38 GMT-0500 (Central Daylight Time),667905.1999999881,B,buildin,I,n,64,2,1150.199999988079,666755.0,8017,WL,B,7.0
6,10.71399998664856,distr,49286.00001335144,Tue Apr 08 2025 15:04:38 GMT-0500 (Central Daylight Time),668006.5999999642,B,building,I,g,95,2,1251.5999999642372,666755.0,8017,WL,B,7.0
6,10.812000036239624,distr,49187.999963760376,Tue Apr 08 2025 15:04:38 GMT-0500 (Central Daylight Time),668104.3999999762,B,buildingenter,I,enter,80,2,1349.3999999761581,666755.0,8017,WL,B,7.0
6,11.479000091552734,distr,48520.999908447266,Tue Apr 08 2025 15:04:38 GMT-0500 (Central Daylight Time),668771.7999999523,B,s,I,s,656,2,667.0999999642372,668104.6999999881,8017,WL,B,8.0
6,11.629000186920166,distr,48370.999813079834,Tue Apr 08 2025 15:04:38 GMT-0500 (Central Daylight Time),668922.0,B,st,I,t,139,2,817.3000000119209,668104.6999999881,8017,WL,B,8.0
6,11.729000091552734,distr,48270.999908447266,Tue Apr 08 2025 15:04:38 GMT-0500 (Central Daylight Time),669021.5,B,sto,I,o,85,2,916.8000000119209,668104.6999999881,8017,WL,B,8.0
6,11.930000066757202,distr,48069.9999332428,Tue Apr 08 2025 15:04:38 GMT-0500 (Central Daylight Time),669222.8999999762,B,stor,I,r,186,2,1118.199999988079,668104.6999999881,8017,WL,B,8.0
6,11.99400019645691,distr,48005.99980354309,Tue Apr 08 2025 15:04:38 GMT-0500 (Central Daylight Time),669286.3999999762,B,storm,I,m,55,2,1181.699999988079,668104.6999999881,8017,WL,B,8.0
6,12.194000005722046,distr,47805.999994277954,Tue Apr 08 2025 15:04:38 GMT-0500 (Central Daylight Time),669487.0,B,stormenter,I,enter,196,2,1382.300000011921,668104.6999999881,8017,WL,B,8.0
6,12.529000043869019,distr,47470.99995613098,Tue Apr 08 2025 15:04:38 GMT-0500 (Central Daylight Time),669821.1999999881,B,c,I,c,321,2,334.0,669487.1999999881,8017,WL,B,9.0
6,12.746000051498413,distr,47253.99994850159,Tue Apr 08 2025 15:04:38 GMT-0500 (Central Daylight Time),670038.2999999523,B,ce,I,e,203,2,551.0999999642372,669487.1999999881,8017,WL,B,9.0
6,12.811000108718872,distr,47188.99989128113,Tue Apr 08 2025 15:04:38 GMT-0500 (Central Daylight Time),670103.8999999762,B,cel,I,l,48,2,616.6999999880791,669487.1999999881,8017,WL,B,9.0
6,12.996000051498413,distr,47003.99994850159,Tue Apr 08 2025 15:04:38 GMT-0500 (Central Daylight Time),670288.7999999523,B,cell,I,l,168,2,801.5999999642372,669487.1999999881,8017,WL,B,9.0
6,13.394000053405762,distr,46605.99994659424,Tue Apr 08 2025 15:04:38 GMT-0500 (Central Daylight Time),670687.0,B,cellenter,I,enter,390,2,1199.800000011921,669487.1999999881,8017,WL,B,9.0
6,15.92900013923645,distr,44070.99986076355,Tue Apr 08 2025 15:04:38 GMT-0500 (Central Daylight Time),673222.0,B,c,I,c,2530,2,2534.7000000476837,670687.2999999523,8017,WL,B,10.0
6,15.976999998092651,distr,44023.00000190735,Tue Apr 08 2025 15:04:38 GMT-0500 (Central Daylight Time),673269.5999999642,B,co,I,o,41,2,2582.300000011921,670687.2999999523,8017,WL,B,10.0
6,16.111000061035156,distr,43888.999938964844,Tue Apr 08 2025 15:04:38 GMT-0500 (Central Daylight Time),673403.2999999523,B,coi,I,i,114,2,2716.0,670687.2999999523,8017,WL,B,10.0
6,16.24400019645691,distr,43755.99980354309,Tue Apr 08 2025 15:04:38 GMT-0500 (Central Daylight Time),673536.5999999642,B,coin,I,n,116,2,2849.300000011921,670687.2999999523,8017,WL,B,10.0
6,16.544000148773193,distr,43455.99985122681,Tue Apr 08 2025 15:04:38 GMT-0500 (Central Daylight Time),673837.0999999642,B,coinenter,I,enter,287,2,3149.800000011921,670687.2999999523,8017,WL,B,10.0
6,26.890000104904175,distr,33109.999895095825,Tue Apr 08 2025 15:04:38 GMT-0500 (Central Daylight Time),684182.7999999523,B,d,I,d,10340,2,10345.399999976158,673837.3999999762,8017,WL,B,11.0
6,27.124000072479248,distr,32875.99992752075,Tue Apr 08 2025 15:04:38 GMT-0500 (Central Daylight Time),684416.2999999523,B,dr,I,r,227,2,10578.899999976158,673837.3999999762,8017,WL,B,11.0
6,27.207000017166138,distr,32792.99998283386,Tue Apr 08 2025 15:04:38 GMT-0500 (Central Daylight Time),684500.0,B,dre,I,e,63,2,10662.600000023842,673837.3999999762,8017,WL,B,11.0
6,27.27300000190735,distr,32726.99999809265,Tue Apr 08 2025 15:04:38 GMT-0500 (Central Daylight Time),684565.7999999523,B,dres,I,s,60,2,10728.399999976158,673837.3999999762,8017,WL,B,11.0
6,27.473000049591064,distr,32526.999950408936,Tue Apr 08 2025 15:04:38 GMT-0500 (Central Daylight Time),684765.7999999523,B,dress,I,s,195,2,10928.399999976158,673837.3999999762,8017,WL,B,11.0
6,27.60800004005432,distr,32391.99995994568,Tue Apr 08 2025 15:04:38 GMT-0500 (Central Daylight Time),684900.3999999762,B,dressenter,I,enter,121,2,11063.0,673837.3999999762,8017,WL,B,11.0
6,31.091000080108643,distr,28908.999919891357,Tue Apr 08 2025 15:04:38 GMT-0500 (Central Daylight Time),688383.8999999762,B,r,I,r,3478,2,3483.199999988079,684900.6999999881,8017,WL,B,12.0
6,31.189000129699707,distr,28810.999870300293,Tue Apr 08 2025 15:04:38 GMT-0500 (Central Daylight Time),688481.8999999762,B,ro,I,o,88,2,3581.199999988079,684900.6999999881,8017,WL,B,12.0
6,31.355000019073486,distr,28644.999980926514,Tue Apr 08 2025 15:04:38 GMT-0500 (Central Daylight Time),688647.7999999523,B,roc,I,c,160,2,3747.099999964237,684900.6999999881,8017,WL,B,12.0
6,31.44000005722046,distr,28559.99994277954,Tue Apr 08 2025 15:04:38 GMT-0500 (Central Daylight Time),688732.1999999881,B,rock,I,k,63,2,3831.5,684900.6999999881,8017,WL,B,12.0
6,31.623000144958496,distr,28376.999855041504,Tue Apr 08 2025 15:04:38 GMT-0500 (Central Daylight Time),688915.3999999762,B,rockenter,I,enter,171,2,4014.699999988079,684900.6999999881,8017,WL,B,12.0
6,38.2039999961853,distr,21796.000003814697,Tue Apr 08 2025 15:04:38 GMT-0500 (Central Daylight Time),695497.0,B,a,I,a,6565,2,6581.300000011921,688915.6999999881,8017,WL,B,13.0
6,38.33899998664856,distr,21661.00001335144,Tue Apr 08 2025 15:04:38 GMT-0500 (Central Daylight Time),695631.2999999523,B,ar,I,r,129,2,6715.599999964237,688915.6999999881,8017,WL,B,13.0
6,39.05400013923645,distr,20945.99986076355,Tue Apr 08 2025 15:04:38 GMT-0500 (Central Daylight Time),696346.8999999762,B,a,I,backspace,704,2,7431.199999988079,688915.6999999881,8017,WL,B,13.0
6,39.269999980926514,distr,20730.000019073486,Tue Apr 08 2025 15:04:38 GMT-0500 (Central Daylight Time),696562.6999999881,B,,I,backspace,206,2,7647.0,688915.6999999881,8017,WL,B,13.0
6,43.51900005340576,distr,16480.99994659424,Tue Apr 08 2025 15:04:38 GMT-0500 (Central Daylight Time),700812.1999999881,B,a,I,a,4237,2,11896.5,688915.6999999881,8017,WL,B,13.0
6,43.66900014877319,distr,16330.999851226807,Tue Apr 08 2025 15:04:38 GMT-0500 (Central Daylight Time),700961.5999999642,B,ar,I,r,142,2,12045.899999976158,688915.6999999881,8017,WL,B,13.0
6,43.80299997329712,distr,16197.00002670288,Tue Apr 08 2025 15:04:38 GMT-0500 (Central Daylight Time),701096.1999999881,B,arm,I,m,128,2,12180.5,688915.6999999881,8017,WL,B,13.0
6,44.03500008583069,distr,15964.999914169312,Tue Apr 08 2025 15:04:38 GMT-0500 (Central Daylight Time),701328.0,B,army,I,y,215,2,12412.300000011921,688915.6999999881,8017,WL,B,13.0
6,44.28700017929077,distr,15712.999820709229,Tue Apr 08 2025 15:04:38 GMT-0500 (Central Daylight Time),701579.3999999762,B,armyenter,I,enter,231,2,12663.699999988079,688915.6999999881,8017,WL,B,13.0
6,60.01200008392334,distr,-12.000083923339844,Tue Apr 08 2025 15:04:38 GMT-0500 (Central Daylight Time),717305.0999999642,B,None,I,None,15721,2,15725.399999976158,701579.6999999881,8017,WL,B,14.0
7,1.3330001831054688,immed,58666.99981689453,Tue Apr 08 2025 15:04:38 GMT-0500 (Central Daylight Time),730452.0999999642,A,w,I,w,1320,2,1332.5,729119.5999999642,8017,WL,B,1.0
7,1.4500000476837158,immed,58549.999952316284,Tue Apr 08 2025 15:04:38 GMT-0500 (Central Daylight Time),730569.3999999762,A,wi,I,i,98,2,1449.800000011921,729119.5999999642,8017,WL,B,1.0
7,1.6490001678466797,immed,58350.99983215332,Tue Apr 08 2025 15:04:38 GMT-0500 (Central Daylight Time),730767.8999999762,A,wif,I,f,185,2,1648.300000011921,729119.5999999642,8017,WL,B,1.0
7,1.7350001335144043,immed,58264.999866485596,Tue Apr 08 2025 15:04:38 GMT-0500 (Central Daylight Time),730854.0999999642,A,wife,I,e,79,2,1734.5,729119.5999999642,8017,WL,B,1.0
7,2.0329999923706055,immed,57967.000007629395,Tue Apr 08 2025 15:04:38 GMT-0500 (Central Daylight Time),731151.8999999762,A,wifeenter,I,enter,281,2,2032.300000011921,729119.5999999642,8017,WL,B,1.0
7,2.5510001182556152,immed,57448.999881744385,Tue Apr 08 2025 15:04:38 GMT-0500 (Central Daylight Time),731669.8999999762,A,s,I,s,512,2,517.6999999880791,731152.1999999881,8017,WL,B,2.0
7,2.75,immed,57250.0,Tue Apr 08 2025 15:04:38 GMT-0500 (Central Daylight Time),731869.6999999881,A,st,I,t,178,2,717.5,731152.1999999881,8017,WL,B,2.0
7,2.8320000171661377,immed,57167.99998283386,Tue Apr 08 2025 15:04:38 GMT-0500 (Central Daylight Time),731950.8999999762,A,sta,I,a,64,2,798.6999999880791,731152.1999999881,8017,WL,B,2.0
7,2.9820001125335693,immed,57017.99988746643,Tue Apr 08 2025 15:04:38 GMT-0500 (Central Daylight Time),732101.2999999523,A,star,I,r,139,2,949.0999999642372,731152.1999999881,8017,WL,B,2.0
7,3.632000207901001,immed,56367.999792099,Tue Apr 08 2025 15:04:38 GMT-0500 (Central Daylight Time),732751.2999999523,A,starenter,I,enter,642,2,1599.0999999642372,731152.1999999881,8017,WL,B,2.0
7,3.9830000400543213,immed,56016.99995994568,Tue Apr 08 2025 15:04:38 GMT-0500 (Central Daylight Time),733102.1999999881,A,p,I,p,345,2,350.60000002384186,732751.5999999642,8017,WL,B,3.0
7,4.1650002002716064,immed,55834.99979972839,Tue Apr 08 2025 15:04:38 GMT-0500 (Central Daylight Time),733283.8999999762,A,pu,I,u,162,2,532.3000000119209,732751.5999999642,8017,WL,B,3.0
7,4.365000009536743,immed,55634.99999046326,Tue Apr 08 2025 15:04:38 GMT-0500 (Central Daylight Time),733484.5,A,pup,I,p,187,2,732.9000000357628,732751.5999999642,8017,WL,B,3.0
7,4.799000024795532,immed,55200.99997520447,Tue Apr 08 2025 15:04:38 GMT-0500 (Central Daylight Time),733918.1999999881,A,pupi,I,i,428,2,1166.6000000238419,732751.5999999642,8017,WL,B,3.0
7,4.966000080108643,immed,55033.99991989136,Tue Apr 08 2025 15:04:38 GMT-0500 (Central Daylight Time),734085.3999999762,A,pupil,I,l,147,2,1333.800000011921,732751.5999999642,8017,WL,B,3.0
7,5.249000072479248,immed,54750.99992752075,Tue Apr 08 2025 15:04:38 GMT-0500 (Central Daylight Time),734368.0999999642,A,pupilenter,I,enter,267,2,1616.5,732751.5999999642,8017,WL,B,3.0
