block_c,block_dur,condition,countdown,datetime,endtime,list,multichar_response,project,response,response_time,session_number,start_end,starttime,subject_id,task,task_vers,trial
,,,,Thu Jan 23 2025 15:04:24 GMT-0600 (Central Standard Time),,,,I,space,416,1,,,8017,WL,A,
prac,,0,,Thu Jan 23 2025 15:04:24 GMT-0600 (Central Standard Time),,NA,b,I,b,14723,1,,,8017,WL,A,1.0
prac,,0,,Thu Jan 23 2025 15:04:24 GMT-0600 (Central Standard Time),,NA,bo,I,o,124,1,,,8017,WL,A,1.0
prac,,0,,Thu Jan 23 2025 15:04:24 GMT-0600 (Central Standard Time),,NA,boo,I,o,176,1,,,8017,WL,A,1.0
prac,,0,,Thu Jan 23 2025 15:04:24 GMT-0600 (Central Standard Time),,NA,boos,I,s,90,1,,,8017,WL,A,1.0
prac,,0,,Thu Jan 23 2025 15:04:24 GMT-0600 (Central Standard Time),,NA,boost,I,t,149,1,,,8017,WL,A,1.0
prac,,0,,Thu Jan 23 2025 15:04:24 GMT-0600 (Central Standard Time),,NA,boostenter,I,enter,2373,1,,,8017,WL,A,1.0
1,1.1670000553131104,learn,58832.99994468689,Thu Jan 23 2025 15:04:24 GMT-0600 (Central Standard Time),147328.6000000015,A,r,I,r,1144,1,1166.0,146162.6000000015,8017,WL,A,1.0
1,1.9500000476837158,learn,58049.999952316284,Thu Jan 23 2025 15:04:24 GMT-0600 (Central Standard Time),148111.70000000298,A,ru,I,u,761,1,1949.1000000014901,146162.6000000015,8017,WL,A,1.0
1,2.1660001277923584,learn,57833.99987220764,Thu Jan 23 2025 15:04:24 GMT-0600 (Central Standard Time),148328.20000000298,A,rug,I,g,194,1,2165.60000000149,146162.6000000015,8017,WL,A,1.0
1,6.9649999141693115,learn,53035.00008583069,Thu Jan 23 2025 15:04:24 GMT-0600 (Central Standard Time),153126.6000000015,A,rugenter,I,enter,4778,1,6964.0,146162.6000000015,8017,WL,A,1.0
1,8.13100004196167,learn,51868.99995803833,Thu Jan 23 2025 15:04:24 GMT-0600 (Central Standard Time),154293.0,A,b,I,b,1148,1,1165.8999999985099,153127.1000000015,8017,WL,A,2.0
1,8.265000104904175,learn,51734.999895095825,Thu Jan 23 2025 15:04:24 GMT-0600 (Central Standard Time),154426.5,A,bu,I,u,126,1,1299.3999999985099,153127.1000000015,8017,WL,A,2.0
1,8.430999994277954,learn,51569.000005722046,Thu Jan 23 2025 15:04:24 GMT-0600 (Central Standard Time),154593.1000000015,A,but,I,t,152,1,1466.0,153127.1000000015,8017,WL,A,2.0
1,8.614000082015991,learn,51385.99991798401,Thu Jan 23 2025 15:04:24 GMT-0600 (Central Standard Time),154776.0,A,butt,I,t,162,1,1648.8999999985099,153127.1000000015,8017,WL,A,2.0
1,8.680999994277954,learn,51319.000005722046,Thu Jan 23 2025 15:04:24 GMT-0600 (Central Standard Time),154842.70000000298,A,butto,I,o,58,1,1715.6000000014901,153127.1000000015,8017,WL,A,2.0
1,8.746999979019165,learn,51253.000020980835,Thu Jan 23 2025 15:04:24 GMT-0600 (Central Standard Time),154909.40000000596,A,button,I,n,56,1,1782.3000000044703,153127.1000000015,8017,WL,A,2.0
1,9.030999898910522,learn,50969.00010108948,Thu Jan 23 2025 15:04:24 GMT-0600 (Central Standard Time),155192.70000000298,A,buttonenter,I,enter,261,1,2065.60000000149,153127.1000000015,8017,WL,A,2.0
1,9.996999979019165,learn,50003.000020980835,Thu Jan 23 2025 15:04:24 GMT-0600 (Central Standard Time),156159.0,A,t,I,t,954,1,965.6999999955297,155193.30000000447,8017,WL,A,3.0
1,10.21399998664856,learn,49786.00001335144,Thu Jan 23 2025 15:04:24 GMT-0600 (Central Standard Time),156375.80000000447,A,tr,I,r,204,1,1182.5,155193.30000000447,8017,WL,A,3.0
1,10.246999979019165,learn,49753.000020980835,Thu Jan 23 2025 15:04:24 GMT-0600 (Central Standard Time),156408.90000000596,A,tra,I,a,19,1,1215.6000000014901,155193.30000000447,8017,WL,A,3.0
1,10.414000034332275,learn,49585.999965667725,Thu Jan 23 2025 15:04:24 GMT-0600 (Central Standard Time),156575.5,A,trai,I,i,146,1,1382.1999999955297,155193.30000000447,8017,WL,A,3.0
1,10.480999946594238,learn,49519.00005340576,Thu Jan 23 2025 15:04:24 GMT-0600 (Central Standard Time),156642.5,A,train,I,n,60,1,1449.1999999955297,155193.30000000447,8017,WL,A,3.0
1,10.680000066757202,learn,49319.9999332428,Thu Jan 23 2025 15:04:24 GMT-0600 (Central Standard Time),156842.40000000596,A,trainenter,I,enter,176,1,1649.1000000014901,155193.30000000447,8017,WL,A,3.0
1,11.04699993133545,learn,48953.00006866455,Thu Jan 23 2025 15:04:24 GMT-0600 (Central Standard Time),157208.90000000596,A,f,I,f,352,1,366.0,156842.90000000596,8017,WL,A,4.0
1,11.11299991607666,learn,48887.00008392334,Thu Jan 23 2025 15:04:24 GMT-0600 (Central Standard Time),157275.1000000015,A,fl,I,l,58,1,432.19999999552965,156842.90000000596,8017,WL,A,4.0
1,11.36299991607666,learn,48637.00008392334,Thu Jan 23 2025 15:04:24 GMT-0600 (Central Standard Time),157525.30000000447,A,flo,I,o,232,1,682.3999999985099,156842.90000000596,8017,WL,A,4.0
1,11.447999954223633,learn,48552.00004577637,Thu Jan 23 2025 15:04:24 GMT-0600 (Central Standard Time),157609.80000000447,A,flow,I,w,69,1,766.8999999985099,156842.90000000596,8017,WL,A,4.0
1,11.562999963760376,learn,48437.000036239624,Thu Jan 23 2025 15:04:24 GMT-0600 (Central Standard Time),157725.30000000447,A,flowe,I,e,97,1,882.3999999985099,156842.90000000596,8017,WL,A,4.0
1,11.713000059127808,learn,48286.99994087219,Thu Jan 23 2025 15:04:24 GMT-0600 (Central Standard Time),157875.20000000298,A,flower,I,r,126,1,1032.2999999970198,156842.90000000596,8017,WL,A,4.0
1,11.946000099182129,learn,48053.99990081787,Thu Jan 23 2025 15:04:24 GMT-0600 (Central Standard Time),158108.40000000596,A,flowerenter,I,enter,215,1,1265.5,156842.90000000596,8017,WL,A,4.0
1,13.314000129699707,learn,46685.99987030029,Thu Jan 23 2025 15:04:24 GMT-0600 (Central Standard Time),159475.70000000298,A,c,I,c,1359,1,1366.8999999985099,158108.80000000447,8017,WL,A,5.0
1,13.395999908447266,learn,46604.000091552734,Thu Jan 23 2025 15:04:24 GMT-0600 (Central Standard Time),159558.1000000015,A,ch,I,h,71,1,1449.2999999970198,158108.80000000447,8017,WL,A,5.0
1,13.496000051498413,learn,46503.99994850159,Thu Jan 23 2025 15:04:24 GMT-0600 (Central Standard Time),159658.20000000298,A,chi,I,i,76,1,1549.3999999985099,158108.80000000447,8017,WL,A,5.0
1,13.663000106811523,learn,46336.99989318848,Thu Jan 23 2025 15:04:24 GMT-0600 (Central Standard Time),159824.5,A,chim,I,m,145,1,1715.6999999955297,158108.80000000447,8017,WL,A,5.0
1,13.930000066757202,learn,46069.9999332428,Thu Jan 23 2025 15:04:24 GMT-0600 (Central Standard Time),160092.20000000298,A,chimn,I,n,250,1,1983.3999999985099,158108.80000000447,8017,WL,A,5.0
1,14.062000036239624,learn,45937.999963760376,Thu Jan 23 2025 15:04:24 GMT-0600 (Central Standard Time),160224.30000000447,A,chimne,I,e,119,1,2115.5,158108.80000000447,8017,WL,A,5.0
1,14.178999900817871,learn,45821.00009918213,Thu Jan 23 2025 15:04:24 GMT-0600 (Central Standard Time),160341.30000000447,A,chimney,I,y,99,1,2232.5,158108.80000000447,8017,WL,A,5.0
1,14.446000099182129,learn,45553.99990081787,Thu Jan 23 2025 15:04:24 GMT-0600 (Central Standard Time),160607.80000000447,A,chimneyenter,I,enter,246,1,2499.0,158108.80000000447,8017,WL,A,5.0
1,15.779000043869019,learn,44220.99995613098,Thu Jan 23 2025 15:04:24 GMT-0600 (Central Standard Time),161940.5,A,t,I,t,1315,1,1332.2999999970198,160608.20000000298,8017,WL,A,6.0
1,15.995000123977661,learn,44004.99987602234,Thu Jan 23 2025 15:04:24 GMT-0600 (Central Standard Time),162156.90000000596,A,tr,I,r,206,1,1548.7000000029802,160608.20000000298,8017,WL,A,6.0
1,16.07800006866455,learn,43921.99993133545,Thu Jan 23 2025 15:04:24 GMT-0600 (Central Standard Time),162240.40000000596,A,tra,I,a,60,1,1632.2000000029802,160608.20000000298,8017,WL,A,6.0
1,16.17899990081787,learn,43821.00009918213,Thu Jan 23 2025 15:04:24 GMT-0600 (Central Standard Time),162340.70000000298,A,trai,I,i,83,1,1732.5,160608.20000000298,8017,WL,A,6.0
1,16.312000036239624,learn,43687.999963760376,Thu Jan 23 2025 15:04:24 GMT-0600 (Central Standard Time),162474.0,A,train,I,n,110,1,1865.7999999970198,160608.20000000298,8017,WL,A,6.0
1,17.32800006866455,learn,42671.99993133545,Thu Jan 23 2025 15:04:24 GMT-0600 (Central Standard Time),163490.0,A,trai,I,backspace,1001,1,2881.7999999970198,160608.20000000298,8017,WL,A,6.0
1,18.42799997329712,learn,41572.00002670288,Thu Jan 23 2025 15:04:24 GMT-0600 (Central Standard Time),164589.80000000447,A,train,I,n,1081,1,3981.60000000149,160608.20000000298,8017,WL,A,6.0
1,18.710999965667725,learn,41289.000034332275,Thu Jan 23 2025 15:04:24 GMT-0600 (Central Standard Time),164873.30000000447,A,trainenter,I,enter,269,1,4265.10000000149,160608.20000000298,8017,WL,A,6.0
1,21.17799997329712,learn,38822.00002670288,Thu Jan 23 2025 15:04:24 GMT-0600 (Central Standard Time),167339.6000000015,A,m,I,m,2450,1,2465.89999999851,164873.70000000298,8017,WL,A,7.0
1,21.293999910354614,learn,38706.000089645386,Thu Jan 23 2025 15:04:24 GMT-0600 (Central Standard Time),167455.5,A,me,I,e,104,1,2581.7999999970198,164873.70000000298,8017,WL,A,7.0
1,21.39400005340576,learn,38605.99994659424,Thu Jan 23 2025 15:04:24 GMT-0600 (Central Standard Time),167555.5,A,mea,I,a,84,1,2681.7999999970198,164873.70000000298,8017,WL,A,7.0
1,21.609999895095825,learn,38390.000104904175,Thu Jan 23 2025 15:04:24 GMT-0600 (Central Standard Time),167772.1000000015,A,mead,I,d,208,1,2898.39999999851,164873.70000000298,8017,WL,A,7.0
1,21.943000078201294,learn,38056.999921798706,Thu Jan 23 2025 15:04:24 GMT-0600 (Central Standard Time),168105.30000000447,A,meado,I,o,311,1,3231.60000000149,164873.70000000298,8017,WL,A,7.0
1,22.127000093460083,learn,37872.99990653992,Thu Jan 23 2025 15:04:24 GMT-0600 (Central Standard Time),168288.80000000447,A,meadow,I,w,162,1,3415.10000000149,164873.70000000298,8017,WL,A,7.0
1,22.243000030517578,learn,37756.99996948242,Thu Jan 23 2025 15:04:24 GMT-0600 (Central Standard Time),168405.30000000447,A,meadowenter,I,enter,98,1,3531.60000000149,164873.70000000298,8017,WL,A,7.0
1,22.509999990463257,learn,37490.00000953674,Thu Jan 23 2025 15:04:24 GMT-0600 (Central Standard Time),168671.90000000596,A,a,I,a,245,1,266.1000000014901,168405.80000000447,8017,WL,A,8.0
1,22.592999935150146,learn,37407.00006484985,Thu Jan 23 2025 15:04:24 GMT-0600 (Central Standard Time),168755.0,A,ap,I,p,75,1,349.19999999552965,168405.80000000447,8017,WL,A,8.0
1,22.776999950408936,learn,37223.000049591064,Thu Jan 23 2025 15:04:24 GMT-0600 (Central Standard Time),168938.6000000015,A,app,I,p,160,1,532.7999999970198,168405.80000000447,8017,WL,A,8.0
1,22.9760000705719,learn,37023.9999294281,Thu Jan 23 2025 15:04:24 GMT-0600 (Central Standard Time),169138.20000000298,A,appl,I,l,177,1,732.3999999985099,168405.80000000447,8017,WL,A,8.0
1,23.042999982833862,learn,36957.00001716614,Thu Jan 23 2025 15:04:24 GMT-0600 (Central Standard Time),169205.20000000298,A,apple,I,e,49,1,799.3999999985099,168405.80000000447,8017,WL,A,8.0
1,23.194000005722046,learn,36805.999994277954,Thu Jan 23 2025 15:04:24 GMT-0600 (Central Standard Time),169355.90000000596,A,appleenter,I,enter,142,1,950.1000000014901,168405.80000000447,8017,WL,A,8.0
1,23.526000022888184,learn,36473.99997711182,Thu Jan 23 2025 15:04:24 GMT-0600 (Central Standard Time),169688.20000000298,A,f,I,f,312,1,332.20000000298023,169356.0,8017,WL,A,9.0
1,23.625999927520752,learn,36374.00007247925,Thu Jan 23 2025 15:04:24 GMT-0600 (Central Standard Time),169788.20000000298,A,fi,I,i,91,1,432.20000000298023,169356.0,8017,WL,A,9.0
1,23.743000030517578,learn,36256.99996948242,Thu Jan 23 2025 15:04:24 GMT-0600 (Central Standard Time),169904.80000000447,A,fin,I,n,95,1,548.8000000044703,169356.0,8017,WL,A,9.0
1,23.926000118255615,learn,36073.999881744385,Thu Jan 23 2025 15:04:24 GMT-0600 (Central Standard Time),170088.20000000298,A,fing,I,g,171,1,732.2000000029802,169356.0,8017,WL,A,9.0
1,24.009000062942505,learn,35990.999937057495,Thu Jan 23 2025 15:04:24 GMT-0600 (Central Standard Time),170171.40000000596,A,finge,I,e,68,1,815.4000000059605,169356.0,8017,WL,A,9.0
1,24.125999927520752,learn,35874.00007247925,Thu Jan 23 2025 15:04:24 GMT-0600 (Central Standard Time),170288.0,A,finger,I,r,96,1,932.0,169356.0,8017,WL,A,9.0
1,24.20900011062622,learn,35790.99988937378,Thu Jan 23 2025 15:04:24 GMT-0600 (Central Standard Time),170371.1000000015,A,fingerenter,I,enter,75,1,1015.1000000014901,169356.0,8017,WL,A,9.0
1,26.39199995994568,learn,33608.00004005432,Thu Jan 23 2025 15:04:24 GMT-0600 (Central Standard Time),172554.0,A,b,I,b,2159,1,2182.5999999940395,170371.40000000596,8017,WL,A,10.0
1,26.45900011062622,learn,33540.99988937378,Thu Jan 23 2025 15:04:24 GMT-0600 (Central Standard Time),172620.80000000447,A,bo,I,o,49,1,2249.39999999851,170371.40000000596,8017,WL,A,10.0
1,26.64199995994568,learn,33358.00004005432,Thu Jan 23 2025 15:04:24 GMT-0600 (Central Standard Time),172803.80000000447,A,boo,I,o,167,1,2432.39999999851,170371.40000000596,8017,WL,A,10.0
1,26.70900011062622,learn,33290.99988937378,Thu Jan 23 2025 15:04:24 GMT-0600 (Central Standard Time),172870.5,A,book,I,k,47,1,2499.0999999940395,170371.40000000596,8017,WL,A,10.0
1,26.924999952316284,learn,33075.000047683716,Thu Jan 23 2025 15:04:24 GMT-0600 (Central Standard Time),173087.30000000447,A,bookenter,I,enter,204,1,2715.89999999851,170371.40000000596,8017,WL,A,10.0
1,30.58999991416931,learn,29410.00008583069,Thu Jan 23 2025 15:04:24 GMT-0600 (Central Standard Time),176752.70000000298,A,m,I,m,3645,1,3665.10000000149,173087.6000000015,8017,WL,A,11.0
1,30.655999898910522,learn,29344.000101089478,Thu Jan 23 2025 15:04:24 GMT-0600 (Central Standard Time),176819.20000000298,A,me,I,e,59,1,3731.60000000149,173087.6000000015,8017,WL,A,11.0
1,30.73900008201599,learn,29260.99991798401,Thu Jan 23 2025 15:04:24 GMT-0600 (Central Standard Time),176902.5,A,mea,I,a,72,1,3814.89999999851,173087.6000000015,8017,WL,A,11.0
1,30.98900008201599,learn,29010.99991798401,Thu Jan 23 2025 15:04:24 GMT-0600 (Central Standard Time),177152.5,A,mead,I,d,229,1,4064.89999999851,173087.6000000015,8017,WL,A,11.0
1,31.122999906539917,learn,28877.000093460083,Thu Jan 23 2025 15:04:24 GMT-0600 (Central Standard Time),177285.70000000298,A,meado,I,o,114,1,4198.10000000149,173087.6000000015,8017,WL,A,11.0
1,31.25600004196167,learn,28743.99995803833,Thu Jan 23 2025 15:04:24 GMT-0600 (Central Standard Time),177419.0,A,meadow,I,w,118,1,4331.39999999851,173087.6000000015,8017,WL,A,11.0
1,31.33899998664856,learn,28661.00001335144,Thu Jan 23 2025 15:04:24 GMT-0600 (Central Standard Time),177502.40000000596,A,meadowenter,I,enter,65,1,4414.80000000447,173087.6000000015,8017,WL,A,11.0
1,34.57200002670288,learn,25427.99997329712,Thu Jan 23 2025 15:04:24 GMT-0600 (Central Standard Time),180734.6000000015,A,l,I,l,3212,1,3231.6999999955297,177502.90000000596,8017,WL,A,12.0
1,34.75500011444092,learn,25244.999885559082,Thu Jan 23 2025 15:04:24 GMT-0600 (Central Standard Time),180918.20000000298,A,lo,I,o,172,1,3415.2999999970198,177502.90000000596,8017,WL,A,12.0
1,34.855000019073486,learn,25144.999980926514,Thu Jan 23 2025 15:04:24 GMT-0600 (Central Standard Time),181018.0,A,log,I,g,85,1,3515.0999999940395,177502.90000000596,8017,WL,A,12.0
1,34.98799991607666,learn,25012.00008392334,Thu Jan 23 2025 15:04:24 GMT-0600 (Central Standard Time),181151.1000000015,A,logenter,I,enter,114,1,3648.1999999955297,177502.90000000596,8017,WL,A,12.0
1,39.187000036239624,learn,20812.999963760376,Thu Jan 23 2025 15:04:24 GMT-0600 (Central Standard Time),185350.0,A,g,I,g,4180,1,4198.5,181151.5,8017,WL,A,13.0
1,39.28699994087219,learn,20713.000059127808,Thu Jan 23 2025 15:04:24 GMT-0600 (Central Standard Time),185450.0,A,go,I,o,77,1,4298.5,181151.5,8017,WL,A,13.0
1,39.437000036239624,learn,20562.999963760376,Thu Jan 23 2025 15:04:24 GMT-0600 (Central Standard Time),185599.90000000596,A,gol,I,l,137,1,4448.4000000059605,181151.5,8017,WL,A,13.0
1,39.55299997329712,learn,20447.00002670288,Thu Jan 23 2025 15:04:24 GMT-0600 (Central Standard Time),185716.5,A,gold,I,d,107,1,4565.0,181151.5,8017,WL,A,13.0
1,39.670000076293945,learn,20329.999923706055,Thu Jan 23 2025 15:04:24 GMT-0600 (Central Standard Time),185833.40000000596,A,goldenter,I,enter,96,1,4681.9000000059605,181151.5,8017,WL,A,13.0
1,50.049999952316284,learn,9950.000047683716,Thu Jan 23 2025 15:04:24 GMT-0600 (Central Standard Time),196213.30000000447,A,l,I,l,10362,1,10379.5,185833.80000000447,8017,WL,A,14.0
1,50.09999990463257,learn,9900.000095367432,Thu Jan 23 2025 15:04:24 GMT-0600 (Central Standard Time),196263.20000000298,A,le,I,e,29,1,10429.39999999851,185833.80000000447,8017,WL,A,14.0
1,50.31699991226196,learn,9683.000087738037,Thu Jan 23 2025 15:04:24 GMT-0600 (Central Standard Time),196479.80000000447,A,lea,I,a,204,1,10646.0,185833.80000000447,8017,WL,A,14.0
1,50.76699995994568,learn,9233.000040054321,Thu Jan 23 2025 15:04:24 GMT-0600 (Central Standard Time),196929.6000000015,A,le,I,backspace,436,1,11095.79999999702,185833.80000000447,8017,WL,A,14.0
1,51.16600012779236,learn,8833.999872207642,Thu Jan 23 2025 15:04:24 GMT-0600 (Central Standard Time),197329.5,A,l,I,backspace,378,1,11495.69999999553,185833.80000000447,8017,WL,A,14.0
1,51.365999937057495,learn,8634.000062942505,Thu Jan 23 2025 15:04:24 GMT-0600 (Central Standard Time),197529.6000000015,A,,I,backspace,186,1,11695.79999999702,185833.80000000447,8017,WL,A,14.0
1,60.013999938964844,learn,-13.99993896484375,Thu Jan 23 2025 15:04:24 GMT-0600 (Central Standard Time),206176.80000000447,A,None,I,None,8641,1,20343.0,185833.80000000447,8017,WL,A,14.0
2,0.7829999923706055,learn,59217.000007629395,Thu Jan 23 2025 15:04:24 GMT-0600 (Central Standard Time),285735.200000003,A,h,I,h,771,1,782.7999999970198,284952.40000000596,8017,WL,A,1.0
2,0.932999849319458,learn,59067.00015068054,Thu Jan 23 2025 15:04:24 GMT-0600 (Central Standard Time),285885.200000003,A,ha,I,a,132,1,932.7999999970198,284952.40000000596,8017,WL,A,1.0
2,1.0989999771118164,learn,58901.00002288818,Thu Jan 23 2025 15:04:24 GMT-0600 (Central Standard Time),286051.80000000447,A,har,I,r,150,1,1099.3999999985099,284952.40000000596,8017,WL,A,1.0
2,1.315999984741211,learn,58684.00001525879,Thu Jan 23 2025 15:04:24 GMT-0600 (Central Standard Time),286268.30000000447,A,harp,I,p,207,1,1315.8999999985099,284952.40000000596,8017,WL,A,1.0
2,1.748999834060669,learn,58251.00016593933,Thu Jan 23 2025 15:04:24 GMT-0600 (Central Standard Time),286701.5,A,harpenter,I,enter,414,1,1749.0999999940395,284952.40000000596,8017,WL,A,1.0
2,2.1659998893737793,learn,57834.00011062622,Thu Jan 23 2025 15:04:24 GMT-0600 (Central Standard Time),287118.0,A,s,I,s,406,1,416.09999999403954,286701.90000000596,8017,WL,A,2.0
2,2.2819998264312744,learn,57718.000173568726,Thu Jan 23 2025 15:04:24 GMT-0600 (Central Standard Time),287234.700000003,A,sa,I,a,101,1,532.7999999970198,286701.90000000596,8017,WL,A,2.0
2,2.4149999618530273,learn,57585.00003814697,Thu Jan 23 2025 15:04:24 GMT-0600 (Central Standard Time),287367.700000003,A,sal,I,l,112,1,665.7999999970198,286701.90000000596,8017,WL,A,2.0
2,2.9489998817443848,learn,57051.000118255615,Thu Jan 23 2025 15:04:24 GMT-0600 (Central Standard Time),287901.1000000015,A,salt,I,t,516,1,1199.1999999955297,286701.90000000596,8017,WL,A,2.0
2,3.1489999294281006,learn,56851.0000705719,Thu Jan 23 2025 15:04:24 GMT-0600 (Central Standard Time),288101.200000003,A,saltenter,I,enter,190,1,1399.2999999970198,286701.90000000596,8017,WL,A,2.0
2,3.6480000019073486,learn,56351.99999809265,Thu Jan 23 2025 15:04:24 GMT-0600 (Central Standard Time),288600.80000000447,A,t,I,t,487,1,499.20000000298023,288101.6000000015,8017,WL,A,3.0
2,3.865000009536743,learn,56134.99999046326,Thu Jan 23 2025 15:04:24 GMT-0600 (Central Standard Time),288817.6000000015,A,tr,I,r,202,1,716.0,288101.6000000015,8017,WL,A,3.0
2,3.9149999618530273,learn,56085.00003814697,Thu Jan 23 2025 15:04:24 GMT-0600 (Central Standard Time),288867.5,A,tra,I,a,42,1,765.8999999985099,288101.6000000015,8017,WL,A,3.0
2,4.048999786376953,learn,55951.00021362305,Thu Jan 23 2025 15:04:24 GMT-0600 (Central Standard Time),289000.90000000596,A,trai,I,i,112,1,899.3000000044703,288101.6000000015,8017,WL,A,3.0
2,4.115000009536743,learn,55884.99999046326,Thu Jan 23 2025 15:04:24 GMT-0600 (Central Standard Time),289067.200000003,A,train,I,n,59,1,965.6000000014901,288101.6000000015,8017,WL,A,3.0
2,4.381999969482422,learn,55618.00003051758,Thu Jan 23 2025 15:04:24 GMT-0600 (Central Standard Time),289334.200000003,A,trainenter,I,enter,256,1,1232.6000000014901,288101.6000000015,8017,WL,A,3.0
2,4.615000009536743,learn,55384.99999046326,Thu Jan 23 2025 15:04:24 GMT-0600 (Central Standard Time),289567.200000003,A,c,I,c,221,1,232.70000000298023,289334.5,8017,WL,A,4.0
2,4.7149999141693115,learn,55285.00008583069,Thu Jan 23 2025 15:04:24 GMT-0600 (Central Standard Time),289667.30000000447,A,ch,I,h,84,1,332.80000000447035,289334.5,8017,WL,A,4.0
2,4.81499981880188,learn,55185.00018119812,Thu Jan 23 2025 15:04:24 GMT-0600 (Central Standard Time),289767.40000000596,A,chi,I,i,88,1,432.90000000596046,289334.5,8017,WL,A,4.0
2,4.947999954223633,learn,55052.00004577637,Thu Jan 23 2025 15:04:24 GMT-0600 (Central Standard Time),289900.5,A,chim,I,m,115,1,566.0,289334.5,8017,WL,A,4.0
2,5.2149999141693115,learn,54785.00008583069,Thu Jan 23 2025 15:04:24 GMT-0600 (Central Standard Time),290167.1000000015,A,chimn,I,n,246,1,832.6000000014901,289334.5,8017,WL,A,4.0
2,5.31499981880188,learn,54685.00018119812,Thu Jan 23 2025 15:04:24 GMT-0600 (Central Standard Time),290267.200000003,A,chimne,I,e,85,1,932.7000000029802,289334.5,8017,WL,A,4.0
2,5.431999921798706,learn,54568.000078201294,Thu Jan 23 2025 15:04:24 GMT-0600 (Central Standard Time),290383.80000000447,A,chimney,I,y,96,1,1049.3000000044703,289334.5,8017,WL,A,4.0
2,5.648000001907349,learn,54351.99999809265,Thu Jan 23 2025 15:04:24 GMT-0600 (Central Standard Time),290600.200000003,A,chimneyenter,I,enter,195,1,1265.7000000029802,289334.5,8017,WL,A,4.0
2,8.313999891281128,learn,51686.00010871887,Thu Jan 23 2025 15:04:24 GMT-0600 (Central Standard Time),293266.40000000596,A,g,I,g,2651,1,2665.8000000044703,290600.6000000015,8017,WL,A,5.0
2,8.396999835968018,learn,51603.00016403198,Thu Jan 23 2025 15:04:24 GMT-0600 (Central Standard Time),293349.40000000596,A,go,I,o,65,1,2748.8000000044703,290600.6000000015,8017,WL,A,5.0
2,8.596999883651733,learn,51403.00011634827,Thu Jan 23 2025 15:04:24 GMT-0600 (Central Standard Time),293549.200000003,A,gol,I,l,190,1,2948.60000000149,290600.6000000015,8017,WL,A,5.0
2,8.730000019073486,learn,51269.999980926514,Thu Jan 23 2025 15:04:24 GMT-0600 (Central Standard Time),293682.40000000596,A,gold,I,d,112,1,3081.8000000044703,290600.6000000015,8017,WL,A,5.0
2,9.746999979019165,learn,50253.000020980835,Thu Jan 23 2025 15:04:24 GMT-0600 (Central Standard Time),294699.200000003,A,gol,I,backspace,1001,1,4098.60000000149,290600.6000000015,8017,WL,A,5.0
2,9.980000019073486,learn,50019.999980926514,Thu Jan 23 2025 15:04:24 GMT-0600 (Central Standard Time),294932.200000003,A,go,I,backspace,216,1,4331.60000000149,290600.6000000015,8017,WL,A,5.0
2,10.347999811172485,learn,49652.000188827515,Thu Jan 23 2025 15:04:24 GMT-0600 (Central Standard Time),295300.0,A,g,I,backspace,359,1,4699.39999999851,290600.6000000015,8017,WL,A,5.0
2,10.578999996185303,learn,49421.0000038147,Thu Jan 23 2025 15:04:24 GMT-0600 (Central Standard Time),295531.90000000596,A,,I,backspace,215,1,4931.30000000447,290600.6000000015,8017,WL,A,5.0
2,11.328999996185303,learn,48671.0000038147,Thu Jan 23 2025 15:04:24 GMT-0600 (Central Standard Time),296281.90000000596,A,a,I,a,728,1,5681.30000000447,290600.6000000015,8017,WL,A,5.0
2,11.461999893188477,learn,48538.00010681152,Thu Jan 23 2025 15:04:24 GMT-0600 (Central Standard Time),296415.200000003,A,ap,I,p,114,1,5814.60000000149,290600.6000000015,8017,WL,A,5.0
2,11.611999988555908,learn,48388.00001144409,Thu Jan 23 2025 15:04:24 GMT-0600 (Central Standard Time),296565.200000003,A,app,I,p,140,1,5964.60000000149,290600.6000000015,8017,WL,A,5.0
2,11.827999830245972,learn,48172.00016975403,Thu Jan 23 2025 15:04:24 GMT-0600 (Central Standard Time),296781.700000003,A,appl,I,l,206,1,6181.10000000149,290600.6000000015,8017,WL,A,5.0
2,11.92799997329712,learn,48072.00002670288,Thu Jan 23 2025 15:04:24 GMT-0600 (Central Standard Time),296881.6000000015,A,apple,I,e,86,1,6281.0,290600.6000000015,8017,WL,A,5.0
2,12.061999797821045,learn,47938.000202178955,Thu Jan 23 2025 15:04:24 GMT-0600 (Central Standard Time),297015.0,A,appleenter,I,enter,114,1,6414.39999999851,290600.6000000015,8017,WL,A,5.0
2,12.477999925613403,learn,47522.0000743866,Thu Jan 23 2025 15:04:24 GMT-0600 (Central Standard Time),297431.40000000596,A,f,I,f,405,1,416.0,297015.40000000596,8017,WL,A,6.0
2,12.544999837875366,learn,47455.000162124634,Thu Jan 23 2025 15:04:24 GMT-0600 (Central Standard Time),297498.1000000015,A,fl,I,l,60,1,482.69999999552965,297015.40000000596,8017,WL,A,6.0
2,12.744999885559082,learn,47255.00011444092,Thu Jan 23 2025 15:04:24 GMT-0600 (Central Standard Time),297698.200000003,A,flo,I,o,177,1,682.7999999970198,297015.40000000596,8017,WL,A,6.0
2,13.010999917984009,learn,46989.00008201599,Thu Jan 23 2025 15:04:24 GMT-0600 (Central Standard Time),297964.6000000015,A,floe,I,e,257,1,949.1999999955297,297015.40000000596,8017,WL,A,6.0
2,13.42799997329712,learn,46572.00002670288,Thu Jan 23 2025 15:04:24 GMT-0600 (Central Standard Time),298381.30000000447,A,flo,I,backspace,399,1,1365.8999999985099,297015.40000000596,8017,WL,A,6.0
2,13.560999870300293,learn,46439.00012969971,Thu Jan 23 2025 15:04:24 GMT-0600 (Central Standard Time),298514.700000003,A,flow,I,w,126,1,1499.2999999970198,297015.40000000596,8017,WL,A,6.0
2,13.610999822616577,learn,46389.00017738342,Thu Jan 23 2025 15:04:24 GMT-0600 (Central Standard Time),298564.5,A,flowe,I,e,40,1,1549.0999999940395,297015.40000000596,8017,WL,A,6.0
2,13.760999917984009,learn,46239.00008201599,Thu Jan 23 2025 15:04:24 GMT-0600 (Central Standard Time),298714.40000000596,A,flower,I,r,143,1,1699.0,297015.40000000596,8017,WL,A,6.0
2,13.977999925613403,learn,46022.0000743866,Thu Jan 23 2025 15:04:24 GMT-0600 (Central Standard Time),298931.1000000015,A,flowerenter,I,enter,201,1,1915.6999999955297,297015.40000000596,8017,WL,A,6.0
2,14.277999877929688,learn,45722.00012207031,Thu Jan 23 2025 15:04:24 GMT-0600 (Central Standard Time),299231.0,A,m,I,m,279,1,299.59999999403954,298931.40000000596,8017,WL,A,7.0
2,14.378000020980835,learn,45621.999979019165,Thu Jan 23 2025 15:04:24 GMT-0600 (Central Standard Time),299331.1000000015,A,me,I,e,84,1,399.69999999552965,298931.40000000596,8017,WL,A,7.0
2,14.444000005722046,learn,45555.999994277954,Thu Jan 23 2025 15:04:24 GMT-0600 (Central Standard Time),299397.40000000596,A,mea,I,a,49,1,466.0,298931.40000000596,8017,WL,A,7.0
2,14.593999862670898,learn,45406.0001373291,Thu Jan 23 2025 15:04:24 GMT-0600 (Central Standard Time),299547.30000000447,A,mead,I,d,142,1,615.8999999985099,298931.40000000596,8017,WL,A,7.0
2,14.710999965667725,learn,45289.000034332275,Thu Jan 23 2025 15:04:24 GMT-0600 (Central Standard Time),299664.1000000015,A,meado,I,o,104,1,732.6999999955297,298931.40000000596,8017,WL,A,7.0
2,14.876999855041504,learn,45123.000144958496,Thu Jan 23 2025 15:04:24 GMT-0600 (Central Standard Time),299830.90000000596,A,meadow,I,w,155,1,899.5,298931.40000000596,8017,WL,A,7.0
2,15.010999917984009,learn,44989.00008201599,Thu Jan 23 2025 15:04:24 GMT-0600 (Central Standard Time),299964.1000000015,A,meadowenter,I,enter,124,1,1032.6999999955297,298931.40000000596,8017,WL,A,7.0
2,15.859999895095825,learn,44140.000104904175,Thu Jan 23 2025 15:04:24 GMT-0600 (Central Standard Time),300813.90000000596,A,t,I,t,839,1,849.5,299964.40000000596,8017,WL,A,8.0
2,16.060999870300293,learn,43939.00012969971,Thu Jan 23 2025 15:04:24 GMT-0600 (Central Standard Time),301014.90000000596,A,tr,I,r,190,1,1050.5,299964.40000000596,8017,WL,A,8.0
2,16.109999895095825,learn,43890.000104904175,Thu Jan 23 2025 15:04:24 GMT-0600 (Central Standard Time),301063.700000003,A,tra,I,a,36,1,1099.2999999970198,299964.40000000596,8017,WL,A,8.0
2,16.209999799728394,learn,43790.00020027161,Thu Jan 23 2025 15:04:24 GMT-0600 (Central Standard Time),301163.40000000596,A,trai,I,i,85,1,1199.0,299964.40000000596,8017,WL,A,8.0
2,16.293999910354614,learn,43706.000089645386,Thu Jan 23 2025 15:04:24 GMT-0600 (Central Standard Time),301247.0,A,train,I,n,64,1,1282.5999999940395,299964.40000000596,8017,WL,A,8.0
2,16.543999910354614,learn,43456.000089645386,Thu Jan 23 2025 15:04:24 GMT-0600 (Central Standard Time),301497.0,A,trainenter,I,enter,236,1,1532.5999999940395,299964.40000000596,8017,WL,A,8.0
2,17.15999984741211,learn,42840.00015258789,Thu Jan 23 2025 15:04:24 GMT-0600 (Central Standard Time),302113.200000003,A,c,I,c,593,1,615.7999999970198,301497.40000000596,8017,WL,A,9.0
2,17.259999990463257,learn,42740.00000953674,Thu Jan 23 2025 15:04:24 GMT-0600 (Central Standard Time),302213.30000000447,A,ch,I,h,82,1,715.8999999985099,301497.40000000596,8017,WL,A,9.0
2,17.32699990272522,learn,42673.00009727478,Thu Jan 23 2025 15:04:24 GMT-0600 (Central Standard Time),302280.200000003,A,chi,I,i,46,1,782.7999999970198,301497.40000000596,8017,WL,A,9.0
2,17.459999799728394,learn,42540.00020027161,Thu Jan 23 2025 15:04:24 GMT-0600 (Central Standard Time),302413.200000003,A,chim,I,m,123,1,915.7999999970198,301497.40000000596,8017,WL,A,9.0
2,17.65999984741211,learn,42340.00015258789,Thu Jan 23 2025 15:04:24 GMT-0600 (Central Standard Time),302613.1000000015,A,chimn,I,n,182,1,1115.6999999955297,301497.40000000596,8017,WL,A,9.0
2,17.76099991798401,learn,42239.00008201599,Thu Jan 23 2025 15:04:24 GMT-0600 (Central Standard Time),302714.200000003,A,chimne,I,e,94,1,1216.7999999970198,301497.40000000596,8017,WL,A,9.0
2,17.875999927520752,learn,42124.00007247925,Thu Jan 23 2025 15:04:24 GMT-0600 (Central Standard Time),302829.80000000447,A,chimney,I,y,105,1,1332.3999999985099,301497.40000000596,8017,WL,A,9.0
2,18.125999927520752,learn,41874.00007247925,Thu Jan 23 2025 15:04:24 GMT-0600 (Central Standard Time),303079.90000000596,A,chimneyenter,I,enter,230,1,1582.5,301497.40000000596,8017,WL,A,9.0
2,18.692999839782715,learn,41307.000160217285,Thu Jan 23 2025 15:04:24 GMT-0600 (Central Standard Time),303646.200000003,A,l,I,l,548,1,565.8999999985099,303080.30000000447,8017,WL,A,10.0
2,18.908999919891357,learn,41091.00008010864,Thu Jan 23 2025 15:04:24 GMT-0600 (Central Standard Time),303862.6000000015,A,lo,I,o,205,1,782.2999999970198,303080.30000000447,8017,WL,A,10.0
2,18.97599983215332,learn,41024.00016784668,Thu Jan 23 2025 15:04:24 GMT-0600 (Central Standard Time),303929.6000000015,A,log,I,g,53,1,849.2999999970198,303080.30000000447,8017,WL,A,10.0
2,19.158999919891357,learn,40841.00008010864,Thu Jan 23 2025 15:04:24 GMT-0600 (Central Standard Time),304112.80000000447,A,logenter,I,enter,170,1,1032.5,303080.30000000447,8017,WL,A,10.0
2,20.741999864578247,learn,39258.00013542175,Thu Jan 23 2025 15:04:24 GMT-0600 (Central Standard Time),305696.0,A,g,I,g,1563,1,1582.7999999970198,304113.200000003,8017,WL,A,11.0
2,20.842000007629395,learn,39157.999992370605,Thu Jan 23 2025 15:04:24 GMT-0600 (Central Standard Time),305795.6000000015,A,go,I,o,90,1,1682.3999999985099,304113.200000003,8017,WL,A,11.0
2,21.024999856948853,learn,38975.00014305115,Thu Jan 23 2025 15:04:24 GMT-0600 (Central Standard Time),305978.700000003,A,gol,I,l,176,1,1865.5,304113.200000003,8017,WL,A,11.0
2,21.14199995994568,learn,38858.00004005432,Thu Jan 23 2025 15:04:24 GMT-0600 (Central Standard Time),306095.40000000596,A,gold,I,d,97,1,1982.2000000029802,304113.200000003,8017,WL,A,11.0
2,21.47499990463257,learn,38525.00009536743,Thu Jan 23 2025 15:04:24 GMT-0600 (Central Standard Time),306428.700000003,A,goldenter,I,enter,316,1,2315.5,304113.200000003,8017,WL,A,11.0
2,21.72599983215332,learn,38274.00016784668,Thu Jan 23 2025 15:04:24 GMT-0600 (Central Standard Time),306679.6000000015,A,k,I,k,230,1,250.60000000149012,306429.0,8017,WL,A,12.0
2,21.842000007629395,learn,38157.999992370605,Thu Jan 23 2025 15:04:24 GMT-0600 (Central Standard Time),306795.0,A,ke,I,e,107,1,366.0,306429.0,8017,WL,A,12.0
2,22.640999794006348,learn,37359.00020599365,Thu Jan 23 2025 15:04:24 GMT-0600 (Central Standard Time),307594.90000000596,A,k,I,backspace,792,1,1165.9000000059605,306429.0,8017,WL,A,12.0
2,23.29099988937378,learn,36709.00011062622,Thu Jan 23 2025 15:04:24 GMT-0600 (Central Standard Time),308244.700000003,A,kk,I,k,641,1,1815.7000000029802,306429.0,8017,WL,A,12.0
2,23.69099998474121,learn,36309.00001525879,Thu Jan 23 2025 15:04:24 GMT-0600 (Central Standard Time),308644.6000000015,A,k,I,backspace,382,1,2215.60000000149,306429.0,8017,WL,A,12.0
2,23.80900001525879,learn,36190.99998474121,Thu Jan 23 2025 15:04:24 GMT-0600 (Central Standard Time),308762.40000000596,A,ke,I,e,103,1,2333.4000000059605,306429.0,8017,WL,A,12.0
2,23.890999794006348,learn,36109.00020599365,Thu Jan 23 2025 15:04:24 GMT-0600 (Central Standard Time),308844.700000003,A,key,I,y,73,1,2415.7000000029802,306429.0,8017,WL,A,12.0
2,24.19099998474121,learn,35809.00001525879,Thu Jan 23 2025 15:04:24 GMT-0600 (Central Standard Time),309144.5,A,keyenter,I,enter,286,1,2715.5,306429.0,8017,WL,A,12.0
2,26.906999826431274,learn,33093.000173568726,Thu Jan 23 2025 15:04:24 GMT-0600 (Central Standard Time),311860.200000003,A,b,I,b,2698,1,2715.39999999851,309144.80000000447,8017,WL,A,13.0
2,27.02300000190735,learn,32976.99999809265,Thu Jan 23 2025 15:04:24 GMT-0600 (Central Standard Time),311976.90000000596,A,bu,I,u,95,1,2832.10000000149,309144.80000000447,8017,WL,A,13.0
2,27.222999811172485,learn,32777.000188827515,Thu Jan 23 2025 15:04:24 GMT-0600 (Central Standard Time),312176.90000000596,A,but,I,t,186,1,3032.10000000149,309144.80000000447,8017,WL,A,13.0
2,27.406999826431274,learn,32593.000173568726,Thu Jan 23 2025 15:04:24 GMT-0600 (Central Standard Time),312360.1000000015,A,butt,I,t,171,1,3215.2999999970198,309144.80000000447,8017,WL,A,13.0
2,27.457000017166138,learn,32542.999982833862,Thu Jan 23 2025 15:04:24 GMT-0600 (Central Standard Time),312410.1000000015,A,butto,I,o,27,1,3265.2999999970198,309144.80000000447,8017,WL,A,13.0
2,27.507999897003174,learn,32492.000102996826,Thu Jan 23 2025 15:04:24 GMT-0600 (Central Standard Time),312461.6000000015,A,button,I,n,34,1,3316.7999999970198,309144.80000000447,8017,WL,A,13.0
2,27.707000017166138,learn,32292.999982833862,Thu Jan 23 2025 15:04:24 GMT-0600 (Central Standard Time),312660.200000003,A,buttonenter,I,enter,191,1,3515.39999999851,309144.80000000447,8017,WL,A,13.0
2,29.77300000190735,learn,30226.99999809265,Thu Jan 23 2025 15:04:24 GMT-0600 (Central Standard Time),314726.1000000015,A,s,I,s,2055,1,2065.60000000149,312660.5,8017,WL,A,14.0
2,30.25599980354309,learn,29744.00019645691,Thu Jan 23 2025 15:04:24 GMT-0600 (Central Standard Time),315209.30000000447,A,,I,backspace,461,1,2548.8000000044703,312660.5,8017,WL,A,14.0
2,32.40499997138977,learn,27595.00002861023,Thu Jan 23 2025 15:04:24 GMT-0600 (Central Standard Time),317358.6000000015,A,r,I,r,2139,1,4698.10000000149,312660.5,8017,WL,A,14.0
2,32.537999868392944,learn,27462.000131607056,Thu Jan 23 2025 15:04:24 GMT-0600 (Central Standard Time),317491.90000000596,A,ru,I,u,117,1,4831.4000000059605,312660.5,8017,WL,A,14.0
2,32.704999923706055,learn,27295.000076293945,Thu Jan 23 2025 15:04:24 GMT-0600 (Central Standard Time),317658.5,A,rug,I,g,159,1,4998.0,312660.5,8017,WL,A,14.0
2,32.88800001144409,learn,27111.99998855591,Thu Jan 23 2025 15:04:24 GMT-0600 (Central Standard Time),317841.6000000015,A,rugenter,I,enter,169,1,5181.10000000149,312660.5,8017,WL,A,14.0
2,54.31499981880188,learn,5685.00018119812,Thu Jan 23 2025 15:04:24 GMT-0600 (Central Standard Time),339268.6000000015,A,t,I,t,21409,1,21426.69999999553,317841.90000000596,8017,WL,A,15.0
2,54.764999866485596,learn,5235.000133514404,Thu Jan 23 2025 15:04:24 GMT-0600 (Central Standard Time),339718.1000000015,A,,I,backspace,430,1,21876.19999999553,317841.90000000596,8017,WL,A,15.0
2,60.01300001144409,learn,-13.000011444091797,Thu Jan 23 2025 15:04:24 GMT-0600 (Central Standard Time),344966.5,A,None,I,None,5241,1,27124.59999999404,317841.90000000596,8017,WL,A,15.0
3,0.8330001831054688,learn,59166.99981689453,Thu Jan 23 2025 15:04:24 GMT-0600 (Central Standard Time),411895.5,A,r,I,r,822,1,832.6999999955297,411062.80000000447,8017,WL,A,1.0
3,1.0500001907348633,learn,58949.99980926514,Thu Jan 23 2025 15:04:24 GMT-0600 (Central Standard Time),412112.30000000447,A,ru,I,u,196,1,1049.5,411062.80000000447,8017,WL,A,1.0
3,1.184000015258789,learn,58815.99998474121,Thu Jan 23 2025 15:04:24 GMT-0600 (Central Standard Time),412246.700000003,A,rug,I,g,123,1,1183.8999999985099,411062.80000000447,8017,WL,A,1.0
3,1.7160000801086426,learn,58283.99991989136,Thu Jan 23 2025 15:04:24 GMT-0600 (Central Standard Time),412778.5,A,rugenter,I,enter,525,1,1715.6999999955297,411062.80000000447,8017,WL,A,1.0
3,2.116000175476074,learn,57883.999824523926,Thu Jan 23 2025 15:04:24 GMT-0600 (Central Standard Time),413178.6000000015,A,r,I,r,378,1,399.8999999985099,412778.700000003,8017,WL,A,2.0
3,2.2660000324249268,learn,57733.99996757507,Thu Jan 23 2025 15:04:24 GMT-0600 (Central Standard Time),413328.5,A,ra,I,a,128,1,549.7999999970198,412778.700000003,8017,WL,A,2.0
3,2.383000135421753,learn,57616.99986457825,Thu Jan 23 2025 15:04:24 GMT-0600 (Central Standard Time),413445.1000000015,A,rat,I,t,107,1,666.3999999985099,412778.700000003,8017,WL,A,2.0
3,2.5830001831054688,learn,57416.99981689453,Thu Jan 23 2025 15:04:24 GMT-0600 (Central Standard Time),413646.1000000015,A,ratt,I,t,182,1,867.3999999985099,412778.700000003,8017,WL,A,2.0
3,2.6660001277923584,learn,57333.99987220764,Thu Jan 23 2025 15:04:24 GMT-0600 (Central Standard Time),413728.40000000596,A,rattl,I,l,69,1,949.7000000029802,412778.700000003,8017,WL,A,2.0
3,2.9160001277923584,learn,57083.99987220764,Thu Jan 23 2025 15:04:24 GMT-0600 (Central Standard Time),413978.6000000015,A,rattle,I,e,227,1,1199.8999999985099,412778.700000003,8017,WL,A,2.0
3,2.999000072479248,learn,57000.99992752075,Thu Jan 23 2025 15:04:24 GMT-0600 (Central Standard Time),414061.700000003,A,rattleenter,I,enter,65,1,1283.0,412778.700000003,8017,WL,A,2.0
3,3.4160001277923584,learn,56583.99987220764,Thu Jan 23 2025 15:04:24 GMT-0600 (Central Standard Time),414478.1000000015,A,b,I,b,399,1,416.1000000014901,414062.0,8017,WL,A,3.0
3,3.499000072479248,learn,56500.99992752075,Thu Jan 23 2025 15:04:24 GMT-0600 (Central Standard Time),414561.40000000596,A,bo,I,o,61,1,499.40000000596046,414062.0,8017,WL,A,3.0
3,3.6650002002716064,learn,56334.99979972839,Thu Jan 23 2025 15:04:24 GMT-0600 (Central Standard Time),414728.1000000015,A,boo,I,o,154,1,666.1000000014901,414062.0,8017,WL,A,3.0
3,3.765000104904175,learn,56234.999895095825,Thu Jan 23 2025 15:04:24 GMT-0600 (Central Standard Time),414828.1000000015,A,book,I,k,84,1,766.1000000014901,414062.0,8017,WL,A,3.0
3,4.049000024795532,learn,55950.99997520447,Thu Jan 23 2025 15:04:24 GMT-0600 (Central Standard Time),415111.1000000015,A,bookenter,I,enter,263,1,1049.1000000014901,414062.0,8017,WL,A,3.0
3,4.299000024795532,learn,55700.99997520447,Thu Jan 23 2025 15:04:24 GMT-0600 (Central Standard Time),415361.200000003,A,a,I,a,237,1,249.60000000149012,415111.6000000015,8017,WL,A,4.0
3,4.5980000495910645,learn,55401.999950408936,Thu Jan 23 2025 15:04:24 GMT-0600 (Central Standard Time),415661.40000000596,A,ap,I,p,291,1,549.8000000044703,415111.6000000015,8017,WL,A,4.0
3,4.980000019073486,learn,55019.999980926514,Thu Jan 23 2025 15:04:24 GMT-0600 (Central Standard Time),416044.200000003,A,app,I,p,366,1,932.6000000014901,415111.6000000015,8017,WL,A,4.0
3,5.197000026702881,learn,54802.99997329712,Thu Jan 23 2025 15:04:24 GMT-0600 (Central Standard Time),416260.90000000596,A,appl,I,l,208,1,1149.3000000044703,415111.6000000015,8017,WL,A,4.0
3,5.314000129699707,learn,54685.99987030029,Thu Jan 23 2025 15:04:24 GMT-0600 (Central Standard Time),416377.6000000015,A,apple,I,e,103,1,1266.0,415111.6000000015,8017,WL,A,4.0
3,5.898000001907349,learn,54101.99999809265,Thu Jan 23 2025 15:04:24 GMT-0600 (Central Standard Time),416961.80000000447,A,appleenter,I,enter,561,1,1850.2000000029802,415111.6000000015,8017,WL,A,4.0
3,6.230000019073486,learn,53769.999980926514,Thu Jan 23 2025 15:04:24 GMT-0600 (Central Standard Time),417294.0,A,m,I,m,313,1,331.79999999701977,416962.200000003,8017,WL,A,5.0
3,6.315000057220459,learn,53684.99994277954,Thu Jan 23 2025 15:04:24 GMT-0600 (Central Standard Time),417378.40000000596,A,me,I,e,61,1,416.20000000298023,416962.200000003,8017,WL,A,5.0
3,6.38100004196167,learn,53618.99995803833,Thu Jan 23 2025 15:04:24 GMT-0600 (Central Standard Time),417445.0,A,mea,I,a,49,1,482.79999999701977,416962.200000003,8017,WL,A,5.0
3,6.563000202178955,learn,53436.999797821045,Thu Jan 23 2025 15:04:24 GMT-0600 (Central Standard Time),417627.1000000015,A,mead,I,d,166,1,664.8999999985099,416962.200000003,8017,WL,A,5.0
3,6.697000026702881,learn,53302.99997329712,Thu Jan 23 2025 15:04:24 GMT-0600 (Central Standard Time),417760.700000003,A,meado,I,o,112,1,798.5,416962.200000003,8017,WL,A,5.0
3,6.78000020980835,learn,53219.99979019165,Thu Jan 23 2025 15:04:24 GMT-0600 (Central Standard Time),417844.0,A,meadow,I,w,74,1,881.7999999970198,416962.200000003,8017,WL,A,5.0
3,6.930000066757202,learn,53069.9999332428,Thu Jan 23 2025 15:04:24 GMT-0600 (Central Standard Time),417993.700000003,A,meadowenter,I,enter,127,1,1031.5,416962.200000003,8017,WL,A,5.0
3,8.230000019073486,learn,51769.999980926514,Thu Jan 23 2025 15:04:24 GMT-0600 (Central Standard Time),419293.40000000596,A,f,I,f,1282,1,1299.3000000044703,417994.1000000015,8017,WL,A,6.0
3,8.314000129699707,learn,51685.99987030029,Thu Jan 23 2025 15:04:24 GMT-0600 (Central Standard Time),419377.80000000447,A,fl,I,l,62,1,1383.7000000029802,417994.1000000015,8017,WL,A,6.0
3,8.496000051498413,learn,51503.99994850159,Thu Jan 23 2025 15:04:24 GMT-0600 (Central Standard Time),419560.0,A,flo,I,o,170,1,1565.8999999985099,417994.1000000015,8017,WL,A,6.0
3,8.763000011444092,learn,51236.99998855591,Thu Jan 23 2025 15:04:24 GMT-0600 (Central Standard Time),419826.700000003,A,flow,I,w,252,1,1832.6000000014901,417994.1000000015,8017,WL,A,6.0
3,8.779000043869019,learn,51220.99995613098,Thu Jan 23 2025 15:04:24 GMT-0600 (Central Standard Time),419842.700000003,A,flowe,I,e,9,1,1848.6000000014901,417994.1000000015,8017,WL,A,6.0
3,8.913000106811523,learn,51086.99989318848,Thu Jan 23 2025 15:04:24 GMT-0600 (Central Standard Time),419976.40000000596,A,flower,I,r,114,1,1982.3000000044703,417994.1000000015,8017,WL,A,6.0
3,9.163000106811523,learn,50836.99989318848,Thu Jan 23 2025 15:04:24 GMT-0600 (Central Standard Time),420226.6000000015,A,flowerenter,I,enter,227,1,2232.5,417994.1000000015,8017,WL,A,6.0
3,9.662000179290771,learn,50337.99982070923,Thu Jan 23 2025 15:04:24 GMT-0600 (Central Standard Time),420726.1000000015,A,t,I,t,481,1,499.0,420227.1000000015,8017,WL,A,7.0
3,9.84600019454956,learn,50153.99980545044,Thu Jan 23 2025 15:04:24 GMT-0600 (Central Standard Time),420909.5,A,tr,I,r,165,1,682.3999999985099,420227.1000000015,8017,WL,A,7.0
3,9.912000179290771,learn,50087.99982070923,Thu Jan 23 2025 15:04:24 GMT-0600 (Central Standard Time),420976.200000003,A,tra,I,a,46,1,749.1000000014901,420227.1000000015,8017,WL,A,7.0
3,9.979000091552734,learn,50020.999908447266,Thu Jan 23 2025 15:04:24 GMT-0600 (Central Standard Time),421042.90000000596,A,trai,I,i,60,1,815.8000000044703,420227.1000000015,8017,WL,A,7.0
3,10.062000036239624,learn,49937.999963760376,Thu Jan 23 2025 15:04:24 GMT-0600 (Central Standard Time),421126.1000000015,A,train,I,n,64,1,899.0,420227.1000000015,8017,WL,A,7.0
3,10.34600019454956,learn,49653.99980545044,Thu Jan 23 2025 15:04:24 GMT-0600 (Central Standard Time),421409.30000000447,A,trainenter,I,enter,269,1,1182.2000000029802,420227.1000000015,8017,WL,A,7.0
3,10.67900013923645,learn,49320.99986076355,Thu Jan 23 2025 15:04:24 GMT-0600 (Central Standard Time),421742.5,A,c,I,c,314,1,332.79999999701977,421409.700000003,8017,WL,A,8.0
3,10.729000091552734,learn,49270.999908447266,Thu Jan 23 2025 15:04:24 GMT-0600 (Central Standard Time),421792.30000000447,A,ch,I,h,29,1,382.6000000014901,421409.700000003,8017,WL,A,8.0
3,10.812000036239624,learn,49187.999963760376,Thu Jan 23 2025 15:04:24 GMT-0600 (Central Standard Time),421876.0,A,chi,I,i,75,1,466.29999999701977,421409.700000003,8017,WL,A,8.0
3,10.995000123977661,learn,49004.99987602234,Thu Jan 23 2025 15:04:24 GMT-0600 (Central Standard Time),422059.1000000015,A,chim,I,m,168,1,649.3999999985099,421409.700000003,8017,WL,A,8.0
3,11.212000131607056,learn,48787.999868392944,Thu Jan 23 2025 15:04:24 GMT-0600 (Central Standard Time),422275.80000000447,A,chimn,I,n,208,1,866.1000000014901,421409.700000003,8017,WL,A,8.0
3,11.312000036239624,learn,48687.999963760376,Thu Jan 23 2025 15:04:24 GMT-0600 (Central Standard Time),422375.90000000596,A,chimne,I,e,88,1,966.2000000029802,421409.700000003,8017,WL,A,8.0
3,11.445000171661377,learn,48554.99982833862,Thu Jan 23 2025 15:04:24 GMT-0600 (Central Standard Time),422509.0,A,chimney,I,y,115,1,1099.2999999970198,421409.700000003,8017,WL,A,8.0
3,11.695000171661377,learn,48304.99982833862,Thu Jan 23 2025 15:04:24 GMT-0600 (Central Standard Time),422759.0,A,chimneyenter,I,enter,238,1,1349.2999999970198,421409.700000003,8017,WL,A,8.0
3,11.928000211715698,learn,48071.9997882843,Thu Jan 23 2025 15:04:24 GMT-0600 (Central Standard Time),422992.200000003,A,l,I,l,212,1,232.79999999701977,422759.40000000596,8017,WL,A,9.0
3,12.129000186920166,learn,47870.999813079834,Thu Jan 23 2025 15:04:24 GMT-0600 (Central Standard Time),423192.30000000447,A,lo,I,o,179,1,432.8999999985099,422759.40000000596,8017,WL,A,9.0
3,12.228000164031982,learn,47771.99983596802,Thu Jan 23 2025 15:04:24 GMT-0600 (Central Standard Time),423292.1000000015,A,log,I,g,91,1,532.6999999955297,422759.40000000596,8017,WL,A,9.0
3,12.495000123977661,learn,47504.99987602234,Thu Jan 23 2025 15:04:24 GMT-0600 (Central Standard Time),423558.700000003,A,logenter,I,enter,247,1,799.2999999970198,422759.40000000596,8017,WL,A,9.0
3,13.028000116348267,learn,46971.99988365173,Thu Jan 23 2025 15:04:24 GMT-0600 (Central Standard Time),424091.6000000015,A,h,I,h,517,1,532.5,423559.1000000015,8017,WL,A,10.0
3,13.094000101089478,learn,46905.99989891052,Thu Jan 23 2025 15:04:24 GMT-0600 (Central Standard Time),424158.1000000015,A,ha,I,a,47,1,599.0,423559.1000000015,8017,WL,A,10.0
3,13.211000204086304,learn,46788.999795913696,Thu Jan 23 2025 15:04:24 GMT-0600 (Central Standard Time),424274.80000000447,A,har,I,r,109,1,715.7000000029802,423559.1000000015,8017,WL,A,10.0
3,13.34500002861023,learn,46654.99997138977,Thu Jan 23 2025 15:04:24 GMT-0600 (Central Standard Time),424408.30000000447,A,harp,I,p,120,1,849.2000000029802,423559.1000000015,8017,WL,A,10.0
3,13.678000211715698,learn,46321.9997882843,Thu Jan 23 2025 15:04:24 GMT-0600 (Central Standard Time),424741.5,A,harpenter,I,enter,315,1,1182.3999999985099,423559.1000000015,8017,WL,A,10.0
3,13.928000211715698,learn,46071.9997882843,Thu Jan 23 2025 15:04:24 GMT-0600 (Central Standard Time),424991.5,A,s,I,s,230,1,249.59999999403954,424741.90000000596,8017,WL,A,11.0
3,14.111000061035156,learn,45888.999938964844,Thu Jan 23 2025 15:04:24 GMT-0600 (Central Standard Time),425174.80000000447,A,sa,I,a,172,1,432.8999999985099,424741.90000000596,8017,WL,A,11.0
3,14.24400019645691,learn,45755.99980354309,Thu Jan 23 2025 15:04:24 GMT-0600 (Central Standard Time),425308.200000003,A,sal,I,l,116,1,566.2999999970198,424741.90000000596,8017,WL,A,11.0
3,14.511000156402588,learn,45488.99984359741,Thu Jan 23 2025 15:04:24 GMT-0600 (Central Standard Time),425574.700000003,A,salt,I,t,247,1,832.7999999970198,424741.90000000596,8017,WL,A,11.0
3,14.779000043869019,learn,45220.99995613098,Thu Jan 23 2025 15:04:24 GMT-0600 (Central Standard Time),425842.40000000596,A,saltenter,I,enter,253,1,1100.5,424741.90000000596,8017,WL,A,11.0
3,16.97699999809265,learn,43023.00000190735,Thu Jan 23 2025 15:04:24 GMT-0600 (Central Standard Time),428040.6000000015,A,f,I,f,2177,1,2197.89999999851,425842.700000003,8017,WL,A,12.0
3,17.0770001411438,learn,42922.9998588562,Thu Jan 23 2025 15:04:24 GMT-0600 (Central Standard Time),428140.5,A,fi,I,i,83,1,2297.7999999970198,425842.700000003,8017,WL,A,12.0
3,17.16000008583069,learn,42839.99991416931,Thu Jan 23 2025 15:04:24 GMT-0600 (Central Standard Time),428223.80000000447,A,fin,I,n,63,1,2381.10000000149,425842.700000003,8017,WL,A,12.0
3,17.31000018119812,learn,42689.99981880188,Thu Jan 23 2025 15:04:24 GMT-0600 (Central Standard Time),428374.0,A,fing,I,g,131,1,2531.2999999970198,425842.700000003,8017,WL,A,12.0
3,17.443000078201294,learn,42556.999921798706,Thu Jan 23 2025 15:04:24 GMT-0600 (Central Standard Time),428507.200000003,A,finge,I,e,118,1,2664.5,425842.700000003,8017,WL,A,12.0
3,17.527000188827515,learn,42472.999811172485,Thu Jan 23 2025 15:04:24 GMT-0600 (Central Standard Time),428590.40000000596,A,finger,I,r,64,1,2747.7000000029802,425842.700000003,8017,WL,A,12.0
3,17.66000008583069,learn,42339.99991416931,Thu Jan 23 2025 15:04:24 GMT-0600 (Central Standard Time),428723.80000000447,A,fingerenter,I,enter,125,1,2881.10000000149,425842.700000003,8017,WL,A,12.0
3,18.677000045776367,learn,41322.99995422363,Thu Jan 23 2025 15:04:24 GMT-0600 (Central Standard Time),429740.30000000447,A,k,I,k,999,1,1016.2000000029802,428724.1000000015,8017,WL,A,13.0
3,18.777000188827515,learn,41222.999811172485,Thu Jan 23 2025 15:04:24 GMT-0600 (Central Standard Time),429840.200000003,A,ke,I,e,87,1,1116.1000000014901,428724.1000000015,8017,WL,A,13.0
3,18.926000118255615,learn,41073.999881744385,Thu Jan 23 2025 15:04:24 GMT-0600 (Central Standard Time),429990.1000000015,A,key,I,y,131,1,1266.0,428724.1000000015,8017,WL,A,13.0
3,19.193000078201294,learn,40806.999921798706,Thu Jan 23 2025 15:04:24 GMT-0600 (Central Standard Time),430256.40000000596,A,keyenter,I,enter,254,1,1532.3000000044703,428724.1000000015,8017,WL,A,13.0
3,20.243000030517578,learn,39756.99996948242,Thu Jan 23 2025 15:04:24 GMT-0600 (Central Standard Time),431306.40000000596,A,g,I,g,1027,1,1049.7000000029802,430256.700000003,8017,WL,A,14.0
3,20.29300022125244,learn,39706.99977874756,Thu Jan 23 2025 15:04:24 GMT-0600 (Central Standard Time),431356.40000000596,A,go,I,o,41,1,1099.7000000029802,430256.700000003,8017,WL,A,14.0
3,20.492000102996826,learn,39507.999897003174,Thu Jan 23 2025 15:04:24 GMT-0600 (Central Standard Time),431556.200000003,A,gol,I,l,183,1,1299.5,430256.700000003,8017,WL,A,14.0
3,20.576000213623047,learn,39423.99978637695,Thu Jan 23 2025 15:04:24 GMT-0600 (Central Standard Time),431639.5,A,gold,I,d,63,1,1382.7999999970198,430256.700000003,8017,WL,A,14.0
3,21.05900001525879,learn,38940.99998474121,Thu Jan 23 2025 15:04:24 GMT-0600 (Central Standard Time),432122.5,A,goldenter,I,enter,476,1,1865.7999999970198,430256.700000003,8017,WL,A,14.0
3,21.425000190734863,learn,38574.99980926514,Thu Jan 23 2025 15:04:24 GMT-0600 (Central Standard Time),432489.200000003,A,b,I,b,354,1,366.3999999985099,432122.80000000447,8017,WL,A,15.0
3,21.52500009536743,learn,38474.99990463257,Thu Jan 23 2025 15:04:24 GMT-0600 (Central Standard Time),432589.200000003,A,bu,I,u,90,1,466.3999999985099,432122.80000000447,8017,WL,A,15.0
3,21.692000150680542,learn,38307.99984931946,Thu Jan 23 2025 15:04:24 GMT-0600 (Central Standard Time),432755.80000000447,A,but,I,t,150,1,633.0,432122.80000000447,8017,WL,A,15.0
3,21.859000205993652,learn,38140.99979400635,Thu Jan 23 2025 15:04:24 GMT-0600 (Central Standard Time),432922.5,A,butt,I,t,152,1,799.6999999955297,432122.80000000447,8017,WL,A,15.0
3,21.892000198364258,learn,38107.99980163574,Thu Jan 23 2025 15:04:24 GMT-0600 (Central Standard Time),432955.700000003,A,butto,I,o,24,1,832.8999999985099,432122.80000000447,8017,WL,A,15.0
3,21.992000102996826,learn,38007.999897003174,Thu Jan 23 2025 15:04:24 GMT-0600 (Central Standard Time),433055.700000003,A,button,I,n,80,1,932.8999999985099,432122.80000000447,8017,WL,A,15.0
3,22.27500009536743,learn,37724.99990463257,Thu Jan 23 2025 15:04:24 GMT-0600 (Central Standard Time),433339.1000000015,A,buttonenter,I,enter,267,1,1216.2999999970198,432122.80000000447,8017,WL,A,15.0
4,0.8489999771118164,learn,59151.00002288818,Thu Jan 23 2025 15:04:24 GMT-0600 (Central Standard Time),500884.5,A,b,I,b,841,1,849.5,500035.0,8017,WL,A,1.0
4,0.9659998416900635,learn,59034.00015830994,Thu Jan 23 2025 15:04:24 GMT-0600 (Central Standard Time),501001.200000003,A,bo,I,o,103,1,966.2000000029802,500035.0,8017,WL,A,1.0
4,1.1489999294281006,learn,58851.0000705719,Thu Jan 23 2025 15:04:24 GMT-0600 (Central Standard Time),501184.5,A,boo,I,o,170,1,1149.5,500035.0,8017,WL,A,1.0
4,1.2329998016357422,learn,58767.00019836426,Thu Jan 23 2025 15:04:24 GMT-0600 (Central Standard Time),501268.6000000015,A,book,I,k,75,1,1233.6000000014901,500035.0,8017,WL,A,1.0
4,1.5999999046325684,learn,58400.00009536743,Thu Jan 23 2025 15:04:24 GMT-0600 (Central Standard Time),501635.6000000015,A,bookenter,I,enter,343,1,1600.6000000014901,500035.0,8017,WL,A,1.0
4,3.615999937057495,learn,56384.000062942505,Thu Jan 23 2025 15:04:24 GMT-0600 (Central Standard Time),503651.5,A,m,I,m,2000,1,2015.5999999940395,501635.90000000596,8017,WL,A,2.0
4,3.797999858856201,learn,56202.0001411438,Thu Jan 23 2025 15:04:24 GMT-0600 (Central Standard Time),503833.5,A,me,I,e,168,1,2197.5999999940395,501635.90000000596,8017,WL,A,2.0
4,3.947999954223633,learn,56052.00004577637,Thu Jan 23 2025 15:04:24 GMT-0600 (Central Standard Time),503983.5,A,mea,I,a,130,1,2347.5999999940395,501635.90000000596,8017,WL,A,2.0
4,4.115000009536743,learn,55884.99999046326,Thu Jan 23 2025 15:04:24 GMT-0600 (Central Standard Time),504150.200000003,A,mead,I,d,156,1,2514.2999999970198,501635.90000000596,8017,WL,A,2.0
4,4.31499981880188,learn,55685.00018119812,Thu Jan 23 2025 15:04:24 GMT-0600 (Central Standard Time),504350.40000000596,A,meado,I,o,181,1,2714.5,501635.90000000596,8017,WL,A,2.0
4,4.514999866485596,learn,55485.000133514404,Thu Jan 23 2025 15:04:24 GMT-0600 (Central Standard Time),504550.0,A,meadow,I,w,181,1,2914.0999999940395,501635.90000000596,8017,WL,A,2.0
4,4.684999942779541,learn,55315.00005722046,Thu Jan 23 2025 15:04:24 GMT-0600 (Central Standard Time),504720.5,A,meadowenter,I,enter,163,1,3084.5999999940395,501635.90000000596,8017,WL,A,2.0
4,4.898999929428101,learn,55101.0000705719,Thu Jan 23 2025 15:04:24 GMT-0600 (Central Standard Time),504934.700000003,A,a,I,a,202,1,213.79999999701977,504720.90000000596,8017,WL,A,3.0
4,5.0309998989105225,learn,54969.00010108948,Thu Jan 23 2025 15:04:24 GMT-0600 (Central Standard Time),505066.5,A,ap,I,p,109,1,345.59999999403954,504720.90000000596,8017,WL,A,3.0
4,5.2149999141693115,learn,54785.00008583069,Thu Jan 23 2025 15:04:24 GMT-0600 (Central Standard Time),505250.0,A,app,I,p,160,1,529.0999999940395,504720.90000000596,8017,WL,A,3.0
4,5.430999994277954,learn,54569.000005722046,Thu Jan 23 2025 15:04:24 GMT-0600 (Central Standard Time),505466.30000000447,A,appl,I,l,209,1,745.3999999985099,504720.90000000596,8017,WL,A,3.0
4,5.547999858856201,learn,54452.0001411438,Thu Jan 23 2025 15:04:24 GMT-0600 (Central Standard Time),505583.0,A,apple,I,e,97,1,862.0999999940395,504720.90000000596,8017,WL,A,3.0
4,5.730999946594238,learn,54269.00005340576,Thu Jan 23 2025 15:04:24 GMT-0600 (Central Standard Time),505766.30000000447,A,appleenter,I,enter,173,1,1045.3999999985099,504720.90000000596,8017,WL,A,3.0
4,5.997999906539917,learn,54002.00009346008,Thu Jan 23 2025 15:04:24 GMT-0600 (Central Standard Time),506032.80000000447,A,f,I,f,245,1,266.30000000447035,505766.5,8017,WL,A,4.0
4,6.080999851226807,learn,53919.00014877319,Thu Jan 23 2025 15:04:24 GMT-0600 (Central Standard Time),506116.200000003,A,fl,I,l,67,1,349.70000000298023,505766.5,8017,WL,A,4.0
4,6.296999931335449,learn,53703.00006866455,Thu Jan 23 2025 15:04:24 GMT-0600 (Central Standard Time),506332.6000000015,A,flo,I,o,199,1,566.1000000014901,505766.5,8017,WL,A,4.0
4,6.396999835968018,learn,53603.00016403198,Thu Jan 23 2025 15:04:24 GMT-0600 (Central Standard Time),506432.700000003,A,flow,I,w,86,1,666.2000000029802,505766.5,8017,WL,A,4.0
4,6.480999946594238,learn,53519.00005340576,Thu Jan 23 2025 15:04:24 GMT-0600 (Central Standard Time),506515.90000000596,A,flowe,I,e,67,1,749.4000000059605,505766.5,8017,WL,A,4.0
4,6.580999851226807,learn,53419.00014877319,Thu Jan 23 2025 15:04:24 GMT-0600 (Central Standard Time),506616.1000000015,A,flower,I,r,80,1,849.6000000014901,505766.5,8017,WL,A,4.0
4,6.846999883651733,learn,53153.00011634827,Thu Jan 23 2025 15:04:24 GMT-0600 (Central Standard Time),506882.5,A,flowerenter,I,enter,252,1,1116.0,505766.5,8017,WL,A,4.0
4,7.396999835968018,learn,52603.00016403198,Thu Jan 23 2025 15:04:24 GMT-0600 (Central Standard Time),507432.30000000447,A,t,I,t,537,1,549.3999999985099,506882.90000000596,8017,WL,A,5.0
4,7.613999843597412,learn,52386.00015640259,Thu Jan 23 2025 15:04:24 GMT-0600 (Central Standard Time),507649.1000000015,A,tr,I,r,203,1,766.1999999955297,506882.90000000596,8017,WL,A,5.0
4,7.679999828338623,learn,52320.00017166138,Thu Jan 23 2025 15:04:24 GMT-0600 (Central Standard Time),507715.6000000015,A,tra,I,a,50,1,832.6999999955297,506882.90000000596,8017,WL,A,5.0
4,7.796999931335449,learn,52203.00006866455,Thu Jan 23 2025 15:04:24 GMT-0600 (Central Standard Time),507832.200000003,A,trai,I,i,96,1,949.2999999970198,506882.90000000596,8017,WL,A,5.0
4,7.863999843597412,learn,52136.00015640259,Thu Jan 23 2025 15:04:24 GMT-0600 (Central Standard Time),507899.200000003,A,train,I,n,51,1,1016.2999999970198,506882.90000000596,8017,WL,A,5.0
4,8.21399998664856,learn,51786.00001335144,Thu Jan 23 2025 15:04:24 GMT-0600 (Central Standard Time),508248.80000000447,A,trainenter,I,enter,328,1,1365.8999999985099,506882.90000000596,8017,WL,A,5.0
4,8.462999820709229,learn,51537.00017929077,Thu Jan 23 2025 15:04:24 GMT-0600 (Central Standard Time),508498.40000000596,A,c,I,c,227,1,249.20000000298023,508249.200000003,8017,WL,A,6.0
4,8.596999883651733,learn,51403.00011634827,Thu Jan 23 2025 15:04:24 GMT-0600 (Central Standard Time),508632.1000000015,A,ch,I,h,113,1,382.8999999985099,508249.200000003,8017,WL,A,6.0
4,8.663999795913696,learn,51336.000204086304,Thu Jan 23 2025 15:04:24 GMT-0600 (Central Standard Time),508698.80000000447,A,chi,I,i,51,1,449.6000000014901,508249.200000003,8017,WL,A,6.0
4,8.812999963760376,learn,51187.000036239624,Thu Jan 23 2025 15:04:24 GMT-0600 (Central Standard Time),508848.5,A,chim,I,m,129,1,599.2999999970198,508249.200000003,8017,WL,A,6.0
4,9.013000011444092,learn,50986.99998855591,Thu Jan 23 2025 15:04:24 GMT-0600 (Central Standard Time),509048.40000000596,A,chimn,I,n,187,1,799.2000000029802,508249.200000003,8017,WL,A,6.0
4,9.146999835968018,learn,50853.00016403198,Thu Jan 23 2025 15:04:24 GMT-0600 (Central Standard Time),509181.90000000596,A,chimne,I,e,115,1,932.7000000029802,508249.200000003,8017,WL,A,6.0
4,9.246999979019165,learn,50753.000020980835,Thu Jan 23 2025 15:04:24 GMT-0600 (Central Standard Time),509281.80000000447,A,chimney,I,y,85,1,1032.6000000014901,508249.200000003,8017,WL,A,6.0
4,9.462999820709229,learn,50537.00017929077,Thu Jan 23 2025 15:04:24 GMT-0600 (Central Standard Time),509498.40000000596,A,chimneyenter,I,enter,201,1,1249.2000000029802,508249.200000003,8017,WL,A,6.0
4,9.69599986076355,learn,50304.00013923645,Thu Jan 23 2025 15:04:24 GMT-0600 (Central Standard Time),509731.6000000015,A,l,I,l,217,1,232.79999999701977,509498.80000000447,8017,WL,A,7.0
4,9.929999828338623,learn,50070.00017166138,Thu Jan 23 2025 15:04:24 GMT-0600 (Central Standard Time),509965.1000000015,A,lo,I,o,216,1,466.29999999701977,509498.80000000447,8017,WL,A,7.0
4,10.095999956130981,learn,49904.00004386902,Thu Jan 23 2025 15:04:24 GMT-0600 (Central Standard Time),510131.6000000015,A,log,I,g,150,1,632.7999999970198,509498.80000000447,8017,WL,A,7.0
4,10.379999876022339,learn,49620.00012397766,Thu Jan 23 2025 15:04:24 GMT-0600 (Central Standard Time),510414.80000000447,A,logenter,I,enter,272,1,916.0,509498.80000000447,8017,WL,A,7.0
4,12.26199984550476,learn,47738.00015449524,Thu Jan 23 2025 15:04:24 GMT-0600 (Central Standard Time),512297.40000000596,A,g,I,g,1869,1,1882.2000000029802,510415.200000003,8017,WL,A,8.0
4,12.395999908447266,learn,47604.000091552734,Thu Jan 23 2025 15:04:24 GMT-0600 (Central Standard Time),512431.0,A,go,I,o,114,1,2015.7999999970198,510415.200000003,8017,WL,A,8.0
4,12.611999988555908,learn,47388.00001144409,Thu Jan 23 2025 15:04:24 GMT-0600 (Central Standard Time),512647.40000000596,A,gol,I,l,197,1,2232.2000000029802,510415.200000003,8017,WL,A,8.0
4,12.728999853134155,learn,47271.000146865845,Thu Jan 23 2025 15:04:24 GMT-0600 (Central Standard Time),512764.200000003,A,gold,I,d,100,1,2349.0,510415.200000003,8017,WL,A,8.0
4,12.978999853134155,learn,47021.000146865845,Thu Jan 23 2025 15:04:24 GMT-0600 (Central Standard Time),513014.200000003,A,goldenter,I,enter,239,1,2599.0,510415.200000003,8017,WL,A,8.0
4,13.26199984550476,learn,46738.00015449524,Thu Jan 23 2025 15:04:24 GMT-0600 (Central Standard Time),513297.200000003,A,r,I,r,261,1,282.70000000298023,513014.5,8017,WL,A,9.0
4,13.34499979019165,learn,46655.00020980835,Thu Jan 23 2025 15:04:24 GMT-0600 (Central Standard Time),513380.6000000015,A,ra,I,a,73,1,366.1000000014901,513014.5,8017,WL,A,9.0
4,13.495999813079834,learn,46504.000186920166,Thu Jan 23 2025 15:04:24 GMT-0600 (Central Standard Time),513531.5,A,rat,I,t,127,1,517.0,513014.5,8017,WL,A,9.0
4,13.678999900817871,learn,46321.00009918213,Thu Jan 23 2025 15:04:24 GMT-0600 (Central Standard Time),513713.700000003,A,ratt,I,t,160,1,699.2000000029802,513014.5,8017,WL,A,9.0
4,13.76199984550476,learn,46238.00015449524,Thu Jan 23 2025 15:04:24 GMT-0600 (Central Standard Time),513797.1000000015,A,rattl,I,l,65,1,782.6000000014901,513014.5,8017,WL,A,9.0
4,13.878999948501587,learn,46121.00005149841,Thu Jan 23 2025 15:04:24 GMT-0600 (Central Standard Time),513914.0,A,rattle,I,e,102,1,899.5,513014.5,8017,WL,A,9.0
4,15.194999933242798,learn,44805.0000667572,Thu Jan 23 2025 15:04:24 GMT-0600 (Central Standard Time),515230.1000000015,A,rattleenter,I,enter,1305,1,2215.60000000149,513014.5,8017,WL,A,9.0
4,15.610999822616577,learn,44389.00017738342,Thu Jan 23 2025 15:04:24 GMT-0600 (Central Standard Time),515646.40000000596,A,a,I,a,397,1,416.0,515230.40000000596,8017,WL,A,10.0
4,16.01099991798401,learn,43989.00008201599,Thu Jan 23 2025 15:04:24 GMT-0600 (Central Standard Time),516046.30000000447,A,,I,backspace,381,1,815.8999999985099,515230.40000000596,8017,WL,A,10.0
4,16.17799997329712,learn,43822.00002670288,Thu Jan 23 2025 15:04:24 GMT-0600 (Central Standard Time),516213.0,A,h,I,h,157,1,982.5999999940395,515230.40000000596,8017,WL,A,10.0
4,16.310999870300293,learn,43689.00012969971,Thu Jan 23 2025 15:04:24 GMT-0600 (Central Standard Time),516346.200000003,A,ha,I,a,126,1,1115.7999999970198,515230.40000000596,8017,WL,A,10.0
4,16.49399995803833,learn,43506.00004196167,Thu Jan 23 2025 15:04:24 GMT-0600 (Central Standard Time),516529.30000000447,A,har,I,r,170,1,1298.8999999985099,515230.40000000596,8017,WL,A,10.0
4,16.628000020980835,learn,43371.999979019165,Thu Jan 23 2025 15:04:24 GMT-0600 (Central Standard Time),516662.90000000596,A,harp,I,p,115,1,1432.5,515230.40000000596,8017,WL,A,10.0
4,16.960999965667725,learn,43039.000034332275,Thu Jan 23 2025 15:04:24 GMT-0600 (Central Standard Time),516996.200000003,A,harpenter,I,enter,316,1,1765.7999999970198,515230.40000000596,8017,WL,A,10.0
4,17.276999950408936,learn,42723.000049591064,Thu Jan 23 2025 15:04:24 GMT-0600 (Central Standard Time),517312.700000003,A,b,I,b,295,1,316.20000000298023,516996.5,8017,WL,A,11.0
4,17.41100001335144,learn,42588.99998664856,Thu Jan 23 2025 15:04:24 GMT-0600 (Central Standard Time),517446.200000003,A,bu,I,u,115,1,449.70000000298023,516996.5,8017,WL,A,11.0
4,17.560999870300293,learn,42439.00012969971,Thu Jan 23 2025 15:04:24 GMT-0600 (Central Standard Time),517596.0,A,but,I,t,133,1,599.5,516996.5,8017,WL,A,11.0
4,17.76099991798401,learn,42239.00008201599,Thu Jan 23 2025 15:04:24 GMT-0600 (Central Standard Time),517796.0,A,butt,I,t,191,1,799.5,516996.5,8017,WL,A,11.0
4,17.810999870300293,learn,42189.00012969971,Thu Jan 23 2025 15:04:24 GMT-0600 (Central Standard Time),517845.90000000596,A,butto,I,o,40,1,849.4000000059605,516996.5,8017,WL,A,11.0
4,17.893999814987183,learn,42106.00018501282,Thu Jan 23 2025 15:04:24 GMT-0600 (Central Standard Time),517929.200000003,A,button,I,n,69,1,932.7000000029802,516996.5,8017,WL,A,11.0
4,18.259999990463257,learn,41740.00000953674,Thu Jan 23 2025 15:04:24 GMT-0600 (Central Standard Time),518295.6000000015,A,buttonenter,I,enter,354,1,1299.1000000014901,516996.5,8017,WL,A,11.0
4,18.526999950408936,learn,41473.000049591064,Thu Jan 23 2025 15:04:24 GMT-0600 (Central Standard Time),518562.40000000596,A,k,I,k,244,1,266.6000000014901,518295.80000000447,8017,WL,A,12.0
4,18.694000005722046,learn,41305.999994277954,Thu Jan 23 2025 15:04:24 GMT-0600 (Central Standard Time),518728.90000000596,A,ke,I,e,146,1,433.1000000014901,518295.80000000447,8017,WL,A,12.0
4,18.859999895095825,learn,41140.000104904175,Thu Jan 23 2025 15:04:24 GMT-0600 (Central Standard Time),518895.40000000596,A,key,I,y,146,1,599.6000000014901,518295.80000000447,8017,WL,A,12.0
4,19.24399995803833,learn,40756.00004196167,Thu Jan 23 2025 15:04:24 GMT-0600 (Central Standard Time),519279.200000003,A,keyenter,I,enter,364,1,983.3999999985099,518295.80000000447,8017,WL,A,12.0
4,19.55999994277954,learn,40440.00005722046,Thu Jan 23 2025 15:04:24 GMT-0600 (Central Standard Time),519595.200000003,A,r,I,r,300,1,315.70000000298023,519279.5,8017,WL,A,13.0
4,19.692999839782715,learn,40307.000160217285,Thu Jan 23 2025 15:04:24 GMT-0600 (Central Standard Time),519728.5,A,ru,I,u,112,1,449.0,519279.5,8017,WL,A,13.0
4,19.992999792099,learn,40007.000207901,Thu Jan 23 2025 15:04:24 GMT-0600 (Central Standard Time),520028.40000000596,A,rug,I,g,283,1,748.9000000059605,519279.5,8017,WL,A,13.0
4,20.375999927520752,learn,39624.00007247925,Thu Jan 23 2025 15:04:24 GMT-0600 (Central Standard Time),520411.6000000015,A,rugenter,I,enter,375,1,1132.1000000014901,519279.5,8017,WL,A,13.0
4,21.30900001525879,learn,38690.99998474121,Thu Jan 23 2025 15:04:24 GMT-0600 (Central Standard Time),521344.700000003,A,b,I,b,913,1,932.8999999985099,520411.80000000447,8017,WL,A,14.0
4,21.375999927520752,learn,38624.00007247925,Thu Jan 23 2025 15:04:24 GMT-0600 (Central Standard Time),521411.1000000015,A,bo,I,o,59,1,999.2999999970198,520411.80000000447,8017,WL,A,14.0
4,21.55900001525879,learn,38440.99998474121,Thu Jan 23 2025 15:04:24 GMT-0600 (Central Standard Time),521594.5,A,boo,I,o,162,1,1182.6999999955297,520411.80000000447,8017,WL,A,14.0
4,21.625999927520752,learn,38374.00007247925,Thu Jan 23 2025 15:04:24 GMT-0600 (Central Standard Time),521661.30000000447,A,book,I,k,49,1,1249.5,520411.80000000447,8017,WL,A,14.0
4,21.908999919891357,learn,38091.00008010864,Thu Jan 23 2025 15:04:24 GMT-0600 (Central Standard Time),521944.700000003,A,bookenter,I,enter,271,1,1532.8999999985099,520411.80000000447,8017,WL,A,14.0
4,22.192999839782715,learn,37807.000160217285,Thu Jan 23 2025 15:04:24 GMT-0600 (Central Standard Time),522227.90000000596,A,s,I,s,275,1,282.90000000596046,521945.0,8017,WL,A,15.0
4,22.325999975204468,learn,37674.00002479553,Thu Jan 23 2025 15:04:24 GMT-0600 (Central Standard Time),522361.1000000015,A,sa,I,a,111,1,416.1000000014901,521945.0,8017,WL,A,15.0
4,22.491999864578247,learn,37508.00013542175,Thu Jan 23 2025 15:04:24 GMT-0600 (Central Standard Time),522527.6000000015,A,sal,I,l,155,1,582.6000000014901,521945.0,8017,WL,A,15.0
4,22.89199995994568,learn,37108.00004005432,Thu Jan 23 2025 15:04:24 GMT-0600 (Central Standard Time),522927.6000000015,A,salt,I,t,387,1,982.6000000014901,521945.0,8017,WL,A,15.0
4,23.824999809265137,learn,36175.00019073486,Thu Jan 23 2025 15:04:24 GMT-0600 (Central Standard Time),523860.5,A,saltenter,I,enter,924,1,1915.5,521945.0,8017,WL,A,15.0
5,0.9660000801086426,learn,60000.0,Thu Jan 23 2025 15:04:24 GMT-0600 (Central Standard Time),592822.0,A,m,I,m,948,1,965.7999999970198,591856.200000003,8017,WL,A,1.0
5,1.0829999446868896,learn,60000.0,Thu Jan 23 2025 15:04:24 GMT-0600 (Central Standard Time),592938.700000003,A,ma,I,a,109,1,1082.5,591856.200000003,8017,WL,A,1.0
5,1.315999984741211,learn,60000.0,Thu Jan 23 2025 15:04:24 GMT-0600 (Central Standard Time),593172.200000003,A,mad,I,d,218,1,1316.0,591856.200000003,8017,WL,A,1.0
5,1.4500000476837158,learn,60000.0,Thu Jan 23 2025 15:04:24 GMT-0600 (Central Standard Time),593305.3000000045,A,madl,I,l,119,1,1449.1000000014901,591856.200000003,8017,WL,A,1.0
5,2.0,learn,60000.0,Thu Jan 23 2025 15:04:24 GMT-0600 (Central Standard Time),593855.3000000045,A,mad,I,backspace,530,1,1999.1000000014901,591856.200000003,8017,WL,A,1.0
5,2.200000047683716,learn,60000.0,Thu Jan 23 2025 15:04:24 GMT-0600 (Central Standard Time),594055.3000000045,A,ma,I,backspace,180,1,2199.10000000149,591856.200000003,8017,WL,A,1.0
5,2.382999897003174,learn,60000.0,Thu Jan 23 2025 15:04:24 GMT-0600 (Central Standard Time),594238.6000000015,A,m,I,backspace,172,1,2382.39999999851,591856.200000003,8017,WL,A,1.0
5,3.1989998817443848,learn,60000.0,Thu Jan 23 2025 15:04:24 GMT-0600 (Central Standard Time),595055.200000003,A,me,I,e,805,1,3199.0,591856.200000003,8017,WL,A,1.0
5,3.3329999446868896,learn,60000.0,Thu Jan 23 2025 15:04:24 GMT-0600 (Central Standard Time),595188.400000006,A,mea,I,a,117,1,3332.2000000029802,591856.200000003,8017,WL,A,1.0
5,3.5320000648498535,learn,60000.0,Thu Jan 23 2025 15:04:24 GMT-0600 (Central Standard Time),595387.900000006,A,mead,I,d,191,1,3531.7000000029802,591856.200000003,8017,WL,A,1.0
5,3.8989999294281006,learn,60000.0,Thu Jan 23 2025 15:04:24 GMT-0600 (Central Standard Time),595754.8000000045,A,meado,I,o,359,1,3898.60000000149,591856.200000003,8017,WL,A,1.0
5,4.0980000495910645,learn,60000.0,Thu Jan 23 2025 15:04:24 GMT-0600 (Central Standard Time),595954.700000003,A,meadow,I,w,193,1,4098.5,591856.200000003,8017,WL,A,1.0
5,4.299000024795532,learn,60000.0,Thu Jan 23 2025 15:04:24 GMT-0600 (Central Standard Time),596155.0,A,meadowenter,I,enter,177,1,4298.79999999702,591856.200000003,8017,WL,A,1.0
5,4.5980000495910645,learn,60000.0,Thu Jan 23 2025 15:04:24 GMT-0600 (Central Standard Time),596454.400000006,A,f,I,f,288,1,299.1000000014901,596155.3000000045,8017,WL,A,2.0
5,4.7149999141693115,learn,60000.0,Thu Jan 23 2025 15:04:24 GMT-0600 (Central Standard Time),596570.8000000045,A,fl,I,l,109,1,415.5,596155.3000000045,8017,WL,A,2.0
5,4.931999921798706,learn,60000.0,Thu Jan 23 2025 15:04:24 GMT-0600 (Central Standard Time),596787.8000000045,A,flo,I,o,200,1,632.5,596155.3000000045,8017,WL,A,2.0
5,5.014999866485596,learn,60000.0,Thu Jan 23 2025 15:04:24 GMT-0600 (Central Standard Time),596871.3000000045,A,flow,I,w,71,1,716.0,596155.3000000045,8017,WL,A,2.0
5,5.0980000495910645,learn,60000.0,Thu Jan 23 2025 15:04:24 GMT-0600 (Central Standard Time),596954.5,A,flowe,I,e,76,1,799.1999999955297,596155.3000000045,8017,WL,A,2.0
5,5.2820000648498535,learn,60000.0,Thu Jan 23 2025 15:04:24 GMT-0600 (Central Standard Time),597137.900000006,A,flower,I,r,161,1,982.6000000014901,596155.3000000045,8017,WL,A,2.0
5,5.514999866485596,learn,60000.0,Thu Jan 23 2025 15:04:24 GMT-0600 (Central Standard Time),597370.700000003,A,flowerenter,I,enter,226,1,1215.3999999985099,596155.3000000045,8017,WL,A,2.0
5,5.747999906539917,learn,60000.0,Thu Jan 23 2025 15:04:24 GMT-0600 (Central Standard Time),597604.1000000015,A,a,I,a,217,1,233.19999999552965,597370.900000006,8017,WL,A,3.0
5,5.898000001907349,learn,60000.0,Thu Jan 23 2025 15:04:24 GMT-0600 (Central Standard Time),597754.0,A,ap,I,p,135,1,383.09999999403954,597370.900000006,8017,WL,A,3.0
5,6.014999866485596,learn,60000.0,Thu Jan 23 2025 15:04:24 GMT-0600 (Central Standard Time),597870.700000003,A,app,I,p,105,1,499.79999999701977,597370.900000006,8017,WL,A,3.0
5,6.263999938964844,learn,60000.0,Thu Jan 23 2025 15:04:24 GMT-0600 (Central Standard Time),598120.6000000015,A,appl,I,l,236,1,749.6999999955297,597370.900000006,8017,WL,A,3.0
5,6.398000001907349,learn,60000.0,Thu Jan 23 2025 15:04:24 GMT-0600 (Central Standard Time),598254.1000000015,A,apple,I,e,115,1,883.1999999955297,597370.900000006,8017,WL,A,3.0
5,6.546999931335449,learn,60000.0,Thu Jan 23 2025 15:04:24 GMT-0600 (Central Standard Time),598403.700000003,A,appleenter,I,enter,141,1,1032.7999999970198,597370.900000006,8017,WL,A,3.0
5,6.864000082015991,learn,60000.0,Thu Jan 23 2025 15:04:24 GMT-0600 (Central Standard Time),598720.3000000045,A,t,I,t,296,1,316.5,598403.8000000045,8017,WL,A,4.0
5,7.190999984741211,learn,60000.0,Thu Jan 23 2025 15:04:24 GMT-0600 (Central Standard Time),599047.8000000045,A,tr,I,r,179,1,644.0,598403.8000000045,8017,WL,A,4.0
5,7.20199990272522,learn,60000.0,Thu Jan 23 2025 15:04:24 GMT-0600 (Central Standard Time),599058.0,A,tra,I,a,3,1,654.1999999955297,598403.8000000045,8017,WL,A,4.0
5,7.230000019073486,learn,60000.0,Thu Jan 23 2025 15:04:24 GMT-0600 (Central Standard Time),599086.700000003,A,trai,I,i,18,1,682.8999999985099,598403.8000000045,8017,WL,A,4.0
5,7.313999891281128,learn,60000.0,Thu Jan 23 2025 15:04:24 GMT-0600 (Central Standard Time),599170.5,A,train,I,n,59,1,766.6999999955297,598403.8000000045,8017,WL,A,4.0
5,7.71399998664856,learn,60000.0,Thu Jan 23 2025 15:04:24 GMT-0600 (Central Standard Time),599570.400000006,A,trainenter,I,enter,394,1,1166.6000000014901,598403.8000000045,8017,WL,A,4.0
5,8.129999876022339,learn,60000.0,Thu Jan 23 2025 15:04:24 GMT-0600 (Central Standard Time),599986.6000000015,A,c,I,c,409,1,416.0,599570.6000000015,8017,WL,A,5.0
5,8.230999946594238,learn,60000.0,Thu Jan 23 2025 15:04:24 GMT-0600 (Central Standard Time),600086.900000006,A,ch,I,h,81,1,516.3000000044703,599570.6000000015,8017,WL,A,5.0
5,8.313999891281128,learn,60000.0,Thu Jan 23 2025 15:04:24 GMT-0600 (Central Standard Time),600170.1000000015,A,chi,I,i,60,1,599.5,599570.6000000015,8017,WL,A,5.0
5,8.46399998664856,learn,60000.0,Thu Jan 23 2025 15:04:24 GMT-0600 (Central Standard Time),600320.1000000015,A,chim,I,m,137,1,749.5,599570.6000000015,8017,WL,A,5.0
5,8.69700002670288,learn,60000.0,Thu Jan 23 2025 15:04:24 GMT-0600 (Central Standard Time),600553.1000000015,A,chimn,I,n,219,1,982.5,599570.6000000015,8017,WL,A,5.0
5,8.846999883651733,learn,60000.0,Thu Jan 23 2025 15:04:24 GMT-0600 (Central Standard Time),600703.3000000045,A,chimne,I,e,130,1,1132.7000000029802,599570.6000000015,8017,WL,A,5.0
5,8.96399998664856,learn,60000.0,Thu Jan 23 2025 15:04:24 GMT-0600 (Central Standard Time),600819.900000006,A,chimney,I,y,108,1,1249.3000000044703,599570.6000000015,8017,WL,A,5.0
5,9.19700002670288,learn,60000.0,Thu Jan 23 2025 15:04:24 GMT-0600 (Central Standard Time),601053.1000000015,A,chimneyenter,I,enter,223,1,1482.5,599570.6000000015,8017,WL,A,5.0
5,9.430000066757202,learn,60000.0,Thu Jan 23 2025 15:04:24 GMT-0600 (Central Standard Time),601286.3000000045,A,l,I,l,214,1,232.80000000447035,601053.5,8017,WL,A,6.0
5,9.61299991607666,learn,60000.0,Thu Jan 23 2025 15:04:24 GMT-0600 (Central Standard Time),601469.6000000015,A,lo,I,o,165,1,416.1000000014901,601053.5,8017,WL,A,6.0
5,9.746999979019165,learn,60000.0,Thu Jan 23 2025 15:04:24 GMT-0600 (Central Standard Time),601602.8000000045,A,log,I,g,126,1,549.3000000044703,601053.5,8017,WL,A,6.0
5,9.94599986076355,learn,60000.0,Thu Jan 23 2025 15:04:24 GMT-0600 (Central Standard Time),601802.6000000015,A,logenter,I,enter,193,1,749.1000000014901,601053.5,8017,WL,A,6.0
5,10.480000019073486,learn,60000.0,Thu Jan 23 2025 15:04:24 GMT-0600 (Central Standard Time),602336.0,A,b,I,b,521,1,533.1999999955297,601802.8000000045,8017,WL,A,7.0
5,10.546000003814697,learn,60000.0,Thu Jan 23 2025 15:04:24 GMT-0600 (Central Standard Time),602402.700000003,A,bo,I,o,59,1,599.8999999985099,601802.8000000045,8017,WL,A,7.0
5,10.730000019073486,learn,60000.0,Thu Jan 23 2025 15:04:24 GMT-0600 (Central Standard Time),602586.1000000015,A,boo,I,o,161,1,783.2999999970198,601802.8000000045,8017,WL,A,7.0
5,10.796000003814697,learn,60000.0,Thu Jan 23 2025 15:04:24 GMT-0600 (Central Standard Time),602652.6000000015,A,book,I,k,50,1,849.7999999970198,601802.8000000045,8017,WL,A,7.0
5,11.27999997138977,learn,60000.0,Thu Jan 23 2025 15:04:24 GMT-0600 (Central Standard Time),603135.8000000045,A,bookenter,I,enter,463,1,1333.0,601802.8000000045,8017,WL,A,7.0
5,11.963000059127808,learn,60000.0,Thu Jan 23 2025 15:04:24 GMT-0600 (Central Standard Time),603818.900000006,A,s,I,s,675,1,682.7000000029802,603136.200000003,8017,WL,A,8.0
5,12.145999908447266,learn,60000.0,Thu Jan 23 2025 15:04:24 GMT-0600 (Central Standard Time),604002.5,A,sa,I,a,177,1,866.2999999970198,603136.200000003,8017,WL,A,8.0
5,12.296000003814697,learn,60000.0,Thu Jan 23 2025 15:04:24 GMT-0600 (Central Standard Time),604152.200000003,A,sal,I,l,137,1,1016.0,603136.200000003,8017,WL,A,8.0
5,12.479000091552734,learn,60000.0,Thu Jan 23 2025 15:04:24 GMT-0600 (Central Standard Time),604335.400000006,A,salt,I,t,171,1,1199.2000000029802,603136.200000003,8017,WL,A,8.0
5,12.729000091552734,learn,60000.0,Thu Jan 23 2025 15:04:24 GMT-0600 (Central Standard Time),604585.3000000045,A,saltenter,I,enter,237,1,1449.1000000014901,603136.200000003,8017,WL,A,8.0
5,13.01200008392334,learn,60000.0,Thu Jan 23 2025 15:04:24 GMT-0600 (Central Standard Time),604868.400000006,A,f,I,f,274,1,282.5,604585.900000006,8017,WL,A,9.0
5,13.145999908447266,learn,60000.0,Thu Jan 23 2025 15:04:24 GMT-0600 (Central Standard Time),605001.900000006,A,fi,I,i,111,1,416.0,604585.900000006,8017,WL,A,9.0
5,13.211999893188477,learn,60000.0,Thu Jan 23 2025 15:04:24 GMT-0600 (Central Standard Time),605068.5,A,fin,I,n,50,1,482.59999999403954,604585.900000006,8017,WL,A,9.0
5,13.428999900817871,learn,60000.0,Thu Jan 23 2025 15:04:24 GMT-0600 (Central Standard Time),605285.200000003,A,fing,I,g,207,1,699.2999999970198,604585.900000006,8017,WL,A,9.0
5,13.59500002861023,learn,60000.0,Thu Jan 23 2025 15:04:24 GMT-0600 (Central Standard Time),605451.700000003,A,finge,I,e,159,1,865.7999999970198,604585.900000006,8017,WL,A,9.0
5,13.661999940872192,learn,60000.0,Thu Jan 23 2025 15:04:24 GMT-0600 (Central Standard Time),605518.5,A,finger,I,r,48,1,932.5999999940395,604585.900000006,8017,WL,A,9.0
5,13.812000036239624,learn,60000.0,Thu Jan 23 2025 15:04:24 GMT-0600 (Central Standard Time),605668.3000000045,A,fingerenter,I,enter,140,1,1082.3999999985099,604585.900000006,8017,WL,A,9.0
5,14.17799997329712,learn,60000.0,Thu Jan 23 2025 15:04:24 GMT-0600 (Central Standard Time),606034.6000000015,A,r,I,r,359,1,365.8999999985099,605668.700000003,8017,WL,A,10.0
5,14.328999996185303,learn,60000.0,Thu Jan 23 2025 15:04:24 GMT-0600 (Central Standard Time),606184.8000000045,A,ru,I,u,137,1,516.1000000014901,605668.700000003,8017,WL,A,10.0
5,14.494999885559082,learn,60000.0,Thu Jan 23 2025 15:04:24 GMT-0600 (Central Standard Time),606351.400000006,A,rug,I,g,155,1,682.7000000029802,605668.700000003,8017,WL,A,10.0
5,18.793999910354614,learn,60000.0,Thu Jan 23 2025 15:04:24 GMT-0600 (Central Standard Time),610650.1000000015,A,rugenter,I,enter,4284,1,4981.39999999851,605668.700000003,8017,WL,A,10.0
5,22.776000022888184,learn,60000.0,Thu Jan 23 2025 15:04:24 GMT-0600 (Central Standard Time),614632.200000003,A,h,I,h,3969,1,3981.7999999970198,610650.400000006,8017,WL,A,11.0
5,22.858999967575073,learn,60000.0,Thu Jan 23 2025 15:04:24 GMT-0600 (Central Standard Time),614715.5,A,ha,I,a,67,1,4065.0999999940395,610650.400000006,8017,WL,A,11.0
5,23.009000062942505,learn,60000.0,Thu Jan 23 2025 15:04:24 GMT-0600 (Central Standard Time),614865.5,A,har,I,r,128,1,4215.0999999940395,610650.400000006,8017,WL,A,11.0
5,23.175999879837036,learn,60000.0,Thu Jan 23 2025 15:04:24 GMT-0600 (Central Standard Time),615032.200000003,A,harp,I,p,154,1,4381.79999999702,610650.400000006,8017,WL,A,11.0
5,23.825999975204468,learn,60000.0,Thu Jan 23 2025 15:04:24 GMT-0600 (Central Standard Time),615682.1000000015,A,harpenter,I,enter,635,1,5031.69999999553,610650.400000006,8017,WL,A,11.0
5,24.80900001525879,learn,60000.0,Thu Jan 23 2025 15:04:24 GMT-0600 (Central Standard Time),616665.0,A,b,I,b,961,1,982.5999999940395,615682.400000006,8017,WL,A,12.0
5,24.908999919891357,learn,60000.0,Thu Jan 23 2025 15:04:24 GMT-0600 (Central Standard Time),616764.8000000045,A,bu,I,u,82,1,1082.3999999985099,615682.400000006,8017,WL,A,12.0
5,25.109999895095825,learn,60000.0,Thu Jan 23 2025 15:04:24 GMT-0600 (Central Standard Time),616965.8000000045,A,but,I,t,182,1,1283.3999999985099,615682.400000006,8017,WL,A,12.0
5,25.308000087738037,learn,60000.0,Thu Jan 23 2025 15:04:24 GMT-0600 (Central Standard Time),617164.6000000015,A,butt,I,t,182,1,1482.1999999955297,615682.400000006,8017,WL,A,12.0
5,25.325000047683716,learn,60000.0,Thu Jan 23 2025 15:04:24 GMT-0600 (Central Standard Time),617181.400000006,A,butto,I,o,1,1,1499.0,615682.400000006,8017,WL,A,12.0
5,25.407999992370605,learn,60000.0,Thu Jan 23 2025 15:04:24 GMT-0600 (Central Standard Time),617264.6000000015,A,button,I,n,70,1,1582.1999999955297,615682.400000006,8017,WL,A,12.0
5,25.674999952316284,learn,60000.0,Thu Jan 23 2025 15:04:24 GMT-0600 (Central Standard Time),617531.3000000045,A,buttonenter,I,enter,251,1,1848.8999999985099,615682.400000006,8017,WL,A,12.0
5,26.274999856948853,learn,60000.0,Thu Jan 23 2025 15:04:24 GMT-0600 (Central Standard Time),618131.1000000015,A,g,I,g,584,1,599.5,617531.6000000015,8017,WL,A,13.0
5,26.325000047683716,learn,60000.0,Thu Jan 23 2025 15:04:24 GMT-0600 (Central Standard Time),618181.200000003,A,go,I,o,40,1,649.6000000014901,617531.6000000015,8017,WL,A,13.0
5,26.524999856948853,learn,60000.0,Thu Jan 23 2025 15:04:24 GMT-0600 (Central Standard Time),618381.0,A,gol,I,l,190,1,849.3999999985099,617531.6000000015,8017,WL,A,13.0
5,26.691999912261963,learn,60000.0,Thu Jan 23 2025 15:04:24 GMT-0600 (Central Standard Time),618547.8000000045,A,gold,I,d,150,1,1016.2000000029802,617531.6000000015,8017,WL,A,13.0
5,26.825000047683716,learn,60000.0,Thu Jan 23 2025 15:04:24 GMT-0600 (Central Standard Time),618680.900000006,A,goldenter,I,enter,120,1,1149.3000000044703,617531.6000000015,8017,WL,A,13.0
5,27.22499990463257,learn,60000.0,Thu Jan 23 2025 15:04:24 GMT-0600 (Central Standard Time),619080.8000000045,A,k,I,k,387,1,399.6000000014901,618681.200000003,8017,WL,A,14.0
5,27.391000032424927,learn,60000.0,Thu Jan 23 2025 15:04:24 GMT-0600 (Central Standard Time),619247.400000006,A,ke,I,e,147,1,566.2000000029802,618681.200000003,8017,WL,A,14.0
5,27.490999937057495,learn,60000.0,Thu Jan 23 2025 15:04:24 GMT-0600 (Central Standard Time),619347.400000006,A,key,I,y,84,1,666.2000000029802,618681.200000003,8017,WL,A,14.0
5,27.740999937057495,learn,60000.0,Thu Jan 23 2025 15:04:24 GMT-0600 (Central Standard Time),619597.400000006,A,keyenter,I,enter,240,1,916.2000000029802,618681.200000003,8017,WL,A,14.0
5,32.555999994277954,learn,60000.0,Thu Jan 23 2025 15:04:24 GMT-0600 (Central Standard Time),624412.3000000045,A,r,I,r,4798,1,4814.70000000298,619597.6000000015,8017,WL,A,15.0
5,32.723000049591064,learn,60000.0,Thu Jan 23 2025 15:04:24 GMT-0600 (Central Standard Time),624579.1000000015,A,ru,I,u,151,1,4981.5,619597.6000000015,8017,WL,A,15.0
5,32.9229998588562,learn,60000.0,Thu Jan 23 2025 15:04:24 GMT-0600 (Central Standard Time),624778.900000006,A,rug,I,g,177,1,5181.30000000447,619597.6000000015,8017,WL,A,15.0
5,33.223000049591064,learn,60000.0,Thu Jan 23 2025 15:04:24 GMT-0600 (Central Standard Time),625079.0,A,rugenter,I,enter,289,1,5481.39999999851,619597.6000000015,8017,WL,A,15.0
6,1.0840001106262207,distr,58915.99988937378,Thu Jan 23 2025 15:04:24 GMT-0600 (Central Standard Time),696323.5,B,p,I,p,1067,1,1083.0999999940395,695240.400000006,8017,WL,A,1.0
6,1.3000001907348633,distr,58699.99980926514,Thu Jan 23 2025 15:04:24 GMT-0600 (Central Standard Time),696539.900000006,B,pp,I,p,208,1,1299.5,695240.400000006,8017,WL,A,1.0
6,1.5169999599456787,distr,58483.00004005432,Thu Jan 23 2025 15:04:24 GMT-0600 (Central Standard Time),696756.400000006,B,ppo,I,o,200,1,1516.0,695240.400000006,8017,WL,A,1.0
6,1.8840000629425049,distr,58115.999937057495,Thu Jan 23 2025 15:04:24 GMT-0600 (Central Standard Time),697124.200000003,B,pp,I,backspace,359,1,1883.7999999970198,695240.400000006,8017,WL,A,1.0
6,2.067000150680542,distr,57932.99984931946,Thu Jan 23 2025 15:04:24 GMT-0600 (Central Standard Time),697306.5,B,p,I,backspace,167,1,2066.0999999940395,695240.400000006,8017,WL,A,1.0
6,2.4000000953674316,distr,57599.99990463257,Thu Jan 23 2025 15:04:24 GMT-0600 (Central Standard Time),697639.400000006,B,po,I,o,313,1,2399.0,695240.400000006,8017,WL,A,1.0
6,2.6500000953674316,distr,57349.99990463257,Thu Jan 23 2025 15:04:24 GMT-0600 (Central Standard Time),697889.3000000045,B,poo,I,o,227,1,2648.89999999851,695240.400000006,8017,WL,A,1.0
6,2.8330001831054688,distr,57166.99981689453,Thu Jan 23 2025 15:04:24 GMT-0600 (Central Standard Time),698072.700000003,B,pool,I,l,170,1,2832.2999999970198,695240.400000006,8017,WL,A,1.0
6,3.0830001831054688,distr,56916.99981689453,Thu Jan 23 2025 15:04:24 GMT-0600 (Central Standard Time),698322.700000003,B,poolenter,I,enter,234,1,3082.2999999970198,695240.400000006,8017,WL,A,1.0
6,3.4000000953674316,distr,56599.99990463257,Thu Jan 23 2025 15:04:24 GMT-0600 (Central Standard Time),698639.3000000045,B,d,I,d,297,1,316.30000000447035,698323.0,8017,WL,A,2.0
6,3.5160000324249268,distr,56483.99996757507,Thu Jan 23 2025 15:04:24 GMT-0600 (Central Standard Time),698755.900000006,B,da,I,a,108,1,432.90000000596046,698323.0,8017,WL,A,2.0
6,3.7330000400543213,distr,56266.99995994568,Thu Jan 23 2025 15:04:24 GMT-0600 (Central Standard Time),698972.200000003,B,daw,I,w,200,1,649.2000000029802,698323.0,8017,WL,A,2.0
6,3.866000175476074,distr,56133.999824523926,Thu Jan 23 2025 15:04:24 GMT-0600 (Central Standard Time),699105.5,B,dawn,I,n,112,1,782.5,698323.0,8017,WL,A,2.0
6,4.416000127792358,distr,55583.99987220764,Thu Jan 23 2025 15:04:24 GMT-0600 (Central Standard Time),699655.700000003,B,dawnenter,I,enter,537,1,1332.7000000029802,698323.0,8017,WL,A,2.0
6,4.716000080108643,distr,55283.99991989136,Thu Jan 23 2025 15:04:24 GMT-0600 (Central Standard Time),699955.400000006,B,c,I,c,284,1,299.40000000596046,699656.0,8017,WL,A,3.0
6,4.815999984741211,distr,55184.00001525879,Thu Jan 23 2025 15:04:24 GMT-0600 (Central Standard Time),700055.5,B,co,I,o,88,1,399.5,699656.0,8017,WL,A,3.0
6,4.89900016784668,distr,55100.99983215332,Thu Jan 23 2025 15:04:24 GMT-0600 (Central Standard Time),700138.6000000015,B,cou,I,u,67,1,482.6000000014901,699656.0,8017,WL,A,3.0
6,5.117000102996826,distr,54882.999897003174,Thu Jan 23 2025 15:04:24 GMT-0600 (Central Standard Time),700356.5,B,coun,I,n,201,1,700.5,699656.0,8017,WL,A,3.0
6,5.199000120162964,distr,54800.999879837036,Thu Jan 23 2025 15:04:24 GMT-0600 (Central Standard Time),700438.6000000015,B,count,I,t,63,1,782.6000000014901,699656.0,8017,WL,A,3.0
6,5.39900016784668,distr,54600.99983215332,Thu Jan 23 2025 15:04:24 GMT-0600 (Central Standard Time),700638.700000003,B,countr,I,r,181,1,982.7000000029802,699656.0,8017,WL,A,3.0
6,5.449000120162964,distr,54550.999879837036,Thu Jan 23 2025 15:04:24 GMT-0600 (Central Standard Time),700688.5,B,country,I,y,28,1,1032.5,699656.0,8017,WL,A,3.0
6,5.64900016784668,distr,54350.99983215332,Thu Jan 23 2025 15:04:24 GMT-0600 (Central Standard Time),700888.700000003,B,countryenter,I,enter,179,1,1232.7000000029802,699656.0,8017,WL,A,3.0
6,6.465000152587891,distr,53534.99984741211,Thu Jan 23 2025 15:04:24 GMT-0600 (Central Standard Time),701705.0,B,j,I,j,795,1,816.0,700889.0,8017,WL,A,4.0
6,6.648000001907349,distr,53351.99999809265,Thu Jan 23 2025 15:04:24 GMT-0600 (Central Standard Time),701888.1000000015,B,ju,I,u,162,1,999.1000000014901,700889.0,8017,WL,A,4.0
6,6.732000112533569,distr,53267.99988746643,Thu Jan 23 2025 15:04:24 GMT-0600 (Central Standard Time),701971.400000006,B,jud,I,d,68,1,1082.4000000059605,700889.0,8017,WL,A,4.0
6,6.932000160217285,distr,53067.999839782715,Thu Jan 23 2025 15:04:24 GMT-0600 (Central Standard Time),702171.200000003,B,judg,I,g,192,1,1282.2000000029802,700889.0,8017,WL,A,4.0
6,7.015000104904175,distr,52984.999895095825,Thu Jan 23 2025 15:04:24 GMT-0600 (Central Standard Time),702254.700000003,B,judge,I,e,64,1,1365.7000000029802,700889.0,8017,WL,A,4.0
6,7.148000001907349,distr,52851.99999809265,Thu Jan 23 2025 15:04:24 GMT-0600 (Central Standard Time),702388.0,B,judgeenter,I,enter,125,1,1499.0,700889.0,8017,WL,A,4.0
6,7.465000152587891,distr,52534.99984741211,Thu Jan 23 2025 15:04:24 GMT-0600 (Central Standard Time),702704.5,B,g,I,g,295,1,316.19999999552965,702388.3000000045,8017,WL,A,5.0
6,7.664999961853027,distr,52335.00003814697,Thu Jan 23 2025 15:04:24 GMT-0600 (Central Standard Time),702904.5,B,gr,I,r,178,1,516.1999999955297,702388.3000000045,8017,WL,A,5.0
6,7.715000152587891,distr,52284.99984741211,Thu Jan 23 2025 15:04:24 GMT-0600 (Central Standard Time),702954.5,B,gra,I,a,42,1,566.1999999955297,702388.3000000045,8017,WL,A,5.0
6,7.8480000495910645,distr,52151.999950408936,Thu Jan 23 2025 15:04:24 GMT-0600 (Central Standard Time),703087.900000006,B,gran,I,n,121,1,699.6000000014901,702388.3000000045,8017,WL,A,5.0
6,7.930999994277954,distr,52069.000005722046,Thu Jan 23 2025 15:04:24 GMT-0600 (Central Standard Time),703171.0,B,grant,I,t,76,1,782.6999999955297,702388.3000000045,8017,WL,A,5.0
6,8.14900016784668,distr,51850.99983215332,Thu Jan 23 2025 15:04:24 GMT-0600 (Central Standard Time),703388.8000000045,B,grantenter,I,enter,208,1,1000.5,702388.3000000045,8017,WL,A,5.0
6,8.414000034332275,distr,51585.999965667725,Thu Jan 23 2025 15:04:24 GMT-0600 (Central Standard Time),703654.200000003,B,i,I,i,247,1,265.20000000298023,703389.0,8017,WL,A,6.0
6,8.515000104904175,distr,51484.999895095825,Thu Jan 23 2025 15:04:24 GMT-0600 (Central Standard Time),703754.400000006,B,in,I,n,76,1,365.40000000596046,703389.0,8017,WL,A,6.0
6,8.598000049591064,distr,51401.999950408936,Thu Jan 23 2025 15:04:24 GMT-0600 (Central Standard Time),703837.6000000015,B,ins,I,s,65,1,448.6000000014901,703389.0,8017,WL,A,6.0
6,8.914999961853027,distr,51085.00003814697,Thu Jan 23 2025 15:04:24 GMT-0600 (Central Standard Time),704154.5,B,inse,I,e,310,1,765.5,703389.0,8017,WL,A,6.0
6,9.180999994277954,distr,50819.000005722046,Thu Jan 23 2025 15:04:24 GMT-0600 (Central Standard Time),704420.700000003,B,insec,I,c,249,1,1031.7000000029802,703389.0,8017,WL,A,6.0
6,9.39900016784668,distr,50600.99983215332,Thu Jan 23 2025 15:04:24 GMT-0600 (Central Standard Time),704638.5,B,insect,I,t,207,1,1249.5,703389.0,8017,WL,A,6.0
6,9.54800009727478,distr,50451.99990272522,Thu Jan 23 2025 15:04:24 GMT-0600 (Central Standard Time),704787.5,B,insectenter,I,enter,133,1,1398.5,703389.0,8017,WL,A,6.0
6,9.781000137329102,distr,50218.9998626709,Thu Jan 23 2025 15:04:24 GMT-0600 (Central Standard Time),705020.5,B,s,I,s,216,1,232.5,704788.0,8017,WL,A,7.0
6,9.930999994277954,distr,50069.000005722046,Thu Jan 23 2025 15:04:24 GMT-0600 (Central Standard Time),705170.6000000015,B,se,I,e,142,1,382.6000000014901,704788.0,8017,WL,A,7.0
6,10.44700002670288,distr,49552.99997329712,Thu Jan 23 2025 15:04:24 GMT-0600 (Central Standard Time),705687.1000000015,B,s,I,backspace,506,1,899.1000000014901,704788.0,8017,WL,A,7.0
6,10.914000034332275,distr,49085.999965667725,Thu Jan 23 2025 15:04:24 GMT-0600 (Central Standard Time),706153.5,B,,I,backspace,445,1,1365.5,704788.0,8017,WL,A,7.0
6,11.147000074386597,distr,48852.9999256134,Thu Jan 23 2025 15:04:24 GMT-0600 (Central Standard Time),706386.700000003,B,p,I,p,218,1,1598.7000000029802,704788.0,8017,WL,A,7.0
6,11.264000177383423,distr,48735.99982261658,Thu Jan 23 2025 15:04:24 GMT-0600 (Central Standard Time),706503.3000000045,B,pe,I,e,105,1,1715.3000000044703,704788.0,8017,WL,A,7.0
6,11.347000122070312,distr,48652.99987792969,Thu Jan 23 2025 15:04:24 GMT-0600 (Central Standard Time),706586.700000003,B,pea,I,a,60,1,1798.7000000029802,704788.0,8017,WL,A,7.0
6,11.547000169754028,distr,48452.99983024597,Thu Jan 23 2025 15:04:24 GMT-0600 (Central Standard Time),706786.6000000015,B,peac,I,c,192,1,1998.6000000014901,704788.0,8017,WL,A,7.0
6,11.630000114440918,distr,48369.99988555908,Thu Jan 23 2025 15:04:24 GMT-0600 (Central Standard Time),706870.0,B,peach,I,h,65,1,2082.0,704788.0,8017,WL,A,7.0
6,12.047000169754028,distr,47952.99983024597,Thu Jan 23 2025 15:04:24 GMT-0600 (Central Standard Time),707286.700000003,B,peachenter,I,enter,397,1,2498.7000000029802,704788.0,8017,WL,A,7.0
6,15.578999996185303,distr,44421.0000038147,Thu Jan 23 2025 15:04:24 GMT-0600 (Central Standard Time),710818.700000003,B,i,I,i,3525,1,3531.5,707287.200000003,8017,WL,A,8.0
6,15.662000179290771,distr,44337.99982070923,Thu Jan 23 2025 15:04:24 GMT-0600 (Central Standard Time),710902.200000003,B,in,I,n,72,1,3615.0,707287.200000003,8017,WL,A,8.0
6,15.779000043869019,distr,44220.99995613098,Thu Jan 23 2025 15:04:24 GMT-0600 (Central Standard Time),711018.6000000015,B,ins,I,s,102,1,3731.39999999851,707287.200000003,8017,WL,A,8.0
6,15.979000091552734,distr,44020.999908447266,Thu Jan 23 2025 15:04:24 GMT-0600 (Central Standard Time),711218.6000000015,B,inse,I,e,185,1,3931.39999999851,707287.200000003,8017,WL,A,8.0
6,16.24500012397766,distr,43754.99987602234,Thu Jan 23 2025 15:04:24 GMT-0600 (Central Standard Time),711485.1000000015,B,insec,I,c,257,1,4197.89999999851,707287.200000003,8017,WL,A,8.0
6,16.41200017929077,distr,43587.99982070923,Thu Jan 23 2025 15:04:24 GMT-0600 (Central Standard Time),711651.8000000045,B,insect,I,t,151,1,4364.60000000149,707287.200000003,8017,WL,A,8.0
6,16.51200008392334,distr,43487.99991607666,Thu Jan 23 2025 15:04:24 GMT-0600 (Central Standard Time),711751.8000000045,B,insectenter,I,enter,88,1,4464.60000000149,707287.200000003,8017,WL,A,8.0
6,19.111000061035156,distr,40888.999938964844,Thu Jan 23 2025 15:04:24 GMT-0600 (Central Standard Time),714351.0,B,p,I,p,2580,1,2598.89999999851,711752.1000000015,8017,WL,A,9.0
6,19.228000164031982,distr,40771.99983596802,Thu Jan 23 2025 15:04:24 GMT-0600 (Central Standard Time),714467.5,B,po,I,o,100,1,2715.39999999851,711752.1000000015,8017,WL,A,9.0
6,19.710999965667725,distr,40289.000034332275,Thu Jan 23 2025 15:04:24 GMT-0600 (Central Standard Time),714950.700000003,B,p,I,backspace,474,1,3198.60000000149,711752.1000000015,8017,WL,A,9.0
6,19.944000005722046,distr,40055.999994277954,Thu Jan 23 2025 15:04:24 GMT-0600 (Central Standard Time),715184.200000003,B,,I,backspace,213,1,3432.10000000149,711752.1000000015,8017,WL,A,9.0
6,21.562000036239624,distr,38437.999963760376,Thu Jan 23 2025 15:04:24 GMT-0600 (Central Standard Time),716802.5,B,b,I,b,1596,1,5050.39999999851,711752.1000000015,8017,WL,A,9.0
6,21.693000078201294,distr,38306.999921798706,Thu Jan 23 2025 15:04:24 GMT-0600 (Central Standard Time),716933.5,B,bo,I,o,112,1,5181.39999999851,711752.1000000015,8017,WL,A,9.0
6,21.860000133514404,distr,38139.999866485596,Thu Jan 23 2025 15:04:24 GMT-0600 (Central Standard Time),717100.200000003,B,bot,I,t,157,1,5348.10000000149,711752.1000000015,8017,WL,A,9.0
6,22.026000022888184,distr,37973.99997711182,Thu Jan 23 2025 15:04:24 GMT-0600 (Central Standard Time),717266.5,B,bott,I,t,160,1,5514.39999999851,711752.1000000015,8017,WL,A,9.0
6,22.128000020980835,distr,37871.999979019165,Thu Jan 23 2025 15:04:24 GMT-0600 (Central Standard Time),717367.8000000045,B,bottl,I,l,81,1,5615.70000000298,711752.1000000015,8017,WL,A,9.0
6,22.325999975204468,distr,37674.00002479553,Thu Jan 23 2025 15:04:24 GMT-0600 (Central Standard Time),717566.700000003,B,bottle,I,e,187,1,5814.60000000149,711752.1000000015,8017,WL,A,9.0
6,22.426000118255615,distr,37573.999881744385,Thu Jan 23 2025 15:04:24 GMT-0600 (Central Standard Time),717666.400000006,B,bottleenter,I,enter,93,1,5914.30000000447,711752.1000000015,8017,WL,A,9.0
6,24.075999975204468,distr,35924.00002479553,Thu Jan 23 2025 15:04:24 GMT-0600 (Central Standard Time),719315.8000000045,B,s,I,s,1633,1,1649.0,717666.8000000045,8017,WL,A,10.0
6,24.192000150680542,distr,35807.99984931946,Thu Jan 23 2025 15:04:24 GMT-0600 (Central Standard Time),719432.6000000015,B,se,I,e,96,1,1765.7999999970198,717666.8000000045,8017,WL,A,10.0
6,24.39199995994568,distr,35608.00004005432,Thu Jan 23 2025 15:04:24 GMT-0600 (Central Standard Time),719632.5,B,see,I,e,187,1,1965.6999999955297,717666.8000000045,8017,WL,A,10.0
6,24.608999967575073,distr,35391.00003242493,Thu Jan 23 2025 15:04:24 GMT-0600 (Central Standard Time),719849.400000006,B,seed,I,d,203,1,2182.60000000149,717666.8000000045,8017,WL,A,10.0
6,24.676000118255615,distr,35323.999881744385,Thu Jan 23 2025 15:04:24 GMT-0600 (Central Standard Time),719916.1000000015,B,seedenter,I,enter,50,1,2249.2999999970198,717666.8000000045,8017,WL,A,10.0
6,29.491000175476074,distr,30508.999824523926,Thu Jan 23 2025 15:04:24 GMT-0600 (Central Standard Time),724731.1000000015,B,s,I,s,4799,1,4814.69999999553,719916.400000006,8017,WL,A,11.0
6,29.657000064849854,distr,30342.999935150146,Thu Jan 23 2025 15:04:24 GMT-0600 (Central Standard Time),724897.6000000015,B,sh,I,h,153,1,4981.19999999553,719916.400000006,8017,WL,A,11.0
6,29.741000175476074,distr,30258.999824523926,Thu Jan 23 2025 15:04:24 GMT-0600 (Central Standard Time),724981.0,B,she,I,e,74,1,5064.5999999940395,719916.400000006,8017,WL,A,11.0
6,29.924000024795532,distr,30075.999975204468,Thu Jan 23 2025 15:04:24 GMT-0600 (Central Standard Time),725164.400000006,B,shee,I,e,166,1,5248.0,719916.400000006,8017,WL,A,11.0
6,30.006999969482422,distr,29993.000030517578,Thu Jan 23 2025 15:04:24 GMT-0600 (Central Standard Time),725247.3000000045,B,sheet,I,t,62,1,5330.89999999851,719916.400000006,8017,WL,A,11.0
6,30.124000072479248,distr,29875.999927520752,Thu Jan 23 2025 15:04:24 GMT-0600 (Central Standard Time),725363.8000000045,B,sheetenter,I,enter,100,1,5447.39999999851,719916.400000006,8017,WL,A,11.0
6,37.72200012207031,distr,22277.999877929688,Thu Jan 23 2025 15:04:24 GMT-0600 (Central Standard Time),732962.0,B,p,I,p,7575,1,7597.79999999702,725364.200000003,8017,WL,A,12.0
6,38.13800001144409,distr,21861.99998855591,Thu Jan 23 2025 15:04:24 GMT-0600 (Central Standard Time),733378.5,B,po,I,o,401,1,8014.29999999702,725364.200000003,8017,WL,A,12.0
6,38.37100005149841,distr,21628.999948501587,Thu Jan 23 2025 15:04:24 GMT-0600 (Central Standard Time),733611.5,B,poo,I,o,217,1,8247.29999999702,725364.200000003,8017,WL,A,12.0
6,38.62100005149841,distr,21378.999948501587,Thu Jan 23 2025 15:04:24 GMT-0600 (Central Standard Time),733861.5,B,pool,I,l,240,1,8497.29999999702,725364.200000003,8017,WL,A,12.0
6,39.03800010681152,distr,20961.999893188477,Thu Jan 23 2025 15:04:24 GMT-0600 (Central Standard Time),734278.1000000015,B,poolenter,I,enter,398,1,8913.89999999851,725364.200000003,8017,WL,A,12.0
6,55.49900007247925,distr,4500.999927520752,Thu Jan 23 2025 15:04:24 GMT-0600 (Central Standard Time),750739.5,B,d,I,d,16453,1,16461.09999999404,734278.400000006,8017,WL,A,13.0
6,55.66600012779236,distr,4333.999872207642,Thu Jan 23 2025 15:04:24 GMT-0600 (Central Standard Time),750906.200000003,B,da,I,a,152,1,16627.79999999702,734278.400000006,8017,WL,A,13.0
6,55.866000175476074,distr,4133.999824523926,Thu Jan 23 2025 15:04:24 GMT-0600 (Central Standard Time),751106.200000003,B,daw,I,w,177,1,16827.79999999702,734278.400000006,8017,WL,A,13.0
6,55.949000120162964,distr,4050.999879837036,Thu Jan 23 2025 15:04:24 GMT-0600 (Central Standard Time),751189.5,B,dawn,I,n,74,1,16911.09999999404,734278.400000006,8017,WL,A,13.0
6,56.26600003242493,distr,3733.9999675750732,Thu Jan 23 2025 15:04:24 GMT-0600 (Central Standard Time),751506.1000000015,B,dawnenter,I,enter,294,1,17227.69999999553,734278.400000006,8017,WL,A,13.0
6,56.682000160217285,distr,3317.999839782715,Thu Jan 23 2025 15:04:24 GMT-0600 (Central Standard Time),751922.400000006,B,s,I,s,402,1,415.90000000596046,751506.5,8017,WL,A,14.0
6,56.81599998474121,distr,3184.000015258789,Thu Jan 23 2025 15:04:24 GMT-0600 (Central Standard Time),752055.900000006,B,sh,I,h,121,1,549.4000000059605,751506.5,8017,WL,A,14.0
6,57.06599998474121,distr,2934.000015258789,Thu Jan 23 2025 15:04:24 GMT-0600 (Central Standard Time),752305.8000000045,B,she,I,e,236,1,799.3000000044703,751506.5,8017,WL,A,14.0
