acc_sum,block,block_c,change,condition,correct,correct_response,datetime,endtime,face,project,response,response_time,row_sel,session_number,start_end,starttime,subject_id,task,task_vers,trial
0,prac,1,,1-Back,,,Thu Apr 17 2025 16:39:33 GMT-0500 (Central Daylight Time),,093_m_f_n_a.png,O,space,4388,1,1,,,7111,NNB,C,0
1,prac,1,0.0,1-Back,1,m,Thu Apr 17 2025 16:39:33 GMT-0500 (Central Daylight Time),131205.1000000015,098_y_f_n_a.png,O,m,1113,2,1,2006.1000000014901,129199.0,7111,NNB,C,1
2,prac,1,1.0,1-Back,1,z,Thu Apr 17 2025 16:39:33 GMT-0500 (Central Daylight Time),133320.6000000015,098_y_f_n_a.png,O,z,1333,3,1,2108.4000000059605,131212.19999999553,7111,NNB,C,2
3,prac,1,0.0,1-Back,1,m,Thu Apr 17 2025 16:39:33 GMT-0500 (Central Daylight Time),135253.29999999702,059_o_m_n_a.png,O,m,1056,4,1,1926.6999999955297,133326.6000000015,7111,NNB,C,3
4,prac,1,0.0,1-Back,1,m,Thu Apr 17 2025 16:39:33 GMT-0500 (Central Daylight Time),137119.5,092_m_m_n_a.png,O,m,989,5,1,1859.0,135260.5,7111,NNB,C,4
5,prac,1,1.0,1-Back,1,z,Thu Apr 17 2025 16:39:33 GMT-0500 (Central Daylight Time),138785.69999999553,092_m_m_n_a.png,O,z,890,6,1,1658.8999999985099,137126.79999999702,7111,NNB,C,5
6,prac,1,0.0,1-Back,1,m,Thu Apr 17 2025 16:39:33 GMT-0500 (Central Daylight Time),140585.0,130_o_f_n_a.png,O,m,894,7,1,1793.5,138791.5,7111,NNB,C,6
7,prac,1,0.0,1-Back,1,m,Thu Apr 17 2025 16:39:33 GMT-0500 (Central Daylight Time),142967.5,082_m_m_n_a.png,O,m,1505,8,1,2374.8000000044703,140592.69999999553,7111,NNB,C,7
8,prac,1,0.0,1-Back,1,m,Thu Apr 17 2025 16:39:33 GMT-0500 (Central Daylight Time),144916.8999999985,093_m_f_n_a.png,O,m,1162,9,1,1942.1000000014901,142974.79999999702,7111,NNB,C,8
9,prac,1,1.0,1-Back,1,z,Thu Apr 17 2025 16:39:33 GMT-0500 (Central Daylight Time),146533.19999999553,093_m_f_n_a.png,O,z,829,10,1,1609.0999999940395,144924.1000000015,7111,NNB,C,9
10,prac,1,0.0,1-Back,1,m,Thu Apr 17 2025 16:39:33 GMT-0500 (Central Daylight Time),148432.6000000015,059_o_m_n_a.png,O,m,1109,11,1,1892.0,146540.6000000015,7111,NNB,C,10
11,prac,1,0.0,1-Back,1,m,Thu Apr 17 2025 16:39:33 GMT-0500 (Central Daylight Time),150381.8999999985,028_y_f_n_a.png,O,m,1066,12,1,1943.2999999970198,148438.6000000015,7111,NNB,C,11
0,test,1,0.0,1-Back,,,Thu Apr 17 2025 16:39:33 GMT-0500 (Central Daylight Time),150381.8999999985,098_y_f_n_a.png,O,space,6380,1,1,1943.2999999970198,148438.6000000015,7111,NNB,C,0
1,test,1,0.0,1-Back,1,m,Thu Apr 17 2025 16:39:33 GMT-0500 (Central Daylight Time),166293.5,006_m_f_n_a.png,O,m,771,2,1,1794.7000000029802,164498.79999999702,7111,NNB,C,1
2,test,1,0.0,1-Back,1,m,Thu Apr 17 2025 16:39:33 GMT-0500 (Central Daylight Time),168393.1000000015,028_y_f_n_a.png,O,m,1075,3,1,2094.8000000044703,166298.29999999702,7111,NNB,C,2
3,test,1,1.0,1-Back,1,z,Thu Apr 17 2025 16:39:33 GMT-0500 (Central Daylight Time),170209.1000000015,028_y_f_n_a.png,O,z,792,4,1,1812.2000000029802,168396.8999999985,7111,NNB,C,3
4,test,1,0.0,1-Back,1,m,Thu Apr 17 2025 16:39:33 GMT-0500 (Central Daylight Time),172125.1000000015,006_m_f_n_a.png,O,m,896,5,1,1911.5,170213.6000000015,7111,NNB,C,4
5,test,1,0.0,1-Back,1,m,Thu Apr 17 2025 16:39:33 GMT-0500 (Central Daylight Time),173874.29999999702,059_o_m_n_a.png,O,m,724,6,1,1745.5,172128.79999999702,7111,NNB,C,5
6,test,1,1.0,1-Back,1,z,Thu Apr 17 2025 16:39:33 GMT-0500 (Central Daylight Time),175707.3999999985,059_o_m_n_a.png,O,z,807,7,1,1828.5,173878.8999999985,7111,NNB,C,6
7,test,1,0.0,1-Back,1,m,Thu Apr 17 2025 16:39:33 GMT-0500 (Central Daylight Time),177906.8999999985,092_m_m_n_a.png,O,m,1167,8,1,2195.10000000149,175711.79999999702,7111,NNB,C,7
8,test,1,0.0,1-Back,1,m,Thu Apr 17 2025 16:39:33 GMT-0500 (Central Daylight Time),179723.0,130_o_f_n_a.png,O,m,799,9,1,1812.7000000029802,177910.29999999702,7111,NNB,C,8
9,test,1,0.0,1-Back,1,m,Thu Apr 17 2025 16:39:33 GMT-0500 (Central Daylight Time),181905.19999999553,092_m_m_n_a.png,O,m,1158,10,1,2177.5999999940395,179727.6000000015,7111,NNB,C,9
10,test,1,0.0,1-Back,1,m,Thu Apr 17 2025 16:39:33 GMT-0500 (Central Daylight Time),183804.69999999553,057_y_m_n_a.png,O,m,872,11,1,1894.8999999985099,181909.79999999702,7111,NNB,C,10
11,test,1,1.0,1-Back,1,z,Thu Apr 17 2025 16:39:33 GMT-0500 (Central Daylight Time),185620.79999999702,057_y_m_n_a.png,O,z,796,12,1,1811.3999999985099,183809.3999999985,7111,NNB,C,11
12,test,1,0.0,1-Back,1,m,Thu Apr 17 2025 16:39:33 GMT-0500 (Central Daylight Time),187836.79999999702,030_o_f_n_a.png,O,m,1188,13,1,2212.2999999970198,185624.5,7111,NNB,C,12
13,test,1,1.0,1-Back,1,z,Thu Apr 17 2025 16:39:33 GMT-0500 (Central Daylight Time),189819.19999999553,030_o_f_n_a.png,O,z,964,14,1,1978.2999999970198,187840.8999999985,7111,NNB,C,13
14,test,1,0.0,1-Back,1,m,Thu Apr 17 2025 16:39:33 GMT-0500 (Central Daylight Time),191752.5,031_y_m_n_a.png,O,m,902,15,1,1929.0,189823.5,7111,NNB,C,14
15,test,1,0.0,1-Back,1,m,Thu Apr 17 2025 16:39:33 GMT-0500 (Central Daylight Time),193984.6000000015,093_m_f_n_a.png,O,m,1209,16,1,2227.8000000044703,191756.79999999702,7111,NNB,C,15
16,test,1,0.0,1-Back,1,m,Thu Apr 17 2025 16:39:33 GMT-0500 (Central Daylight Time),195751.1000000015,146_o_m_n_a.png,O,m,736,17,1,1762.1000000014901,193989.0,7111,NNB,C,16
17,test,1,0.0,1-Back,1,m,Thu Apr 17 2025 16:39:33 GMT-0500 (Central Daylight Time),197984.0,093_m_f_n_a.png,O,m,1202,18,1,2228.39999999851,195755.6000000015,7111,NNB,C,17
0,test,2,0.0,1-Back,,,Thu Apr 17 2025 16:39:33 GMT-0500 (Central Daylight Time),197984.0,092_m_m_n_a.png,O,space,3282,1,1,2228.39999999851,195755.6000000015,7111,NNB,C,0
1,test,2,0.0,1-Back,1,m,Thu Apr 17 2025 16:39:33 GMT-0500 (Central Daylight Time),205081.69999999553,006_m_f_n_a.png,O,m,751,2,1,1778.5,203303.19999999553,7111,NNB,C,1
2,test,2,1.0,1-Back,1,z,Thu Apr 17 2025 16:39:33 GMT-0500 (Central Daylight Time),206997.6000000015,006_m_f_n_a.png,O,z,896,3,1,1911.5,205086.1000000015,7111,NNB,C,2
3,test,2,0.0,1-Back,1,m,Thu Apr 17 2025 16:39:33 GMT-0500 (Central Daylight Time),208580.29999999702,092_m_m_n_a.png,O,m,556,4,1,1578.0,207002.29999999702,7111,NNB,C,3
4,test,2,0.0,1-Back,1,m,Thu Apr 17 2025 16:39:33 GMT-0500 (Central Daylight Time),210446.29999999702,057_y_m_n_a.png,O,m,837,5,1,1861.1999999955297,208585.1000000015,7111,NNB,C,4
5,test,2,0.0,1-Back,1,m,Thu Apr 17 2025 16:39:33 GMT-0500 (Central Daylight Time),212346.0,098_y_f_n_a.png,O,m,876,6,1,1896.3000000044703,210449.69999999553,7111,NNB,C,5
6,test,2,1.0,1-Back,1,z,Thu Apr 17 2025 16:39:33 GMT-0500 (Central Daylight Time),214095.29999999702,098_y_f_n_a.png,O,z,719,7,1,1745.8999999985099,212349.3999999985,7111,NNB,C,6
7,test,2,0.0,1-Back,1,m,Thu Apr 17 2025 16:39:33 GMT-0500 (Central Daylight Time),215744.79999999702,057_y_m_n_a.png,O,m,618,8,1,1645.1999999955297,214099.6000000015,7111,NNB,C,7
8,test,2,0.0,1-Back,1,m,Thu Apr 17 2025 16:39:33 GMT-0500 (Central Daylight Time),217827.5,030_o_f_n_a.png,O,m,1056,9,1,2078.39999999851,215749.1000000015,7111,NNB,C,8
9,test,2,0.0,1-Back,1,m,Thu Apr 17 2025 16:39:33 GMT-0500 (Central Daylight Time),219710.29999999702,082_m_m_n_a.png,O,m,853,10,1,1878.1999999955297,217832.1000000015,7111,NNB,C,9
10,test,2,1.0,1-Back,1,z,Thu Apr 17 2025 16:39:33 GMT-0500 (Central Daylight Time),221526.29999999702,082_m_m_n_a.png,O,z,795,11,1,1811.1999999955297,219715.1000000015,7111,NNB,C,10
11,test,2,0.0,1-Back,1,m,Thu Apr 17 2025 16:39:33 GMT-0500 (Central Daylight Time),223242.0,030_o_f_n_a.png,O,m,695,12,1,1711.3999999985099,221530.6000000015,7111,NNB,C,11
12,test,2,0.0,1-Back,1,m,Thu Apr 17 2025 16:39:33 GMT-0500 (Central Daylight Time),225275.1000000015,130_o_f_n_a.png,O,m,1007,13,1,2028.8000000044703,223246.29999999702,7111,NNB,C,12
13,test,2,0.0,1-Back,1,m,Thu Apr 17 2025 16:39:33 GMT-0500 (Central Daylight Time),227074.6000000015,059_o_m_n_a.png,O,m,767,14,1,1794.7000000029802,225279.8999999985,7111,NNB,C,13
14,test,2,0.0,1-Back,1,m,Thu Apr 17 2025 16:39:33 GMT-0500 (Central Daylight Time),228857.29999999702,146_o_m_n_a.png,O,m,759,15,1,1778.1999999955297,227079.1000000015,7111,NNB,C,14
15,test,2,1.0,1-Back,1,z,Thu Apr 17 2025 16:39:33 GMT-0500 (Central Daylight Time),230573.6000000015,146_o_m_n_a.png,O,z,696,16,1,1712.6000000014901,228861.0,7111,NNB,C,15
16,test,2,0.0,1-Back,1,m,Thu Apr 17 2025 16:39:33 GMT-0500 (Central Daylight Time),232389.5,031_y_m_n_a.png,O,m,796,17,1,1811.6000000014901,230577.8999999985,7111,NNB,C,16
17,test,2,1.0,1-Back,1,z,Thu Apr 17 2025 16:39:33 GMT-0500 (Central Daylight Time),235355.29999999702,031_y_m_n_a.png,O,z,1940,18,1,2962.39999999851,232392.8999999985,7111,NNB,C,17
0,test,3,1.0,1-Back,,,Thu Apr 17 2025 16:39:33 GMT-0500 (Central Daylight Time),235355.29999999702,028_y_f_n_a.png,O,space,1478,1,1,2962.39999999851,232392.8999999985,7111,NNB,C,0
1,test,3,0.0,1-Back,1,m,Thu Apr 17 2025 16:39:33 GMT-0500 (Central Daylight Time),240553.79999999702,146_o_m_n_a.png,O,m,575,1,1,1594.6999999955297,238959.1000000015,7111,NNB,C,1
2,test,3,1.0,1-Back,1,z,Thu Apr 17 2025 16:39:33 GMT-0500 (Central Daylight Time),242436.19999999553,146_o_m_n_a.png,O,z,855,1,1,1879.0,240557.19999999553,7111,NNB,C,2
3,test,3,0.0,1-Back,1,m,Thu Apr 17 2025 16:39:33 GMT-0500 (Central Daylight Time),244119.29999999702,093_m_f_n_a.png,O,m,661,1,1,1679.6000000014901,242439.69999999553,7111,NNB,C,3
4,test,3,1.0,1-Back,1,z,Thu Apr 17 2025 16:39:33 GMT-0500 (Central Daylight Time),245885.3999999985,093_m_f_n_a.png,O,z,746,1,1,1761.7000000029802,244123.69999999553,7111,NNB,C,4
5,test,3,0.0,1-Back,1,m,Thu Apr 17 2025 16:39:33 GMT-0500 (Central Daylight Time),247784.5,030_o_f_n_a.png,O,m,867,1,1,1894.8000000044703,245889.69999999553,7111,NNB,C,5
6,test,3,0.0,1-Back,1,m,Thu Apr 17 2025 16:39:33 GMT-0500 (Central Daylight Time),249550.69999999553,057_y_m_n_a.png,O,m,745,1,1,1762.1999999955297,247788.5,7111,NNB,C,6
7,test,3,0.0,1-Back,1,m,Thu Apr 17 2025 16:39:33 GMT-0500 (Central Daylight Time),251317.0,030_o_f_n_a.png,O,m,738,1,1,1761.8999999985099,249555.1000000015,7111,NNB,C,7
8,test,3,0.0,1-Back,1,m,Thu Apr 17 2025 16:39:33 GMT-0500 (Central Daylight Time),253632.8999999985,031_y_m_n_a.png,O,m,1284,1,1,2311.5,251321.3999999985,7111,NNB,C,8
9,test,3,1.0,1-Back,1,z,Thu Apr 17 2025 16:39:33 GMT-0500 (Central Daylight Time),255349.0,031_y_m_n_a.png,O,z,688,1,1,1712.0,253637.0,7111,NNB,C,9
10,test,3,0.0,1-Back,1,m,Thu Apr 17 2025 16:39:33 GMT-0500 (Central Daylight Time),257281.5,006_m_f_n_a.png,O,m,900,1,1,1928.3999999985099,255353.1000000015,7111,NNB,C,10
11,test,3,0.0,1-Back,1,m,Thu Apr 17 2025 16:39:33 GMT-0500 (Central Daylight Time),259081.1000000015,098_y_f_n_a.png,O,m,767,1,1,1795.9000000059605,257285.19999999553,7111,NNB,C,11
12,test,3,1.0,1-Back,1,z,Thu Apr 17 2025 16:39:33 GMT-0500 (Central Daylight Time),260847.3999999985,098_y_f_n_a.png,O,z,743,1,1,1761.7000000029802,259085.69999999553,7111,NNB,C,12
13,test,3,0.0,1-Back,1,m,Thu Apr 17 2025 16:39:33 GMT-0500 (Central Daylight Time),262646.8999999985,006_m_f_n_a.png,O,m,778,1,1,1794.7999999970198,260852.1000000015,7111,NNB,C,13
14,test,3,0.0,1-Back,1,m,Thu Apr 17 2025 16:39:33 GMT-0500 (Central Daylight Time),264329.5,092_m_m_n_a.png,O,m,651,1,1,1678.7000000029802,262650.799999997,7111,NNB,C,14
15,test,3,1.0,1-Back,1,z,Thu Apr 17 2025 16:39:33 GMT-0500 (Central Daylight Time),266062.3999999985,092_m_m_n_a.png,O,z,710,1,1,1728.6000000014901,264333.799999997,7111,NNB,C,15
16,test,3,0.0,1-Back,1,m,Thu Apr 17 2025 16:39:33 GMT-0500 (Central Daylight Time),267661.69999999553,130_o_f_n_a.png,O,m,579,1,1,1595.1999999955297,266066.5,7111,NNB,C,16
17,test,3,1.0,1-Back,1,z,Thu Apr 17 2025 16:39:33 GMT-0500 (Central Daylight Time),269544.5,130_o_f_n_a.png,O,z,861,1,1,1878.7000000029802,267665.799999997,7111,NNB,C,17
0,test,4,1.0,1-Back,,,Thu Apr 17 2025 16:39:33 GMT-0500 (Central Daylight Time),269544.5,093_m_f_n_a.png,O,space,1889,1,1,1878.7000000029802,267665.799999997,7111,NNB,C,0
1,test,4,0.0,1-Back,1,m,Thu Apr 17 2025 16:39:33 GMT-0500 (Central Daylight Time),275260.3999999985,146_o_m_n_a.png,O,m,699,2,1,1713.3999999985099,273547.0,7111,NNB,C,1
2,test,4,0.0,1-Back,1,m,Thu Apr 17 2025 16:39:33 GMT-0500 (Central Daylight Time),277408.799999997,093_m_f_n_a.png,O,m,1124,3,1,2145.0,275263.799999997,7111,NNB,C,2
3,test,4,0.0,1-Back,1,m,Thu Apr 17 2025 16:39:33 GMT-0500 (Central Daylight Time),279058.1000000015,030_o_f_n_a.png,O,m,617,4,1,1645.7000000029802,277412.3999999985,7111,NNB,C,3
4,test,4,1.0,1-Back,1,z,Thu Apr 17 2025 16:39:33 GMT-0500 (Central Daylight Time),280824.5,030_o_f_n_a.png,O,z,743,5,1,1761.8000000044703,279062.69999999553,7111,NNB,C,4
5,test,4,0.0,1-Back,1,m,Thu Apr 17 2025 16:39:33 GMT-0500 (Central Daylight Time),282573.799999997,098_y_f_n_a.png,O,m,721,6,1,1745.7999999970198,280828.0,7111,NNB,C,5
6,test,4,0.0,1-Back,1,m,Thu Apr 17 2025 16:39:33 GMT-0500 (Central Daylight Time),284273.299999997,057_y_m_n_a.png,O,m,667,7,1,1696.0,282577.299999997,7111,NNB,C,6
7,test,4,1.0,1-Back,1,z,Thu Apr 17 2025 16:39:33 GMT-0500 (Central Daylight Time),286039.19999999553,057_y_m_n_a.png,O,z,736,8,1,1761.3999999985099,284277.799999997,7111,NNB,C,7
8,test,4,0.0,1-Back,1,m,Thu Apr 17 2025 16:39:33 GMT-0500 (Central Daylight Time),287655.69999999553,098_y_f_n_a.png,O,m,594,9,1,1613.0,286042.69999999553,7111,NNB,C,8
9,test,4,0.0,1-Back,1,m,Thu Apr 17 2025 16:39:33 GMT-0500 (Central Daylight Time),289388.19999999553,082_m_m_n_a.png,O,m,706,10,1,1727.7999999970198,287660.3999999985,7111,NNB,C,9
10,test,4,1.0,1-Back,1,z,Thu Apr 17 2025 16:39:33 GMT-0500 (Central Daylight Time),291204.3999999985,082_m_m_n_a.png,O,z,789,11,1,1811.2999999970198,289393.1000000015,7111,NNB,C,10
11,test,4,0.0,1-Back,1,m,Thu Apr 17 2025 16:39:33 GMT-0500 (Central Daylight Time),293203.799999997,130_o_f_n_a.png,O,m,981,12,1,1995.0,291208.799999997,7111,NNB,C,11
12,test,4,0.0,1-Back,1,m,Thu Apr 17 2025 16:39:33 GMT-0500 (Central Daylight Time),294836.69999999553,059_o_m_n_a.png,O,m,613,13,1,1629.0999999940395,293207.6000000015,7111,NNB,C,12
13,test,4,0.0,1-Back,1,m,Thu Apr 17 2025 16:39:33 GMT-0500 (Central Daylight Time),296852.69999999553,130_o_f_n_a.png,O,m,989,14,1,2011.1999999955297,294841.5,7111,NNB,C,13
14,test,4,0.0,1-Back,1,m,Thu Apr 17 2025 16:39:33 GMT-0500 (Central Daylight Time),298702.0,028_y_f_n_a.png,O,m,821,15,1,1844.8999999985099,296857.1000000015,7111,NNB,C,14
15,test,4,1.0,1-Back,1,z,Thu Apr 17 2025 16:39:33 GMT-0500 (Central Daylight Time),300284.69999999553,028_y_f_n_a.png,O,z,564,16,1,1578.3999999985099,298706.299999997,7111,NNB,C,15
16,test,4,0.0,1-Back,1,m,Thu Apr 17 2025 16:39:33 GMT-0500 (Central Daylight Time),302200.8999999985,006_m_f_n_a.png,O,m,884,17,1,1912.1000000014901,300288.799999997,7111,NNB,C,16
17,test,4,1.0,1-Back,1,z,Thu Apr 17 2025 16:39:33 GMT-0500 (Central Daylight Time),304167.19999999553,006_m_f_n_a.png,O,z,936,18,1,1962.0999999940395,302205.1000000015,7111,NNB,C,17
0,test,5,1.0,1-Back,,,Thu Apr 17 2025 16:39:33 GMT-0500 (Central Daylight Time),304167.19999999553,059_o_m_n_a.png,O,space,1178,1,1,1962.0999999940395,302205.1000000015,7111,NNB,C,0
1,test,5,1.0,1-Back,1,z,Thu Apr 17 2025 16:39:33 GMT-0500 (Central Daylight Time),309449.5,059_o_m_n_a.png,O,z,1051,2,1,2078.89999999851,307370.6000000015,7111,NNB,C,1
2,test,5,0.0,1-Back,1,m,Thu Apr 17 2025 16:39:33 GMT-0500 (Central Daylight Time),311098.299999997,098_y_f_n_a.png,O,m,624,3,1,1645.8999999985099,309452.3999999985,7111,NNB,C,2
3,test,5,0.0,1-Back,1,m,Thu Apr 17 2025 16:39:33 GMT-0500 (Central Daylight Time),312847.6000000015,057_y_m_n_a.png,O,m,727,4,1,1745.6000000014901,311102.0,7111,NNB,C,3
4,test,5,0.0,1-Back,1,m,Thu Apr 17 2025 16:39:33 GMT-0500 (Central Daylight Time),314880.19999999553,098_y_f_n_a.png,O,m,1010,5,1,2028.1999999955297,312852.0,7111,NNB,C,4
5,test,5,0.0,1-Back,1,m,Thu Apr 17 2025 16:39:33 GMT-0500 (Central Daylight Time),316613.299999997,092_m_m_n_a.png,O,m,705,6,1,1729.6000000014901,314883.69999999553,7111,NNB,C,5
6,test,5,1.0,1-Back,1,z,Thu Apr 17 2025 16:39:33 GMT-0500 (Central Daylight Time),318229.299999997,092_m_m_n_a.png,O,z,588,7,1,1612.1999999955297,316617.1000000015,7111,NNB,C,6
7,test,5,0.0,1-Back,1,m,Thu Apr 17 2025 16:39:33 GMT-0500 (Central Daylight Time),319912.19999999553,028_y_f_n_a.png,O,m,660,8,1,1678.8999999985099,318233.299999997,7111,NNB,C,7
8,test,5,0.0,1-Back,1,m,Thu Apr 17 2025 16:39:33 GMT-0500 (Central Daylight Time),321545.0,031_y_m_n_a.png,O,m,601,9,1,1628.6000000014901,319916.3999999985,7111,NNB,C,8
9,test,5,0.0,1-Back,1,m,Thu Apr 17 2025 16:39:33 GMT-0500 (Central Daylight Time),323277.6000000015,028_y_f_n_a.png,O,m,704,10,1,1729.3000000044703,321548.299999997,7111,NNB,C,9
10,test,5,0.0,1-Back,1,m,Thu Apr 17 2025 16:39:33 GMT-0500 (Central Daylight Time),324943.799999997,130_o_f_n_a.png,O,m,643,11,1,1662.0,323281.799999997,7111,NNB,C,10
11,test,5,1.0,1-Back,1,z,Thu Apr 17 2025 16:39:33 GMT-0500 (Central Daylight Time),326743.3999999985,130_o_f_n_a.png,O,z,778,12,1,1795.2000000029802,324948.19999999553,7111,NNB,C,11
12,test,5,0.0,1-Back,1,m,Thu Apr 17 2025 16:39:33 GMT-0500 (Central Daylight Time),328376.19999999553,146_o_m_n_a.png,O,m,602,13,1,1629.0,326747.19999999553,7111,NNB,C,12
13,test,5,0.0,1-Back,1,m,Thu Apr 17 2025 16:39:33 GMT-0500 (Central Daylight Time),330008.8999999985,093_m_f_n_a.png,O,m,609,14,1,1628.5,328380.3999999985,7111,NNB,C,13
14,test,5,1.0,1-Back,1,z,Thu Apr 17 2025 16:39:33 GMT-0500 (Central Daylight Time),331741.6000000015,093_m_f_n_a.png,O,z,712,15,1,1729.6000000014901,330012.0,7111,NNB,C,14
15,test,5,0.0,1-Back,1,m,Thu Apr 17 2025 16:39:33 GMT-0500 (Central Daylight Time),333357.8999999985,146_o_m_n_a.png,O,m,595,16,1,1612.8999999985099,331745.0,7111,NNB,C,15
16,test,5,0.0,1-Back,1,m,Thu Apr 17 2025 16:39:33 GMT-0500 (Central Daylight Time),335124.1000000015,006_m_f_n_a.png,O,m,747,17,1,1762.3000000044703,333361.799999997,7111,NNB,C,16
17,test,5,0.0,1-Back,1,m,Thu Apr 17 2025 16:39:33 GMT-0500 (Central Daylight Time),337006.799999997,082_m_m_n_a.png,O,m,862,18,1,1878.2999999970198,335128.5,7111,NNB,C,17
0,prac,1,0.0,2-Back,,,Thu Apr 17 2025 16:39:33 GMT-0500 (Central Daylight Time),337006.799999997,031_y_m_n_a.png,O,space,5434,1,1,1878.2999999970198,335128.5,7111,NNB,C,0
0,prac,1,0.0,2-Back,,,Thu Apr 17 2025 16:39:33 GMT-0500 (Central Daylight Time),337006.799999997,006_m_f_n_a.png,O,space,5434,2,1,1878.2999999970198,335128.5,7111,NNB,C,0
1,prac,1,1.0,2-Back,1,m,Thu Apr 17 2025 16:39:33 GMT-0500 (Central Daylight Time),443140.299999997,146_o_m_n_a.png,O,m,1542,3,1,2425.7999999970198,440714.5,7111,NNB,C,1
2,prac,1,0.0,2-Back,1,m,Thu Apr 17 2025 16:39:33 GMT-0500 (Central Daylight Time),445057.3999999985,130_o_f_n_a.png,O,m,1009,4,1,1910.6000000014901,443146.799999997,7111,NNB,C,2
3,prac,1,0.0,2-Back,1,z,Thu Apr 17 2025 16:39:33 GMT-0500 (Central Daylight Time),446989.0,146_o_m_n_a.png,O,z,1145,5,1,1925.2000000029802,445063.799999997,7111,NNB,C,3
4,prac,1,1.0,2-Back,1,z,Thu Apr 17 2025 16:39:33 GMT-0500 (Central Daylight Time),449321.69999999553,130_o_f_n_a.png,O,z,1558,6,1,2325.89999999851,446995.799999997,7111,NNB,C,4
5,prac,1,0.0,2-Back,1,m,Thu Apr 17 2025 16:39:33 GMT-0500 (Central Daylight Time),451270.8999999985,082_m_m_n_a.png,O,m,1073,7,1,1942.5,449328.3999999985,7111,NNB,C,5
6,prac,1,0.0,2-Back,1,m,Thu Apr 17 2025 16:39:33 GMT-0500 (Central Daylight Time),453070.5,059_o_m_n_a.png,O,m,914,8,1,1792.8000000044703,451277.69999999553,7111,NNB,C,6
7,prac,1,0.0,2-Back,1,m,Thu Apr 17 2025 16:39:33 GMT-0500 (Central Daylight Time),454921.0,028_y_f_n_a.png,O,m,989,9,1,1844.6000000014901,453076.3999999985,7111,NNB,C,7
8,prac,1,1.0,2-Back,1,z,Thu Apr 17 2025 16:39:33 GMT-0500 (Central Daylight Time),457302.5,059_o_m_n_a.png,O,z,1595,10,1,2376.0,454926.5,7111,NNB,C,8
9,prac,1,0.0,2-Back,1,m,Thu Apr 17 2025 16:39:33 GMT-0500 (Central Daylight Time),459418.3999999985,098_y_f_n_a.png,O,m,1267,11,1,2109.39999999851,457309.0,7111,NNB,C,9
10,prac,1,0.0,2-Back,1,m,Thu Apr 17 2025 16:39:33 GMT-0500 (Central Daylight Time),461451.0,082_m_m_n_a.png,O,m,1250,12,1,2026.3000000044703,459424.69999999553,7111,NNB,C,10
0,test,1,0.0,2-Back,,,Thu Apr 17 2025 16:39:33 GMT-0500 (Central Daylight Time),461451.0,057_y_m_n_a.png,O,space,6923,1,1,2026.3000000044703,459424.69999999553,7111,NNB,C,0
0,test,1,0.0,2-Back,,,Thu Apr 17 2025 16:39:33 GMT-0500 (Central Daylight Time),461451.0,057_y_m_n_a.png,O,space,6923,2,1,2026.3000000044703,459424.69999999553,7111,NNB,C,0
1,test,1,0.0,2-Back,1,m,Thu Apr 17 2025 16:39:33 GMT-0500 (Central Daylight Time),482644.5,130_o_f_n_a.png,O,m,1122,3,1,2145.0,480499.5,7111,NNB,C,1
2,test,1,0.0,2-Back,1,m,Thu Apr 17 2025 16:39:33 GMT-0500 (Central Daylight Time),484410.6000000015,092_m_m_n_a.png,O,m,732,4,1,1762.1000000014901,482648.5,7111,NNB,C,2
3,test,1,1.0,2-Back,1,z,Thu Apr 17 2025 16:39:33 GMT-0500 (Central Daylight Time),487159.69999999553,130_o_f_n_a.png,O,z,1719,5,1,2745.89999999851,484413.799999997,7111,NNB,C,3
4,test,1,0.0,2-Back,1,m,Thu Apr 17 2025 16:39:33 GMT-0500 (Central Daylight Time),489159.1000000015,098_y_f_n_a.png,O,m,977,6,1,1996.2000000029802,487162.8999999985,7111,NNB,C,4
4,test,1,0.0,2-Back,0,m,Thu Apr 17 2025 16:39:33 GMT-0500 (Central Daylight Time),492191.299999997,092_m_m_n_a.png,O,None,2015,7,1,3028.1999999955297,489163.1000000015,7111,NNB,C,5
5,test,1,1.0,2-Back,1,z,Thu Apr 17 2025 16:39:33 GMT-0500 (Central Daylight Time),494290.799999997,098_y_f_n_a.png,O,z,1067,8,1,2095.6999999955297,492195.1000000015,7111,NNB,C,6
6,test,1,0.0,2-Back,1,m,Thu Apr 17 2025 16:39:33 GMT-0500 (Central Daylight Time),497056.5,031_y_m_n_a.png,O,m,1734,9,1,2762.60000000149,494293.8999999985,7111,NNB,C,7
7,test,1,0.0,2-Back,1,m,Thu Apr 17 2025 16:39:33 GMT-0500 (Central Daylight Time),498889.3999999985,030_o_f_n_a.png,O,m,801,10,1,1829.0,497060.3999999985,7111,NNB,C,8
8,test,1,1.0,2-Back,1,z,Thu Apr 17 2025 16:39:33 GMT-0500 (Central Daylight Time),501005.19999999553,031_y_m_n_a.png,O,z,1096,11,1,2111.5,498893.69999999553,7111,NNB,C,9
8,test,1,0.0,2-Back,0,m,Thu Apr 17 2025 16:39:33 GMT-0500 (Central Daylight Time),504037.799999997,006_m_f_n_a.png,O,None,2016,12,1,3028.39999999851,501009.3999999985,7111,NNB,C,10
9,test,1,0.0,2-Back,1,m,Thu Apr 17 2025 16:39:33 GMT-0500 (Central Daylight Time),506670.299999997,006_m_f_n_a.png,O,m,1612,13,1,2627.60000000149,504042.69999999553,7111,NNB,C,11
10,test,1,0.0,2-Back,1,m,Thu Apr 17 2025 16:39:33 GMT-0500 (Central Daylight Time),509202.799999997,146_o_m_n_a.png,O,m,1507,14,1,2529.5,506673.299999997,7111,NNB,C,12
11,test,1,0.0,2-Back,1,m,Thu Apr 17 2025 16:39:33 GMT-0500 (Central Daylight Time),510952.3999999985,030_o_f_n_a.png,O,m,718,15,1,1746.5,509205.8999999985,7111,NNB,C,13
12,test,1,1.0,2-Back,1,z,Thu Apr 17 2025 16:39:33 GMT-0500 (Central Daylight Time),513151.3999999985,146_o_m_n_a.png,O,z,1169,16,1,2196.0,510955.3999999985,7111,NNB,C,14
13,test,1,0.0,2-Back,1,m,Thu Apr 17 2025 16:39:33 GMT-0500 (Central Daylight Time),515317.6000000015,093_m_f_n_a.png,O,m,1146,17,1,2162.5,513155.1000000015,7111,NNB,C,15
14,test,1,0.0,2-Back,1,m,Thu Apr 17 2025 16:39:33 GMT-0500 (Central Daylight Time),517233.799999997,082_m_m_n_a.png,O,m,884,18,1,1912.2999999970198,515321.5,7111,NNB,C,16
0,test,2,0.0,2-Back,,,Thu Apr 17 2025 16:39:33 GMT-0500 (Central Daylight Time),517233.799999997,082_m_m_n_a.png,O,space,2056,1,1,1912.2999999970198,515321.5,7111,NNB,C,0
0,test,2,0.0,2-Back,,,Thu Apr 17 2025 16:39:33 GMT-0500 (Central Daylight Time),517233.799999997,028_y_f_n_a.png,O,space,2056,2,1,1912.2999999970198,515321.5,7111,NNB,C,0
1,test,2,1.0,2-Back,1,z,Thu Apr 17 2025 16:39:33 GMT-0500 (Central Daylight Time),526630.799999997,082_m_m_n_a.png,O,z,1161,3,1,2178.2999999970198,524452.5,7111,NNB,C,1
2,test,2,0.0,2-Back,1,m,Thu Apr 17 2025 16:39:33 GMT-0500 (Central Daylight Time),528413.5,093_m_f_n_a.png,O,m,762,4,1,1779.3000000044703,526634.1999999955,7111,NNB,C,2
3,test,2,0.0,2-Back,1,m,Thu Apr 17 2025 16:39:33 GMT-0500 (Central Daylight Time),531162.6999999955,028_y_f_n_a.png,O,m,1696,5,1,2746.0,528416.6999999955,7111,NNB,C,3
4,test,2,0.0,2-Back,1,m,Thu Apr 17 2025 16:39:33 GMT-0500 (Central Daylight Time),533311.8999999985,146_o_m_n_a.png,O,m,1119,6,1,2145.39999999851,531166.5,7111,NNB,C,4
5,test,2,0.0,2-Back,1,m,Thu Apr 17 2025 16:39:33 GMT-0500 (Central Daylight Time),536194.799999997,098_y_f_n_a.png,O,m,1867,7,1,2878.89999999851,533315.8999999985,7111,NNB,C,5
5,test,2,1.0,2-Back,0,z,Thu Apr 17 2025 16:39:33 GMT-0500 (Central Daylight Time),538410.299999997,146_o_m_n_a.png,O,m,1191,8,1,2211.39999999851,536198.8999999985,7111,NNB,C,6
6,test,2,0.0,2-Back,1,m,Thu Apr 17 2025 16:39:33 GMT-0500 (Central Daylight Time),540343.1000000015,031_y_m_n_a.png,O,m,911,9,1,1928.8000000044703,538414.299999997,7111,NNB,C,7
6,test,2,0.0,2-Back,0,m,Thu Apr 17 2025 16:39:33 GMT-0500 (Central Daylight Time),543375.5,031_y_m_n_a.png,O,None,2015,10,1,3028.5,540347.0,7111,NNB,C,8
7,test,2,0.0,2-Back,1,m,Thu Apr 17 2025 16:39:33 GMT-0500 (Central Daylight Time),545524.6999999955,006_m_f_n_a.png,O,m,1122,11,1,2145.5,543379.1999999955,7111,NNB,C,9
8,test,2,0.0,2-Back,1,m,Thu Apr 17 2025 16:39:33 GMT-0500 (Central Daylight Time),547624.1000000015,028_y_f_n_a.png,O,m,1076,12,1,2096.3000000044703,545527.799999997,7111,NNB,C,10
8,test,2,1.0,2-Back,0,z,Thu Apr 17 2025 16:39:33 GMT-0500 (Central Daylight Time),550106.6999999955,006_m_f_n_a.png,O,m,1457,13,1,2479.0,547627.6999999955,7111,NNB,C,11
9,test,2,0.0,2-Back,1,m,Thu Apr 17 2025 16:39:33 GMT-0500 (Central Daylight Time),552039.3999999985,059_o_m_n_a.png,O,m,910,14,1,1929.7000000029802,550109.6999999955,7111,NNB,C,12
10,test,2,0.0,2-Back,1,m,Thu Apr 17 2025 16:39:33 GMT-0500 (Central Daylight Time),554921.6999999955,059_o_m_n_a.png,O,m,1858,15,1,2878.5,552043.1999999955,7111,NNB,C,13
11,test,2,0.0,2-Back,1,m,Thu Apr 17 2025 16:39:33 GMT-0500 (Central Daylight Time),556971.0,030_o_f_n_a.png,O,m,1030,16,1,2045.1000000014901,554925.8999999985,7111,NNB,C,14
12,test,2,0.0,2-Back,1,m,Thu Apr 17 2025 16:39:33 GMT-0500 (Central Daylight Time),558837.299999997,092_m_m_n_a.png,O,m,846,17,1,1863.1999999955297,556974.1000000015,7111,NNB,C,15
13,test,2,1.0,2-Back,1,z,Thu Apr 17 2025 16:39:33 GMT-0500 (Central Daylight Time),561003.3999999985,030_o_f_n_a.png,O,z,1140,18,1,2162.2000000029802,558841.1999999955,7111,NNB,C,16
0,test,3,1.0,2-Back,,,Thu Apr 17 2025 16:39:33 GMT-0500 (Central Daylight Time),561003.3999999985,057_y_m_n_a.png,O,space,1358,1,1,2162.2000000029802,558841.1999999955,7111,NNB,C,0
0,test,3,1.0,2-Back,,,Thu Apr 17 2025 16:39:33 GMT-0500 (Central Daylight Time),561003.3999999985,057_y_m_n_a.png,O,space,1358,2,1,2162.2000000029802,558841.1999999955,7111,NNB,C,0
1,test,3,0.0,2-Back,1,m,Thu Apr 17 2025 16:39:33 GMT-0500 (Central Daylight Time),569700.1999999955,030_o_f_n_a.png,O,m,1165,3,1,2179.0999999940395,567521.1000000015,7111,NNB,C,1
2,test,3,0.0,2-Back,1,m,Thu Apr 17 2025 16:39:33 GMT-0500 (Central Daylight Time),571800.0,082_m_m_n_a.png,O,m,1069,4,1,2096.2000000029802,569703.799999997,7111,NNB,C,2
3,test,3,1.0,2-Back,1,z,Thu Apr 17 2025 16:39:33 GMT-0500 (Central Daylight Time),573599.3999999985,030_o_f_n_a.png,O,z,769,5,1,1796.3999999985099,571803.0,7111,NNB,C,3
4,test,3,0.0,2-Back,1,m,Thu Apr 17 2025 16:39:33 GMT-0500 (Central Daylight Time),575898.6000000015,031_y_m_n_a.png,O,m,1275,6,1,2295.8000000044703,573602.799999997,7111,NNB,C,4
5,test,3,0.0,2-Back,1,m,Thu Apr 17 2025 16:39:33 GMT-0500 (Central Daylight Time),578265.5,082_m_m_n_a.png,O,m,1334,7,1,2363.2000000029802,575902.299999997,7111,NNB,C,5
6,test,3,1.0,2-Back,1,z,Thu Apr 17 2025 16:39:33 GMT-0500 (Central Daylight Time),580530.3999999985,031_y_m_n_a.png,O,z,1241,8,1,2260.7000000029802,578269.6999999955,7111,NNB,C,6
7,test,3,0.0,2-Back,1,m,Thu Apr 17 2025 16:39:33 GMT-0500 (Central Daylight Time),582879.6000000015,028_y_f_n_a.png,O,m,1328,9,1,2344.5,580535.1000000015,7111,NNB,C,7
8,test,3,0.0,2-Back,1,m,Thu Apr 17 2025 16:39:33 GMT-0500 (Central Daylight Time),584995.3999999985,092_m_m_n_a.png,O,m,1099,10,1,2111.89999999851,582883.5,7111,NNB,C,8
9,test,3,1.0,2-Back,1,z,Thu Apr 17 2025 16:39:33 GMT-0500 (Central Daylight Time),587145.1999999955,028_y_f_n_a.png,O,z,1125,11,1,2146.6999999955297,584998.5,7111,NNB,C,9
10,test,3,1.0,2-Back,1,z,Thu Apr 17 2025 16:39:33 GMT-0500 (Central Daylight Time),589810.6999999955,092_m_m_n_a.png,O,z,1640,12,1,2661.39999999851,587149.299999997,7111,NNB,C,10
11,test,3,0.0,2-Back,1,m,Thu Apr 17 2025 16:39:33 GMT-0500 (Central Daylight Time),591776.8999999985,030_o_f_n_a.png,O,m,934,13,1,1962.7000000029802,589814.1999999955,7111,NNB,C,11
12,test,3,0.0,2-Back,1,m,Thu Apr 17 2025 16:39:33 GMT-0500 (Central Daylight Time),593609.6000000015,093_m_f_n_a.png,O,m,808,14,1,1828.8000000044703,591780.799999997,7111,NNB,C,12
13,test,3,0.0,2-Back,1,m,Thu Apr 17 2025 16:39:33 GMT-0500 (Central Daylight Time),595759.0,146_o_m_n_a.png,O,m,1128,15,1,2145.8000000044703,593613.1999999955,7111,NNB,C,13
14,test,3,1.0,2-Back,1,z,Thu Apr 17 2025 16:39:33 GMT-0500 (Central Daylight Time),597791.6999999955,093_m_f_n_a.png,O,z,1011,16,1,2028.8999999985099,595762.799999997,7111,NNB,C,14
15,test,3,0.0,2-Back,1,m,Thu Apr 17 2025 16:39:33 GMT-0500 (Central Daylight Time),599624.6000000015,130_o_f_n_a.png,O,m,809,17,1,1829.3000000044703,597795.299999997,7111,NNB,C,15
16,test,3,0.0,2-Back,1,m,Thu Apr 17 2025 16:39:33 GMT-0500 (Central Daylight Time),602506.799999997,130_o_f_n_a.png,O,m,1849,18,1,2877.7999999970198,599629.0,7111,NNB,C,16
0,test,4,0.0,2-Back,,,Thu Apr 17 2025 16:39:33 GMT-0500 (Central Daylight Time),602506.799999997,059_o_m_n_a.png,O,space,1166,1,1,2877.7999999970198,599629.0,7111,NNB,C,0
0,test,4,0.0,2-Back,,,Thu Apr 17 2025 16:39:33 GMT-0500 (Central Daylight Time),602506.799999997,098_y_f_n_a.png,O,space,1166,2,1,2877.7999999970198,599629.0,7111,NNB,C,0
1,test,4,1.0,2-Back,1,z,Thu Apr 17 2025 16:39:33 GMT-0500 (Central Daylight Time),611687.5,059_o_m_n_a.png,O,z,1736,3,1,2762.10000000149,608925.3999999985,7111,NNB,C,1
2,test,4,1.0,2-Back,1,z,Thu Apr 17 2025 16:39:33 GMT-0500 (Central Daylight Time),613603.299999997,098_y_f_n_a.png,O,z,898,4,1,1911.8999999985099,611691.3999999985,7111,NNB,C,2
3,test,4,0.0,2-Back,1,m,Thu Apr 17 2025 16:39:33 GMT-0500 (Central Daylight Time),615536.0,030_o_f_n_a.png,O,m,910,5,1,1928.8000000044703,613607.1999999955,7111,NNB,C,3
3,test,4,0.0,2-Back,0,m,Thu Apr 17 2025 16:39:33 GMT-0500 (Central Daylight Time),618569.1000000015,030_o_f_n_a.png,O,None,2016,6,1,3030.10000000149,615539.0,7111,NNB,C,4
4,test,4,0.0,2-Back,1,m,Thu Apr 17 2025 16:39:33 GMT-0500 (Central Daylight Time),620551.3999999985,006_m_f_n_a.png,O,m,953,7,1,1978.6000000014901,618572.799999997,7111,NNB,C,5
5,test,4,0.0,2-Back,1,m,Thu Apr 17 2025 16:39:33 GMT-0500 (Central Daylight Time),622468.3999999985,031_y_m_n_a.png,O,m,890,8,1,1913.8999999985099,620554.5,7111,NNB,C,6
5,test,4,1.0,2-Back,0,z,Thu Apr 17 2025 16:39:33 GMT-0500 (Central Daylight Time),625033.3999999985,006_m_f_n_a.png,O,m,1531,9,1,2561.10000000149,622472.299999997,7111,NNB,C,7
6,test,4,0.0,2-Back,1,m,Thu Apr 17 2025 16:39:33 GMT-0500 (Central Daylight Time),626865.8999999985,092_m_m_n_a.png,O,m,808,10,1,1829.1000000014901,625036.799999997,7111,NNB,C,8
6,test,4,0.0,2-Back,0,m,Thu Apr 17 2025 16:39:33 GMT-0500 (Central Daylight Time),629898.5,031_y_m_n_a.png,O,None,2015,11,1,3028.8000000044703,626869.6999999955,7111,NNB,C,9
7,test,4,0.0,2-Back,1,m,Thu Apr 17 2025 16:39:33 GMT-0500 (Central Daylight Time),631914.3999999985,130_o_f_n_a.png,O,m,984,12,1,2012.2999999970198,629902.1000000015,7111,NNB,C,10
8,test,4,0.0,2-Back,1,m,Thu Apr 17 2025 16:39:33 GMT-0500 (Central Daylight Time),633797.1999999955,057_y_m_n_a.png,O,m,864,13,1,1879.3999999985099,631917.799999997,7111,NNB,C,11
9,test,4,1.0,2-Back,1,z,Thu Apr 17 2025 16:39:33 GMT-0500 (Central Daylight Time),636213.1000000015,130_o_f_n_a.png,O,z,1396,14,1,2412.3000000044703,633800.799999997,7111,NNB,C,12
10,test,4,1.0,2-Back,1,z,Thu Apr 17 2025 16:39:33 GMT-0500 (Central Daylight Time),638545.6000000015,057_y_m_n_a.png,O,z,1300,15,1,2329.0,636216.6000000015,7111,NNB,C,13
11,test,4,0.0,2-Back,1,m,Thu Apr 17 2025 16:39:33 GMT-0500 (Central Daylight Time),640445.0,082_m_m_n_a.png,O,m,879,16,1,1896.0,638549.0,7111,NNB,C,14
12,test,4,0.0,2-Back,1,m,Thu Apr 17 2025 16:39:33 GMT-0500 (Central Daylight Time),642244.3999999985,093_m_f_n_a.png,O,m,773,17,1,1796.1000000014901,640448.299999997,7111,NNB,C,15
13,test,4,1.0,2-Back,1,z,Thu Apr 17 2025 16:39:33 GMT-0500 (Central Daylight Time),644526.8999999985,082_m_m_n_a.png,O,z,1251,18,1,2278.39999999851,642248.5,7111,NNB,C,16
0,test,5,1.0,2-Back,,,Thu Apr 17 2025 16:39:33 GMT-0500 (Central Daylight Time),644526.8999999985,057_y_m_n_a.png,O,space,1290,1,1,2278.39999999851,642248.5,7111,NNB,C,0
0,test,5,1.0,2-Back,,,Thu Apr 17 2025 16:39:33 GMT-0500 (Central Daylight Time),644526.8999999985,093_m_f_n_a.png,O,space,1290,2,1,2278.39999999851,642248.5,7111,NNB,C,0
1,test,5,1.0,2-Back,1,z,Thu Apr 17 2025 16:39:33 GMT-0500 (Central Daylight Time),652874.3999999985,057_y_m_n_a.png,O,z,974,3,1,1995.3999999985099,650879.0,7111,NNB,C,1
2,test,5,1.0,2-Back,1,z,Thu Apr 17 2025 16:39:33 GMT-0500 (Central Daylight Time),654790.6000000015,093_m_f_n_a.png,O,z,887,4,1,1913.1000000014901,652877.5,7111,NNB,C,2
3,test,5,0.0,2-Back,1,m,Thu Apr 17 2025 16:39:33 GMT-0500 (Central Daylight Time),657106.6999999955,130_o_f_n_a.png,O,m,1291,5,1,2312.2999999970198,654794.3999999985,7111,NNB,C,3
4,test,5,0.0,2-Back,1,m,Thu Apr 17 2025 16:39:33 GMT-0500 (Central Daylight Time),659938.8999999985,057_y_m_n_a.png,O,m,1799,6,1,2828.89999999851,657110.0,7111,NNB,C,4
5,test,5,0.0,2-Back,1,m,Thu Apr 17 2025 16:39:33 GMT-0500 (Central Daylight Time),661921.6000000015,028_y_f_n_a.png,O,m,958,7,1,1978.8000000044703,659942.799999997,7111,NNB,C,5
6,test,5,0.0,2-Back,1,m,Thu Apr 17 2025 16:39:33 GMT-0500 (Central Daylight Time),664420.799999997,130_o_f_n_a.png,O,m,1480,8,1,2495.5,661925.299999997,7111,NNB,C,6
6,test,5,1.0,2-Back,0,z,Thu Apr 17 2025 16:39:33 GMT-0500 (Central Daylight Time),667419.8999999985,028_y_f_n_a.png,O,m,1980,9,1,2995.10000000149,664424.799999997,7111,NNB,C,7
7,test,5,0.0,2-Back,1,m,Thu Apr 17 2025 16:39:33 GMT-0500 (Central Daylight Time),669219.3999999985,146_o_m_n_a.png,O,m,766,10,1,1795.6000000014901,667423.799999997,7111,NNB,C,8
8,test,5,0.0,2-Back,1,m,Thu Apr 17 2025 16:39:33 GMT-0500 (Central Daylight Time),671135.3999999985,006_m_f_n_a.png,O,m,894,11,1,1912.6000000014901,669222.799999997,7111,NNB,C,9
8,test,5,0.0,2-Back,0,m,Thu Apr 17 2025 16:39:33 GMT-0500 (Central Daylight Time),673384.3999999985,092_m_m_n_a.png,O,z,1225,12,1,2245.10000000149,671139.299999997,7111,NNB,C,10
8,test,5,0.0,2-Back,0,m,Thu Apr 17 2025 16:39:33 GMT-0500 (Central Daylight Time),675867.299999997,146_o_m_n_a.png,O,z,1457,13,1,2478.7999999970198,673388.5,7111,NNB,C,11
8,test,5,1.0,2-Back,0,z,Thu Apr 17 2025 16:39:33 GMT-0500 (Central Daylight Time),677949.8999999985,092_m_m_n_a.png,O,m,1054,14,1,2079.2999999970198,675870.6000000015,7111,NNB,C,12
9,test,5,0.0,2-Back,1,m,Thu Apr 17 2025 16:39:33 GMT-0500 (Central Daylight Time),680066.0,098_y_f_n_a.png,O,m,1083,15,1,2112.5,677953.5,7111,NNB,C,13
10,test,5,0.0,2-Back,1,m,Thu Apr 17 2025 16:39:33 GMT-0500 (Central Daylight Time),681848.6999999955,059_o_m_n_a.png,O,m,751,16,1,1779.2999999970198,680069.3999999985,7111,NNB,C,14
11,test,5,0.0,2-Back,1,m,Thu Apr 17 2025 16:39:33 GMT-0500 (Central Daylight Time),683964.6000000015,006_m_f_n_a.png,O,m,1089,17,1,2112.5,681852.1000000015,7111,NNB,C,15
11,test,5,1.0,2-Back,0,z,Thu Apr 17 2025 16:39:33 GMT-0500 (Central Daylight Time),686997.1999999955,059_o_m_n_a.png,O,None,2016,18,1,3028.7999999970198,683968.3999999985,7111,NNB,C,16
