acc_sum,block,block_c,change,condition,correct,correct_response,datetime,endtime,face,project,response,response_time,row_sel,session_number,start_end,starttime,subject_id,task,task_vers,trial
0,prac,1,,1-Back,,,Fri Oct 04 2024 09:32:17 GMT-0500 (Central Daylight Time),,124_o_f_d_a.png,I,space,10467,1,1,,,8003,VNB,A,0
1,prac,1,0.0,1-Back,1,m,Fri Oct 04 2024 09:32:17 GMT-0500 (Central Daylight Time),138739.3999999985,071_y_f_n_a.png,I,m,900,2,1,1703.7999999970198,137035.6000000015,8003,VNB,A,1
2,prac,1,0.0,1-Back,1,m,Fri Oct 04 2024 09:32:17 GMT-0500 (Central Daylight Time),140322.6000000015,165_m_m_h_a.png,I,m,778,3,1,1574.5,138748.1000000015,8003,VNB,A,2
3,prac,1,0.0,1-Back,1,m,Fri Oct 04 2024 09:32:17 GMT-0500 (Central Daylight Time),141772.29999999702,109_y_m_d_a.png,I,m,634,4,1,1441.5,140330.79999999702,8003,VNB,A,3
4,prac,1,0.0,1-Back,1,m,Fri Oct 04 2024 09:32:17 GMT-0500 (Central Daylight Time),143405.0,124_o_f_n_a.png,I,m,790,5,1,1625.0,141780.0,8003,VNB,A,4
4,prac,1,1.0,1-Back,0,z,Fri Oct 04 2024 09:32:17 GMT-0500 (Central Daylight Time),145254.5,109_y_m_n_a.png,I,m,1039,6,1,1842.0,143412.5,8003,VNB,A,5
5,prac,1,0.0,1-Back,1,m,Fri Oct 04 2024 09:32:17 GMT-0500 (Central Daylight Time),146987.1000000015,039_o_m_h_a.png,I,m,923,7,1,1724.4000000059605,145262.69999999553,8003,VNB,A,6
6,prac,1,0.0,1-Back,1,m,Fri Oct 04 2024 09:32:17 GMT-0500 (Central Daylight Time),148536.6000000015,139_m_f_d_a.png,I,m,734,8,1,1542.0,146994.6000000015,8003,VNB,A,7
6,prac,1,1.0,1-Back,0,z,Fri Oct 04 2024 09:32:17 GMT-0500 (Central Daylight Time),150369.0,071_y_f_d_a.png,I,m,1018,9,1,1824.3000000044703,148544.69999999553,8003,VNB,A,8
7,prac,1,0.0,1-Back,1,m,Fri Oct 04 2024 09:32:17 GMT-0500 (Central Daylight Time),152620.0,165_m_m_n_a.png,I,m,1441,10,1,2240.89999999851,150379.1000000015,8003,VNB,A,9
8,prac,1,0.0,1-Back,1,m,Fri Oct 04 2024 09:32:17 GMT-0500 (Central Daylight Time),154301.5,124_o_f_h_a.png,I,m,852,11,1,1673.6000000014901,152627.8999999985,8003,VNB,A,10
9,prac,1,0.0,1-Back,1,m,Fri Oct 04 2024 09:32:17 GMT-0500 (Central Daylight Time),155867.79999999702,109_y_m_d_a.png,I,m,789,12,1,1558.5,154309.29999999702,8003,VNB,A,11
0,test,1,0.0,1-Back,,,Fri Oct 04 2024 09:32:17 GMT-0500 (Central Daylight Time),155867.79999999702,071_y_f_d_a.png,I,space,11548,1,1,1558.5,154309.29999999702,8003,VNB,A,0
1,test,1,0.0,1-Back,1,m,Fri Oct 04 2024 09:32:17 GMT-0500 (Central Daylight Time),180659.8999999985,139_m_f_n_a.png,I,m,1040,2,1,2058.2999999970198,178601.6000000015,8003,VNB,A,1
2,test,1,0.0,1-Back,1,m,Fri Oct 04 2024 09:32:17 GMT-0500 (Central Daylight Time),182376.29999999702,039_o_m_h_a.png,I,m,686,3,1,1709.6999999955297,180666.6000000015,8003,VNB,A,2
3,test,1,1.0,1-Back,1,z,Fri Oct 04 2024 09:32:17 GMT-0500 (Central Daylight Time),183956.1000000015,165_m_m_h_a.png,I,z,562,4,1,1572.7000000029802,182383.3999999985,8003,VNB,A,3
4,test,1,0.0,1-Back,1,m,Fri Oct 04 2024 09:32:17 GMT-0500 (Central Daylight Time),185558.19999999553,124_o_f_n_a.png,I,m,572,5,1,1594.1999999955297,183964.0,8003,VNB,A,4
5,test,1,0.0,1-Back,1,m,Fri Oct 04 2024 09:32:17 GMT-0500 (Central Daylight Time),187291.0,109_y_m_d_a.png,I,m,708,6,1,1725.8999999985099,185565.1000000015,8003,VNB,A,5
5,test,1,1.0,1-Back,0,z,Fri Oct 04 2024 09:32:17 GMT-0500 (Central Daylight Time),188990.69999999553,139_m_f_d_a.png,I,m,679,7,1,1693.0,187297.69999999553,8003,VNB,A,6
5,test,1,0.0,1-Back,0,m,Fri Oct 04 2024 09:32:17 GMT-0500 (Central Daylight Time),190573.5,071_y_f_h_a.png,I,z,564,8,1,1575.8000000044703,188997.69999999553,8003,VNB,A,7
6,test,1,0.0,1-Back,1,m,Fri Oct 04 2024 09:32:17 GMT-0500 (Central Daylight Time),192223.0,039_o_m_n_a.png,I,m,621,9,1,1642.6000000014901,190580.3999999985,8003,VNB,A,8
7,test,1,0.0,1-Back,1,m,Fri Oct 04 2024 09:32:17 GMT-0500 (Central Daylight Time),194005.69999999553,109_y_m_h_a.png,I,m,764,10,1,1775.8999999985099,192229.79999999702,8003,VNB,A,9
8,test,1,0.0,1-Back,1,m,Fri Oct 04 2024 09:32:17 GMT-0500 (Central Daylight Time),195555.5,039_o_m_d_a.png,I,m,524,11,1,1542.5,194013.0,8003,VNB,A,10
9,test,1,1.0,1-Back,1,z,Fri Oct 04 2024 09:32:17 GMT-0500 (Central Daylight Time),197421.29999999702,124_o_f_d_a.png,I,z,839,12,1,1859.1999999955297,195562.1000000015,8003,VNB,A,11
10,test,1,0.0,1-Back,1,m,Fri Oct 04 2024 09:32:17 GMT-0500 (Central Daylight Time),198954.3999999985,165_m_m_n_a.png,I,m,501,13,1,1525.6000000014901,197428.79999999702,8003,VNB,A,12
11,test,1,1.0,1-Back,1,z,Fri Oct 04 2024 09:32:17 GMT-0500 (Central Daylight Time),201053.3999999985,071_y_f_n_a.png,I,z,1080,14,1,2091.89999999851,198961.5,8003,VNB,A,13
12,test,1,0.0,1-Back,1,m,Fri Oct 04 2024 09:32:17 GMT-0500 (Central Daylight Time),203036.0,139_m_f_h_a.png,I,m,965,15,1,1975.2000000029802,201060.79999999702,8003,VNB,A,14
13,test,1,0.0,1-Back,1,m,Fri Oct 04 2024 09:32:17 GMT-0500 (Central Daylight Time),204668.8999999985,165_m_m_d_a.png,I,m,606,16,1,1626.3999999985099,203042.5,8003,VNB,A,15
14,test,1,0.0,1-Back,1,m,Fri Oct 04 2024 09:32:17 GMT-0500 (Central Daylight Time),206685.0,109_y_m_n_a.png,I,m,989,17,1,2009.1000000014901,204675.8999999985,8003,VNB,A,16
14,test,1,0.0,1-Back,0,m,Fri Oct 04 2024 09:32:17 GMT-0500 (Central Daylight Time),208602.19999999553,124_o_f_h_a.png,I,z,893,18,1,1910.6999999955297,206691.5,8003,VNB,A,17
0,test,2,0.0,1-Back,,,Fri Oct 04 2024 09:32:17 GMT-0500 (Central Daylight Time),208602.19999999553,109_y_m_n_a.png,I,space,4960,1,1,1910.6999999955297,206691.5,8003,VNB,A,0
1,test,2,0.0,1-Back,1,m,Fri Oct 04 2024 09:32:17 GMT-0500 (Central Daylight Time),217415.19999999553,071_y_f_h_a.png,I,m,812,2,1,1826.1999999955297,215589.0,8003,VNB,A,1
2,test,2,1.0,1-Back,1,m,Fri Oct 04 2024 09:32:17 GMT-0500 (Central Daylight Time),219014.5,039_o_m_n_a.png,I,m,571,3,1,1592.8000000044703,217421.69999999553,8003,VNB,A,2
2,test,2,0.0,1-Back,0,m,Fri Oct 04 2024 09:32:17 GMT-0500 (Central Daylight Time),220780.5,139_m_f_d_a.png,I,z,748,4,1,1759.0,219021.5,8003,VNB,A,3
3,test,2,0.0,1-Back,1,z,Fri Oct 04 2024 09:32:17 GMT-0500 (Central Daylight Time),222563.69999999553,165_m_m_d_a.png,I,z,750,5,1,1776.1999999955297,220787.5,8003,VNB,A,4
4,test,2,0.0,1-Back,1,m,Fri Oct 04 2024 09:32:17 GMT-0500 (Central Daylight Time),224213.0,109_y_m_h_a.png,I,m,631,6,1,1642.0,222571.0,8003,VNB,A,5
5,test,2,1.0,1-Back,1,z,Fri Oct 04 2024 09:32:17 GMT-0500 (Central Daylight Time),225862.3999999985,124_o_f_h_a.png,I,z,622,7,1,1642.7999999970198,224219.6000000015,8003,VNB,A,6
6,test,2,0.0,1-Back,1,m,Fri Oct 04 2024 09:32:17 GMT-0500 (Central Daylight Time),227478.5,139_m_f_n_a.png,I,m,588,8,1,1610.1000000014901,225868.3999999985,8003,VNB,A,7
7,test,2,0.0,1-Back,1,m,Fri Oct 04 2024 09:32:17 GMT-0500 (Central Daylight Time),229278.29999999702,071_y_f_d_a.png,I,m,772,9,1,1792.8999999985099,227485.3999999985,8003,VNB,A,8
8,test,2,0.0,1-Back,1,m,Fri Oct 04 2024 09:32:17 GMT-0500 (Central Daylight Time),231221.6000000015,165_m_m_n_a.png,I,m,927,10,1,1936.0,229285.6000000015,8003,VNB,A,9
9,test,2,1.0,1-Back,1,m,Fri Oct 04 2024 09:32:17 GMT-0500 (Central Daylight Time),233110.19999999553,139_m_f_h_a.png,I,m,855,11,1,1878.6999999955297,231231.5,8003,VNB,A,10
10,test,2,0.0,1-Back,1,z,Fri Oct 04 2024 09:32:17 GMT-0500 (Central Daylight Time),234559.8999999985,039_o_m_h_a.png,I,z,428,12,1,1442.7999999970198,233117.1000000015,8003,VNB,A,11
11,test,2,0.0,1-Back,1,m,Fri Oct 04 2024 09:32:17 GMT-0500 (Central Daylight Time),236092.6000000015,109_y_m_d_a.png,I,m,506,13,1,1525.2000000029802,234567.3999999985,8003,VNB,A,12
11,test,2,0.0,1-Back,0,m,Fri Oct 04 2024 09:32:17 GMT-0500 (Central Daylight Time),237975.3999999985,124_o_f_n_a.png,I,z,862,14,1,1875.3999999985099,236100.0,8003,VNB,A,13
12,test,2,0.0,1-Back,1,z,Fri Oct 04 2024 09:32:17 GMT-0500 (Central Daylight Time),239608.0,071_y_f_n_a.png,I,z,602,15,1,1624.8999999985099,237983.1000000015,8003,VNB,A,14
13,test,2,1.0,1-Back,1,m,Fri Oct 04 2024 09:32:17 GMT-0500 (Central Daylight Time),241307.6000000015,165_m_m_h_a.png,I,m,667,16,1,1692.5,239615.1000000015,8003,VNB,A,15
14,test,2,0.0,1-Back,1,m,Fri Oct 04 2024 09:32:17 GMT-0500 (Central Daylight Time),242907.29999999702,124_o_f_d_a.png,I,m,575,17,1,1592.1999999955297,241315.1000000015,8003,VNB,A,16
15,test,2,1.0,1-Back,1,z,Fri Oct 04 2024 09:32:17 GMT-0500 (Central Daylight Time),244739.6000000015,039_o_m_d_a.png,I,z,807,18,1,1825.4000000059605,242914.19999999553,8003,VNB,A,17
0,test,3,1.0,1-Back,,,Fri Oct 04 2024 09:32:17 GMT-0500 (Central Daylight Time),244739.6000000015,124_o_f_h_a.png,I,space,3271,1,1,1825.4000000059605,242914.19999999553,8003,VNB,A,0
0,test,3,0.0,1-Back,0,m,Fri Oct 04 2024 09:32:17 GMT-0500 (Central Daylight Time),251705.69999999553,139_m_f_d_a.png,I,z,611,2,1,1627.3999999985099,250078.29999999702,8003,VNB,A,1
0,test,3,1.0,1-Back,0,m,Fri Oct 04 2024 09:32:17 GMT-0500 (Central Daylight Time),253487.19999999553,165_m_m_n_a.png,I,z,754,3,1,1774.1999999955297,251713.0,8003,VNB,A,2
1,test,3,0.0,1-Back,1,z,Fri Oct 04 2024 09:32:17 GMT-0500 (Central Daylight Time),255319.79999999702,124_o_f_n_a.png,I,z,739,4,1,1824.8999999985099,253494.8999999985,8003,VNB,A,3
2,test,3,1.0,1-Back,1,m,Fri Oct 04 2024 09:32:17 GMT-0500 (Central Daylight Time),257219.29999999702,039_o_m_d_a.png,I,m,882,5,1,1891.8999999985099,255327.3999999985,8003,VNB,A,4
3,test,3,0.0,1-Back,1,m,Fri Oct 04 2024 09:32:17 GMT-0500 (Central Daylight Time),258985.29999999702,071_y_f_h_a.png,I,m,743,6,1,1758.8999999985099,257226.3999999985,8003,VNB,A,5
4,test,3,0.0,1-Back,1,z,Fri Oct 04 2024 09:32:17 GMT-0500 (Central Daylight Time),260601.5,109_y_m_h_a.png,I,z,593,7,1,1609.8000000044703,258991.69999999553,8003,VNB,A,6
5,test,3,0.0,1-Back,1,m,Fri Oct 04 2024 09:32:17 GMT-0500 (Central Daylight Time),262102.19999999553,139_m_f_n_a.png,I,m,481,8,1,1494.2999999970198,260607.8999999985,8003,VNB,A,7
6,test,3,0.0,1-Back,1,m,Fri Oct 04 2024 09:32:17 GMT-0500 (Central Daylight Time),263734.0,071_y_f_d_a.png,I,m,613,9,1,1624.1000000014901,262109.8999999985,8003,VNB,A,8
6,test,3,1.0,1-Back,0,m,Fri Oct 04 2024 09:32:17 GMT-0500 (Central Daylight Time),265384.6000000015,039_o_m_n_a.png,I,z,628,10,1,1643.6000000014901,263741.0,8003,VNB,A,9
7,test,3,0.0,1-Back,1,m,Fri Oct 04 2024 09:32:17 GMT-0500 (Central Daylight Time),267316.299999997,165_m_m_h_a.png,I,m,907,11,1,1923.2999999970198,265393.0,8003,VNB,A,10
7,test,3,0.0,1-Back,0,z,Fri Oct 04 2024 09:32:17 GMT-0500 (Central Daylight Time),268948.8999999985,139_m_f_h_a.png,I,m,614,12,1,1626.1000000014901,267322.799999997,8003,VNB,A,11
8,test,3,1.0,1-Back,1,m,Fri Oct 04 2024 09:32:17 GMT-0500 (Central Daylight Time),270666.3999999985,124_o_f_d_a.png,I,m,693,13,1,1711.3999999985099,268955.0,8003,VNB,A,12
9,test,3,0.0,1-Back,1,z,Fri Oct 04 2024 09:32:17 GMT-0500 (Central Daylight Time),272747.69999999553,165_m_m_d_a.png,I,z,1057,14,1,2074.5999999940395,270673.1000000015,8003,VNB,A,13
10,test,3,0.0,1-Back,1,m,Fri Oct 04 2024 09:32:17 GMT-0500 (Central Daylight Time),274780.19999999553,109_y_m_n_a.png,I,m,1014,15,1,2024.8999999985099,272755.299999997,8003,VNB,A,14
11,test,3,1.0,1-Back,1,m,Fri Oct 04 2024 09:32:17 GMT-0500 (Central Daylight Time),276713.0,039_o_m_h_a.png,I,m,902,16,1,1926.1000000014901,274786.8999999985,8003,VNB,A,15
12,test,3,0.0,1-Back,1,m,Fri Oct 04 2024 09:32:17 GMT-0500 (Central Daylight Time),278562.5,109_y_m_d_a.png,I,m,817,17,1,1842.3999999985099,276720.1000000015,8003,VNB,A,16
12,test,3,1.0,1-Back,0,m,Fri Oct 04 2024 09:32:17 GMT-0500 (Central Daylight Time),280328.799999997,071_y_f_n_a.png,I,z,744,18,1,1759.3999999985099,278569.3999999985,8003,VNB,A,17
0,test,4,1.0,1-Back,,,Fri Oct 04 2024 09:32:17 GMT-0500 (Central Daylight Time),280328.799999997,165_m_m_d_a.png,I,space,2970,1,1,1759.3999999985099,278569.3999999985,8003,VNB,A,0
1,test,4,0.0,1-Back,1,z,Fri Oct 04 2024 09:32:17 GMT-0500 (Central Daylight Time),286893.1000000015,039_o_m_d_a.png,I,z,547,2,1,1557.8000000044703,285335.299999997,8003,VNB,A,1
2,test,4,0.0,1-Back,1,m,Fri Oct 04 2024 09:32:17 GMT-0500 (Central Daylight Time),288442.799999997,109_y_m_h_a.png,I,m,525,3,1,1542.3999999985099,286900.3999999985,8003,VNB,A,2
3,test,4,0.0,1-Back,1,m,Fri Oct 04 2024 09:32:17 GMT-0500 (Central Daylight Time),290042.3999999985,139_m_f_n_a.png,I,m,568,4,1,1592.3999999985099,288450.0,8003,VNB,A,3
4,test,4,1.0,1-Back,1,m,Fri Oct 04 2024 09:32:17 GMT-0500 (Central Daylight Time),291641.799999997,124_o_f_h_a.png,I,m,576,5,1,1592.3999999985099,290049.3999999985,8003,VNB,A,4
5,test,4,0.0,1-Back,1,m,Fri Oct 04 2024 09:32:17 GMT-0500 (Central Daylight Time),293341.19999999553,165_m_m_n_a.png,I,m,672,6,1,1692.0,291649.19999999553,8003,VNB,A,5
6,test,4,0.0,1-Back,1,m,Fri Oct 04 2024 09:32:17 GMT-0500 (Central Daylight Time),295124.0,109_y_m_d_a.png,I,m,757,7,1,1775.5,293348.5,8003,VNB,A,6
7,test,4,1.0,1-Back,1,z,Fri Oct 04 2024 09:32:17 GMT-0500 (Central Daylight Time),296940.19999999553,071_y_f_d_a.png,I,z,790,8,1,1809.1999999955297,295131.0,8003,VNB,A,7
8,test,4,0.0,1-Back,1,m,Fri Oct 04 2024 09:32:17 GMT-0500 (Central Daylight Time),298539.8999999985,139_m_f_h_a.png,I,m,574,9,1,1592.5,296947.3999999985,8003,VNB,A,8
9,test,4,0.0,1-Back,1,z,Fri Oct 04 2024 09:32:17 GMT-0500 (Central Daylight Time),299989.1000000015,039_o_m_h_a.png,I,z,423,10,1,1441.5,298547.6000000015,8003,VNB,A,9
10,test,4,1.0,1-Back,1,m,Fri Oct 04 2024 09:32:17 GMT-0500 (Central Daylight Time),301799.8999999985,124_o_f_n_a.png,I,m,647,11,1,1803.0,299996.8999999985,8003,VNB,A,10
11,test,4,0.0,1-Back,1,m,Fri Oct 04 2024 09:32:17 GMT-0500 (Central Daylight Time),303805.69999999553,139_m_f_d_a.png,I,m,980,12,1,1996.0,301809.69999999553,8003,VNB,A,11
12,test,4,0.0,1-Back,1,m,Fri Oct 04 2024 09:32:17 GMT-0500 (Central Daylight Time),305687.5,071_y_f_n_a.png,I,m,854,13,1,1874.3000000044703,303813.19999999553,8003,VNB,A,12
13,test,4,0.0,1-Back,1,m,Fri Oct 04 2024 09:32:17 GMT-0500 (Central Daylight Time),307653.5,124_o_f_d_a.png,I,m,947,14,1,1959.3000000044703,305694.19999999553,8003,VNB,A,13
14,test,4,0.0,1-Back,1,m,Fri Oct 04 2024 09:32:17 GMT-0500 (Central Daylight Time),309702.799999997,071_y_f_h_a.png,I,m,1021,15,1,2042.3999999985099,307660.3999999985,8003,VNB,A,14
15,test,4,1.0,1-Back,1,z,Fri Oct 04 2024 09:32:17 GMT-0500 (Central Daylight Time),311369.1000000015,165_m_m_h_a.png,I,z,643,16,1,1659.0,309710.1000000015,8003,VNB,A,15
16,test,4,0.0,1-Back,1,m,Fri Oct 04 2024 09:32:17 GMT-0500 (Central Daylight Time),313034.8999999985,039_o_m_n_a.png,I,m,641,17,1,1659.2999999970198,311375.6000000015,8003,VNB,A,16
16,test,4,1.0,1-Back,0,z,Fri Oct 04 2024 09:32:17 GMT-0500 (Central Daylight Time),314784.3999999985,109_y_m_n_a.png,I,m,719,18,1,1742.2000000029802,313042.19999999553,8003,VNB,A,17
0,test,5,1.0,1-Back,,,Fri Oct 04 2024 09:32:17 GMT-0500 (Central Daylight Time),314784.3999999985,039_o_m_n_a.png,I,space,3786,1,1,1742.2000000029802,313042.19999999553,8003,VNB,A,0
1,test,5,1.0,1-Back,1,m,Fri Oct 04 2024 09:32:17 GMT-0500 (Central Daylight Time),322548.8999999985,124_o_f_h_a.png,I,m,914,2,1,1926.2999999970198,320622.6000000015,8003,VNB,A,1
2,test,5,0.0,1-Back,1,m,Fri Oct 04 2024 09:32:17 GMT-0500 (Central Daylight Time),324314.799999997,109_y_m_d_a.png,I,m,734,3,1,1759.1999999955297,322555.6000000015,8003,VNB,A,2
3,test,5,0.0,1-Back,1,z,Fri Oct 04 2024 09:32:17 GMT-0500 (Central Daylight Time),325897.799999997,039_o_m_d_a.png,I,z,549,4,1,1576.2999999970198,324321.5,8003,VNB,A,3
4,test,5,0.0,1-Back,1,m,Fri Oct 04 2024 09:32:17 GMT-0500 (Central Daylight Time),327380.5,139_m_f_h_a.png,I,m,465,5,1,1475.3000000044703,325905.19999999553,8003,VNB,A,4
5,test,5,0.0,1-Back,1,m,Fri Oct 04 2024 09:32:17 GMT-0500 (Central Daylight Time),328996.799999997,071_y_f_n_a.png,I,m,590,6,1,1609.6000000014901,327387.19999999553,8003,VNB,A,5
6,test,5,1.0,1-Back,1,z,Fri Oct 04 2024 09:32:17 GMT-0500 (Central Daylight Time),330546.19999999553,124_o_f_n_a.png,I,z,526,7,1,1542.5,329003.69999999553,8003,VNB,A,6
7,test,5,0.0,1-Back,1,m,Fri Oct 04 2024 09:32:17 GMT-0500 (Central Daylight Time),332145.799999997,139_m_f_d_a.png,I,m,568,8,1,1592.6999999955297,330553.1000000015,8003,VNB,A,7
7,test,5,0.0,1-Back,0,m,Fri Oct 04 2024 09:32:17 GMT-0500 (Central Daylight Time),333845.1000000015,109_y_m_h_a.png,I,z,673,9,1,1692.1000000014901,332153.0,8003,VNB,A,8
8,test,5,0.0,1-Back,1,m,Fri Oct 04 2024 09:32:17 GMT-0500 (Central Daylight Time),335561.69999999553,071_y_f_d_a.png,I,m,685,10,1,1709.5999999940395,333852.1000000015,8003,VNB,A,9
9,test,5,0.0,1-Back,1,m,Fri Oct 04 2024 09:32:17 GMT-0500 (Central Daylight Time),337194.1000000015,165_m_m_n_a.png,I,m,609,11,1,1625.0,335569.1000000015,8003,VNB,A,10
10,test,5,1.0,1-Back,1,z,Fri Oct 04 2024 09:32:17 GMT-0500 (Central Daylight Time),338927.0,139_m_f_n_a.png,I,z,712,12,1,1725.5,337201.5,8003,VNB,A,11
11,test,5,0.0,1-Back,1,m,Fri Oct 04 2024 09:32:17 GMT-0500 (Central Daylight Time),340493.0,039_o_m_h_a.png,I,m,547,13,1,1559.0,338934.0,8003,VNB,A,12
12,test,5,0.0,1-Back,1,z,Fri Oct 04 2024 09:32:17 GMT-0500 (Central Daylight Time),342059.299999997,165_m_m_h_a.png,I,z,533,14,1,1559.6000000014901,340499.69999999553,8003,VNB,A,13
13,test,5,1.0,1-Back,1,m,Fri Oct 04 2024 09:32:17 GMT-0500 (Central Daylight Time),343608.8999999985,124_o_f_d_a.png,I,m,527,15,1,1541.8999999985099,342067.0,8003,VNB,A,14
14,test,5,0.0,1-Back,1,m,Fri Oct 04 2024 09:32:17 GMT-0500 (Central Daylight Time),345341.799999997,109_y_m_n_a.png,I,m,705,16,1,1726.1999999955297,343615.6000000015,8003,VNB,A,15
15,test,5,0.0,1-Back,1,m,Fri Oct 04 2024 09:32:17 GMT-0500 (Central Daylight Time),347341.19999999553,071_y_f_h_a.png,I,m,973,17,1,1993.0,345348.19999999553,8003,VNB,A,16
16,test,5,0.0,1-Back,1,m,Fri Oct 04 2024 09:32:17 GMT-0500 (Central Daylight Time),349341.3999999985,165_m_m_d_a.png,I,m,973,18,1,1993.2000000029802,347348.19999999553,8003,VNB,A,17
0,prac,1,0.0,2-Back,,,Fri Oct 04 2024 09:32:17 GMT-0500 (Central Daylight Time),349341.3999999985,139_m_f_n_a.png,I,space,9499,1,1,1993.2000000029802,347348.19999999553,8003,VNB,A,0
0,prac,1,0.0,2-Back,,,Fri Oct 04 2024 09:32:17 GMT-0500 (Central Daylight Time),349341.3999999985,124_o_f_h_a.png,I,space,9499,2,1,1993.2000000029802,347348.19999999553,8003,VNB,A,0
1,prac,1,0.0,2-Back,1,m,Fri Oct 04 2024 09:32:17 GMT-0500 (Central Daylight Time),483365.1000000015,039_o_m_d_a.png,I,m,1288,3,1,2090.60000000149,481274.5,8003,VNB,A,1
2,prac,1,1.0,2-Back,1,z,Fri Oct 04 2024 09:32:17 GMT-0500 (Central Daylight Time),485547.69999999553,165_m_m_h_a.png,I,z,1379,4,1,2174.2999999970198,483373.3999999985,8003,VNB,A,2
3,prac,1,0.0,2-Back,1,m,Fri Oct 04 2024 09:32:17 GMT-0500 (Central Daylight Time),487530.5,071_y_f_n_a.png,I,m,1165,5,1,1974.3000000044703,485556.19999999553,8003,VNB,A,3
3,prac,1,1.0,2-Back,0,z,Fri Oct 04 2024 09:32:17 GMT-0500 (Central Daylight Time),489907.799999997,039_o_m_h_a.png,I,m,1545,6,1,2369.5,487538.299999997,8003,VNB,A,4
3,prac,1,1.0,2-Back,0,z,Fri Oct 04 2024 09:32:17 GMT-0500 (Central Daylight Time),491995.5,109_y_m_n_a.png,I,m,1273,7,1,2079.3000000044703,489916.19999999553,8003,VNB,A,5
3,prac,1,0.0,2-Back,0,m,Fri Oct 04 2024 09:32:17 GMT-0500 (Central Daylight Time),494811.299999997,139_m_f_d_a.png,I,None,2016,8,1,2808.0,492003.299999997,8003,VNB,A,6
3,prac,1,0.0,2-Back,0,m,Fri Oct 04 2024 09:32:17 GMT-0500 (Central Daylight Time),497027.6000000015,124_o_f_d_a.png,I,z,1376,9,1,2208.3000000044703,494819.299999997,8003,VNB,A,7
4,prac,1,0.0,2-Back,1,m,Fri Oct 04 2024 09:32:17 GMT-0500 (Central Daylight Time),498610.5,165_m_m_h_a.png,I,m,807,10,1,1575.0,497035.5,8003,VNB,A,8
4,prac,1,1.0,2-Back,0,z,Fri Oct 04 2024 09:32:17 GMT-0500 (Central Daylight Time),501426.19999999553,071_y_f_d_a.png,I,None,2017,11,1,2807.5,498618.69999999553,8003,VNB,A,9
5,prac,1,0.0,2-Back,1,m,Fri Oct 04 2024 09:32:17 GMT-0500 (Central Daylight Time),503075.8999999985,039_o_m_n_a.png,I,m,848,12,1,1641.5,501434.3999999985,8003,VNB,A,10
0,prac,2,0.0,2-Back,,,Fri Oct 04 2024 09:32:17 GMT-0500 (Central Daylight Time),503075.8999999985,139_m_f_n_a.png,I,a,8419,1,1,1641.5,501434.3999999985,8003,VNB,A,0
0,prac,2,0.0,2-Back,,,Fri Oct 04 2024 09:32:17 GMT-0500 (Central Daylight Time),503075.8999999985,124_o_f_h_a.png,I,a,8419,2,1,1641.5,501434.3999999985,8003,VNB,A,0
1,prac,2,0.0,2-Back,1,m,Fri Oct 04 2024 09:32:17 GMT-0500 (Central Daylight Time),518520.69999999553,039_o_m_d_a.png,I,m,1043,3,1,1840.6999999955297,516680.0,8003,VNB,A,1
2,prac,2,1.0,2-Back,1,z,Fri Oct 04 2024 09:32:17 GMT-0500 (Central Daylight Time),519837.1000000015,165_m_m_h_a.png,I,z,530,4,1,1308.1000000014901,518529.0,8003,VNB,A,2
3,prac,2,0.0,2-Back,1,m,Fri Oct 04 2024 09:32:17 GMT-0500 (Central Daylight Time),521603.299999997,071_y_f_n_a.png,I,m,956,5,1,1758.1999999955297,519845.1000000015,8003,VNB,A,3
4,prac,2,1.0,2-Back,1,z,Fri Oct 04 2024 09:32:17 GMT-0500 (Central Daylight Time),523203.0,039_o_m_h_a.png,I,z,800,6,1,1591.6000000014901,521611.3999999985,8003,VNB,A,4
5,prac,2,1.0,2-Back,1,z,Fri Oct 04 2024 09:32:17 GMT-0500 (Central Daylight Time),524885.1999999955,109_y_m_n_a.png,I,z,865,7,1,1674.0,523211.19999999553,8003,VNB,A,5
6,prac,2,0.0,2-Back,1,m,Fri Oct 04 2024 09:32:17 GMT-0500 (Central Daylight Time),526868.1000000015,139_m_f_d_a.png,I,m,1179,8,1,1974.1000000014901,524894.0,8003,VNB,A,6
7,prac,2,0.0,2-Back,1,m,Fri Oct 04 2024 09:32:17 GMT-0500 (Central Daylight Time),528850.6999999955,124_o_f_d_a.png,I,m,1143,9,1,1974.5,526876.1999999955,8003,VNB,A,7
8,prac,2,0.0,2-Back,1,m,Fri Oct 04 2024 09:32:17 GMT-0500 (Central Daylight Time),530900.6000000015,165_m_m_h_a.png,I,m,1264,10,1,2041.7000000029802,528858.8999999985,8003,VNB,A,8
9,prac,2,1.0,2-Back,1,z,Fri Oct 04 2024 09:32:17 GMT-0500 (Central Daylight Time),532533.1000000015,071_y_f_d_a.png,I,z,830,11,1,1624.7000000029802,530908.3999999985,8003,VNB,A,9
10,prac,2,0.0,2-Back,1,m,Fri Oct 04 2024 09:32:17 GMT-0500 (Central Daylight Time),535082.5,039_o_m_n_a.png,I,m,1741,12,1,2541.10000000149,532541.3999999985,8003,VNB,A,10
0,test,1,0.0,2-Back,,,Fri Oct 04 2024 09:32:17 GMT-0500 (Central Daylight Time),535082.5,109_y_m_h_a.png,I,space,10904,1,1,2541.10000000149,532541.3999999985,8003,VNB,A,0
0,test,1,0.0,2-Back,,,Fri Oct 04 2024 09:32:17 GMT-0500 (Central Daylight Time),535082.5,124_o_f_n_a.png,I,space,10904,2,1,2541.10000000149,532541.3999999985,8003,VNB,A,0
1,test,1,0.0,2-Back,1,z,Fri Oct 04 2024 09:32:17 GMT-0500 (Central Daylight Time),565839.299999997,039_o_m_h_a.png,I,z,1070,3,1,2092.6999999955297,563746.6000000015,8003,VNB,A,1
2,test,1,0.0,2-Back,1,m,Fri Oct 04 2024 09:32:17 GMT-0500 (Central Daylight Time),567855.299999997,139_m_f_d_a.png,I,m,995,4,1,2008.7999999970198,565846.5,8003,VNB,A,2
3,test,1,1.0,2-Back,1,m,Fri Oct 04 2024 09:32:17 GMT-0500 (Central Daylight Time),569854.6000000015,109_y_m_n_a.png,I,m,971,5,1,1992.1000000014901,567862.5,8003,VNB,A,3
3,test,1,0.0,2-Back,0,z,Fri Oct 04 2024 09:32:17 GMT-0500 (Central Daylight Time),572203.6000000015,071_y_f_d_a.png,I,m,1332,6,1,2341.0,569862.6000000015,8003,VNB,A,4
4,test,1,0.0,2-Back,1,m,Fri Oct 04 2024 09:32:17 GMT-0500 (Central Daylight Time),574319.799999997,165_m_m_h_a.png,I,m,1094,7,1,2107.89999999851,572211.8999999985,8003,VNB,A,5
4,test,1,1.0,2-Back,0,m,Fri Oct 04 2024 09:32:17 GMT-0500 (Central Daylight Time),576236.1999999955,071_y_f_n_a.png,I,z,890,8,1,1908.7999999970198,574327.3999999985,8003,VNB,A,6
5,test,1,0.0,2-Back,1,z,Fri Oct 04 2024 09:32:17 GMT-0500 (Central Daylight Time),578035.299999997,124_o_f_h_a.png,I,z,767,9,1,1792.1000000014901,576243.1999999955,8003,VNB,A,7
6,test,1,0.0,2-Back,1,m,Fri Oct 04 2024 09:32:17 GMT-0500 (Central Daylight Time),580018.1000000015,039_o_m_d_a.png,I,m,950,10,1,1976.1000000014901,578042.0,8003,VNB,A,8
7,test,1,1.0,2-Back,1,m,Fri Oct 04 2024 09:32:17 GMT-0500 (Central Daylight Time),582050.799999997,165_m_m_d_a.png,I,m,1008,11,1,2026.0,580024.799999997,8003,VNB,A,9
8,test,1,0.0,2-Back,1,m,Fri Oct 04 2024 09:32:17 GMT-0500 (Central Daylight Time),584227.799999997,139_m_f_n_a.png,I,m,1013,12,1,2169.39999999851,582058.3999999985,8003,VNB,A,10
9,test,1,0.0,2-Back,1,m,Fri Oct 04 2024 09:32:17 GMT-0500 (Central Daylight Time),586284.1000000015,071_y_f_h_a.png,I,m,1025,13,1,2045.9000000059605,584238.1999999955,8003,VNB,A,11
10,test,1,0.0,2-Back,1,z,Fri Oct 04 2024 09:32:17 GMT-0500 (Central Daylight Time),588183.299999997,165_m_m_n_a.png,I,z,872,14,1,1892.3999999985099,586290.8999999985,8003,VNB,A,12
10,test,1,0.0,2-Back,0,m,Fri Oct 04 2024 09:32:17 GMT-0500 (Central Daylight Time),590298.1999999955,109_y_m_d_a.png,I,z,1084,15,1,2107.1999999955297,588191.0,8003,VNB,A,13
11,test,1,1.0,2-Back,1,m,Fri Oct 04 2024 09:32:17 GMT-0500 (Central Daylight Time),592130.8999999985,139_m_f_h_a.png,I,m,808,16,1,1825.7999999970198,590305.1000000015,8003,VNB,A,14
11,test,1,0.0,2-Back,0,z,Fri Oct 04 2024 09:32:17 GMT-0500 (Central Daylight Time),593980.1999999955,124_o_f_d_a.png,I,m,831,17,1,1842.2999999970198,592137.8999999985,8003,VNB,A,15
12,test,1,0.0,2-Back,1,m,Fri Oct 04 2024 09:32:17 GMT-0500 (Central Daylight Time),596462.8999999985,039_o_m_n_a.png,I,m,1462,18,1,2476.2000000029802,593986.6999999955,8003,VNB,A,16
0,test,2,0.0,2-Back,,,Fri Oct 04 2024 09:32:17 GMT-0500 (Central Daylight Time),596462.8999999985,165_m_m_h_a.png,I,space,4876,1,1,2476.2000000029802,593986.6999999955,8003,VNB,A,0
0,test,2,0.0,2-Back,,,Fri Oct 04 2024 09:32:17 GMT-0500 (Central Daylight Time),596462.8999999985,071_y_f_n_a.png,I,space,4876,2,1,2476.2000000029802,593986.6999999955,8003,VNB,A,0
1,test,2,1.0,2-Back,1,z,Fri Oct 04 2024 09:32:17 GMT-0500 (Central Daylight Time),607942.299999997,124_o_f_h_a.png,I,z,496,3,1,1508.1000000014901,606434.1999999955,8003,VNB,A,1
2,test,2,0.0,2-Back,1,m,Fri Oct 04 2024 09:32:17 GMT-0500 (Central Daylight Time),609776.6999999955,039_o_m_d_a.png,I,m,804,4,1,1826.3999999985099,607950.299999997,8003,VNB,A,2
3,test,2,0.0,2-Back,1,m,Fri Oct 04 2024 09:32:17 GMT-0500 (Central Daylight Time),611941.3999999985,139_m_f_d_a.png,I,m,1147,5,1,2157.2000000029802,609784.1999999955,8003,VNB,A,3
4,test,2,0.0,2-Back,1,m,Fri Oct 04 2024 09:32:17 GMT-0500 (Central Daylight Time),614174.0,109_y_m_h_a.png,I,m,1214,6,1,2225.60000000149,611948.3999999985,8003,VNB,A,4
4,test,2,0.0,2-Back,0,m,Fri Oct 04 2024 09:32:17 GMT-0500 (Central Daylight Time),616223.5,124_o_f_n_a.png,I,z,1029,7,1,2042.2000000029802,614181.299999997,8003,VNB,A,5
4,test,2,1.0,2-Back,0,z,Fri Oct 04 2024 09:32:17 GMT-0500 (Central Daylight Time),617906.1999999955,039_o_m_h_a.png,I,m,651,8,1,1675.0999999940395,616231.1000000015,8003,VNB,A,6
5,test,2,0.0,2-Back,1,m,Fri Oct 04 2024 09:32:17 GMT-0500 (Central Daylight Time),620072.1999999955,071_y_f_d_a.png,I,m,1144,9,1,2158.6999999955297,617913.5,8003,VNB,A,7
6,test,2,0.0,2-Back,1,m,Fri Oct 04 2024 09:32:17 GMT-0500 (Central Daylight Time),622104.799999997,109_y_m_d_a.png,I,m,1009,10,1,2025.5,620079.299999997,8003,VNB,A,8
6,test,2,0.0,2-Back,0,m,Fri Oct 04 2024 09:32:17 GMT-0500 (Central Daylight Time),623971.0,165_m_m_n_a.png,I,z,842,11,1,1858.8000000044703,622112.1999999955,8003,VNB,A,9
7,test,2,0.0,2-Back,1,m,Fri Oct 04 2024 09:32:17 GMT-0500 (Central Daylight Time),626220.0,139_m_f_h_a.png,I,m,1231,12,1,2242.0,623978.0,8003,VNB,A,10
7,test,2,1.0,2-Back,0,z,Fri Oct 04 2024 09:32:17 GMT-0500 (Central Daylight Time),627953.1999999955,039_o_m_n_a.png,I,m,710,13,1,1726.5999999940395,626226.6000000015,8003,VNB,A,11
8,test,2,0.0,2-Back,1,m,Fri Oct 04 2024 09:32:17 GMT-0500 (Central Daylight Time),629635.6999999955,124_o_f_d_a.png,I,m,666,14,1,1675.0,627960.6999999955,8003,VNB,A,12
8,test,2,0.0,2-Back,0,m,Fri Oct 04 2024 09:32:17 GMT-0500 (Central Daylight Time),631347.1000000015,071_y_f_h_a.png,I,z,694,15,1,1704.3000000044703,629642.799999997,8003,VNB,A,13
8,test,2,0.0,2-Back,0,z,Fri Oct 04 2024 09:32:17 GMT-0500 (Central Daylight Time),633285.8999999985,165_m_m_d_a.png,I,m,915,16,1,1928.7000000029802,631357.1999999955,8003,VNB,A,14
9,test,2,0.0,2-Back,1,m,Fri Oct 04 2024 09:32:17 GMT-0500 (Central Daylight Time),635217.5,109_y_m_n_a.png,I,m,910,17,1,1924.0,633293.5,8003,VNB,A,15
10,test,2,1.0,2-Back,1,m,Fri Oct 04 2024 09:32:17 GMT-0500 (Central Daylight Time),637100.1000000015,139_m_f_n_a.png,I,m,855,18,1,1875.0,635225.1000000015,8003,VNB,A,16
0,test,3,1.0,2-Back,,,Fri Oct 04 2024 09:32:17 GMT-0500 (Central Daylight Time),637100.1000000015,039_o_m_n_a.png,I,space,5926,1,1,1875.0,635225.1000000015,8003,VNB,A,0
0,test,3,1.0,2-Back,,,Fri Oct 04 2024 09:32:17 GMT-0500 (Central Daylight Time),637100.1000000015,124_o_f_d_a.png,I,space,5926,2,1,1875.0,635225.1000000015,8003,VNB,A,0
1,test,3,0.0,2-Back,1,m,Fri Oct 04 2024 09:32:17 GMT-0500 (Central Daylight Time),650396.0,071_y_f_h_a.png,I,m,1224,3,1,2241.2000000029802,648154.799999997,8003,VNB,A,1
2,test,3,0.0,2-Back,1,z,Fri Oct 04 2024 09:32:17 GMT-0500 (Central Daylight Time),652295.299999997,139_m_f_d_a.png,I,z,870,4,1,1892.3999999985099,650402.8999999985,8003,VNB,A,2
3,test,3,1.0,2-Back,1,m,Fri Oct 04 2024 09:32:17 GMT-0500 (Central Daylight Time),654361.6000000015,109_y_m_n_a.png,I,m,1035,5,1,2058.7000000029802,652302.8999999985,8003,VNB,A,3
3,test,3,0.0,2-Back,0,m,Fri Oct 04 2024 09:32:17 GMT-0500 (Central Daylight Time),656960.5,039_o_m_h_a.png,I,z,1569,6,1,2591.7000000029802,654368.799999997,8003,VNB,A,4
3,test,3,0.0,2-Back,0,z,Fri Oct 04 2024 09:32:17 GMT-0500 (Central Daylight Time),658960.0,071_y_f_n_a.png,I,m,970,7,1,1991.8000000044703,656968.1999999955,8003,VNB,A,5
4,test,3,1.0,2-Back,1,m,Fri Oct 04 2024 09:32:17 GMT-0500 (Central Daylight Time),660826.1999999955,165_m_m_d_a.png,I,m,842,8,1,1858.6999999955297,658967.5,8003,VNB,A,6
5,test,3,0.0,2-Back,1,m,Fri Oct 04 2024 09:32:17 GMT-0500 (Central Daylight Time),662708.8999999985,109_y_m_d_a.png,I,m,864,9,1,1875.2999999970198,660833.6000000015,8003,VNB,A,7
6,test,3,0.0,2-Back,1,m,Fri Oct 04 2024 09:32:17 GMT-0500 (Central Daylight Time),664558.1999999955,124_o_f_h_a.png,I,m,822,10,1,1842.0,662716.1999999955,8003,VNB,A,8
7,test,3,1.0,2-Back,1,m,Fri Oct 04 2024 09:32:17 GMT-0500 (Central Daylight Time),666641.0,139_m_f_n_a.png,I,m,1052,11,1,2076.10000000149,664564.8999999985,8003,VNB,A,9
8,test,3,1.0,2-Back,1,z,Fri Oct 04 2024 09:32:17 GMT-0500 (Central Daylight Time),668223.799999997,165_m_m_h_a.png,I,z,553,12,1,1575.1999999955297,666648.6000000015,8003,VNB,A,10
9,test,3,0.0,2-Back,1,m,Fri Oct 04 2024 09:32:17 GMT-0500 (Central Daylight Time),670139.8999999985,071_y_f_d_a.png,I,m,891,13,1,1908.3999999985099,668231.5,8003,VNB,A,11
9,test,3,0.0,2-Back,0,m,Fri Oct 04 2024 09:32:17 GMT-0500 (Central Daylight Time),672105.799999997,124_o_f_n_a.png,I,z,934,14,1,1958.8999999985099,670146.8999999985,8003,VNB,A,12
9,test,3,0.0,2-Back,0,z,Fri Oct 04 2024 09:32:17 GMT-0500 (Central Daylight Time),674388.1999999955,039_o_m_d_a.png,I,m,1265,15,1,2275.5,672112.6999999955,8003,VNB,A,13
10,test,3,1.0,2-Back,1,m,Fri Oct 04 2024 09:32:17 GMT-0500 (Central Daylight Time),676321.3999999985,139_m_f_h_a.png,I,m,910,16,1,1926.0,674395.3999999985,8003,VNB,A,14
10,test,3,0.0,2-Back,0,m,Fri Oct 04 2024 09:32:17 GMT-0500 (Central Daylight Time),678020.5,165_m_m_n_a.png,I,z,681,17,1,1691.8000000044703,676328.6999999955,8003,VNB,A,15
11,test,3,0.0,2-Back,1,z,Fri Oct 04 2024 09:32:17 GMT-0500 (Central Daylight Time),679686.799999997,109_y_m_h_a.png,I,z,637,18,1,1658.7999999970198,678028.0,8003,VNB,A,16
0,test,4,0.0,2-Back,,,Fri Oct 04 2024 09:32:17 GMT-0500 (Central Daylight Time),679686.799999997,139_m_f_n_a.png,I,space,3133,1,1,1658.7999999970198,678028.0,8003,VNB,A,0
0,test,4,0.0,2-Back,,,Fri Oct 04 2024 09:32:17 GMT-0500 (Central Daylight Time),679686.799999997,039_o_m_n_a.png,I,space,3133,2,1,1658.7999999970198,678028.0,8003,VNB,A,0
1,test,4,1.0,2-Back,1,m,Fri Oct 04 2024 09:32:17 GMT-0500 (Central Daylight Time),689916.8999999985,109_y_m_h_a.png,I,m,997,3,1,2008.2000000029802,687908.6999999955,8003,VNB,A,1
2,test,4,1.0,2-Back,1,m,Fri Oct 04 2024 09:32:17 GMT-0500 (Central Daylight Time),692049.5,124_o_f_d_a.png,I,m,1102,4,1,2124.7000000029802,689924.799999997,8003,VNB,A,2
2,test,4,0.0,2-Back,0,z,Fri Oct 04 2024 09:32:17 GMT-0500 (Central Daylight Time),694232.299999997,039_o_m_h_a.png,I,m,1153,5,1,2175.6999999955297,692056.6000000015,8003,VNB,A,3
2,test,4,0.0,2-Back,0,m,Fri Oct 04 2024 09:32:17 GMT-0500 (Central Daylight Time),696464.8999999985,165_m_m_n_a.png,I,z,1211,6,1,2225.2999999970198,694239.6000000015,8003,VNB,A,4
3,test,4,0.0,2-Back,1,m,Fri Oct 04 2024 09:32:17 GMT-0500 (Central Daylight Time),698697.5,139_m_f_d_a.png,I,m,1210,7,1,2225.5,696472.0,8003,VNB,A,5
3,test,4,0.0,2-Back,0,z,Fri Oct 04 2024 09:32:17 GMT-0500 (Central Daylight Time),701080.1999999955,071_y_f_n_a.png,I,m,1361,8,1,2375.5999999940395,698704.6000000015,8003,VNB,A,6
4,test,4,1.0,2-Back,1,m,Fri Oct 04 2024 09:32:17 GMT-0500 (Central Daylight Time),703879.0,124_o_f_h_a.png,I,m,1780,9,1,2792.10000000149,701086.8999999985,8003,VNB,A,7
5,test,4,0.0,2-Back,1,m,Fri Oct 04 2024 09:32:17 GMT-0500 (Central Daylight Time),706511.6999999955,165_m_m_h_a.png,I,m,1602,10,1,2624.89999999851,703886.799999997,8003,VNB,A,8
6,test,4,0.0,2-Back,1,m,Fri Oct 04 2024 09:32:17 GMT-0500 (Central Daylight Time),708394.3999999985,071_y_f_d_a.png,I,m,859,11,1,1875.3999999985099,706519.0,8003,VNB,A,9
7,test,4,0.0,2-Back,1,m,Fri Oct 04 2024 09:32:17 GMT-0500 (Central Daylight Time),710510.6999999955,109_y_m_n_a.png,I,m,1088,12,1,2109.2999999970198,708401.3999999985,8003,VNB,A,10
8,test,4,0.0,2-Back,1,z,Fri Oct 04 2024 09:32:17 GMT-0500 (Central Daylight Time),713209.6000000015,039_o_m_d_a.png,I,z,1676,13,1,2692.2000000029802,710517.3999999985,8003,VNB,A,11
9,test,4,1.0,2-Back,1,m,Fri Oct 04 2024 09:32:17 GMT-0500 (Central Daylight Time),714943.5,139_m_f_h_a.png,I,m,705,14,1,1726.3999999985099,713217.1000000015,8003,VNB,A,12
9,test,4,1.0,2-Back,0,m,Fri Oct 04 2024 09:32:17 GMT-0500 (Central Daylight Time),717258.3999999985,071_y_f_h_a.png,I,z,1284,15,1,2306.7999999970198,714951.6000000015,8003,VNB,A,13
10,test,4,0.0,2-Back,1,m,Fri Oct 04 2024 09:32:17 GMT-0500 (Central Daylight Time),718974.5,124_o_f_n_a.png,I,m,696,16,1,1708.8999999985099,717265.6000000015,8003,VNB,A,14
11,test,4,0.0,2-Back,1,m,Fri Oct 04 2024 09:32:17 GMT-0500 (Central Daylight Time),721174.1000000015,109_y_m_d_a.png,I,m,1180,17,1,2192.0,718982.1000000015,8003,VNB,A,15
12,test,4,1.0,2-Back,1,m,Fri Oct 04 2024 09:32:17 GMT-0500 (Central Daylight Time),723423.0,165_m_m_d_a.png,I,m,1221,18,1,2241.8000000044703,721181.1999999955,8003,VNB,A,16
0,test,5,1.0,2-Back,,,Fri Oct 04 2024 09:32:17 GMT-0500 (Central Daylight Time),723423.0,071_y_f_d_a.png,I,space,2059,1,1,2241.8000000044703,721181.1999999955,8003,VNB,A,0
0,test,5,1.0,2-Back,,,Fri Oct 04 2024 09:32:17 GMT-0500 (Central Daylight Time),723423.0,124_o_f_h_a.png,I,space,2059,2,1,2241.8000000044703,721181.1999999955,8003,VNB,A,0
1,test,5,1.0,2-Back,1,z,Fri Oct 04 2024 09:32:17 GMT-0500 (Central Daylight Time),732303.6000000015,039_o_m_d_a.png,I,z,696,3,1,1707.4000000059605,730596.1999999955,8003,VNB,A,1
2,test,5,1.0,2-Back,1,m,Fri Oct 04 2024 09:32:17 GMT-0500 (Central Daylight Time),734086.3999999985,139_m_f_n_a.png,I,m,756,4,1,1775.3999999985099,732311.0,8003,VNB,A,2
3,test,5,0.0,2-Back,1,m,Fri Oct 04 2024 09:32:17 GMT-0500 (Central Daylight Time),736169.1000000015,165_m_m_h_a.png,I,m,1061,5,1,2075.4000000059605,734093.6999999955,8003,VNB,A,3
3,test,5,0.0,2-Back,0,z,Fri Oct 04 2024 09:32:17 GMT-0500 (Central Daylight Time),739201.5,071_y_f_n_a.png,I,None,2014,6,1,3024.3000000044703,736177.1999999955,8003,VNB,A,4
4,test,5,0.0,2-Back,1,m,Fri Oct 04 2024 09:32:17 GMT-0500 (Central Daylight Time),741000.799999997,124_o_f_d_a.png,I,m,777,7,1,1792.1000000014901,739208.6999999955,8003,VNB,A,5
5,test,5,0.0,2-Back,1,m,Fri Oct 04 2024 09:32:17 GMT-0500 (Central Daylight Time),742983.6000000015,039_o_m_h_a.png,I,m,953,8,1,1975.1000000014901,741008.5,8003,VNB,A,6
5,test,5,1.0,2-Back,0,z,Fri Oct 04 2024 09:32:17 GMT-0500 (Central Daylight Time),744783.0,139_m_f_d_a.png,I,m,771,9,1,1791.8999999985099,742991.1000000015,8003,VNB,A,7
6,test,5,0.0,2-Back,1,m,Fri Oct 04 2024 09:32:17 GMT-0500 (Central Daylight Time),746365.8999999985,109_y_m_n_a.png,I,m,563,10,1,1575.0,744790.8999999985,8003,VNB,A,8
7,test,5,0.0,2-Back,1,m,Fri Oct 04 2024 09:32:17 GMT-0500 (Central Daylight Time),748665.1999999955,165_m_m_n_a.png,I,m,1276,11,1,2292.5,746372.6999999955,8003,VNB,A,9
8,test,5,0.0,2-Back,1,m,Fri Oct 04 2024 09:32:17 GMT-0500 (Central Daylight Time),750964.3999999985,071_y_f_h_a.png,I,m,1281,12,1,2292.2000000029802,748672.1999999955,8003,VNB,A,10
9,test,5,0.0,2-Back,1,m,Fri Oct 04 2024 09:32:17 GMT-0500 (Central Daylight Time),752780.3999999985,109_y_m_d_a.png,I,m,790,13,1,1808.7999999970198,750971.6000000015,8003,VNB,A,11
10,test,5,1.0,2-Back,1,z,Fri Oct 04 2024 09:32:17 GMT-0500 (Central Daylight Time),754280.1000000015,139_m_f_h_a.png,I,z,471,14,1,1491.6000000014901,752788.5,8003,VNB,A,12
11,test,5,0.0,2-Back,1,m,Fri Oct 04 2024 09:32:17 GMT-0500 (Central Daylight Time),756013.0,039_o_m_n_a.png,I,m,713,15,1,1725.3999999985099,754287.6000000015,8003,VNB,A,13
12,test,5,0.0,2-Back,1,m,Fri Oct 04 2024 09:32:17 GMT-0500 (Central Daylight Time),757862.299999997,165_m_m_d_a.png,I,m,821,16,1,1842.2999999970198,756020.0,8003,VNB,A,14
13,test,5,0.0,2-Back,1,z,Fri Oct 04 2024 09:32:17 GMT-0500 (Central Daylight Time),759495.1999999955,124_o_f_n_a.png,I,z,612,17,1,1624.0999999940395,757871.1000000015,8003,VNB,A,15
13,test,5,1.0,2-Back,0,m,Fri Oct 04 2024 09:32:17 GMT-0500 (Central Daylight Time),761544.6999999955,109_y_m_h_a.png,I,z,1019,18,1,2042.5,759502.1999999955,8003,VNB,A,16
