acc_sum,block,block_c,change,condition,correct,correct_response,datetime,endtime,face,project,response,response_time,row_sel,session_number,start_end,starttime,subject_id,task,task_vers,trial
0,prac,1,,1-Back,,,Fri Jan 31 2025 10:34:04 GMT-0600 (Central Standard Time),,012_o_f_d_a.png,I,space,4807,1,2,,,8003,VNB,C,0
1,prac,1,0.0,1-Back,1,m,Fri Jan 31 2025 10:34:04 GMT-0600 (Central Standard Time),129390.60000000149,022_y_f_n_a.png,I,m,1049,2,2,1941.6000000014901,127449.0,8003,VNB,C,1
2,prac,1,0.0,1-Back,1,m,Fri Jan 31 2025 10:34:04 GMT-0600 (Central Standard Time),130940.19999999553,014_m_m_h_a.png,I,m,677,3,2,1542.8999999985099,129397.29999999702,8003,VNB,C,2
3,prac,1,0.0,1-Back,1,m,Fri Jan 31 2025 10:34:04 GMT-0600 (Central Standard Time),132589.79999999702,025_y_m_d_a.png,I,m,778,4,2,1643.3999999985099,130946.39999999851,8003,VNB,C,3
4,prac,1,0.0,1-Back,1,m,Fri Jan 31 2025 10:34:04 GMT-0600 (Central Standard Time),134089.19999999553,012_o_f_n_a.png,I,m,600,5,2,1493.8999999985099,132595.29999999702,8003,VNB,C,4
5,prac,1,1.0,1-Back,1,z,Fri Jan 31 2025 10:34:04 GMT-0600 (Central Standard Time),135967.69999999553,025_y_m_n_a.png,I,z,920,6,2,1872.5,134095.19999999553,8003,VNB,C,5
6,prac,1,0.0,1-Back,1,m,Fri Jan 31 2025 10:34:04 GMT-0600 (Central Standard Time),137437.8999999985,015_o_m_h_a.png,I,m,548,7,2,1464.0,135973.8999999985,8003,VNB,C,6
7,prac,1,0.0,1-Back,1,m,Fri Jan 31 2025 10:34:04 GMT-0600 (Central Standard Time),138954.29999999702,019_m_f_d_a.png,I,m,621,8,2,1510.1000000014901,137444.19999999553,8003,VNB,C,7
8,prac,1,1.0,1-Back,1,z,Fri Jan 31 2025 10:34:04 GMT-0600 (Central Standard Time),140570.5,022_y_f_d_a.png,I,z,724,9,2,1610.3000000044703,138960.19999999553,8003,VNB,C,8
9,prac,1,0.0,1-Back,1,m,Fri Jan 31 2025 10:34:04 GMT-0600 (Central Standard Time),142270.19999999553,014_m_m_n_a.png,I,m,819,10,2,1694.1999999955297,140576.0,8003,VNB,C,9
10,prac,1,0.0,1-Back,1,m,Fri Jan 31 2025 10:34:04 GMT-0600 (Central Standard Time),144069.3999999985,012_o_f_h_a.png,I,m,903,11,2,1793.7000000029802,142275.69999999553,8003,VNB,C,10
11,prac,1,0.0,1-Back,1,m,Fri Jan 31 2025 10:34:04 GMT-0600 (Central Standard Time),145619.1000000015,025_y_m_d_a.png,I,m,674,12,2,1543.2000000029802,144075.8999999985,8003,VNB,C,11
0,test,1,0.0,1-Back,,,Fri Jan 31 2025 10:34:04 GMT-0600 (Central Standard Time),145619.1000000015,022_y_f_d_a.png,I,space,7418,1,2,1543.2000000029802,144075.8999999985,8003,VNB,C,0
1,test,1,0.0,1-Back,1,m,Fri Jan 31 2025 10:34:04 GMT-0600 (Central Standard Time),166330.0,019_m_f_n_a.png,I,m,693,2,2,1762.7000000029802,164567.29999999702,8003,VNB,C,1
2,test,1,0.0,1-Back,1,m,Fri Jan 31 2025 10:34:04 GMT-0600 (Central Standard Time),167978.6000000015,015_o_m_h_a.png,I,m,591,3,2,1644.6000000014901,166334.0,8003,VNB,C,2
3,test,1,1.0,1-Back,1,z,Fri Jan 31 2025 10:34:04 GMT-0600 (Central Standard Time),169494.3999999985,014_m_m_h_a.png,I,z,437,4,2,1511.8999999985099,167982.5,8003,VNB,C,3
4,test,1,0.0,1-Back,1,m,Fri Jan 31 2025 10:34:04 GMT-0600 (Central Standard Time),171360.8999999985,012_o_f_n_a.png,I,m,801,5,2,1862.7999999970198,169498.1000000015,8003,VNB,C,4
5,test,1,0.0,1-Back,1,m,Fri Jan 31 2025 10:34:04 GMT-0600 (Central Standard Time),173010.3999999985,025_y_m_d_a.png,I,m,575,6,2,1645.7000000029802,171364.69999999553,8003,VNB,C,5
6,test,1,1.0,1-Back,1,z,Fri Jan 31 2025 10:34:04 GMT-0600 (Central Standard Time),174626.6000000015,019_m_f_d_a.png,I,z,533,7,2,1612.3000000044703,173014.29999999702,8003,VNB,C,6
7,test,1,0.0,1-Back,1,m,Fri Jan 31 2025 10:34:04 GMT-0600 (Central Standard Time),176243.0,022_y_f_h_a.png,I,m,558,8,2,1612.7000000029802,174630.29999999702,8003,VNB,C,7
7,test,1,0.0,1-Back,0,m,Fri Jan 31 2025 10:34:04 GMT-0600 (Central Standard Time),177975.1000000015,015_o_m_n_a.png,I,z,670,9,2,1728.2000000029802,176246.8999999985,8003,VNB,C,8
8,test,1,0.0,1-Back,1,m,Fri Jan 31 2025 10:34:04 GMT-0600 (Central Standard Time),179924.79999999702,025_y_m_h_a.png,I,m,872,10,2,1945.3999999985099,177979.3999999985,8003,VNB,C,9
9,test,1,0.0,1-Back,1,m,Fri Jan 31 2025 10:34:04 GMT-0600 (Central Standard Time),181574.0,015_o_m_d_a.png,I,m,586,11,2,1645.7000000029802,179928.29999999702,8003,VNB,C,10
9,test,1,1.0,1-Back,0,z,Fri Jan 31 2025 10:34:04 GMT-0600 (Central Standard Time),183341.5,012_o_f_d_a.png,I,m,698,12,2,1763.1000000014901,181578.3999999985,8003,VNB,C,11
10,test,1,0.0,1-Back,1,m,Fri Jan 31 2025 10:34:04 GMT-0600 (Central Standard Time),185189.8999999985,014_m_m_n_a.png,I,m,771,13,2,1843.8999999985099,183346.0,8003,VNB,C,12
11,test,1,1.0,1-Back,1,z,Fri Jan 31 2025 10:34:04 GMT-0600 (Central Standard Time),187055.69999999553,022_y_f_n_a.png,I,z,810,14,2,1861.5,185194.19999999553,8003,VNB,C,13
12,test,1,0.0,1-Back,1,m,Fri Jan 31 2025 10:34:04 GMT-0600 (Central Standard Time),188638.79999999702,019_m_f_h_a.png,I,m,520,15,2,1579.1000000014901,187059.69999999553,8003,VNB,C,14
13,test,1,0.0,1-Back,1,m,Fri Jan 31 2025 10:34:04 GMT-0600 (Central Standard Time),190404.79999999702,014_m_m_d_a.png,I,m,672,16,2,1762.1999999955297,188642.6000000015,8003,VNB,C,15
14,test,1,0.0,1-Back,1,m,Fri Jan 31 2025 10:34:04 GMT-0600 (Central Standard Time),192154.19999999553,025_y_m_n_a.png,I,m,684,17,2,1745.2999999970198,190408.8999999985,8003,VNB,C,16
14,test,1,0.0,1-Back,0,m,Fri Jan 31 2025 10:34:04 GMT-0600 (Central Standard Time),193753.8999999985,012_o_f_h_a.png,I,z,526,18,2,1595.7000000029802,192158.19999999553,8003,VNB,C,17
0,test,2,0.0,1-Back,,,Fri Jan 31 2025 10:34:04 GMT-0600 (Central Standard Time),193753.8999999985,025_y_m_n_a.png,I,space,3880,1,2,1595.7000000029802,192158.19999999553,8003,VNB,C,0
1,test,2,0.0,1-Back,1,m,Fri Jan 31 2025 10:34:04 GMT-0600 (Central Standard Time),201551.29999999702,022_y_f_h_a.png,I,m,870,2,2,1895.1999999955297,199656.1000000015,8003,VNB,C,1
2,test,2,1.0,1-Back,1,m,Fri Jan 31 2025 10:34:04 GMT-0600 (Central Standard Time),204101.3999999985,015_o_m_n_a.png,I,m,1530,3,2,2546.2000000029802,201555.19999999553,8003,VNB,C,2
3,test,2,0.0,1-Back,1,m,Fri Jan 31 2025 10:34:04 GMT-0600 (Central Standard Time),205883.3999999985,019_m_f_d_a.png,I,m,757,4,2,1778.1000000014901,204105.29999999702,8003,VNB,C,3
4,test,2,0.0,1-Back,1,z,Fri Jan 31 2025 10:34:04 GMT-0600 (Central Standard Time),207566.1000000015,014_m_m_d_a.png,I,z,663,5,2,1678.3000000044703,205887.79999999702,8003,VNB,C,4
5,test,2,0.0,1-Back,1,m,Fri Jan 31 2025 10:34:04 GMT-0600 (Central Standard Time),209266.79999999702,025_y_m_h_a.png,I,m,668,6,2,1696.6000000014901,207570.19999999553,8003,VNB,C,5
6,test,2,1.0,1-Back,1,z,Fri Jan 31 2025 10:34:04 GMT-0600 (Central Standard Time),210865.29999999702,012_o_f_h_a.png,I,z,576,7,2,1594.2999999970198,209271.0,8003,VNB,C,6
7,test,2,0.0,1-Back,1,m,Fri Jan 31 2025 10:34:04 GMT-0600 (Central Standard Time),212414.69999999553,019_m_f_n_a.png,I,m,529,8,2,1545.3999999985099,210869.29999999702,8003,VNB,C,7
8,test,2,0.0,1-Back,1,m,Fri Jan 31 2025 10:34:04 GMT-0600 (Central Standard Time),214064.29999999702,022_y_f_d_a.png,I,m,619,9,2,1646.1999999955297,212418.1000000015,8003,VNB,C,8
9,test,2,0.0,1-Back,1,m,Fri Jan 31 2025 10:34:04 GMT-0600 (Central Standard Time),215580.3999999985,014_m_m_n_a.png,I,m,497,10,2,1512.1000000014901,214068.29999999702,8003,VNB,C,9
10,test,2,1.0,1-Back,1,m,Fri Jan 31 2025 10:34:04 GMT-0600 (Central Standard Time),217346.3999999985,019_m_f_h_a.png,I,m,700,11,2,1761.7999999970198,215584.6000000015,8003,VNB,C,10
11,test,2,0.0,1-Back,1,z,Fri Jan 31 2025 10:34:04 GMT-0600 (Central Standard Time),218929.19999999553,015_o_m_h_a.png,I,z,518,12,2,1579.0,217350.19999999553,8003,VNB,C,11
12,test,2,0.0,1-Back,1,m,Fri Jan 31 2025 10:34:04 GMT-0600 (Central Standard Time),220662.0,025_y_m_d_a.png,I,m,671,13,2,1728.7000000029802,218933.29999999702,8003,VNB,C,12
13,test,2,0.0,1-Back,1,m,Fri Jan 31 2025 10:34:04 GMT-0600 (Central Standard Time),222444.6000000015,012_o_f_n_a.png,I,m,706,14,2,1777.9000000059605,220666.69999999553,8003,VNB,C,13
14,test,2,0.0,1-Back,1,z,Fri Jan 31 2025 10:34:04 GMT-0600 (Central Standard Time),224044.1000000015,022_y_f_n_a.png,I,z,531,15,2,1593.5,222450.6000000015,8003,VNB,C,14
15,test,2,1.0,1-Back,1,m,Fri Jan 31 2025 10:34:04 GMT-0600 (Central Standard Time),226012.1000000015,014_m_m_h_a.png,I,m,899,16,2,1964.1000000014901,224048.0,8003,VNB,C,15
16,test,2,0.0,1-Back,1,m,Fri Jan 31 2025 10:34:04 GMT-0600 (Central Standard Time),227809.8999999985,012_o_f_d_a.png,I,m,717,17,2,1793.5,226016.3999999985,8003,VNB,C,16
16,test,2,1.0,1-Back,0,z,Fri Jan 31 2025 10:34:04 GMT-0600 (Central Standard Time),229959.0,015_o_m_d_a.png,I,m,1085,18,2,2144.60000000149,227814.3999999985,8003,VNB,C,17
0,test,3,1.0,1-Back,,,Fri Jan 31 2025 10:34:04 GMT-0600 (Central Standard Time),229959.0,012_o_f_h_a.png,I,space,2276,1,2,2144.60000000149,227814.3999999985,8003,VNB,C,0
1,test,3,0.0,1-Back,1,m,Fri Jan 31 2025 10:34:04 GMT-0600 (Central Standard Time),236007.19999999553,019_m_f_d_a.png,I,m,578,2,2,1645.5999999940395,234361.6000000015,8003,VNB,C,1
2,test,3,1.0,1-Back,1,m,Fri Jan 31 2025 10:34:04 GMT-0600 (Central Standard Time),237790.19999999553,014_m_m_n_a.png,I,m,728,3,2,1779.0999999940395,236011.1000000015,8003,VNB,C,2
3,test,3,0.0,1-Back,1,z,Fri Jan 31 2025 10:34:04 GMT-0600 (Central Standard Time),239456.1000000015,012_o_f_n_a.png,I,z,610,4,2,1661.7000000029802,237794.3999999985,8003,VNB,C,3
4,test,3,1.0,1-Back,1,m,Fri Jan 31 2025 10:34:04 GMT-0600 (Central Standard Time),241272.19999999553,015_o_m_d_a.png,I,m,735,5,2,1811.6999999955297,239460.5,8003,VNB,C,4
5,test,3,0.0,1-Back,1,m,Fri Jan 31 2025 10:34:04 GMT-0600 (Central Standard Time),243155.0,022_y_f_h_a.png,I,m,824,6,2,1878.6000000014901,241276.3999999985,8003,VNB,C,5
6,test,3,0.0,1-Back,1,z,Fri Jan 31 2025 10:34:04 GMT-0600 (Central Standard Time),244637.8999999985,025_y_m_h_a.png,I,z,429,7,2,1479.1000000014901,243158.79999999702,8003,VNB,C,6
7,test,3,0.0,1-Back,1,m,Fri Jan 31 2025 10:34:04 GMT-0600 (Central Standard Time),246270.8999999985,019_m_f_n_a.png,I,m,579,8,2,1628.8999999985099,244642.0,8003,VNB,C,7
8,test,3,0.0,1-Back,1,m,Fri Jan 31 2025 10:34:04 GMT-0600 (Central Standard Time),247920.29999999702,022_y_f_d_a.png,I,m,577,9,2,1644.8999999985099,246275.3999999985,8003,VNB,C,8
9,test,3,1.0,1-Back,1,m,Fri Jan 31 2025 10:34:04 GMT-0600 (Central Standard Time),249586.29999999702,015_o_m_n_a.png,I,m,592,10,2,1662.0,247924.29999999702,8003,VNB,C,9
10,test,3,0.0,1-Back,1,m,Fri Jan 31 2025 10:34:04 GMT-0600 (Central Standard Time),251419.29999999702,014_m_m_h_a.png,I,m,774,11,2,1828.7999999970198,249590.5,8003,VNB,C,10
11,test,3,0.0,1-Back,1,z,Fri Jan 31 2025 10:34:04 GMT-0600 (Central Standard Time),253085.19999999553,019_m_f_h_a.png,I,z,589,12,2,1662.1999999955297,251423.0,8003,VNB,C,11
12,test,3,1.0,1-Back,1,m,Fri Jan 31 2025 10:34:04 GMT-0600 (Central Standard Time),254868.0,012_o_f_d_a.png,I,m,715,13,2,1779.0,253089.0,8003,VNB,C,12
13,test,3,0.0,1-Back,1,z,Fri Jan 31 2025 10:34:04 GMT-0600 (Central Standard Time),256950.79999999702,014_m_m_d_a.png,I,z,996,14,2,2078.39999999851,254872.3999999985,8003,VNB,C,13
14,test,3,0.0,1-Back,1,m,Fri Jan 31 2025 10:34:04 GMT-0600 (Central Standard Time),258766.8999999985,025_y_m_n_a.png,I,m,737,15,2,1812.2000000029802,256954.69999999553,8003,VNB,C,14
15,test,3,1.0,1-Back,1,m,Fri Jan 31 2025 10:34:04 GMT-0600 (Central Standard Time),260782.8999999985,015_o_m_h_a.png,I,m,954,16,2,2011.8999999985099,258771.0,8003,VNB,C,15
16,test,3,0.0,1-Back,1,m,Fri Jan 31 2025 10:34:04 GMT-0600 (Central Standard Time),262482.299999997,025_y_m_d_a.png,I,m,633,17,2,1696.1000000014901,260786.19999999553,8003,VNB,C,16
17,test,3,1.0,1-Back,1,m,Fri Jan 31 2025 10:34:04 GMT-0600 (Central Standard Time),264081.69999999553,022_y_f_n_a.png,I,m,534,18,2,1595.6999999955297,262486.0,8003,VNB,C,17
0,test,4,1.0,1-Back,,,Fri Jan 31 2025 10:34:04 GMT-0600 (Central Standard Time),264081.69999999553,014_m_m_d_a.png,I,space,2689,1,2,1595.6999999955297,262486.0,8003,VNB,C,0
1,test,4,0.0,1-Back,1,z,Fri Jan 31 2025 10:34:04 GMT-0600 (Central Standard Time),270679.8999999985,015_o_m_d_a.png,I,z,861,2,2,1875.8999999985099,268804.0,8003,VNB,C,1
2,test,4,0.0,1-Back,1,m,Fri Jan 31 2025 10:34:04 GMT-0600 (Central Standard Time),272546.0,025_y_m_h_a.png,I,m,834,3,2,1862.3999999985099,270683.6000000015,8003,VNB,C,2
3,test,4,0.0,1-Back,1,m,Fri Jan 31 2025 10:34:04 GMT-0600 (Central Standard Time),274095.5,019_m_f_n_a.png,I,m,527,4,2,1545.7000000029802,272549.799999997,8003,VNB,C,3
4,test,4,1.0,1-Back,1,m,Fri Jan 31 2025 10:34:04 GMT-0600 (Central Standard Time),275761.5,012_o_f_h_a.png,I,m,642,5,2,1662.0,274099.5,8003,VNB,C,4
5,test,4,0.0,1-Back,1,m,Fri Jan 31 2025 10:34:04 GMT-0600 (Central Standard Time),277327.6000000015,014_m_m_n_a.png,I,m,536,6,2,1561.8000000044703,275765.799999997,8003,VNB,C,5
6,test,4,0.0,1-Back,1,m,Fri Jan 31 2025 10:34:04 GMT-0600 (Central Standard Time),279110.3999999985,025_y_m_d_a.png,I,m,754,7,2,1779.0,277331.3999999985,8003,VNB,C,6
7,test,4,1.0,1-Back,1,z,Fri Jan 31 2025 10:34:04 GMT-0600 (Central Standard Time),280660.299999997,022_y_f_d_a.png,I,z,531,8,2,1545.6000000014901,279114.69999999553,8003,VNB,C,7
8,test,4,0.0,1-Back,1,m,Fri Jan 31 2025 10:34:04 GMT-0600 (Central Standard Time),282176.0,019_m_f_h_a.png,I,m,494,9,2,1510.6000000014901,280665.3999999985,8003,VNB,C,8
8,test,4,0.0,1-Back,0,z,Fri Jan 31 2025 10:34:04 GMT-0600 (Central Standard Time),283892.19999999553,015_o_m_h_a.png,I,m,683,10,2,1711.7999999970198,282180.3999999985,8003,VNB,C,9
9,test,4,1.0,1-Back,1,m,Fri Jan 31 2025 10:34:04 GMT-0600 (Central Standard Time),285491.6000000015,012_o_f_n_a.png,I,m,566,11,2,1596.4000000059605,283895.19999999553,8003,VNB,C,10
10,test,4,0.0,1-Back,1,m,Fri Jan 31 2025 10:34:04 GMT-0600 (Central Standard Time),287274.5,019_m_f_d_a.png,I,m,749,12,2,1778.7000000029802,285495.799999997,8003,VNB,C,11
11,test,4,0.0,1-Back,1,m,Fri Jan 31 2025 10:34:04 GMT-0600 (Central Standard Time),288924.299999997,022_y_f_n_a.png,I,m,631,13,2,1645.6999999955297,287278.6000000015,8003,VNB,C,12
12,test,4,0.0,1-Back,1,m,Fri Jan 31 2025 10:34:04 GMT-0600 (Central Standard Time),290940.799999997,012_o_f_d_a.png,I,m,990,14,2,2013.1999999955297,288927.6000000015,8003,VNB,C,13
12,test,4,0.0,1-Back,0,m,Fri Jan 31 2025 10:34:04 GMT-0600 (Central Standard Time),292722.8999999985,022_y_f_h_a.png,I,z,750,15,2,1778.8999999985099,290944.0,8003,VNB,C,14
13,test,4,1.0,1-Back,1,z,Fri Jan 31 2025 10:34:04 GMT-0600 (Central Standard Time),294505.6000000015,014_m_m_h_a.png,I,z,751,16,2,1778.8000000044703,292726.799999997,8003,VNB,C,15
14,test,4,0.0,1-Back,1,m,Fri Jan 31 2025 10:34:04 GMT-0600 (Central Standard Time),296288.299999997,015_o_m_n_a.png,I,m,760,17,2,1778.6999999955297,294509.6000000015,8003,VNB,C,16
15,test,4,1.0,1-Back,1,z,Fri Jan 31 2025 10:34:04 GMT-0600 (Central Standard Time),298022.299999997,025_y_m_n_a.png,I,z,713,18,2,1730.1000000014901,296292.19999999553,8003,VNB,C,17
0,test,5,1.0,1-Back,,,Fri Jan 31 2025 10:34:04 GMT-0600 (Central Standard Time),298022.299999997,015_o_m_n_a.png,I,space,2674,1,2,1730.1000000014901,296292.19999999553,8003,VNB,C,0
1,test,5,1.0,1-Back,1,m,Fri Jan 31 2025 10:34:04 GMT-0600 (Central Standard Time),304652.5,012_o_f_h_a.png,I,m,923,2,2,1944.5,302708.0,8003,VNB,C,1
2,test,5,0.0,1-Back,1,m,Fri Jan 31 2025 10:34:04 GMT-0600 (Central Standard Time),306368.6000000015,025_y_m_d_a.png,I,m,685,3,2,1712.3000000044703,304656.299999997,8003,VNB,C,2
3,test,5,0.0,1-Back,1,z,Fri Jan 31 2025 10:34:04 GMT-0600 (Central Standard Time),308068.0,015_o_m_d_a.png,I,z,673,4,2,1694.8999999985099,306373.1000000015,8003,VNB,C,3
4,test,5,0.0,1-Back,1,m,Fri Jan 31 2025 10:34:04 GMT-0600 (Central Standard Time),309667.8999999985,019_m_f_h_a.png,I,m,532,5,2,1595.6000000014901,308072.299999997,8003,VNB,C,4
5,test,5,0.0,1-Back,1,m,Fri Jan 31 2025 10:34:04 GMT-0600 (Central Standard Time),311333.69999999553,022_y_f_n_a.png,I,m,588,6,2,1662.5999999940395,309671.1000000015,8003,VNB,C,5
6,test,5,1.0,1-Back,1,z,Fri Jan 31 2025 10:34:04 GMT-0600 (Central Standard Time),313000.0,012_o_f_n_a.png,I,z,594,7,2,1662.5,311337.5,8003,VNB,C,6
7,test,5,0.0,1-Back,1,m,Fri Jan 31 2025 10:34:04 GMT-0600 (Central Standard Time),314649.299999997,019_m_f_d_a.png,I,m,584,8,2,1645.5,313003.799999997,8003,VNB,C,7
8,test,5,0.0,1-Back,1,m,Fri Jan 31 2025 10:34:04 GMT-0600 (Central Standard Time),316282.0,025_y_m_h_a.png,I,m,575,9,2,1629.0,314653.0,8003,VNB,C,8
9,test,5,0.0,1-Back,1,m,Fri Jan 31 2025 10:34:04 GMT-0600 (Central Standard Time),318148.19999999553,022_y_f_d_a.png,I,m,814,10,2,1862.2999999970198,316285.8999999985,8003,VNB,C,9
10,test,5,0.0,1-Back,1,m,Fri Jan 31 2025 10:34:04 GMT-0600 (Central Standard Time),319847.3999999985,014_m_m_n_a.png,I,m,636,11,2,1695.1000000014901,318152.299999997,8003,VNB,C,10
11,test,5,1.0,1-Back,1,z,Fri Jan 31 2025 10:34:04 GMT-0600 (Central Standard Time),321696.799999997,019_m_f_n_a.png,I,z,768,12,2,1845.0,319851.799999997,8003,VNB,C,11
12,test,5,0.0,1-Back,1,m,Fri Jan 31 2025 10:34:04 GMT-0600 (Central Standard Time),323629.6000000015,015_o_m_h_a.png,I,m,863,13,2,1928.9000000059605,321700.69999999553,8003,VNB,C,12
13,test,5,0.0,1-Back,1,z,Fri Jan 31 2025 10:34:04 GMT-0600 (Central Standard Time),325296.0,014_m_m_h_a.png,I,z,586,14,2,1662.6000000014901,323633.3999999985,8003,VNB,C,13
14,test,5,1.0,1-Back,1,m,Fri Jan 31 2025 10:34:04 GMT-0600 (Central Standard Time),327011.8999999985,012_o_f_d_a.png,I,m,648,15,2,1712.2000000029802,325299.69999999553,8003,VNB,C,14
14,test,5,0.0,1-Back,0,m,Fri Jan 31 2025 10:34:04 GMT-0600 (Central Standard Time),329212.3999999985,025_y_m_n_a.png,I,z,1140,16,2,2196.60000000149,327015.799999997,8003,VNB,C,15
15,test,5,0.0,1-Back,1,m,Fri Jan 31 2025 10:34:04 GMT-0600 (Central Standard Time),330910.8999999985,022_y_f_h_a.png,I,m,620,17,2,1694.6000000014901,329216.299999997,8003,VNB,C,16
16,test,5,0.0,1-Back,1,m,Fri Jan 31 2025 10:34:04 GMT-0600 (Central Standard Time),332660.5,014_m_m_d_a.png,I,m,690,18,2,1746.3000000044703,330914.19999999553,8003,VNB,C,17
0,prac,1,0.0,2-Back,,,Fri Jan 31 2025 10:34:04 GMT-0600 (Central Standard Time),332660.5,019_m_f_n_a.png,I,space,3949,1,2,1746.3000000044703,330914.19999999553,8003,VNB,C,0
0,prac,1,0.0,2-Back,,,Fri Jan 31 2025 10:34:04 GMT-0600 (Central Standard Time),332660.5,012_o_f_h_a.png,I,space,3949,2,2,1746.3000000044703,330914.19999999553,8003,VNB,C,0
1,prac,1,0.0,2-Back,1,m,Fri Jan 31 2025 10:34:04 GMT-0600 (Central Standard Time),432146.19999999553,015_o_m_d_a.png,I,m,1317,3,2,2210.39999999851,429935.799999997,8003,VNB,C,1
2,prac,1,1.0,2-Back,1,z,Fri Jan 31 2025 10:34:04 GMT-0600 (Central Standard Time),434078.799999997,014_m_m_h_a.png,I,z,1058,4,2,1927.1000000014901,432151.69999999553,8003,VNB,C,2
3,prac,1,0.0,2-Back,1,m,Fri Jan 31 2025 10:34:04 GMT-0600 (Central Standard Time),436177.8999999985,022_y_f_n_a.png,I,m,1193,5,2,2093.60000000149,434084.299999997,8003,VNB,C,3
3,prac,1,1.0,2-Back,0,z,Fri Jan 31 2025 10:34:04 GMT-0600 (Central Standard Time),438294.1000000015,015_o_m_h_a.png,I,m,1222,6,2,2111.4000000059605,436182.69999999553,8003,VNB,C,4
3,prac,1,1.0,2-Back,0,z,Fri Jan 31 2025 10:34:04 GMT-0600 (Central Standard Time),440311.299999997,025_y_m_n_a.png,I,m,1141,7,2,2010.7999999970198,438300.5,8003,VNB,C,5
4,prac,1,0.0,2-Back,1,m,Fri Jan 31 2025 10:34:04 GMT-0600 (Central Standard Time),442276.299999997,019_m_f_d_a.png,I,m,1073,8,2,1959.2999999970198,440317.0,8003,VNB,C,6
4,prac,1,0.0,2-Back,0,m,Fri Jan 31 2025 10:34:04 GMT-0600 (Central Standard Time),444109.19999999553,012_o_f_d_a.png,I,z,945,9,2,1827.8999999985099,442281.299999997,8003,VNB,C,7
5,prac,1,0.0,2-Back,1,m,Fri Jan 31 2025 10:34:04 GMT-0600 (Central Standard Time),446274.8999999985,014_m_m_h_a.png,I,m,1392,10,2,2160.2000000029802,444114.69999999553,8003,VNB,C,8
6,prac,1,1.0,2-Back,1,z,Fri Jan 31 2025 10:34:04 GMT-0600 (Central Standard Time),448274.3999999985,022_y_f_d_a.png,I,z,1091,11,2,1994.2000000029802,446280.19999999553,8003,VNB,C,9
7,prac,1,0.0,2-Back,1,m,Fri Jan 31 2025 10:34:04 GMT-0600 (Central Standard Time),450240.299999997,015_o_m_n_a.png,I,m,1069,12,2,1961.1000000014901,448279.19999999553,8003,VNB,C,10
0,test,1,0.0,2-Back,,,Fri Jan 31 2025 10:34:04 GMT-0600 (Central Standard Time),450240.299999997,025_y_m_h_a.png,I,space,7789,1,2,1961.1000000014901,448279.19999999553,8003,VNB,C,0
0,test,1,0.0,2-Back,,,Fri Jan 31 2025 10:34:04 GMT-0600 (Central Standard Time),450240.299999997,012_o_f_n_a.png,I,space,7789,2,2,1961.1000000014901,448279.19999999553,8003,VNB,C,0
1,test,1,0.0,2-Back,1,z,Fri Jan 31 2025 10:34:04 GMT-0600 (Central Standard Time),472949.8999999985,015_o_m_h_a.png,I,z,1222,3,2,2245.5,470704.3999999985,8003,VNB,C,1
2,test,1,0.0,2-Back,1,m,Fri Jan 31 2025 10:34:04 GMT-0600 (Central Standard Time),475349.8999999985,019_m_f_d_a.png,I,m,1380,4,2,2396.39999999851,472953.5,8003,VNB,C,2
3,test,1,1.0,2-Back,1,m,Fri Jan 31 2025 10:34:04 GMT-0600 (Central Standard Time),477198.3999999985,025_y_m_n_a.png,I,m,821,5,2,1844.7999999970198,475353.6000000015,8003,VNB,C,3
4,test,1,0.0,2-Back,1,z,Fri Jan 31 2025 10:34:04 GMT-0600 (Central Standard Time),478947.8999999985,022_y_f_d_a.png,I,z,723,6,2,1745.7999999970198,477202.1000000015,8003,VNB,C,4
5,test,1,0.0,2-Back,1,m,Fri Jan 31 2025 10:34:04 GMT-0600 (Central Standard Time),480947.19999999553,014_m_m_h_a.png,I,m,974,7,2,1995.1999999955297,478952.0,8003,VNB,C,5
5,test,1,1.0,2-Back,0,m,Fri Jan 31 2025 10:34:04 GMT-0600 (Central Standard Time),483280.0,022_y_f_n_a.png,I,z,1303,8,2,2329.0,480951.0,8003,VNB,C,6
6,test,1,0.0,2-Back,1,z,Fri Jan 31 2025 10:34:04 GMT-0600 (Central Standard Time),485429.1000000015,012_o_f_h_a.png,I,z,1122,9,2,2145.4000000059605,483283.69999999553,8003,VNB,C,7
6,test,1,0.0,2-Back,0,m,Fri Jan 31 2025 10:34:04 GMT-0600 (Central Standard Time),487728.3999999985,015_o_m_d_a.png,I,z,1276,10,2,2295.5,485432.8999999985,8003,VNB,C,8
7,test,1,1.0,2-Back,1,m,Fri Jan 31 2025 10:34:04 GMT-0600 (Central Standard Time),489977.799999997,014_m_m_d_a.png,I,m,1093,11,2,2245.60000000149,487732.19999999553,8003,VNB,C,9
8,test,1,0.0,2-Back,1,m,Fri Jan 31 2025 10:34:04 GMT-0600 (Central Standard Time),492460.19999999553,019_m_f_n_a.png,I,m,1464,12,2,2478.5,489981.69999999553,8003,VNB,C,10
8,test,1,0.0,2-Back,0,m,Fri Jan 31 2025 10:34:04 GMT-0600 (Central Standard Time),495092.799999997,022_y_f_h_a.png,I,z,1606,13,2,2628.60000000149,492464.19999999553,8003,VNB,C,11
8,test,1,0.0,2-Back,0,z,Fri Jan 31 2025 10:34:04 GMT-0600 (Central Standard Time),497375.5,014_m_m_n_a.png,I,m,1253,14,2,2279.0,495096.5,8003,VNB,C,12
9,test,1,0.0,2-Back,1,m,Fri Jan 31 2025 10:34:04 GMT-0600 (Central Standard Time),499491.3999999985,025_y_m_d_a.png,I,m,1082,15,2,2112.5,497378.8999999985,8003,VNB,C,13
9,test,1,1.0,2-Back,0,m,Fri Jan 31 2025 10:34:04 GMT-0600 (Central Standard Time),501540.8999999985,019_m_f_h_a.png,I,z,1022,16,2,2045.8999999985099,499495.0,8003,VNB,C,14
10,test,1,0.0,2-Back,1,z,Fri Jan 31 2025 10:34:04 GMT-0600 (Central Standard Time),503407.1000000015,012_o_f_d_a.png,I,z,837,17,2,1862.5,501544.6000000015,8003,VNB,C,15
11,test,1,0.0,2-Back,1,m,Fri Jan 31 2025 10:34:04 GMT-0600 (Central Standard Time),505273.1000000015,015_o_m_n_a.png,I,m,843,18,2,1862.5,503410.6000000015,8003,VNB,C,16
0,test,2,0.0,2-Back,,,Fri Jan 31 2025 10:34:04 GMT-0600 (Central Standard Time),505273.1000000015,014_m_m_h_a.png,I,space,2978,1,2,1862.5,503410.6000000015,8003,VNB,C,0
0,test,2,0.0,2-Back,,,Fri Jan 31 2025 10:34:04 GMT-0600 (Central Standard Time),505273.1000000015,022_y_f_n_a.png,I,space,2978,2,2,1862.5,503410.6000000015,8003,VNB,C,0
1,test,2,1.0,2-Back,1,z,Fri Jan 31 2025 10:34:04 GMT-0600 (Central Standard Time),515836.3999999985,012_o_f_h_a.png,I,z,1281,3,2,2312.10000000149,513524.299999997,8003,VNB,C,1
2,test,2,0.0,2-Back,1,m,Fri Jan 31 2025 10:34:04 GMT-0600 (Central Standard Time),517852.299999997,015_o_m_d_a.png,I,m,981,4,2,2011.8999999985099,515840.3999999985,8003,VNB,C,2
2,test,2,0.0,2-Back,0,m,Fri Jan 31 2025 10:34:04 GMT-0600 (Central Standard Time),519935.1000000015,019_m_f_d_a.png,I,z,1062,5,2,2079.4000000059605,517855.69999999553,8003,VNB,C,3
3,test,2,0.0,2-Back,1,m,Fri Jan 31 2025 10:34:04 GMT-0600 (Central Standard Time),522484.299999997,025_y_m_h_a.png,I,m,1531,6,2,2545.39999999851,519938.8999999985,8003,VNB,C,4
3,test,2,0.0,2-Back,0,m,Fri Jan 31 2025 10:34:04 GMT-0600 (Central Standard Time),524800.1000000015,012_o_f_n_a.png,I,z,1285,7,2,2312.10000000149,522488.0,8003,VNB,C,5
4,test,2,1.0,2-Back,1,z,Fri Jan 31 2025 10:34:04 GMT-0600 (Central Standard Time),526582.8999999985,015_o_m_h_a.png,I,z,762,8,2,1779.0,524803.8999999985,8003,VNB,C,6
5,test,2,0.0,2-Back,1,m,Fri Jan 31 2025 10:34:04 GMT-0600 (Central Standard Time),528599.0,022_y_f_d_a.png,I,m,995,9,2,2012.3999999985099,526586.6000000015,8003,VNB,C,7
6,test,2,0.0,2-Back,1,m,Fri Jan 31 2025 10:34:04 GMT-0600 (Central Standard Time),530998.1999999955,025_y_m_d_a.png,I,m,1371,10,2,2395.2999999970198,528602.8999999985,8003,VNB,C,8
7,test,2,0.0,2-Back,1,m,Fri Jan 31 2025 10:34:04 GMT-0600 (Central Standard Time),533164.5,014_m_m_n_a.png,I,m,1140,11,2,2163.10000000149,531001.3999999985,8003,VNB,C,9
8,test,2,0.0,2-Back,1,m,Fri Jan 31 2025 10:34:04 GMT-0600 (Central Standard Time),535446.8999999985,019_m_f_h_a.png,I,m,1253,12,2,2278.7999999970198,533168.1000000015,8003,VNB,C,10
9,test,2,1.0,2-Back,1,z,Fri Jan 31 2025 10:34:04 GMT-0600 (Central Standard Time),537279.5,015_o_m_n_a.png,I,z,811,13,2,1828.3999999985099,535451.1000000015,8003,VNB,C,11
10,test,2,0.0,2-Back,1,m,Fri Jan 31 2025 10:34:04 GMT-0600 (Central Standard Time),539428.8999999985,012_o_f_d_a.png,I,m,1122,14,2,2145.60000000149,537283.299999997,8003,VNB,C,12
10,test,2,0.0,2-Back,0,m,Fri Jan 31 2025 10:34:04 GMT-0600 (Central Standard Time),541778.3999999985,022_y_f_h_a.png,I,z,1317,15,2,2345.60000000149,539432.799999997,8003,VNB,C,13
11,test,2,0.0,2-Back,1,z,Fri Jan 31 2025 10:34:04 GMT-0600 (Central Standard Time),544260.799999997,014_m_m_d_a.png,I,z,1456,16,2,2478.60000000149,541782.1999999955,8003,VNB,C,14
12,test,2,0.0,2-Back,1,m,Fri Jan 31 2025 10:34:04 GMT-0600 (Central Standard Time),546626.6999999955,025_y_m_n_a.png,I,m,1341,17,2,2362.0,544264.6999999955,8003,VNB,C,15
13,test,2,1.0,2-Back,1,m,Fri Jan 31 2025 10:34:04 GMT-0600 (Central Standard Time),548792.6000000015,019_m_f_n_a.png,I,m,1135,18,2,2162.0,546630.6000000015,8003,VNB,C,16
0,test,3,1.0,2-Back,,,Fri Jan 31 2025 10:34:04 GMT-0600 (Central Standard Time),548792.6000000015,015_o_m_n_a.png,I,space,3674,1,2,2162.0,546630.6000000015,8003,VNB,C,0
0,test,3,1.0,2-Back,,,Fri Jan 31 2025 10:34:04 GMT-0600 (Central Standard Time),548792.6000000015,012_o_f_d_a.png,I,space,3674,2,2,2162.0,546630.6000000015,8003,VNB,C,0
1,test,3,0.0,2-Back,1,m,Fri Jan 31 2025 10:34:04 GMT-0600 (Central Standard Time),559872.5,022_y_f_h_a.png,I,m,1093,3,2,2112.3000000044703,557760.1999999955,8003,VNB,C,1
2,test,3,0.0,2-Back,1,z,Fri Jan 31 2025 10:34:04 GMT-0600 (Central Standard Time),561938.6000000015,019_m_f_d_a.png,I,z,1033,4,2,2062.3000000044703,559876.299999997,8003,VNB,C,2
2,test,3,1.0,2-Back,0,m,Fri Jan 31 2025 10:34:04 GMT-0600 (Central Standard Time),564171.0,025_y_m_n_a.png,I,z,1199,5,2,2228.8000000044703,561942.1999999955,8003,VNB,C,3
2,test,3,0.0,2-Back,0,m,Fri Jan 31 2025 10:34:04 GMT-0600 (Central Standard Time),565920.6000000015,015_o_m_h_a.png,I,z,727,6,2,1746.2000000029802,564174.3999999985,8003,VNB,C,4
3,test,3,0.0,2-Back,1,z,Fri Jan 31 2025 10:34:04 GMT-0600 (Central Standard Time),567870.1000000015,022_y_f_n_a.png,I,z,921,7,2,1945.8000000044703,565924.299999997,8003,VNB,C,5
4,test,3,1.0,2-Back,1,m,Fri Jan 31 2025 10:34:04 GMT-0600 (Central Standard Time),569802.6999999955,014_m_m_d_a.png,I,m,900,8,2,1928.6999999955297,567874.0,8003,VNB,C,6
5,test,3,0.0,2-Back,1,m,Fri Jan 31 2025 10:34:04 GMT-0600 (Central Standard Time),572185.299999997,025_y_m_d_a.png,I,m,1352,9,2,2378.5,569806.799999997,8003,VNB,C,7
6,test,3,0.0,2-Back,1,m,Fri Jan 31 2025 10:34:04 GMT-0600 (Central Standard Time),574184.8999999985,012_o_f_h_a.png,I,m,968,10,2,1996.2000000029802,572188.6999999955,8003,VNB,C,8
6,test,3,1.0,2-Back,0,m,Fri Jan 31 2025 10:34:04 GMT-0600 (Central Standard Time),576150.799999997,019_m_f_n_a.png,I,z,945,11,2,1962.1999999955297,574188.6000000015,8003,VNB,C,9
7,test,3,1.0,2-Back,1,z,Fri Jan 31 2025 10:34:04 GMT-0600 (Central Standard Time),578266.799999997,014_m_m_h_a.png,I,z,1091,12,2,2112.1999999955297,576154.6000000015,8003,VNB,C,10
8,test,3,0.0,2-Back,1,m,Fri Jan 31 2025 10:34:04 GMT-0600 (Central Standard Time),580632.6999999955,022_y_f_d_a.png,I,m,1335,13,2,2362.0,578270.6999999955,8003,VNB,C,11
8,test,3,0.0,2-Back,0,m,Fri Jan 31 2025 10:34:04 GMT-0600 (Central Standard Time),583109.8999999985,012_o_f_n_a.png,I,z,1312,14,2,2473.39999999851,580636.5,8003,VNB,C,12
9,test,3,0.0,2-Back,1,z,Fri Jan 31 2025 10:34:04 GMT-0600 (Central Standard Time),585947.799999997,015_o_m_d_a.png,I,z,1806,15,2,2833.39999999851,583114.3999999985,8003,VNB,C,13
9,test,3,1.0,2-Back,0,m,Fri Jan 31 2025 10:34:04 GMT-0600 (Central Standard Time),588080.1999999955,019_m_f_h_a.png,I,z,1068,16,2,2128.6999999955297,585951.5,8003,VNB,C,14
10,test,3,0.0,2-Back,1,m,Fri Jan 31 2025 10:34:04 GMT-0600 (Central Standard Time),589913.1000000015,014_m_m_n_a.png,I,m,801,17,2,1828.6000000014901,588084.5,8003,VNB,C,15
11,test,3,0.0,2-Back,1,z,Fri Jan 31 2025 10:34:04 GMT-0600 (Central Standard Time),592828.8999999985,025_y_m_h_a.png,I,z,1839,18,2,2911.7000000029802,589917.1999999955,8003,VNB,C,16
0,test,4,0.0,2-Back,,,Fri Jan 31 2025 10:34:04 GMT-0600 (Central Standard Time),592828.8999999985,019_m_f_n_a.png,I,space,4102,1,2,2911.7000000029802,589917.1999999955,8003,VNB,C,0
0,test,4,0.0,2-Back,,,Fri Jan 31 2025 10:34:04 GMT-0600 (Central Standard Time),592828.8999999985,015_o_m_n_a.png,I,space,4102,2,2,2911.7000000029802,589917.1999999955,8003,VNB,C,0
1,test,4,1.0,2-Back,1,m,Fri Jan 31 2025 10:34:04 GMT-0600 (Central Standard Time),604475.6999999955,025_y_m_h_a.png,I,m,1224,3,2,2245.6999999955297,602230.0,8003,VNB,C,1
2,test,4,1.0,2-Back,1,m,Fri Jan 31 2025 10:34:04 GMT-0600 (Central Standard Time),607340.799999997,012_o_f_d_a.png,I,m,1846,4,2,2861.6999999955297,604479.1000000015,8003,VNB,C,2
3,test,4,0.0,2-Back,1,z,Fri Jan 31 2025 10:34:04 GMT-0600 (Central Standard Time),609640.1999999955,015_o_m_h_a.png,I,z,1269,5,2,2295.6999999955297,607344.5,8003,VNB,C,3
4,test,4,0.0,2-Back,1,m,Fri Jan 31 2025 10:34:04 GMT-0600 (Central Standard Time),612572.6999999955,014_m_m_n_a.png,I,m,1913,6,2,2928.7999999970198,609643.8999999985,8003,VNB,C,4
4,test,4,0.0,2-Back,0,m,Fri Jan 31 2025 10:34:04 GMT-0600 (Central Standard Time),615055.299999997,019_m_f_d_a.png,I,z,1452,7,2,2478.6999999955297,612576.6000000015,8003,VNB,C,5
5,test,4,0.0,2-Back,1,z,Fri Jan 31 2025 10:34:04 GMT-0600 (Central Standard Time),617404.3999999985,022_y_f_n_a.png,I,z,1330,8,2,2345.39999999851,615059.0,8003,VNB,C,6
6,test,4,1.0,2-Back,1,m,Fri Jan 31 2025 10:34:04 GMT-0600 (Central Standard Time),619154.1000000015,012_o_f_h_a.png,I,m,717,9,2,1746.7000000029802,617407.3999999985,8003,VNB,C,7
7,test,4,0.0,2-Back,1,m,Fri Jan 31 2025 10:34:04 GMT-0600 (Central Standard Time),621503.1000000015,014_m_m_h_a.png,I,m,1320,10,2,2345.5,619157.6000000015,8003,VNB,C,8
8,test,4,0.0,2-Back,1,m,Fri Jan 31 2025 10:34:04 GMT-0600 (Central Standard Time),624252.3999999985,022_y_f_d_a.png,I,m,1722,11,2,2745.60000000149,621506.799999997,8003,VNB,C,9
9,test,4,0.0,2-Back,1,m,Fri Jan 31 2025 10:34:04 GMT-0600 (Central Standard Time),626734.8999999985,025_y_m_n_a.png,I,m,1462,12,2,2478.60000000149,624256.299999997,8003,VNB,C,10
9,test,4,0.0,2-Back,0,z,Fri Jan 31 2025 10:34:04 GMT-0600 (Central Standard Time),629000.8999999985,015_o_m_d_a.png,I,m,1235,13,2,2262.2000000029802,626738.6999999955,8003,VNB,C,11
10,test,4,1.0,2-Back,1,m,Fri Jan 31 2025 10:34:04 GMT-0600 (Central Standard Time),631316.799999997,019_m_f_h_a.png,I,m,1248,14,2,2312.1999999955297,629004.6000000015,8003,VNB,C,12
10,test,4,1.0,2-Back,0,m,Fri Jan 31 2025 10:34:04 GMT-0600 (Central Standard Time),634349.299999997,022_y_f_h_a.png,I,None,2014,15,2,3028.89999999851,631320.3999999985,8003,VNB,C,13
11,test,4,0.0,2-Back,1,m,Fri Jan 31 2025 10:34:04 GMT-0600 (Central Standard Time),636864.8999999985,012_o_f_n_a.png,I,m,1492,16,2,2511.89999999851,634353.0,8003,VNB,C,14
11,test,4,0.0,2-Back,0,m,Fri Jan 31 2025 10:34:04 GMT-0600 (Central Standard Time),639064.3999999985,025_y_m_d_a.png,I,z,1169,17,2,2195.60000000149,636868.799999997,8003,VNB,C,15
12,test,4,1.0,2-Back,1,m,Fri Jan 31 2025 10:34:04 GMT-0600 (Central Standard Time),641447.0,014_m_m_d_a.png,I,m,1353,18,2,2378.89999999851,639068.1000000015,8003,VNB,C,16
0,test,5,1.0,2-Back,,,Fri Jan 31 2025 10:34:04 GMT-0600 (Central Standard Time),641447.0,022_y_f_d_a.png,I,space,3452,1,2,2378.89999999851,639068.1000000015,8003,VNB,C,0
0,test,5,1.0,2-Back,,,Fri Jan 31 2025 10:34:04 GMT-0600 (Central Standard Time),641447.0,012_o_f_h_a.png,I,space,3452,2,2,2378.89999999851,639068.1000000015,8003,VNB,C,0
1,test,5,1.0,2-Back,1,z,Fri Jan 31 2025 10:34:04 GMT-0600 (Central Standard Time),652310.3999999985,015_o_m_d_a.png,I,z,1104,3,2,2128.39999999851,650182.0,8003,VNB,C,1
2,test,5,1.0,2-Back,1,m,Fri Jan 31 2025 10:34:04 GMT-0600 (Central Standard Time),654192.8999999985,019_m_f_n_a.png,I,m,859,4,2,1879.2000000029802,652313.6999999955,8003,VNB,C,2
2,test,5,0.0,2-Back,0,m,Fri Jan 31 2025 10:34:04 GMT-0600 (Central Standard Time),656410.1999999955,014_m_m_h_a.png,I,z,1193,5,2,2213.0999999940395,654197.1000000015,8003,VNB,C,3
3,test,5,0.0,2-Back,1,z,Fri Jan 31 2025 10:34:04 GMT-0600 (Central Standard Time),658375.1000000015,022_y_f_n_a.png,I,z,937,6,2,1960.9000000059605,656414.1999999955,8003,VNB,C,4
4,test,5,0.0,2-Back,1,m,Fri Jan 31 2025 10:34:04 GMT-0600 (Central Standard Time),660291.1000000015,012_o_f_d_a.png,I,m,891,7,2,1912.0,658379.1000000015,8003,VNB,C,5
5,test,5,0.0,2-Back,1,m,Fri Jan 31 2025 10:34:04 GMT-0600 (Central Standard Time),662340.3999999985,015_o_m_h_a.png,I,m,1021,8,2,2045.5,660294.8999999985,8003,VNB,C,6
5,test,5,1.0,2-Back,0,z,Fri Jan 31 2025 10:34:04 GMT-0600 (Central Standard Time),664723.1999999955,019_m_f_d_a.png,I,m,1349,9,2,2379.0,662344.1999999955,8003,VNB,C,7
5,test,5,0.0,2-Back,0,m,Fri Jan 31 2025 10:34:04 GMT-0600 (Central Standard Time),666755.6999999955,025_y_m_n_a.png,I,z,973,10,2,2028.5999999940395,664727.1000000015,8003,VNB,C,8
6,test,5,0.0,2-Back,1,m,Fri Jan 31 2025 10:34:04 GMT-0600 (Central Standard Time),668838.3999999985,014_m_m_n_a.png,I,m,1029,11,2,2078.89999999851,666759.5,8003,VNB,C,9
7,test,5,0.0,2-Back,1,m,Fri Jan 31 2025 10:34:04 GMT-0600 (Central Standard Time),671754.299999997,022_y_f_h_a.png,I,m,1850,12,2,2912.0,668842.299999997,8003,VNB,C,10
8,test,5,0.0,2-Back,1,m,Fri Jan 31 2025 10:34:04 GMT-0600 (Central Standard Time),673787.0,025_y_m_d_a.png,I,m,950,13,2,2028.2000000029802,671758.799999997,8003,VNB,C,11
9,test,5,1.0,2-Back,1,z,Fri Jan 31 2025 10:34:04 GMT-0600 (Central Standard Time),675286.6000000015,019_m_f_h_a.png,I,z,445,14,2,1495.9000000059605,673790.6999999955,8003,VNB,C,12
10,test,5,0.0,2-Back,1,m,Fri Jan 31 2025 10:34:04 GMT-0600 (Central Standard Time),677335.6000000015,015_o_m_n_a.png,I,m,1019,15,2,2045.2000000029802,675290.3999999985,8003,VNB,C,13
10,test,5,0.0,2-Back,0,m,Fri Jan 31 2025 10:34:04 GMT-0600 (Central Standard Time),679551.6999999955,014_m_m_d_a.png,I,z,1136,16,2,2212.5,677339.1999999955,8003,VNB,C,14
10,test,5,0.0,2-Back,0,z,Fri Jan 31 2025 10:34:04 GMT-0600 (Central Standard Time),681817.6999999955,012_o_f_n_a.png,I,m,1207,17,2,2262.1999999955297,679555.5,8003,VNB,C,15
11,test,5,1.0,2-Back,1,m,Fri Jan 31 2025 10:34:04 GMT-0600 (Central Standard Time),684083.799999997,025_y_m_h_a.png,I,m,1199,18,2,2262.60000000149,681821.1999999955,8003,VNB,C,16
