acc_sum,block,block_c,change,condition,correct,correct_response,datetime,endtime,face,project,response,response_time,row_sel,session_number,start_end,starttime,subject_id,task,task_vers,trial
0,prac,1,,1-Back,,,Wed Apr 23 2025 15:29:51 GMT-0500 (Central Daylight Time),,005_o_f_d_a.png,I,space,5509,1,3,,,8008,VNB,B,0
1,prac,1,0.0,1-Back,1,m,Wed Apr 23 2025 15:29:51 GMT-0500 (Central Daylight Time),111405.40000000037,020_y_f_n_a.png,I,m,1492,2,3,2356.2000000001863,109049.20000000019,8008,VNB,B,1
2,prac,1,0.0,1-Back,1,m,Wed Apr 23 2025 15:29:51 GMT-0500 (Central Daylight Time),113673.0,007_m_m_h_a.png,I,m,1358,3,3,2243.0,111430.0,8008,VNB,B,2
3,prac,1,0.0,1-Back,1,m,Wed Apr 23 2025 15:29:51 GMT-0500 (Central Daylight Time),115537.70000000019,016_y_m_d_a.png,I,m,955,4,3,1839.0,113698.70000000019,8008,VNB,B,3
4,prac,1,0.0,1-Back,1,m,Wed Apr 23 2025 15:29:51 GMT-0500 (Central Daylight Time),117754.30000000075,005_o_f_n_a.png,I,m,1319,5,3,2192.2000000001863,115562.10000000056,8008,VNB,B,4
5,prac,1,1.0,1-Back,1,z,Wed Apr 23 2025 15:29:51 GMT-0500 (Central Daylight Time),119567.10000000056,016_y_m_n_a.png,I,z,904,6,3,1787.9000000003725,117779.20000000019,8008,VNB,B,5
6,prac,1,0.0,1-Back,1,m,Wed Apr 23 2025 15:29:51 GMT-0500 (Central Daylight Time),121584.20000000019,004_o_m_h_a.png,I,m,1130,7,3,1990.5,119593.70000000019,8008,VNB,B,6
7,prac,1,0.0,1-Back,1,m,Wed Apr 23 2025 15:29:51 GMT-0500 (Central Daylight Time),123420.80000000075,011_m_f_d_a.png,I,m,931,8,3,1811.5,121609.30000000075,8008,VNB,B,7
8,prac,1,1.0,1-Back,1,z,Wed Apr 23 2025 15:29:51 GMT-0500 (Central Daylight Time),125600.80000000075,020_y_f_d_a.png,I,z,1289,9,3,2155.300000000745,123445.5,8008,VNB,B,8
9,prac,1,0.0,1-Back,1,m,Wed Apr 23 2025 15:29:51 GMT-0500 (Central Daylight Time),127667.60000000056,007_m_m_n_a.png,I,m,1159,10,3,2042.0,125625.60000000056,8008,VNB,B,9
10,prac,1,0.0,1-Back,1,m,Wed Apr 23 2025 15:29:51 GMT-0500 (Central Daylight Time),129766.90000000037,005_o_f_h_a.png,I,m,1203,11,3,2074.9000000003725,127692.0,8008,VNB,B,10
11,prac,1,0.0,1-Back,1,m,Wed Apr 23 2025 15:29:51 GMT-0500 (Central Daylight Time),131849.80000000075,016_y_m_d_a.png,I,m,1183,12,3,2058.100000000559,129791.70000000019,8008,VNB,B,11
0,test,1,0.0,1-Back,,,Wed Apr 23 2025 15:29:51 GMT-0500 (Central Daylight Time),131849.80000000075,020_y_f_d_a.png,I,space,5942,1,3,2058.100000000559,129791.70000000019,8008,VNB,B,0
1,test,1,0.0,1-Back,1,m,Wed Apr 23 2025 15:29:51 GMT-0500 (Central Daylight Time),153008.90000000037,011_m_f_n_a.png,I,m,1634,2,3,2658.5,150350.40000000037,8008,VNB,B,1
2,test,1,0.0,1-Back,1,m,Wed Apr 23 2025 15:29:51 GMT-0500 (Central Daylight Time),155208.40000000037,004_o_m_h_a.png,I,m,1158,3,3,2175.5999999996275,153032.80000000075,8008,VNB,B,2
3,test,1,1.0,1-Back,1,z,Wed Apr 23 2025 15:29:51 GMT-0500 (Central Daylight Time),157291.0,007_m_m_h_a.png,I,z,1040,4,3,2058.2999999998137,155232.7000000002,8008,VNB,B,3
4,test,1,0.0,1-Back,1,m,Wed Apr 23 2025 15:29:51 GMT-0500 (Central Daylight Time),159307.10000000056,005_o_f_n_a.png,I,m,967,5,3,1991.4000000003725,157315.7000000002,8008,VNB,B,4
5,test,1,0.0,1-Back,1,m,Wed Apr 23 2025 15:29:51 GMT-0500 (Central Daylight Time),161457.0,016_y_m_d_a.png,I,m,1108,6,3,2126.0,159331.0,8008,VNB,B,5
6,test,1,1.0,1-Back,1,z,Wed Apr 23 2025 15:29:51 GMT-0500 (Central Daylight Time),163771.10000000056,011_m_f_d_a.png,I,z,1280,7,3,2290.100000000559,161481.0,8008,VNB,B,6
7,test,1,0.0,1-Back,1,m,Wed Apr 23 2025 15:29:51 GMT-0500 (Central Daylight Time),166015.0,020_y_f_h_a.png,I,m,1208,8,3,2221.2999999998137,163793.7000000002,8008,VNB,B,7
8,test,1,0.0,1-Back,1,m,Wed Apr 23 2025 15:29:51 GMT-0500 (Central Daylight Time),168021.5,004_o_m_n_a.png,I,m,971,9,3,1986.5999999996275,166034.90000000037,8008,VNB,B,8
9,test,1,0.0,1-Back,1,m,Wed Apr 23 2025 15:29:51 GMT-0500 (Central Daylight Time),170203.0,016_y_m_h_a.png,I,m,1133,10,3,2157.5,168045.5,8008,VNB,B,9
10,test,1,0.0,1-Back,1,m,Wed Apr 23 2025 15:29:51 GMT-0500 (Central Daylight Time),172319.2000000002,004_o_m_d_a.png,I,m,1067,11,3,2092.899999999441,170226.30000000075,8008,VNB,B,10
11,test,1,1.0,1-Back,1,z,Wed Apr 23 2025 15:29:51 GMT-0500 (Central Daylight Time),174468.30000000075,005_o_f_d_a.png,I,z,1104,12,3,2125.600000000559,172342.7000000002,8008,VNB,B,11
12,test,1,0.0,1-Back,1,m,Wed Apr 23 2025 15:29:51 GMT-0500 (Central Daylight Time),176418.30000000075,007_m_m_n_a.png,I,m,909,13,3,1934.6000000005588,174483.7000000002,8008,VNB,B,12
13,test,1,1.0,1-Back,1,z,Wed Apr 23 2025 15:29:51 GMT-0500 (Central Daylight Time),178616.2000000002,020_y_f_n_a.png,I,z,1147,14,3,2172.399999999441,176443.80000000075,8008,VNB,B,13
14,test,1,0.0,1-Back,1,m,Wed Apr 23 2025 15:29:51 GMT-0500 (Central Daylight Time),180633.60000000056,011_m_f_h_a.png,I,m,975,15,3,1994.5,178639.10000000056,8008,VNB,B,14
15,test,1,0.0,1-Back,1,m,Wed Apr 23 2025 15:29:51 GMT-0500 (Central Daylight Time),182982.30000000075,007_m_m_d_a.png,I,m,1300,16,3,2325.300000000745,180657.0,8008,VNB,B,15
16,test,1,0.0,1-Back,1,m,Wed Apr 23 2025 15:29:51 GMT-0500 (Central Daylight Time),185565.2000000002,016_y_m_n_a.png,I,m,1549,17,3,2557.0999999996275,183008.10000000056,8008,VNB,B,16
17,test,1,0.0,1-Back,1,m,Wed Apr 23 2025 15:29:51 GMT-0500 (Central Daylight Time),187547.5,005_o_f_h_a.png,I,m,933,18,3,1958.5,185589.0,8008,VNB,B,17
0,test,2,0.0,1-Back,,,Wed Apr 23 2025 15:29:51 GMT-0500 (Central Daylight Time),187547.5,016_y_m_n_a.png,I,space,1445,1,3,1958.5,185589.0,8008,VNB,B,0
1,test,2,0.0,1-Back,1,m,Wed Apr 23 2025 15:29:51 GMT-0500 (Central Daylight Time),193162.5,020_y_f_h_a.png,I,m,1106,2,3,2125.5,191037.0,8008,VNB,B,1
2,test,2,1.0,1-Back,1,m,Wed Apr 23 2025 15:29:51 GMT-0500 (Central Daylight Time),195227.40000000037,004_o_m_n_a.png,I,m,1020,3,3,2041.0,193186.40000000037,8008,VNB,B,2
3,test,2,0.0,1-Back,1,m,Wed Apr 23 2025 15:29:51 GMT-0500 (Central Daylight Time),197312.30000000075,011_m_f_d_a.png,I,m,1043,4,3,2060.0,195252.30000000075,8008,VNB,B,3
4,test,2,0.0,1-Back,1,z,Wed Apr 23 2025 15:29:51 GMT-0500 (Central Daylight Time),199443.60000000056,007_m_m_d_a.png,I,z,1085,5,3,2106.2000000001863,197337.40000000037,8008,VNB,B,4
5,test,2,0.0,1-Back,1,m,Wed Apr 23 2025 15:29:51 GMT-0500 (Central Daylight Time),201478.10000000056,016_y_m_h_a.png,I,m,1001,6,3,2010.0,199468.10000000056,8008,VNB,B,5
6,test,2,1.0,1-Back,1,z,Wed Apr 23 2025 15:29:51 GMT-0500 (Central Daylight Time),203558.7000000002,005_o_f_h_a.png,I,z,1035,7,3,2057.2000000001863,201501.5,8008,VNB,B,6
7,test,2,0.0,1-Back,1,m,Wed Apr 23 2025 15:29:51 GMT-0500 (Central Daylight Time),205525.7000000002,011_m_f_n_a.png,I,m,927,8,3,1943.0999999996275,203582.60000000056,8008,VNB,B,7
8,test,2,0.0,1-Back,1,m,Wed Apr 23 2025 15:29:51 GMT-0500 (Central Daylight Time),207556.90000000037,020_y_f_d_a.png,I,m,995,9,3,2005.0999999996275,205551.80000000075,8008,VNB,B,8
9,test,2,0.0,1-Back,1,m,Wed Apr 23 2025 15:29:51 GMT-0500 (Central Daylight Time),209624.10000000056,007_m_m_n_a.png,I,m,1017,10,3,2045.9000000003725,207578.2000000002,8008,VNB,B,9
10,test,2,1.0,1-Back,1,m,Wed Apr 23 2025 15:29:51 GMT-0500 (Central Daylight Time),212389.60000000056,011_m_f_h_a.png,I,m,1717,11,3,2742.5,209647.10000000056,8008,VNB,B,10
11,test,2,0.0,1-Back,1,z,Wed Apr 23 2025 15:29:51 GMT-0500 (Central Daylight Time),214338.80000000075,004_o_m_h_a.png,I,z,904,12,3,1924.7000000001863,212414.10000000056,8008,VNB,B,11
12,test,2,0.0,1-Back,1,m,Wed Apr 23 2025 15:29:51 GMT-0500 (Central Daylight Time),216420.90000000037,016_y_m_d_a.png,I,m,1045,13,3,2057.7999999998137,214363.10000000056,8008,VNB,B,12
13,test,2,0.0,1-Back,1,m,Wed Apr 23 2025 15:29:51 GMT-0500 (Central Daylight Time),218620.2000000002,005_o_f_n_a.png,I,m,1163,14,3,2177.5999999996275,216442.60000000056,8008,VNB,B,13
14,test,2,0.0,1-Back,1,z,Wed Apr 23 2025 15:29:51 GMT-0500 (Central Daylight Time),220637.7000000002,020_y_f_n_a.png,I,z,970,15,3,1992.3999999994412,218645.30000000075,8008,VNB,B,14
15,test,2,1.0,1-Back,1,m,Wed Apr 23 2025 15:29:51 GMT-0500 (Central Daylight Time),222787.0,007_m_m_h_a.png,I,m,1100,16,3,2125.399999999441,220661.60000000056,8008,VNB,B,15
15,test,2,0.0,1-Back,0,m,Wed Apr 23 2025 15:29:51 GMT-0500 (Central Daylight Time),224935.7000000002,005_o_f_d_a.png,I,z,1109,17,3,2125.0,222810.7000000002,8008,VNB,B,16
16,test,2,1.0,1-Back,1,z,Wed Apr 23 2025 15:29:51 GMT-0500 (Central Daylight Time),227567.40000000037,004_o_m_d_a.png,I,z,1592,18,3,2608.5,224958.90000000037,8008,VNB,B,17
0,test,3,1.0,1-Back,,,Wed Apr 23 2025 15:29:51 GMT-0500 (Central Daylight Time),227567.40000000037,005_o_f_h_a.png,I,space,1305,1,3,2608.5,224958.90000000037,8008,VNB,B,0
1,test,3,0.0,1-Back,1,m,Wed Apr 23 2025 15:29:51 GMT-0500 (Central Daylight Time),233184.0,011_m_f_d_a.png,I,m,1133,2,3,2159.0999999996275,231024.90000000037,8008,VNB,B,1
2,test,3,1.0,1-Back,1,m,Wed Apr 23 2025 15:29:51 GMT-0500 (Central Daylight Time),235433.5,007_m_m_n_a.png,I,m,1200,3,3,2230.2999999998137,233203.2000000002,8008,VNB,B,2
3,test,3,0.0,1-Back,1,z,Wed Apr 23 2025 15:29:51 GMT-0500 (Central Daylight Time),237466.80000000075,005_o_f_n_a.png,I,z,984,4,3,2009.300000000745,235457.5,8008,VNB,B,3
4,test,3,1.0,1-Back,1,m,Wed Apr 23 2025 15:29:51 GMT-0500 (Central Daylight Time),239397.7000000002,004_o_m_d_a.png,I,m,887,5,3,1909.0,237488.7000000002,8008,VNB,B,4
5,test,3,0.0,1-Back,1,m,Wed Apr 23 2025 15:29:51 GMT-0500 (Central Daylight Time),241546.2000000002,020_y_f_h_a.png,I,m,1107,6,3,2126.0,239420.2000000002,8008,VNB,B,5
6,test,3,0.0,1-Back,1,z,Wed Apr 23 2025 15:29:51 GMT-0500 (Central Daylight Time),243562.10000000056,016_y_m_h_a.png,I,z,972,7,3,1992.2000000001863,241569.90000000037,8008,VNB,B,6
7,test,3,0.0,1-Back,1,m,Wed Apr 23 2025 15:29:51 GMT-0500 (Central Daylight Time),245295.90000000037,011_m_f_n_a.png,I,m,692,8,3,1710.0,243585.90000000037,8008,VNB,B,7
8,test,3,0.0,1-Back,1,m,Wed Apr 23 2025 15:29:51 GMT-0500 (Central Daylight Time),247579.10000000056,020_y_f_d_a.png,I,m,1232,9,3,2260.9000000003725,245318.2000000002,8008,VNB,B,8
9,test,3,1.0,1-Back,1,m,Wed Apr 23 2025 15:29:51 GMT-0500 (Central Daylight Time),249893.80000000075,004_o_m_n_a.png,I,m,1270,10,3,2289.300000000745,247604.5,8008,VNB,B,9
10,test,3,0.0,1-Back,1,m,Wed Apr 23 2025 15:29:51 GMT-0500 (Central Daylight Time),252014.5,007_m_m_h_a.png,I,m,1070,11,3,2097.399999999441,249917.10000000056,8008,VNB,B,10
11,test,3,0.0,1-Back,1,z,Wed Apr 23 2025 15:29:51 GMT-0500 (Central Daylight Time),253926.0,011_m_f_h_a.png,I,z,877,12,3,1891.199999999255,252034.80000000075,8008,VNB,B,11
12,test,3,1.0,1-Back,1,m,Wed Apr 23 2025 15:29:51 GMT-0500 (Central Daylight Time),255758.40000000037,005_o_f_d_a.png,I,m,794,13,3,1809.0999999996275,253949.30000000075,8008,VNB,B,12
13,test,3,0.0,1-Back,1,z,Wed Apr 23 2025 15:29:51 GMT-0500 (Central Daylight Time),257892.10000000056,007_m_m_d_a.png,I,z,1087,14,3,2108.2999999998137,255783.80000000075,8008,VNB,B,13
14,test,3,0.0,1-Back,1,m,Wed Apr 23 2025 15:29:51 GMT-0500 (Central Daylight Time),259873.0,016_y_m_n_a.png,I,m,941,15,3,1956.199999999255,257916.80000000075,8008,VNB,B,14
15,test,3,1.0,1-Back,1,m,Wed Apr 23 2025 15:29:51 GMT-0500 (Central Daylight Time),262405.5,004_o_m_h_a.png,I,m,1486,16,3,2507.899999999441,259897.60000000056,8008,VNB,B,15
16,test,3,0.0,1-Back,1,m,Wed Apr 23 2025 15:29:51 GMT-0500 (Central Daylight Time),264472.80000000075,016_y_m_d_a.png,I,m,1027,17,3,2046.6000000005588,262426.2000000002,8008,VNB,B,16
17,test,3,1.0,1-Back,1,m,Wed Apr 23 2025 15:29:51 GMT-0500 (Central Daylight Time),266540.2000000002,020_y_f_n_a.png,I,m,1022,18,3,2046.2999999998137,264493.9000000004,8008,VNB,B,17
0,test,4,1.0,1-Back,,,Wed Apr 23 2025 15:29:51 GMT-0500 (Central Daylight Time),266540.2000000002,007_m_m_d_a.png,I,space,1268,1,3,2046.2999999998137,264493.9000000004,8008,VNB,B,0
1,test,4,0.0,1-Back,1,z,Wed Apr 23 2025 15:29:51 GMT-0500 (Central Daylight Time),271988.2000000002,004_o_m_d_a.png,I,z,1099,2,3,2133.2000000001863,269855.0,8008,VNB,B,1
2,test,4,0.0,1-Back,1,m,Wed Apr 23 2025 15:29:51 GMT-0500 (Central Daylight Time),273786.2000000002,016_y_m_h_a.png,I,m,751,3,3,1775.5,272010.7000000002,8008,VNB,B,2
3,test,4,0.0,1-Back,1,m,Wed Apr 23 2025 15:29:51 GMT-0500 (Central Daylight Time),275736.7000000002,011_m_f_n_a.png,I,m,901,4,3,1926.0,273810.7000000002,8008,VNB,B,3
4,test,4,1.0,1-Back,1,m,Wed Apr 23 2025 15:29:51 GMT-0500 (Central Daylight Time),277752.30000000075,005_o_f_h_a.png,I,m,974,5,3,1991.0,275761.30000000075,8008,VNB,B,4
5,test,4,0.0,1-Back,1,m,Wed Apr 23 2025 15:29:51 GMT-0500 (Central Daylight Time),279567.7000000002,007_m_m_n_a.png,I,m,777,6,3,1793.0,277774.7000000002,8008,VNB,B,5
6,test,4,0.0,1-Back,1,m,Wed Apr 23 2025 15:29:51 GMT-0500 (Central Daylight Time),281602.10000000056,016_y_m_d_a.png,I,m,991,7,3,2011.2999999998137,279590.80000000075,8008,VNB,B,6
7,test,4,1.0,1-Back,1,z,Wed Apr 23 2025 15:29:51 GMT-0500 (Central Daylight Time),283533.2000000002,020_y_f_d_a.png,I,z,895,8,3,1907.5,281625.7000000002,8008,VNB,B,7
8,test,4,0.0,1-Back,1,m,Wed Apr 23 2025 15:29:51 GMT-0500 (Central Daylight Time),285299.60000000056,011_m_f_h_a.png,I,m,721,9,3,1742.7000000001863,283556.9000000004,8008,VNB,B,8
9,test,4,0.0,1-Back,1,z,Wed Apr 23 2025 15:29:51 GMT-0500 (Central Daylight Time),287115.4000000004,004_o_m_h_a.png,I,z,766,10,3,1791.7000000001863,285323.7000000002,8008,VNB,B,9
10,test,4,1.0,1-Back,1,m,Wed Apr 23 2025 15:29:51 GMT-0500 (Central Daylight Time),288966.10000000056,005_o_f_n_a.png,I,m,804,11,3,1825.5,287140.60000000056,8008,VNB,B,10
10,test,4,0.0,1-Back,0,m,Wed Apr 23 2025 15:29:51 GMT-0500 (Central Daylight Time),291481.80000000075,011_m_f_d_a.png,I,z,1466,12,3,2491.4000000003725,288990.4000000004,8008,VNB,B,11
11,test,4,0.0,1-Back,1,m,Wed Apr 23 2025 15:29:51 GMT-0500 (Central Daylight Time),293696.5,020_y_f_n_a.png,I,m,1174,13,3,2191.199999999255,291505.30000000075,8008,VNB,B,12
12,test,4,0.0,1-Back,1,m,Wed Apr 23 2025 15:29:51 GMT-0500 (Central Daylight Time),295645.7000000002,005_o_f_d_a.png,I,m,910,14,3,1925.0,293720.7000000002,8008,VNB,B,13
13,test,4,0.0,1-Back,1,m,Wed Apr 23 2025 15:29:51 GMT-0500 (Central Daylight Time),297995.2000000002,020_y_f_h_a.png,I,m,1306,15,3,2326.5,295668.7000000002,8008,VNB,B,14
14,test,4,1.0,1-Back,1,z,Wed Apr 23 2025 15:29:51 GMT-0500 (Central Daylight Time),299762.4000000004,007_m_m_h_a.png,I,z,718,16,3,1743.9000000003725,298018.5,8008,VNB,B,15
15,test,4,0.0,1-Back,1,m,Wed Apr 23 2025 15:29:51 GMT-0500 (Central Daylight Time),302028.2000000002,004_o_m_n_a.png,I,m,1232,17,3,2243.399999999441,299784.80000000075,8008,VNB,B,16
16,test,4,1.0,1-Back,1,z,Wed Apr 23 2025 15:29:51 GMT-0500 (Central Daylight Time),304593.60000000056,016_y_m_n_a.png,I,z,1516,18,3,2542.2999999998137,302051.30000000075,8008,VNB,B,17
0,test,5,1.0,1-Back,,,Wed Apr 23 2025 15:29:51 GMT-0500 (Central Daylight Time),304593.60000000056,004_o_m_n_a.png,I,space,1471,1,3,2542.2999999998137,302051.30000000075,8008,VNB,B,0
1,test,5,1.0,1-Back,1,m,Wed Apr 23 2025 15:29:51 GMT-0500 (Central Daylight Time),310041.30000000075,005_o_f_h_a.png,I,m,900,2,3,1925.2000000001863,308116.10000000056,8008,VNB,B,1
2,test,5,0.0,1-Back,1,m,Wed Apr 23 2025 15:29:51 GMT-0500 (Central Daylight Time),311924.2000000002,016_y_m_d_a.png,I,m,837,3,3,1858.2000000001863,310066.0,8008,VNB,B,2
3,test,5,0.0,1-Back,1,z,Wed Apr 23 2025 15:29:51 GMT-0500 (Central Daylight Time),313873.9000000004,004_o_m_d_a.png,I,z,907,4,3,1926.2999999998137,311947.60000000056,8008,VNB,B,3
4,test,5,0.0,1-Back,1,m,Wed Apr 23 2025 15:29:51 GMT-0500 (Central Daylight Time),316056.60000000056,011_m_f_h_a.png,I,m,1140,5,3,2158.5,313898.10000000056,8008,VNB,B,4
5,test,5,0.0,1-Back,1,m,Wed Apr 23 2025 15:29:51 GMT-0500 (Central Daylight Time),318088.2000000002,020_y_f_n_a.png,I,m,991,6,3,2008.3999999994412,316079.80000000075,8008,VNB,B,5
6,test,5,1.0,1-Back,1,z,Wed Apr 23 2025 15:29:51 GMT-0500 (Central Daylight Time),320088.10000000056,005_o_f_n_a.png,I,z,951,7,3,1979.7999999998137,318108.30000000075,8008,VNB,B,6
7,test,5,0.0,1-Back,1,m,Wed Apr 23 2025 15:29:51 GMT-0500 (Central Daylight Time),322170.7000000002,011_m_f_d_a.png,I,m,1038,8,3,2057.7999999998137,320112.9000000004,8008,VNB,B,7
8,test,5,0.0,1-Back,1,m,Wed Apr 23 2025 15:29:51 GMT-0500 (Central Daylight Time),324153.4000000004,016_y_m_h_a.png,I,m,941,9,3,1959.2999999998137,322194.10000000056,8008,VNB,B,8
9,test,5,0.0,1-Back,1,m,Wed Apr 23 2025 15:29:51 GMT-0500 (Central Daylight Time),326186.5,020_y_f_d_a.png,I,m,988,10,3,2010.8999999994412,324175.60000000056,8008,VNB,B,9
10,test,5,0.0,1-Back,1,m,Wed Apr 23 2025 15:29:51 GMT-0500 (Central Daylight Time),328202.80000000075,007_m_m_n_a.png,I,m,972,11,3,1994.4000000003725,326208.4000000004,8008,VNB,B,10
11,test,5,1.0,1-Back,1,z,Wed Apr 23 2025 15:29:51 GMT-0500 (Central Daylight Time),330205.30000000075,011_m_f_n_a.png,I,z,968,12,3,1978.0,328227.30000000075,8008,VNB,B,11
12,test,5,0.0,1-Back,1,m,Wed Apr 23 2025 15:29:51 GMT-0500 (Central Daylight Time),332284.2000000002,004_o_m_h_a.png,I,m,1044,13,3,2054.0999999996275,330230.10000000056,8008,VNB,B,12
13,test,5,0.0,1-Back,1,z,Wed Apr 23 2025 15:29:51 GMT-0500 (Central Daylight Time),334086.0,007_m_m_h_a.png,I,z,767,14,3,1778.5999999996275,332307.4000000004,8008,VNB,B,13
14,test,5,1.0,1-Back,1,m,Wed Apr 23 2025 15:29:51 GMT-0500 (Central Daylight Time),335984.5,005_o_f_d_a.png,I,m,859,15,3,1875.0,334109.5,8008,VNB,B,14
15,test,5,0.0,1-Back,1,m,Wed Apr 23 2025 15:29:51 GMT-0500 (Central Daylight Time),338049.9000000004,016_y_m_n_a.png,I,m,1032,16,3,2039.4000000003725,336010.5,8008,VNB,B,15
16,test,5,0.0,1-Back,1,m,Wed Apr 23 2025 15:29:51 GMT-0500 (Central Daylight Time),340068.80000000075,020_y_f_h_a.png,I,m,974,17,3,1995.4000000003725,338073.4000000004,8008,VNB,B,16
17,test,5,0.0,1-Back,1,m,Wed Apr 23 2025 15:29:51 GMT-0500 (Central Daylight Time),341898.80000000075,007_m_m_d_a.png,I,m,784,18,3,1805.4000000003725,340093.4000000004,8008,VNB,B,17
0,prac,1,0.0,2-Back,,,Wed Apr 23 2025 15:29:51 GMT-0500 (Central Daylight Time),341898.80000000075,011_m_f_n_a.png,I,space,2929,1,3,1805.4000000003725,340093.4000000004,8008,VNB,B,0
0,prac,1,0.0,2-Back,,,Wed Apr 23 2025 15:29:51 GMT-0500 (Central Daylight Time),341898.80000000075,005_o_f_h_a.png,I,space,2929,2,3,1805.4000000003725,340093.4000000004,8008,VNB,B,0
0,prac,1,0.0,2-Back,0,m,Wed Apr 23 2025 15:29:51 GMT-0500 (Central Daylight Time),443398.10000000056,004_o_m_d_a.png,I,None,2013,3,3,2855.7999999998137,440542.30000000075,8008,VNB,B,1
1,prac,1,1.0,2-Back,1,z,Wed Apr 23 2025 15:29:51 GMT-0500 (Central Daylight Time),446016.2000000002,007_m_m_h_a.png,I,z,1709,4,3,2596.2999999998137,443419.9000000004,8008,VNB,B,2
2,prac,1,0.0,2-Back,1,m,Wed Apr 23 2025 15:29:51 GMT-0500 (Central Daylight Time),448065.7000000002,020_y_f_n_a.png,I,m,1179,5,3,2024.5999999996275,446041.10000000056,8008,VNB,B,3
3,prac,1,1.0,2-Back,1,z,Wed Apr 23 2025 15:29:51 GMT-0500 (Central Daylight Time),450498.30000000075,004_o_m_h_a.png,I,z,1629,6,3,2411.4000000003725,448086.9000000004,8008,VNB,B,4
3,prac,1,1.0,2-Back,0,z,Wed Apr 23 2025 15:29:51 GMT-0500 (Central Daylight Time),452478.9000000004,016_y_m_n_a.png,I,m,1076,7,3,1954.5,450524.4000000004,8008,VNB,B,5
3,prac,1,0.0,2-Back,0,m,Wed Apr 23 2025 15:29:51 GMT-0500 (Central Daylight Time),454779.30000000075,011_m_f_d_a.png,I,z,1403,8,3,2275.100000000559,452504.2000000002,8008,VNB,B,6
4,prac,1,0.0,2-Back,1,m,Wed Apr 23 2025 15:29:51 GMT-0500 (Central Daylight Time),456913.80000000075,005_o_f_d_a.png,I,m,1235,9,3,2109.0,454804.80000000075,8008,VNB,B,7
4,prac,1,0.0,2-Back,0,m,Wed Apr 23 2025 15:29:51 GMT-0500 (Central Daylight Time),459027.80000000075,007_m_m_h_a.png,I,z,1310,10,3,2089.4000000003725,456938.4000000004,8008,VNB,B,8
5,prac,1,1.0,2-Back,1,z,Wed Apr 23 2025 15:29:51 GMT-0500 (Central Daylight Time),461294.5,020_y_f_d_a.png,I,z,1381,11,3,2240.7999999998137,459053.7000000002,8008,VNB,B,9
6,prac,1,0.0,2-Back,1,m,Wed Apr 23 2025 15:29:51 GMT-0500 (Central Daylight Time),463327.80000000075,004_o_m_n_a.png,I,m,1170,12,3,2007.9000000003725,461319.9000000004,8008,VNB,B,10
0,prac,2,0.0,2-Back,,,Wed Apr 23 2025 15:29:51 GMT-0500 (Central Daylight Time),463327.80000000075,011_m_f_n_a.png,I,a,5822,1,3,2007.9000000003725,461319.9000000004,8008,VNB,B,0
0,prac,2,0.0,2-Back,,,Wed Apr 23 2025 15:29:51 GMT-0500 (Central Daylight Time),463327.80000000075,005_o_f_h_a.png,I,a,5822,2,3,2007.9000000003725,461319.9000000004,8008,VNB,B,0
0,prac,2,0.0,2-Back,0,m,Wed Apr 23 2025 15:29:51 GMT-0500 (Central Daylight Time),477271.9000000004,004_o_m_d_a.png,I,None,2012,3,3,2857.7000000001863,474414.2000000002,8008,VNB,B,1
1,prac,2,1.0,2-Back,1,z,Wed Apr 23 2025 15:29:51 GMT-0500 (Central Daylight Time),479273.0,007_m_m_h_a.png,I,z,1201,4,3,1976.8999999994412,477296.10000000056,8008,VNB,B,2
1,prac,2,0.0,2-Back,0,m,Wed Apr 23 2025 15:29:51 GMT-0500 (Central Daylight Time),481371.0,020_y_f_n_a.png,I,z,1221,5,3,2072.7999999998137,479298.2000000002,8008,VNB,B,3
2,prac,2,1.0,2-Back,1,z,Wed Apr 23 2025 15:29:51 GMT-0500 (Central Daylight Time),483319.60000000056,004_o_m_h_a.png,I,z,1071,6,3,1924.2999999998137,481395.30000000075,8008,VNB,B,4
3,prac,2,1.0,2-Back,1,z,Wed Apr 23 2025 15:29:51 GMT-0500 (Central Daylight Time),485537.2000000002,016_y_m_n_a.png,I,z,1303,7,3,2192.899999999441,483344.30000000075,8008,VNB,B,5
4,prac,2,0.0,2-Back,1,m,Wed Apr 23 2025 15:29:51 GMT-0500 (Central Daylight Time),487719.30000000075,011_m_f_d_a.png,I,m,1278,8,3,2157.300000000745,485562.0,8008,VNB,B,6
4,prac,2,0.0,2-Back,0,m,Wed Apr 23 2025 15:29:51 GMT-0500 (Central Daylight Time),489884.10000000056,005_o_f_d_a.png,I,z,1272,9,3,2139.9000000003725,487744.2000000002,8008,VNB,B,7
4,prac,2,0.0,2-Back,0,m,Wed Apr 23 2025 15:29:51 GMT-0500 (Central Daylight Time),491935.4000000004,007_m_m_h_a.png,I,z,1252,10,3,2026.9000000003725,489908.5,8008,VNB,B,8
4,prac,2,1.0,2-Back,0,z,Wed Apr 23 2025 15:29:51 GMT-0500 (Central Daylight Time),493851.10000000056,020_y_f_d_a.png,I,m,1022,11,3,1890.6000000005588,491960.5,8008,VNB,B,9
5,prac,2,0.0,2-Back,1,m,Wed Apr 23 2025 15:29:51 GMT-0500 (Central Daylight Time),496316.4000000004,004_o_m_n_a.png,I,m,1590,12,3,2440.0,493876.4000000004,8008,VNB,B,10
0,test,1,0.0,2-Back,,,Wed Apr 23 2025 15:29:51 GMT-0500 (Central Daylight Time),496316.4000000004,016_y_m_h_a.png,I,space,9765,1,3,2440.0,493876.4000000004,8008,VNB,B,0
0,test,1,0.0,2-Back,,,Wed Apr 23 2025 15:29:51 GMT-0500 (Central Daylight Time),496316.4000000004,005_o_f_n_a.png,I,space,9765,2,3,2440.0,493876.4000000004,8008,VNB,B,0
1,test,1,0.0,2-Back,1,z,Wed Apr 23 2025 15:29:51 GMT-0500 (Central Daylight Time),523307.9000000004,004_o_m_h_a.png,I,z,1471,3,3,2492.7999999998137,520815.10000000056,8008,VNB,B,1
2,test,1,0.0,2-Back,1,m,Wed Apr 23 2025 15:29:51 GMT-0500 (Central Daylight Time),525990.4000000004,011_m_f_d_a.png,I,m,1644,4,3,2658.7000000001863,523331.7000000002,8008,VNB,B,2
3,test,1,1.0,2-Back,1,m,Wed Apr 23 2025 15:29:51 GMT-0500 (Central Daylight Time),528921.9000000004,016_y_m_n_a.png,I,m,1890,5,3,2907.5999999996275,526014.3000000007,8008,VNB,B,3
3,test,1,0.0,2-Back,0,z,Wed Apr 23 2025 15:29:51 GMT-0500 (Central Daylight Time),531455.1000000006,020_y_f_d_a.png,I,m,1492,6,3,2509.7999999998137,528945.3000000007,8008,VNB,B,4
4,test,1,0.0,2-Back,1,m,Wed Apr 23 2025 15:29:51 GMT-0500 (Central Daylight Time),533669.5,007_m_m_h_a.png,I,m,1168,7,3,2188.899999999441,531480.6000000006,8008,VNB,B,5
5,test,1,1.0,2-Back,1,m,Wed Apr 23 2025 15:29:51 GMT-0500 (Central Daylight Time),535921.6000000006,020_y_f_n_a.png,I,m,1202,8,3,2228.0,533693.6000000006,8008,VNB,B,6
6,test,1,0.0,2-Back,1,z,Wed Apr 23 2025 15:29:51 GMT-0500 (Central Daylight Time),537867.7000000002,005_o_f_h_a.png,I,z,904,9,3,1921.0,535946.7000000002,8008,VNB,B,7
7,test,1,0.0,2-Back,1,m,Wed Apr 23 2025 15:29:51 GMT-0500 (Central Daylight Time),539918.6000000006,004_o_m_d_a.png,I,m,1001,10,3,2027.2999999998137,537891.3000000007,8008,VNB,B,8
8,test,1,1.0,2-Back,1,m,Wed Apr 23 2025 15:29:51 GMT-0500 (Central Daylight Time),542002.4000000004,007_m_m_d_a.png,I,m,1034,11,3,2062.0,539940.4000000004,8008,VNB,B,9
9,test,1,0.0,2-Back,1,m,Wed Apr 23 2025 15:29:51 GMT-0500 (Central Daylight Time),544384.5,011_m_f_n_a.png,I,m,1342,12,3,2357.5999999996275,542026.9000000004,8008,VNB,B,10
10,test,1,0.0,2-Back,1,m,Wed Apr 23 2025 15:29:51 GMT-0500 (Central Daylight Time),546418.1000000006,020_y_f_h_a.png,I,m,982,13,3,2010.0,544408.1000000006,8008,VNB,B,11
11,test,1,0.0,2-Back,1,z,Wed Apr 23 2025 15:29:51 GMT-0500 (Central Daylight Time),548499.5,007_m_m_n_a.png,I,z,1038,14,3,2058.899999999441,546440.6000000006,8008,VNB,B,12
12,test,1,0.0,2-Back,1,m,Wed Apr 23 2025 15:29:51 GMT-0500 (Central Daylight Time),550747.8000000007,016_y_m_d_a.png,I,m,1217,15,3,2224.300000000745,548523.5,8008,VNB,B,13
12,test,1,1.0,2-Back,0,m,Wed Apr 23 2025 15:29:51 GMT-0500 (Central Daylight Time),553113.5,011_m_f_h_a.png,I,z,1317,16,3,2343.2999999998137,550770.2000000002,8008,VNB,B,14
12,test,1,0.0,2-Back,0,z,Wed Apr 23 2025 15:29:51 GMT-0500 (Central Daylight Time),555480.0,005_o_f_d_a.png,I,m,1325,17,3,2343.0,553137.0,8008,VNB,B,15
13,test,1,0.0,2-Back,1,m,Wed Apr 23 2025 15:29:51 GMT-0500 (Central Daylight Time),557762.1000000006,004_o_m_n_a.png,I,m,1238,18,3,2257.0,555505.1000000006,8008,VNB,B,16
0,test,2,0.0,2-Back,,,Wed Apr 23 2025 15:29:51 GMT-0500 (Central Daylight Time),557762.1000000006,007_m_m_h_a.png,I,space,1751,1,3,2257.0,555505.1000000006,8008,VNB,B,0
0,test,2,0.0,2-Back,,,Wed Apr 23 2025 15:29:51 GMT-0500 (Central Daylight Time),557762.1000000006,020_y_f_n_a.png,I,space,1751,2,3,2257.0,555505.1000000006,8008,VNB,B,0
1,test,2,1.0,2-Back,1,z,Wed Apr 23 2025 15:29:51 GMT-0500 (Central Daylight Time),566826.8000000007,005_o_f_h_a.png,I,z,1023,3,3,2042.5,564784.3000000007,8008,VNB,B,1
2,test,2,0.0,2-Back,1,m,Wed Apr 23 2025 15:29:51 GMT-0500 (Central Daylight Time),569291.9000000004,004_o_m_d_a.png,I,m,1431,4,3,2444.0999999996275,566847.8000000007,8008,VNB,B,2
3,test,2,0.0,2-Back,1,m,Wed Apr 23 2025 15:29:51 GMT-0500 (Central Daylight Time),571642.1000000006,011_m_f_d_a.png,I,m,1301,5,3,2326.2999999998137,569315.8000000007,8008,VNB,B,3
4,test,2,0.0,2-Back,1,m,Wed Apr 23 2025 15:29:51 GMT-0500 (Central Daylight Time),573990.5,016_y_m_h_a.png,I,m,1301,6,3,2325.0,571665.5,8008,VNB,B,4
4,test,2,0.0,2-Back,0,m,Wed Apr 23 2025 15:29:51 GMT-0500 (Central Daylight Time),576189.7000000002,005_o_f_n_a.png,I,z,1161,7,3,2174.7000000001863,574015.0,8008,VNB,B,5
5,test,2,1.0,2-Back,1,z,Wed Apr 23 2025 15:29:51 GMT-0500 (Central Daylight Time),578355.4000000004,004_o_m_h_a.png,I,z,1128,8,3,2141.2999999998137,576214.1000000006,8008,VNB,B,6
6,test,2,0.0,2-Back,1,m,Wed Apr 23 2025 15:29:51 GMT-0500 (Central Daylight Time),580489.8000000007,020_y_f_d_a.png,I,m,1085,9,3,2111.300000000745,578378.5,8008,VNB,B,7
7,test,2,0.0,2-Back,1,m,Wed Apr 23 2025 15:29:51 GMT-0500 (Central Daylight Time),582671.8000000007,016_y_m_d_a.png,I,m,1133,10,3,2158.5,580513.3000000007,8008,VNB,B,8
7,test,2,0.0,2-Back,0,m,Wed Apr 23 2025 15:29:51 GMT-0500 (Central Daylight Time),584953.7000000002,007_m_m_n_a.png,I,z,1240,11,3,2258.5999999996275,582695.1000000006,8008,VNB,B,9
8,test,2,0.0,2-Back,1,m,Wed Apr 23 2025 15:29:51 GMT-0500 (Central Daylight Time),587268.9000000004,011_m_f_h_a.png,I,m,1279,12,3,2290.4000000003725,584978.5,8008,VNB,B,10
9,test,2,1.0,2-Back,1,z,Wed Apr 23 2025 15:29:51 GMT-0500 (Central Daylight Time),589368.5,004_o_m_n_a.png,I,z,1059,13,3,2075.899999999441,587292.6000000006,8008,VNB,B,11
10,test,2,0.0,2-Back,1,m,Wed Apr 23 2025 15:29:51 GMT-0500 (Central Daylight Time),591518.6000000006,005_o_f_d_a.png,I,m,1110,14,3,2126.0,589392.6000000006,8008,VNB,B,12
11,test,2,0.0,2-Back,1,m,Wed Apr 23 2025 15:29:51 GMT-0500 (Central Daylight Time),594018.7000000002,020_y_f_h_a.png,I,m,1450,15,3,2476.0,591542.7000000002,8008,VNB,B,13
12,test,2,0.0,2-Back,1,z,Wed Apr 23 2025 15:29:51 GMT-0500 (Central Daylight Time),596418.0,007_m_m_d_a.png,I,z,1352,16,3,2375.7999999998137,594042.2000000002,8008,VNB,B,14
13,test,2,0.0,2-Back,1,m,Wed Apr 23 2025 15:29:51 GMT-0500 (Central Daylight Time),598467.1000000006,016_y_m_n_a.png,I,m,1000,17,3,2023.6000000005588,596443.5,8008,VNB,B,15
14,test,2,1.0,2-Back,1,m,Wed Apr 23 2025 15:29:51 GMT-0500 (Central Daylight Time),600849.1000000006,011_m_f_n_a.png,I,m,1333,18,3,2357.7999999998137,598491.3000000007,8008,VNB,B,16
0,test,3,1.0,2-Back,,,Wed Apr 23 2025 15:29:51 GMT-0500 (Central Daylight Time),600849.1000000006,004_o_m_n_a.png,I,space,1734,1,3,2357.7999999998137,598491.3000000007,8008,VNB,B,0
0,test,3,1.0,2-Back,,,Wed Apr 23 2025 15:29:51 GMT-0500 (Central Daylight Time),600849.1000000006,005_o_f_d_a.png,I,space,1734,2,3,2357.7999999998137,598491.3000000007,8008,VNB,B,0
1,test,3,0.0,2-Back,1,m,Wed Apr 23 2025 15:29:51 GMT-0500 (Central Daylight Time),610145.5,020_y_f_h_a.png,I,m,1457,3,3,2476.5,607669.0,8008,VNB,B,1
2,test,3,0.0,2-Back,1,z,Wed Apr 23 2025 15:29:51 GMT-0500 (Central Daylight Time),612364.2000000002,011_m_f_d_a.png,I,z,1173,4,3,2197.0999999996275,610167.1000000006,8008,VNB,B,2
3,test,3,1.0,2-Back,1,m,Wed Apr 23 2025 15:29:51 GMT-0500 (Central Daylight Time),615127.8000000007,016_y_m_n_a.png,I,m,1716,5,3,2740.300000000745,612387.5,8008,VNB,B,3
3,test,3,0.0,2-Back,0,m,Wed Apr 23 2025 15:29:51 GMT-0500 (Central Daylight Time),617410.0,004_o_m_h_a.png,I,z,1241,6,3,2260.0,615150.0,8008,VNB,B,4
4,test,3,0.0,2-Back,1,z,Wed Apr 23 2025 15:29:51 GMT-0500 (Central Daylight Time),619875.0,020_y_f_n_a.png,I,z,1423,7,3,2440.399999999441,617434.6000000006,8008,VNB,B,5
5,test,3,1.0,2-Back,1,m,Wed Apr 23 2025 15:29:51 GMT-0500 (Central Daylight Time),622191.6000000006,007_m_m_d_a.png,I,m,1267,8,3,2292.9000000003725,619898.7000000002,8008,VNB,B,6
5,test,3,0.0,2-Back,0,m,Wed Apr 23 2025 15:29:51 GMT-0500 (Central Daylight Time),624924.3000000007,016_y_m_d_a.png,I,z,1693,9,3,2708.600000000559,622215.7000000002,8008,VNB,B,7
5,test,3,0.0,2-Back,0,m,Wed Apr 23 2025 15:29:51 GMT-0500 (Central Daylight Time),627490.2000000002,005_o_f_h_a.png,I,z,1521,10,3,2540.0999999996275,624950.1000000006,8008,VNB,B,8
6,test,3,1.0,2-Back,1,m,Wed Apr 23 2025 15:29:51 GMT-0500 (Central Daylight Time),630056.7000000002,011_m_f_n_a.png,I,m,1517,11,3,2544.2999999998137,627512.4000000004,8008,VNB,B,9
7,test,3,1.0,2-Back,1,z,Wed Apr 23 2025 15:29:51 GMT-0500 (Central Daylight Time),632005.0,007_m_m_h_a.png,I,z,911,12,3,1924.3999999994412,630080.6000000006,8008,VNB,B,10
8,test,3,0.0,2-Back,1,m,Wed Apr 23 2025 15:29:51 GMT-0500 (Central Daylight Time),634522.4000000004,020_y_f_d_a.png,I,m,1467,13,3,2493.0999999996275,632029.3000000007,8008,VNB,B,11
8,test,3,0.0,2-Back,0,m,Wed Apr 23 2025 15:29:51 GMT-0500 (Central Daylight Time),636820.1000000006,005_o_f_n_a.png,I,z,1260,14,3,2273.100000000559,634547.0,8008,VNB,B,12
9,test,3,0.0,2-Back,1,z,Wed Apr 23 2025 15:29:51 GMT-0500 (Central Daylight Time),639035.6000000006,004_o_m_d_a.png,I,z,1170,15,3,2191.0,636844.6000000006,8008,VNB,B,13
9,test,3,1.0,2-Back,0,m,Wed Apr 23 2025 15:29:51 GMT-0500 (Central Daylight Time),641435.9000000004,011_m_f_h_a.png,I,z,1354,16,3,2375.7999999998137,639060.1000000006,8008,VNB,B,14
9,test,3,0.0,2-Back,0,m,Wed Apr 23 2025 15:29:51 GMT-0500 (Central Daylight Time),643702.7000000002,007_m_m_n_a.png,I,z,1227,17,3,2241.5,641461.2000000002,8008,VNB,B,15
10,test,3,0.0,2-Back,1,z,Wed Apr 23 2025 15:29:51 GMT-0500 (Central Daylight Time),646234.5,016_y_m_h_a.png,I,z,1484,18,3,2507.399999999441,643727.1000000006,8008,VNB,B,16
0,test,4,0.0,2-Back,,,Wed Apr 23 2025 15:29:51 GMT-0500 (Central Daylight Time),646234.5,011_m_f_n_a.png,I,space,2001,1,3,2507.399999999441,643727.1000000006,8008,VNB,B,0
0,test,4,0.0,2-Back,,,Wed Apr 23 2025 15:29:51 GMT-0500 (Central Daylight Time),646234.5,004_o_m_n_a.png,I,space,2001,2,3,2507.399999999441,643727.1000000006,8008,VNB,B,0
1,test,4,1.0,2-Back,1,m,Wed Apr 23 2025 15:29:51 GMT-0500 (Central Daylight Time),655981.3000000007,016_y_m_h_a.png,I,m,1453,3,3,2473.300000000745,653508.0,8008,VNB,B,1
2,test,4,1.0,2-Back,1,m,Wed Apr 23 2025 15:29:51 GMT-0500 (Central Daylight Time),658579.7000000002,005_o_f_d_a.png,I,m,1551,4,3,2572.5,656007.2000000002,8008,VNB,B,2
2,test,4,0.0,2-Back,0,z,Wed Apr 23 2025 15:29:51 GMT-0500 (Central Daylight Time),661463.4000000004,004_o_m_h_a.png,I,m,1835,5,3,2860.0,658603.4000000004,8008,VNB,B,3
3,test,4,0.0,2-Back,1,m,Wed Apr 23 2025 15:29:51 GMT-0500 (Central Daylight Time),664061.4000000004,007_m_m_n_a.png,I,m,1560,6,3,2574.0999999996275,661487.3000000007,8008,VNB,B,4
3,test,4,0.0,2-Back,0,m,Wed Apr 23 2025 15:29:51 GMT-0500 (Central Daylight Time),666328.3000000007,011_m_f_d_a.png,I,z,1218,7,3,2244.0,664084.3000000007,8008,VNB,B,5
4,test,4,0.0,2-Back,1,z,Wed Apr 23 2025 15:29:51 GMT-0500 (Central Daylight Time),668960.6000000006,020_y_f_n_a.png,I,z,1582,8,3,2608.7999999998137,666351.8000000007,8008,VNB,B,6
4,test,4,1.0,2-Back,0,m,Wed Apr 23 2025 15:29:51 GMT-0500 (Central Daylight Time),671160.1000000006,005_o_f_h_a.png,I,z,1150,9,3,2174.7999999998137,668985.3000000007,8008,VNB,B,7
4,test,4,0.0,2-Back,0,m,Wed Apr 23 2025 15:29:51 GMT-0500 (Central Daylight Time),673309.2000000002,007_m_m_h_a.png,I,z,1104,10,3,2125.399999999441,671183.8000000007,8008,VNB,B,8
5,test,4,0.0,2-Back,1,m,Wed Apr 23 2025 15:29:51 GMT-0500 (Central Daylight Time),675707.4000000004,020_y_f_d_a.png,I,m,1362,11,3,2373.7999999998137,673333.6000000006,8008,VNB,B,9
5,test,4,0.0,2-Back,0,m,Wed Apr 23 2025 15:29:51 GMT-0500 (Central Daylight Time),678758.1000000006,016_y_m_n_a.png,I,None,2016,12,3,3025.9000000003725,675732.2000000002,8008,VNB,B,10
6,test,4,0.0,2-Back,1,z,Wed Apr 23 2025 15:29:51 GMT-0500 (Central Daylight Time),681090.1000000006,004_o_m_d_a.png,I,z,1283,13,3,2308.0,678782.1000000006,8008,VNB,B,11
7,test,4,1.0,2-Back,1,m,Wed Apr 23 2025 15:29:51 GMT-0500 (Central Daylight Time),683638.8000000007,011_m_f_h_a.png,I,m,1508,14,3,2524.0,681114.8000000007,8008,VNB,B,12
8,test,4,1.0,2-Back,1,m,Wed Apr 23 2025 15:29:51 GMT-0500 (Central Daylight Time),686054.9000000004,020_y_f_h_a.png,I,m,1369,15,3,2392.7000000001863,683662.2000000002,8008,VNB,B,13
9,test,4,0.0,2-Back,1,m,Wed Apr 23 2025 15:29:51 GMT-0500 (Central Daylight Time),688053.6000000006,005_o_f_n_a.png,I,m,960,16,3,1974.6000000005588,686079.0,8008,VNB,B,14
10,test,4,0.0,2-Back,1,m,Wed Apr 23 2025 15:29:51 GMT-0500 (Central Daylight Time),690070.2000000002,016_y_m_d_a.png,I,m,967,17,3,1992.2000000001863,688078.0,8008,VNB,B,15
11,test,4,1.0,2-Back,1,m,Wed Apr 23 2025 15:29:51 GMT-0500 (Central Daylight Time),692489.6000000006,007_m_m_d_a.png,I,m,1384,18,3,2396.7999999998137,690092.8000000007,8008,VNB,B,16
0,test,5,1.0,2-Back,,,Wed Apr 23 2025 15:29:51 GMT-0500 (Central Daylight Time),692489.6000000006,020_y_f_d_a.png,I,space,1677,1,3,2396.7999999998137,690092.8000000007,8008,VNB,B,0
0,test,5,1.0,2-Back,,,Wed Apr 23 2025 15:29:51 GMT-0500 (Central Daylight Time),692489.6000000006,005_o_f_h_a.png,I,space,1677,2,3,2396.7999999998137,690092.8000000007,8008,VNB,B,0
1,test,5,1.0,2-Back,1,z,Wed Apr 23 2025 15:29:51 GMT-0500 (Central Daylight Time),702217.2000000002,004_o_m_d_a.png,I,z,1735,3,3,2762.0,699455.2000000002,8008,VNB,B,1
2,test,5,1.0,2-Back,1,m,Wed Apr 23 2025 15:29:51 GMT-0500 (Central Daylight Time),704498.7000000002,011_m_f_n_a.png,I,m,1246,4,3,2257.7999999998137,702240.9000000004,8008,VNB,B,2
3,test,5,0.0,2-Back,1,m,Wed Apr 23 2025 15:29:51 GMT-0500 (Central Daylight Time),706532.4000000004,007_m_m_h_a.png,I,m,988,5,3,2011.0,704521.4000000004,8008,VNB,B,3
4,test,5,0.0,2-Back,1,z,Wed Apr 23 2025 15:29:51 GMT-0500 (Central Daylight Time),708565.1000000006,020_y_f_n_a.png,I,z,998,6,3,2009.0,706556.1000000006,8008,VNB,B,4
4,test,5,0.0,2-Back,0,m,Wed Apr 23 2025 15:29:51 GMT-0500 (Central Daylight Time),710980.6000000006,005_o_f_d_a.png,I,z,1380,7,3,2392.7999999998137,708587.8000000007,8008,VNB,B,5
5,test,5,0.0,2-Back,1,m,Wed Apr 23 2025 15:29:51 GMT-0500 (Central Daylight Time),713529.6000000006,004_o_m_h_a.png,I,m,1502,8,3,2524.100000000559,711005.5,8008,VNB,B,6
6,test,5,1.0,2-Back,1,z,Wed Apr 23 2025 15:29:51 GMT-0500 (Central Daylight Time),715678.2000000002,011_m_f_d_a.png,I,z,1100,9,3,2126.0,713552.2000000002,8008,VNB,B,7
7,test,5,0.0,2-Back,1,m,Wed Apr 23 2025 15:29:51 GMT-0500 (Central Daylight Time),717945.6000000006,016_y_m_n_a.png,I,m,1216,10,3,2242.2000000001863,715703.4000000004,8008,VNB,B,8
7,test,5,0.0,2-Back,0,m,Wed Apr 23 2025 15:29:51 GMT-0500 (Central Daylight Time),720996.9000000004,007_m_m_n_a.png,I,None,2017,11,3,3027.2999999998137,717969.6000000006,8008,VNB,B,9
7,test,5,0.0,2-Back,0,m,Wed Apr 23 2025 15:29:51 GMT-0500 (Central Daylight Time),724043.6000000006,020_y_f_h_a.png,I,None,2015,12,3,3021.4000000003725,721022.2000000002,8008,VNB,B,10
8,test,5,0.0,2-Back,1,m,Wed Apr 23 2025 15:29:51 GMT-0500 (Central Daylight Time),726091.4000000004,016_y_m_d_a.png,I,m,1002,13,3,2022.7999999998137,724068.6000000006,8008,VNB,B,11
9,test,5,1.0,2-Back,1,z,Wed Apr 23 2025 15:29:51 GMT-0500 (Central Daylight Time),727941.2000000002,011_m_f_h_a.png,I,z,811,14,3,1826.5,726114.7000000002,8008,VNB,B,12
9,test,5,0.0,2-Back,0,m,Wed Apr 23 2025 15:29:51 GMT-0500 (Central Daylight Time),730624.4000000004,004_o_m_n_a.png,I,z,1636,15,3,2658.0999999996275,727966.3000000007,8008,VNB,B,13
10,test,5,0.0,2-Back,1,m,Wed Apr 23 2025 15:29:51 GMT-0500 (Central Daylight Time),732539.6000000006,007_m_m_d_a.png,I,m,880,16,3,1891.2999999998137,730648.3000000007,8008,VNB,B,14
11,test,5,0.0,2-Back,1,z,Wed Apr 23 2025 15:29:51 GMT-0500 (Central Daylight Time),734989.0,005_o_f_n_a.png,I,z,1411,17,3,2424.199999999255,732564.8000000007,8008,VNB,B,15
12,test,5,1.0,2-Back,1,m,Wed Apr 23 2025 15:29:51 GMT-0500 (Central Daylight Time),737057.4000000004,016_y_m_h_a.png,I,m,1017,18,3,2044.0999999996275,735013.3000000007,8008,VNB,B,16
