acc_sum,block,block_c,change,condition,correct,correct_response,datetime,endtime,face,project,response,response_time,row_sel,session_number,start_end,starttime,subject_id,task,task_vers,trial
0,prac,1,,1-Back,,,Mon Nov 04 2024 14:15:53 GMT-0600 (Central Standard Time),,124_o_f_d_a.png,I,space,17936,1,1,,,8008,VNB,A,0
0,prac,1,0.0,1-Back,0,m,Mon Nov 04 2024 14:15:53 GMT-0600 (Central Standard Time),176611.29999998212,071_y_f_n_a.png,I,None,2014,2,1,2806.4000000059605,173804.89999997616,8008,VNB,A,1
1,prac,1,0.0,1-Back,1,m,Mon Nov 04 2024 14:15:53 GMT-0600 (Central Standard Time),179177.29999998212,165_m_m_h_a.png,I,m,1749,3,1,2557.5,176619.79999998212,8008,VNB,A,2
2,prac,1,0.0,1-Back,1,m,Mon Nov 04 2024 14:15:53 GMT-0600 (Central Standard Time),181110.19999998808,109_y_m_d_a.png,I,m,1123,4,1,1924.9000000059605,179185.29999998212,8008,VNB,A,3
3,prac,1,0.0,1-Back,1,m,Mon Nov 04 2024 14:15:53 GMT-0600 (Central Standard Time),183343.0,124_o_f_n_a.png,I,m,1385,5,1,2223.100000023842,181119.89999997616,8008,VNB,A,4
4,prac,1,1.0,1-Back,1,z,Mon Nov 04 2024 14:15:53 GMT-0600 (Central Standard Time),185175.59999999404,109_y_m_n_a.png,I,z,1020,6,1,1824.0999999940395,183351.5,8008,VNB,A,5
5,prac,1,0.0,1-Back,1,m,Mon Nov 04 2024 14:15:53 GMT-0600 (Central Standard Time),187108.09999999404,039_o_m_h_a.png,I,m,1123,7,1,1923.800000011921,185184.29999998212,8008,VNB,A,6
6,prac,1,0.0,1-Back,1,m,Mon Nov 04 2024 14:15:53 GMT-0600 (Central Standard Time),189074.29999998212,139_m_f_d_a.png,I,m,1166,8,1,1958.4000000059605,187115.89999997616,8008,VNB,A,7
7,prac,1,1.0,1-Back,1,z,Mon Nov 04 2024 14:15:53 GMT-0600 (Central Standard Time),190874.0,071_y_f_d_a.png,I,z,993,9,1,1791.5,189082.5,8008,VNB,A,8
8,prac,1,0.0,1-Back,1,m,Mon Nov 04 2024 14:15:53 GMT-0600 (Central Standard Time),193007.59999999404,165_m_m_n_a.png,I,m,1343,10,1,2125.0,190882.59999999404,8008,VNB,A,9
9,prac,1,0.0,1-Back,1,m,Mon Nov 04 2024 14:15:53 GMT-0600 (Central Standard Time),194906.0,124_o_f_h_a.png,I,m,1065,11,1,1890.300000011921,193015.69999998808,8008,VNB,A,10
10,prac,1,0.0,1-Back,1,m,Mon Nov 04 2024 14:15:53 GMT-0600 (Central Standard Time),196622.09999999404,109_y_m_d_a.png,I,m,937,12,1,1708.0,194914.09999999404,8008,VNB,A,11
0,test,1,0.0,1-Back,,,Mon Nov 04 2024 14:15:53 GMT-0600 (Central Standard Time),196622.09999999404,071_y_f_d_a.png,I,space,14777,1,1,1708.0,194914.09999999404,8008,VNB,A,0
1,test,1,0.0,1-Back,1,m,Mon Nov 04 2024 14:15:53 GMT-0600 (Central Standard Time),226179.0,139_m_f_n_a.png,I,m,957,2,1,1975.800000011921,224203.19999998808,8008,VNB,A,1
2,test,1,0.0,1-Back,1,m,Mon Nov 04 2024 14:15:53 GMT-0600 (Central Standard Time),228195.5,039_o_m_h_a.png,I,m,983,3,1,2006.300000011921,226189.19999998808,8008,VNB,A,2
3,test,1,1.0,1-Back,1,z,Mon Nov 04 2024 14:15:53 GMT-0600 (Central Standard Time),230411.19999998808,165_m_m_h_a.png,I,z,1191,4,1,2208.5,228202.69999998808,8008,VNB,A,3
4,test,1,0.0,1-Back,1,m,Mon Nov 04 2024 14:15:53 GMT-0600 (Central Standard Time),232427.29999998212,124_o_f_n_a.png,I,m,991,5,1,2008.699999988079,230418.59999999404,8008,VNB,A,4
5,test,1,0.0,1-Back,1,m,Mon Nov 04 2024 14:15:53 GMT-0600 (Central Standard Time),235059.89999997616,109_y_m_d_a.png,I,m,1607,6,1,2625.5,232434.39999997616,8008,VNB,A,5
6,test,1,1.0,1-Back,1,z,Mon Nov 04 2024 14:15:53 GMT-0600 (Central Standard Time),237109.0,139_m_f_d_a.png,I,z,1023,7,1,2042.0,235067.0,8008,VNB,A,6
7,test,1,0.0,1-Back,1,m,Mon Nov 04 2024 14:15:53 GMT-0600 (Central Standard Time),239158.59999999404,071_y_f_h_a.png,I,m,1021,8,1,2043.0,237115.59999999404,8008,VNB,A,7
8,test,1,0.0,1-Back,1,m,Mon Nov 04 2024 14:15:53 GMT-0600 (Central Standard Time),241341.09999999404,039_o_m_n_a.png,I,m,1164,9,1,2175.5,239165.59999999404,8008,VNB,A,8
9,test,1,0.0,1-Back,1,m,Mon Nov 04 2024 14:15:53 GMT-0600 (Central Standard Time),243740.39999997616,109_y_m_h_a.png,I,m,1373,10,1,2391.899999976158,241348.5,8008,VNB,A,9
10,test,1,0.0,1-Back,1,m,Mon Nov 04 2024 14:15:53 GMT-0600 (Central Standard Time),245789.59999999404,039_o_m_d_a.png,I,m,1030,11,1,2042.300000011921,243747.29999998212,8008,VNB,A,10
11,test,1,1.0,1-Back,1,z,Mon Nov 04 2024 14:15:53 GMT-0600 (Central Standard Time),247755.79999998212,124_o_f_d_a.png,I,z,941,12,1,1959.0,245796.79999998212,8008,VNB,A,11
12,test,1,0.0,1-Back,1,m,Mon Nov 04 2024 14:15:53 GMT-0600 (Central Standard Time),249612.0,165_m_m_n_a.png,I,m,839,13,1,1849.1000000238419,247762.89999997616,8008,VNB,A,12
13,test,1,1.0,1-Back,1,z,Mon Nov 04 2024 14:15:53 GMT-0600 (Central Standard Time),251721.19999998808,071_y_f_n_a.png,I,z,1076,14,1,2098.9000000059605,249622.29999998212,8008,VNB,A,13
14,test,1,0.0,1-Back,1,m,Mon Nov 04 2024 14:15:53 GMT-0600 (Central Standard Time),253670.69999998808,139_m_f_h_a.png,I,m,929,15,1,1942.300000011921,251728.39999997616,8008,VNB,A,14
15,test,1,0.0,1-Back,1,m,Mon Nov 04 2024 14:15:53 GMT-0600 (Central Standard Time),255636.79999998212,165_m_m_d_a.png,I,m,948,16,1,1959.0999999940395,253677.69999998808,8008,VNB,A,15
16,test,1,0.0,1-Back,1,m,Mon Nov 04 2024 14:15:53 GMT-0600 (Central Standard Time),257569.5,109_y_m_n_a.png,I,m,910,17,1,1925.6000000238419,255643.89999997616,8008,VNB,A,16
17,test,1,0.0,1-Back,1,m,Mon Nov 04 2024 14:15:53 GMT-0600 (Central Standard Time),259468.89999997616,124_o_f_h_a.png,I,m,881,18,1,1892.2999999821186,257576.59999999404,8008,VNB,A,17
0,test,2,0.0,1-Back,,,Mon Nov 04 2024 14:15:53 GMT-0600 (Central Standard Time),259468.89999997616,109_y_m_n_a.png,I,space,1902,1,1,1892.2999999821186,257576.59999999404,8008,VNB,A,0
1,test,2,0.0,1-Back,1,m,Mon Nov 04 2024 14:15:53 GMT-0600 (Central Standard Time),265400.1999999881,071_y_f_h_a.png,I,m,969,2,1,1992.4000000059605,263407.7999999821,8008,VNB,A,1
2,test,2,1.0,1-Back,1,m,Mon Nov 04 2024 14:15:53 GMT-0600 (Central Standard Time),267366.2999999821,039_o_m_n_a.png,I,m,938,3,1,1959.0999999940395,265407.1999999881,8008,VNB,A,2
3,test,2,0.0,1-Back,1,m,Mon Nov 04 2024 14:15:53 GMT-0600 (Central Standard Time),270048.7999999821,139_m_f_d_a.png,I,m,1660,4,1,2674.5999999940395,267374.1999999881,8008,VNB,A,3
4,test,2,0.0,1-Back,1,z,Mon Nov 04 2024 14:15:53 GMT-0600 (Central Standard Time),272115.0,165_m_m_d_a.png,I,z,1033,5,1,2058.9000000059605,270056.09999999404,8008,VNB,A,4
5,test,2,0.0,1-Back,1,m,Mon Nov 04 2024 14:15:53 GMT-0600 (Central Standard Time),274230.6999999881,109_y_m_h_a.png,I,m,1042,6,1,2108.5,272122.1999999881,8008,VNB,A,5
6,test,2,1.0,1-Back,1,z,Mon Nov 04 2024 14:15:53 GMT-0600 (Central Standard Time),276097.0,124_o_f_h_a.png,I,z,836,7,1,1858.4000000059605,274238.59999999404,8008,VNB,A,6
7,test,2,0.0,1-Back,1,m,Mon Nov 04 2024 14:15:53 GMT-0600 (Central Standard Time),278163.1999999881,139_m_f_n_a.png,I,m,1050,8,1,2057.4000000059605,276105.7999999821,8008,VNB,A,7
8,test,2,0.0,1-Back,1,m,Mon Nov 04 2024 14:15:53 GMT-0600 (Central Standard Time),280295.7999999821,071_y_f_d_a.png,I,m,1111,9,1,2126.0999999940395,278169.6999999881,8008,VNB,A,8
8,test,2,0.0,1-Back,0,m,Mon Nov 04 2024 14:15:53 GMT-0600 (Central Standard Time),282411.5,165_m_m_n_a.png,I,z,1099,10,1,2108.5,280303.0,8008,VNB,A,9
9,test,2,1.0,1-Back,1,m,Mon Nov 04 2024 14:15:53 GMT-0600 (Central Standard Time),284394.2999999821,139_m_f_h_a.png,I,m,959,11,1,1975.699999988079,282418.59999999404,8008,VNB,A,10
10,test,2,0.0,1-Back,1,z,Mon Nov 04 2024 14:15:53 GMT-0600 (Central Standard Time),286560.09999999404,039_o_m_h_a.png,I,z,1144,12,1,2158.5,284401.59999999404,8008,VNB,A,11
11,test,2,0.0,1-Back,1,m,Mon Nov 04 2024 14:15:53 GMT-0600 (Central Standard Time),288393.39999997616,109_y_m_d_a.png,I,m,802,13,1,1824.0,286569.39999997616,8008,VNB,A,12
12,test,2,0.0,1-Back,1,m,Mon Nov 04 2024 14:15:53 GMT-0600 (Central Standard Time),290592.39999997616,124_o_f_n_a.png,I,m,1170,14,1,2192.0,288400.39999997616,8008,VNB,A,13
13,test,2,0.0,1-Back,1,z,Mon Nov 04 2024 14:15:53 GMT-0600 (Central Standard Time),292641.7999999821,071_y_f_n_a.png,I,z,1018,15,1,2042.0999999940395,290599.6999999881,8008,VNB,A,14
14,test,2,1.0,1-Back,1,m,Mon Nov 04 2024 14:15:53 GMT-0600 (Central Standard Time),294557.5,165_m_m_h_a.png,I,m,897,16,1,1908.7000000178814,292648.7999999821,8008,VNB,A,15
15,test,2,0.0,1-Back,1,m,Mon Nov 04 2024 14:15:53 GMT-0600 (Central Standard Time),296602.2999999821,124_o_f_d_a.png,I,m,1026,17,1,2037.699999988079,294564.59999999404,8008,VNB,A,16
16,test,2,1.0,1-Back,1,z,Mon Nov 04 2024 14:15:53 GMT-0600 (Central Standard Time),298623.39999997616,039_o_m_d_a.png,I,z,994,18,1,2013.2999999821186,296610.09999999404,8008,VNB,A,17
0,test,3,1.0,1-Back,,,Mon Nov 04 2024 14:15:53 GMT-0600 (Central Standard Time),298623.39999997616,124_o_f_h_a.png,I,space,1579,1,1,2013.2999999821186,296610.09999999404,8008,VNB,A,0
1,test,3,0.0,1-Back,1,m,Mon Nov 04 2024 14:15:53 GMT-0600 (Central Standard Time),304221.5,139_m_f_d_a.png,I,m,947,2,1,1959.0,302262.5,8008,VNB,A,1
2,test,3,1.0,1-Back,1,m,Mon Nov 04 2024 14:15:53 GMT-0600 (Central Standard Time),306304.09999999404,165_m_m_n_a.png,I,m,1061,3,1,2075.2000000178814,304228.89999997616,8008,VNB,A,2
3,test,3,0.0,1-Back,1,z,Mon Nov 04 2024 14:15:53 GMT-0600 (Central Standard Time),308370.09999999404,124_o_f_n_a.png,I,z,1034,4,1,2059.0999999940395,306311.0,8008,VNB,A,3
4,test,3,1.0,1-Back,1,m,Mon Nov 04 2024 14:15:53 GMT-0600 (Central Standard Time),310319.59999999404,039_o_m_d_a.png,I,m,920,5,1,1942.300000011921,308377.2999999821,8008,VNB,A,4
5,test,3,0.0,1-Back,1,m,Mon Nov 04 2024 14:15:53 GMT-0600 (Central Standard Time),312302.1999999881,071_y_f_h_a.png,I,m,955,6,1,1974.9000000059605,310327.2999999821,8008,VNB,A,5
6,test,3,0.0,1-Back,1,z,Mon Nov 04 2024 14:15:53 GMT-0600 (Central Standard Time),314301.6999999881,109_y_m_h_a.png,I,z,980,7,1,1991.9000000059605,312309.7999999821,8008,VNB,A,6
7,test,3,0.0,1-Back,1,m,Mon Nov 04 2024 14:15:53 GMT-0600 (Central Standard Time),316450.89999997616,139_m_f_n_a.png,I,m,1133,8,1,2142.199999988079,314308.6999999881,8008,VNB,A,7
8,test,3,0.0,1-Back,1,m,Mon Nov 04 2024 14:15:53 GMT-0600 (Central Standard Time),318466.89999997616,071_y_f_d_a.png,I,m,999,9,1,2008.699999988079,316458.1999999881,8008,VNB,A,8
9,test,3,1.0,1-Back,1,m,Mon Nov 04 2024 14:15:53 GMT-0600 (Central Standard Time),320832.7999999821,039_o_m_n_a.png,I,m,1335,10,1,2359.0999999940395,318473.6999999881,8008,VNB,A,9
10,test,3,0.0,1-Back,1,m,Mon Nov 04 2024 14:15:53 GMT-0600 (Central Standard Time),322748.89999997616,165_m_m_h_a.png,I,m,898,11,1,1908.2999999821186,320840.59999999404,8008,VNB,A,10
11,test,3,0.0,1-Back,1,z,Mon Nov 04 2024 14:15:53 GMT-0600 (Central Standard Time),324631.7999999821,139_m_f_h_a.png,I,z,853,12,1,1876.0999999940395,322755.6999999881,8008,VNB,A,11
12,test,3,1.0,1-Back,1,m,Mon Nov 04 2024 14:15:53 GMT-0600 (Central Standard Time),326447.7999999821,124_o_f_d_a.png,I,m,786,13,1,1809.2999999821186,324638.5,8008,VNB,A,12
13,test,3,0.0,1-Back,1,z,Mon Nov 04 2024 14:15:53 GMT-0600 (Central Standard Time),328330.5,165_m_m_d_a.png,I,z,851,14,1,1875.7000000178814,326454.7999999821,8008,VNB,A,13
14,test,3,0.0,1-Back,1,m,Mon Nov 04 2024 14:15:53 GMT-0600 (Central Standard Time),330346.7999999821,109_y_m_n_a.png,I,m,984,15,1,2009.2999999821186,328337.5,8008,VNB,A,14
15,test,3,1.0,1-Back,1,m,Mon Nov 04 2024 14:15:53 GMT-0600 (Central Standard Time),332512.5,039_o_m_h_a.png,I,m,1144,16,1,2158.600000023842,330353.89999997616,8008,VNB,A,15
16,test,3,0.0,1-Back,1,m,Mon Nov 04 2024 14:15:53 GMT-0600 (Central Standard Time),334413.0,109_y_m_d_a.png,I,m,882,17,1,1892.9000000059605,332520.09999999404,8008,VNB,A,16
17,test,3,1.0,1-Back,1,m,Mon Nov 04 2024 14:15:53 GMT-0600 (Central Standard Time),336578.1999999881,071_y_f_n_a.png,I,m,1134,18,1,2158.0,334420.1999999881,8008,VNB,A,17
0,test,4,1.0,1-Back,,,Mon Nov 04 2024 14:15:53 GMT-0600 (Central Standard Time),336578.1999999881,165_m_m_d_a.png,I,space,1576,1,1,2158.0,334420.1999999881,8008,VNB,A,0
1,test,4,0.0,1-Back,1,z,Mon Nov 04 2024 14:15:53 GMT-0600 (Central Standard Time),342509.39999997616,039_o_m_d_a.png,I,z,1306,2,1,2325.399999976158,340184.0,8008,VNB,A,1
2,test,4,0.0,1-Back,1,m,Mon Nov 04 2024 14:15:53 GMT-0600 (Central Standard Time),344493.2999999821,109_y_m_h_a.png,I,m,964,3,1,1976.699999988079,342516.59999999404,8008,VNB,A,2
3,test,4,0.0,1-Back,1,m,Mon Nov 04 2024 14:15:53 GMT-0600 (Central Standard Time),346624.89999997616,139_m_f_n_a.png,I,m,1102,4,1,2124.2999999821186,344500.59999999404,8008,VNB,A,3
4,test,4,1.0,1-Back,1,m,Mon Nov 04 2024 14:15:53 GMT-0600 (Central Standard Time),348640.7999999821,124_o_f_h_a.png,I,m,985,5,1,2009.0999999940395,346631.6999999881,8008,VNB,A,4
5,test,4,0.0,1-Back,1,m,Mon Nov 04 2024 14:15:53 GMT-0600 (Central Standard Time),350923.1999999881,165_m_m_n_a.png,I,m,1266,6,1,2274.5999999940395,348648.59999999404,8008,VNB,A,5
6,test,4,0.0,1-Back,1,m,Mon Nov 04 2024 14:15:53 GMT-0600 (Central Standard Time),353506.0,109_y_m_d_a.png,I,m,1559,7,1,2576.2000000178814,350929.7999999821,8008,VNB,A,6
7,test,4,1.0,1-Back,1,z,Mon Nov 04 2024 14:15:53 GMT-0600 (Central Standard Time),355605.39999997616,071_y_f_d_a.png,I,z,1072,8,1,2092.399999976158,353513.0,8008,VNB,A,7
8,test,4,0.0,1-Back,1,m,Mon Nov 04 2024 14:15:53 GMT-0600 (Central Standard Time),357538.09999999404,139_m_f_h_a.png,I,m,909,9,1,1924.5999999940395,355613.5,8008,VNB,A,8
9,test,4,0.0,1-Back,1,z,Mon Nov 04 2024 14:15:53 GMT-0600 (Central Standard Time),359537.5,039_o_m_h_a.png,I,z,976,10,1,1992.300000011921,357545.1999999881,8008,VNB,A,9
10,test,4,1.0,1-Back,1,m,Mon Nov 04 2024 14:15:53 GMT-0600 (Central Standard Time),361886.59999999404,124_o_f_n_a.png,I,m,1321,11,1,2340.2000000178814,359546.39999997616,8008,VNB,A,10
11,test,4,0.0,1-Back,1,m,Mon Nov 04 2024 14:15:53 GMT-0600 (Central Standard Time),364136.1999999881,139_m_f_d_a.png,I,m,1228,12,1,2242.5,361893.6999999881,8008,VNB,A,11
12,test,4,0.0,1-Back,1,m,Mon Nov 04 2024 14:15:53 GMT-0600 (Central Standard Time),366168.5,071_y_f_n_a.png,I,m,1002,13,1,2025.5,364143.0,8008,VNB,A,12
13,test,4,0.0,1-Back,1,m,Mon Nov 04 2024 14:15:53 GMT-0600 (Central Standard Time),368218.1999999881,124_o_f_d_a.png,I,m,988,14,1,2042.199999988079,366176.0,8008,VNB,A,13
14,test,4,0.0,1-Back,1,m,Mon Nov 04 2024 14:15:53 GMT-0600 (Central Standard Time),370300.89999997616,071_y_f_h_a.png,I,m,1064,15,1,2075.2999999821186,368225.59999999404,8008,VNB,A,14
15,test,4,1.0,1-Back,1,z,Mon Nov 04 2024 14:15:53 GMT-0600 (Central Standard Time),372266.7999999821,165_m_m_h_a.png,I,z,950,16,1,1958.7999999821186,370308.0,8008,VNB,A,15
16,test,4,0.0,1-Back,1,m,Mon Nov 04 2024 14:15:53 GMT-0600 (Central Standard Time),374199.39999997616,039_o_m_n_a.png,I,m,904,17,1,1925.5999999940395,372273.7999999821,8008,VNB,A,16
16,test,4,1.0,1-Back,0,z,Mon Nov 04 2024 14:15:53 GMT-0600 (Central Standard Time),376848.7999999821,109_y_m_n_a.png,I,m,1619,18,1,2642.0,374206.7999999821,8008,VNB,A,17
0,test,5,1.0,1-Back,,,Mon Nov 04 2024 14:15:53 GMT-0600 (Central Standard Time),376848.7999999821,039_o_m_n_a.png,I,space,4650,1,1,2642.0,374206.7999999821,8008,VNB,A,0
1,test,5,1.0,1-Back,1,m,Mon Nov 04 2024 14:15:53 GMT-0600 (Central Standard Time),385579.1999999881,124_o_f_h_a.png,I,m,1031,2,1,2042.0,383537.1999999881,8008,VNB,A,1
2,test,5,0.0,1-Back,1,m,Mon Nov 04 2024 14:15:53 GMT-0600 (Central Standard Time),387661.7999999821,109_y_m_d_a.png,I,m,1055,3,1,2074.7999999821186,385587.0,8008,VNB,A,2
3,test,5,0.0,1-Back,1,z,Mon Nov 04 2024 14:15:53 GMT-0600 (Central Standard Time),389777.89999997616,039_o_m_d_a.png,I,z,1083,4,1,2108.699999988079,387669.1999999881,8008,VNB,A,3
4,test,5,0.0,1-Back,1,m,Mon Nov 04 2024 14:15:53 GMT-0600 (Central Standard Time),391893.89999997616,139_m_f_h_a.png,I,m,984,5,1,2107.399999976158,389786.5,8008,VNB,A,4
5,test,5,0.0,1-Back,1,m,Mon Nov 04 2024 14:15:53 GMT-0600 (Central Standard Time),394076.7999999821,071_y_f_n_a.png,I,m,1164,6,1,2174.9000000059605,391901.89999997616,8008,VNB,A,5
6,test,5,1.0,1-Back,1,z,Mon Nov 04 2024 14:15:53 GMT-0600 (Central Standard Time),396059.1999999881,124_o_f_n_a.png,I,z,966,7,1,1975.300000011921,394083.89999997616,8008,VNB,A,6
7,test,5,0.0,1-Back,1,m,Mon Nov 04 2024 14:15:53 GMT-0600 (Central Standard Time),398075.2999999821,139_m_f_d_a.png,I,m,999,8,1,2008.7999999821186,396066.5,8008,VNB,A,7
8,test,5,0.0,1-Back,1,m,Mon Nov 04 2024 14:15:53 GMT-0600 (Central Standard Time),400108.0,109_y_m_h_a.png,I,m,1007,9,1,2025.0,398083.0,8008,VNB,A,8
9,test,5,0.0,1-Back,1,m,Mon Nov 04 2024 14:15:53 GMT-0600 (Central Standard Time),402207.39999997616,071_y_f_d_a.png,I,m,1078,10,1,2091.7999999821186,400115.59999999404,8008,VNB,A,9
10,test,5,0.0,1-Back,1,m,Mon Nov 04 2024 14:15:53 GMT-0600 (Central Standard Time),404439.7999999821,165_m_m_n_a.png,I,m,1211,11,1,2225.199999988079,402214.59999999404,8008,VNB,A,10
11,test,5,1.0,1-Back,1,z,Mon Nov 04 2024 14:15:53 GMT-0600 (Central Standard Time),406422.7999999821,139_m_f_n_a.png,I,z,953,12,1,1974.9000000059605,404447.89999997616,8008,VNB,A,11
12,test,5,0.0,1-Back,1,m,Mon Nov 04 2024 14:15:53 GMT-0600 (Central Standard Time),408422.0,039_o_m_h_a.png,I,m,972,13,1,1992.4000000059605,406429.59999999404,8008,VNB,A,12
13,test,5,0.0,1-Back,1,z,Mon Nov 04 2024 14:15:53 GMT-0600 (Central Standard Time),410638.09999999404,165_m_m_h_a.png,I,z,1188,14,1,2208.5,408429.59999999404,8008,VNB,A,13
14,test,5,1.0,1-Back,1,m,Mon Nov 04 2024 14:15:53 GMT-0600 (Central Standard Time),412737.6999999881,124_o_f_d_a.png,I,m,1068,15,1,2092.4000000059605,410645.2999999821,8008,VNB,A,14
15,test,5,0.0,1-Back,1,m,Mon Nov 04 2024 14:15:53 GMT-0600 (Central Standard Time),414653.59999999404,109_y_m_n_a.png,I,m,897,16,1,1908.0999999940395,412745.5,8008,VNB,A,15
16,test,5,0.0,1-Back,1,m,Mon Nov 04 2024 14:15:53 GMT-0600 (Central Standard Time),417019.09999999404,071_y_f_h_a.png,I,m,1349,17,1,2358.5,414660.59999999404,8008,VNB,A,16
17,test,5,0.0,1-Back,1,m,Mon Nov 04 2024 14:15:53 GMT-0600 (Central Standard Time),419035.39999997616,165_m_m_d_a.png,I,m,991,18,1,2009.2999999821186,417026.09999999404,8008,VNB,A,17
0,prac,1,0.0,2-Back,,,Mon Nov 04 2024 14:15:53 GMT-0600 (Central Standard Time),419035.39999997616,139_m_f_n_a.png,I,space,14425,1,1,2009.2999999821186,417026.09999999404,8008,VNB,A,0
0,prac,1,0.0,2-Back,,,Mon Nov 04 2024 14:15:53 GMT-0600 (Central Standard Time),419035.39999997616,124_o_f_h_a.png,I,space,14425,2,1,2009.2999999821186,417026.09999999404,8008,VNB,A,0
1,prac,1,0.0,2-Back,1,m,Mon Nov 04 2024 14:15:53 GMT-0600 (Central Standard Time),602294.3999999762,039_o_m_d_a.png,I,m,1755,3,1,2557.2999999821186,599737.099999994,8008,VNB,A,1
2,prac,1,1.0,2-Back,1,z,Mon Nov 04 2024 14:15:53 GMT-0600 (Central Standard Time),604860.6999999881,165_m_m_h_a.png,I,z,1751,4,1,2557.5,602303.1999999881,8008,VNB,A,2
2,prac,1,0.0,2-Back,0,m,Mon Nov 04 2024 14:15:53 GMT-0600 (Central Standard Time),607209.7999999821,071_y_f_n_a.png,I,z,1540,5,1,2340.9000000059605,604868.8999999762,8008,VNB,A,3
3,prac,1,1.0,2-Back,1,z,Mon Nov 04 2024 14:15:53 GMT-0600 (Central Standard Time),609725.7999999821,039_o_m_h_a.png,I,z,1696,6,1,2508.0999999940395,607217.6999999881,8008,VNB,A,4
4,prac,1,1.0,2-Back,1,z,Mon Nov 04 2024 14:15:53 GMT-0600 (Central Standard Time),612408.2999999821,109_y_m_n_a.png,I,z,1870,7,1,2673.9000000059605,609734.3999999762,8008,VNB,A,5
5,prac,1,0.0,2-Back,1,m,Mon Nov 04 2024 14:15:53 GMT-0600 (Central Standard Time),614491.099999994,139_m_f_d_a.png,I,m,1277,8,1,2073.5,612417.599999994,8008,VNB,A,6
5,prac,1,0.0,2-Back,0,m,Mon Nov 04 2024 14:15:53 GMT-0600 (Central Standard Time),616707.0,124_o_f_d_a.png,I,z,1378,9,1,2207.5,614499.5,8008,VNB,A,7
5,prac,1,0.0,2-Back,0,m,Mon Nov 04 2024 14:15:53 GMT-0600 (Central Standard Time),618756.0,165_m_m_h_a.png,I,z,1263,10,1,2040.5,616715.5,8008,VNB,A,8
5,prac,1,1.0,2-Back,0,z,Mon Nov 04 2024 14:15:53 GMT-0600 (Central Standard Time),620689.0,071_y_f_d_a.png,I,m,1119,11,1,1925.2000000178814,618763.7999999821,8008,VNB,A,9
5,prac,1,0.0,2-Back,0,m,Mon Nov 04 2024 14:15:53 GMT-0600 (Central Standard Time),623504.6999999881,039_o_m_n_a.png,I,None,2016,12,1,2807.0999999940395,620697.599999994,8008,VNB,A,10
0,prac,2,0.0,2-Back,,,Mon Nov 04 2024 14:15:53 GMT-0600 (Central Standard Time),623504.6999999881,139_m_f_n_a.png,I,a,15551,1,1,2807.0999999940395,620697.599999994,8008,VNB,A,0
0,prac,2,0.0,2-Back,,,Mon Nov 04 2024 14:15:53 GMT-0600 (Central Standard Time),623504.6999999881,124_o_f_h_a.png,I,a,15551,2,1,2807.0999999940395,620697.599999994,8008,VNB,A,0
1,prac,2,0.0,2-Back,1,m,Mon Nov 04 2024 14:15:53 GMT-0600 (Central Standard Time),646914.0,039_o_m_d_a.png,I,m,1950,3,1,2740.600000023842,644173.3999999762,8008,VNB,A,1
2,prac,2,1.0,2-Back,1,z,Mon Nov 04 2024 14:15:53 GMT-0600 (Central Standard Time),648996.599999994,165_m_m_h_a.png,I,z,1295,4,1,2073.300000011921,646923.2999999821,8008,VNB,A,2
3,prac,2,0.0,2-Back,1,m,Mon Nov 04 2024 14:15:53 GMT-0600 (Central Standard Time),651745.7999999821,071_y_f_n_a.png,I,m,1932,5,1,2741.5,649004.2999999821,8008,VNB,A,3
3,prac,2,1.0,2-Back,0,z,Mon Nov 04 2024 14:15:53 GMT-0600 (Central Standard Time),654561.599999994,039_o_m_h_a.png,I,None,2017,6,1,2807.0999999940395,651754.5,8008,VNB,A,4
4,prac,2,1.0,2-Back,1,z,Mon Nov 04 2024 14:15:53 GMT-0600 (Central Standard Time),656927.5,109_y_m_n_a.png,I,z,1554,7,1,2357.4000000059605,654570.099999994,8008,VNB,A,5
5,prac,2,0.0,2-Back,1,m,Mon Nov 04 2024 14:15:53 GMT-0600 (Central Standard Time),659259.8999999762,139_m_f_d_a.png,I,m,1529,8,1,2323.899999976158,656936.0,8008,VNB,A,6
6,prac,2,0.0,2-Back,1,m,Mon Nov 04 2024 14:15:53 GMT-0600 (Central Standard Time),661559.3999999762,124_o_f_d_a.png,I,m,1449,9,1,2290.5999999940395,659268.7999999821,8008,VNB,A,7
6,prac,2,0.0,2-Back,0,m,Mon Nov 04 2024 14:15:53 GMT-0600 (Central Standard Time),663625.5,165_m_m_h_a.png,I,z,1275,10,1,2057.7000000178814,661567.7999999821,8008,VNB,A,8
7,prac,2,1.0,2-Back,1,z,Mon Nov 04 2024 14:15:53 GMT-0600 (Central Standard Time),666158.0,071_y_f_d_a.png,I,z,1721,11,1,2524.2000000178814,663633.7999999821,8008,VNB,A,9
7,prac,2,0.0,2-Back,0,m,Mon Nov 04 2024 14:15:53 GMT-0600 (Central Standard Time),668673.7999999821,039_o_m_n_a.png,I,z,1701,12,1,2507.5,666166.2999999821,8008,VNB,A,10
0,test,1,0.0,2-Back,,,Mon Nov 04 2024 14:15:53 GMT-0600 (Central Standard Time),668673.7999999821,109_y_m_h_a.png,I,space,18514,1,1,2507.5,666166.2999999821,8008,VNB,A,0
0,test,1,0.0,2-Back,,,Mon Nov 04 2024 14:15:53 GMT-0600 (Central Standard Time),668673.7999999821,124_o_f_n_a.png,I,space,18514,2,1,2507.5,666166.2999999821,8008,VNB,A,0
1,test,1,0.0,2-Back,1,z,Mon Nov 04 2024 14:15:53 GMT-0600 (Central Standard Time),708361.2999999821,039_o_m_h_a.png,I,z,902,3,1,1925.0999999940395,706436.1999999881,8008,VNB,A,1
2,test,1,0.0,2-Back,1,m,Mon Nov 04 2024 14:15:53 GMT-0600 (Central Standard Time),710594.0,139_m_f_d_a.png,I,m,1201,4,1,2225.5,708368.5,8008,VNB,A,2
3,test,1,1.0,2-Back,1,m,Mon Nov 04 2024 14:15:53 GMT-0600 (Central Standard Time),713293.099999994,109_y_m_n_a.png,I,m,1680,5,1,2691.9000000059605,710601.1999999881,8008,VNB,A,3
4,test,1,0.0,2-Back,1,z,Mon Nov 04 2024 14:15:53 GMT-0600 (Central Standard Time),716308.5,071_y_f_d_a.png,I,z,1988,6,1,3008.100000023842,713300.3999999762,8008,VNB,A,4
4,test,1,0.0,2-Back,0,m,Mon Nov 04 2024 14:15:53 GMT-0600 (Central Standard Time),718991.2999999821,165_m_m_h_a.png,I,z,1654,7,1,2675.199999988079,716316.099999994,8008,VNB,A,5
5,test,1,1.0,2-Back,1,m,Mon Nov 04 2024 14:15:53 GMT-0600 (Central Standard Time),721490.599999994,071_y_f_n_a.png,I,m,1475,8,1,2492.2000000178814,718998.3999999762,8008,VNB,A,6
6,test,1,0.0,2-Back,1,z,Mon Nov 04 2024 14:15:53 GMT-0600 (Central Standard Time),724472.8999999762,124_o_f_h_a.png,I,z,1960,9,1,2975.5,721497.3999999762,8008,VNB,A,7
7,test,1,0.0,2-Back,1,m,Mon Nov 04 2024 14:15:53 GMT-0600 (Central Standard Time),727388.7999999821,039_o_m_d_a.png,I,m,1890,10,1,2908.699999988079,724480.099999994,8008,VNB,A,8
7,test,1,1.0,2-Back,0,m,Mon Nov 04 2024 14:15:53 GMT-0600 (Central Standard Time),730387.7999999821,165_m_m_d_a.png,I,z,1974,11,1,2991.2999999821186,727396.5,8008,VNB,A,9
7,test,1,0.0,2-Back,0,m,Mon Nov 04 2024 14:15:53 GMT-0600 (Central Standard Time),732920.1999999881,139_m_f_n_a.png,I,z,1511,12,1,2525.5999999940395,730394.599999994,8008,VNB,A,10
7,test,1,0.0,2-Back,0,m,Mon Nov 04 2024 14:15:53 GMT-0600 (Central Standard Time),735952.7999999821,071_y_f_h_a.png,I,None,2016,13,1,3025.199999988079,732927.599999994,8008,VNB,A,11
8,test,1,0.0,2-Back,1,z,Mon Nov 04 2024 14:15:53 GMT-0600 (Central Standard Time),738302.0,165_m_m_n_a.png,I,z,1322,14,1,2341.2000000178814,735960.7999999821,8008,VNB,A,12
9,test,1,0.0,2-Back,1,m,Mon Nov 04 2024 14:15:53 GMT-0600 (Central Standard Time),740334.6999999881,109_y_m_d_a.png,I,m,1013,15,1,2025.0999999940395,738309.599999994,8008,VNB,A,13
9,test,1,1.0,2-Back,0,m,Mon Nov 04 2024 14:15:53 GMT-0600 (Central Standard Time),742600.3999999762,139_m_f_h_a.png,I,z,1244,16,1,2258.5999999940395,740341.7999999821,8008,VNB,A,14
9,test,1,0.0,2-Back,0,z,Mon Nov 04 2024 14:15:53 GMT-0600 (Central Standard Time),745366.2999999821,124_o_f_d_a.png,I,m,1746,17,1,2758.5999999940395,742607.6999999881,8008,VNB,A,15
10,test,1,0.0,2-Back,1,m,Mon Nov 04 2024 14:15:53 GMT-0600 (Central Standard Time),748132.0,039_o_m_n_a.png,I,m,1740,18,1,2758.2000000178814,745373.7999999821,8008,VNB,A,16
0,test,2,0.0,2-Back,,,Mon Nov 04 2024 14:15:53 GMT-0600 (Central Standard Time),748132.0,165_m_m_h_a.png,I,space,2718,1,1,2758.2000000178814,745373.7999999821,8008,VNB,A,0
0,test,2,0.0,2-Back,,,Mon Nov 04 2024 14:15:53 GMT-0600 (Central Standard Time),748132.0,071_y_f_n_a.png,I,space,2718,2,1,2758.2000000178814,745373.7999999821,8008,VNB,A,0
1,test,2,1.0,2-Back,1,z,Mon Nov 04 2024 14:15:53 GMT-0600 (Central Standard Time),758145.6999999881,124_o_f_h_a.png,I,z,1176,3,1,2191.9000000059605,755953.7999999821,8008,VNB,A,1
2,test,2,0.0,2-Back,1,m,Mon Nov 04 2024 14:15:53 GMT-0600 (Central Standard Time),760528.3999999762,039_o_m_d_a.png,I,m,1353,4,1,2374.399999976158,758154.0,8008,VNB,A,2
3,test,2,0.0,2-Back,1,m,Mon Nov 04 2024 14:15:53 GMT-0600 (Central Standard Time),763445.1999999881,139_m_f_d_a.png,I,m,1890,5,1,2908.5,760536.6999999881,8008,VNB,A,3
3,test,2,0.0,2-Back,0,m,Mon Nov 04 2024 14:15:53 GMT-0600 (Central Standard Time),765543.2999999821,109_y_m_h_a.png,I,z,1078,6,1,2090.199999988079,763453.099999994,8008,VNB,A,4
3,test,2,0.0,2-Back,0,m,Mon Nov 04 2024 14:15:53 GMT-0600 (Central Standard Time),767942.599999994,124_o_f_n_a.png,I,z,1371,7,1,2391.4000000059605,765551.1999999881,8008,VNB,A,5
4,test,2,1.0,2-Back,1,z,Mon Nov 04 2024 14:15:53 GMT-0600 (Central Standard Time),770108.599999994,039_o_m_h_a.png,I,z,1140,8,1,2158.7000000178814,767949.8999999762,8008,VNB,A,6
5,test,2,0.0,2-Back,1,m,Mon Nov 04 2024 14:15:53 GMT-0600 (Central Standard Time),772208.0,071_y_f_d_a.png,I,m,1077,9,1,2092.100000023842,770115.8999999762,8008,VNB,A,7
6,test,2,0.0,2-Back,1,m,Mon Nov 04 2024 14:15:53 GMT-0600 (Central Standard Time),775107.099999994,109_y_m_d_a.png,I,m,1866,10,1,2891.7000000178814,772215.3999999762,8008,VNB,A,8
6,test,2,0.0,2-Back,0,m,Mon Nov 04 2024 14:15:53 GMT-0600 (Central Standard Time),777922.6999999881,165_m_m_n_a.png,I,z,1791,11,1,2808.5,775114.1999999881,8008,VNB,A,9
6,test,2,0.0,2-Back,0,m,Mon Nov 04 2024 14:15:53 GMT-0600 (Central Standard Time),780805.2999999821,139_m_f_h_a.png,I,z,1855,12,1,2876.0,777929.2999999821,8008,VNB,A,10
6,test,2,1.0,2-Back,0,z,Mon Nov 04 2024 14:15:53 GMT-0600 (Central Standard Time),783837.7999999821,039_o_m_n_a.png,I,None,2016,13,1,3025.199999988079,780812.599999994,8008,VNB,A,11
7,test,2,0.0,2-Back,1,m,Mon Nov 04 2024 14:15:53 GMT-0600 (Central Standard Time),786403.599999994,124_o_f_d_a.png,I,m,1541,14,1,2558.5,783845.099999994,8008,VNB,A,12
7,test,2,0.0,2-Back,0,m,Mon Nov 04 2024 14:15:53 GMT-0600 (Central Standard Time),788669.1999999881,071_y_f_h_a.png,I,z,1239,15,1,2257.5,786411.6999999881,8008,VNB,A,13
7,test,2,0.0,2-Back,0,z,Mon Nov 04 2024 14:15:53 GMT-0600 (Central Standard Time),791168.5,165_m_m_d_a.png,I,m,1477,16,1,2490.4000000059605,788678.099999994,8008,VNB,A,14
7,test,2,0.0,2-Back,0,m,Mon Nov 04 2024 14:15:53 GMT-0600 (Central Standard Time),793484.3999999762,109_y_m_n_a.png,I,z,1289,17,1,2308.7999999821186,791175.599999994,8008,VNB,A,15
7,test,2,1.0,2-Back,0,m,Mon Nov 04 2024 14:15:53 GMT-0600 (Central Standard Time),795817.0,139_m_f_n_a.png,I,z,1302,18,1,2325.2000000178814,793491.7999999821,8008,VNB,A,16
0,test,3,1.0,2-Back,,,Mon Nov 04 2024 14:15:53 GMT-0600 (Central Standard Time),795817.0,039_o_m_n_a.png,I,space,4721,1,1,2325.2000000178814,793491.7999999821,8008,VNB,A,0
0,test,3,1.0,2-Back,,,Mon Nov 04 2024 14:15:53 GMT-0600 (Central Standard Time),795817.0,124_o_f_d_a.png,I,space,4721,2,1,2325.2000000178814,793491.7999999821,8008,VNB,A,0
0,test,3,0.0,2-Back,0,m,Mon Nov 04 2024 14:15:53 GMT-0600 (Central Standard Time),808629.8999999762,071_y_f_h_a.png,I,None,2016,3,1,3024.899999976158,805605.0,8008,VNB,A,1
1,test,3,0.0,2-Back,1,z,Mon Nov 04 2024 14:15:53 GMT-0600 (Central Standard Time),811628.8999999762,139_m_f_d_a.png,I,z,1973,4,1,2991.399999976158,808637.5,8008,VNB,A,2
1,test,3,1.0,2-Back,0,m,Mon Nov 04 2024 14:15:53 GMT-0600 (Central Standard Time),814523.099999994,109_y_m_n_a.png,I,z,1877,5,1,2887.0999999940395,811636.0,8008,VNB,A,3
1,test,3,0.0,2-Back,0,m,Mon Nov 04 2024 14:15:53 GMT-0600 (Central Standard Time),817227.0,039_o_m_h_a.png,I,z,1675,6,1,2693.100000023842,814533.8999999762,8008,VNB,A,4
2,test,3,0.0,2-Back,1,z,Mon Nov 04 2024 14:15:53 GMT-0600 (Central Standard Time),819726.3999999762,071_y_f_n_a.png,I,z,1479,7,1,2491.899999976158,817234.5,8008,VNB,A,5
2,test,3,1.0,2-Back,0,m,Mon Nov 04 2024 14:15:53 GMT-0600 (Central Standard Time),822092.2999999821,165_m_m_d_a.png,I,z,1340,8,1,2357.9000000059605,819734.3999999762,8008,VNB,A,6
3,test,3,0.0,2-Back,1,m,Mon Nov 04 2024 14:15:53 GMT-0600 (Central Standard Time),824491.599999994,109_y_m_d_a.png,I,m,1374,9,1,2392.0999999940395,822099.5,8008,VNB,A,7
3,test,3,0.0,2-Back,0,m,Mon Nov 04 2024 14:15:53 GMT-0600 (Central Standard Time),826690.6999999881,124_o_f_h_a.png,I,z,1175,10,1,2191.800000011921,824498.8999999762,8008,VNB,A,8
4,test,3,1.0,2-Back,1,m,Mon Nov 04 2024 14:15:53 GMT-0600 (Central Standard Time),829673.1999999881,139_m_f_n_a.png,I,m,1959,11,1,2975.199999988079,826698.0,8008,VNB,A,9
5,test,3,1.0,2-Back,1,z,Mon Nov 04 2024 14:15:53 GMT-0600 (Central Standard Time),831688.8999999762,165_m_m_h_a.png,I,z,985,12,1,2008.0999999940395,829680.7999999821,8008,VNB,A,10
6,test,3,0.0,2-Back,1,m,Mon Nov 04 2024 14:15:53 GMT-0600 (Central Standard Time),834005.099999994,071_y_f_d_a.png,I,m,1297,13,1,2308.0,831697.099999994,8008,VNB,A,11
7,test,3,0.0,2-Back,1,m,Mon Nov 04 2024 14:15:53 GMT-0600 (Central Standard Time),836337.7999999821,124_o_f_n_a.png,I,m,1301,14,1,2325.5999999940395,834012.1999999881,8008,VNB,A,12
8,test,3,0.0,2-Back,1,z,Mon Nov 04 2024 14:15:53 GMT-0600 (Central Standard Time),838887.1999999881,039_o_m_d_a.png,I,z,1528,15,1,2542.199999988079,836345.0,8008,VNB,A,13
9,test,3,1.0,2-Back,1,m,Mon Nov 04 2024 14:15:53 GMT-0600 (Central Standard Time),841219.599999994,139_m_f_h_a.png,I,m,1299,16,1,2324.800000011921,838894.7999999821,8008,VNB,A,14
9,test,3,0.0,2-Back,0,m,Mon Nov 04 2024 14:15:53 GMT-0600 (Central Standard Time),843435.7999999821,165_m_m_n_a.png,I,z,1191,17,1,2209.0999999940395,841226.6999999881,8008,VNB,A,15
9,test,3,0.0,2-Back,0,z,Mon Nov 04 2024 14:15:53 GMT-0600 (Central Standard Time),846267.8999999762,109_y_m_h_a.png,I,m,1807,18,1,2825.199999988079,843442.6999999881,8008,VNB,A,16
0,test,4,0.0,2-Back,,,Mon Nov 04 2024 14:15:53 GMT-0600 (Central Standard Time),846267.8999999762,139_m_f_n_a.png,I,space,3975,1,1,2825.199999988079,843442.6999999881,8008,VNB,A,0
0,test,4,0.0,2-Back,,,Mon Nov 04 2024 14:15:53 GMT-0600 (Central Standard Time),846267.8999999762,039_o_m_n_a.png,I,space,3975,2,1,2825.199999988079,843442.6999999881,8008,VNB,A,0
1,test,4,1.0,2-Back,1,m,Mon Nov 04 2024 14:15:53 GMT-0600 (Central Standard Time),858047.6999999881,109_y_m_h_a.png,I,m,1693,3,1,2708.199999988079,855339.5,8008,VNB,A,1
1,test,4,1.0,2-Back,0,m,Mon Nov 04 2024 14:15:53 GMT-0600 (Central Standard Time),861080.1999999881,124_o_f_d_a.png,I,None,2016,4,1,3025.0,858055.1999999881,8008,VNB,A,2
2,test,4,0.0,2-Back,1,z,Mon Nov 04 2024 14:15:53 GMT-0600 (Central Standard Time),863396.0,039_o_m_h_a.png,I,z,1290,5,1,2308.4000000059605,861087.599999994,8008,VNB,A,3
3,test,4,0.0,2-Back,1,m,Mon Nov 04 2024 14:15:53 GMT-0600 (Central Standard Time),865928.5,165_m_m_n_a.png,I,m,1510,6,1,2524.9000000059605,863403.599999994,8008,VNB,A,4
4,test,4,0.0,2-Back,1,m,Mon Nov 04 2024 14:15:53 GMT-0600 (Central Standard Time),868227.6999999881,139_m_f_d_a.png,I,m,1282,7,1,2291.300000011921,865936.3999999762,8008,VNB,A,5
5,test,4,0.0,2-Back,1,z,Mon Nov 04 2024 14:15:53 GMT-0600 (Central Standard Time),870777.099999994,071_y_f_n_a.png,I,z,1527,8,1,2541.5999999940395,868235.5,8008,VNB,A,6
6,test,4,1.0,2-Back,1,m,Mon Nov 04 2024 14:15:53 GMT-0600 (Central Standard Time),872959.7999999821,124_o_f_h_a.png,I,m,1153,9,1,2175.5,870784.2999999821,8008,VNB,A,7
6,test,4,0.0,2-Back,0,m,Mon Nov 04 2024 14:15:53 GMT-0600 (Central Standard Time),875992.2999999821,165_m_m_h_a.png,I,None,2016,10,1,3024.4000000059605,872967.8999999762,8008,VNB,A,8
6,test,4,0.0,2-Back,0,m,Mon Nov 04 2024 14:15:53 GMT-0600 (Central Standard Time),879024.6999999881,071_y_f_d_a.png,I,None,2016,11,1,3024.9000000059605,875999.7999999821,8008,VNB,A,9
6,test,4,0.0,2-Back,0,m,Mon Nov 04 2024 14:15:53 GMT-0600 (Central Standard Time),881373.6999999881,109_y_m_n_a.png,I,z,1322,12,1,2341.4000000059605,879032.2999999821,8008,VNB,A,10
7,test,4,0.0,2-Back,1,z,Mon Nov 04 2024 14:15:53 GMT-0600 (Central Standard Time),883606.3999999762,039_o_m_d_a.png,I,z,1205,13,1,2225.399999976158,881381.0,8008,VNB,A,11
7,test,4,1.0,2-Back,0,m,Mon Nov 04 2024 14:15:53 GMT-0600 (Central Standard Time),886438.7999999821,139_m_f_h_a.png,I,z,1804,14,1,2824.9000000059605,883613.8999999762,8008,VNB,A,12
7,test,4,1.0,2-Back,0,m,Mon Nov 04 2024 14:15:53 GMT-0600 (Central Standard Time),889087.7999999821,071_y_f_h_a.png,I,z,1628,15,1,2641.0999999940395,886446.6999999881,8008,VNB,A,13
7,test,4,0.0,2-Back,0,m,Mon Nov 04 2024 14:15:53 GMT-0600 (Central Standard Time),892120.2999999821,124_o_f_n_a.png,I,None,2016,16,1,3024.5,889095.7999999821,8008,VNB,A,14
8,test,4,0.0,2-Back,1,m,Mon Nov 04 2024 14:15:53 GMT-0600 (Central Standard Time),894436.2999999821,109_y_m_d_a.png,I,m,1298,17,1,2308.0999999940395,892128.1999999881,8008,VNB,A,15
9,test,4,1.0,2-Back,1,m,Mon Nov 04 2024 14:15:53 GMT-0600 (Central Standard Time),897135.3999999762,165_m_m_d_a.png,I,m,1678,18,1,2691.7999999821186,894443.599999994,8008,VNB,A,16
0,test,5,1.0,2-Back,,,Mon Nov 04 2024 14:15:53 GMT-0600 (Central Standard Time),897135.3999999762,071_y_f_d_a.png,I,space,2003,1,1,2691.7999999821186,894443.599999994,8008,VNB,A,0
0,test,5,1.0,2-Back,,,Mon Nov 04 2024 14:15:53 GMT-0600 (Central Standard Time),897135.3999999762,124_o_f_h_a.png,I,space,2003,2,1,2691.7999999821186,894443.599999994,8008,VNB,A,0
1,test,5,1.0,2-Back,1,z,Mon Nov 04 2024 14:15:53 GMT-0600 (Central Standard Time),906432.3999999762,039_o_m_d_a.png,I,z,1160,3,1,2175.199999988079,904257.1999999881,8008,VNB,A,1
2,test,5,1.0,2-Back,1,m,Mon Nov 04 2024 14:15:53 GMT-0600 (Central Standard Time),908643.3999999762,139_m_f_n_a.png,I,m,1050,4,1,2203.2999999821186,906440.099999994,8008,VNB,A,2
2,test,5,0.0,2-Back,0,m,Mon Nov 04 2024 14:15:53 GMT-0600 (Central Standard Time),911381.1999999881,165_m_m_h_a.png,I,z,1706,5,1,2727.300000011921,908653.8999999762,8008,VNB,A,3
3,test,5,0.0,2-Back,1,z,Mon Nov 04 2024 14:15:53 GMT-0600 (Central Standard Time),914163.5,071_y_f_n_a.png,I,z,1749,6,1,2774.4000000059605,911389.099999994,8008,VNB,A,4
4,test,5,0.0,2-Back,1,m,Mon Nov 04 2024 14:15:53 GMT-0600 (Central Standard Time),917096.0,124_o_f_d_a.png,I,m,1911,7,1,2924.600000023842,914171.3999999762,8008,VNB,A,5
4,test,5,0.0,2-Back,0,m,Mon Nov 04 2024 14:15:53 GMT-0600 (Central Standard Time),919545.099999994,039_o_m_h_a.png,I,z,1426,8,1,2442.0999999940395,917103.0,8008,VNB,A,6
5,test,5,1.0,2-Back,1,z,Mon Nov 04 2024 14:15:53 GMT-0600 (Central Standard Time),922294.1999999881,139_m_f_d_a.png,I,z,1721,9,1,2741.4000000059605,919552.7999999821,8008,VNB,A,7
5,test,5,0.0,2-Back,0,m,Mon Nov 04 2024 14:15:53 GMT-0600 (Central Standard Time),925326.8999999762,109_y_m_n_a.png,I,None,2016,10,1,3024.899999976158,922302.0,8008,VNB,A,8
6,test,5,0.0,2-Back,1,m,Mon Nov 04 2024 14:15:53 GMT-0600 (Central Standard Time),928259.099999994,165_m_m_n_a.png,I,m,1900,11,1,2924.2000000178814,925334.8999999762,8008,VNB,A,9
6,test,5,0.0,2-Back,0,m,Mon Nov 04 2024 14:15:53 GMT-0600 (Central Standard Time),931291.5,071_y_f_h_a.png,I,None,2015,12,1,3025.100000023842,928266.3999999762,8008,VNB,A,10
6,test,5,0.0,2-Back,0,m,Mon Nov 04 2024 14:15:53 GMT-0600 (Central Standard Time),934191.5,109_y_m_d_a.png,I,z,1877,13,1,2892.4000000059605,931299.099999994,8008,VNB,A,11
7,test,5,1.0,2-Back,1,z,Mon Nov 04 2024 14:15:53 GMT-0600 (Central Standard Time),936889.6999999881,139_m_f_h_a.png,I,z,1668,14,1,2690.5999999940395,934199.099999994,8008,VNB,A,12
8,test,5,0.0,2-Back,1,m,Mon Nov 04 2024 14:15:53 GMT-0600 (Central Standard Time),939738.6999999881,039_o_m_n_a.png,I,m,1817,15,1,2841.9000000059605,936896.7999999821,8008,VNB,A,13
9,test,5,0.0,2-Back,1,m,Mon Nov 04 2024 14:15:53 GMT-0600 (Central Standard Time),942471.1999999881,165_m_m_d_a.png,I,m,1704,16,1,2724.800000011921,939746.3999999762,8008,VNB,A,14
10,test,5,0.0,2-Back,1,z,Mon Nov 04 2024 14:15:53 GMT-0600 (Central Standard Time),945270.3999999762,124_o_f_n_a.png,I,z,1771,17,1,2791.5,942478.8999999762,8008,VNB,A,15
11,test,5,1.0,2-Back,1,m,Mon Nov 04 2024 14:15:53 GMT-0600 (Central Standard Time),948202.6999999881,109_y_m_h_a.png,I,m,1900,18,1,2924.699999988079,945278.0,8008,VNB,A,16
