block_c,block_dur,condition,countdown,datetime,endtime,list,multichar_response,project,response,response_time,session_number,start_end,starttime,subject_id,task,task_vers,trial
,,,,Tue Oct 01 2024 16:16:00 GMT-0500 (Central Daylight Time),,,,O,space,800,1,,,7022,WL,C,
prac,,0,,Tue Oct 01 2024 16:16:00 GMT-0500 (Central Daylight Time),,NA,b,O,b,4095,1,,,7022,WL,C,1.0
prac,,0,,Tue Oct 01 2024 16:16:00 GMT-0500 (Central Daylight Time),,NA,bo,O,o,265,1,,,7022,WL,C,1.0
prac,,0,,Tue Oct 01 2024 16:16:00 GMT-0500 (Central Daylight Time),,NA,boo,O,o,134,1,,,7022,WL,C,1.0
prac,,0,,Tue Oct 01 2024 16:16:00 GMT-0500 (Central Daylight Time),,NA,boos,O,s,209,1,,,7022,WL,C,1.0
prac,,0,,Tue Oct 01 2024 16:16:00 GMT-0500 (Central Daylight Time),,NA,boost,O,t,312,1,,,7022,WL,C,1.0
prac,,0,,Tue Oct 01 2024 16:16:00 GMT-0500 (Central Daylight Time),,NA,boostenter,O,enter,1720,1,,,7022,WL,C,1.0
1,2.317000150680542,learn,57682.99984931946,Tue Oct 01 2024 16:16:00 GMT-0500 (Central Daylight Time),145370.89999997616,A,t,O,t,2271,1,2315.600000023842,143055.29999995232,7022,WL,C,1.0
1,2.5,learn,57500.0,Tue Oct 01 2024 16:16:00 GMT-0500 (Central Daylight Time),145554.19999992847,A,to,O,o,141,1,2498.899999976158,143055.29999995232,7022,WL,C,1.0
1,2.683000087738037,learn,57316.99991226196,Tue Oct 01 2024 16:16:00 GMT-0500 (Central Daylight Time),145737.0,A,tow,O,w,152,1,2681.7000000476837,143055.29999995232,7022,WL,C,1.0
1,2.933000087738037,learn,57066.99991226196,Tue Oct 01 2024 16:16:00 GMT-0500 (Central Daylight Time),145986.79999995232,A,towe,O,e,208,1,2931.5,143055.29999995232,7022,WL,C,1.0
1,3.117000102996826,learn,56882.999897003174,Tue Oct 01 2024 16:16:00 GMT-0500 (Central Daylight Time),146170.60000002384,A,tower,O,r,143,1,3115.3000000715256,143055.29999995232,7022,WL,C,1.0
1,5.54800009727478,learn,54451.99990272522,Tue Oct 01 2024 16:16:00 GMT-0500 (Central Daylight Time),148602.0,A,towerenter,O,enter,2399,1,5546.700000047684,143055.29999995232,7022,WL,C,1.0
1,8.281000137329102,learn,51718.9998626709,Tue Oct 01 2024 16:16:00 GMT-0500 (Central Daylight Time),151335.5,A,q,O,q,2715,1,2733.100000023842,148602.39999997616,7022,WL,C,2.0
1,8.481000185012817,learn,51518.99981498718,Tue Oct 01 2024 16:16:00 GMT-0500 (Central Daylight Time),151535.19999992847,A,qu,O,u,162,1,2932.7999999523163,148602.39999997616,7022,WL,C,2.0
1,8.769999980926514,learn,51230.000019073486,Tue Oct 01 2024 16:16:00 GMT-0500 (Central Daylight Time),151824.29999995232,A,que,O,e,242,1,3221.899999976158,148602.39999997616,7022,WL,C,2.0
1,8.930999994277954,learn,51069.000005722046,Tue Oct 01 2024 16:16:00 GMT-0500 (Central Daylight Time),151985.0,A,quee,O,e,135,1,3382.600000023842,148602.39999997616,7022,WL,C,2.0
1,9.164000034332275,learn,50835.999965667725,Tue Oct 01 2024 16:16:00 GMT-0500 (Central Daylight Time),152218.39999997616,A,queen,O,n,197,1,3616.0,148602.39999997616,7022,WL,C,2.0
1,9.61300015449524,learn,50386.99984550476,Tue Oct 01 2024 16:16:00 GMT-0500 (Central Daylight Time),152667.29999995232,A,queenenter,O,enter,407,1,4064.899999976158,148602.39999997616,7022,WL,C,2.0
1,10.44700002670288,learn,49552.99997329712,Tue Oct 01 2024 16:16:00 GMT-0500 (Central Daylight Time),153501.10000002384,A,b,O,b,818,1,833.5,152667.60000002384,7022,WL,C,3.0
1,10.680000066757202,learn,49319.9999332428,Tue Oct 01 2024 16:16:00 GMT-0500 (Central Daylight Time),153734.29999995232,A,bo,O,o,206,1,1066.6999999284744,152667.60000002384,7022,WL,C,3.0
1,10.86300015449524,learn,49136.99984550476,Tue Oct 01 2024 16:16:00 GMT-0500 (Central Daylight Time),153917.39999997616,A,boy,O,y,149,1,1249.7999999523163,152667.60000002384,7022,WL,C,3.0
1,11.379000186920166,learn,48620.999813079834,Tue Oct 01 2024 16:16:00 GMT-0500 (Central Daylight Time),154433.39999997616,A,boyenter,O,enter,476,1,1765.7999999523163,152667.60000002384,7022,WL,C,3.0
1,12.796000003814697,learn,47203.9999961853,Tue Oct 01 2024 16:16:00 GMT-0500 (Central Daylight Time),155850.39999997616,A,c,O,c,1396,1,1416.7000000476837,154433.69999992847,7022,WL,C,4.0
1,12.92900013923645,learn,47070.99986076355,Tue Oct 01 2024 16:16:00 GMT-0500 (Central Daylight Time),155983.39999997616,A,co,O,o,97,1,1549.7000000476837,154433.69999992847,7022,WL,C,4.0
1,13.062999963760376,learn,46937.000036239624,Tue Oct 01 2024 16:16:00 GMT-0500 (Central Daylight Time),156117.0,A,cor,O,r,115,1,1683.3000000715256,154433.69999992847,7022,WL,C,4.0
1,13.263000011444092,learn,46736.99998855591,Tue Oct 01 2024 16:16:00 GMT-0500 (Central Daylight Time),156316.89999997616,A,corn,O,n,173,1,1883.2000000476837,154433.69999992847,7022,WL,C,4.0
1,13.611999988555908,learn,46388.00001144409,Tue Oct 01 2024 16:16:00 GMT-0500 (Central Daylight Time),156666.0,A,cornenter,O,enter,308,1,2232.3000000715256,154433.69999992847,7022,WL,C,4.0
1,14.111999988555908,learn,45888.00001144409,Tue Oct 01 2024 16:16:00 GMT-0500 (Central Daylight Time),157166.5,A,w,O,w,484,1,500.10000002384186,156666.39999997616,7022,WL,C,5.0
1,14.26200008392334,learn,45737.99991607666,Tue Oct 01 2024 16:16:00 GMT-0500 (Central Daylight Time),157315.60000002384,A,wh,O,h,129,1,649.2000000476837,156666.39999997616,7022,WL,C,5.0
1,14.396000146865845,learn,45603.999853134155,Tue Oct 01 2024 16:16:00 GMT-0500 (Central Daylight Time),157449.79999995232,A,whe,O,e,113,1,783.3999999761581,156666.39999997616,7022,WL,C,5.0
1,14.894999980926514,learn,45105.000019073486,Tue Oct 01 2024 16:16:00 GMT-0500 (Central Daylight Time),157948.79999995232,A,whea,O,a,471,1,1282.3999999761581,156666.39999997616,7022,WL,C,5.0
1,15.045000076293945,learn,44954.999923706055,Tue Oct 01 2024 16:16:00 GMT-0500 (Central Daylight Time),158099.39999997616,A,wheat,O,t,135,1,1433.0,156666.39999997616,7022,WL,C,5.0
1,15.445000171661377,learn,44554.99982833862,Tue Oct 01 2024 16:16:00 GMT-0500 (Central Daylight Time),158498.79999995232,A,wheatenter,O,enter,370,1,1832.3999999761581,156666.39999997616,7022,WL,C,5.0
1,15.995000123977661,learn,44004.99987602234,Tue Oct 01 2024 16:16:00 GMT-0500 (Central Daylight Time),159049.29999995232,A,d,O,d,531,1,550.2999999523163,158499.0,7022,WL,C,6.0
1,16.09500002861023,learn,43904.99997138977,Tue Oct 01 2024 16:16:00 GMT-0500 (Central Daylight Time),159148.39999997616,A,do,O,o,76,1,649.3999999761581,158499.0,7022,WL,C,6.0
1,16.24500012397766,learn,43754.99987602234,Tue Oct 01 2024 16:16:00 GMT-0500 (Central Daylight Time),159298.5,A,doc,O,c,132,1,799.5,158499.0,7022,WL,C,6.0
1,16.460999965667725,learn,43539.000034332275,Tue Oct 01 2024 16:16:00 GMT-0500 (Central Daylight Time),159515.19999992847,A,doct,O,t,206,1,1016.1999999284744,158499.0,7022,WL,C,6.0
1,16.611999988555908,learn,43388.00001144409,Tue Oct 01 2024 16:16:00 GMT-0500 (Central Daylight Time),159665.60000002384,A,docto,O,o,128,1,1166.6000000238419,158499.0,7022,WL,C,6.0
1,16.77900004386902,learn,43220.99995613098,Tue Oct 01 2024 16:16:00 GMT-0500 (Central Daylight Time),159832.79999995232,A,doctor,O,r,134,1,1333.7999999523163,158499.0,7022,WL,C,6.0
1,17.111000061035156,learn,42888.999938964844,Tue Oct 01 2024 16:16:00 GMT-0500 (Central Daylight Time),160164.69999992847,A,doctorenter,O,enter,303,1,1665.6999999284744,158499.0,7022,WL,C,6.0
1,17.66100001335144,learn,42338.99998664856,Tue Oct 01 2024 16:16:00 GMT-0500 (Central Daylight Time),160715.39999997616,A,f,O,f,526,1,550.3999999761581,160165.0,7022,WL,C,7.0
1,17.778000116348267,learn,42221.99988365173,Tue Oct 01 2024 16:16:00 GMT-0500 (Central Daylight Time),160832.10000002384,A,fl,O,l,88,1,667.1000000238419,160165.0,7022,WL,C,7.0
1,17.944000005722046,learn,42055.999994277954,Tue Oct 01 2024 16:16:00 GMT-0500 (Central Daylight Time),160998.29999995232,A,fla,O,a,131,1,833.2999999523163,160165.0,7022,WL,C,7.0
1,18.259999990463257,learn,41740.00000953674,Tue Oct 01 2024 16:16:00 GMT-0500 (Central Daylight Time),161314.39999997616,A,flag,O,g,294,1,1149.3999999761581,160165.0,7022,WL,C,7.0
1,18.56000018119812,learn,41439.99981880188,Tue Oct 01 2024 16:16:00 GMT-0500 (Central Daylight Time),161614.19999992847,A,flagenter,O,enter,289,1,1449.1999999284744,160165.0,7022,WL,C,7.0
1,23.526000022888184,learn,36473.99997711182,Tue Oct 01 2024 16:16:00 GMT-0500 (Central Daylight Time),166579.5,A,s,O,s,4944,1,4965.0,161614.5,7022,WL,C,8.0
1,23.676000118255615,learn,36323.999881744385,Tue Oct 01 2024 16:16:00 GMT-0500 (Central Daylight Time),166729.79999995232,A,su,O,u,133,1,5115.299999952316,161614.5,7022,WL,C,8.0
1,23.759000062942505,learn,36240.999937057495,Tue Oct 01 2024 16:16:00 GMT-0500 (Central Daylight Time),166812.60000002384,A,sug,O,g,59,1,5198.100000023842,161614.5,7022,WL,C,8.0
1,24.14199995994568,learn,35858.00004005432,Tue Oct 01 2024 16:16:00 GMT-0500 (Central Daylight Time),167196.5,A,suga,O,a,360,1,5582.0,161614.5,7022,WL,C,8.0
1,24.358999967575073,learn,35641.00003242493,Tue Oct 01 2024 16:16:00 GMT-0500 (Central Daylight Time),167412.69999992847,A,sugar,O,r,190,1,5798.199999928474,161614.5,7022,WL,C,8.0
1,24.64199995994568,learn,35358.00004005432,Tue Oct 01 2024 16:16:00 GMT-0500 (Central Daylight Time),167695.60000002384,A,sugarenter,O,enter,266,1,6081.100000023842,161614.5,7022,WL,C,8.0
1,29.70800018310547,learn,30291.99981689453,Tue Oct 01 2024 16:16:00 GMT-0500 (Central Daylight Time),172760.89999997616,A,d,O,d,5045,1,5064.899999976158,167696.0,7022,WL,C,9.0
1,29.95800018310547,learn,30041.99981689453,Tue Oct 01 2024 16:16:00 GMT-0500 (Central Daylight Time),173011.69999992847,A,do,O,o,230,1,5315.699999928474,167696.0,7022,WL,C,9.0
1,30.075000047683716,learn,29924.999952316284,Tue Oct 01 2024 16:16:00 GMT-0500 (Central Daylight Time),173127.89999997616,A,doc,O,c,89,1,5431.899999976158,167696.0,7022,WL,C,9.0
1,30.35800004005432,learn,29641.99995994568,Tue Oct 01 2024 16:16:00 GMT-0500 (Central Daylight Time),173410.89999997616,A,doct,O,t,252,1,5714.899999976158,167696.0,7022,WL,C,9.0
1,30.557000160217285,learn,29442.999839782715,Tue Oct 01 2024 16:16:00 GMT-0500 (Central Daylight Time),173610.39999997616,A,docto,O,o,165,1,5914.399999976158,167696.0,7022,WL,C,9.0
1,30.657000064849854,learn,29342.999935150146,Tue Oct 01 2024 16:16:00 GMT-0500 (Central Daylight Time),173710.39999997616,A,doctor,O,r,82,1,6014.399999976158,167696.0,7022,WL,C,9.0
1,30.907000064849854,learn,29092.999935150146,Tue Oct 01 2024 16:16:00 GMT-0500 (Central Daylight Time),173960.29999995232,A,doctorenter,O,enter,238,1,6264.299999952316,167696.0,7022,WL,C,9.0
1,46.46900010108948,learn,13530.999898910522,Tue Oct 01 2024 16:16:00 GMT-0500 (Central Daylight Time),189522.60000002384,A,c,O,c,15551,1,15562.0,173960.60000002384,7022,WL,C,10.0
1,46.68600010871887,learn,13313.999891281128,Tue Oct 01 2024 16:16:00 GMT-0500 (Central Daylight Time),189739.19999992847,A,ca,O,a,176,1,15778.599999904633,173960.60000002384,7022,WL,C,10.0
1,46.86899995803833,learn,13131.00004196167,Tue Oct 01 2024 16:16:00 GMT-0500 (Central Daylight Time),189922.5,A,cat,O,t,144,1,15961.899999976158,173960.60000002384,7022,WL,C,10.0
1,47.05200004577637,learn,12947.999954223633,Tue Oct 01 2024 16:16:00 GMT-0500 (Central Daylight Time),190104.89999997616,A,catt,O,t,152,1,16144.299999952316,173960.60000002384,7022,WL,C,10.0
1,47.25200009346008,learn,12747.999906539917,Tue Oct 01 2024 16:16:00 GMT-0500 (Central Daylight Time),190305.19999992847,A,cattl,O,l,188,1,16344.599999904633,173960.60000002384,7022,WL,C,10.0
1,47.36899995803833,learn,12631.00004196167,Tue Oct 01 2024 16:16:00 GMT-0500 (Central Daylight Time),190422.10000002384,A,cattle,O,e,103,1,16461.5,173960.60000002384,7022,WL,C,10.0
1,47.568000078201294,learn,12431.999921798706,Tue Oct 01 2024 16:16:00 GMT-0500 (Central Daylight Time),190621.5,A,cattleenter,O,enter,169,1,16660.899999976158,173960.60000002384,7022,WL,C,10.0
1,60.015000104904175,learn,-15.000104904174805,Tue Oct 01 2024 16:16:00 GMT-0500 (Central Daylight Time),203068.60000002384,A,None,O,None,12440,1,12446.900000095367,190621.69999992847,7022,WL,C,11.0
2,4.431999921798706,learn,55568.000078201294,Tue Oct 01 2024 16:16:00 GMT-0500 (Central Daylight Time),277976.1999999285,A,w,O,w,4404,1,4431.299999952316,273544.89999997616,7022,WL,C,1.0
2,4.631999969482422,learn,55368.00003051758,Tue Oct 01 2024 16:16:00 GMT-0500 (Central Daylight Time),278176.10000002384,A,wh,O,h,180,1,4631.200000047684,273544.89999997616,7022,WL,C,1.0
2,4.881999969482422,learn,55118.00003051758,Tue Oct 01 2024 16:16:00 GMT-0500 (Central Daylight Time),278426.7999999523,A,whe,O,e,237,1,4881.899999976158,273544.89999997616,7022,WL,C,1.0
2,5.098999977111816,learn,54901.00002288818,Tue Oct 01 2024 16:16:00 GMT-0500 (Central Daylight Time),278643.2999999523,A,whea,O,a,186,1,5098.399999976158,273544.89999997616,7022,WL,C,1.0
2,5.330999851226807,learn,54669.00014877319,Tue Oct 01 2024 16:16:00 GMT-0500 (Central Daylight Time),278875.7999999523,A,wheat,O,t,193,1,5330.899999976158,273544.89999997616,7022,WL,C,1.0
2,6.614000082015991,learn,53385.99991798401,Tue Oct 01 2024 16:16:00 GMT-0500 (Central Daylight Time),280158.6999999285,A,wheatenter,O,enter,1273,1,6613.799999952316,273544.89999997616,7022,WL,C,1.0
2,8.297999858856201,learn,51702.0001411438,Tue Oct 01 2024 16:16:00 GMT-0500 (Central Daylight Time),281842.1999999285,A,q,O,q,1662,1,1683.1999999284744,280159.0,7022,WL,C,2.0
2,8.447999954223633,learn,51552.00004577637,Tue Oct 01 2024 16:16:00 GMT-0500 (Central Daylight Time),281992.1999999285,A,qu,O,u,122,1,1833.1999999284744,280159.0,7022,WL,C,2.0
2,8.980000019073486,learn,51019.999980926514,Tue Oct 01 2024 16:16:00 GMT-0500 (Central Daylight Time),282524.60000002384,A,que,O,e,508,1,2365.600000023842,280159.0,7022,WL,C,2.0
2,9.148000001907349,learn,50851.99999809265,Tue Oct 01 2024 16:16:00 GMT-0500 (Central Daylight Time),282692.0,A,quee,O,e,153,1,2533.0,280159.0,7022,WL,C,2.0
2,9.364000082015991,learn,50635.99991798401,Tue Oct 01 2024 16:16:00 GMT-0500 (Central Daylight Time),282908.7999999523,A,queen,O,n,177,1,2749.7999999523163,280159.0,7022,WL,C,2.0
2,9.730000019073486,learn,50269.999980926514,Tue Oct 01 2024 16:16:00 GMT-0500 (Central Daylight Time),283274.39999997616,A,queenenter,O,enter,325,1,3115.399999976158,280159.0,7022,WL,C,2.0
2,13.19599986076355,learn,46804.00013923645,Tue Oct 01 2024 16:16:00 GMT-0500 (Central Daylight Time),286740.39999997616,A,s,O,s,3443,1,3465.7000000476837,283274.6999999285,7022,WL,C,3.0
2,13.361999988555908,learn,46638.00001144409,Tue Oct 01 2024 16:16:00 GMT-0500 (Central Daylight Time),286906.89999997616,A,su,O,u,144,1,3632.2000000476837,283274.6999999285,7022,WL,C,3.0
2,13.461999893188477,learn,46538.00010681152,Tue Oct 01 2024 16:16:00 GMT-0500 (Central Daylight Time),287006.5,A,sug,O,g,81,1,3731.8000000715256,283274.6999999285,7022,WL,C,3.0
2,13.628999948501587,learn,46371.00005149841,Tue Oct 01 2024 16:16:00 GMT-0500 (Central Daylight Time),287173.5,A,suga,O,a,148,1,3898.8000000715256,283274.6999999285,7022,WL,C,3.0
2,13.795000076293945,learn,46204.999923706055,Tue Oct 01 2024 16:16:00 GMT-0500 (Central Daylight Time),287339.6999999285,A,sugar,O,r,150,1,4065.0,283274.6999999285,7022,WL,C,3.0
2,14.178999900817871,learn,45821.00009918213,Tue Oct 01 2024 16:16:00 GMT-0500 (Central Daylight Time),287723.0,A,sugarenter,O,enter,368,1,4448.300000071526,283274.6999999285,7022,WL,C,3.0
2,14.76200008392334,learn,45237.99991607666,Tue Oct 01 2024 16:16:00 GMT-0500 (Central Daylight Time),288306.7999999523,A,d,O,d,563,1,583.5,287723.2999999523,7022,WL,C,4.0
2,14.911999940872192,learn,45088.00005912781,Tue Oct 01 2024 16:16:00 GMT-0500 (Central Daylight Time),288456.6999999285,A,do,O,o,124,1,733.3999999761581,287723.2999999523,7022,WL,C,4.0
2,15.027999877929688,learn,44972.00012207031,Tue Oct 01 2024 16:16:00 GMT-0500 (Central Daylight Time),288572.6999999285,A,doc,O,c,85,1,849.3999999761581,287723.2999999523,7022,WL,C,4.0
2,15.227999925613403,learn,44772.0000743866,Tue Oct 01 2024 16:16:00 GMT-0500 (Central Daylight Time),288772.6999999285,A,doct,O,t,192,1,1049.3999999761581,287723.2999999523,7022,WL,C,4.0
2,15.361999988555908,learn,44638.00001144409,Tue Oct 01 2024 16:16:00 GMT-0500 (Central Daylight Time),288906.5,A,docto,O,o,113,1,1183.2000000476837,287723.2999999523,7022,WL,C,4.0
2,15.810999870300293,learn,44189.00012969971,Tue Oct 01 2024 16:16:00 GMT-0500 (Central Daylight Time),289355.60000002384,A,doctoenter,O,enter,427,1,1632.3000000715256,287723.2999999523,7022,WL,C,4.0
2,16.84500002861023,learn,43154.99997138977,Tue Oct 01 2024 16:16:00 GMT-0500 (Central Daylight Time),290389.60000002384,A,l,O,l,1019,1,1033.8000000715256,289355.7999999523,7022,WL,C,5.0
2,16.944999933242798,learn,43055.0000667572,Tue Oct 01 2024 16:16:00 GMT-0500 (Central Daylight Time),290489.1999999285,A,le,O,e,63,1,1133.3999999761581,289355.7999999523,7022,WL,C,5.0
2,17.07800006866455,learn,42921.99993133545,Tue Oct 01 2024 16:16:00 GMT-0500 (Central Daylight Time),290622.6999999285,A,let,O,t,100,1,1266.8999999761581,289355.7999999523,7022,WL,C,5.0
2,17.24399995803833,learn,42756.00004196167,Tue Oct 01 2024 16:16:00 GMT-0500 (Central Daylight Time),290788.6999999285,A,lett,O,t,142,1,1432.8999999761581,289355.7999999523,7022,WL,C,5.0
2,17.42799997329712,learn,42572.00002670288,Tue Oct 01 2024 16:16:00 GMT-0500 (Central Daylight Time),290972.0,A,lette,O,e,155,1,1616.2000000476837,289355.7999999523,7022,WL,C,5.0
2,17.51099991798401,learn,42489.00008201599,Tue Oct 01 2024 16:16:00 GMT-0500 (Central Daylight Time),291055.39999997616,A,letter,O,r,58,1,1699.6000000238419,289355.7999999523,7022,WL,C,5.0
2,17.72699999809265,learn,42273.00000190735,Tue Oct 01 2024 16:16:00 GMT-0500 (Central Daylight Time),291271.7999999523,A,letterenter,O,enter,199,1,1916.0,289355.7999999523,7022,WL,C,5.0
2,20.99399995803833,learn,39006.00004196167,Tue Oct 01 2024 16:16:00 GMT-0500 (Central Daylight Time),294537.2999999523,A,b,O,b,3245,1,3265.2999999523163,291272.0,7022,WL,C,6.0
2,21.126999855041504,learn,38873.000144958496,Tue Oct 01 2024 16:16:00 GMT-0500 (Central Daylight Time),294670.6999999285,A,bo,O,o,122,1,3398.6999999284744,291272.0,7022,WL,C,6.0
2,21.24399995803833,learn,38756.00004196167,Tue Oct 01 2024 16:16:00 GMT-0500 (Central Daylight Time),294787.1999999285,A,boy,O,y,110,1,3515.1999999284744,291272.0,7022,WL,C,6.0
2,21.5939998626709,learn,38406.0001373291,Tue Oct 01 2024 16:16:00 GMT-0500 (Central Daylight Time),295137.1999999285,A,boyenter,O,enter,338,1,3865.1999999284744,291272.0,7022,WL,C,6.0
2,22.060999870300293,learn,37939.00012969971,Tue Oct 01 2024 16:16:00 GMT-0500 (Central Daylight Time),295604.2999999523,A,c,O,c,445,1,466.6999999284744,295137.60000002384,7022,WL,C,7.0
2,22.193000078201294,learn,37806.999921798706,Tue Oct 01 2024 16:16:00 GMT-0500 (Central Daylight Time),295737.0,A,ca,O,a,111,1,599.3999999761581,295137.60000002384,7022,WL,C,7.0
2,22.325999975204468,learn,37674.00002479553,Tue Oct 01 2024 16:16:00 GMT-0500 (Central Daylight Time),295870.1999999285,A,cam,O,m,118,1,732.5999999046326,295137.60000002384,7022,WL,C,7.0
2,22.57699990272522,learn,37423.00009727478,Tue Oct 01 2024 16:16:00 GMT-0500 (Central Daylight Time),296121.0,A,camp,O,p,231,1,983.3999999761581,295137.60000002384,7022,WL,C,7.0
2,22.993000030517578,learn,37006.99996948242,Tue Oct 01 2024 16:16:00 GMT-0500 (Central Daylight Time),296536.7999999523,A,campenter,O,enter,387,1,1399.1999999284744,295137.60000002384,7022,WL,C,7.0
2,25.825000047683716,learn,34174.999952316284,Tue Oct 01 2024 16:16:00 GMT-0500 (Central Daylight Time),299369.10000002384,A,c,O,c,2821,1,2832.100000023842,296537.0,7022,WL,C,8.0
2,26.009000062942505,learn,33990.999937057495,Tue Oct 01 2024 16:16:00 GMT-0500 (Central Daylight Time),299552.5,A,ca,O,a,171,1,3015.5,296537.0,7022,WL,C,8.0
2,26.191999912261963,learn,33808.00008773804,Tue Oct 01 2024 16:16:00 GMT-0500 (Central Daylight Time),299735.7999999523,A,cat,O,t,164,1,3198.7999999523163,296537.0,7022,WL,C,8.0
2,26.358999967575073,learn,33641.00003242493,Tue Oct 01 2024 16:16:00 GMT-0500 (Central Daylight Time),299902.7999999523,A,catt,O,t,152,1,3365.7999999523163,296537.0,7022,WL,C,8.0
2,26.54200005531311,learn,33457.99994468689,Tue Oct 01 2024 16:16:00 GMT-0500 (Central Daylight Time),300085.39999997616,A,cattl,O,l,157,1,3548.399999976158,296537.0,7022,WL,C,8.0
2,26.691999912261963,learn,33308.00008773804,Tue Oct 01 2024 16:16:00 GMT-0500 (Central Daylight Time),300235.89999997616,A,cattle,O,e,129,1,3698.899999976158,296537.0,7022,WL,C,8.0
2,26.907999992370605,learn,33092.000007629395,Tue Oct 01 2024 16:16:00 GMT-0500 (Central Daylight Time),300452.10000002384,A,cattleenter,O,enter,193,1,3915.100000023842,296537.0,7022,WL,C,8.0
2,27.54200005531311,learn,32457.99994468689,Tue Oct 01 2024 16:16:00 GMT-0500 (Central Daylight Time),301085.1999999285,A,c,O,c,625,1,632.8999999761581,300452.2999999523,7022,WL,C,9.0
2,27.64199995994568,learn,32358.00004005432,Tue Oct 01 2024 16:16:00 GMT-0500 (Central Daylight Time),301185.60000002384,A,co,O,o,88,1,733.3000000715256,300452.2999999523,7022,WL,C,9.0
2,27.776000022888184,learn,32223.999977111816,Tue Oct 01 2024 16:16:00 GMT-0500 (Central Daylight Time),301319.39999997616,A,cor,O,r,109,1,867.1000000238419,300452.2999999523,7022,WL,C,9.0
2,27.924999952316284,learn,32075.000047683716,Tue Oct 01 2024 16:16:00 GMT-0500 (Central Daylight Time),301469.1999999285,A,corn,O,n,111,1,1016.8999999761581,300452.2999999523,7022,WL,C,9.0
2,28.240999937057495,learn,31759.000062942505,Tue Oct 01 2024 16:16:00 GMT-0500 (Central Daylight Time),301785.0,A,cornenter,O,enter,285,1,1332.7000000476837,300452.2999999523,7022,WL,C,9.0
2,28.94099998474121,learn,31059.00001525879,Tue Oct 01 2024 16:16:00 GMT-0500 (Central Daylight Time),302485.2999999523,A,s,O,s,693,1,700.1000000238419,301785.1999999285,7022,WL,C,10.0
2,29.075000047683716,learn,30924.999952316284,Tue Oct 01 2024 16:16:00 GMT-0500 (Central Daylight Time),302618.7999999523,A,sh,O,h,96,1,833.6000000238419,301785.1999999285,7022,WL,C,10.0
2,29.141000032424927,learn,30858.999967575073,Tue Oct 01 2024 16:16:00 GMT-0500 (Central Daylight Time),302684.7999999523,A,sho,O,o,44,1,899.6000000238419,301785.1999999285,7022,WL,C,10.0
2,29.307999849319458,learn,30692.000150680542,Tue Oct 01 2024 16:16:00 GMT-0500 (Central Daylight Time),302852.1999999285,A,shor,O,r,152,1,1067.0,301785.1999999285,7022,WL,C,10.0
2,29.342000007629395,learn,30657.999992370605,Tue Oct 01 2024 16:16:00 GMT-0500 (Central Daylight Time),302885.2999999523,A,shore,O,e,8,1,1100.1000000238419,301785.1999999285,7022,WL,C,10.0
2,29.69099998474121,learn,30309.00001525879,Tue Oct 01 2024 16:16:00 GMT-0500 (Central Daylight Time),303234.39999997616,A,shoreenter,O,enter,318,1,1449.2000000476837,301785.1999999285,7022,WL,C,10.0
2,30.374000072479248,learn,29625.999927520752,Tue Oct 01 2024 16:16:00 GMT-0500 (Central Daylight Time),303918.1999999285,A,h,O,h,667,1,683.3999999761581,303234.7999999523,7022,WL,C,11.0
2,30.490999937057495,learn,29509.000062942505,Tue Oct 01 2024 16:16:00 GMT-0500 (Central Daylight Time),304034.89999997616,A,ho,O,o,79,1,800.1000000238419,303234.7999999523,7022,WL,C,11.0
2,30.69099998474121,learn,29309.00001525879,Tue Oct 01 2024 16:16:00 GMT-0500 (Central Daylight Time),304234.60000002384,A,hom,O,m,164,1,999.8000000715256,303234.7999999523,7022,WL,C,11.0
2,30.874000072479248,learn,29125.999927520752,Tue Oct 01 2024 16:16:00 GMT-0500 (Central Daylight Time),304418.2999999523,A,home,O,e,155,1,1183.5,303234.7999999523,7022,WL,C,11.0
2,31.240000009536743,learn,28759.999990463257,Tue Oct 01 2024 16:16:00 GMT-0500 (Central Daylight Time),304784.0,A,homeenter,O,enter,338,1,1549.2000000476837,303234.7999999523,7022,WL,C,11.0
2,32.12400007247925,learn,27875.999927520752,Tue Oct 01 2024 16:16:00 GMT-0500 (Central Daylight Time),305667.6999999285,A,t,O,t,870,1,883.3999999761581,304784.2999999523,7022,WL,C,12.0
2,32.306999921798706,learn,27693.000078201294,Tue Oct 01 2024 16:16:00 GMT-0500 (Central Daylight Time),305851.0,A,to,O,o,154,1,1066.7000000476837,304784.2999999523,7022,WL,C,12.0
2,32.44000005722046,learn,27559.99994277954,Tue Oct 01 2024 16:16:00 GMT-0500 (Central Daylight Time),305984.1999999285,A,tow,O,w,106,1,1199.8999999761581,304784.2999999523,7022,WL,C,12.0
2,32.639999866485596,learn,27360.000133514404,Tue Oct 01 2024 16:16:00 GMT-0500 (Central Daylight Time),306184.1999999285,A,towe,O,e,165,1,1399.8999999761581,304784.2999999523,7022,WL,C,12.0
2,32.7739999294281,learn,27226.0000705719,Tue Oct 01 2024 16:16:00 GMT-0500 (Central Daylight Time),306317.39999997616,A,tower,O,r,102,1,1533.1000000238419,304784.2999999523,7022,WL,C,12.0
2,33.139999866485596,learn,26860.000133514404,Tue Oct 01 2024 16:16:00 GMT-0500 (Central Daylight Time),306683.39999997616,A,towerenter,O,enter,341,1,1899.1000000238419,304784.2999999523,7022,WL,C,12.0
2,37.039000034332275,learn,22960.999965667725,Tue Oct 01 2024 16:16:00 GMT-0500 (Central Daylight Time),310582.89999997616,A,f,O,f,3884,1,3899.2000000476837,306683.6999999285,7022,WL,C,13.0
2,37.187999963760376,learn,22812.000036239624,Tue Oct 01 2024 16:16:00 GMT-0500 (Central Daylight Time),310732.10000002384,A,fl,O,l,117,1,4048.4000000953674,306683.6999999285,7022,WL,C,13.0
2,37.33800005912781,learn,22661.999940872192,Tue Oct 01 2024 16:16:00 GMT-0500 (Central Daylight Time),310882.0,A,fla,O,a,134,1,4198.300000071526,306683.6999999285,7022,WL,C,13.0
2,37.5220000743866,learn,22477.999925613403,Tue Oct 01 2024 16:16:00 GMT-0500 (Central Daylight Time),311066.0,A,flag,O,g,172,1,4382.300000071526,306683.6999999285,7022,WL,C,13.0
2,37.789000034332275,learn,22210.999965667725,Tue Oct 01 2024 16:16:00 GMT-0500 (Central Daylight Time),311332.89999997616,A,flagenter,O,enter,242,1,4649.200000047684,306683.6999999285,7022,WL,C,13.0
2,53.950000047683716,learn,6049.999952316284,Tue Oct 01 2024 16:16:00 GMT-0500 (Central Daylight Time),327494.10000002384,A,s,O,s,16146,1,16160.900000095367,311333.1999999285,7022,WL,C,14.0
2,54.198999881744385,learn,5801.000118255615,Tue Oct 01 2024 16:16:00 GMT-0500 (Central Daylight Time),327743.10000002384,A,sh,O,h,214,1,16409.900000095367,311333.1999999285,7022,WL,C,14.0
2,54.59999990463257,learn,5400.000095367432,Tue Oct 01 2024 16:16:00 GMT-0500 (Central Daylight Time),328143.60000002384,A,sho,O,o,382,1,16810.400000095367,311333.1999999285,7022,WL,C,14.0
2,54.75,learn,5250.0,Tue Oct 01 2024 16:16:00 GMT-0500 (Central Daylight Time),328293.60000002384,A,shor,O,r,118,1,16960.400000095367,311333.1999999285,7022,WL,C,14.0
2,54.865999937057495,learn,5134.000062942505,Tue Oct 01 2024 16:16:00 GMT-0500 (Central Daylight Time),328409.5,A,shore,O,e,88,1,17076.300000071526,311333.1999999285,7022,WL,C,14.0
2,55.06599998474121,learn,4934.000015258789,Tue Oct 01 2024 16:16:00 GMT-0500 (Central Daylight Time),328609.5,A,shoreenter,O,enter,180,1,17276.300000071526,311333.1999999285,7022,WL,C,14.0
2,60.013999938964844,learn,-13.99993896484375,Tue Oct 01 2024 16:16:00 GMT-0500 (Central Daylight Time),333557.89999997616,A,None,O,None,4942,1,4948.100000023842,328609.7999999523,7022,WL,C,15.0
3,1.7330000400543213,learn,58266.99995994568,Tue Oct 01 2024 16:16:00 GMT-0500 (Central Daylight Time),402802.6999999285,A,t,O,t,1697,1,1732.5999999046326,401070.10000002384,7022,WL,C,1.0
3,2.0490000247955322,learn,57950.99997520447,Tue Oct 01 2024 16:16:00 GMT-0500 (Central Daylight Time),403119.10000002384,A,to,O,o,291,1,2049.0,401070.10000002384,7022,WL,C,1.0
3,2.2820000648498535,learn,57717.99993515015,Tue Oct 01 2024 16:16:00 GMT-0500 (Central Daylight Time),403352.39999997616,A,tow,O,w,210,1,2282.2999999523163,401070.10000002384,7022,WL,C,1.0
3,2.5490000247955322,learn,57450.99997520447,Tue Oct 01 2024 16:16:00 GMT-0500 (Central Daylight Time),403618.89999997616,A,towe,O,e,229,1,2548.7999999523163,401070.10000002384,7022,WL,C,1.0
3,2.699000120162964,learn,57300.999879837036,Tue Oct 01 2024 16:16:00 GMT-0500 (Central Daylight Time),403769.1999999285,A,tower,O,r,123,1,2699.0999999046326,401070.10000002384,7022,WL,C,1.0
3,3.765000104904175,learn,56234.999895095825,Tue Oct 01 2024 16:16:00 GMT-0500 (Central Daylight Time),404834.60000002384,A,towerenter,O,enter,1027,1,3764.5,401070.10000002384,7022,WL,C,1.0
3,4.431999921798706,learn,55568.000078201294,Tue Oct 01 2024 16:16:00 GMT-0500 (Central Daylight Time),405501.6999999285,A,w,O,w,652,1,666.8999999761581,404834.7999999523,7022,WL,C,2.0
3,4.615000009536743,learn,55384.99999046326,Tue Oct 01 2024 16:16:00 GMT-0500 (Central Daylight Time),405685.0,A,wh,O,h,153,1,850.2000000476837,404834.7999999523,7022,WL,C,2.0
3,4.730999946594238,learn,55269.00005340576,Tue Oct 01 2024 16:16:00 GMT-0500 (Central Daylight Time),405801.1999999285,A,whe,O,e,87,1,966.3999999761581,404834.7999999523,7022,WL,C,2.0
3,4.898000001907349,learn,55101.99999809265,Tue Oct 01 2024 16:16:00 GMT-0500 (Central Daylight Time),405968.1999999285,A,whea,O,a,141,1,1133.3999999761581,404834.7999999523,7022,WL,C,2.0
3,5.04800009727478,learn,54951.99990272522,Tue Oct 01 2024 16:16:00 GMT-0500 (Central Daylight Time),406118.10000002384,A,wheat,O,t,120,1,1283.3000000715256,404834.7999999523,7022,WL,C,2.0
3,5.730999946594238,learn,54269.00005340576,Tue Oct 01 2024 16:16:00 GMT-0500 (Central Daylight Time),406800.60000002384,A,wheatenter,O,enter,648,1,1965.8000000715256,404834.7999999523,7022,WL,C,2.0
3,6.246999979019165,learn,53753.000020980835,Tue Oct 01 2024 16:16:00 GMT-0500 (Central Daylight Time),407317.5,A,s,O,s,510,1,516.6000000238419,406800.89999997616,7022,WL,C,3.0
3,6.398000001907349,learn,53601.99999809265,Tue Oct 01 2024 16:16:00 GMT-0500 (Central Daylight Time),407467.60000002384,A,su,O,u,123,1,666.7000000476837,406800.89999997616,7022,WL,C,3.0
3,6.513999938964844,learn,53486.000061035156,Tue Oct 01 2024 16:16:00 GMT-0500 (Central Daylight Time),407584.2999999523,A,sug,O,g,92,1,783.3999999761581,406800.89999997616,7022,WL,C,3.0
3,6.730999946594238,learn,53269.00005340576,Tue Oct 01 2024 16:16:00 GMT-0500 (Central Daylight Time),407801.0,A,suga,O,a,182,1,1000.1000000238419,406800.89999997616,7022,WL,C,3.0
3,6.88100004196167,learn,53118.99995803833,Tue Oct 01 2024 16:16:00 GMT-0500 (Central Daylight Time),407950.89999997616,A,sugar,O,r,116,1,1150.0,406800.89999997616,7022,WL,C,3.0
3,7.246999979019165,learn,52753.000020980835,Tue Oct 01 2024 16:16:00 GMT-0500 (Central Daylight Time),408316.60000002384,A,sugarenter,O,enter,337,1,1515.7000000476837,406800.89999997616,7022,WL,C,3.0
3,7.880000114440918,learn,52119.99988555908,Tue Oct 01 2024 16:16:00 GMT-0500 (Central Daylight Time),408950.5,A,h,O,h,626,1,633.6000000238419,408316.89999997616,7022,WL,C,4.0
3,7.996999979019165,learn,52003.000020980835,Tue Oct 01 2024 16:16:00 GMT-0500 (Central Daylight Time),409066.89999997616,A,ho,O,o,86,1,750.0,408316.89999997616,7022,WL,C,4.0
3,8.180000066757202,learn,51819.9999332428,Tue Oct 01 2024 16:16:00 GMT-0500 (Central Daylight Time),409250.39999997616,A,hom,O,m,155,1,933.5,408316.89999997616,7022,WL,C,4.0
3,8.364000082015991,learn,51635.99991798401,Tue Oct 01 2024 16:16:00 GMT-0500 (Central Daylight Time),409433.6999999285,A,home,O,e,157,1,1116.7999999523163,408316.89999997616,7022,WL,C,4.0
3,9.163000106811523,learn,50836.99989318848,Tue Oct 01 2024 16:16:00 GMT-0500 (Central Daylight Time),410232.7999999523,A,homeenter,O,enter,762,1,1915.8999999761581,408316.89999997616,7022,WL,C,4.0
3,9.579999923706055,learn,50420.000076293945,Tue Oct 01 2024 16:16:00 GMT-0500 (Central Daylight Time),410650.0,A,b,O,b,406,1,417.0,410233.0,7022,WL,C,5.0
3,9.746000051498413,learn,50253.99994850159,Tue Oct 01 2024 16:16:00 GMT-0500 (Central Daylight Time),410815.89999997616,A,bo,O,o,134,1,582.8999999761581,410233.0,7022,WL,C,5.0
3,9.86299991607666,learn,50137.00008392334,Tue Oct 01 2024 16:16:00 GMT-0500 (Central Daylight Time),410933.10000002384,A,boy,O,y,102,1,700.1000000238419,410233.0,7022,WL,C,5.0
3,10.578999996185303,learn,49421.0000038147,Tue Oct 01 2024 16:16:00 GMT-0500 (Central Daylight Time),411649.0,A,boyenter,O,enter,697,1,1416.0,410233.0,7022,WL,C,5.0
3,13.446000099182129,learn,46553.99990081787,Tue Oct 01 2024 16:16:00 GMT-0500 (Central Daylight Time),414515.1999999285,A,d,O,d,2845,1,2866.0,411649.1999999285,7022,WL,C,6.0
3,13.628999948501587,learn,46371.00005149841,Tue Oct 01 2024 16:16:00 GMT-0500 (Central Daylight Time),414698.60000002384,A,do,O,o,156,1,3049.4000000953674,411649.1999999285,7022,WL,C,6.0
3,13.729000091552734,learn,46270.999908447266,Tue Oct 01 2024 16:16:00 GMT-0500 (Central Daylight Time),414798.60000002384,A,doc,O,c,78,1,3149.4000000953674,411649.1999999285,7022,WL,C,6.0
3,13.944999933242798,learn,46055.0000667572,Tue Oct 01 2024 16:16:00 GMT-0500 (Central Daylight Time),415014.39999997616,A,doct,O,t,181,1,3365.2000000476837,411649.1999999285,7022,WL,C,6.0
3,14.111999988555908,learn,45888.00001144409,Tue Oct 01 2024 16:16:00 GMT-0500 (Central Daylight Time),415181.7999999523,A,docto,O,o,152,1,3532.600000023842,411649.1999999285,7022,WL,C,6.0
3,14.279000043869019,learn,45720.99995613098,Tue Oct 01 2024 16:16:00 GMT-0500 (Central Daylight Time),415348.5,A,doctor,O,r,128,1,3699.3000000715256,411649.1999999285,7022,WL,C,6.0
3,14.545000076293945,learn,45454.999923706055,Tue Oct 01 2024 16:16:00 GMT-0500 (Central Daylight Time),415614.2999999523,A,doctorenter,O,enter,232,1,3965.100000023842,411649.1999999285,7022,WL,C,6.0
3,14.962000131607056,learn,45037.999868392944,Tue Oct 01 2024 16:16:00 GMT-0500 (Central Daylight Time),416031.5,A,c,O,c,408,1,416.89999997615814,415614.60000002384,7022,WL,C,7.0
3,15.128999948501587,learn,44871.00005149841,Tue Oct 01 2024 16:16:00 GMT-0500 (Central Daylight Time),416198.1999999285,A,ca,O,a,136,1,583.5999999046326,415614.60000002384,7022,WL,C,7.0
3,15.26200008392334,learn,44737.99991607666,Tue Oct 01 2024 16:16:00 GMT-0500 (Central Daylight Time),416331.5,A,cam,O,m,106,1,716.8999999761581,415614.60000002384,7022,WL,C,7.0
3,15.496000051498413,learn,44503.99994850159,Tue Oct 01 2024 16:16:00 GMT-0500 (Central Daylight Time),416565.0,A,camp,O,p,210,1,950.3999999761581,415614.60000002384,7022,WL,C,7.0
3,15.979000091552734,learn,44020.999908447266,Tue Oct 01 2024 16:16:00 GMT-0500 (Central Daylight Time),417048.60000002384,A,campenter,O,enter,456,1,1434.0,415614.60000002384,7022,WL,C,7.0
3,16.878000020980835,learn,43121.999979019165,Tue Oct 01 2024 16:16:00 GMT-0500 (Central Daylight Time),417947.6999999285,A,f,O,f,885,1,898.8999999761581,417048.7999999523,7022,WL,C,8.0
3,17.045000076293945,learn,42954.999923706055,Tue Oct 01 2024 16:16:00 GMT-0500 (Central Daylight Time),418114.0,A,fl,O,l,130,1,1065.2000000476837,417048.7999999523,7022,WL,C,8.0
3,17.161999940872192,learn,42838.00005912781,Tue Oct 01 2024 16:16:00 GMT-0500 (Central Daylight Time),418230.89999997616,A,fla,O,a,84,1,1182.1000000238419,417048.7999999523,7022,WL,C,8.0
3,17.32800006866455,learn,42671.99993133545,Tue Oct 01 2024 16:16:00 GMT-0500 (Central Daylight Time),418397.2999999523,A,flag,O,g,134,1,1348.5,417048.7999999523,7022,WL,C,8.0
3,17.627000093460083,learn,42372.99990653992,Tue Oct 01 2024 16:16:00 GMT-0500 (Central Daylight Time),418696.6999999285,A,flagenter,O,enter,272,1,1647.8999999761581,417048.7999999523,7022,WL,C,8.0
3,18.194000005722046,learn,41805.999994277954,Tue Oct 01 2024 16:16:00 GMT-0500 (Central Daylight Time),419263.0,A,n,O,n,557,1,566.0,418697.0,7022,WL,C,9.0
3,18.293999910354614,learn,41706.000089645386,Tue Oct 01 2024 16:16:00 GMT-0500 (Central Daylight Time),419363.89999997616,A,na,O,a,79,1,666.8999999761581,418697.0,7022,WL,C,9.0
3,18.41100001335144,learn,41588.99998664856,Tue Oct 01 2024 16:16:00 GMT-0500 (Central Daylight Time),419480.2999999523,A,nai,O,i,82,1,783.2999999523163,418697.0,7022,WL,C,9.0
3,18.543999910354614,learn,41456.000089645386,Tue Oct 01 2024 16:16:00 GMT-0500 (Central Daylight Time),419613.39999997616,A,nail,O,l,100,1,916.3999999761581,418697.0,7022,WL,C,9.0
3,18.944000005722046,learn,41055.999994277954,Tue Oct 01 2024 16:16:00 GMT-0500 (Central Daylight Time),420012.7999999523,A,nailenter,O,enter,367,1,1315.7999999523163,418697.0,7022,WL,C,9.0
3,19.64400005340576,learn,40355.99994659424,Tue Oct 01 2024 16:16:00 GMT-0500 (Central Daylight Time),420713.5,A,h,O,h,681,1,700.3000000715256,420013.1999999285,7022,WL,C,10.0
3,19.74399995803833,learn,40256.00004196167,Tue Oct 01 2024 16:16:00 GMT-0500 (Central Daylight Time),420813.39999997616,A,ho,O,o,69,1,800.2000000476837,420013.1999999285,7022,WL,C,10.0
3,19.927000045776367,learn,40072.99995422363,Tue Oct 01 2024 16:16:00 GMT-0500 (Central Daylight Time),420996.60000002384,A,hom,O,m,152,1,983.4000000953674,420013.1999999285,7022,WL,C,10.0
3,20.094000101089478,learn,39905.99989891052,Tue Oct 01 2024 16:16:00 GMT-0500 (Central Daylight Time),421163.2999999523,A,home,O,e,138,1,1150.1000000238419,420013.1999999285,7022,WL,C,10.0
3,20.4760000705719,learn,39523.9999294281,Tue Oct 01 2024 16:16:00 GMT-0500 (Central Daylight Time),421545.6999999285,A,homeenter,O,enter,354,1,1532.5,420013.1999999285,7022,WL,C,10.0
3,21.460000038146973,learn,38539.99996185303,Tue Oct 01 2024 16:16:00 GMT-0500 (Central Daylight Time),422529.5,A,l,O,l,966,1,983.5,421546.0,7022,WL,C,11.0
3,21.526999950408936,learn,38473.000049591064,Tue Oct 01 2024 16:16:00 GMT-0500 (Central Daylight Time),422596.10000002384,A,le,O,e,35,1,1050.1000000238419,421546.0,7022,WL,C,11.0
3,21.677000045776367,learn,38322.99995422363,Tue Oct 01 2024 16:16:00 GMT-0500 (Central Daylight Time),422746.10000002384,A,let,O,t,120,1,1200.1000000238419,421546.0,7022,WL,C,11.0
3,21.860000133514404,learn,38139.999866485596,Tue Oct 01 2024 16:16:00 GMT-0500 (Central Daylight Time),422929.1999999285,A,lett,O,t,148,1,1383.1999999284744,421546.0,7022,WL,C,11.0
3,22.009999990463257,learn,37990.00000953674,Tue Oct 01 2024 16:16:00 GMT-0500 (Central Daylight Time),423079.10000002384,A,lette,O,e,124,1,1533.1000000238419,421546.0,7022,WL,C,11.0
3,22.108999967575073,learn,37891.00003242493,Tue Oct 01 2024 16:16:00 GMT-0500 (Central Daylight Time),423178.89999997616,A,letter,O,r,62,1,1632.8999999761581,421546.0,7022,WL,C,11.0
3,22.426000118255615,learn,37573.999881744385,Tue Oct 01 2024 16:16:00 GMT-0500 (Central Daylight Time),423495.0,A,letterenter,O,enter,283,1,1949.0,421546.0,7022,WL,C,11.0
3,23.658999919891357,learn,36341.00008010864,Tue Oct 01 2024 16:16:00 GMT-0500 (Central Daylight Time),424728.5,A,n,O,n,1215,1,1233.3000000715256,423495.1999999285,7022,WL,C,12.0
3,23.792999982833862,learn,36207.00001716614,Tue Oct 01 2024 16:16:00 GMT-0500 (Central Daylight Time),424862.10000002384,A,na,O,a,106,1,1366.9000000953674,423495.1999999285,7022,WL,C,12.0
3,23.97499990463257,learn,36025.00009536743,Tue Oct 01 2024 16:16:00 GMT-0500 (Central Daylight Time),425044.5,A,nai,O,i,151,1,1549.3000000715256,423495.1999999285,7022,WL,C,12.0
3,24.158999919891357,learn,35841.00008010864,Tue Oct 01 2024 16:16:00 GMT-0500 (Central Daylight Time),425228.0,A,nail,O,l,169,1,1732.8000000715256,423495.1999999285,7022,WL,C,12.0
3,24.441999912261963,learn,35558.00008773804,Tue Oct 01 2024 16:16:00 GMT-0500 (Central Daylight Time),425511.0,A,nailenter,O,enter,261,1,2015.8000000715256,423495.1999999285,7022,WL,C,12.0
3,28.5239999294281,learn,31476.0000705719,Tue Oct 01 2024 16:16:00 GMT-0500 (Central Daylight Time),429593.6999999285,A,c,O,c,4064,1,4082.5,425511.1999999285,7022,WL,C,13.0
3,28.70799994468689,learn,31292.00005531311,Tue Oct 01 2024 16:16:00 GMT-0500 (Central Daylight Time),429777.10000002384,A,ca,O,a,156,1,4265.900000095367,425511.1999999285,7022,WL,C,13.0
3,28.824000120162964,learn,31175.999879837036,Tue Oct 01 2024 16:16:00 GMT-0500 (Central Daylight Time),429892.7999999523,A,cat,O,t,91,1,4381.600000023842,425511.1999999285,7022,WL,C,13.0
3,29.0239999294281,learn,30976.0000705719,Tue Oct 01 2024 16:16:00 GMT-0500 (Central Daylight Time),430093.2999999523,A,catt,O,t,193,1,4582.100000023842,425511.1999999285,7022,WL,C,13.0
3,29.223999977111816,learn,30776.000022888184,Tue Oct 01 2024 16:16:00 GMT-0500 (Central Daylight Time),430293.60000002384,A,cattl,O,l,169,1,4782.400000095367,425511.1999999285,7022,WL,C,13.0
3,29.308000087738037,learn,30691.999912261963,Tue Oct 01 2024 16:16:00 GMT-0500 (Central Daylight Time),430376.7999999523,A,cattle,O,e,55,1,4865.600000023842,425511.1999999285,7022,WL,C,13.0
3,29.54100012779236,learn,30458.99987220764,Tue Oct 01 2024 16:16:00 GMT-0500 (Central Daylight Time),430610.1999999285,A,cattleenter,O,enter,204,1,5099.0,425511.1999999285,7022,WL,C,13.0
3,30.074000120162964,learn,29925.999879837036,Tue Oct 01 2024 16:16:00 GMT-0500 (Central Daylight Time),431143.1999999285,A,s,O,s,524,1,532.6999999284744,430610.5,7022,WL,C,14.0
3,30.19099998474121,learn,29809.00001525879,Tue Oct 01 2024 16:16:00 GMT-0500 (Central Daylight Time),431259.89999997616,A,sh,O,h,86,1,649.3999999761581,430610.5,7022,WL,C,14.0
3,30.306999921798706,learn,29693.000078201294,Tue Oct 01 2024 16:16:00 GMT-0500 (Central Daylight Time),431376.5,A,sho,O,o,86,1,766.0,430610.5,7022,WL,C,14.0
3,30.424000024795532,learn,29575.999975204468,Tue Oct 01 2024 16:16:00 GMT-0500 (Central Daylight Time),431493.10000002384,A,shor,O,r,86,1,882.6000000238419,430610.5,7022,WL,C,14.0
3,30.490000009536743,learn,29509.999990463257,Tue Oct 01 2024 16:16:00 GMT-0500 (Central Daylight Time),431559.60000002384,A,shore,O,e,39,1,949.1000000238419,430610.5,7022,WL,C,14.0
3,30.77300000190735,learn,29226.99999809265,Tue Oct 01 2024 16:16:00 GMT-0500 (Central Daylight Time),431842.2999999523,A,shoreenter,O,enter,255,1,1231.7999999523163,430610.5,7022,WL,C,14.0
3,38.83800005912781,learn,21161.999940872192,Tue Oct 01 2024 16:16:00 GMT-0500 (Central Daylight Time),439907.1999999285,A,w,O,w,8044,1,8064.699999928474,431842.5,7022,WL,C,15.0
3,38.97099995613098,learn,21029.00004386902,Tue Oct 01 2024 16:16:00 GMT-0500 (Central Daylight Time),440040.2999999523,A,wh,O,h,99,1,8197.799999952316,431842.5,7022,WL,C,15.0
3,39.07100009918213,learn,20928.99990081787,Tue Oct 01 2024 16:16:00 GMT-0500 (Central Daylight Time),440139.7999999523,A,whe,O,e,61,1,8297.299999952316,431842.5,7022,WL,C,15.0
3,39.25399994850159,learn,20746.000051498413,Tue Oct 01 2024 16:16:00 GMT-0500 (Central Daylight Time),440323.5,A,whea,O,a,163,1,8481.0,431842.5,7022,WL,C,15.0
3,39.354000091552734,learn,20645.999908447266,Tue Oct 01 2024 16:16:00 GMT-0500 (Central Daylight Time),440423.39999997616,A,wheat,O,t,66,1,8580.899999976158,431842.5,7022,WL,C,15.0
3,39.55299997329712,learn,20447.00002670288,Tue Oct 01 2024 16:16:00 GMT-0500 (Central Daylight Time),440622.6999999285,A,wheatenter,O,enter,184,1,8780.199999928474,431842.5,7022,WL,C,15.0
4,0.8829998970031738,learn,59117.000102996826,Tue Oct 01 2024 16:16:00 GMT-0500 (Central Daylight Time),508618.10000002384,A,t,O,t,848,1,882.5,507735.60000002384,7022,WL,C,1.0
4,1.1329998970031738,learn,58867.000102996826,Tue Oct 01 2024 16:16:00 GMT-0500 (Central Daylight Time),508867.6999999285,A,to,O,o,219,1,1132.0999999046326,507735.60000002384,7022,WL,C,1.0
4,1.2659997940063477,learn,58734.00020599365,Tue Oct 01 2024 16:16:00 GMT-0500 (Central Daylight Time),509000.89999997616,A,tow,O,w,101,1,1265.2999999523163,507735.60000002384,7022,WL,C,1.0
4,1.4489998817443848,learn,58551.000118255615,Tue Oct 01 2024 16:16:00 GMT-0500 (Central Daylight Time),509184.10000002384,A,towe,O,e,156,1,1448.5,507735.60000002384,7022,WL,C,1.0
4,1.565999984741211,learn,58434.00001525879,Tue Oct 01 2024 16:16:00 GMT-0500 (Central Daylight Time),509301.0,A,tower,O,r,86,1,1565.3999999761581,507735.60000002384,7022,WL,C,1.0
4,2.1489999294281006,learn,57851.0000705719,Tue Oct 01 2024 16:16:00 GMT-0500 (Central Daylight Time),509883.2999999523,A,towerenter,O,enter,553,1,2147.6999999284744,507735.60000002384,7022,WL,C,1.0
4,3.930999994277954,learn,56069.000005722046,Tue Oct 01 2024 16:16:00 GMT-0500 (Central Daylight Time),511665.5,A,w,O,w,1776,1,1781.8999999761581,509883.60000002384,7022,WL,C,2.0
4,4.081999778747559,learn,55918.00022125244,Tue Oct 01 2024 16:16:00 GMT-0500 (Central Daylight Time),511816.6999999285,A,wh,O,h,132,1,1933.0999999046326,509883.60000002384,7022,WL,C,2.0
4,4.148000001907349,learn,55851.99999809265,Tue Oct 01 2024 16:16:00 GMT-0500 (Central Daylight Time),511882.89999997616,A,whe,O,e,36,1,1999.2999999523163,509883.60000002384,7022,WL,C,2.0
4,4.298999786376953,learn,55701.00021362305,Tue Oct 01 2024 16:16:00 GMT-0500 (Central Daylight Time),512033.2999999523,A,whea,O,a,130,1,2149.6999999284744,509883.60000002384,7022,WL,C,2.0
4,4.414999961853027,learn,55585.00003814697,Tue Oct 01 2024 16:16:00 GMT-0500 (Central Daylight Time),512149.6999999285,A,wheat,O,t,93,1,2266.0999999046326,509883.60000002384,7022,WL,C,2.0
4,4.947999954223633,learn,55052.00004577637,Tue Oct 01 2024 16:16:00 GMT-0500 (Central Daylight Time),512682.39999997616,A,wheatenter,O,enter,504,1,2798.7999999523163,509883.60000002384,7022,WL,C,2.0
4,5.398000001907349,learn,54601.99999809265,Tue Oct 01 2024 16:16:00 GMT-0500 (Central Daylight Time),513132.89999997616,A,q,O,q,428,1,450.2000000476837,512682.6999999285,7022,WL,C,3.0
4,5.597999811172485,learn,54402.000188827515,Tue Oct 01 2024 16:16:00 GMT-0500 (Central Daylight Time),513332.89999997616,A,qu,O,u,161,1,650.2000000476837,512682.6999999285,7022,WL,C,3.0
4,5.7809998989105225,learn,54219.00010108948,Tue Oct 01 2024 16:16:00 GMT-0500 (Central Daylight Time),513516.10000002384,A,que,O,e,145,1,833.4000000953674,512682.6999999285,7022,WL,C,3.0
4,6.56499981880188,learn,53435.00018119812,Tue Oct 01 2024 16:16:00 GMT-0500 (Central Daylight Time),514299.2999999523,A,quee,O,e,756,1,1616.6000000238419,512682.6999999285,7022,WL,C,3.0
4,6.847999811172485,learn,53152.000188827515,Tue Oct 01 2024 16:16:00 GMT-0500 (Central Daylight Time),514582.2999999523,A,queen,O,n,262,1,1899.6000000238419,512682.6999999285,7022,WL,C,3.0
4,7.329999923706055,learn,52670.000076293945,Tue Oct 01 2024 16:16:00 GMT-0500 (Central Daylight Time),515064.89999997616,A,queenenter,O,enter,447,1,2382.2000000476837,512682.6999999285,7022,WL,C,3.0
4,7.746999979019165,learn,52253.000020980835,Tue Oct 01 2024 16:16:00 GMT-0500 (Central Daylight Time),515481.5,A,s,O,s,395,1,416.3000000715256,515065.1999999285,7022,WL,C,4.0
4,7.946999788284302,learn,52053.0002117157,Tue Oct 01 2024 16:16:00 GMT-0500 (Central Daylight Time),515681.7999999523,A,su,O,u,188,1,616.6000000238419,515065.1999999285,7022,WL,C,4.0
4,8.04699993133545,learn,51953.00006866455,Tue Oct 01 2024 16:16:00 GMT-0500 (Central Daylight Time),515781.6999999285,A,sug,O,g,85,1,716.5,515065.1999999285,7022,WL,C,4.0
4,8.246999979019165,learn,51753.000020980835,Tue Oct 01 2024 16:16:00 GMT-0500 (Central Daylight Time),515982.0,A,suga,O,a,177,1,916.8000000715256,515065.1999999285,7022,WL,C,4.0
4,8.38099980354309,learn,51619.00019645691,Tue Oct 01 2024 16:16:00 GMT-0500 (Central Daylight Time),516115.2999999523,A,sugar,O,r,95,1,1050.1000000238419,515065.1999999285,7022,WL,C,4.0
4,8.929999828338623,learn,51070.00017166138,Tue Oct 01 2024 16:16:00 GMT-0500 (Central Daylight Time),516664.39999997616,A,sugarenter,O,enter,514,1,1599.2000000476837,515065.1999999285,7022,WL,C,4.0
4,9.396999835968018,learn,50603.00016403198,Tue Oct 01 2024 16:16:00 GMT-0500 (Central Daylight Time),517131.60000002384,A,h,O,h,454,1,466.90000009536743,516664.6999999285,7022,WL,C,5.0
4,9.495999813079834,learn,50504.000186920166,Tue Oct 01 2024 16:16:00 GMT-0500 (Central Daylight Time),517230.89999997616,A,ho,O,o,64,1,566.2000000476837,516664.6999999285,7022,WL,C,5.0
4,9.71399998664856,learn,50286.00001335144,Tue Oct 01 2024 16:16:00 GMT-0500 (Central Daylight Time),517448.2999999523,A,hom,O,m,199,1,783.6000000238419,516664.6999999285,7022,WL,C,5.0
4,9.829999923706055,learn,50170.000076293945,Tue Oct 01 2024 16:16:00 GMT-0500 (Central Daylight Time),517565.0,A,home,O,e,91,1,900.3000000715256,516664.6999999285,7022,WL,C,5.0
4,10.678999900817871,learn,49321.00009918213,Tue Oct 01 2024 16:16:00 GMT-0500 (Central Daylight Time),518413.7999999523,A,homeenter,O,enter,817,1,1749.1000000238419,516664.6999999285,7022,WL,C,5.0
4,11.079999923706055,learn,48920.000076293945,Tue Oct 01 2024 16:16:00 GMT-0500 (Central Daylight Time),518814.39999997616,A,b,O,b,384,1,400.39999997615814,518414.0,7022,WL,C,6.0
4,11.212999820709229,learn,48787.00017929077,Tue Oct 01 2024 16:16:00 GMT-0500 (Central Daylight Time),518947.6999999285,A,bo,O,o,104,1,533.6999999284744,518414.0,7022,WL,C,6.0
4,11.329999923706055,learn,48670.000076293945,Tue Oct 01 2024 16:16:00 GMT-0500 (Central Daylight Time),519064.5,A,boy,O,y,93,1,650.5,518414.0,7022,WL,C,6.0
4,11.711999893188477,learn,48288.00010681152,Tue Oct 01 2024 16:16:00 GMT-0500 (Central Daylight Time),519446.89999997616,A,boyenter,O,enter,357,1,1032.8999999761581,518414.0,7022,WL,C,6.0
4,12.678999900817871,learn,47321.00009918213,Tue Oct 01 2024 16:16:00 GMT-0500 (Central Daylight Time),520413.89999997616,A,d,O,d,952,1,966.7999999523163,519447.10000002384,7022,WL,C,7.0
4,12.796000003814697,learn,47203.9999961853,Tue Oct 01 2024 16:16:00 GMT-0500 (Central Daylight Time),520530.60000002384,A,do,O,o,90,1,1083.5,519447.10000002384,7022,WL,C,7.0
4,12.928999900817871,learn,47071.00009918213,Tue Oct 01 2024 16:16:00 GMT-0500 (Central Daylight Time),520663.6999999285,A,doc,O,c,100,1,1216.5999999046326,519447.10000002384,7022,WL,C,7.0
4,13.128999948501587,learn,46871.00005149841,Tue Oct 01 2024 16:16:00 GMT-0500 (Central Daylight Time),520863.60000002384,A,doct,O,t,180,1,1416.5,519447.10000002384,7022,WL,C,7.0
4,13.26199984550476,learn,46738.00015449524,Tue Oct 01 2024 16:16:00 GMT-0500 (Central Daylight Time),520997.10000002384,A,docto,O,o,103,1,1550.0,519447.10000002384,7022,WL,C,7.0
4,13.395999908447266,learn,46604.000091552734,Tue Oct 01 2024 16:16:00 GMT-0500 (Central Daylight Time),521130.2999999523,A,doctor,O,r,97,1,1683.1999999284744,519447.10000002384,7022,WL,C,7.0
4,13.827999830245972,learn,46172.00016975403,Tue Oct 01 2024 16:16:00 GMT-0500 (Central Daylight Time),521562.7999999523,A,doctorenter,O,enter,393,1,2115.6999999284744,519447.10000002384,7022,WL,C,7.0
4,14.211999893188477,learn,45788.00010681152,Tue Oct 01 2024 16:16:00 GMT-0500 (Central Daylight Time),521947.1999999285,A,c,O,c,371,1,384.09999990463257,521563.10000002384,7022,WL,C,8.0
4,14.412999868392944,learn,45587.000131607056,Tue Oct 01 2024 16:16:00 GMT-0500 (Central Daylight Time),522147.1999999285,A,ca,O,a,166,1,584.0999999046326,521563.10000002384,7022,WL,C,8.0
4,14.51199984550476,learn,45488.00015449524,Tue Oct 01 2024 16:16:00 GMT-0500 (Central Daylight Time),522246.39999997616,A,cam,O,m,74,1,683.2999999523163,521563.10000002384,7022,WL,C,8.0
4,14.744999885559082,learn,45255.00011444092,Tue Oct 01 2024 16:16:00 GMT-0500 (Central Daylight Time),522479.89999997616,A,camp,O,p,210,1,916.7999999523163,521563.10000002384,7022,WL,C,8.0
4,15.49399995803833,learn,44506.00004196167,Tue Oct 01 2024 16:16:00 GMT-0500 (Central Daylight Time),523229.0,A,campenter,O,enter,725,1,1665.8999999761581,521563.10000002384,7022,WL,C,8.0
4,15.944000005722046,learn,44055.999994277954,Tue Oct 01 2024 16:16:00 GMT-0500 (Central Daylight Time),523679.10000002384,A,f,O,f,432,1,449.8000000715256,523229.2999999523,7022,WL,C,9.0
4,16.07799983024597,learn,43922.00016975403,Tue Oct 01 2024 16:16:00 GMT-0500 (Central Daylight Time),523812.7999999523,A,fl,O,l,102,1,583.5,523229.2999999523,7022,WL,C,9.0
4,16.244999885559082,learn,43755.00011444092,Tue Oct 01 2024 16:16:00 GMT-0500 (Central Daylight Time),523979.6999999285,A,fla,O,a,130,1,750.3999999761581,523229.2999999523,7022,WL,C,9.0
4,16.41099977493286,learn,43589.00022506714,Tue Oct 01 2024 16:16:00 GMT-0500 (Central Daylight Time),524146.10000002384,A,flag,O,g,139,1,916.8000000715256,523229.2999999523,7022,WL,C,9.0
4,16.876999855041504,learn,43123.000144958496,Tue Oct 01 2024 16:16:00 GMT-0500 (Central Daylight Time),524611.8999999762,A,flagenter,O,enter,436,1,1382.6000000238419,523229.2999999523,7022,WL,C,9.0
4,17.293999910354614,learn,42706.000089645386,Tue Oct 01 2024 16:16:00 GMT-0500 (Central Daylight Time),525029.1000000238,A,l,O,l,410,1,416.90000009536743,524612.1999999285,7022,WL,C,10.0
4,17.393999814987183,learn,42606.00018501282,Tue Oct 01 2024 16:16:00 GMT-0500 (Central Daylight Time),525129.1000000238,A,le,O,e,73,1,516.9000000953674,524612.1999999285,7022,WL,C,10.0
4,17.49399995803833,learn,42506.00004196167,Tue Oct 01 2024 16:16:00 GMT-0500 (Central Daylight Time),525229.0,A,let,O,t,68,1,616.8000000715256,524612.1999999285,7022,WL,C,10.0
4,17.710999965667725,learn,42289.000034332275,Tue Oct 01 2024 16:16:00 GMT-0500 (Central Daylight Time),525445.6000000238,A,lett,O,t,185,1,833.4000000953674,524612.1999999285,7022,WL,C,10.0
4,18.276999950408936,learn,41723.000049591064,Tue Oct 01 2024 16:16:00 GMT-0500 (Central Daylight Time),526012.1000000238,A,lette,O,e,536,1,1399.9000000953674,524612.1999999285,7022,WL,C,10.0
4,18.310999870300293,learn,41689.00012969971,Tue Oct 01 2024 16:16:00 GMT-0500 (Central Daylight Time),526045.6000000238,A,letter,O,r,9,1,1433.4000000953674,524612.1999999285,7022,WL,C,10.0
4,19.15999984741211,learn,40840.00015258789,Tue Oct 01 2024 16:16:00 GMT-0500 (Central Daylight Time),526894.3999999762,A,letterenter,O,enter,812,1,2282.2000000476837,524612.1999999285,7022,WL,C,10.0
4,20.90999984741211,learn,39090.00015258789,Tue Oct 01 2024 16:16:00 GMT-0500 (Central Daylight Time),528644.6999999285,A,c,O,c,1737,1,1750.0,526894.6999999285,7022,WL,C,11.0
4,21.075999975204468,learn,38924.00002479553,Tue Oct 01 2024 16:16:00 GMT-0500 (Central Daylight Time),528811.0,A,co,O,o,137,1,1916.3000000715256,526894.6999999285,7022,WL,C,11.0
4,21.175999879837036,learn,38824.000120162964,Tue Oct 01 2024 16:16:00 GMT-0500 (Central Daylight Time),528911.1999999285,A,cor,O,r,75,1,2016.5,526894.6999999285,7022,WL,C,11.0
4,21.325999975204468,learn,38674.00002479553,Tue Oct 01 2024 16:16:00 GMT-0500 (Central Daylight Time),529060.6000000238,A,corn,O,n,122,1,2165.9000000953674,526894.6999999285,7022,WL,C,11.0
4,21.658999919891357,learn,38341.00008010864,Tue Oct 01 2024 16:16:00 GMT-0500 (Central Daylight Time),529393.6000000238,A,cornenter,O,enter,307,1,2498.9000000953674,526894.6999999285,7022,WL,C,11.0
4,22.22599983215332,learn,37774.00016784668,Tue Oct 01 2024 16:16:00 GMT-0500 (Central Daylight Time),529960.2999999523,A,n,O,n,557,1,566.3999999761581,529393.8999999762,7022,WL,C,12.0
4,22.342000007629395,learn,37657.999992370605,Tue Oct 01 2024 16:16:00 GMT-0500 (Central Daylight Time),530076.6999999285,A,na,O,a,92,1,682.7999999523163,529393.8999999762,7022,WL,C,12.0
4,22.45899987220764,learn,37541.00012779236,Tue Oct 01 2024 16:16:00 GMT-0500 (Central Daylight Time),530193.2999999523,A,nai,O,i,97,1,799.3999999761581,529393.8999999762,7022,WL,C,12.0
4,22.64299988746643,learn,37357.00011253357,Tue Oct 01 2024 16:16:00 GMT-0500 (Central Daylight Time),530377.1999999285,A,nail,O,l,164,1,983.2999999523163,529393.8999999762,7022,WL,C,12.0
4,23.157999992370605,learn,36842.000007629395,Tue Oct 01 2024 16:16:00 GMT-0500 (Central Daylight Time),530893.0,A,nailenter,O,enter,486,1,1499.1000000238419,529393.8999999762,7022,WL,C,12.0
4,25.025999784469604,learn,34974.000215530396,Tue Oct 01 2024 16:16:00 GMT-0500 (Central Daylight Time),532759.8999999762,A,s,O,s,1850,1,1866.6000000238419,530893.2999999523,7022,WL,C,13.0
4,25.125999927520752,learn,34874.00007247925,Tue Oct 01 2024 16:16:00 GMT-0500 (Central Daylight Time),532859.6999999285,A,sh,O,h,67,1,1966.3999999761581,530893.2999999523,7022,WL,C,13.0
4,25.22599983215332,learn,34774.00016784668,Tue Oct 01 2024 16:16:00 GMT-0500 (Central Daylight Time),532959.7999999523,A,sho,O,o,76,1,2066.5,530893.2999999523,7022,WL,C,13.0
4,25.324999809265137,learn,34675.00019073486,Tue Oct 01 2024 16:16:00 GMT-0500 (Central Daylight Time),533059.2999999523,A,shor,O,r,74,1,2166.0,530893.2999999523,7022,WL,C,13.0
4,25.39299988746643,learn,34607.00011253357,Tue Oct 01 2024 16:16:00 GMT-0500 (Central Daylight Time),533126.3999999762,A,shore,O,e,42,1,2233.100000023842,530893.2999999523,7022,WL,C,13.0
4,25.741999864578247,learn,34258.00013542175,Tue Oct 01 2024 16:16:00 GMT-0500 (Central Daylight Time),533475.6000000238,A,shoreenter,O,enter,327,1,2582.3000000715256,530893.2999999523,7022,WL,C,13.0
4,26.80899977684021,learn,33191.00022315979,Tue Oct 01 2024 16:16:00 GMT-0500 (Central Daylight Time),534542.6999999285,A,d,O,d,1051,1,1066.8999999761581,533475.7999999523,7022,WL,C,14.0
4,30.906999826431274,learn,29093.000173568726,Tue Oct 01 2024 16:16:00 GMT-0500 (Central Daylight Time),538640.6000000238,A,denter,O,enter,4071,1,5164.800000071526,533475.7999999523,7022,WL,C,14.0
4,31.923999786376953,learn,28076.000213623047,Tue Oct 01 2024 16:16:00 GMT-0500 (Central Daylight Time),539657.6000000238,A,b,O,b,1006,1,1016.8000000715256,538640.7999999523,7022,WL,C,15.0
4,32.08999991416931,learn,27910.00008583069,Tue Oct 01 2024 16:16:00 GMT-0500 (Central Daylight Time),539824.1999999285,A,bo,O,o,132,1,1183.3999999761581,538640.7999999523,7022,WL,C,15.0
4,32.57299995422363,learn,27427.000045776367,Tue Oct 01 2024 16:16:00 GMT-0500 (Central Daylight Time),540307.2999999523,A,bod,O,d,446,1,1666.5,538640.7999999523,7022,WL,C,15.0
4,32.788999795913696,learn,27211.000204086304,Tue Oct 01 2024 16:16:00 GMT-0500 (Central Daylight Time),540523.1999999285,A,body,O,y,187,1,1882.3999999761581,538640.7999999523,7022,WL,C,15.0
4,33.038999795913696,learn,26961.000204086304,Tue Oct 01 2024 16:16:00 GMT-0500 (Central Daylight Time),540773.1000000238,A,bodyenter,O,enter,241,1,2132.3000000715256,538640.7999999523,7022,WL,C,15.0
5,1.3499999046325684,learn,60000.0,Tue Oct 01 2024 16:16:00 GMT-0500 (Central Daylight Time),608717.6999999285,A,t,O,t,1317,1,1348.5999999046326,607369.1000000238,7022,WL,C,1.0
5,1.5999999046325684,learn,60000.0,Tue Oct 01 2024 16:16:00 GMT-0500 (Central Daylight Time),608967.8999999762,A,to,O,o,240,1,1598.7999999523163,607369.1000000238,7022,WL,C,1.0
5,1.6989998817443848,learn,60000.0,Tue Oct 01 2024 16:16:00 GMT-0500 (Central Daylight Time),609067.3999999762,A,tow,O,w,75,1,1698.2999999523163,607369.1000000238,7022,WL,C,1.0
5,1.8659999370574951,learn,60000.0,Tue Oct 01 2024 16:16:00 GMT-0500 (Central Daylight Time),609234.1999999285,A,towe,O,e,153,1,1865.0999999046326,607369.1000000238,7022,WL,C,1.0
5,1.9659998416900635,learn,60000.0,Tue Oct 01 2024 16:16:00 GMT-0500 (Central Daylight Time),609334.0,A,tower,O,r,80,1,1964.8999999761581,607369.1000000238,7022,WL,C,1.0
5,2.6659998893737793,learn,60000.0,Tue Oct 01 2024 16:16:00 GMT-0500 (Central Daylight Time),610033.7999999523,A,towerenter,O,enter,676,1,2664.6999999284744,607369.1000000238,7022,WL,C,1.0
5,3.2649998664855957,learn,60000.0,Tue Oct 01 2024 16:16:00 GMT-0500 (Central Daylight Time),610633.6999999285,A,w,O,w,587,1,599.6999999284744,610034.0,7022,WL,C,2.0
5,3.365000009536743,learn,60000.0,Tue Oct 01 2024 16:16:00 GMT-0500 (Central Daylight Time),610733.3999999762,A,we,O,e,86,1,699.3999999761581,610034.0,7022,WL,C,2.0
5,3.5149998664855957,learn,60000.0,Tue Oct 01 2024 16:16:00 GMT-0500 (Central Daylight Time),610883.5,A,weh,O,h,143,1,849.5,610034.0,7022,WL,C,2.0
5,3.7149999141693115,learn,60000.0,Tue Oct 01 2024 16:16:00 GMT-0500 (Central Daylight Time),611083.5,A,weha,O,a,193,1,1049.5,610034.0,7022,WL,C,2.0
5,6.297999858856201,learn,60000.0,Tue Oct 01 2024 16:16:00 GMT-0500 (Central Daylight Time),613665.7999999523,A,wehadelete,O,delete,2559,1,3631.7999999523163,610034.0,7022,WL,C,2.0
5,6.580999851226807,learn,60000.0,Tue Oct 01 2024 16:16:00 GMT-0500 (Central Daylight Time),613949.1000000238,A,wehadeletedelete,O,delete,275,1,3915.100000023842,610034.0,7022,WL,C,2.0
5,11.346999883651733,learn,60000.0,Tue Oct 01 2024 16:16:00 GMT-0500 (Central Daylight Time),618714.7999999523,A,wehadeletedelet,O,backspace,4745,1,8680.799999952316,610034.0,7022,WL,C,2.0
5,11.578999996185303,learn,60000.0,Tue Oct 01 2024 16:16:00 GMT-0500 (Central Daylight Time),618947.6000000238,A,wehadeletedele,O,backspace,198,1,8913.600000023842,610034.0,7022,WL,C,2.0
5,11.77999997138977,learn,60000.0,Tue Oct 01 2024 16:16:00 GMT-0500 (Central Daylight Time),619147.6000000238,A,wehadeletedel,O,backspace,176,1,9113.600000023842,610034.0,7022,WL,C,2.0
5,11.928999900817871,learn,60000.0,Tue Oct 01 2024 16:16:00 GMT-0500 (Central Daylight Time),619297.2999999523,A,wehadeletede,O,backspace,132,1,9263.299999952316,610034.0,7022,WL,C,2.0
5,12.078999996185303,learn,60000.0,Tue Oct 01 2024 16:16:00 GMT-0500 (Central Daylight Time),619447.3999999762,A,wehadeleted,O,backspace,133,1,9413.399999976158,610034.0,7022,WL,C,2.0
5,12.245999813079834,learn,60000.0,Tue Oct 01 2024 16:16:00 GMT-0500 (Central Daylight Time),619613.7999999523,A,wehadelete,O,backspace,154,1,9579.799999952316,610034.0,7022,WL,C,2.0
5,12.412999868392944,learn,60000.0,Tue Oct 01 2024 16:16:00 GMT-0500 (Central Daylight Time),619781.1000000238,A,wehadelet,O,backspace,158,1,9747.100000023842,610034.0,7022,WL,C,2.0
5,12.595999956130981,learn,60000.0,Tue Oct 01 2024 16:16:00 GMT-0500 (Central Daylight Time),619964.1999999285,A,wehadele,O,backspace,145,1,9930.199999928474,610034.0,7022,WL,C,2.0
5,12.745999813079834,learn,60000.0,Tue Oct 01 2024 16:16:00 GMT-0500 (Central Daylight Time),620114.2999999523,A,wehadel,O,backspace,121,1,10080.299999952316,610034.0,7022,WL,C,2.0
5,12.911999940872192,learn,60000.0,Tue Oct 01 2024 16:16:00 GMT-0500 (Central Daylight Time),620280.5,A,wehade,O,backspace,134,1,10246.5,610034.0,7022,WL,C,2.0
5,13.078999996185303,learn,60000.0,Tue Oct 01 2024 16:16:00 GMT-0500 (Central Daylight Time),620447.1000000238,A,wehad,O,backspace,146,1,10413.100000023842,610034.0,7022,WL,C,2.0
5,13.228999853134155,learn,60000.0,Tue Oct 01 2024 16:16:00 GMT-0500 (Central Daylight Time),620597.1000000238,A,weha,O,backspace,131,1,10563.100000023842,610034.0,7022,WL,C,2.0
5,13.394999980926514,learn,60000.0,Tue Oct 01 2024 16:16:00 GMT-0500 (Central Daylight Time),620763.3999999762,A,weh,O,backspace,154,1,10729.399999976158,610034.0,7022,WL,C,2.0
5,13.561999797821045,learn,60000.0,Tue Oct 01 2024 16:16:00 GMT-0500 (Central Daylight Time),620930.3999999762,A,we,O,backspace,154,1,10896.399999976158,610034.0,7022,WL,C,2.0
5,13.711999893188477,learn,60000.0,Tue Oct 01 2024 16:16:00 GMT-0500 (Central Daylight Time),621080.1999999285,A,w,O,backspace,133,1,11046.199999928474,610034.0,7022,WL,C,2.0
5,15.02899980545044,learn,60000.0,Tue Oct 01 2024 16:16:00 GMT-0500 (Central Daylight Time),622397.1999999285,A,wh,O,h,1308,1,12363.199999928474,610034.0,7022,WL,C,2.0
5,15.178999900817871,learn,60000.0,Tue Oct 01 2024 16:16:00 GMT-0500 (Central Daylight Time),622546.7999999523,A,whe,O,e,130,1,12512.799999952316,610034.0,7022,WL,C,2.0
5,15.34499979019165,learn,60000.0,Tue Oct 01 2024 16:16:00 GMT-0500 (Central Daylight Time),622713.1999999285,A,whea,O,a,131,1,12679.199999928474,610034.0,7022,WL,C,2.0
5,15.477999925613403,learn,60000.0,Tue Oct 01 2024 16:16:00 GMT-0500 (Central Daylight Time),622846.5,A,wheat,O,t,110,1,12812.5,610034.0,7022,WL,C,2.0
5,16.560999870300293,learn,60000.0,Tue Oct 01 2024 16:16:00 GMT-0500 (Central Daylight Time),623929.1999999285,A,wheatenter,O,enter,1058,1,13895.199999928474,610034.0,7022,WL,C,2.0
5,18.710999965667725,learn,60000.0,Tue Oct 01 2024 16:16:00 GMT-0500 (Central Daylight Time),626078.8999999762,A,q,O,q,2140,1,2149.399999976158,623929.5,7022,WL,C,3.0
5,18.893999814987183,learn,60000.0,Tue Oct 01 2024 16:16:00 GMT-0500 (Central Daylight Time),626261.8999999762,A,qu,O,u,164,1,2332.399999976158,623929.5,7022,WL,C,3.0
5,19.026999950408936,learn,60000.0,Tue Oct 01 2024 16:16:00 GMT-0500 (Central Daylight Time),626395.6000000238,A,que,O,e,117,1,2466.100000023842,623929.5,7022,WL,C,3.0
5,19.22699999809265,learn,60000.0,Tue Oct 01 2024 16:16:00 GMT-0500 (Central Daylight Time),626595.0,A,quee,O,e,170,1,2665.5,623929.5,7022,WL,C,3.0
5,19.49399995803833,learn,60000.0,Tue Oct 01 2024 16:16:00 GMT-0500 (Central Daylight Time),626861.6000000238,A,queen,O,n,254,1,2932.100000023842,623929.5,7022,WL,C,3.0
5,19.82699990272522,learn,60000.0,Tue Oct 01 2024 16:16:00 GMT-0500 (Central Daylight Time),627194.6999999285,A,queenenter,O,enter,318,1,3265.1999999284744,623929.5,7022,WL,C,3.0
5,20.97699999809265,learn,60000.0,Tue Oct 01 2024 16:16:00 GMT-0500 (Central Daylight Time),628344.6999999285,A,s,O,s,1132,1,1149.5999999046326,627195.1000000238,7022,WL,C,4.0
5,21.109999895095825,learn,60000.0,Tue Oct 01 2024 16:16:00 GMT-0500 (Central Daylight Time),628477.8999999762,A,su,O,u,112,1,1282.7999999523163,627195.1000000238,7022,WL,C,4.0
5,21.22599983215332,learn,60000.0,Tue Oct 01 2024 16:16:00 GMT-0500 (Central Daylight Time),628594.2999999523,A,sug,O,g,92,1,1399.1999999284744,627195.1000000238,7022,WL,C,4.0
5,21.375999927520752,learn,60000.0,Tue Oct 01 2024 16:16:00 GMT-0500 (Central Daylight Time),628744.3999999762,A,suga,O,a,139,1,1549.2999999523163,627195.1000000238,7022,WL,C,4.0
5,21.55999994277954,learn,60000.0,Tue Oct 01 2024 16:16:00 GMT-0500 (Central Daylight Time),628928.0,A,sugar,O,r,174,1,1732.8999999761581,627195.1000000238,7022,WL,C,4.0
5,21.842999935150146,learn,60000.0,Tue Oct 01 2024 16:16:00 GMT-0500 (Central Daylight Time),629210.7999999523,A,sugarenter,O,enter,254,1,2015.6999999284744,627195.1000000238,7022,WL,C,4.0
5,22.441999912261963,learn,60000.0,Tue Oct 01 2024 16:16:00 GMT-0500 (Central Daylight Time),629810.6000000238,A,h,O,h,579,1,599.6000000238419,629211.0,7022,WL,C,5.0
5,22.575999975204468,learn,60000.0,Tue Oct 01 2024 16:16:00 GMT-0500 (Central Daylight Time),629943.8999999762,A,ho,O,o,123,1,732.8999999761581,629211.0,7022,WL,C,5.0
5,22.742999792099,learn,60000.0,Tue Oct 01 2024 16:16:00 GMT-0500 (Central Daylight Time),630110.8999999762,A,hom,O,m,146,1,899.8999999761581,629211.0,7022,WL,C,5.0
5,22.89199995994568,learn,60000.0,Tue Oct 01 2024 16:16:00 GMT-0500 (Central Daylight Time),630260.3999999762,A,home,O,e,135,1,1049.3999999761581,629211.0,7022,WL,C,5.0
5,23.47499990463257,learn,60000.0,Tue Oct 01 2024 16:16:00 GMT-0500 (Central Daylight Time),630843.5,A,homeenter,O,enter,569,1,1632.5,629211.0,7022,WL,C,5.0
5,23.924999952316284,learn,60000.0,Tue Oct 01 2024 16:16:00 GMT-0500 (Central Daylight Time),631293.6000000238,A,b,O,b,435,1,449.8000000715256,630843.7999999523,7022,WL,C,6.0
5,24.05900001525879,learn,60000.0,Tue Oct 01 2024 16:16:00 GMT-0500 (Central Daylight Time),631426.7999999523,A,bo,O,o,111,1,583.0,630843.7999999523,7022,WL,C,6.0
5,24.174999952316284,learn,60000.0,Tue Oct 01 2024 16:16:00 GMT-0500 (Central Daylight Time),631543.3999999762,A,boy,O,y,98,1,699.6000000238419,630843.7999999523,7022,WL,C,6.0
5,24.54199981689453,learn,60000.0,Tue Oct 01 2024 16:16:00 GMT-0500 (Central Daylight Time),631909.7999999523,A,boyenter,O,enter,356,1,1066.0,630843.7999999523,7022,WL,C,6.0
5,24.991999864578247,learn,60000.0,Tue Oct 01 2024 16:16:00 GMT-0500 (Central Daylight Time),632360.0,A,d,O,d,440,1,450.0,631910.0,7022,WL,C,7.0
5,25.14199995994568,learn,60000.0,Tue Oct 01 2024 16:16:00 GMT-0500 (Central Daylight Time),632510.1000000238,A,do,O,o,129,1,600.1000000238419,631910.0,7022,WL,C,7.0
5,25.257999897003174,learn,60000.0,Tue Oct 01 2024 16:16:00 GMT-0500 (Central Daylight Time),632626.3999999762,A,doc,O,c,97,1,716.3999999761581,631910.0,7022,WL,C,7.0
5,25.47499990463257,learn,60000.0,Tue Oct 01 2024 16:16:00 GMT-0500 (Central Daylight Time),632843.1000000238,A,doct,O,t,195,1,933.1000000238419,631910.0,7022,WL,C,7.0
5,25.674999952316284,learn,60000.0,Tue Oct 01 2024 16:16:00 GMT-0500 (Central Daylight Time),633043.3999999762,A,docto,O,o,182,1,1133.3999999761581,631910.0,7022,WL,C,7.0
5,25.97499990463257,learn,60000.0,Tue Oct 01 2024 16:16:00 GMT-0500 (Central Daylight Time),633342.7999999523,A,doctor,O,r,269,1,1432.7999999523163,631910.0,7022,WL,C,7.0
5,26.19099998474121,learn,60000.0,Tue Oct 01 2024 16:16:00 GMT-0500 (Central Daylight Time),633559.3999999762,A,doctorenter,O,enter,203,1,1649.3999999761581,631910.0,7022,WL,C,7.0
5,26.95799994468689,learn,60000.0,Tue Oct 01 2024 16:16:00 GMT-0500 (Central Daylight Time),634326.2999999523,A,c,O,c,750,1,766.6000000238419,633559.6999999285,7022,WL,C,8.0
5,27.12399983406067,learn,60000.0,Tue Oct 01 2024 16:16:00 GMT-0500 (Central Daylight Time),634492.3999999762,A,ca,O,a,147,1,932.7000000476837,633559.6999999285,7022,WL,C,8.0
5,27.29099988937378,learn,60000.0,Tue Oct 01 2024 16:16:00 GMT-0500 (Central Daylight Time),634659.0,A,cam,O,m,147,1,1099.3000000715256,633559.6999999285,7022,WL,C,8.0
5,27.506999969482422,learn,60000.0,Tue Oct 01 2024 16:16:00 GMT-0500 (Central Daylight Time),634875.5,A,camp,O,p,201,1,1315.8000000715256,633559.6999999285,7022,WL,C,8.0
5,27.973999977111816,learn,60000.0,Tue Oct 01 2024 16:16:00 GMT-0500 (Central Daylight Time),635342.1000000238,A,campenter,O,enter,449,1,1782.4000000953674,633559.6999999285,7022,WL,C,8.0
5,29.173999786376953,learn,60000.0,Tue Oct 01 2024 16:16:00 GMT-0500 (Central Daylight Time),636541.8999999762,A,f,O,f,1184,1,1199.5,635342.3999999762,7022,WL,C,9.0
5,29.58999991416931,learn,60000.0,Tue Oct 01 2024 16:16:00 GMT-0500 (Central Daylight Time),636958.2999999523,A,fl,O,l,403,1,1615.8999999761581,635342.3999999762,7022,WL,C,9.0
5,29.77300000190735,learn,60000.0,Tue Oct 01 2024 16:16:00 GMT-0500 (Central Daylight Time),637141.5,A,fla,O,a,161,1,1799.1000000238419,635342.3999999762,7022,WL,C,9.0
5,30.056999921798706,learn,60000.0,Tue Oct 01 2024 16:16:00 GMT-0500 (Central Daylight Time),637424.7999999523,A,flag,O,g,272,1,2082.399999976158,635342.3999999762,7022,WL,C,9.0
5,30.705999851226807,learn,60000.0,Tue Oct 01 2024 16:16:00 GMT-0500 (Central Daylight Time),638074.5,A,flagenter,O,enter,628,1,2732.100000023842,635342.3999999762,7022,WL,C,9.0
5,31.138999938964844,learn,60000.0,Tue Oct 01 2024 16:16:00 GMT-0500 (Central Daylight Time),638507.6000000238,A,l,O,l,427,1,432.90000009536743,638074.6999999285,7022,WL,C,10.0
5,31.240000009536743,learn,60000.0,Tue Oct 01 2024 16:16:00 GMT-0500 (Central Daylight Time),638608.1999999285,A,le,O,e,81,1,533.5,638074.6999999285,7022,WL,C,10.0
5,31.372999906539917,learn,60000.0,Tue Oct 01 2024 16:16:00 GMT-0500 (Central Daylight Time),638741.1999999285,A,let,O,t,111,1,666.5,638074.6999999285,7022,WL,C,10.0
5,31.555999994277954,learn,60000.0,Tue Oct 01 2024 16:16:00 GMT-0500 (Central Daylight Time),638924.3999999762,A,lett,O,t,164,1,849.7000000476837,638074.6999999285,7022,WL,C,10.0
5,31.756999969482422,learn,60000.0,Tue Oct 01 2024 16:16:00 GMT-0500 (Central Daylight Time),639125.1999999285,A,lette,O,e,189,1,1050.5,638074.6999999285,7022,WL,C,10.0
5,31.85599994659424,learn,60000.0,Tue Oct 01 2024 16:16:00 GMT-0500 (Central Daylight Time),639224.1999999285,A,letter,O,r,64,1,1149.5,638074.6999999285,7022,WL,C,10.0
5,32.138999938964844,learn,60000.0,Tue Oct 01 2024 16:16:00 GMT-0500 (Central Daylight Time),639507.3999999762,A,letterenter,O,enter,258,1,1432.7000000476837,638074.6999999285,7022,WL,C,10.0
5,32.70599985122681,learn,60000.0,Tue Oct 01 2024 16:16:00 GMT-0500 (Central Daylight Time),640074.1000000238,A,c,O,c,554,1,566.5,639507.6000000238,7022,WL,C,11.0
5,32.871999979019165,learn,60000.0,Tue Oct 01 2024 16:16:00 GMT-0500 (Central Daylight Time),640240.3999999762,A,co,O,o,131,1,732.7999999523163,639507.6000000238,7022,WL,C,11.0
5,33.02199983596802,learn,60000.0,Tue Oct 01 2024 16:16:00 GMT-0500 (Central Daylight Time),640390.2999999523,A,cor,O,r,140,1,882.6999999284744,639507.6000000238,7022,WL,C,11.0
5,33.17199993133545,learn,60000.0,Tue Oct 01 2024 16:16:00 GMT-0500 (Central Daylight Time),640540.3999999762,A,corn,O,n,135,1,1032.7999999523163,639507.6000000238,7022,WL,C,11.0
5,33.58899998664856,learn,60000.0,Tue Oct 01 2024 16:16:00 GMT-0500 (Central Daylight Time),640957.1000000238,A,cornenter,O,enter,400,1,1449.5,639507.6000000238,7022,WL,C,11.0
5,35.388999938964844,learn,60000.0,Tue Oct 01 2024 16:16:00 GMT-0500 (Central Daylight Time),642757.0,A,n,O,n,1778,1,1799.6000000238419,640957.3999999762,7022,WL,C,12.0
5,35.42199993133545,learn,60000.0,Tue Oct 01 2024 16:16:00 GMT-0500 (Central Daylight Time),642789.6999999285,A,na,O,a,2,1,1832.2999999523163,640957.3999999762,7022,WL,C,12.0
5,35.58799982070923,learn,60000.0,Tue Oct 01 2024 16:16:00 GMT-0500 (Central Daylight Time),642956.2999999523,A,nai,O,i,156,1,1998.8999999761581,640957.3999999762,7022,WL,C,12.0
5,35.72099995613098,learn,60000.0,Tue Oct 01 2024 16:16:00 GMT-0500 (Central Daylight Time),643089.5,A,nail,O,l,118,1,2132.100000023842,640957.3999999762,7022,WL,C,12.0
5,36.07099986076355,learn,60000.0,Tue Oct 01 2024 16:16:00 GMT-0500 (Central Daylight Time),643439.5,A,nailenter,O,enter,340,1,2482.100000023842,640957.3999999762,7022,WL,C,12.0
5,36.687999963760376,learn,60000.0,Tue Oct 01 2024 16:16:00 GMT-0500 (Central Daylight Time),644056.3999999762,A,c,O,c,607,1,616.6000000238419,643439.7999999523,7022,WL,C,13.0
5,36.870999813079834,learn,60000.0,Tue Oct 01 2024 16:16:00 GMT-0500 (Central Daylight Time),644239.6999999285,A,ca,O,a,161,1,799.8999999761581,643439.7999999523,7022,WL,C,13.0
5,37.08799982070923,learn,60000.0,Tue Oct 01 2024 16:16:00 GMT-0500 (Central Daylight Time),644456.0,A,cat,O,t,196,1,1016.2000000476837,643439.7999999523,7022,WL,C,13.0
5,37.25399994850159,learn,60000.0,Tue Oct 01 2024 16:16:00 GMT-0500 (Central Daylight Time),644622.2999999523,A,catt,O,t,155,1,1182.5,643439.7999999523,7022,WL,C,13.0
5,37.4539999961853,learn,60000.0,Tue Oct 01 2024 16:16:00 GMT-0500 (Central Daylight Time),644822.6000000238,A,cattl,O,l,179,1,1382.8000000715256,643439.7999999523,7022,WL,C,13.0
5,37.58699989318848,learn,60000.0,Tue Oct 01 2024 16:16:00 GMT-0500 (Central Daylight Time),644955.6000000238,A,cattle,O,e,103,1,1515.8000000715256,643439.7999999523,7022,WL,C,13.0
5,37.78699994087219,learn,60000.0,Tue Oct 01 2024 16:16:00 GMT-0500 (Central Daylight Time),645155.5,A,cattleenter,O,enter,193,1,1715.7000000476837,643439.7999999523,7022,WL,C,13.0
5,38.33699989318848,learn,60000.0,Tue Oct 01 2024 16:16:00 GMT-0500 (Central Daylight Time),645705.1999999285,A,s,O,s,536,1,549.5,645155.6999999285,7022,WL,C,14.0
5,38.4539999961853,learn,60000.0,Tue Oct 01 2024 16:16:00 GMT-0500 (Central Daylight Time),645822.1000000238,A,sh,O,h,100,1,666.4000000953674,645155.6999999285,7022,WL,C,14.0
5,38.55399990081787,learn,60000.0,Tue Oct 01 2024 16:16:00 GMT-0500 (Central Daylight Time),645922.1000000238,A,sho,O,o,80,1,766.4000000953674,645155.6999999285,7022,WL,C,14.0
5,38.65399980545044,learn,60000.0,Tue Oct 01 2024 16:16:00 GMT-0500 (Central Daylight Time),646021.8999999762,A,shor,O,r,77,1,866.2000000476837,645155.6999999285,7022,WL,C,14.0
5,38.71999979019165,learn,60000.0,Tue Oct 01 2024 16:16:00 GMT-0500 (Central Daylight Time),646088.6000000238,A,shore,O,e,52,1,932.9000000953674,645155.6999999285,7022,WL,C,14.0
5,39.03699994087219,learn,60000.0,Tue Oct 01 2024 16:16:00 GMT-0500 (Central Daylight Time),646405.1999999285,A,shoreenter,O,enter,307,1,1249.5,645155.6999999285,7022,WL,C,14.0
5,39.98699998855591,learn,60000.0,Tue Oct 01 2024 16:16:00 GMT-0500 (Central Daylight Time),647354.7999999523,A,b,O,b,928,1,949.2999999523163,646405.5,7022,WL,C,15.0
5,40.5699999332428,learn,60000.0,Tue Oct 01 2024 16:16:00 GMT-0500 (Central Daylight Time),647938.1000000238,A,bo,O,o,560,1,1532.6000000238419,646405.5,7022,WL,C,15.0
5,40.752999782562256,learn,60000.0,Tue Oct 01 2024 16:16:00 GMT-0500 (Central Daylight Time),648121.1999999285,A,bod,O,d,170,1,1715.6999999284744,646405.5,7022,WL,C,15.0
5,40.936999797821045,learn,60000.0,Tue Oct 01 2024 16:16:00 GMT-0500 (Central Daylight Time),648304.8999999762,A,body,O,y,173,1,1899.3999999761581,646405.5,7022,WL,C,15.0
5,41.25399994850159,learn,60000.0,Tue Oct 01 2024 16:16:00 GMT-0500 (Central Daylight Time),648622.0,A,bodyenter,O,enter,300,1,2216.5,646405.5,7022,WL,C,15.0
6,1.815999984741211,distr,58184.00001525879,Tue Oct 01 2024 16:16:00 GMT-0500 (Central Daylight Time),733659.8999999762,B,w,O,w,1780,1,1814.8999999761581,731845.0,7022,WL,C,1.0
6,2.0159997940063477,distr,57984.00020599365,Tue Oct 01 2024 16:16:00 GMT-0500 (Central Daylight Time),733860.1000000238,B,wi,O,i,194,1,2015.1000000238419,731845.0,7022,WL,C,1.0
6,2.1499998569488525,distr,57850.00014305115,Tue Oct 01 2024 16:16:00 GMT-0500 (Central Daylight Time),733993.5,B,win,O,n,116,1,2148.5,731845.0,7022,WL,C,1.0
6,2.316999912261963,distr,57683.00008773804,Tue Oct 01 2024 16:16:00 GMT-0500 (Central Daylight Time),734160.3999999762,B,wint,O,t,139,1,2315.399999976158,731845.0,7022,WL,C,1.0
6,2.5159997940063477,distr,57484.00020599365,Tue Oct 01 2024 16:16:00 GMT-0500 (Central Daylight Time),734360.1000000238,B,winte,O,e,173,1,2515.100000023842,731845.0,7022,WL,C,1.0
6,2.632999897003174,distr,57367.000102996826,Tue Oct 01 2024 16:16:00 GMT-0500 (Central Daylight Time),734477.0,B,winter,O,r,78,1,2632.0,731845.0,7022,WL,C,1.0
6,3.3320000171661377,distr,56667.99998283386,Tue Oct 01 2024 16:16:00 GMT-0500 (Central Daylight Time),735176.1000000238,B,winterenter,O,enter,672,1,3331.100000023842,731845.0,7022,WL,C,1.0
6,3.732999801635742,distr,56267.00019836426,Tue Oct 01 2024 16:16:00 GMT-0500 (Central Daylight Time),735576.2999999523,B,f,O,f,383,1,400.0,735176.2999999523,7022,WL,C,2.0
6,3.881999969482422,distr,56118.00003051758,Tue Oct 01 2024 16:16:00 GMT-0500 (Central Daylight Time),735725.7999999523,B,fo,O,o,118,1,549.5,735176.2999999523,7022,WL,C,2.0
6,3.998999834060669,distr,56001.00016593933,Tue Oct 01 2024 16:16:00 GMT-0500 (Central Daylight Time),735842.5,B,for,O,r,102,1,666.2000000476837,735176.2999999523,7022,WL,C,2.0
6,4.098999977111816,distr,55901.00002288818,Tue Oct 01 2024 16:16:00 GMT-0500 (Central Daylight Time),735943.2999999523,B,fore,O,e,84,1,767.0,735176.2999999523,7022,WL,C,2.0
6,4.665999889373779,distr,55334.00011062622,Tue Oct 01 2024 16:16:00 GMT-0500 (Central Daylight Time),736509.6999999285,B,fores,O,s,536,1,1333.3999999761581,735176.2999999523,7022,WL,C,2.0
6,4.848999977111816,distr,55151.00002288818,Tue Oct 01 2024 16:16:00 GMT-0500 (Central Daylight Time),736693.1000000238,B,forest,O,t,161,1,1516.8000000715256,735176.2999999523,7022,WL,C,2.0
6,5.197999954223633,distr,54802.00004577637,Tue Oct 01 2024 16:16:00 GMT-0500 (Central Daylight Time),737042.0,B,forestenter,O,enter,312,1,1865.7000000476837,735176.2999999523,7022,WL,C,2.0
6,5.898999929428101,distr,54101.0000705719,Tue Oct 01 2024 16:16:00 GMT-0500 (Central Daylight Time),737742.2999999523,B,c,O,c,693,1,700.0,737042.2999999523,7022,WL,C,3.0
6,6.06499981880188,distr,53935.00018119812,Tue Oct 01 2024 16:16:00 GMT-0500 (Central Daylight Time),737908.3999999762,B,ch,O,h,136,1,866.1000000238419,737042.2999999523,7022,WL,C,3.0
6,6.197999954223633,distr,53802.00004577637,Tue Oct 01 2024 16:16:00 GMT-0500 (Central Daylight Time),738041.7999999523,B,chr,O,r,113,1,999.5,737042.2999999523,7022,WL,C,3.0
6,6.681999921798706,distr,53318.000078201294,Tue Oct 01 2024 16:16:00 GMT-0500 (Central Daylight Time),738525.5,B,chri,O,i,477,1,1483.2000000476837,737042.2999999523,7022,WL,C,3.0
6,7.130999803543091,distr,52869.00019645691,Tue Oct 01 2024 16:16:00 GMT-0500 (Central Daylight Time),738975.0,B,chris,O,s,425,1,1932.7000000476837,737042.2999999523,7022,WL,C,3.0
6,7.830999851226807,distr,52169.00014877319,Tue Oct 01 2024 16:16:00 GMT-0500 (Central Daylight Time),739675.2999999523,B,chrism,O,m,683,1,2633.0,737042.2999999523,7022,WL,C,3.0
6,8.047999858856201,distr,51952.0001411438,Tue Oct 01 2024 16:16:00 GMT-0500 (Central Daylight Time),739891.2999999523,B,chrisma,O,a,190,1,2849.0,737042.2999999523,7022,WL,C,3.0
6,8.696999788284302,distr,51303.0002117157,Tue Oct 01 2024 16:16:00 GMT-0500 (Central Daylight Time),740541.2999999523,B,chrismas,O,s,630,1,3499.0,737042.2999999523,7022,WL,C,3.0
6,9.079999923706055,distr,50920.000076293945,Tue Oct 01 2024 16:16:00 GMT-0500 (Central Daylight Time),740924.0,B,chrismasenter,O,enter,368,1,3881.7000000476837,737042.2999999523,7022,WL,C,3.0
6,9.663999795913696,distr,50336.000204086304,Tue Oct 01 2024 16:16:00 GMT-0500 (Central Daylight Time),741507.2999999523,B,m,O,m,561,1,583.0,740924.2999999523,7022,WL,C,4.0
6,9.813999891281128,distr,50186.00010871887,Tue Oct 01 2024 16:16:00 GMT-0500 (Central Daylight Time),741657.6000000238,B,mo,O,o,138,1,733.3000000715256,740924.2999999523,7022,WL,C,4.0
6,9.896999835968018,distr,50103.00016403198,Tue Oct 01 2024 16:16:00 GMT-0500 (Central Daylight Time),741740.8999999762,B,mot,O,t,56,1,816.6000000238419,740924.2999999523,7022,WL,C,4.0
6,10.04699993133545,distr,49953.00006866455,Tue Oct 01 2024 16:16:00 GMT-0500 (Central Daylight Time),741891.2999999523,B,moth,O,h,123,1,967.0,740924.2999999523,7022,WL,C,4.0
6,10.11299991607666,distr,49887.00008392334,Tue Oct 01 2024 16:16:00 GMT-0500 (Central Daylight Time),741957.1999999285,B,mothe,O,e,44,1,1032.8999999761581,740924.2999999523,7022,WL,C,4.0
6,10.21399998664856,distr,49786.00001335144,Tue Oct 01 2024 16:16:00 GMT-0500 (Central Daylight Time),742057.6999999285,B,mother,O,r,77,1,1133.3999999761581,740924.2999999523,7022,WL,C,4.0
6,10.429999828338623,distr,49570.00017166138,Tue Oct 01 2024 16:16:00 GMT-0500 (Central Daylight Time),742273.7999999523,B,motherenter,O,enter,196,1,1349.5,740924.2999999523,7022,WL,C,4.0
6,26.608999967575073,distr,33391.00003242493,Tue Oct 01 2024 16:16:00 GMT-0500 (Central Daylight Time),758452.6000000238,B,f,O,f,16166,1,16178.5,742274.1000000238,7022,WL,C,5.0
6,26.72499990463257,distr,33275.00009536743,Tue Oct 01 2024 16:16:00 GMT-0500 (Central Daylight Time),758569.1000000238,B,fa,O,a,83,1,16295.0,742274.1000000238,7022,WL,C,5.0
6,27.024999856948853,distr,32975.00014305115,Tue Oct 01 2024 16:16:00 GMT-0500 (Central Daylight Time),758869.0,B,fat,O,t,269,1,16594.899999976158,742274.1000000238,7022,WL,C,5.0
6,27.241999864578247,distr,32758.000135421753,Tue Oct 01 2024 16:16:00 GMT-0500 (Central Daylight Time),759085.2999999523,B,fath,O,h,186,1,16811.199999928474,742274.1000000238,7022,WL,C,5.0
6,27.340999841690063,distr,32659.000158309937,Tue Oct 01 2024 16:16:00 GMT-0500 (Central Daylight Time),759184.6999999285,B,fathe,O,e,67,1,16910.599999904633,742274.1000000238,7022,WL,C,5.0
6,27.407999992370605,distr,32592.000007629395,Tue Oct 01 2024 16:16:00 GMT-0500 (Central Daylight Time),759251.6000000238,B,father,O,r,60,1,16977.5,742274.1000000238,7022,WL,C,5.0
6,27.590999841690063,distr,32409.000158309937,Tue Oct 01 2024 16:16:00 GMT-0500 (Central Daylight Time),759434.6999999285,B,fatherenter,O,enter,162,1,17160.599999904633,742274.1000000238,7022,WL,C,5.0
6,31.58999991416931,distr,28410.00008583069,Tue Oct 01 2024 16:16:00 GMT-0500 (Central Daylight Time),763433.2999999523,B,w,O,w,3986,1,3998.1999999284744,759435.1000000238,7022,WL,C,6.0
6,31.740000009536743,distr,28259.999990463257,Tue Oct 01 2024 16:16:00 GMT-0500 (Central Daylight Time),763583.6000000238,B,wi,O,i,131,1,4148.5,759435.1000000238,7022,WL,C,6.0
6,31.823999881744385,distr,28176.000118255615,Tue Oct 01 2024 16:16:00 GMT-0500 (Central Daylight Time),763667.2999999523,B,win,O,n,64,1,4232.199999928474,759435.1000000238,7022,WL,C,6.0
6,32.00699996948242,distr,27993.000030517578,Tue Oct 01 2024 16:16:00 GMT-0500 (Central Daylight Time),763850.6999999285,B,wint,O,t,148,1,4415.599999904633,759435.1000000238,7022,WL,C,6.0
6,32.18999981880188,distr,27810.00018119812,Tue Oct 01 2024 16:16:00 GMT-0500 (Central Daylight Time),764034.0,B,winte,O,e,156,1,4598.899999976158,759435.1000000238,7022,WL,C,6.0
6,32.306999921798706,distr,27693.000078201294,Tue Oct 01 2024 16:16:00 GMT-0500 (Central Daylight Time),764150.6999999285,B,winter,O,r,86,1,4715.599999904633,759435.1000000238,7022,WL,C,6.0
6,33.288999795913696,distr,26711.000204086304,Tue Oct 01 2024 16:16:00 GMT-0500 (Central Daylight Time),765132.8999999762,B,winterenter,O,enter,961,1,5697.799999952316,759435.1000000238,7022,WL,C,6.0
6,38.05399990081787,distr,21946.00009918213,Tue Oct 01 2024 16:16:00 GMT-0500 (Central Daylight Time),769898.0,B,enter,O,enter,4752,1,4764.800000071526,765133.1999999285,7022,WL,C,7.0
6,46.7189998626709,distr,13281.000137329102,Tue Oct 01 2024 16:16:00 GMT-0500 (Central Daylight Time),778562.6000000238,B,b,O,b,8644,1,8664.300000071526,769898.2999999523,7022,WL,C,8.0
6,46.88599991798401,distr,13114.000082015991,Tue Oct 01 2024 16:16:00 GMT-0500 (Central Daylight Time),778728.6000000238,B,bu,O,u,130,1,8830.300000071526,769898.2999999523,7022,WL,C,8.0
6,47.01899981498718,distr,12981.000185012817,Tue Oct 01 2024 16:16:00 GMT-0500 (Central Daylight Time),778862.1999999285,B,but,O,t,106,1,8963.899999976158,769898.2999999523,7022,WL,C,8.0
6,47.18599987030029,distr,12814.000129699707,Tue Oct 01 2024 16:16:00 GMT-0500 (Central Daylight Time),779028.7999999523,B,butt,O,t,148,1,9130.5,769898.2999999523,7022,WL,C,8.0
6,47.418999910354614,distr,12581.000089645386,Tue Oct 01 2024 16:16:00 GMT-0500 (Central Daylight Time),779262.1000000238,B,butte,O,e,214,1,9363.800000071526,769898.2999999523,7022,WL,C,8.0
6,47.51899981498718,distr,12481.000185012817,Tue Oct 01 2024 16:16:00 GMT-0500 (Central Daylight Time),779362.3999999762,B,butter,O,r,72,1,9464.100000023842,769898.2999999523,7022,WL,C,8.0
6,47.78499984741211,distr,12215.00015258789,Tue Oct 01 2024 16:16:00 GMT-0500 (Central Daylight Time),779628.1000000238,B,butterenter,O,enter,227,1,9729.800000071526,769898.2999999523,7022,WL,C,8.0
6,50.00099992752075,distr,9999.000072479248,Tue Oct 01 2024 16:16:00 GMT-0500 (Central Daylight Time),781844.0,B,m,O,m,2193,1,2215.7000000476837,779628.2999999523,7022,WL,C,9.0
6,50.18400001525879,distr,9815.999984741211,Tue Oct 01 2024 16:16:00 GMT-0500 (Central Daylight Time),782027.1999999285,B,mo,O,o,161,1,2398.899999976158,779628.2999999523,7022,WL,C,9.0
6,50.28399991989136,distr,9716.000080108643,Tue Oct 01 2024 16:16:00 GMT-0500 (Central Daylight Time),782127.6000000238,B,mon,O,n,91,1,2499.3000000715256,779628.2999999523,7022,WL,C,9.0
6,50.43499994277954,distr,9565.000057220459,Tue Oct 01 2024 16:16:00 GMT-0500 (Central Daylight Time),782278.0,B,mone,O,e,123,1,2649.7000000476837,779628.2999999523,7022,WL,C,9.0
6,51.650999784469604,distr,8349.000215530396,Tue Oct 01 2024 16:16:00 GMT-0500 (Central Daylight Time),783494.2999999523,B,money,O,y,1185,1,3866.0,779628.2999999523,7022,WL,C,9.0
6,52.61699986457825,distr,7383.000135421753,Tue Oct 01 2024 16:16:00 GMT-0500 (Central Daylight Time),784459.8999999762,B,moneyenter,O,enter,924,1,4831.600000023842,779628.2999999523,7022,WL,C,9.0
6,55.75,distr,4250.0,Tue Oct 01 2024 16:16:00 GMT-0500 (Central Daylight Time),787592.7999999523,B,f,O,f,3115,1,3132.6999999284744,784460.1000000238,7022,WL,C,10.0
6,55.86699986457825,distr,4133.000135421753,Tue Oct 01 2024 16:16:00 GMT-0500 (Central Daylight Time),787709.6000000238,B,fo,O,o,95,1,3249.5,784460.1000000238,7022,WL,C,10.0
6,56.06599998474121,distr,3934.000015258789,Tue Oct 01 2024 16:16:00 GMT-0500 (Central Daylight Time),787909.3999999762,B,for,O,r,162,1,3449.2999999523163,784460.1000000238,7022,WL,C,10.0
6,56.14999985694885,distr,3850.0001430511475,Tue Oct 01 2024 16:16:00 GMT-0500 (Central Daylight Time),787992.8999999762,B,fore,O,e,58,1,3532.7999999523163,784460.1000000238,7022,WL,C,10.0
6,56.382999897003174,distr,3617.000102996826,Tue Oct 01 2024 16:16:00 GMT-0500 (Central Daylight Time),788226.1999999285,B,fores,O,s,205,1,3766.0999999046326,784460.1000000238,7022,WL,C,10.0
6,56.58299994468689,distr,3417.0000553131104,Tue Oct 01 2024 16:16:00 GMT-0500 (Central Daylight Time),788426.0,B,forest,O,t,173,1,3965.899999976158,784460.1000000238,7022,WL,C,10.0
6,56.79899978637695,distr,3201.000213623047,Tue Oct 01 2024 16:16:00 GMT-0500 (Central Daylight Time),788641.8999999762,B,forestenter,O,enter,190,1,4181.799999952316,784460.1000000238,7022,WL,C,10.0
6,60.014999866485596,distr,-14.999866485595703,Tue Oct 01 2024 16:16:00 GMT-0500 (Central Daylight Time),791858.1999999285,B,None,O,None,3211,1,3216.0999999046326,788642.1000000238,7022,WL,C,11.0
7,1.1490001678466797,immed,58850.99983215332,Tue Oct 01 2024 16:16:00 GMT-0500 (Central Daylight Time),808902.3999999762,A,t,O,t,1127,1,1149.0,807753.3999999762,7022,WL,C,1.0
7,1.3819999694824219,immed,58618.00003051758,Tue Oct 01 2024 16:16:00 GMT-0500 (Central Daylight Time),809135.5,A,to,O,o,198,1,1382.1000000238419,807753.3999999762,7022,WL,C,1.0
7,1.5329999923706055,immed,58467.000007629395,Tue Oct 01 2024 16:16:00 GMT-0500 (Central Daylight Time),809286.0,A,tow,O,w,127,1,1532.6000000238419,807753.3999999762,7022,WL,C,1.0
7,1.6990001201629639,immed,58300.999879837036,Tue Oct 01 2024 16:16:00 GMT-0500 (Central Daylight Time),809452.5,A,towe,O,e,128,1,1699.1000000238419,807753.3999999762,7022,WL,C,1.0
7,1.815999984741211,immed,58184.00001525879,Tue Oct 01 2024 16:16:00 GMT-0500 (Central Daylight Time),809568.7999999523,A,tower,O,r,93,1,1815.3999999761581,807753.3999999762,7022,WL,C,1.0
7,2.2820000648498535,immed,57717.99993515015,Tue Oct 01 2024 16:16:00 GMT-0500 (Central Daylight Time),810034.7999999523,A,towerenter,O,enter,428,1,2281.399999976158,807753.3999999762,7022,WL,C,1.0
7,2.932000160217285,immed,57067.999839782715,Tue Oct 01 2024 16:16:00 GMT-0500 (Central Daylight Time),810685.2999999523,A,q,O,q,636,1,650.2999999523163,810035.0,7022,WL,C,2.0
7,3.182000160217285,immed,56817.999839782715,Tue Oct 01 2024 16:16:00 GMT-0500 (Central Daylight Time),810934.7999999523,A,qu,O,u,228,1,899.7999999523163,810035.0,7022,WL,C,2.0
7,3.3320000171661377,immed,56667.99998283386,Tue Oct 01 2024 16:16:00 GMT-0500 (Central Daylight Time),811084.7999999523,A,que,O,e,125,1,1049.7999999523163,810035.0,7022,WL,C,2.0
7,3.932000160217285,immed,56067.999839782715,Tue Oct 01 2024 16:16:00 GMT-0500 (Central Daylight Time),811684.8999999762,A,quee,O,e,570,1,1649.8999999761581,810035.0,7022,WL,C,2.0
7,4.265000104904175,immed,55734.999895095825,Tue Oct 01 2024 16:16:00 GMT-0500 (Central Daylight Time),812018.1999999285,A,queen,O,n,305,1,1983.1999999284744,810035.0,7022,WL,C,2.0
7,4.614000082015991,immed,55385.99991798401,Tue Oct 01 2024 16:16:00 GMT-0500 (Central Daylight Time),812367.3999999762,A,queenenter,O,enter,323,1,2332.399999976158,810035.0,7022,WL,C,2.0
7,5.0980000495910645,immed,54901.999950408936,Tue Oct 01 2024 16:16:00 GMT-0500 (Central Daylight Time),812851.2999999523,A,s,O,s,463,1,483.60000002384186,812367.6999999285,7022,WL,C,3.0
7,5.215000152587891,immed,54784.99984741211,Tue Oct 01 2024 16:16:00 GMT-0500 (Central Daylight Time),812968.0,A,su,O,u,84,1,600.3000000715256,812367.6999999285,7022,WL,C,3.0
7,5.3480000495910645,immed,54651.999950408936,Tue Oct 01 2024 16:16:00 GMT-0500 (Central Daylight Time),813101.2999999523,A,sug,O,g,102,1,733.6000000238419,812367.6999999285,7022,WL,C,3.0
7,5.531000137329102,immed,54468.9998626709,Tue Oct 01 2024 16:16:00 GMT-0500 (Central Daylight Time),813284.5,A,suga,O,a,152,1,916.8000000715256,812367.6999999285,7022,WL,C,3.0
7,5.648000001907349,immed,54351.99999809265,Tue Oct 01 2024 16:16:00 GMT-0500 (Central Daylight Time),813400.5,A,sugar,O,r,89,1,1032.8000000715256,812367.6999999285,7022,WL,C,3.0
7,6.114000082015991,immed,53885.99991798401,Tue Oct 01 2024 16:16:00 GMT-0500 (Central Daylight Time),813866.8999999762,A,sugarenter,O,enter,449,1,1499.2000000476837,812367.6999999285,7022,WL,C,3.0
7,7.197000026702881,immed,52802.99997329712,Tue Oct 01 2024 16:16:00 GMT-0500 (Central Daylight Time),814950.5,A,h,O,h,1077,1,1083.3999999761581,813867.1000000238,7022,WL,C,4.0
7,7.2799999713897705,immed,52720.00002861023,Tue Oct 01 2024 16:16:00 GMT-0500 (Central Daylight Time),815033.6000000238,A,ho,O,o,56,1,1166.5,813867.1000000238,7022,WL,C,4.0
7,7.480999946594238,immed,52519.00005340576,Tue Oct 01 2024 16:16:00 GMT-0500 (Central Daylight Time),815233.7999999523,A,hom,O,m,174,1,1366.6999999284744,813867.1000000238,7022,WL,C,4.0
7,7.63100004196167,immed,52368.99995803833,Tue Oct 01 2024 16:16:00 GMT-0500 (Central Daylight Time),815383.7999999523,A,home,O,e,125,1,1516.6999999284744,813867.1000000238,7022,WL,C,4.0
7,8.013000011444092,immed,51986.99998855591,Tue Oct 01 2024 16:16:00 GMT-0500 (Central Daylight Time),815766.1999999285,A,homeenter,O,enter,358,1,1899.0999999046326,813867.1000000238,7022,WL,C,4.0
7,8.380000114440918,immed,51619.99988555908,Tue Oct 01 2024 16:16:00 GMT-0500 (Central Daylight Time),816133.6000000238,A,b,O,b,353,1,367.10000002384186,815766.5,7022,WL,C,5.0
7,8.52999997138977,immed,51470.00002861023,Tue Oct 01 2024 16:16:00 GMT-0500 (Central Daylight Time),816283.5,A,bo,O,o,122,1,517.0,815766.5,7022,WL,C,5.0
7,8.664000034332275,immed,51335.999965667725,Tue Oct 01 2024 16:16:00 GMT-0500 (Central Daylight Time),816416.6999999285,A,boy,O,y,97,1,650.1999999284744,815766.5,7022,WL,C,5.0
7,8.979000091552734,immed,51020.999908447266,Tue Oct 01 2024 16:16:00 GMT-0500 (Central Daylight Time),816732.5,A,boyenter,O,enter,284,1,966.0,815766.5,7022,WL,C,5.0
7,9.430000066757202,immed,50569.9999332428,Tue Oct 01 2024 16:16:00 GMT-0500 (Central Daylight Time),817183.2999999523,A,w,O,w,434,1,450.39999997615814,816732.8999999762,7022,WL,C,6.0
7,9.597000122070312,immed,50402.99987792969,Tue Oct 01 2024 16:16:00 GMT-0500 (Central Daylight Time),817349.6000000238,A,wh,O,h,143,1,616.7000000476837,816732.8999999762,7022,WL,C,6.0
7,9.69700002670288,immed,50302.99997329712,Tue Oct 01 2024 16:16:00 GMT-0500 (Central Daylight Time),817449.6000000238,A,whe,O,e,65,1,716.7000000476837,816732.8999999762,7022,WL,C,6.0
7,9.946000099182129,immed,50053.99990081787,Tue Oct 01 2024 16:16:00 GMT-0500 (Central Daylight Time),817699.6000000238,A,whea,O,a,222,1,966.7000000476837,816732.8999999762,7022,WL,C,6.0
7,10.097000122070312,immed,49902.99987792969,Tue Oct 01 2024 16:16:00 GMT-0500 (Central Daylight Time),817849.6000000238,A,wheat,O,t,116,1,1116.7000000476837,816732.8999999762,7022,WL,C,6.0
7,10.463000059127808,immed,49536.99994087219,Tue Oct 01 2024 16:16:00 GMT-0500 (Central Daylight Time),818215.6000000238,A,wheatenter,O,enter,333,1,1482.7000000476837,816732.8999999762,7022,WL,C,6.0
7,10.996000051498413,immed,49003.99994850159,Tue Oct 01 2024 16:16:00 GMT-0500 (Central Daylight Time),818749.0,A,d,O,d,518,1,533.1000000238419,818215.8999999762,7022,WL,C,7.0
7,11.09500002861023,immed,48904.99997138977,Tue Oct 01 2024 16:16:00 GMT-0500 (Central Daylight Time),818848.5,A,do,O,o,72,1,632.6000000238419,818215.8999999762,7022,WL,C,7.0
7,11.213000059127808,immed,48786.99994087219,Tue Oct 01 2024 16:16:00 GMT-0500 (Central Daylight Time),818965.8999999762,A,doc,O,c,101,1,750.0,818215.8999999762,7022,WL,C,7.0
7,11.396000146865845,immed,48603.999853134155,Tue Oct 01 2024 16:16:00 GMT-0500 (Central Daylight Time),819149.1000000238,A,doct,O,t,163,1,933.2000000476837,818215.8999999762,7022,WL,C,7.0
7,11.529000043869019,immed,48470.99995613098,Tue Oct 01 2024 16:16:00 GMT-0500 (Central Daylight Time),819282.1999999285,A,docto,O,o,106,1,1066.2999999523163,818215.8999999762,7022,WL,C,7.0
7,11.646000146865845,immed,48353.999853134155,Tue Oct 01 2024 16:16:00 GMT-0500 (Central Daylight Time),819398.7999999523,A,doctor,O,r,93,1,1182.8999999761581,818215.8999999762,7022,WL,C,7.0
7,11.894999980926514,immed,48105.000019073486,Tue Oct 01 2024 16:16:00 GMT-0500 (Central Daylight Time),819648.2999999523,A,doctorenter,O,enter,224,1,1432.3999999761581,818215.8999999762,7022,WL,C,7.0
7,12.463000059127808,immed,47536.99994087219,Tue Oct 01 2024 16:16:00 GMT-0500 (Central Daylight Time),820215.6000000238,A,c,O,c,550,1,567.0,819648.6000000238,7022,WL,C,8.0
7,12.628999948501587,immed,47371.00005149841,Tue Oct 01 2024 16:16:00 GMT-0500 (Central Daylight Time),820382.1000000238,A,ca,O,a,135,1,733.5,819648.6000000238,7022,WL,C,8.0
7,12.696000099182129,immed,47303.99990081787,Tue Oct 01 2024 16:16:00 GMT-0500 (Central Daylight Time),820448.6000000238,A,cam,O,m,41,1,800.0,819648.6000000238,7022,WL,C,8.0
7,12.946000099182129,immed,47053.99990081787,Tue Oct 01 2024 16:16:00 GMT-0500 (Central Daylight Time),820698.6999999285,A,camp,O,p,214,1,1050.0999999046326,819648.6000000238,7022,WL,C,8.0
7,13.361000061035156,immed,46638.999938964844,Tue Oct 01 2024 16:16:00 GMT-0500 (Central Daylight Time),821114.5,A,campenter,O,enter,378,1,1465.8999999761581,819648.6000000238,7022,WL,C,8.0
7,13.995000123977661,immed,46004.99987602234,Tue Oct 01 2024 16:16:00 GMT-0500 (Central Daylight Time),821748.3999999762,A,l,O,l,621,1,633.7000000476837,821114.6999999285,7022,WL,C,9.0
7,14.062000036239624,immed,45937.999963760376,Tue Oct 01 2024 16:16:00 GMT-0500 (Central Daylight Time),821814.8999999762,A,le,O,e,43,1,700.2000000476837,821114.6999999285,7022,WL,C,9.0
7,14.195000171661377,immed,45804.99982833862,Tue Oct 01 2024 16:16:00 GMT-0500 (Central Daylight Time),821948.2999999523,A,let,O,t,108,1,833.6000000238419,821114.6999999285,7022,WL,C,9.0
7,14.378999948501587,immed,45621.00005149841,Tue Oct 01 2024 16:16:00 GMT-0500 (Central Daylight Time),822131.6999999285,A,lett,O,t,156,1,1017.0,821114.6999999285,7022,WL,C,9.0
7,14.546000003814697,immed,45453.9999961853,Tue Oct 01 2024 16:16:00 GMT-0500 (Central Daylight Time),822298.7999999523,A,lette,O,e,130,1,1184.1000000238419,821114.6999999285,7022,WL,C,9.0
7,14.628000020980835,immed,45371.999979019165,Tue Oct 01 2024 16:16:00 GMT-0500 (Central Daylight Time),822381.6000000238,A,letter,O,r,52,1,1266.9000000953674,821114.6999999285,7022,WL,C,9.0
7,14.761000156402588,immed,45238.99984359741,Tue Oct 01 2024 16:16:00 GMT-0500 (Central Daylight Time),822514.1000000238,A,letterenter,O,enter,105,1,1399.4000000953674,821114.6999999285,7022,WL,C,9.0
7,17.460999965667725,immed,42539.000034332275,Tue Oct 01 2024 16:16:00 GMT-0500 (Central Daylight Time),825213.6999999285,A,n,O,n,2684,1,2699.2999999523163,822514.3999999762,7022,WL,C,10.0
7,17.55999994277954,immed,42440.00005722046,Tue Oct 01 2024 16:16:00 GMT-0500 (Central Daylight Time),825313.1000000238,A,na,O,a,70,1,2798.7000000476837,822514.3999999762,7022,WL,C,10.0
7,17.66000008583069,immed,42339.99991416931,Tue Oct 01 2024 16:16:00 GMT-0500 (Central Daylight Time),825413.3999999762,A,nai,O,i,85,1,2899.0,822514.3999999762,7022,WL,C,10.0
7,17.794000148773193,immed,42205.99985122681,Tue Oct 01 2024 16:16:00 GMT-0500 (Central Daylight Time),825547.2999999523,A,nail,O,l,110,1,3032.899999976158,822514.3999999762,7022,WL,C,10.0
7,18.05999994277954,immed,41940.00005722046,Tue Oct 01 2024 16:16:00 GMT-0500 (Central Daylight Time),825813.0,A,nailenter,O,enter,234,1,3298.600000023842,822514.3999999762,7022,WL,C,10.0
7,18.74399995803833,immed,41256.00004196167,Tue Oct 01 2024 16:16:00 GMT-0500 (Central Daylight Time),826496.7999999523,A,f,O,f,673,1,683.6999999284744,825813.1000000238,7022,WL,C,11.0
7,18.927000045776367,immed,41072.99995422363,Tue Oct 01 2024 16:16:00 GMT-0500 (Central Daylight Time),826680.1000000238,A,fl,O,l,151,1,867.0,825813.1000000238,7022,WL,C,11.0
7,19.22699999809265,immed,40773.00000190735,Tue Oct 01 2024 16:16:00 GMT-0500 (Central Daylight Time),826980.0,A,fla,O,a,269,1,1166.8999999761581,825813.1000000238,7022,WL,C,11.0
7,19.427000045776367,immed,40572.99995422363,Tue Oct 01 2024 16:16:00 GMT-0500 (Central Daylight Time),827179.7999999523,A,flag,O,g,170,1,1366.6999999284744,825813.1000000238,7022,WL,C,11.0
7,19.693000078201294,immed,40306.999921798706,Tue Oct 01 2024 16:16:00 GMT-0500 (Central Daylight Time),827445.6000000238,A,flagenter,O,enter,241,1,1632.5,825813.1000000238,7022,WL,C,11.0
7,20.177000045776367,immed,39822.99995422363,Tue Oct 01 2024 16:16:00 GMT-0500 (Central Daylight Time),827929.6000000238,A,c,O,c,466,1,483.7000000476837,827445.8999999762,7022,WL,C,12.0
7,20.342999935150146,immed,39657.00006484985,Tue Oct 01 2024 16:16:00 GMT-0500 (Central Daylight Time),828096.1999999285,A,ca,O,a,142,1,650.2999999523163,827445.8999999762,7022,WL,C,12.0
7,20.493000030517578,immed,39506.99996948242,Tue Oct 01 2024 16:16:00 GMT-0500 (Central Daylight Time),828246.1000000238,A,cat,O,t,119,1,800.2000000476837,827445.8999999762,7022,WL,C,12.0
7,20.66000008583069,immed,39339.99991416931,Tue Oct 01 2024 16:16:00 GMT-0500 (Central Daylight Time),828412.6999999285,A,catt,O,t,136,1,966.7999999523163,827445.8999999762,7022,WL,C,12.0
7,20.825999975204468,immed,39174.00002479553,Tue Oct 01 2024 16:16:00 GMT-0500 (Central Daylight Time),828579.2999999523,A,cattl,O,l,136,1,1133.3999999761581,827445.8999999762,7022,WL,C,12.0
7,20.89199995994568,immed,39108.00004005432,Tue Oct 01 2024 16:16:00 GMT-0500 (Central Daylight Time),828645.3999999762,A,cattle,O,e,42,1,1199.5,827445.8999999762,7022,WL,C,12.0
