Number,acc_sum,block,block_c,block_cond,con_img,correct,correct_response,datetime,endtime,jitter,project,response,response_time,row_sel,session_number,start_end,starttime,subject_id,task,task_vers,trial
3,0,prac,1,A,circle.png,0,z,Thu Apr 03 2025 18:13:25 GMT-0500 (Central Daylight Time),70221.10000000149,1200,I,None,1515,3,1,3494.0,66727.10000000149,8037,NTS,B,1
9,1,prac,1,A,circle.png,1,m,Thu Apr 03 2025 18:13:25 GMT-0500 (Central Daylight Time),73286.0,1500,I,m,776,8,1,3059.1999999955297,70226.80000000447,8037,NTS,B,2
1,2,prac,1,A,circle.png,1,z,Thu Apr 03 2025 18:13:25 GMT-0500 (Central Daylight Time),75684.89999999851,1000,I,z,602,1,1,2393.1999999955297,73291.70000000298,8037,NTS,B,3
6,3,prac,1,A,circle.png,1,m,Thu Apr 03 2025 18:13:25 GMT-0500 (Central Daylight Time),79450.5,1900,I,m,1000,5,1,3758.60000000149,75691.89999999851,8037,NTS,B,4
1,4,prac,1,A,circle.png,1,z,Thu Apr 03 2025 18:13:25 GMT-0500 (Central Daylight Time),81833.39999999851,1000,I,z,588,1,1,2377.2999999970198,79456.10000000149,8037,NTS,B,5
2,5,prac,1,A,circle.png,1,z,Thu Apr 03 2025 18:13:25 GMT-0500 (Central Daylight Time),85498.70000000298,2000,I,z,879,2,1,3659.8000000044703,81838.89999999851,8037,NTS,B,6
8,6,prac,1,A,circle.png,1,m,Thu Apr 03 2025 18:13:25 GMT-0500 (Central Daylight Time),88881.20000000298,1600,I,m,989,7,1,3376.89999999851,85504.30000000447,8037,NTS,B,7
4,7,prac,1,A,circle.png,1,z,Thu Apr 03 2025 18:13:25 GMT-0500 (Central Daylight Time),91680.39999999851,1400,I,z,607,4,1,2794.39999999851,88886.0,8037,NTS,B,8
6,8,prac,1,A,circle.png,1,m,Thu Apr 03 2025 18:13:25 GMT-0500 (Central Daylight Time),94962.5,1900,I,m,596,5,1,3277.0,91685.5,8037,NTS,B,9
7,9,prac,1,A,circle.png,1,m,Thu Apr 03 2025 18:13:25 GMT-0500 (Central Daylight Time),98144.70000000298,1700,I,m,690,6,1,3176.7000000029802,94968.0,8037,NTS,B,10
8,10,prac,1,A,circle.png,1,m,Thu Apr 03 2025 18:13:25 GMT-0500 (Central Daylight Time),101240.10000000149,1600,I,m,567,7,1,3089.5,98150.60000000149,8037,NTS,B,11
2,11,prac,1,A,circle.png,1,z,Thu Apr 03 2025 18:13:25 GMT-0500 (Central Daylight Time),104642.80000000447,2000,I,z,613,2,1,3397.10000000149,101245.70000000298,8037,NTS,B,12
3,1,prac,1,B,triangle.png,1,z,Thu Apr 03 2025 18:13:25 GMT-0500 (Central Daylight Time),135383.3999999985,1600,I,z,867,3,1,3261.2999999970198,132122.1000000015,8037,NTS,B,1
4,2,prac,1,B,triangle.png,1,m,Thu Apr 03 2025 18:13:25 GMT-0500 (Central Daylight Time),138532.20000000298,1500,I,m,853,4,1,3143.2000000029802,135389.0,8037,NTS,B,2
2,3,prac,1,B,triangle.png,1,m,Thu Apr 03 2025 18:13:25 GMT-0500 (Central Daylight Time),141731.20000000298,1700,I,m,712,2,1,3193.8000000044703,138537.3999999985,8037,NTS,B,3
7,3,prac,1,B,triangle.png,0,z,Thu Apr 03 2025 18:13:25 GMT-0500 (Central Daylight Time),145813.30000000447,2000,I,m,1285,6,1,4077.2000000029802,141736.1000000015,8037,NTS,B,4
1,4,prac,1,B,triangle.png,1,z,Thu Apr 03 2025 18:13:25 GMT-0500 (Central Daylight Time),149295.5,1900,I,z,788,1,1,3476.7999999970198,145818.70000000298,8037,NTS,B,5
6,5,prac,1,B,triangle.png,1,m,Thu Apr 03 2025 18:13:25 GMT-0500 (Central Daylight Time),151761.6000000015,1000,I,m,681,5,1,2461.2999999970198,149300.30000000447,8037,NTS,B,6
7,5,prac,1,B,triangle.png,0,z,Thu Apr 03 2025 18:13:25 GMT-0500 (Central Daylight Time),155360.20000000298,2000,I,m,807,6,1,3593.39999999851,151766.80000000447,8037,NTS,B,7
9,5,prac,1,B,triangle.png,0,z,Thu Apr 03 2025 18:13:25 GMT-0500 (Central Daylight Time),158142.6000000015,1400,I,m,584,8,1,2777.60000000149,155365.0,8037,NTS,B,8
8,5,prac,1,B,triangle.png,0,m,Thu Apr 03 2025 18:13:25 GMT-0500 (Central Daylight Time),160875.3999999985,1200,I,z,746,7,1,2727.2999999970198,158148.1000000015,8037,NTS,B,9
3,5,prac,1,B,triangle.png,0,z,Thu Apr 03 2025 18:13:25 GMT-0500 (Central Daylight Time),164774.1000000015,1600,I,None,1515,3,1,3893.89999999851,160880.20000000298,8037,NTS,B,10
4,6,prac,1,B,triangle.png,1,m,Thu Apr 03 2025 18:13:25 GMT-0500 (Central Daylight Time),168022.8999999985,1500,I,m,958,4,1,3243.39999999851,164779.5,8037,NTS,B,11
2,6,prac,1,B,triangle.png,0,m,Thu Apr 03 2025 18:13:25 GMT-0500 (Central Daylight Time),171471.8999999985,1700,I,z,950,2,1,3444.2999999970198,168027.6000000015,8037,NTS,B,12
8,0,prac,2,B,triangle.png,0,m,Thu Apr 03 2025 18:13:25 GMT-0500 (Central Daylight Time),182318.30000000447,1200,I,None,1516,7,1,3491.8000000044703,178826.5,8037,NTS,B,1
9,1,prac,2,B,triangle.png,1,z,Thu Apr 03 2025 18:13:25 GMT-0500 (Central Daylight Time),185301.1000000015,1400,I,z,794,8,1,2975.7999999970198,182325.30000000447,8037,NTS,B,2
4,2,prac,2,B,triangle.png,1,m,Thu Apr 03 2025 18:13:25 GMT-0500 (Central Daylight Time),188416.70000000298,1500,I,m,823,4,1,3111.0,185305.70000000298,8037,NTS,B,3
1,3,prac,2,B,triangle.png,1,z,Thu Apr 03 2025 18:13:25 GMT-0500 (Central Daylight Time),191632.30000000447,1900,I,z,533,1,1,3210.9000000059605,188421.3999999985,8037,NTS,B,4
3,4,prac,2,B,triangle.png,1,z,Thu Apr 03 2025 18:13:25 GMT-0500 (Central Daylight Time),195444.1000000015,1600,I,z,1368,3,1,3807.2000000029802,191636.8999999985,8037,NTS,B,5
1,5,prac,2,B,triangle.png,1,z,Thu Apr 03 2025 18:13:25 GMT-0500 (Central Daylight Time),198696.70000000298,1900,I,z,565,1,1,3247.2000000029802,195449.5,8037,NTS,B,6
6,6,prac,2,B,triangle.png,1,m,Thu Apr 03 2025 18:13:25 GMT-0500 (Central Daylight Time),201112.6000000015,1000,I,m,624,5,1,2411.2000000029802,198701.3999999985,8037,NTS,B,7
2,7,prac,2,B,triangle.png,1,m,Thu Apr 03 2025 18:13:25 GMT-0500 (Central Daylight Time),204245.0,1700,I,m,636,2,1,3127.6999999955297,201117.30000000447,8037,NTS,B,8
9,8,prac,2,B,triangle.png,1,z,Thu Apr 03 2025 18:13:25 GMT-0500 (Central Daylight Time),207177.30000000447,1400,I,z,748,8,1,2927.60000000149,204249.70000000298,8037,NTS,B,9
7,9,prac,2,B,triangle.png,1,z,Thu Apr 03 2025 18:13:25 GMT-0500 (Central Daylight Time),210942.80000000447,2000,I,z,975,6,1,3760.4000000059605,207182.3999999985,8037,NTS,B,10
7,10,prac,2,B,triangle.png,1,z,Thu Apr 03 2025 18:13:25 GMT-0500 (Central Daylight Time),214225.5,2000,I,z,489,6,1,3278.10000000149,210947.3999999985,8037,NTS,B,11
3,11,prac,2,B,triangle.png,1,z,Thu Apr 03 2025 18:13:25 GMT-0500 (Central Daylight Time),217190.8999999985,1600,I,z,567,3,1,2960.89999999851,214230.0,8037,NTS,B,12
4,0,test,1,A,circle.png,0,z,Thu Apr 03 2025 18:13:25 GMT-0500 (Central Daylight Time),237184.5,1400,I,m,883,4,1,2312.60000000149,234871.8999999985,8037,NTS,B,1
9,1,test,1,A,circle.png,1,m,Thu Apr 03 2025 18:13:25 GMT-0500 (Central Daylight Time),239350.5,1500,I,m,635,8,1,2162.0,237188.5,8037,NTS,B,2
6,2,test,1,A,circle.png,1,m,Thu Apr 03 2025 18:13:25 GMT-0500 (Central Daylight Time),241916.3999999985,1900,I,m,646,5,1,2562.39999999851,239354.0,8037,NTS,B,3
6,3,test,1,A,circle.png,1,m,Thu Apr 03 2025 18:13:25 GMT-0500 (Central Daylight Time),244365.6000000015,1900,I,m,528,5,1,2445.60000000149,241920.0,8037,NTS,B,4
2,4,test,1,A,circle.png,1,z,Thu Apr 03 2025 18:13:25 GMT-0500 (Central Daylight Time),247099.20000000298,2000,I,z,715,2,1,2729.8000000044703,244369.3999999985,8037,NTS,B,5
2,5,test,1,A,circle.png,1,z,Thu Apr 03 2025 18:13:25 GMT-0500 (Central Daylight Time),249697.20000000298,2000,I,z,574,2,1,2594.2000000029802,247103.0,8037,NTS,B,6
8,6,test,1,A,circle.png,1,m,Thu Apr 03 2025 18:13:25 GMT-0500 (Central Daylight Time),251929.8999999985,1600,I,m,615,7,1,2228.89999999851,249701.0,8037,NTS,B,7
4,7,test,1,A,circle.png,1,z,Thu Apr 03 2025 18:13:25 GMT-0500 (Central Daylight Time),254012.5,1400,I,z,662,4,1,2079.0,251933.5,8037,NTS,B,8
9,8,test,1,A,circle.png,1,m,Thu Apr 03 2025 18:13:25 GMT-0500 (Central Daylight Time),256112.0,1500,I,m,568,8,1,2095.6999999955297,254016.30000000447,8037,NTS,B,9
8,9,test,1,A,circle.png,1,m,Thu Apr 03 2025 18:13:25 GMT-0500 (Central Daylight Time),258477.8999999985,1600,I,m,736,7,1,2362.0,256115.8999999985,8037,NTS,B,10
1,10,test,1,A,circle.png,1,z,Thu Apr 03 2025 18:13:25 GMT-0500 (Central Daylight Time),260327.20000000298,1000,I,z,817,1,1,1845.7000000029802,258481.5,8037,NTS,B,11
3,11,test,1,A,circle.png,1,z,Thu Apr 03 2025 18:13:25 GMT-0500 (Central Daylight Time),262609.700000003,1200,I,z,1048,3,1,2278.7000000029802,260331.0,8037,NTS,B,12
8,12,test,1,A,circle.png,1,m,Thu Apr 03 2025 18:13:25 GMT-0500 (Central Daylight Time),265142.3999999985,1600,I,m,910,7,1,2528.6999999955297,262613.700000003,8037,NTS,B,13
7,13,test,1,A,circle.png,1,m,Thu Apr 03 2025 18:13:25 GMT-0500 (Central Daylight Time),267525.30000000447,1700,I,m,654,6,1,2379.2000000029802,265146.1000000015,8037,NTS,B,14
4,14,test,1,A,circle.png,1,z,Thu Apr 03 2025 18:13:25 GMT-0500 (Central Daylight Time),270157.700000003,1400,I,z,1212,4,1,2628.8000000044703,267528.8999999985,8037,NTS,B,15
3,15,test,1,A,circle.png,1,z,Thu Apr 03 2025 18:13:25 GMT-0500 (Central Daylight Time),272057.1000000015,1200,I,z,666,3,1,1895.6000000014901,270161.5,8037,NTS,B,16
7,15,test,1,A,circle.png,0,m,Thu Apr 03 2025 18:13:25 GMT-0500 (Central Daylight Time),274739.700000003,1700,I,z,955,6,1,2678.7000000029802,272061.0,8037,NTS,B,17
3,16,test,1,A,circle.png,1,z,Thu Apr 03 2025 18:13:25 GMT-0500 (Central Daylight Time),276705.6000000015,1200,I,z,734,3,1,1962.2999999970198,274743.30000000447,8037,NTS,B,18
2,17,test,1,A,circle.png,1,z,Thu Apr 03 2025 18:13:25 GMT-0500 (Central Daylight Time),279504.6000000015,2000,I,z,767,2,1,2795.60000000149,276709.0,8037,NTS,B,19
8,18,test,1,A,circle.png,1,m,Thu Apr 03 2025 18:13:25 GMT-0500 (Central Daylight Time),281787.1000000015,1600,I,m,663,7,1,2279.0,279508.1000000015,8037,NTS,B,20
7,19,test,1,A,circle.png,1,m,Thu Apr 03 2025 18:13:25 GMT-0500 (Central Daylight Time),284003.30000000447,1700,I,m,497,6,1,2212.4000000059605,281790.8999999985,8037,NTS,B,21
1,20,test,1,A,circle.png,1,z,Thu Apr 03 2025 18:13:25 GMT-0500 (Central Daylight Time),285619.1000000015,1000,I,z,597,1,1,1611.7999999970198,284007.30000000447,8037,NTS,B,22
9,21,test,1,A,circle.png,1,m,Thu Apr 03 2025 18:13:25 GMT-0500 (Central Daylight Time),287752.200000003,1500,I,m,601,8,1,2129.2000000029802,285623.0,8037,NTS,B,23
1,22,test,1,A,circle.png,1,z,Thu Apr 03 2025 18:13:25 GMT-0500 (Central Daylight Time),289468.1000000015,1000,I,z,688,1,1,1712.2000000029802,287755.8999999985,8037,NTS,B,24
9,1,test,1,B,triangle.png,1,z,Thu Apr 03 2025 18:13:25 GMT-0500 (Central Daylight Time),309995.1000000015,1400,I,z,1272,8,1,2695.89999999851,307299.200000003,8037,NTS,B,1
7,2,test,1,B,triangle.png,1,z,Thu Apr 03 2025 18:13:25 GMT-0500 (Central Daylight Time),312627.5,2000,I,z,605,6,1,2628.10000000149,309999.3999999985,8037,NTS,B,2
8,3,test,1,B,triangle.png,1,m,Thu Apr 03 2025 18:13:25 GMT-0500 (Central Daylight Time),314943.5,1700,I,m,585,15,1,2312.39999999851,312631.1000000015,8037,NTS,B,3
6,4,test,1,B,triangle.png,1,m,Thu Apr 03 2025 18:13:25 GMT-0500 (Central Daylight Time),316859.700000003,1000,I,m,888,5,1,1912.8000000044703,314946.8999999985,8037,NTS,B,4
1,5,test,1,B,triangle.png,1,z,Thu Apr 03 2025 18:13:25 GMT-0500 (Central Daylight Time),319342.0,1900,I,z,561,1,1,2478.2999999970198,316863.700000003,8037,NTS,B,5
8,6,test,1,B,triangle.png,1,m,Thu Apr 03 2025 18:13:25 GMT-0500 (Central Daylight Time),321641.6000000015,1700,I,m,582,15,1,2296.0,319345.6000000015,8037,NTS,B,6
9,7,test,1,B,triangle.png,1,z,Thu Apr 03 2025 18:13:25 GMT-0500 (Central Daylight Time),323924.30000000447,1400,I,z,855,8,1,2279.10000000149,321645.200000003,8037,NTS,B,7
4,8,test,1,B,triangle.png,1,m,Thu Apr 03 2025 18:13:25 GMT-0500 (Central Daylight Time),325973.3999999985,1000,I,m,1028,12,1,2045.5,323927.8999999985,8037,NTS,B,8
4,8,test,1,B,triangle.png,0,m,Thu Apr 03 2025 18:13:25 GMT-0500 (Central Daylight Time),329005.80000000447,1500,I,None,1516,4,1,3028.7000000029802,325977.1000000015,8037,NTS,B,9
9,9,test,1,B,triangle.png,1,z,Thu Apr 03 2025 18:13:25 GMT-0500 (Central Daylight Time),331871.5,1900,I,z,943,16,1,2862.0,329009.5,8037,NTS,B,10
1,10,test,1,B,triangle.png,1,z,Thu Apr 03 2025 18:13:25 GMT-0500 (Central Daylight Time),333937.700000003,1400,I,z,649,9,1,2062.5,331875.200000003,8037,NTS,B,11
2,11,test,1,B,triangle.png,1,m,Thu Apr 03 2025 18:13:25 GMT-0500 (Central Daylight Time),335803.6000000015,1200,I,m,646,10,1,1862.3999999985099,333941.200000003,8037,NTS,B,12
9,12,test,1,B,triangle.png,1,z,Thu Apr 03 2025 18:13:25 GMT-0500 (Central Daylight Time),338819.3999999985,1900,I,z,1089,16,1,3012.1999999955297,335807.200000003,8037,NTS,B,13
2,13,test,1,B,triangle.png,1,m,Thu Apr 03 2025 18:13:25 GMT-0500 (Central Daylight Time),341218.6000000015,1700,I,m,681,2,1,2395.7000000029802,338822.8999999985,8037,NTS,B,14
3,14,test,1,B,triangle.png,1,z,Thu Apr 03 2025 18:13:25 GMT-0500 (Central Daylight Time),344001.0,1600,I,z,1149,3,1,2778.1999999955297,341222.80000000447,8037,NTS,B,15
7,15,test,1,B,triangle.png,1,z,Thu Apr 03 2025 18:13:25 GMT-0500 (Central Daylight Time),346583.700000003,1600,I,z,951,14,1,2578.7000000029802,344005.0,8037,NTS,B,16
8,16,test,1,B,triangle.png,1,m,Thu Apr 03 2025 18:13:25 GMT-0500 (Central Daylight Time),348533.1000000015,1200,I,m,720,7,1,1945.7000000029802,346587.3999999985,8037,NTS,B,17
7,17,test,1,B,triangle.png,1,z,Thu Apr 03 2025 18:13:25 GMT-0500 (Central Daylight Time),351165.5,1600,I,z,1011,14,1,2628.60000000149,348536.8999999985,8037,NTS,B,18
1,18,test,1,B,triangle.png,1,z,Thu Apr 03 2025 18:13:25 GMT-0500 (Central Daylight Time),353664.700000003,1900,I,z,567,1,1,2495.60000000149,351169.1000000015,8037,NTS,B,19
6,19,test,1,B,triangle.png,1,m,Thu Apr 03 2025 18:13:25 GMT-0500 (Central Daylight Time),355780.80000000447,1500,I,m,595,13,1,2112.3000000044703,353668.5,8037,NTS,B,20
1,20,test,1,B,triangle.png,1,z,Thu Apr 03 2025 18:13:25 GMT-0500 (Central Daylight Time),357813.6000000015,1400,I,z,612,9,1,2028.7999999970198,355784.80000000447,8037,NTS,B,21
3,21,test,1,B,triangle.png,1,z,Thu Apr 03 2025 18:13:25 GMT-0500 (Central Daylight Time),360879.30000000447,2000,I,z,1035,11,1,3062.10000000149,357817.200000003,8037,NTS,B,22
2,22,test,1,B,triangle.png,1,m,Thu Apr 03 2025 18:13:25 GMT-0500 (Central Daylight Time),363161.80000000447,1700,I,m,550,2,1,2279.10000000149,360882.700000003,8037,NTS,B,23
2,23,test,1,B,triangle.png,1,m,Thu Apr 03 2025 18:13:25 GMT-0500 (Central Daylight Time),364961.3999999985,1200,I,m,583,10,1,1796.0,363165.3999999985,8037,NTS,B,24
8,0,prac,1,C,triangle.png,0,m,Thu Apr 03 2025 18:13:25 GMT-0500 (Central Daylight Time),414495.80000000447,1400,I,None,1516,7,1,3694.4000000059605,410801.3999999985,8037,NTS,B,1
2,0,prac,1,C,triangle.png,0,m,Thu Apr 03 2025 18:13:25 GMT-0500 (Central Daylight Time),418394.3999999985,1600,I,None,1515,2,1,3893.5,414500.8999999985,8037,NTS,B,2
2,0,prac,1,C,triangle.png,0,m,Thu Apr 03 2025 18:13:25 GMT-0500 (Central Daylight Time),421710.1000000015,1600,I,z,918,2,1,3310.89999999851,418399.200000003,8037,NTS,B,3
4,0,prac,1,C,circle.png,0,z,Thu Apr 03 2025 18:13:25 GMT-0500 (Central Daylight Time),425009.0,1000,I,None,1515,4,1,3293.1999999955297,421715.80000000447,8037,NTS,B,4
1,1,prac,1,C,circle.png,1,z,Thu Apr 03 2025 18:13:25 GMT-0500 (Central Daylight Time),428241.5,1700,I,z,739,1,1,3226.89999999851,425014.6000000015,8037,NTS,B,5
6,2,prac,1,C,circle.png,1,m,Thu Apr 03 2025 18:13:25 GMT-0500 (Central Daylight Time),431973.8999999985,2000,I,m,934,5,1,3727.6999999955297,428246.200000003,8037,NTS,B,6
3,3,prac,1,C,triangle.png,1,z,Thu Apr 03 2025 18:13:25 GMT-0500 (Central Daylight Time),435522.5,1500,I,z,1255,3,1,3543.39999999851,431979.1000000015,8037,NTS,B,7
9,4,prac,1,C,circle.png,1,m,Thu Apr 03 2025 18:13:25 GMT-0500 (Central Daylight Time),439221.5,1900,I,m,1002,8,1,3694.39999999851,435527.1000000015,8037,NTS,B,8
4,5,prac,1,C,circle.png,1,z,Thu Apr 03 2025 18:13:25 GMT-0500 (Central Daylight Time),442087.3999999985,1000,I,z,1067,4,1,2861.1999999955297,439226.200000003,8037,NTS,B,9
7,6,prac,1,C,triangle.png,1,z,Thu Apr 03 2025 18:13:25 GMT-0500 (Central Daylight Time),445386.1000000015,1200,I,z,1305,6,1,3293.89999999851,442092.200000003,8037,NTS,B,10
8,7,prac,1,C,triangle.png,1,m,Thu Apr 03 2025 18:13:25 GMT-0500 (Central Daylight Time),448368.6000000015,1400,I,m,790,7,1,2977.89999999851,445390.700000003,8037,NTS,B,11
1,8,prac,1,C,circle.png,1,z,Thu Apr 03 2025 18:13:25 GMT-0500 (Central Daylight Time),452034.1000000015,1700,I,z,1180,1,1,3660.7999999970198,448373.30000000447,8037,NTS,B,12
6,0,test,1,C,triangle.png,0,m,Thu Apr 03 2025 18:13:25 GMT-0500 (Central Daylight Time),470511.6000000015,1000,I,None,1515,13,1,2529.10000000149,467982.5,8037,NTS,B,1
1,1,test,1,C,circle.png,1,z,Thu Apr 03 2025 18:13:25 GMT-0500 (Central Daylight Time),472210.8999999985,1000,I,z,673,1,1,1695.0,470515.8999999985,8037,NTS,B,2
2,2,test,1,C,circle.png,1,z,Thu Apr 03 2025 18:13:25 GMT-0500 (Central Daylight Time),474726.6000000015,1700,I,z,793,18,1,2512.0,472214.6000000015,8037,NTS,B,3
8,3,test,1,C,triangle.png,1,m,Thu Apr 03 2025 18:13:25 GMT-0500 (Central Daylight Time),477292.80000000447,1600,I,m,945,7,1,2562.4000000059605,474730.3999999985,8037,NTS,B,4
7,4,test,1,C,triangle.png,1,z,Thu Apr 03 2025 18:13:25 GMT-0500 (Central Daylight Time),479942.700000003,1700,I,z,920,22,1,2646.3000000044703,477296.3999999985,8037,NTS,B,5
2,5,test,1,C,circle.png,1,z,Thu Apr 03 2025 18:13:25 GMT-0500 (Central Daylight Time),482724.5,1700,I,z,1063,10,1,2777.6999999955297,479946.80000000447,8037,NTS,B,6
3,6,test,1,C,circle.png,1,z,Thu Apr 03 2025 18:13:25 GMT-0500 (Central Daylight Time),485290.200000003,1600,I,z,940,19,1,2562.2000000029802,482728.0,8037,NTS,B,7
7,7,test,1,C,circle.png,1,m,Thu Apr 03 2025 18:13:25 GMT-0500 (Central Daylight Time),488139.3999999985,2000,I,m,822,14,1,2845.0,485294.3999999985,8037,NTS,B,8
3,8,test,1,C,triangle.png,1,z,Thu Apr 03 2025 18:13:25 GMT-0500 (Central Daylight Time),490421.8999999985,1200,I,z,1061,3,1,2278.5,488143.3999999985,8037,NTS,B,9
6,8,test,1,C,circle.png,0,m,Thu Apr 03 2025 18:13:25 GMT-0500 (Central Daylight Time),493854.1000000015,1900,I,None,1515,21,1,3428.2999999970198,490425.80000000447,8037,NTS,B,10
9,9,test,1,C,circle.png,1,m,Thu Apr 03 2025 18:13:25 GMT-0500 (Central Daylight Time),496303.1000000015,1500,I,m,918,8,1,2443.7000000029802,493859.3999999985,8037,NTS,B,11
4,10,test,1,C,triangle.png,1,m,Thu Apr 03 2025 18:13:25 GMT-0500 (Central Daylight Time),499018.8999999985,1500,I,m,1197,20,1,2711.7999999970198,496307.1000000015,8037,NTS,B,12
6,11,test,1,C,circle.png,1,m,Thu Apr 03 2025 18:13:25 GMT-0500 (Central Daylight Time),501901.3999999985,1900,I,m,954,5,1,2878.0999999940395,499023.30000000447,8037,NTS,B,13
2,11,test,1,C,triangle.png,0,m,Thu Apr 03 2025 18:13:25 GMT-0500 (Central Daylight Time),505033.700000003,2000,I,z,1107,2,1,3128.60000000149,501905.1000000015,8037,NTS,B,14
3,12,test,1,C,circle.png,1,z,Thu Apr 03 2025 18:13:25 GMT-0500 (Central Daylight Time),507749.6000000015,1600,I,z,1095,11,1,2710.89999999851,505038.700000003,8037,NTS,B,15
4,12,test,1,C,triangle.png,0,m,Thu Apr 03 2025 18:13:25 GMT-0500 (Central Daylight Time),510482.0,1500,I,z,1207,12,1,2728.2999999970198,507753.700000003,8037,NTS,B,16
9,13,test,1,C,triangle.png,1,z,Thu Apr 03 2025 18:13:25 GMT-0500 (Central Daylight Time),513297.80000000447,1400,I,z,1398,16,1,2811.7000000029802,510486.1000000015,8037,NTS,B,17
7,14,test,1,C,triangle.png,1,z,Thu Apr 03 2025 18:13:25 GMT-0500 (Central Daylight Time),515847.200000003,1700,I,z,819,6,1,2545.39999999851,513301.80000000447,8037,NTS,B,18
8,14,test,1,C,triangle.png,0,m,Thu Apr 03 2025 18:13:25 GMT-0500 (Central Daylight Time),518629.5,1600,I,z,1161,23,1,2778.2999999970198,515851.200000003,8037,NTS,B,19
9,15,test,1,C,circle.png,1,m,Thu Apr 03 2025 18:13:25 GMT-0500 (Central Daylight Time),521428.8999999985,1500,I,m,1278,24,1,2795.39999999851,518633.5,8037,NTS,B,20
1,16,test,1,C,triangle.png,1,z,Thu Apr 03 2025 18:13:25 GMT-0500 (Central Daylight Time),524844.3000000045,1900,I,z,1488,9,1,3411.60000000149,521432.700000003,8037,NTS,B,21
8,17,test,1,C,circle.png,1,m,Thu Apr 03 2025 18:13:25 GMT-0500 (Central Daylight Time),527010.3999999985,1200,I,m,948,15,1,2162.0,524848.3999999985,8037,NTS,B,22
1,18,test,1,C,triangle.png,1,z,Thu Apr 03 2025 18:13:25 GMT-0500 (Central Daylight Time),530209.6000000015,1900,I,z,1274,17,1,3195.5,527014.1000000015,8037,NTS,B,23
4,18,test,1,C,circle.png,0,z,Thu Apr 03 2025 18:13:25 GMT-0500 (Central Daylight Time),532525.3000000045,1400,I,m,886,4,1,2311.5,530213.8000000045,8037,NTS,B,24
6,0,test,2,C,triangle.png,0,m,Thu Apr 03 2025 18:13:25 GMT-0500 (Central Daylight Time),546621.1000000015,1000,I,z,1071,13,1,2096.2000000029802,544524.8999999985,8037,NTS,B,1
8,1,test,2,C,circle.png,1,m,Thu Apr 03 2025 18:13:25 GMT-0500 (Central Daylight Time),548987.8000000045,1200,I,m,1141,15,1,2362.60000000149,546625.200000003,8037,NTS,B,2
7,2,test,2,C,circle.png,1,m,Thu Apr 03 2025 18:13:25 GMT-0500 (Central Daylight Time),552069.200000003,2000,I,m,1054,14,1,3077.39999999851,548991.8000000045,8037,NTS,B,3
2,3,test,2,C,circle.png,1,z,Thu Apr 03 2025 18:13:25 GMT-0500 (Central Daylight Time),554618.3000000045,1700,I,z,823,18,1,2545.3000000044703,552073.0,8037,NTS,B,4
8,3,test,2,C,circle.png,0,m,Thu Apr 03 2025 18:13:25 GMT-0500 (Central Daylight Time),557050.8000000045,1200,I,z,1213,23,1,2428.5,554622.3000000045,8037,NTS,B,5
9,4,test,2,C,triangle.png,1,z,Thu Apr 03 2025 18:13:25 GMT-0500 (Central Daylight Time),559783.5,1400,I,z,1309,16,1,2729.0,557054.5,8037,NTS,B,6
8,5,test,2,C,triangle.png,1,m,Thu Apr 03 2025 18:13:25 GMT-0500 (Central Daylight Time),562283.6000000015,1600,I,m,873,7,1,2496.39999999851,559787.200000003,8037,NTS,B,7
6,6,test,2,C,circle.png,1,m,Thu Apr 03 2025 18:13:25 GMT-0500 (Central Daylight Time),564898.200000003,1900,I,m,697,5,1,2610.2000000029802,562288.0,8037,NTS,B,8
4,7,test,2,C,circle.png,1,z,Thu Apr 03 2025 18:13:25 GMT-0500 (Central Daylight Time),567214.200000003,1400,I,z,894,4,1,2312.39999999851,564901.8000000045,8037,NTS,B,9
6,7,test,2,C,triangle.png,0,m,Thu Apr 03 2025 18:13:25 GMT-0500 (Central Daylight Time),569463.700000003,1000,I,z,1226,21,1,2245.89999999851,567217.8000000045,8037,NTS,B,10
3,7,test,2,C,circle.png,0,z,Thu Apr 03 2025 18:13:25 GMT-0500 (Central Daylight Time),572505.0,1600,I,m,1425,11,1,3037.60000000149,569467.3999999985,8037,NTS,B,11
2,7,test,2,C,circle.png,0,z,Thu Apr 03 2025 18:13:25 GMT-0500 (Central Daylight Time),575728.5,1700,I,None,1515,10,1,3219.39999999851,572509.1000000015,8037,NTS,B,12
1,8,test,2,C,circle.png,1,z,Thu Apr 03 2025 18:13:25 GMT-0500 (Central Daylight Time),577428.1000000015,1000,I,z,680,1,1,1695.8999999985099,575732.200000003,8037,NTS,B,13
3,8,test,2,C,triangle.png,0,z,Thu Apr 03 2025 18:13:25 GMT-0500 (Central Daylight Time),579744.0,1200,I,m,1092,3,1,2311.7999999970198,577432.200000003,8037,NTS,B,14
4,8,test,2,C,triangle.png,0,m,Thu Apr 03 2025 18:13:25 GMT-0500 (Central Daylight Time),582776.5,1500,I,None,1515,12,1,3028.6999999955297,579747.8000000045,8037,NTS,B,15
4,8,test,2,C,triangle.png,0,m,Thu Apr 03 2025 18:13:25 GMT-0500 (Central Daylight Time),585375.3000000045,1500,I,z,1076,20,1,2594.8000000044703,582780.5,8037,NTS,B,16
9,9,test,2,C,circle.png,1,m,Thu Apr 03 2025 18:13:25 GMT-0500 (Central Daylight Time),588258.200000003,1500,I,m,1350,8,1,2878.8000000044703,585379.3999999985,8037,NTS,B,17
1,10,test,2,C,triangle.png,1,z,Thu Apr 03 2025 18:13:25 GMT-0500 (Central Daylight Time),590890.3000000045,1900,I,z,715,9,1,2627.9000000059605,588262.3999999985,8037,NTS,B,18
9,11,test,2,C,triangle.png,1,z,Thu Apr 03 2025 18:13:25 GMT-0500 (Central Daylight Time),593672.8000000045,1400,I,z,1358,24,1,2778.3000000044703,590894.5,8037,NTS,B,19
1,12,test,2,C,triangle.png,1,z,Thu Apr 03 2025 18:13:25 GMT-0500 (Central Daylight Time),596142.6000000015,1900,I,z,548,17,1,2465.2000000029802,593677.3999999985,8037,NTS,B,20
7,13,test,2,C,triangle.png,1,z,Thu Apr 03 2025 18:13:25 GMT-0500 (Central Daylight Time),598722.0,1700,I,z,867,6,1,2575.39999999851,596146.6000000015,8037,NTS,B,21
3,14,test,2,C,circle.png,1,z,Thu Apr 03 2025 18:13:25 GMT-0500 (Central Daylight Time),601703.6000000015,1600,I,z,1360,19,1,2978.2000000029802,598725.3999999985,8037,NTS,B,22
7,15,test,2,C,circle.png,1,m,Thu Apr 03 2025 18:13:25 GMT-0500 (Central Daylight Time),604569.5,2000,I,m,834,22,1,2861.89999999851,601707.6000000015,8037,NTS,B,23
2,16,test,2,C,triangle.png,1,m,Thu Apr 03 2025 18:13:25 GMT-0500 (Central Daylight Time),607951.6000000015,2000,I,m,1351,2,1,3378.2999999970198,604573.3000000045,8037,NTS,B,24
4,1,test,3,C,circle.png,1,z,Thu Apr 03 2025 18:13:25 GMT-0500 (Central Daylight Time),615649.700000003,1400,I,z,1199,20,1,2628.60000000149,613021.1000000015,8037,NTS,B,1
8,1,test,3,C,triangle.png,0,m,Thu Apr 03 2025 18:13:25 GMT-0500 (Central Daylight Time),618631.8000000045,1600,I,z,1351,23,1,2977.60000000149,615654.200000003,8037,NTS,B,2
8,2,test,3,C,triangle.png,1,m,Thu Apr 03 2025 18:13:25 GMT-0500 (Central Daylight Time),621264.200000003,1600,I,m,1000,7,1,2628.8000000044703,618635.3999999985,8037,NTS,B,3
9,3,test,3,C,circle.png,1,m,Thu Apr 03 2025 18:13:25 GMT-0500 (Central Daylight Time),623813.5,1500,I,m,1028,24,1,2545.5,621268.0,8037,NTS,B,4
6,4,test,3,C,circle.png,1,m,Thu Apr 03 2025 18:13:25 GMT-0500 (Central Daylight Time),627112.3000000045,1900,I,m,1375,21,1,3294.9000000059605,623817.3999999985,8037,NTS,B,5
2,5,test,3,C,triangle.png,1,m,Thu Apr 03 2025 18:13:25 GMT-0500 (Central Daylight Time),630461.5,2000,I,m,1328,18,1,3345.39999999851,627116.1000000015,8037,NTS,B,6
3,5,test,3,C,triangle.png,0,z,Thu Apr 03 2025 18:13:25 GMT-0500 (Central Daylight Time),632510.6000000015,1200,I,m,827,19,1,2045.2000000029802,630465.3999999985,8037,NTS,B,7
6,5,test,3,C,triangle.png,0,m,Thu Apr 03 2025 18:13:25 GMT-0500 (Central Daylight Time),634710.1000000015,1000,I,z,1170,13,1,2195.7000000029802,632514.3999999985,8037,NTS,B,8
6,6,test,3,C,circle.png,1,m,Thu Apr 03 2025 18:13:25 GMT-0500 (Central Daylight Time),637542.3999999985,1900,I,m,903,5,1,2828.2999999970198,634714.1000000015,8037,NTS,B,9
9,6,test,3,C,triangle.png,0,z,Thu Apr 03 2025 18:13:25 GMT-0500 (Central Daylight Time),640341.8000000045,1400,I,m,1370,16,1,2795.0,637546.8000000045,8037,NTS,B,10
2,6,test,3,C,triangle.png,0,m,Thu Apr 03 2025 18:13:25 GMT-0500 (Central Daylight Time),643873.8999999985,2000,I,None,1515,2,1,3528.2999999970198,640345.6000000015,8037,NTS,B,11
7,7,test,3,C,triangle.png,1,z,Thu Apr 03 2025 18:13:25 GMT-0500 (Central Daylight Time),646572.8999999985,1700,I,z,971,22,1,2695.0999999940395,643877.8000000045,8037,NTS,B,12
2,8,test,3,C,circle.png,1,z,Thu Apr 03 2025 18:13:25 GMT-0500 (Central Daylight Time),649305.5,1700,I,z,1001,10,1,2728.60000000149,646576.8999999985,8037,NTS,B,13
1,8,test,3,C,triangle.png,0,z,Thu Apr 03 2025 18:13:25 GMT-0500 (Central Daylight Time),652587.3999999985,1900,I,m,1355,9,1,3278.1999999955297,649309.200000003,8037,NTS,B,14
7,9,test,3,C,triangle.png,1,z,Thu Apr 03 2025 18:13:25 GMT-0500 (Central Daylight Time),655586.8999999985,1700,I,z,1273,6,1,2995.39999999851,652591.5,8037,NTS,B,15
3,10,test,3,C,triangle.png,1,z,Thu Apr 03 2025 18:13:25 GMT-0500 (Central Daylight Time),657752.700000003,1200,I,z,941,3,1,2161.7000000029802,655591.0,8037,NTS,B,16
9,11,test,3,C,circle.png,1,m,Thu Apr 03 2025 18:13:25 GMT-0500 (Central Daylight Time),660168.700000003,1500,I,m,883,8,1,2412.2000000029802,657756.5,8037,NTS,B,17
1,12,test,3,C,circle.png,1,z,Thu Apr 03 2025 18:13:25 GMT-0500 (Central Daylight Time),662334.700000003,1000,I,z,1135,17,1,2162.10000000149,660172.6000000015,8037,NTS,B,18
7,13,test,3,C,circle.png,1,m,Thu Apr 03 2025 18:13:25 GMT-0500 (Central Daylight Time),665050.8000000045,2000,I,m,690,14,1,2712.2000000029802,662338.6000000015,8037,NTS,B,19
3,14,test,3,C,circle.png,1,z,Thu Apr 03 2025 18:13:25 GMT-0500 (Central Daylight Time),667666.1000000015,1600,I,z,921,11,1,2611.5,665054.6000000015,8037,NTS,B,20
8,15,test,3,C,circle.png,1,m,Thu Apr 03 2025 18:13:25 GMT-0500 (Central Daylight Time),670015.6000000015,1200,I,m,1118,15,1,2344.89999999851,667670.700000003,8037,NTS,B,21
4,15,test,3,C,triangle.png,0,m,Thu Apr 03 2025 18:13:25 GMT-0500 (Central Daylight Time),673048.0,1500,I,None,1516,12,1,3027.89999999851,670020.1000000015,8037,NTS,B,22
4,15,test,3,C,circle.png,0,z,Thu Apr 03 2025 18:13:25 GMT-0500 (Central Daylight Time),675097.3999999985,1400,I,m,624,4,1,2045.2999999970198,673052.1000000015,8037,NTS,B,23
1,16,test,3,C,circle.png,1,z,Thu Apr 03 2025 18:13:25 GMT-0500 (Central Daylight Time),676996.6000000015,1000,I,z,880,1,1,1895.3999999985099,675101.200000003,8037,NTS,B,24
6,0,test,4,C,triangle.png,0,m,Thu Apr 03 2025 18:13:25 GMT-0500 (Central Daylight Time),685577.5,1000,I,None,1515,13,1,2529.60000000149,683047.8999999985,8037,NTS,B,1
3,1,test,4,C,triangle.png,1,z,Thu Apr 03 2025 18:13:25 GMT-0500 (Central Daylight Time),687993.3999999985,1200,I,z,1182,3,1,2410.39999999851,685583.0,8037,NTS,B,2
4,2,test,4,C,circle.png,1,z,Thu Apr 03 2025 18:13:25 GMT-0500 (Central Daylight Time),690709.1000000015,1400,I,z,1287,20,1,2711.7999999970198,687997.3000000045,8037,NTS,B,3
8,3,test,4,C,triangle.png,1,m,Thu Apr 03 2025 18:13:25 GMT-0500 (Central Daylight Time),693224.8999999985,1600,I,m,883,7,1,2512.0,690712.8999999985,8037,NTS,B,4
9,4,test,4,C,circle.png,1,m,Thu Apr 03 2025 18:13:25 GMT-0500 (Central Daylight Time),695591.1000000015,1500,I,m,834,24,1,2362.2000000029802,693228.8999999985,8037,NTS,B,5
6,4,test,4,C,circle.png,0,m,Thu Apr 03 2025 18:13:25 GMT-0500 (Central Daylight Time),699023.200000003,1900,I,None,1515,5,1,3427.89999999851,695595.3000000045,8037,NTS,B,6
7,5,test,4,C,triangle.png,1,z,Thu Apr 03 2025 18:13:25 GMT-0500 (Central Daylight Time),701539.200000003,1700,I,z,797,22,1,2512.3000000044703,699026.8999999985,8037,NTS,B,7
3,6,test,4,C,triangle.png,1,z,Thu Apr 03 2025 18:13:25 GMT-0500 (Central Daylight Time),703605.1000000015,1200,I,z,845,19,1,2062.2000000029802,701542.8999999985,8037,NTS,B,8
6,7,test,4,C,circle.png,1,m,Thu Apr 03 2025 18:13:25 GMT-0500 (Central Daylight Time),706520.8000000045,1900,I,m,983,21,1,2912.0,703608.8000000045,8037,NTS,B,9
2,8,test,4,C,triangle.png,1,m,Thu Apr 03 2025 18:13:25 GMT-0500 (Central Daylight Time),709819.8999999985,2000,I,m,1271,18,1,3295.5,706524.3999999985,8037,NTS,B,10
9,9,test,4,C,circle.png,1,m,Thu Apr 03 2025 18:13:25 GMT-0500 (Central Daylight Time),712369.1000000015,1500,I,m,1017,8,1,2545.5,709823.6000000015,8037,NTS,B,11
8,10,test,4,C,circle.png,1,m,Thu Apr 03 2025 18:13:25 GMT-0500 (Central Daylight Time),714335.0,1200,I,m,629,15,1,1960.6999999955297,712374.3000000045,8037,NTS,B,12
2,10,test,4,C,circle.png,0,z,Thu Apr 03 2025 18:13:25 GMT-0500 (Central Daylight Time),716817.5,1700,I,m,750,10,1,2478.5,714339.0,8037,NTS,B,13
4,11,test,4,C,triangle.png,1,m,Thu Apr 03 2025 18:13:25 GMT-0500 (Central Daylight Time),719533.5,1500,I,m,1195,12,1,2711.5,716822.0,8037,NTS,B,14
7,12,test,4,C,triangle.png,1,z,Thu Apr 03 2025 18:13:25 GMT-0500 (Central Daylight Time),722665.8999999985,1700,I,z,1416,6,1,3128.5999999940395,719537.3000000045,8037,NTS,B,15
1,13,test,4,C,circle.png,1,z,Thu Apr 03 2025 18:13:25 GMT-0500 (Central Daylight Time),724565.3000000045,1000,I,z,878,1,1,1895.6000000014901,722669.700000003,8037,NTS,B,16
1,14,test,4,C,triangle.png,1,z,Thu Apr 03 2025 18:13:25 GMT-0500 (Central Daylight Time),727564.200000003,1900,I,z,1071,9,1,2995.2000000029802,724569.0,8037,NTS,B,17
8,14,test,4,C,triangle.png,0,m,Thu Apr 03 2025 18:13:25 GMT-0500 (Central Daylight Time),730463.3000000045,1600,I,z,1268,23,1,2895.3000000044703,727568.0,8037,NTS,B,18
3,14,test,4,C,circle.png,0,z,Thu Apr 03 2025 18:13:25 GMT-0500 (Central Daylight Time),733129.3000000045,1600,I,m,1041,11,1,2662.2000000029802,730467.1000000015,8037,NTS,B,19
2,15,test,4,C,triangle.png,1,m,Thu Apr 03 2025 18:13:25 GMT-0500 (Central Daylight Time),736478.200000003,2000,I,m,1328,2,1,3345.39999999851,733132.8000000045,8037,NTS,B,20
4,16,test,4,C,circle.png,1,z,Thu Apr 03 2025 18:13:25 GMT-0500 (Central Daylight Time),739010.700000003,1400,I,z,1114,4,1,2528.7000000029802,736482.0,8037,NTS,B,21
9,16,test,4,C,triangle.png,0,z,Thu Apr 03 2025 18:13:25 GMT-0500 (Central Daylight Time),741693.200000003,1400,I,m,1254,16,1,2678.8000000044703,739014.3999999985,8037,NTS,B,22
1,17,test,4,C,circle.png,1,z,Thu Apr 03 2025 18:13:25 GMT-0500 (Central Daylight Time),743975.700000003,1000,I,z,1251,17,1,2278.3000000044703,741697.3999999985,8037,NTS,B,23
7,18,test,4,C,circle.png,1,m,Thu Apr 03 2025 18:13:25 GMT-0500 (Central Daylight Time),747008.5,2000,I,m,1002,14,1,3028.89999999851,743979.6000000015,8037,NTS,B,24
