acc_sum,block,block_c,block_cond,con_img,correct,correct_response,datetime,endtime,face,jitter,line,project,response,response_time,row_sel,session_number,start_end,starttime,subject_id,task,task_vers,trial
1,prac,1,A,haborder.png,1,z,Wed Mar 26 2025 09:43:42 GMT-0500 (Central Daylight Time),59374.89999997616,CFD-WF-013-015-A.jpg,1000,solid,O,z,1435,12,1,3234.0,56140.89999997616,7094,ATS,B,1
2,prac,1,A,haborder.png,1,m,Wed Mar 26 2025 09:43:42 GMT-0500 (Central Daylight Time),62356.10000002384,CFD-WM-011-006-HC.jpg,1400,solid,O,m,787,7,1,6215.200000047684,56140.89999997616,7094,ATS,B,2
3,prac,1,A,haborder.png,1,m,Wed Mar 26 2025 09:43:42 GMT-0500 (Central Daylight Time),65706.19999992847,CFD-BM-020-024-HC.jpg,1500,solid,O,m,1062,3,1,9565.299999952316,56140.89999997616,7094,ATS,B,3
3,prac,1,A,haborder.png,0,m,Wed Mar 26 2025 09:43:42 GMT-0500 (Central Daylight Time),70004.0,CFD-BF-035-007-HC.jpg,2000,solid,O,None,1513,5,1,13863.100000023842,56140.89999997616,7094,ATS,B,4
4,prac,1,A,haborder.png,1,z,Wed Mar 26 2025 09:43:42 GMT-0500 (Central Daylight Time),73453.19999992847,CFD-WM-009-009-A.jpg,1900,solid,O,z,745,8,1,17312.299999952316,56140.89999997616,7094,ATS,B,5
5,prac,1,A,haborder.png,1,z,Wed Mar 26 2025 09:43:42 GMT-0500 (Central Daylight Time),76718.60000002384,CFD-BM-037-041-A.jpg,1600,solid,O,z,859,2,1,20577.700000047684,56140.89999997616,7094,ATS,B,6
6,prac,1,A,haborder.png,1,z,Wed Mar 26 2025 09:43:42 GMT-0500 (Central Daylight Time),79617.69999992847,CFD-BF-050-012-A.jpg,1200,solid,O,z,906,6,1,23476.799999952316,56140.89999997616,7094,ATS,B,7
7,prac,1,A,haborder.png,1,m,Wed Mar 26 2025 09:43:42 GMT-0500 (Central Daylight Time),83167.79999995232,CFD-WM-012-007-HC.jpg,1700,solid,O,m,1059,9,1,27026.899999976158,56140.89999997616,7094,ATS,B,8
8,prac,1,A,haborder.png,1,z,Wed Mar 26 2025 09:43:42 GMT-0500 (Central Daylight Time),85717.10000002384,CFD-BF-051-043-A.jpg,1000,solid,O,z,757,4,1,29576.200000047684,56140.89999997616,7094,ATS,B,9
9,prac,1,A,haborder.png,1,z,Wed Mar 26 2025 09:43:42 GMT-0500 (Central Daylight Time),88848.89999997616,CFD-WF-026-008-A.jpg,1600,solid,O,z,759,10,1,32708.0,56140.89999997616,7094,ATS,B,10
10,prac,1,A,haborder.png,1,m,Wed Mar 26 2025 09:43:42 GMT-0500 (Central Daylight Time),92265.0,CFD-BM-015-017-HC.jpg,1700,solid,O,m,926,1,1,36124.10000002384,56140.89999997616,7094,ATS,B,11
11,prac,1,A,haborder.png,1,m,Wed Mar 26 2025 09:43:42 GMT-0500 (Central Daylight Time),95545.89999997616,CFD-WF-011-006-HC.jpg,1500,solid,O,m,989,11,1,39405.0,56140.89999997616,7094,ATS,B,12
1,prac,1,B,mfborder.png,1,m,Wed Mar 26 2025 09:43:42 GMT-0500 (Central Daylight Time),125035.39999997616,CFD-WM-037-060-A.jpg,1200,dash,O,m,1345,6,1,3330.2999999523163,121705.10000002384,7094,ATS,B,1
2,prac,1,B,mfborder.png,1,m,Wed Mar 26 2025 09:43:42 GMT-0500 (Central Daylight Time),128052.29999995232,CFD-BM-041-048-A.jpg,1600,dash,O,m,632,2,1,6347.199999928474,121705.10000002384,7094,ATS,B,2
3,prac,1,B,mfborder.png,1,m,Wed Mar 26 2025 09:43:42 GMT-0500 (Central Daylight Time),131718.69999992847,CFD-BM-020-024-HC.jpg,1700,dash,O,m,1177,1,1,10013.599999904633,121705.10000002384,7094,ATS,B,3
4,prac,1,B,mfborder.png,1,z,Wed Mar 26 2025 09:43:42 GMT-0500 (Central Daylight Time),135067.79999995232,CFD-BF-035-007-HC.jpg,1400,dash,O,z,1156,7,1,13362.699999928474,121705.10000002384,7094,ATS,B,4
5,prac,1,B,mfborder.png,1,z,Wed Mar 26 2025 09:43:42 GMT-0500 (Central Daylight Time),137531.89999997616,CFD-WF-011-006-HC.jpg,1000,dash,O,z,676,12,1,15826.799999952316,121705.10000002384,7094,ATS,B,5
6,prac,1,B,mfborder.png,1,m,Wed Mar 26 2025 09:43:42 GMT-0500 (Central Daylight Time),140716.5,CFD-WM-009-009-A.jpg,1700,dash,O,m,689,9,1,19011.399999976158,121705.10000002384,7094,ATS,B,6
7,prac,1,B,mfborder.png,1,z,Wed Mar 26 2025 09:43:42 GMT-0500 (Central Daylight Time),143698.0,CFD-BF-051-043-A.jpg,1000,dash,O,z,1199,4,1,21992.899999976158,121705.10000002384,7094,ATS,B,7
8,prac,1,B,mfborder.png,1,z,Wed Mar 26 2025 09:43:42 GMT-0500 (Central Daylight Time),147246.89999997616,CFD-WF-027-007-HC.jpg,1900,dash,O,z,844,8,1,25541.799999952316,121705.10000002384,7094,ATS,B,8
9,prac,1,B,mfborder.png,1,z,Wed Mar 26 2025 09:43:42 GMT-0500 (Central Daylight Time),150795.89999997616,CFD-WF-026-008-A.jpg,1500,dash,O,z,1266,11,1,29090.799999952316,121705.10000002384,7094,ATS,B,9
10,prac,1,B,mfborder.png,1,z,Wed Mar 26 2025 09:43:42 GMT-0500 (Central Daylight Time),154043.79999995232,CFD-BF-027-013-HC.jpg,1500,dash,O,z,955,3,1,32338.699999928474,121705.10000002384,7094,ATS,B,10
11,prac,1,B,mfborder.png,1,m,Wed Mar 26 2025 09:43:42 GMT-0500 (Central Daylight Time),157827.10000002384,CFD-BM-037-041-A.jpg,2000,dash,O,m,999,5,1,36122.0,121705.10000002384,7094,ATS,B,11
12,prac,1,B,mfborder.png,1,m,Wed Mar 26 2025 09:43:42 GMT-0500 (Central Daylight Time),160891.89999997616,CFD-WM-012-007-HC.jpg,1600,dash,O,m,680,10,1,39186.799999952316,121705.10000002384,7094,ATS,B,12
0,test,1,A,haborder.png,0,m,Wed Mar 26 2025 09:43:42 GMT-0500 (Central Daylight Time),182002.39999997616,CFD-BF-035-007-HC.jpg,2000,solid,O,z,1135,5,1,3166.0,178836.39999997616,7094,ATS,B,1
1,test,1,A,haborder.png,1,m,Wed Mar 26 2025 09:43:42 GMT-0500 (Central Daylight Time),184835.29999995232,CFD-BM-015-017-HC.jpg,1700,solid,O,m,1107,1,1,5998.899999976158,178836.39999997616,7094,ATS,B,2
2,test,1,A,haborder.png,1,m,Wed Mar 26 2025 09:43:42 GMT-0500 (Central Daylight Time),187218.89999997616,CFD-BM-020-024-HC.jpg,1500,solid,O,m,867,3,1,8382.5,178836.39999997616,7094,ATS,B,3
3,test,1,A,haborder.png,1,z,Wed Mar 26 2025 09:43:42 GMT-0500 (Central Daylight Time),188983.19999992847,CFD-WF-013-015-A.jpg,1000,solid,O,z,730,12,1,10146.799999952316,178836.39999997616,7094,ATS,B,4
4,test,1,A,haborder.png,1,z,Wed Mar 26 2025 09:43:42 GMT-0500 (Central Daylight Time),191900.29999995232,CFD-WM-009-009-A.jpg,1900,solid,O,z,989,8,1,13063.899999976158,178836.39999997616,7094,ATS,B,5
5,test,1,A,haborder.png,1,m,Wed Mar 26 2025 09:43:42 GMT-0500 (Central Daylight Time),194032.39999997616,CFD-WM-011-006-HC.jpg,1400,solid,O,m,711,7,1,15196.0,178836.39999997616,7094,ATS,B,6
6,test,1,A,haborder.png,1,m,Wed Mar 26 2025 09:43:42 GMT-0500 (Central Daylight Time),196581.0,CFD-BM-015-017-HC.jpg,1700,solid,O,m,830,1,1,17744.600000023842,178836.39999997616,7094,ATS,B,7
7,test,1,A,haborder.png,1,z,Wed Mar 26 2025 09:43:42 GMT-0500 (Central Daylight Time),199013.5,CFD-WF-026-008-A.jpg,1600,solid,O,z,815,10,1,20177.100000023842,178836.39999997616,7094,ATS,B,8
8,test,1,A,haborder.png,1,m,Wed Mar 26 2025 09:43:42 GMT-0500 (Central Daylight Time),201229.19999992847,CFD-WM-011-006-HC.jpg,1400,solid,O,m,797,7,1,22392.799999952316,178836.39999997616,7094,ATS,B,9
9,test,1,A,haborder.png,1,m,Wed Mar 26 2025 09:43:42 GMT-0500 (Central Daylight Time),203528.10000002384,CFD-WF-011-006-HC.jpg,1500,solid,O,m,768,11,1,24691.700000047684,178836.39999997616,7094,ATS,B,10
10,test,1,A,haborder.png,1,m,Wed Mar 26 2025 09:43:42 GMT-0500 (Central Daylight Time),205993.89999997616,CFD-WM-012-007-HC.jpg,1700,solid,O,m,731,9,1,27157.5,178836.39999997616,7094,ATS,B,11
11,test,1,A,haborder.png,1,z,Wed Mar 26 2025 09:43:42 GMT-0500 (Central Daylight Time),207794.79999995232,CFD-WF-013-015-A.jpg,1000,solid,O,z,781,12,1,28958.399999976158,178836.39999997616,7094,ATS,B,12
12,test,1,A,haborder.png,1,z,Wed Mar 26 2025 09:43:42 GMT-0500 (Central Daylight Time),209793.10000002384,CFD-BF-051-043-A.jpg,1000,solid,O,z,972,4,1,30956.700000047684,178836.39999997616,7094,ATS,B,13
13,test,1,A,haborder.png,1,z,Wed Mar 26 2025 09:43:42 GMT-0500 (Central Daylight Time),211975.39999997616,CFD-BF-050-012-A.jpg,1200,solid,O,z,951,6,1,33139.0,178836.39999997616,7094,ATS,B,14
14,test,1,A,haborder.png,1,m,Wed Mar 26 2025 09:43:42 GMT-0500 (Central Daylight Time),215243.79999995232,CFD-BF-035-007-HC.jpg,2000,solid,O,m,1251,5,1,36407.39999997616,178836.39999997616,7094,ATS,B,15
15,test,1,A,haborder.png,1,z,Wed Mar 26 2025 09:43:42 GMT-0500 (Central Daylight Time),217990.19999992847,CFD-WM-009-009-A.jpg,1900,solid,O,z,829,8,1,39153.799999952316,178836.39999997616,7094,ATS,B,16
16,test,1,A,haborder.png,1,z,Wed Mar 26 2025 09:43:42 GMT-0500 (Central Daylight Time),220189.39999997616,CFD-BF-051-043-A.jpg,1000,solid,O,z,1170,4,1,41353.0,178836.39999997616,7094,ATS,B,17
17,test,1,A,haborder.png,1,m,Wed Mar 26 2025 09:43:42 GMT-0500 (Central Daylight Time),222439.39999997616,CFD-WF-011-006-HC.jpg,1500,solid,O,m,718,11,1,43603.0,178836.39999997616,7094,ATS,B,18
18,test,1,A,haborder.png,1,z,Wed Mar 26 2025 09:43:42 GMT-0500 (Central Daylight Time),224954.79999995232,CFD-WF-026-008-A.jpg,1600,solid,O,z,890,10,1,46118.39999997616,178836.39999997616,7094,ATS,B,19
19,test,1,A,haborder.png,1,m,Wed Mar 26 2025 09:43:42 GMT-0500 (Central Daylight Time),227519.89999997616,CFD-WM-012-007-HC.jpg,1700,solid,O,m,842,9,1,48683.5,178836.39999997616,7094,ATS,B,20
20,test,1,A,haborder.png,1,m,Wed Mar 26 2025 09:43:42 GMT-0500 (Central Daylight Time),230020.39999997616,CFD-BM-020-024-HC.jpg,1500,solid,O,m,973,3,1,51184.0,178836.39999997616,7094,ATS,B,21
21,test,1,A,haborder.png,1,z,Wed Mar 26 2025 09:43:42 GMT-0500 (Central Daylight Time),232718.39999997616,CFD-BM-037-041-A.jpg,1600,solid,O,z,1069,2,1,53882.0,178836.39999997616,7094,ATS,B,22
22,test,1,A,haborder.png,1,z,Wed Mar 26 2025 09:43:42 GMT-0500 (Central Daylight Time),235051.79999995232,CFD-BM-037-041-A.jpg,1600,solid,O,z,706,2,1,56215.39999997616,178836.39999997616,7094,ATS,B,23
23,test,1,A,haborder.png,1,z,Wed Mar 26 2025 09:43:42 GMT-0500 (Central Daylight Time),237017.19999992847,CFD-BF-050-012-A.jpg,1200,solid,O,z,742,6,1,58180.799999952316,178836.39999997616,7094,ATS,B,24
1,test,1,B,mfborder.png,1,z,Wed Mar 26 2025 09:43:42 GMT-0500 (Central Daylight Time),247197.69999992847,CFD-BF-051-043-A.jpg,1000,dash,O,z,890,4,1,1914.6999999284744,245283.0,7094,ATS,B,1
2,test,1,B,mfborder.png,1,m,Wed Mar 26 2025 09:43:42 GMT-0500 (Central Daylight Time),249546.69999992847,CFD-WM-012-007-HC.jpg,1600,dash,O,m,724,10,1,4263.699999928474,245283.0,7094,ATS,B,2
3,test,1,B,mfborder.png,1,m,Wed Mar 26 2025 09:43:42 GMT-0500 (Central Daylight Time),252913.5,CFD-BM-037-041-A.jpg,2000,dash,O,m,1334,5,1,7630.5,245283.0,7094,ATS,B,3
4,test,1,B,mfborder.png,1,z,Wed Mar 26 2025 09:43:42 GMT-0500 (Central Daylight Time),255678.10000002384,CFD-WF-027-007-HC.jpg,1900,dash,O,z,838,8,1,10395.100000023842,245283.0,7094,ATS,B,4
5,test,1,B,mfborder.png,1,z,Wed Mar 26 2025 09:43:42 GMT-0500 (Central Daylight Time),257528.19999992847,CFD-WF-011-006-HC.jpg,1000,dash,O,z,811,12,1,12245.199999928474,245283.0,7094,ATS,B,5
6,test,1,B,mfborder.png,1,m,Wed Mar 26 2025 09:43:42 GMT-0500 (Central Daylight Time),260260.10000002384,CFD-WM-012-007-HC.jpg,1600,dash,O,m,1106,10,1,14977.100000023842,245283.0,7094,ATS,B,6
7,test,1,B,mfborder.png,1,m,Wed Mar 26 2025 09:43:42 GMT-0500 (Central Daylight Time),262842.6999999285,CFD-BM-020-024-HC.jpg,1700,dash,O,m,849,1,1,17559.699999928474,245283.0,7094,ATS,B,7
8,test,1,B,mfborder.png,1,m,Wed Mar 26 2025 09:43:42 GMT-0500 (Central Daylight Time),265242.60000002384,CFD-BM-041-048-A.jpg,1600,dash,O,m,775,2,1,19959.600000023842,245283.0,7094,ATS,B,8
9,test,1,B,mfborder.png,1,z,Wed Mar 26 2025 09:43:42 GMT-0500 (Central Daylight Time),267540.0,CFD-BF-027-013-HC.jpg,1500,dash,O,z,770,3,1,22257.0,245283.0,7094,ATS,B,9
10,test,1,B,mfborder.png,1,m,Wed Mar 26 2025 09:43:42 GMT-0500 (Central Daylight Time),270107.6999999285,CFD-WM-009-009-A.jpg,1700,dash,O,m,841,9,1,24824.699999928474,245283.0,7094,ATS,B,10
11,test,1,B,mfborder.png,1,m,Wed Mar 26 2025 09:43:42 GMT-0500 (Central Daylight Time),273205.0,CFD-BM-041-048-A.jpg,1600,dash,O,m,1478,2,1,27922.0,245283.0,7094,ATS,B,11
12,test,1,B,mfborder.png,1,m,Wed Mar 26 2025 09:43:42 GMT-0500 (Central Daylight Time),275172.7999999523,CFD-WM-037-060-A.jpg,1200,dash,O,m,748,6,1,29889.799999952316,245283.0,7094,ATS,B,12
13,test,1,B,mfborder.png,1,z,Wed Mar 26 2025 09:43:42 GMT-0500 (Central Daylight Time),277187.89999997616,CFD-BF-051-043-A.jpg,1000,dash,O,z,989,4,1,31904.899999976158,245283.0,7094,ATS,B,13
14,test,1,B,mfborder.png,1,z,Wed Mar 26 2025 09:43:42 GMT-0500 (Central Daylight Time),279457.39999997616,CFD-WF-026-008-A.jpg,1500,dash,O,z,736,11,1,34174.39999997616,245283.0,7094,ATS,B,14
15,test,1,B,mfborder.png,1,m,Wed Mar 26 2025 09:43:42 GMT-0500 (Central Daylight Time),282355.1999999285,CFD-WM-009-009-A.jpg,1700,dash,O,m,1184,9,1,37072.199999928474,245283.0,7094,ATS,B,15
16,test,1,B,mfborder.png,1,m,Wed Mar 26 2025 09:43:42 GMT-0500 (Central Daylight Time),285302.5,CFD-BM-037-041-A.jpg,2000,dash,O,m,920,5,1,40019.5,245283.0,7094,ATS,B,16
16,test,1,B,mfborder.png,0,z,Wed Mar 26 2025 09:43:42 GMT-0500 (Central Daylight Time),288335.2999999523,CFD-BF-027-013-HC.jpg,1500,dash,O,None,1514,3,1,43052.299999952316,245283.0,7094,ATS,B,17
17,test,1,B,mfborder.png,1,m,Wed Mar 26 2025 09:43:42 GMT-0500 (Central Daylight Time),290767.60000002384,CFD-BM-020-024-HC.jpg,1700,dash,O,m,700,1,1,45484.60000002384,245283.0,7094,ATS,B,18
18,test,1,B,mfborder.png,1,z,Wed Mar 26 2025 09:43:42 GMT-0500 (Central Daylight Time),292566.10000002384,CFD-WF-011-006-HC.jpg,1000,dash,O,z,770,12,1,47283.10000002384,245283.0,7094,ATS,B,19
19,test,1,B,mfborder.png,1,z,Wed Mar 26 2025 09:43:42 GMT-0500 (Central Daylight Time),295181.6999999285,CFD-WF-027-007-HC.jpg,1900,dash,O,z,685,8,1,49898.699999928474,245283.0,7094,ATS,B,20
20,test,1,B,mfborder.png,1,z,Wed Mar 26 2025 09:43:42 GMT-0500 (Central Daylight Time),297317.0,CFD-BF-035-007-HC.jpg,1400,dash,O,z,715,7,1,52034.0,245283.0,7094,ATS,B,21
21,test,1,B,mfborder.png,1,m,Wed Mar 26 2025 09:43:42 GMT-0500 (Central Daylight Time),299381.10000002384,CFD-WM-037-060-A.jpg,1200,dash,O,m,837,6,1,54098.10000002384,245283.0,7094,ATS,B,22
22,test,1,B,mfborder.png,1,z,Wed Mar 26 2025 09:43:42 GMT-0500 (Central Daylight Time),302114.6999999285,CFD-BF-035-007-HC.jpg,1400,dash,O,z,1301,7,1,56831.699999928474,245283.0,7094,ATS,B,23
23,test,1,B,mfborder.png,1,z,Wed Mar 26 2025 09:43:42 GMT-0500 (Central Daylight Time),304395.10000002384,CFD-WF-026-008-A.jpg,1500,dash,O,z,762,11,1,59112.10000002384,245283.0,7094,ATS,B,24
0,7,1,C,haborder.png,0,z,Wed Mar 26 2025 09:43:42 GMT-0500 (Central Daylight Time),328804.6999999285,CFD-BF-051-043-A.jpg,1900,dash,O,None,1513,prac,1,4197.5,324607.1999999285,7094,ATS,B,1
1,11,1,C,haborder.png,1,m,Wed Mar 26 2025 09:43:42 GMT-0500 (Central Daylight Time),331820.7999999523,CFD-WM-011-006-HC.jpg,1000,dash,O,m,1220,prac,1,7213.600000023842,324607.1999999285,7094,ATS,B,2
2,5,1,C,mfborder.png,1,m,Wed Mar 26 2025 09:43:42 GMT-0500 (Central Daylight Time),334738.60000002384,CFD-BM-037-041-A.jpg,1200,dash,O,m,926,prac,1,10131.400000095367,324607.1999999285,7094,ATS,B,3
3,12,1,C,haborder.png,1,m,Wed Mar 26 2025 09:43:42 GMT-0500 (Central Daylight Time),337903.5,CFD-WM-011-006-HC.jpg,1400,solid,O,m,960,prac,1,13296.300000071526,324607.1999999285,7094,ATS,B,4
4,4,1,C,mfborder.png,1,m,Wed Mar 26 2025 09:43:42 GMT-0500 (Central Daylight Time),342002.1999999285,CFD-BM-015-017-HC.jpg,2000,solid,O,m,1307,prac,1,17395.0,324607.1999999285,7094,ATS,B,5
5,9,1,C,haborder.png,1,z,Wed Mar 26 2025 09:43:42 GMT-0500 (Central Daylight Time),345753.0,CFD-WF-026-008-A.jpg,1600,dash,O,z,1375,prac,1,21145.800000071526,324607.1999999285,7094,ATS,B,6
5,10,1,C,haborder.png,0,m,Wed Mar 26 2025 09:43:42 GMT-0500 (Central Daylight Time),349565.2999999523,CFD-BM-020-024-HC.jpg,1500,solid,O,None,1516,prac,1,24958.100000023842,324607.1999999285,7094,ATS,B,7
5,8,1,C,haborder.png,0,z,Wed Mar 26 2025 09:43:42 GMT-0500 (Central Daylight Time),353564.1999999285,CFD-BF-050-012-A.jpg,1700,solid,O,None,1515,prac,1,28957.0,324607.1999999285,7094,ATS,B,8
5,2,1,C,mfborder.png,0,z,Wed Mar 26 2025 09:43:42 GMT-0500 (Central Daylight Time),357363.89999997616,CFD-WF-013-015-A.jpg,1500,solid,O,None,1515,prac,1,32756.700000047684,324607.1999999285,7094,ATS,B,9
6,1,1,C,mfborder.png,1,z,Wed Mar 26 2025 09:43:42 GMT-0500 (Central Daylight Time),360378.0,CFD-WF-011-006-HC.jpg,1600,dash,O,z,622,prac,1,35770.800000071526,324607.1999999285,7094,ATS,B,10
6,6,1,C,mfborder.png,0,m,Wed Mar 26 2025 09:43:42 GMT-0500 (Central Daylight Time),364362.0,CFD-WM-009-009-A.jpg,1700,solid,O,None,1501,prac,1,39754.800000071526,324607.1999999285,7094,ATS,B,11
7,3,1,C,mfborder.png,1,z,Wed Mar 26 2025 09:43:42 GMT-0500 (Central Daylight Time),366992.2999999523,CFD-BF-035-007-HC.jpg,1000,dash,O,z,840,prac,1,42385.10000002384,324607.1999999285,7094,ATS,B,12
0,6,2,C,mfborder.png,0,m,Wed Mar 26 2025 09:43:42 GMT-0500 (Central Daylight Time),375942.39999997616,CFD-WM-009-009-A.jpg,1700,solid,O,None,1511,prac,1,51335.200000047684,324607.1999999285,7094,ATS,B,1
1,12,2,C,haborder.png,1,m,Wed Mar 26 2025 09:43:42 GMT-0500 (Central Daylight Time),379340.10000002384,CFD-WM-011-006-HC.jpg,1400,solid,O,m,1205,prac,1,54732.90000009537,324607.1999999285,7094,ATS,B,2
2,5,2,C,mfborder.png,1,m,Wed Mar 26 2025 09:43:42 GMT-0500 (Central Daylight Time),382204.89999997616,CFD-BM-037-041-A.jpg,1200,dash,O,m,881,prac,1,57597.700000047684,324607.1999999285,7094,ATS,B,3
2,4,2,C,mfborder.png,0,m,Wed Mar 26 2025 09:43:42 GMT-0500 (Central Daylight Time),386486.6999999285,CFD-BM-015-017-HC.jpg,2000,solid,O,None,1515,prac,1,61879.5,324607.1999999285,7094,ATS,B,4
2,9,2,C,haborder.png,0,z,Wed Mar 26 2025 09:43:42 GMT-0500 (Central Daylight Time),390386.39999997616,CFD-WF-026-008-A.jpg,1600,dash,O,None,1516,prac,1,65779.20000004768,324607.1999999285,7094,ATS,B,5
2,3,2,C,mfborder.png,0,z,Wed Mar 26 2025 09:43:42 GMT-0500 (Central Daylight Time),392968.1999999285,CFD-BF-035-007-HC.jpg,1000,dash,O,m,799,prac,1,68361.0,324607.1999999285,7094,ATS,B,6
3,1,2,C,mfborder.png,1,z,Wed Mar 26 2025 09:43:42 GMT-0500 (Central Daylight Time),396184.39999997616,CFD-WF-011-006-HC.jpg,1600,dash,O,z,825,prac,1,71577.20000004768,324607.1999999285,7094,ATS,B,7
4,11,2,C,haborder.png,1,m,Wed Mar 26 2025 09:43:42 GMT-0500 (Central Daylight Time),398900.60000002384,CFD-WM-011-006-HC.jpg,1000,dash,O,m,944,prac,1,74293.40000009537,324607.1999999285,7094,ATS,B,8
4,10,2,C,haborder.png,0,m,Wed Mar 26 2025 09:43:42 GMT-0500 (Central Daylight Time),402698.39999997616,CFD-BM-020-024-HC.jpg,1500,solid,O,None,1515,prac,1,78091.20000004768,324607.1999999285,7094,ATS,B,9
5,8,2,C,haborder.png,1,z,Wed Mar 26 2025 09:43:42 GMT-0500 (Central Daylight Time),406366.10000002384,CFD-BF-050-012-A.jpg,1700,solid,O,z,1187,prac,1,81758.90000009537,324607.1999999285,7094,ATS,B,10
6,2,2,C,mfborder.png,1,z,Wed Mar 26 2025 09:43:42 GMT-0500 (Central Daylight Time),409645.7999999523,CFD-WF-013-015-A.jpg,1500,solid,O,z,993,prac,1,85038.60000002384,324607.1999999285,7094,ATS,B,11
7,7,2,C,haborder.png,1,z,Wed Mar 26 2025 09:43:42 GMT-0500 (Central Daylight Time),413580.39999997616,CFD-BF-051-043-A.jpg,1900,dash,O,z,1235,prac,1,88973.20000004768,324607.1999999285,7094,ATS,B,12
1,11,3,C,haborder.png,1,m,Wed Mar 26 2025 09:43:42 GMT-0500 (Central Daylight Time),419544.2999999523,CFD-WM-011-006-HC.jpg,1000,dash,O,m,1103,prac,1,94937.10000002384,324607.1999999285,7094,ATS,B,1
1,7,3,C,haborder.png,0,z,Wed Mar 26 2025 09:43:42 GMT-0500 (Central Daylight Time),423759.10000002384,CFD-BF-051-043-A.jpg,1900,dash,O,None,1515,prac,1,99151.90000009537,324607.1999999285,7094,ATS,B,2
2,1,3,C,mfborder.png,1,z,Wed Mar 26 2025 09:43:42 GMT-0500 (Central Daylight Time),427073.2999999523,CFD-WF-011-006-HC.jpg,1600,dash,O,z,923,prac,1,102466.10000002384,324607.1999999285,7094,ATS,B,3
3,8,3,C,haborder.png,1,z,Wed Mar 26 2025 09:43:42 GMT-0500 (Central Daylight Time),431057.6999999285,CFD-BF-050-012-A.jpg,1700,solid,O,z,1483,prac,1,106450.5,324607.1999999285,7094,ATS,B,4
4,5,3,C,mfborder.png,1,m,Wed Mar 26 2025 09:43:42 GMT-0500 (Central Daylight Time),433757.0,CFD-BM-037-041-A.jpg,1200,dash,O,m,696,prac,1,109149.80000007153,324607.1999999285,7094,ATS,B,5
5,9,3,C,haborder.png,1,z,Wed Mar 26 2025 09:43:42 GMT-0500 (Central Daylight Time),437304.6999999285,CFD-WF-026-008-A.jpg,1600,dash,O,z,1166,prac,1,112697.5,324607.1999999285,7094,ATS,B,6
6,6,3,C,mfborder.png,1,m,Wed Mar 26 2025 09:43:42 GMT-0500 (Central Daylight Time),440620.10000002384,CFD-WM-009-009-A.jpg,1700,solid,O,m,829,prac,1,116012.90000009537,324607.1999999285,7094,ATS,B,7
7,4,3,C,mfborder.png,1,m,Wed Mar 26 2025 09:43:42 GMT-0500 (Central Daylight Time),444368.39999997616,CFD-BM-015-017-HC.jpg,2000,solid,O,m,967,prac,1,119761.20000004768,324607.1999999285,7094,ATS,B,8
8,10,3,C,haborder.png,1,m,Wed Mar 26 2025 09:43:42 GMT-0500 (Central Daylight Time),448085.0,CFD-BM-020-024-HC.jpg,1500,solid,O,m,1432,prac,1,123477.80000007153,324607.1999999285,7094,ATS,B,9
9,3,3,C,mfborder.png,1,z,Wed Mar 26 2025 09:43:42 GMT-0500 (Central Daylight Time),450967.0,CFD-BF-035-007-HC.jpg,1000,dash,O,z,1087,prac,1,126359.80000007153,324607.1999999285,7094,ATS,B,10
10,12,3,C,haborder.png,1,m,Wed Mar 26 2025 09:43:42 GMT-0500 (Central Daylight Time),453932.7999999523,CFD-WM-011-006-HC.jpg,1400,solid,O,m,780,prac,1,129325.60000002384,324607.1999999285,7094,ATS,B,11
11,2,3,C,mfborder.png,1,z,Wed Mar 26 2025 09:43:42 GMT-0500 (Central Daylight Time),457115.5,CFD-WF-013-015-A.jpg,1500,solid,O,z,900,prac,1,132508.30000007153,324607.1999999285,7094,ATS,B,12
1,test,1,C,haborder.png,1,z,Wed Mar 26 2025 09:43:42 GMT-0500 (Central Daylight Time),502085.10000002384,CFD-WM-009-009-A.jpg,1400,solid,O,z,1111,7,1,2534.4000000953674,499550.6999999285,7094,ATS,B,1
2,test,1,C,haborder.png,1,z,Wed Mar 26 2025 09:43:42 GMT-0500 (Central Daylight Time),505415.7999999523,CFD-BM-037-041-A.jpg,1900,solid,O,z,1402,8,1,5865.100000023842,499550.6999999285,7094,ATS,B,2
2,test,1,C,haborder.png,0,m,Wed Mar 26 2025 09:43:42 GMT-0500 (Central Daylight Time),508536.89999997616,CFD-BF-035-007-HC.jpg,1600,solid,O,None,1502,10,1,8986.200000047684,499550.6999999285,7094,ATS,B,3
3,test,1,C,haborder.png,1,m,Wed Mar 26 2025 09:43:42 GMT-0500 (Central Daylight Time),510647.39999997616,CFD-WF-011-006-HC.jpg,1000,solid,O,m,1086,12,1,11096.700000047684,499550.6999999285,7094,ATS,B,4
4,test,1,C,haborder.png,1,m,Wed Mar 26 2025 09:43:42 GMT-0500 (Central Daylight Time),513297.2999999523,CFD-WF-027-007-HC.jpg,1500,solid,O,m,1117,11,1,13746.600000023842,499550.6999999285,7094,ATS,B,5
5,test,1,C,mfborder.png,1,z,Wed Mar 26 2025 09:43:42 GMT-0500 (Central Daylight Time),515994.7999999523,CFD-BF-027-013-HC.jpg,1700,dash,O,z,979,1,1,16444.100000023842,499550.6999999285,7094,ATS,B,6
6,test,1,C,haborder.png,1,m,Wed Mar 26 2025 09:43:42 GMT-0500 (Central Daylight Time),518044.89999997616,CFD-WF-011-006-HC.jpg,1000,solid,O,m,1024,12,1,18494.200000047684,499550.6999999285,7094,ATS,B,7
7,test,1,C,mfborder.png,1,z,Wed Mar 26 2025 09:43:42 GMT-0500 (Central Daylight Time),521143.39999997616,CFD-BF-051-043-A.jpg,1600,dash,O,z,1475,2,1,21592.700000047684,499550.6999999285,7094,ATS,B,8
8,test,1,C,mfborder.png,1,m,Wed Mar 26 2025 09:43:42 GMT-0500 (Central Daylight Time),523009.39999997616,CFD-WM-012-007-HC.jpg,1000,dash,O,m,832,4,1,23458.700000047684,499550.6999999285,7094,ATS,B,9
9,test,1,C,haborder.png,1,m,Wed Mar 26 2025 09:43:42 GMT-0500 (Central Daylight Time),525659.7999999523,CFD-BF-035-007-HC.jpg,1600,solid,O,m,1031,10,1,26109.100000023842,499550.6999999285,7094,ATS,B,10
10,test,1,C,mfborder.png,1,z,Wed Mar 26 2025 09:43:42 GMT-0500 (Central Daylight Time),528358.8999999762,CFD-BF-027-013-HC.jpg,1700,dash,O,z,978,1,1,28808.200000047684,499550.6999999285,7094,ATS,B,11
11,test,1,C,mfborder.png,1,m,Wed Mar 26 2025 09:43:42 GMT-0500 (Central Daylight Time),530374.1999999285,CFD-WM-012-007-HC.jpg,1000,dash,O,m,986,4,1,30823.5,499550.6999999285,7094,ATS,B,12
12,test,1,C,mfborder.png,1,m,Wed Mar 26 2025 09:43:42 GMT-0500 (Central Daylight Time),533259.1000000238,CFD-WM-037-060-A.jpg,2000,dash,O,m,860,5,1,33708.40000009537,499550.6999999285,7094,ATS,B,13
12,test,1,C,haborder.png,0,z,Wed Mar 26 2025 09:43:42 GMT-0500 (Central Daylight Time),536490.8999999762,CFD-BM-041-048-A.jpg,1700,solid,O,None,1516,9,1,36940.200000047684,499550.6999999285,7094,ATS,B,14
13,test,1,C,mfborder.png,1,m,Wed Mar 26 2025 09:43:42 GMT-0500 (Central Daylight Time),538491.2999999523,CFD-BM-020-024-HC.jpg,1200,dash,O,m,783,6,1,38940.60000002384,499550.6999999285,7094,ATS,B,15
14,test,1,C,haborder.png,1,z,Wed Mar 26 2025 09:43:42 GMT-0500 (Central Daylight Time),541305.5,CFD-BM-041-048-A.jpg,1700,solid,O,z,1094,9,1,41754.800000071526,499550.6999999285,7094,ATS,B,16
15,test,1,C,haborder.png,1,z,Wed Mar 26 2025 09:43:42 GMT-0500 (Central Daylight Time),544204.2999999523,CFD-BM-037-041-A.jpg,1900,solid,O,z,976,8,1,44653.60000002384,499550.6999999285,7094,ATS,B,17
16,test,1,C,haborder.png,1,z,Wed Mar 26 2025 09:43:42 GMT-0500 (Central Daylight Time),546637.0,CFD-WM-009-009-A.jpg,1400,solid,O,z,1005,7,1,47086.300000071526,499550.6999999285,7094,ATS,B,18
17,test,1,C,mfborder.png,1,z,Wed Mar 26 2025 09:43:42 GMT-0500 (Central Daylight Time),549336.5,CFD-BF-051-043-A.jpg,1600,dash,O,z,1054,2,1,49785.800000071526,499550.6999999285,7094,ATS,B,19
18,test,1,C,mfborder.png,1,z,Wed Mar 26 2025 09:43:42 GMT-0500 (Central Daylight Time),551853.1000000238,CFD-WF-026-008-A.jpg,1500,dash,O,z,997,3,1,52302.40000009537,499550.6999999285,7094,ATS,B,20
19,test,1,C,haborder.png,1,m,Wed Mar 26 2025 09:43:42 GMT-0500 (Central Daylight Time),554485.1000000238,CFD-WF-027-007-HC.jpg,1500,solid,O,m,1116,11,1,54934.40000009537,499550.6999999285,7094,ATS,B,21
20,test,1,C,mfborder.png,1,z,Wed Mar 26 2025 09:43:42 GMT-0500 (Central Daylight Time),556849.5,CFD-WF-026-008-A.jpg,1500,dash,O,z,844,3,1,57298.800000071526,499550.6999999285,7094,ATS,B,22
20,test,1,C,mfborder.png,0,m,Wed Mar 26 2025 09:43:42 GMT-0500 (Central Daylight Time),560382.8999999762,CFD-WM-037-060-A.jpg,2000,dash,O,None,1515,5,1,60832.200000047684,499550.6999999285,7094,ATS,B,23
21,test,1,C,mfborder.png,1,m,Wed Mar 26 2025 09:43:42 GMT-0500 (Central Daylight Time),562331.1999999285,CFD-BM-020-024-HC.jpg,1200,dash,O,m,731,6,1,62780.5,499550.6999999285,7094,ATS,B,24
0,test,2,C,haborder.png,0,z,Wed Mar 26 2025 09:43:42 GMT-0500 (Central Daylight Time),569329.1000000238,CFD-BF-051-043-A.jpg,1400,solid,O,None,1509,7,1,2932.100000023842,566397.0,7094,ATS,B,1
1,test,2,C,mfborder.png,1,m,Wed Mar 26 2025 09:43:42 GMT-0500 (Central Daylight Time),572794.1000000238,CFD-BM-037-041-A.jpg,2000,dash,O,m,1440,5,1,6397.100000023842,566397.0,7094,ATS,B,2
2,test,2,C,haborder.png,1,z,Wed Mar 26 2025 09:43:42 GMT-0500 (Central Daylight Time),575560.1000000238,CFD-BF-050-012-A.jpg,1900,solid,O,z,834,8,1,9163.100000023842,566397.0,7094,ATS,B,3
3,test,2,C,mfborder.png,1,m,Wed Mar 26 2025 09:43:42 GMT-0500 (Central Daylight Time),578376.0,CFD-BM-037-041-A.jpg,2000,dash,O,m,794,5,1,11979.0,566397.0,7094,ATS,B,4
4,test,2,C,haborder.png,1,m,Wed Mar 26 2025 09:43:42 GMT-0500 (Central Daylight Time),581226.1000000238,CFD-BM-020-024-HC.jpg,1600,solid,O,m,1217,10,1,14829.100000023842,566397.0,7094,ATS,B,5
5,test,2,C,haborder.png,1,z,Wed Mar 26 2025 09:43:42 GMT-0500 (Central Daylight Time),584357.6000000238,CFD-WF-026-008-A.jpg,1700,solid,O,z,1414,9,1,17960.600000023842,566397.0,7094,ATS,B,6
6,test,2,C,mfborder.png,1,m,Wed Mar 26 2025 09:43:42 GMT-0500 (Central Daylight Time),586309.3999999762,CFD-BM-015-017-HC.jpg,1000,dash,O,m,931,4,1,19912.399999976158,566397.0,7094,ATS,B,7
7,test,2,C,haborder.png,1,z,Wed Mar 26 2025 09:43:42 GMT-0500 (Central Daylight Time),589539.6999999285,CFD-BF-050-012-A.jpg,1900,solid,O,z,1301,8,1,23142.699999928474,566397.0,7094,ATS,B,8
7,test,2,C,mfborder.png,0,z,Wed Mar 26 2025 09:43:42 GMT-0500 (Central Daylight Time),592773.1999999285,CFD-WF-011-006-HC.jpg,1700,dash,O,None,1517,1,1,26376.199999928474,566397.0,7094,ATS,B,9
8,test,2,C,haborder.png,1,m,Wed Mar 26 2025 09:43:42 GMT-0500 (Central Daylight Time),595220.6999999285,CFD-WM-011-006-HC.jpg,1500,solid,O,m,931,11,1,28823.699999928474,566397.0,7094,ATS,B,10
9,test,2,C,mfborder.png,1,z,Wed Mar 26 2025 09:43:42 GMT-0500 (Central Daylight Time),597820.1999999285,CFD-BF-035-007-HC.jpg,1500,dash,O,z,1075,3,1,31423.199999928474,566397.0,7094,ATS,B,11
9,test,2,C,haborder.png,0,z,Wed Mar 26 2025 09:43:42 GMT-0500 (Central Daylight Time),601052.3999999762,CFD-WF-026-008-A.jpg,1700,solid,O,None,1516,9,1,34655.39999997616,566397.0,7094,ATS,B,12
10,test,2,C,mfborder.png,1,m,Wed Mar 26 2025 09:43:42 GMT-0500 (Central Daylight Time),603202.0,CFD-WM-009-009-A.jpg,1200,dash,O,m,908,6,1,36805.0,566397.0,7094,ATS,B,13
11,test,2,C,mfborder.png,1,m,Wed Mar 26 2025 09:43:42 GMT-0500 (Central Daylight Time),604967.2999999523,CFD-BM-015-017-HC.jpg,1000,dash,O,m,736,4,1,38570.299999952316,566397.0,7094,ATS,B,14
12,test,2,C,mfborder.png,1,z,Wed Mar 26 2025 09:43:42 GMT-0500 (Central Daylight Time),607467.6000000238,CFD-BF-035-007-HC.jpg,1500,dash,O,z,975,3,1,41070.60000002384,566397.0,7094,ATS,B,15
13,test,2,C,haborder.png,1,m,Wed Mar 26 2025 09:43:42 GMT-0500 (Central Daylight Time),610216.6999999285,CFD-BM-020-024-HC.jpg,1600,solid,O,m,1121,10,1,43819.699999928474,566397.0,7094,ATS,B,16
14,test,2,C,haborder.png,1,m,Wed Mar 26 2025 09:43:42 GMT-0500 (Central Daylight Time),612116.3999999762,CFD-WM-011-006-HC.jpg,1000,solid,O,m,875,12,1,45719.39999997616,566397.0,7094,ATS,B,17
15,test,2,C,haborder.png,1,m,Wed Mar 26 2025 09:43:42 GMT-0500 (Central Daylight Time),614432.1000000238,CFD-WM-011-006-HC.jpg,1500,solid,O,m,794,11,1,48035.10000002384,566397.0,7094,ATS,B,18
16,test,2,C,mfborder.png,1,m,Wed Mar 26 2025 09:43:42 GMT-0500 (Central Daylight Time),617064.8999999762,CFD-WM-009-009-A.jpg,1200,dash,O,m,1410,6,1,50667.89999997616,566397.0,7094,ATS,B,19
17,test,2,C,mfborder.png,1,z,Wed Mar 26 2025 09:43:42 GMT-0500 (Central Daylight Time),619680.5,CFD-WF-013-015-A.jpg,1600,dash,O,z,987,2,1,53283.5,566397.0,7094,ATS,B,20
18,test,2,C,mfborder.png,1,z,Wed Mar 26 2025 09:43:42 GMT-0500 (Central Daylight Time),622611.1999999285,CFD-WF-011-006-HC.jpg,1700,dash,O,z,1199,1,1,56214.199999928474,566397.0,7094,ATS,B,21
18,test,2,C,haborder.png,0,z,Wed Mar 26 2025 09:43:42 GMT-0500 (Central Daylight Time),625561.2999999523,CFD-BF-051-043-A.jpg,1400,solid,O,None,1515,7,1,59164.299999952316,566397.0,7094,ATS,B,22
19,test,2,C,mfborder.png,1,z,Wed Mar 26 2025 09:43:42 GMT-0500 (Central Daylight Time),628261.1999999285,CFD-WF-013-015-A.jpg,1600,dash,O,z,1082,2,1,61864.199999928474,566397.0,7094,ATS,B,23
20,test,2,C,haborder.png,1,m,Wed Mar 26 2025 09:43:42 GMT-0500 (Central Daylight Time),630276.6999999285,CFD-WM-011-006-HC.jpg,1000,solid,O,m,991,12,1,63879.699999928474,566397.0,7094,ATS,B,24
1,test,3,C,mfborder.png,1,m,Wed Mar 26 2025 09:43:42 GMT-0500 (Central Daylight Time),634575.0,CFD-WM-012-007-HC.jpg,1000,dash,O,m,1157,4,1,2197.7000000476837,632377.2999999523,7094,ATS,B,1
2,test,3,C,haborder.png,1,m,Wed Mar 26 2025 09:43:42 GMT-0500 (Central Daylight Time),636925.1000000238,CFD-WF-011-006-HC.jpg,1000,solid,O,m,1307,12,1,4547.800000071526,632377.2999999523,7094,ATS,B,2
3,test,3,C,mfborder.png,1,z,Wed Mar 26 2025 09:43:42 GMT-0500 (Central Daylight Time),639724.0,CFD-BF-027-013-HC.jpg,1700,dash,O,z,1080,1,1,7346.700000047684,632377.2999999523,7094,ATS,B,3
4,test,3,C,haborder.png,1,z,Wed Mar 26 2025 09:43:42 GMT-0500 (Central Daylight Time),642530.2999999523,CFD-WM-009-009-A.jpg,1400,solid,O,z,1373,7,1,10153.0,632377.2999999523,7094,ATS,B,4
5,test,3,C,mfborder.png,1,z,Wed Mar 26 2025 09:43:42 GMT-0500 (Central Daylight Time),645338.6000000238,CFD-WF-026-008-A.jpg,1500,dash,O,z,1284,3,1,12961.300000071526,632377.2999999523,7094,ATS,B,5
6,test,3,C,haborder.png,1,m,Wed Mar 26 2025 09:43:42 GMT-0500 (Central Daylight Time),648086.6000000238,CFD-WF-027-007-HC.jpg,1500,solid,O,m,1227,11,1,15709.300000071526,632377.2999999523,7094,ATS,B,6
7,test,3,C,haborder.png,1,m,Wed Mar 26 2025 09:43:42 GMT-0500 (Central Daylight Time),650370.0,CFD-WF-011-006-HC.jpg,1000,solid,O,m,1250,12,1,17992.700000047684,632377.2999999523,7094,ATS,B,7
8,test,3,C,haborder.png,1,m,Wed Mar 26 2025 09:43:42 GMT-0500 (Central Daylight Time),652685.2999999523,CFD-WF-027-007-HC.jpg,1500,solid,O,m,786,11,1,20308.0,632377.2999999523,7094,ATS,B,8
8,test,3,C,haborder.png,0,z,Wed Mar 26 2025 09:43:42 GMT-0500 (Central Daylight Time),656104.3999999762,CFD-BM-037-041-A.jpg,1900,solid,O,None,1501,8,1,23727.100000023842,632377.2999999523,7094,ATS,B,9
9,test,3,C,haborder.png,1,z,Wed Mar 26 2025 09:43:42 GMT-0500 (Central Daylight Time),658836.8999999762,CFD-BM-041-048-A.jpg,1700,solid,O,z,1018,9,1,26459.600000023842,632377.2999999523,7094,ATS,B,10
10,test,3,C,haborder.png,1,z,Wed Mar 26 2025 09:43:42 GMT-0500 (Central Daylight Time),661217.6000000238,CFD-WM-009-009-A.jpg,1400,solid,O,z,959,7,1,28840.300000071526,632377.2999999523,7094,ATS,B,11
11,test,3,C,haborder.png,1,z,Wed Mar 26 2025 09:43:42 GMT-0500 (Central Daylight Time),664065.7999999523,CFD-BM-037-041-A.jpg,1900,solid,O,z,925,8,1,31688.5,632377.2999999523,7094,ATS,B,12
12,test,3,C,mfborder.png,1,m,Wed Mar 26 2025 09:43:42 GMT-0500 (Central Daylight Time),666465.5,CFD-BM-020-024-HC.jpg,1200,dash,O,m,1169,6,1,34088.200000047684,632377.2999999523,7094,ATS,B,13
13,test,3,C,mfborder.png,1,m,Wed Mar 26 2025 09:43:42 GMT-0500 (Central Daylight Time),669197.7999999523,CFD-WM-037-060-A.jpg,2000,dash,O,m,707,5,1,36820.5,632377.2999999523,7094,ATS,B,14
13,test,3,C,haborder.png,0,m,Wed Mar 26 2025 09:43:42 GMT-0500 (Central Daylight Time),672314.8999999762,CFD-BF-035-007-HC.jpg,1600,solid,O,None,1501,10,1,39937.60000002384,632377.2999999523,7094,ATS,B,15
14,test,3,C,mfborder.png,1,z,Wed Mar 26 2025 09:43:42 GMT-0500 (Central Daylight Time),675529.6999999285,CFD-BF-027-013-HC.jpg,1700,dash,O,z,1476,1,1,43152.39999997616,632377.2999999523,7094,ATS,B,16
15,test,3,C,haborder.png,1,m,Wed Mar 26 2025 09:43:42 GMT-0500 (Central Daylight Time),678312.0,CFD-BF-035-007-HC.jpg,1600,solid,O,m,1152,10,1,45934.700000047684,632377.2999999523,7094,ATS,B,17
16,test,3,C,mfborder.png,1,m,Wed Mar 26 2025 09:43:42 GMT-0500 (Central Daylight Time),681710.1999999285,CFD-WM-037-060-A.jpg,2000,dash,O,m,1370,5,1,49332.89999997616,632377.2999999523,7094,ATS,B,18
17,test,3,C,mfborder.png,1,m,Wed Mar 26 2025 09:43:42 GMT-0500 (Central Daylight Time),683726.0,CFD-WM-012-007-HC.jpg,1000,dash,O,m,999,4,1,51348.700000047684,632377.2999999523,7094,ATS,B,19
18,test,3,C,mfborder.png,1,z,Wed Mar 26 2025 09:43:42 GMT-0500 (Central Daylight Time),686808.2999999523,CFD-BF-051-043-A.jpg,1600,dash,O,z,1463,2,1,54431.0,632377.2999999523,7094,ATS,B,20
18,test,3,C,haborder.png,0,z,Wed Mar 26 2025 09:43:42 GMT-0500 (Central Daylight Time),689574.6000000238,CFD-BM-041-048-A.jpg,1700,solid,O,m,1038,9,1,57197.300000071526,632377.2999999523,7094,ATS,B,21
19,test,3,C,mfborder.png,1,z,Wed Mar 26 2025 09:43:42 GMT-0500 (Central Daylight Time),692357.1999999285,CFD-BF-051-043-A.jpg,1600,dash,O,z,1164,2,1,59979.89999997616,632377.2999999523,7094,ATS,B,22
19,test,3,C,mfborder.png,0,m,Wed Mar 26 2025 09:43:42 GMT-0500 (Central Daylight Time),695090.2999999523,CFD-BM-020-024-HC.jpg,1200,dash,O,None,1517,6,1,62713.0,632377.2999999523,7094,ATS,B,23
20,test,3,C,mfborder.png,1,z,Wed Mar 26 2025 09:43:42 GMT-0500 (Central Daylight Time),697522.1999999285,CFD-WF-026-008-A.jpg,1500,dash,O,z,899,3,1,65144.89999997616,632377.2999999523,7094,ATS,B,24
1,test,4,C,haborder.png,1,m,Wed Mar 26 2025 09:43:42 GMT-0500 (Central Daylight Time),701270.1999999285,CFD-BM-020-024-HC.jpg,1600,solid,O,m,906,10,1,2549.0999999046326,698721.1000000238,7094,ATS,B,1
2,test,4,C,mfborder.png,1,z,Wed Mar 26 2025 09:43:42 GMT-0500 (Central Daylight Time),703822.0,CFD-WF-013-015-A.jpg,1600,dash,O,z,937,2,1,5100.899999976158,698721.1000000238,7094,ATS,B,2
3,test,4,C,haborder.png,1,z,Wed Mar 26 2025 09:43:42 GMT-0500 (Central Daylight Time),707100.8999999762,CFD-BF-050-012-A.jpg,1900,solid,O,z,1362,8,1,8379.799999952316,698721.1000000238,7094,ATS,B,3
4,test,4,C,haborder.png,1,z,Wed Mar 26 2025 09:43:42 GMT-0500 (Central Daylight Time),709967.6999999285,CFD-WF-026-008-A.jpg,1700,solid,O,z,1144,9,1,11246.599999904633,698721.1000000238,7094,ATS,B,4
5,test,4,C,mfborder.png,1,m,Wed Mar 26 2025 09:43:42 GMT-0500 (Central Daylight Time),712283.7999999523,CFD-BM-015-017-HC.jpg,1000,dash,O,m,1289,4,1,13562.699999928474,698721.1000000238,7094,ATS,B,5
6,test,4,C,mfborder.png,1,z,Wed Mar 26 2025 09:43:42 GMT-0500 (Central Daylight Time),714982.6999999285,CFD-WF-011-006-HC.jpg,1700,dash,O,z,977,1,1,16261.599999904633,698721.1000000238,7094,ATS,B,6
7,test,4,C,mfborder.png,1,z,Wed Mar 26 2025 09:43:42 GMT-0500 (Central Daylight Time),717731.2999999523,CFD-WF-011-006-HC.jpg,1700,dash,O,z,1022,1,1,19010.199999928474,698721.1000000238,7094,ATS,B,7
8,test,4,C,mfborder.png,1,m,Wed Mar 26 2025 09:43:42 GMT-0500 (Central Daylight Time),720680.7999999523,CFD-BM-037-041-A.jpg,2000,dash,O,m,917,5,1,21959.699999928474,698721.1000000238,7094,ATS,B,8
9,test,4,C,haborder.png,1,z,Wed Mar 26 2025 09:43:42 GMT-0500 (Central Daylight Time),723413.3999999762,CFD-BF-051-043-A.jpg,1400,solid,O,z,1305,7,1,24692.299999952316,698721.1000000238,7094,ATS,B,9
10,test,4,C,haborder.png,1,m,Wed Mar 26 2025 09:43:42 GMT-0500 (Central Daylight Time),725413.2999999523,CFD-WM-011-006-HC.jpg,1000,solid,O,m,972,12,1,26692.199999928474,698721.1000000238,7094,ATS,B,10
11,test,4,C,mfborder.png,1,z,Wed Mar 26 2025 09:43:42 GMT-0500 (Central Daylight Time),727978.1000000238,CFD-WF-013-015-A.jpg,1600,dash,O,z,939,2,1,29257.0,698721.1000000238,7094,ATS,B,11
12,test,4,C,mfborder.png,1,m,Wed Mar 26 2025 09:43:42 GMT-0500 (Central Daylight Time),730676.6999999285,CFD-WM-009-009-A.jpg,1200,dash,O,m,1470,6,1,31955.599999904633,698721.1000000238,7094,ATS,B,12
13,test,4,C,haborder.png,1,m,Wed Mar 26 2025 09:43:42 GMT-0500 (Central Daylight Time),733176.5,CFD-BM-020-024-HC.jpg,1600,solid,O,m,877,10,1,34455.39999997616,698721.1000000238,7094,ATS,B,13
14,test,4,C,haborder.png,1,m,Wed Mar 26 2025 09:43:42 GMT-0500 (Central Daylight Time),734959.2999999523,CFD-WM-011-006-HC.jpg,1000,solid,O,m,751,12,1,36238.199999928474,698721.1000000238,7094,ATS,B,14
15,test,4,C,mfborder.png,1,z,Wed Mar 26 2025 09:43:42 GMT-0500 (Central Daylight Time),737642.6999999285,CFD-BF-035-007-HC.jpg,1500,dash,O,z,1159,3,1,38921.59999990463,698721.1000000238,7094,ATS,B,15
16,test,4,C,mfborder.png,1,m,Wed Mar 26 2025 09:43:42 GMT-0500 (Central Daylight Time),739575.0,CFD-BM-015-017-HC.jpg,1000,dash,O,m,912,4,1,40853.89999997616,698721.1000000238,7094,ATS,B,16
16,test,4,C,haborder.png,0,m,Wed Mar 26 2025 09:43:42 GMT-0500 (Central Daylight Time),742608.0,CFD-WM-011-006-HC.jpg,1500,solid,O,None,1515,11,1,43886.89999997616,698721.1000000238,7094,ATS,B,17
17,test,4,C,haborder.png,1,z,Wed Mar 26 2025 09:43:42 GMT-0500 (Central Daylight Time),745108.2999999523,CFD-BF-051-043-A.jpg,1400,solid,O,z,1084,7,1,46387.199999928474,698721.1000000238,7094,ATS,B,18
18,test,4,C,haborder.png,1,z,Wed Mar 26 2025 09:43:42 GMT-0500 (Central Daylight Time),747655.8999999762,CFD-WF-026-008-A.jpg,1700,solid,O,z,818,9,1,48934.799999952316,698721.1000000238,7094,ATS,B,19
19,test,4,C,mfborder.png,1,m,Wed Mar 26 2025 09:43:42 GMT-0500 (Central Daylight Time),749555.1999999285,CFD-WM-009-009-A.jpg,1200,dash,O,m,683,6,1,50834.09999990463,698721.1000000238,7094,ATS,B,20
20,test,4,C,haborder.png,1,z,Wed Mar 26 2025 09:43:42 GMT-0500 (Central Daylight Time),752354.6999999285,CFD-BF-050-012-A.jpg,1900,solid,O,z,874,8,1,53633.59999990463,698721.1000000238,7094,ATS,B,21
21,test,4,C,mfborder.png,1,m,Wed Mar 26 2025 09:43:42 GMT-0500 (Central Daylight Time),755352.6000000238,CFD-BM-037-041-A.jpg,2000,dash,O,m,978,5,1,56631.5,698721.1000000238,7094,ATS,B,22
22,test,4,C,haborder.png,1,m,Wed Mar 26 2025 09:43:42 GMT-0500 (Central Daylight Time),758335.1999999285,CFD-WM-011-006-HC.jpg,1500,solid,O,m,1455,11,1,59614.09999990463,698721.1000000238,7094,ATS,B,23
23,test,4,C,mfborder.png,1,z,Wed Mar 26 2025 09:43:42 GMT-0500 (Central Daylight Time),760708.0,CFD-BF-035-007-HC.jpg,1500,dash,O,z,845,3,1,61986.89999997616,698721.1000000238,7094,ATS,B,24
