acc_sum,block,block_c,condition,correct,correct_response,datetime,endtime,flanker,jitter,project,response,response_test_buffer_response,response_test_target_response,response_time,response_time_test_buffer_response,response_time_test_target_response,row_sel,session_number,start_end,starttime,subject_id,target,task,task_vers,time_test_buffer,time_test_buffer_response,time_test_constants,time_test_flanker,time_test_jitter,time_test_logger,time_test_target,time_test_target_response,time_test_variables,trial
1,prac,1,con,1,m,Fri Feb 14 2025 14:38:26 GMT-0600 (Central Standard Time),190765.19999999553,jacket,800,O,m,,,1282,,,5,1,3405.60000000149,187359.59999999404,7061,jacket,AF,B,,,,,,,,,,1
2,prac,1,inc,1,z,Fri Feb 14 2025 14:38:26 GMT-0600 (Central Standard Time),193736.3999999985,napkin,1100,O,z,,,549,,,12,1,2963.8000000044703,190772.59999999404,7061,friend,AF,B,,,,,,,,,,2
3,prac,1,inc,1,z,Fri Feb 14 2025 14:38:26 GMT-0600 (Central Standard Time),196635.3999999985,film,900,O,z,,,688,,,14,1,2894.3000000044703,193741.09999999404,7061,hate,AF,B,,,,,,,,,,3
4,prac,1,inc,1,m,Fri Feb 14 2025 14:38:26 GMT-0600 (Central Standard Time),199434.59999999404,kind,900,O,m,,,597,,,2,1,2794.89999999851,196639.69999999553,7061,rock,AF,B,,,,,,,,,,4
4,prac,1,con,0,m,Fri Feb 14 2025 14:38:26 GMT-0600 (Central Standard Time),202367.0,step,800,O,z,,,818,,,1,1,2927.5,199439.5,7061,step,AF,B,,,,,,,,,,5
5,prac,1,inc,1,z,Fri Feb 14 2025 14:38:26 GMT-0600 (Central Standard Time),205282.5,rock,900,O,z,,,706,,,10,1,2911.2000000029802,202371.29999999702,7061,kind,AF,B,,,,,,,,,,6
5,prac,1,con,0,z,Fri Feb 14 2025 14:38:26 GMT-0600 (Central Standard Time),207881.79999999702,brutal,800,O,m,,,497,,,13,1,2594.7999999970198,205287.0,7061,brutal,AF,B,,,,,,,,,,7
6,prac,1,con,1,z,Fri Feb 14 2025 14:38:26 GMT-0600 (Central Standard Time),210714.3999999985,love,1000,O,z,,,523,,,11,1,2828.3000000044703,207886.09999999404,7061,love,AF,B,,,,,,,,,,8
7,prac,1,inc,1,m,Fri Feb 14 2025 14:38:26 GMT-0600 (Central Standard Time),213563.59999999404,elated,900,O,m,,,638,,,6,1,2844.89999999851,210718.69999999553,7061,napkin,AF,B,,,,,,,,,,9
8,prac,1,inc,1,z,Fri Feb 14 2025 14:38:26 GMT-0600 (Central Standard Time),216645.79999999702,window,1100,O,z,,,677,,,16,1,3077.7999999970198,213568.0,7061,temper,AF,B,,,,,,,,,,10
9,prac,1,con,1,z,Fri Feb 14 2025 14:38:26 GMT-0600 (Central Standard Time),219711.5,rage,1000,O,z,,,749,,,15,1,3060.7000000029802,216650.79999999702,7061,rage,AF,B,,,,,,,,,,11
10,prac,1,inc,1,m,Fri Feb 14 2025 14:38:26 GMT-0600 (Central Standard Time),222660.69999999553,brutal,1100,O,m,,,545,,,8,1,2944.89999999851,219715.79999999702,7061,window,AF,B,,,,,,,,,,12
11,prac,1,con,1,m,Fri Feb 14 2025 14:38:26 GMT-0600 (Central Standard Time),225409.69999999553,remote,1000,O,m,,,439,,,7,1,2744.10000000149,222665.59999999404,7061,remote,AF,B,,,,,,,,,,13
12,prac,1,inc,1,m,Fri Feb 14 2025 14:38:26 GMT-0600 (Central Standard Time),228425.5,hate,1100,O,m,,,598,,,4,1,3011.5,225414.0,7061,film,AF,B,,,,,,,,,,14
13,prac,1,con,1,z,Fri Feb 14 2025 14:38:26 GMT-0600 (Central Standard Time),231257.79999999702,elated,800,O,z,,,722,,,9,1,2828.0,228429.79999999702,7061,elated,AF,B,,,,,,,,,,15
14,prac,1,con,1,m,Fri Feb 14 2025 14:38:26 GMT-0600 (Central Standard Time),233990.29999999702,bell,1000,O,m,,,419,,,3,1,2728.10000000149,231262.19999999553,7061,bell,AF,B,,,,,,,,,,16
1,test,1,inc,1,m,Fri Feb 14 2025 14:38:26 GMT-0600 (Central Standard Time),253817.5,love,1000,O,m,m,None,542,343.0,199.0,79,1,2079.2000000029802,251738.29999999702,7061,rock,AF,B,243480,243480,241750,242764,241752,243830,243281,243281,243829,1
2,test,1,con,1,z,Fri Feb 14 2025 14:38:26 GMT-0600 (Central Standard Time),255916.8999999985,love,1100,O,z,z,None,462,247.0,215.0,20,1,2094.5,253822.3999999985,7061,love,AF,B,245679,245679,243834,244947,243836,245929,245464,245464,245929,2
3,test,1,con,1,m,Fri Feb 14 2025 14:38:26 GMT-0600 (Central Standard Time),257899.3999999985,window,1000,O,m,m,None,447,232.0,215.0,123,1,1977.8999999985099,255921.5,7061,window,AF,B,247679,247679,245934,246946,245935,247911,247463,247463,247911,3
4,test,1,inc,1,m,Fri Feb 14 2025 14:38:26 GMT-0600 (Central Standard Time),260098.69999999553,hate,1100,O,m,m,None,549,334.0,215.0,72,1,2195.2999999970198,257903.3999999985,7061,step,AF,B,249761,249761,247915,249029,247917,250111,249546,249546,250111,4
5,test,1,inc,1,z,Fri Feb 14 2025 14:38:26 GMT-0600 (Central Standard Time),261914.79999999702,step,800,O,z,z,None,472,267.0,205.0,21,1,1811.7999999970198,260103.0,7061,love,AF,B,251644,251644,250115,250928,250117,251927,251438,251438,251927,5
6,test,1,con,1,m,Fri Feb 14 2025 14:38:26 GMT-0600 (Central Standard Time),263730.799999997,jacket,800,O,m,m,None,466,267.0,199.0,97,1,1811.8999999985099,261918.8999999985,7061,jacket,AF,B,253460,253460,251931,252744,251932,253743,253261,253261,253743,6
7,test,1,con,1,m,Fri Feb 14 2025 14:38:26 GMT-0600 (Central Standard Time),265480.5,bell,800,O,m,m,None,410,211.0,199.0,81,1,1745.6000000014901,263734.8999999985,7061,bell,AF,B,255276,255276,253747,254561,253749,255493,255077,255077,255493,7
8,test,1,inc,1,z,Fri Feb 14 2025 14:38:26 GMT-0600 (Central Standard Time),267546.299999997,bell,1000,O,z,z,None,515,300.0,215.0,15,1,2061.7000000029802,265484.59999999404,7061,kind,AF,B,257242,257242,255497,256510,255498,257558,257027,257027,257558,8
8,test,1,inc,0,z,Fri Feb 14 2025 14:38:26 GMT-0600 (Central Standard Time),269562.69999999553,remote,1000,O,m,m,None,481,266.0,215.0,63,1,2012.2999999970198,267550.3999999985,7061,temper,AF,B,259308,259308,257562,258576,257564,259575,259093,259093,259575,9
9,test,1,inc,1,z,Fri Feb 14 2025 14:38:26 GMT-0600 (Central Standard Time),271595.19999999553,napkin,900,O,z,z,None,598,383.0,215.0,6,1,2028.3999999985099,269566.799999997,7061,elated,AF,B,261224,261224,259579,260492,259580,261607,261009,261009,261607,10
10,test,1,inc,1,z,Fri Feb 14 2025 14:38:26 GMT-0600 (Central Standard Time),274027.59999999404,window,1100,O,z,z,None,790,591.0,199.0,40,1,2428.2999999970198,271599.299999997,7061,brutal,AF,B,263440,263440,261611,262725,261613,264040,263241,263241,264040,11
11,test,1,inc,1,m,Fri Feb 14 2025 14:38:26 GMT-0600 (Central Standard Time),276327.0,temper,1000,O,m,m,None,752,553.0,199.0,103,1,2295.2000000029802,274031.799999997,7061,jacket,AF,B,265773,265773,264044,265057,264045,266339,265574,265574,266339,12
12,test,1,con,1,m,Fri Feb 14 2025 14:38:26 GMT-0600 (Central Standard Time),278642.8999999985,bell,1000,O,m,m,None,766,567.0,199.0,83,1,2311.7000000029802,276331.19999999553,7061,bell,AF,B,268072,268072,266343,267357,266345,268655,267873,267873,268655,13
13,test,1,con,1,z,Fri Feb 14 2025 14:38:26 GMT-0600 (Central Standard Time),280692.3999999985,kind,900,O,z,z,None,606,407.0,199.0,10,1,2045.5,278646.8999999985,7061,kind,AF,B,270288,270288,268659,269572,268661,270705,270089,270089,270704,14
14,test,1,inc,1,m,Fri Feb 14 2025 14:38:26 GMT-0600 (Central Standard Time),282741.59999999404,kind,900,O,m,m,None,604,405.0,199.0,70,1,2045.1999999955297,280696.3999999985,7061,step,AF,B,272337,272337,270708,271622,270710,272754,272138,272138,272754,15
15,test,1,inc,1,z,Fri Feb 14 2025 14:38:26 GMT-0600 (Central Standard Time),284981.09999999404,remote,1000,O,z,z,None,705,506.0,199.0,39,1,2235.5,282745.59999999404,7061,brutal,AF,B,274487,274487,272758,273772,272759,274993,274288,274288,274993,16
16,test,1,con,1,z,Fri Feb 14 2025 14:38:26 GMT-0600 (Central Standard Time),287040.5,brutal,900,O,z,z,None,626,427.0,199.0,34,1,2054.9000000059605,284985.59999999404,7061,brutal,AF,B,276620,276620,274998,275905,274999,277053,276420,276420,277052,17
17,test,1,con,1,m,Fri Feb 14 2025 14:38:26 GMT-0600 (Central Standard Time),289073.0,step,900,O,m,m,None,584,368.0,216.0,66,1,2028.4000000059605,287044.59999999404,7061,step,AF,B,278703,278703,277057,277970,277058,279085,278487,278487,279085,18
18,test,1,inc,1,m,Fri Feb 14 2025 14:38:26 GMT-0600 (Central Standard Time),291172.59999999404,brutal,900,O,m,m,None,654,440.0,214.0,102,1,2095.39999999851,289077.19999999553,7061,jacket,AF,B,280735,280735,279089,280002,279091,281185,280521,280521,281185,19
19,test,1,con,1,z,Fri Feb 14 2025 14:38:26 GMT-0600 (Central Standard Time),293471.59999999404,brutal,1000,O,z,z,None,759,560.0,199.0,35,1,2295.0,291176.59999999404,7061,brutal,AF,B,282917,282918,281189,282202,281190,283484,282718,282718,283484,20
20,test,1,con,1,z,Fri Feb 14 2025 14:38:26 GMT-0600 (Central Standard Time),295687.69999999553,brutal,1100,O,z,z,None,569,370.0,199.0,36,1,2212.1999999955297,293475.5,7061,brutal,AF,B,285317,285317,283488,284602,283489,285700,285118,285118,285700,21
21,test,1,inc,1,m,Fri Feb 14 2025 14:38:26 GMT-0600 (Central Standard Time),297720.3999999985,brutal,900,O,m,m,None,585,386.0,199.0,110,1,2027.6000000014901,295692.799999997,7061,napkin,AF,B,287333,287333,285705,286617,285707,287732,287134,287134,287732,22
22,test,1,inc,1,m,Fri Feb 14 2025 14:38:26 GMT-0600 (Central Standard Time),299721.0,rage,800,O,m,m,None,661,461.0,200.0,69,1,1996.4000000059605,297724.59999999404,7061,step,AF,B,289266,289266,287737,288550,287738,289733,289066,289066,289733,23
23,test,1,inc,1,m,Fri Feb 14 2025 14:38:26 GMT-0600 (Central Standard Time),301735.59999999404,rage,800,O,m,m,None,669,470.0,199.0,77,1,2010.2999999970198,299725.299999997,7061,rock,AF,B,291265,291265,289737,290549,289739,291748,291066,291066,291748,24
24,test,1,inc,1,m,Fri Feb 14 2025 14:38:26 GMT-0600 (Central Standard Time),303985.0,friend,1100,O,m,m,None,599,385.0,214.0,120,1,2245.5,301739.5,7061,remote,AF,B,293597,293598,291752,292865,291753,293997,293383,293383,293997,25
25,test,1,con,1,m,Fri Feb 14 2025 14:38:26 GMT-0600 (Central Standard Time),306334.59999999404,bell,1100,O,m,m,None,704,505.0,199.0,84,1,2345.5,303989.09999999404,7061,bell,AF,B,295830,295830,294001,295114,294003,296347,295631,295631,296347,26
26,test,1,con,1,m,Fri Feb 14 2025 14:38:26 GMT-0600 (Central Standard Time),308666.69999999553,jacket,1000,O,m,m,None,781,566.0,215.0,99,1,2328.1999999955297,306338.5,7061,jacket,AF,B,298096,298096,296351,297364,296352,298679,297881,297881,298679,27
27,test,1,con,1,z,Fri Feb 14 2025 14:38:26 GMT-0600 (Central Standard Time),310866.299999997,hate,1100,O,z,z,None,549,350.0,199.0,44,1,2195.89999999851,308670.3999999985,7061,hate,AF,B,300512,300512,298682,299796,298684,300878,300313,300313,300878,28
28,test,1,con,1,m,Fri Feb 14 2025 14:38:26 GMT-0600 (Central Standard Time),313082.299999997,jacket,1100,O,m,m,None,573,358.0,215.0,100,1,2212.2000000029802,310870.09999999404,7061,jacket,AF,B,302728,302728,300882,301996,300884,303094,302513,302513,303094,29
29,test,1,inc,1,z,Fri Feb 14 2025 14:38:26 GMT-0600 (Central Standard Time),315381.69999999553,film,1100,O,z,z,None,663,464.0,199.0,48,1,2295.2999999970198,313086.3999999985,7061,hate,AF,B,304927,304927,303098,304212,303100,305394,304728,304728,305394,30
29,test,1,con,0,z,Fri Feb 14 2025 14:38:26 GMT-0600 (Central Standard Time),317597.5,temper,1000,O,m,m,None,671,456.0,215.0,59,1,2211.9000000059605,315385.59999999404,7061,temper,AF,B,307143,307143,305398,306411,305399,307610,306928,306928,307610,31
30,test,1,inc,1,m,Fri Feb 14 2025 14:38:26 GMT-0600 (Central Standard Time),319880.09999999404,hate,1100,O,m,m,None,635,436.0,199.0,80,1,2278.6999999955297,317601.3999999985,7061,rock,AF,B,309443,309443,307613,308727,307615,309892,309243,309243,309892,32
31,test,1,inc,1,m,Fri Feb 14 2025 14:38:26 GMT-0600 (Central Standard Time),322145.8999999985,temper,1000,O,m,m,None,724,525.0,199.0,127,1,2261.89999999851,319884.0,7061,window,AF,B,311625,311625,309896,310909,309898,312158,311426,311426,312158,33
32,test,1,inc,1,z,Fri Feb 14 2025 14:38:26 GMT-0600 (Central Standard Time),324478.59999999404,rock,900,O,z,z,None,887,688.0,199.0,54,1,2328.6999999955297,322149.8999999985,7061,rage,AF,B,313791,313791,312162,313076,312163,314491,313592,313592,314491,34
33,test,1,con,1,z,Fri Feb 14 2025 14:38:26 GMT-0600 (Central Standard Time),326728.0,hate,900,O,z,z,None,801,602.0,199.0,42,1,2245.60000000149,324482.3999999985,7061,hate,AF,B,316124,316124,314494,315408,314496,316740,315925,315925,316740,35
34,test,1,con,1,m,Fri Feb 14 2025 14:38:26 GMT-0600 (Central Standard Time),328944.09999999404,rock,1100,O,m,m,None,577,378.0,199.0,76,1,2212.0999999940395,326732.0,7061,rock,AF,B,318573,318573,316744,317857,316746,318956,318374,318374,318956,36
35,test,1,inc,1,m,Fri Feb 14 2025 14:38:26 GMT-0600 (Central Standard Time),331376.59999999404,friend,1100,O,m,m,None,784,585.0,199.0,112,1,2428.5999999940395,328948.0,7061,napkin,AF,B,320789,320789,318960,320073,318962,321389,320590,320590,321389,37
36,test,1,inc,1,z,Fri Feb 14 2025 14:38:26 GMT-0600 (Central Standard Time),333425.8999999985,jacket,800,O,z,z,None,699,499.0,200.0,29,1,2045.3000000044703,331380.59999999404,7061,friend,AF,B,322923,322923,321393,322205,321394,323438,322722,322722,323438,38
37,test,1,con,1,m,Fri Feb 14 2025 14:38:26 GMT-0600 (Central Standard Time),335791.59999999404,remote,1100,O,m,m,None,719,520.0,199.0,116,1,2362.0,333429.59999999404,7061,remote,AF,B,325271,325271,323442,324555,323443,325804,325072,325072,325804,39
38,test,1,inc,1,m,Fri Feb 14 2025 14:38:26 GMT-0600 (Central Standard Time),337957.8999999985,elated,800,O,m,m,None,829,630.0,199.0,109,1,2162.10000000149,335795.799999997,7061,napkin,AF,B,327337,327337,325808,326621,325809,327970,327138,327138,327970,40
39,test,1,con,1,z,Fri Feb 14 2025 14:38:26 GMT-0600 (Central Standard Time),339957.19999999553,love,800,O,z,z,None,662,447.0,215.0,17,1,1995.5,337961.69999999553,7061,love,AF,B,329520,329520,327974,328787,327975,329969,329304,329304,329969,41
40,test,1,inc,1,z,Fri Feb 14 2025 14:38:26 GMT-0600 (Central Standard Time),342422.8999999985,window,1100,O,z,z,None,825,611.0,214.0,8,1,2462.0,339960.8999999985,7061,elated,AF,B,331819,331819,329973,331086,329974,332435,331604,331604,332435,42
41,test,1,inc,1,z,Fri Feb 14 2025 14:38:26 GMT-0600 (Central Standard Time),344605.5,rock,900,O,z,z,None,746,547.0,199.0,46,1,2178.7000000029802,342426.799999997,7061,hate,AF,B,334068,334068,332439,333352,332440,334618,333869,333869,334618,43
42,test,1,inc,1,m,Fri Feb 14 2025 14:38:26 GMT-0600 (Central Standard Time),346571.69999999553,elated,800,O,m,m,None,621,406.0,215.0,117,1,1962.5,344609.19999999553,7061,remote,AF,B,336168,336168,334621,335435,334623,336584,335952,335952,336584,44
43,test,1,con,1,m,Fri Feb 14 2025 14:38:26 GMT-0600 (Central Standard Time),348571.0,film,900,O,m,m,None,549,350.0,199.0,90,1,1995.3000000044703,346575.69999999553,7061,film,AF,B,338217,338217,336588,337501,336589,338583,338018,338018,338583,45
44,test,1,inc,1,m,Fri Feb 14 2025 14:38:26 GMT-0600 (Central Standard Time),350520.59999999404,rage,800,O,m,m,None,609,394.0,215.0,85,1,1945.5999999940395,348575.0,7061,bell,AF,B,340133,340133,338587,339401,338588,340533,339918,339918,340533,46
45,test,1,inc,1,z,Fri Feb 14 2025 14:38:26 GMT-0600 (Central Standard Time),352619.69999999553,rock,900,O,z,z,None,656,441.0,215.0,14,1,2095.1999999955297,350524.5,7061,kind,AF,B,342182,342182,340537,341450,340538,342632,341967,341967,342632,47
46,test,1,con,1,z,Fri Feb 14 2025 14:38:26 GMT-0600 (Central Standard Time),354685.69999999553,brutal,800,O,z,z,None,729,530.0,199.0,33,1,2062.10000000149,352623.59999999404,7061,brutal,AF,B,344165,344165,342636,343449,342637,344698,343966,343966,344698,48
47,test,1,inc,1,m,Fri Feb 14 2025 14:38:26 GMT-0600 (Central Standard Time),356835.09999999404,friend,1100,O,m,m,None,506,307.0,199.0,128,1,2145.7999999970198,354689.299999997,7061,window,AF,B,346531,346531,344701,345815,344703,346847,346332,346332,346847,49
48,test,1,inc,1,m,Fri Feb 14 2025 14:38:26 GMT-0600 (Central Standard Time),359101.09999999404,hate,1100,O,m,m,None,628,429.0,199.0,96,1,2262.1999999955297,356838.8999999985,7061,film,AF,B,348681,348681,346851,347964,346852,349113,348481,348481,349113,50
49,test,1,inc,1,z,Fri Feb 14 2025 14:38:26 GMT-0600 (Central Standard Time),361200.59999999404,bell,1000,O,z,z,None,559,360.0,199.0,55,1,2095.5999999940395,359105.0,7061,rage,AF,B,350846,350846,349117,350130,349118,351213,350647,350647,351213,51
50,test,1,con,1,z,Fri Feb 14 2025 14:38:26 GMT-0600 (Central Standard Time),363249.8999999985,kind,800,O,z,z,None,699,484.0,215.0,9,1,2045.5,361204.3999999985,7061,kind,AF,B,352762,352762,351216,352030,351218,353262,352547,352547,353262,52
51,test,1,con,1,z,Fri Feb 14 2025 14:38:26 GMT-0600 (Central Standard Time),365266.0,friend,800,O,z,z,None,675,476.0,199.0,25,1,2012.1000000014901,363253.8999999985,7061,friend,AF,B,354795,354795,353266,354079,353267,355278,354596,354596,355278,53
52,test,1,con,1,z,Fri Feb 14 2025 14:38:26 GMT-0600 (Central Standard Time),367181.8999999985,temper,900,O,z,z,None,477,263.0,214.0,58,1,1912.0,365269.8999999985,7061,temper,AF,B,356928,356928,355282,356195,355283,357194,356713,356713,357194,54
53,test,1,con,1,m,Fri Feb 14 2025 14:38:26 GMT-0600 (Central Standard Time),369214.69999999553,napkin,1100,O,m,m,None,387,188.0,199.0,108,1,2028.7999999970198,367185.8999999985,7061,napkin,AF,B,359027,359027,357198,358311,357199,359227,358828,358828,359227,55
54,test,1,con,1,z,Fri Feb 14 2025 14:38:26 GMT-0600 (Central Standard Time),371130.69999999553,elated,800,O,z,z,None,566,367.0,199.0,1,1,1912.1000000014901,369218.59999999404,7061,elated,AF,B,360760,360760,359231,360044,359232,361143,360561,360561,361143,56
55,test,1,con,1,m,Fri Feb 14 2025 14:38:26 GMT-0600 (Central Standard Time),372880.299999997,step,800,O,m,m,None,410,211.0,199.0,65,1,1745.7000000029802,371134.59999999404,7061,step,AF,B,362676,362676,361147,361960,361148,362892,362477,362477,362892,57
56,test,1,con,1,z,Fri Feb 14 2025 14:38:26 GMT-0600 (Central Standard Time),374829.59999999404,love,900,O,z,z,None,504,305.0,199.0,18,1,1945.5,372884.09999999404,7061,love,AF,B,364525,364525,362896,363810,362898,364842,364326,364326,364842,58
56,test,1,con,0,z,Fri Feb 14 2025 14:38:26 GMT-0600 (Central Standard Time),376712.5,elated,900,O,m,m,None,442,243.0,199.0,2,1,1879.2000000029802,374833.299999997,7061,elated,AF,B,366475,366475,364845,365759,364847,366725,366276,366276,366725,59
57,test,1,inc,1,z,Fri Feb 14 2025 14:38:26 GMT-0600 (Central Standard Time),378992.09999999404,step,800,O,z,z,None,946,747.0,199.0,45,1,2274.7999999970198,376717.299999997,7061,hate,AF,B,368257,368257,366729,367542,366731,369004,368058,368058,369004,60
58,test,1,con,1,m,Fri Feb 14 2025 14:38:26 GMT-0600 (Central Standard Time),381294.19999999553,napkin,1000,O,m,m,None,753,553.0,200.0,107,1,2298.10000000149,378996.09999999404,7061,napkin,AF,B,370741,370741,369008,370024,369009,371306,370541,370541,371306,61
59,test,1,inc,1,z,Fri Feb 14 2025 14:38:26 GMT-0600 (Central Standard Time),383243.5,jacket,800,O,z,z,None,615,416.0,199.0,37,1,1945.4000000059605,381298.09999999404,7061,brutal,AF,B,372839,372839,371310,372123,371312,373256,372640,372640,373255,62
60,test,1,inc,1,z,Fri Feb 14 2025 14:38:26 GMT-0600 (Central Standard Time),385426.19999999553,remote,1000,O,z,z,None,640,441.0,199.0,7,1,2178.89999999851,383247.299999997,7061,elated,AF,B,374989,374989,373259,374273,373261,375438,374790,374790,375438,63
61,test,1,inc,1,m,Fri Feb 14 2025 14:38:26 GMT-0600 (Central Standard Time),387709.799999997,friend,1100,O,m,m,None,647,448.0,199.0,104,1,2280.0,385429.799999997,7061,jacket,AF,B,377271,377271,375442,376556,375443,377722,377072,377072,377722,64
62,test,1,inc,1,z,Fri Feb 14 2025 14:38:26 GMT-0600 (Central Standard Time),389741.59999999404,napkin,900,O,z,z,None,587,388.0,199.0,62,1,2028.0999999940395,387713.5,7061,temper,AF,B,379354,379354,377726,378638,377727,379754,379155,379155,379753,65
63,test,1,con,1,m,Fri Feb 14 2025 14:38:26 GMT-0600 (Central Standard Time),391875.299999997,step,1000,O,m,m,None,591,376.0,215.0,67,1,2129.89999999851,389745.3999999985,7061,step,AF,B,381503,381503,379757,380771,379759,381887,381288,381288,381887,66
64,test,1,con,1,z,Fri Feb 14 2025 14:38:26 GMT-0600 (Central Standard Time),393907.0,elated,1000,O,z,z,None,497,283.0,214.0,3,1,2027.8000000044703,391879.19999999553,7061,elated,AF,B,383636,383636,381891,382904,381893,383919,383422,383422,383919,67
65,test,1,inc,1,z,Fri Feb 14 2025 14:38:26 GMT-0600 (Central Standard Time),395972.799999997,bell,1000,O,z,z,None,529,330.0,199.0,47,1,2062.0,393910.799999997,7061,hate,AF,B,385652,385652,383923,384936,383924,385985,385453,385453,385985,68
66,test,1,inc,1,m,Fri Feb 14 2025 14:38:26 GMT-0600 (Central Standard Time),398072.5,brutal,900,O,m,m,None,651,452.0,199.0,126,1,2095.7000000029802,395976.799999997,7061,window,AF,B,387618,387618,385989,386902,385990,388085,387419,387419,388085,69
67,test,1,con,1,m,Fri Feb 14 2025 14:38:26 GMT-0600 (Central Standard Time),400288.3999999985,step,1100,O,m,m,None,568,353.0,215.0,68,1,2212.2000000029802,398076.19999999553,7061,step,AF,B,389934,389934,388088,389201,388090,390300,389719,389719,390300,70
68,test,1,con,1,m,Fri Feb 14 2025 14:38:26 GMT-0600 (Central Standard Time),402371.09999999404,rock,900,O,m,m,None,632,433.0,199.0,74,1,2078.7999999970198,400292.299999997,7061,rock,AF,B,391933,391934,390304,391218,390306,392383,391734,391734,392383,71
69,test,1,con,1,m,Fri Feb 14 2025 14:38:26 GMT-0600 (Central Standard Time),404503.69999999553,napkin,900,O,m,m,None,694,495.0,199.0,106,1,2128.6999999955297,402375.0,7061,napkin,AF,B,394016,394016,392387,393300,392388,394516,393817,393817,394516,72
70,test,1,inc,1,z,Fri Feb 14 2025 14:38:26 GMT-0600 (Central Standard Time),406553.0,napkin,900,O,z,z,None,601,402.0,199.0,30,1,2045.5,404507.5,7061,friend,AF,B,396149,396149,394520,395433,394521,396565,395950,395950,396565,73
71,test,1,inc,1,z,Fri Feb 14 2025 14:38:26 GMT-0600 (Central Standard Time),408619.0,rock,900,O,z,z,None,623,424.0,199.0,22,1,2062.10000000149,406556.8999999985,7061,love,AF,B,398198,398198,396569,397482,396570,398631,397999,397999,398631,74
72,test,1,inc,1,z,Fri Feb 14 2025 14:38:26 GMT-0600 (Central Standard Time),410851.3999999985,film,1100,O,z,z,None,590,391.0,199.0,16,1,2228.7000000029802,408622.69999999553,7061,kind,AF,B,400464,400464,398635,399748,398636,400863,400265,400265,400863,75
73,test,1,inc,1,z,Fri Feb 14 2025 14:38:26 GMT-0600 (Central Standard Time),412934.3999999985,step,800,O,z,z,None,735,520.0,215.0,13,1,2079.10000000149,410855.299999997,7061,kind,AF,B,402414,402414,400867,401681,400868,402946,402198,402198,402946,76
74,test,1,inc,1,m,Fri Feb 14 2025 14:38:26 GMT-0600 (Central Standard Time),415200.299999997,love,1000,O,m,m,None,717,517.0,200.0,71,1,2262.2000000029802,412938.09999999404,7061,step,AF,B,404681,404681,402950,403963,402952,405212,404480,404480,405212,77
75,test,1,con,1,z,Fri Feb 14 2025 14:38:26 GMT-0600 (Central Standard Time),417516.09999999404,friend,1100,O,z,z,None,672,473.0,199.0,28,1,2311.89999999851,415204.19999999553,7061,friend,AF,B,407045,407045,405216,406330,405218,407528,406846,406846,407528,78
76,test,1,inc,1,m,Fri Feb 14 2025 14:38:26 GMT-0600 (Central Standard Time),419565.69999999553,kind,900,O,m,m,None,603,388.0,215.0,94,1,2045.6000000014901,417520.09999999404,7061,film,AF,B,409178,409178,407532,408445,407534,409578,408963,408963,409578,79
77,test,1,con,1,m,Fri Feb 14 2025 14:38:26 GMT-0600 (Central Standard Time),421764.59999999404,rock,800,O,m,m,None,854,639.0,215.0,73,1,2195.0,419569.59999999404,7061,rock,AF,B,411127,411127,409582,410395,409583,411777,410912,410912,411777,80
78,test,1,inc,1,z,Fri Feb 14 2025 14:38:26 GMT-0600 (Central Standard Time),423764.299999997,step,800,O,z,z,None,656,457.0,199.0,53,1,1995.7000000029802,421768.59999999404,7061,rage,AF,B,413310,413310,411781,412594,411782,413776,413111,413111,413776,81
79,test,1,con,1,z,Fri Feb 14 2025 14:38:26 GMT-0600 (Central Standard Time),425797.09999999404,rage,800,O,z,z,None,697,498.0,199.0,49,1,2029.0,423768.09999999404,7061,rage,AF,B,415309,415309,413780,414593,413781,415809,415110,415110,415809,82
79,test,1,inc,0,z,Fri Feb 14 2025 14:38:26 GMT-0600 (Central Standard Time),427846.5,jacket,800,O,m,m,None,712,513.0,199.0,61,1,2045.6000000014901,425800.8999999985,7061,temper,AF,B,417342,417342,415813,416626,415814,417859,417143,417143,417858,83
80,test,1,con,1,m,Fri Feb 14 2025 14:38:26 GMT-0600 (Central Standard Time),429695.59999999404,remote,800,O,m,m,None,509,294.0,215.0,113,1,1845.0,427850.59999999404,7061,remote,AF,B,419408,419408,417863,418676,417864,419708,419192,419193,419708,84
81,test,1,con,1,m,Fri Feb 14 2025 14:38:26 GMT-0600 (Central Standard Time),431878.3999999985,rock,1000,O,m,m,None,637,438.0,199.0,75,1,2178.7000000029802,429699.69999999553,7061,rock,AF,B,421441,421441,419712,420725,419713,421890,421242,421242,421890,85
82,test,1,con,1,m,Fri Feb 14 2025 14:38:26 GMT-0600 (Central Standard Time),433961.19999999553,film,1100,O,m,m,None,442,227.0,215.0,92,1,2079.10000000149,431882.09999999404,7061,film,AF,B,423740,423740,421894,423008,421896,423973,423525,423525,423973,86
83,test,1,con,1,z,Fri Feb 14 2025 14:38:26 GMT-0600 (Central Standard Time),436276.8999999985,love,1000,O,z,z,None,780,581.0,199.0,19,1,2311.89999999851,433965.0,7061,love,AF,B,425706,425706,423977,424990,423979,426289,425507,425507,426289,87
84,test,1,inc,1,m,Fri Feb 14 2025 14:38:26 GMT-0600 (Central Standard Time),438459.799999997,temper,1000,O,m,m,None,640,441.0,199.0,119,1,2179.10000000149,436280.69999999553,7061,remote,AF,B,428022,428022,426293,427306,426294,428472,427823,427823,428472,88
85,test,1,inc,1,z,Fri Feb 14 2025 14:38:26 GMT-0600 (Central Standard Time),440759.0,remote,1000,O,z,z,None,751,537.0,214.0,31,1,2295.2000000029802,438463.799999997,7061,friend,AF,B,430221,430221,428476,429489,428477,430771,430007,430007,430771,89
86,test,1,con,1,z,Fri Feb 14 2025 14:38:26 GMT-0600 (Central Standard Time),442858.19999999553,rage,900,O,z,z,None,658,459.0,199.0,50,1,2095.5,440762.69999999553,7061,rage,AF,B,432404,432404,430775,431688,430776,432870,432205,432205,432870,90
87,test,1,con,1,z,Fri Feb 14 2025 14:38:26 GMT-0600 (Central Standard Time),445107.3999999985,temper,1100,O,z,z,None,614,399.0,215.0,60,1,2245.3000000044703,442862.09999999404,7061,temper,AF,B,434720,434720,432874,433988,432876,435119,434504,434505,435119,91
88,test,1,con,1,z,Fri Feb 14 2025 14:38:26 GMT-0600 (Central Standard Time),447090.5,hate,800,O,z,z,None,641,442.0,199.0,41,1,1979.4000000059605,445111.09999999404,7061,hate,AF,B,436653,436653,435123,435937,435124,437103,436454,436454,437103,92
89,test,1,con,1,m,Fri Feb 14 2025 14:38:26 GMT-0600 (Central Standard Time),448939.69999999553,film,800,O,m,m,None,506,307.0,199.0,89,1,1845.5,447094.19999999553,7061,film,AF,B,438635,438636,437106,437920,437108,438952,438436,438436,438952,93
90,test,1,inc,1,z,Fri Feb 14 2025 14:38:26 GMT-0600 (Central Standard Time),451089.0,bell,1000,O,z,z,None,608,393.0,215.0,23,1,2145.3000000044703,448943.69999999553,7061,love,AF,B,440701,440701,438956,439969,438957,441101,440486,440486,441101,94
91,test,1,inc,1,m,Fri Feb 14 2025 14:38:26 GMT-0600 (Central Standard Time),453421.59999999404,hate,1100,O,m,m,None,695,496.0,199.0,88,1,2328.7999999970198,451092.799999997,7061,bell,AF,B,442934,442934,441105,442218,441106,443434,442735,442735,443434,95
92,test,1,con,1,m,Fri Feb 14 2025 14:38:26 GMT-0600 (Central Standard Time),455637.59999999404,napkin,800,O,m,m,None,879,680.0,199.0,105,1,2212.1999999955297,453425.3999999985,7061,napkin,AF,B,444967,444967,443437,444251,443439,445650,444768,444768,445650,96
93,test,1,con,1,m,Fri Feb 14 2025 14:38:26 GMT-0600 (Central Standard Time),457837.09999999404,window,1100,O,m,m,None,562,347.0,215.0,124,1,2195.7999999970198,455641.299999997,7061,window,AF,B,447500,447500,445653,446767,445655,447849,447284,447284,447849,97
94,test,1,con,1,z,Fri Feb 14 2025 14:38:26 GMT-0600 (Central Standard Time),460020.0,friend,1000,O,z,z,None,640,441.0,199.0,27,1,2179.2000000029802,457840.799999997,7061,friend,AF,B,449582,449582,447853,448866,447855,450032,449383,449383,450032,98
95,test,1,con,1,z,Fri Feb 14 2025 14:38:26 GMT-0600 (Central Standard Time),462235.69999999553,elated,1100,O,z,z,None,571,356.0,215.0,4,1,2211.7999999970198,460023.8999999985,7061,elated,AF,B,451882,451882,450036,451149,450037,452248,451666,451666,452248,99
96,test,1,con,1,z,Fri Feb 14 2025 14:38:26 GMT-0600 (Central Standard Time),463984.8999999985,temper,800,O,z,z,None,401,202.0,199.0,57,1,1745.5,462239.3999999985,7061,temper,AF,B,453781,453781,452251,453065,452253,453997,453582,453582,453997,100
97,test,1,inc,1,m,Fri Feb 14 2025 14:38:26 GMT-0600 (Central Standard Time),465934.3999999985,elated,800,O,m,m,None,603,404.0,199.0,125,1,1945.8000000044703,463988.59999999404,7061,window,AF,B,455530,455530,454001,454814,454002,455946,455331,455331,455946,101
98,test,1,con,1,z,Fri Feb 14 2025 14:38:26 GMT-0600 (Central Standard Time),468183.5,kind,1000,O,z,z,None,702,503.0,199.0,11,1,2245.4000000059605,465938.09999999404,7061,kind,AF,B,457679,457679,455950,456964,455952,458196,457480,457480,458196,102
99,test,1,inc,1,z,Fri Feb 14 2025 14:38:26 GMT-0600 (Central Standard Time),470416.3999999985,film,1100,O,z,z,None,593,378.0,215.0,24,1,2229.10000000149,468187.299999997,7061,love,AF,B,460045,460045,458199,459313,458201,460428,459830,459830,460428,103
100,test,1,inc,1,m,Fri Feb 14 2025 14:38:26 GMT-0600 (Central Standard Time),472598.799999997,brutal,900,O,m,m,None,735,520.0,215.0,118,1,2178.7999999970198,470420.0,7061,remote,AF,B,462078,462078,460432,461346,460433,462611,461862,461863,462611,104
101,test,1,inc,1,m,Fri Feb 14 2025 14:38:26 GMT-0600 (Central Standard Time),474665.0,love,1000,O,m,m,None,518,319.0,199.0,87,1,2062.4000000059605,472602.59999999404,7061,bell,AF,B,464344,464344,462615,463628,462616,464677,464145,464145,464677,105
102,test,1,inc,1,m,Fri Feb 14 2025 14:38:26 GMT-0600 (Central Standard Time),476781.19999999553,temper,1000,O,m,m,None,580,381.0,199.0,111,1,2112.39999999851,474668.799999997,7061,napkin,AF,B,466410,466410,464681,465694,464682,466793,466211,466211,466793,106
103,test,1,con,1,z,Fri Feb 14 2025 14:38:26 GMT-0600 (Central Standard Time),478996.8999999985,kind,1100,O,z,z,None,580,381.0,199.0,12,1,2211.7000000029802,476785.19999999553,7061,kind,AF,B,468626,468626,466797,467910,466799,469009,468427,468427,469009,107
104,test,1,inc,1,z,Fri Feb 14 2025 14:38:26 GMT-0600 (Central Standard Time),481279.3999999985,window,1100,O,z,z,None,643,444.0,199.0,32,1,2278.60000000149,479000.799999997,7061,friend,AF,B,470842,470842,469013,470126,469014,471291,470643,470643,471291,108
105,test,1,inc,1,z,Fri Feb 14 2025 14:38:26 GMT-0600 (Central Standard Time),483578.8999999985,window,1100,O,z,z,None,665,450.0,215.0,64,1,2295.5,481283.3999999985,7061,temper,AF,B,473141,473141,471295,472410,471297,473591,472926,472926,473591,109
106,test,1,con,1,m,Fri Feb 14 2025 14:38:26 GMT-0600 (Central Standard Time),485744.799999997,remote,1000,O,m,m,None,626,426.0,200.0,115,1,2161.89999999851,483582.8999999985,7061,remote,AF,B,475325,475325,473595,474608,473596,475757,475125,475125,475757,110
107,test,1,inc,1,m,Fri Feb 14 2025 14:38:26 GMT-0600 (Central Standard Time),487727.69999999553,kind,900,O,m,m,None,535,336.0,199.0,86,1,1979.0,485748.69999999553,7061,bell,AF,B,477390,477390,475761,476674,475762,477740,477191,477191,477740,111
108,test,1,con,1,z,Fri Feb 14 2025 14:38:26 GMT-0600 (Central Standard Time),490076.69999999553,rage,1100,O,z,z,None,705,490.0,215.0,52,1,2345.1999999955297,487731.5,7061,rage,AF,B,479589,479589,477744,478858,477745,480089,479374,479374,480089,112
109,test,1,con,1,m,Fri Feb 14 2025 14:38:26 GMT-0600 (Central Standard Time),492442.69999999553,film,1000,O,m,m,None,816,617.0,199.0,91,1,2362.2999999970198,490080.3999999985,7061,film,AF,B,481822,481822,480092,481106,480094,482455,481623,481623,482455,113
110,test,1,inc,1,z,Fri Feb 14 2025 14:38:26 GMT-0600 (Central Standard Time),494625.59999999404,napkin,900,O,z,z,None,734,518.0,216.0,38,1,2179.0,492446.59999999404,7061,brutal,AF,B,484105,484105,482459,483372,482460,484638,483889,483889,484638,114
111,test,1,con,1,z,Fri Feb 14 2025 14:38:26 GMT-0600 (Central Standard Time),496866.8999999985,hate,1000,O,z,z,None,707,492.0,215.0,43,1,2237.5,494629.3999999985,7061,hate,AF,B,486387,486387,484641,485655,484643,486879,486172,486172,486879,115
112,test,1,con,1,m,Fri Feb 14 2025 14:38:26 GMT-0600 (Central Standard Time),498990.8999999985,remote,900,O,m,m,None,695,496.0,199.0,114,1,2119.89999999851,496871.0,7061,remote,AF,B,488503,488503,486883,487787,486884,489003,488304,488304,489003,116
113,test,1,inc,1,m,Fri Feb 14 2025 14:38:26 GMT-0600 (Central Standard Time),500940.09999999404,elated,800,O,m,m,None,614,415.0,199.0,101,1,1945.1999999955297,498994.8999999985,7061,jacket,AF,B,490536,490536,489007,489821,489008,490952,490337,490337,490952,117
114,test,1,inc,1,m,Fri Feb 14 2025 14:38:26 GMT-0600 (Central Standard Time),502956.19999999553,rage,800,O,m,m,None,673,474.0,199.0,93,1,2012.2999999970198,500943.8999999985,7061,film,AF,B,492485,492485,490956,491769,490958,492968,492286,492286,492968,118
115,test,1,inc,1,z,Fri Feb 14 2025 14:38:26 GMT-0600 (Central Standard Time),504956.69999999553,jacket,800,O,z,z,None,664,465.0,199.0,5,1,1997.0,502959.69999999553,7061,elated,AF,B,494501,494501,492972,493785,492973,494969,494302,494302,494969,119
116,test,1,con,1,m,Fri Feb 14 2025 14:38:26 GMT-0600 (Central Standard Time),506954.799999997,bell,900,O,m,m,None,556,341.0,215.0,82,1,1994.0,504960.799999997,7061,bell,AF,B,496617,496617,494973,495885,494974,496967,496402,496402,496967,120
117,test,1,inc,1,m,Fri Feb 14 2025 14:38:26 GMT-0600 (Central Standard Time),509070.799999997,love,1000,O,m,m,None,578,379.0,199.0,95,1,2112.2000000029802,506958.59999999404,7061,film,AF,B,498700,498700,496971,497985,496972,499083,498501,498501,499083,121
118,test,1,inc,1,m,Fri Feb 14 2025 14:38:26 GMT-0600 (Central Standard Time),511236.69999999553,kind,900,O,m,m,None,730,531.0,199.0,78,1,2162.10000000149,509074.59999999404,7061,rock,AF,B,500716,500716,499087,500000,499088,501249,500517,500517,501249,122
119,test,1,con,1,z,Fri Feb 14 2025 14:38:26 GMT-0600 (Central Standard Time),513352.799999997,friend,900,O,z,z,None,668,469.0,199.0,26,1,2112.60000000149,511240.19999999553,7061,friend,AF,B,502882,502882,501252,502166,501254,503365,502683,502683,503365,123
120,test,1,con,1,m,Fri Feb 14 2025 14:38:26 GMT-0600 (Central Standard Time),515268.8999999985,window,800,O,m,m,None,571,372.0,199.0,121,1,1912.2000000029802,513356.69999999553,7061,window,AF,B,504898,504898,503369,504182,503370,505281,504699,504699,505281,124
121,test,1,con,1,m,Fri Feb 14 2025 14:38:26 GMT-0600 (Central Standard Time),517184.8999999985,window,900,O,m,m,None,476,277.0,199.0,122,1,1912.2000000029802,515272.69999999553,7061,window,AF,B,506914,506914,505285,506198,505286,507197,506715,506715,507197,125
122,test,1,con,1,m,Fri Feb 14 2025 14:38:26 GMT-0600 (Central Standard Time),519417.69999999553,jacket,900,O,m,m,None,783,584.0,199.0,98,1,2229.10000000149,517188.59999999404,7061,jacket,AF,B,508830,508830,507201,508114,507202,509430,508631,508631,509430,126
123,test,1,con,1,z,Fri Feb 14 2025 14:38:26 GMT-0600 (Central Standard Time),521433.59999999404,rage,1000,O,z,z,None,466,251.0,215.0,51,1,2012.0999999940395,519421.5,7061,rage,AF,B,511179,511179,509434,510456,509435,511446,510964,510964,511446,127
124,test,1,inc,1,z,Fri Feb 14 2025 14:38:26 GMT-0600 (Central Standard Time),523732.799999997,film,1100,O,z,z,None,661,446.0,215.0,56,1,2295.2000000029802,521437.59999999404,7061,rage,AF,B,513296,513296,511450,512563,511451,513745,513080,513080,513745,128
