block_c,block_dur,condition,countdown,datetime,endtime,list,multichar_response,project,response,response_time,session_number,start_end,starttime,subject_id,task,task_vers,trial
,,,,Wed Apr 16 2025 14:11:13 GMT-0400 (Eastern Daylight Time),,,,I,space,671,1,,,9014,WL,B,
prac,,0,,Wed Apr 16 2025 14:11:13 GMT-0400 (Eastern Daylight Time),,NA,b,I,b,11110,1,,,9014,WL,B,1.0
prac,,0,,Wed Apr 16 2025 14:11:13 GMT-0400 (Eastern Daylight Time),,NA,bo,I,o,653,1,,,9014,WL,B,1.0
prac,,0,,Wed Apr 16 2025 14:11:13 GMT-0400 (Eastern Daylight Time),,NA,boo,I,o,285,1,,,9014,WL,B,1.0
prac,,0,,Wed Apr 16 2025 14:11:13 GMT-0400 (Eastern Daylight Time),,NA,boos,I,s,584,1,,,9014,WL,B,1.0
prac,,0,,Wed Apr 16 2025 14:11:13 GMT-0400 (Eastern Daylight Time),,NA,boost,I,t,319,1,,,9014,WL,B,1.0
prac,,0,,Wed Apr 16 2025 14:11:13 GMT-0400 (Eastern Daylight Time),,NA,boostenter,I,enter,1729,1,,,9014,WL,B,1.0
1,3.2330000400543213,learn,56766.99995994568,Wed Apr 16 2025 14:11:13 GMT-0400 (Eastern Daylight Time),140219.0999994278,A,c,I,c,3216,1,3232.5999994277954,136986.5,9014,WL,B,1.0
1,3.5829999446868896,learn,56417.00005531311,Wed Apr 16 2025 14:11:13 GMT-0400 (Eastern Daylight Time),140569.19999980927,A,ca,I,a,333,1,3582.699999809265,136986.5,9014,WL,B,1.0
1,3.882999897003174,learn,56117.000102996826,Wed Apr 16 2025 14:11:13 GMT-0400 (Eastern Daylight Time),140869.19999980927,A,car,I,r,288,1,3882.699999809265,136986.5,9014,WL,B,1.0
1,4.983000040054321,learn,55016.99995994568,Wed Apr 16 2025 14:11:13 GMT-0400 (Eastern Daylight Time),141968.5,A,carenter,I,enter,1077,1,4982.0,136986.5,9014,WL,B,1.0
1,6.299999952316284,learn,53700.000047683716,Wed Apr 16 2025 14:11:13 GMT-0400 (Eastern Daylight Time),143285.5999994278,A,s,I,s,1308,1,1316.5,141969.0999994278,9014,WL,B,2.0
1,6.665999889373779,learn,53334.00011062622,Wed Apr 16 2025 14:11:13 GMT-0400 (Eastern Daylight Time),143652.19999980927,A,st,I,t,339,1,1683.1000003814697,141969.0999994278,9014,WL,B,2.0
1,6.950000047683716,learn,53049.999952316284,Wed Apr 16 2025 14:11:13 GMT-0400 (Eastern Daylight Time),143935.79999923706,A,str,I,r,262,1,1966.6999998092651,141969.0999994278,9014,WL,B,2.0
1,7.200000047683716,learn,52799.999952316284,Wed Apr 16 2025 14:11:13 GMT-0400 (Eastern Daylight Time),144185.5999994278,A,stre,I,e,234,1,2216.5,141969.0999994278,9014,WL,B,2.0
1,7.382999897003174,learn,52617.000102996826,Wed Apr 16 2025 14:11:13 GMT-0400 (Eastern Daylight Time),144368.89999961853,A,stree,I,e,162,1,2399.800000190735,141969.0999994278,9014,WL,B,2.0
1,7.799999952316284,learn,52200.000047683716,Wed Apr 16 2025 14:11:13 GMT-0400 (Eastern Daylight Time),144785.5999994278,A,street,I,t,384,1,2816.5,141969.0999994278,9014,WL,B,2.0
1,8.299999952316284,learn,51700.000047683716,Wed Apr 16 2025 14:11:13 GMT-0400 (Eastern Daylight Time),145286.0,A,streetenter,I,enter,487,1,3316.9000005722046,141969.0999994278,9014,WL,B,2.0
1,9.132999897003174,learn,50867.000102996826,Wed Apr 16 2025 14:11:13 GMT-0400 (Eastern Daylight Time),146118.89999961853,A,a,I,a,822,1,832.1999998092651,145286.69999980927,9014,WL,B,3.0
1,9.316999912261963,learn,50683.00008773804,Wed Apr 16 2025 14:11:13 GMT-0400 (Eastern Daylight Time),146302.29999923706,A,ar,I,r,163,1,1015.5999994277954,145286.69999980927,9014,WL,B,3.0
1,9.532999992370605,learn,50467.000007629395,Wed Apr 16 2025 14:11:13 GMT-0400 (Eastern Daylight Time),146518.79999923706,A,arm,I,m,204,1,1232.0999994277954,145286.69999980927,9014,WL,B,3.0
1,9.848999977111816,learn,50151.00002288818,Wed Apr 16 2025 14:11:13 GMT-0400 (Eastern Daylight Time),146835.0,A,armenter,I,enter,289,1,1548.3000001907349,145286.69999980927,9014,WL,B,3.0
1,10.149999856948853,learn,49850.00014305115,Wed Apr 16 2025 14:11:13 GMT-0400 (Eastern Daylight Time),147135.69999980927,A,w,I,w,282,1,300.0,146835.69999980927,9014,WL,B,4.0
1,10.632999897003174,learn,49367.000102996826,Wed Apr 16 2025 14:11:13 GMT-0400 (Eastern Daylight Time),147618.5999994278,A,wi,I,i,459,1,782.8999996185303,146835.69999980927,9014,WL,B,4.0
1,10.766999959945679,learn,49233.00004005432,Wed Apr 16 2025 14:11:13 GMT-0400 (Eastern Daylight Time),147752.39999961853,A,wif,I,f,119,1,916.6999998092651,146835.69999980927,9014,WL,B,4.0
1,11.049999952316284,learn,48950.000047683716,Wed Apr 16 2025 14:11:13 GMT-0400 (Eastern Daylight Time),148035.5999994278,A,wife,I,e,257,1,1199.8999996185303,146835.69999980927,9014,WL,B,4.0
1,11.315999984741211,learn,48684.00001525879,Wed Apr 16 2025 14:11:13 GMT-0400 (Eastern Daylight Time),148301.89999961853,A,wifeenter,I,enter,247,1,1466.1999998092651,146835.69999980927,9014,WL,B,4.0
1,11.733000040054321,learn,48266.99995994568,Wed Apr 16 2025 14:11:13 GMT-0400 (Eastern Daylight Time),148718.89999961853,A,s,I,s,399,1,416.5,148302.39999961853,9014,WL,B,5.0
1,12.016999959945679,learn,47983.00004005432,Wed Apr 16 2025 14:11:13 GMT-0400 (Eastern Daylight Time),149002.19999980927,A,st,I,t,269,1,699.8000001907349,148302.39999961853,9014,WL,B,5.0
1,12.5,learn,47500.0,Wed Apr 16 2025 14:11:13 GMT-0400 (Eastern Daylight Time),149485.79999923706,A,sta,I,a,464,1,1183.3999996185303,148302.39999961853,9014,WL,B,5.0
1,12.649999856948853,learn,47350.00014305115,Wed Apr 16 2025 14:11:13 GMT-0400 (Eastern Daylight Time),149635.5,A,star,I,r,125,1,1333.1000003814697,148302.39999961853,9014,WL,B,5.0
1,13.065999984741211,learn,46934.00001525879,Wed Apr 16 2025 14:11:13 GMT-0400 (Eastern Daylight Time),150051.69999980927,A,starenter,I,enter,389,1,1749.3000001907349,148302.39999961853,9014,WL,B,5.0
1,13.700000047683716,learn,46299.999952316284,Wed Apr 16 2025 14:11:13 GMT-0400 (Eastern Daylight Time),150685.5999994278,A,w,I,w,617,1,633.3000001907349,150052.29999923706,9014,WL,B,6.0
1,13.884000062942505,learn,46115.999937057495,Wed Apr 16 2025 14:11:13 GMT-0400 (Eastern Daylight Time),150869.29999923706,A,wi,I,i,170,1,817.0,150052.29999923706,9014,WL,B,6.0
1,14.066999912261963,learn,45933.00008773804,Wed Apr 16 2025 14:11:13 GMT-0400 (Eastern Daylight Time),151052.29999923706,A,win,I,n,168,1,1000.0,150052.29999923706,9014,WL,B,6.0
1,14.217000007629395,learn,45782.999992370605,Wed Apr 16 2025 14:11:13 GMT-0400 (Eastern Daylight Time),151202.29999923706,A,wind,I,d,121,1,1150.0,150052.29999923706,9014,WL,B,6.0
1,14.483000040054321,learn,45516.99995994568,Wed Apr 16 2025 14:11:13 GMT-0400 (Eastern Daylight Time),151468.89999961853,A,windo,I,o,239,1,1416.6000003814697,150052.29999923706,9014,WL,B,6.0
1,15.016000032424927,learn,44983.99996757507,Wed Apr 16 2025 14:11:13 GMT-0400 (Eastern Daylight Time),152001.79999923706,A,window,I,w,509,1,1949.5,150052.29999923706,9014,WL,B,6.0
1,16.016000032424927,learn,43983.99996757507,Wed Apr 16 2025 14:11:13 GMT-0400 (Eastern Daylight Time),153001.69999980927,A,windowenter,I,enter,986,1,2949.4000005722046,150052.29999923706,9014,WL,B,6.0
1,17.282999992370605,learn,42717.000007629395,Wed Apr 16 2025 14:11:13 GMT-0400 (Eastern Daylight Time),154268.79999923706,A,c,I,c,1252,1,1266.5999994277954,153002.19999980927,9014,WL,B,7.0
1,17.59999990463257,learn,42400.00009536743,Wed Apr 16 2025 14:11:13 GMT-0400 (Eastern Daylight Time),154585.69999980927,A,ct,I,t,300,1,1583.5,153002.19999980927,9014,WL,B,7.0
1,18.98300004005432,learn,41016.99995994568,Wed Apr 16 2025 14:11:13 GMT-0400 (Eastern Daylight Time),155968.89999961853,A,c,I,backspace,1357,1,2966.699999809265,153002.19999980927,9014,WL,B,7.0
1,20.132999897003174,learn,39867.000102996826,Wed Apr 16 2025 14:11:13 GMT-0400 (Eastern Daylight Time),157118.89999961853,A,ci,I,i,1129,1,4116.699999809265,153002.19999980927,9014,WL,B,7.0
1,20.282999992370605,learn,39717.000007629395,Wed Apr 16 2025 14:11:13 GMT-0400 (Eastern Daylight Time),157269.0,A,cit,I,t,124,1,4266.800000190735,153002.19999980927,9014,WL,B,7.0
1,21.649999856948853,learn,38350.00014305115,Wed Apr 16 2025 14:11:13 GMT-0400 (Eastern Daylight Time),158635.69999980927,A,city,I,y,1350,1,5633.5,153002.19999980927,9014,WL,B,7.0
1,21.966000080108643,learn,38033.99991989136,Wed Apr 16 2025 14:11:13 GMT-0400 (Eastern Daylight Time),158951.69999980927,A,cityenter,I,enter,301,1,5949.5,153002.19999980927,9014,WL,B,7.0
1,25.549999952316284,learn,34450.000047683716,Wed Apr 16 2025 14:11:13 GMT-0400 (Eastern Daylight Time),162535.79999923706,A,d,I,d,3573,1,3583.699999809265,158952.0999994278,9014,WL,B,8.0
1,25.683000087738037,learn,34316.99991226196,Wed Apr 16 2025 14:11:13 GMT-0400 (Eastern Daylight Time),162669.0,A,do,I,o,114,1,3716.9000005722046,158952.0999994278,9014,WL,B,8.0
1,25.83299994468689,learn,34167.00005531311,Wed Apr 16 2025 14:11:13 GMT-0400 (Eastern Daylight Time),162818.79999923706,A,doo,I,o,117,1,3866.699999809265,158952.0999994278,9014,WL,B,8.0
1,25.966000080108643,learn,34033.99991989136,Wed Apr 16 2025 14:11:13 GMT-0400 (Eastern Daylight Time),162952.0999994278,A,door,I,r,120,1,4000.0,158952.0999994278,9014,WL,B,8.0
1,26.23300004005432,learn,33766.99995994568,Wed Apr 16 2025 14:11:13 GMT-0400 (Eastern Daylight Time),163218.29999923706,A,doorenter,I,enter,234,1,4266.199999809265,158952.0999994278,9014,WL,B,8.0
1,34.66700005531311,learn,25332.99994468689,Wed Apr 16 2025 14:11:13 GMT-0400 (Eastern Daylight Time),171652.39999961853,A,l,I,l,8411,1,8433.5,163218.89999961853,9014,WL,B,9.0
1,34.8989999294281,learn,25101.0000705719,Wed Apr 16 2025 14:11:13 GMT-0400 (Eastern Daylight Time),171885.0999994278,A,li,I,i,214,1,8666.199999809265,163218.89999961853,9014,WL,B,9.0
1,35.032999992370605,learn,24967.000007629395,Wed Apr 16 2025 14:11:13 GMT-0400 (Eastern Daylight Time),172018.79999923706,A,lig,I,g,112,1,8799.89999961853,163218.89999961853,9014,WL,B,9.0
1,35.200000047683716,learn,24799.999952316284,Wed Apr 16 2025 14:11:13 GMT-0400 (Eastern Daylight Time),172185.69999980927,A,ligh,I,h,153,1,8966.800000190735,163218.89999961853,9014,WL,B,9.0
1,35.63199996948242,learn,24368.000030517578,Wed Apr 16 2025 14:11:13 GMT-0400 (Eastern Daylight Time),172618.0999994278,A,lighenter,I,enter,409,1,9399.199999809265,163218.89999961853,9014,WL,B,9.0
1,42.48300004005432,learn,17516.99995994568,Wed Apr 16 2025 14:11:13 GMT-0400 (Eastern Daylight Time),179468.89999961853,A,c,I,c,6836,1,6850.5,172618.39999961853,9014,WL,B,10.0
1,42.799999952316284,learn,17200.000047683716,Wed Apr 16 2025 14:11:13 GMT-0400 (Eastern Daylight Time),179785.5,A,cl,I,l,303,1,7167.10000038147,172618.39999961853,9014,WL,B,10.0
1,43.09999990463257,learn,16900.00009536743,Wed Apr 16 2025 14:11:13 GMT-0400 (Eastern Daylight Time),180085.39999961853,A,clo,I,o,272,1,7467.0,172618.39999961853,9014,WL,B,10.0
1,43.31699991226196,learn,16683.000087738037,Wed Apr 16 2025 14:11:13 GMT-0400 (Eastern Daylight Time),180302.19999980927,A,cloc,I,c,198,1,7683.800000190735,172618.39999961853,9014,WL,B,10.0
1,43.450000047683716,learn,16549.999952316284,Wed Apr 16 2025 14:11:13 GMT-0400 (Eastern Daylight Time),180435.5,A,clock,I,k,108,1,7817.10000038147,172618.39999961853,9014,WL,B,10.0
1,43.76600003242493,learn,16233.999967575073,Wed Apr 16 2025 14:11:13 GMT-0400 (Eastern Daylight Time),180751.79999923706,A,clockenter,I,enter,287,1,8133.39999961853,172618.39999961853,9014,WL,B,10.0
1,60.01699995994568,learn,-16.99995994567871,Wed Apr 16 2025 14:11:13 GMT-0400 (Eastern Daylight Time),197002.39999961853,A,None,I,None,16243,1,16250.300000190735,180752.0999994278,9014,WL,B,11.0
2,1.1000001430511475,learn,58899.99985694885,Wed Apr 16 2025 14:11:13 GMT-0400 (Eastern Daylight Time),269002.19999980927,A,s,I,s,1086,1,1099.9000005722046,267902.29999923706,9014,WL,B,1.0
2,1.75,learn,58250.0,Wed Apr 16 2025 14:11:13 GMT-0400 (Eastern Daylight Time),269652.0999994278,A,st,I,t,623,1,1749.8000001907349,267902.29999923706,9014,WL,B,1.0
2,1.9670000076293945,learn,58032.999992370605,Wed Apr 16 2025 14:11:13 GMT-0400 (Eastern Daylight Time),269868.79999923706,A,sta,I,a,199,1,1966.5,267902.29999923706,9014,WL,B,1.0
2,2.0840001106262207,learn,57915.99988937378,Wed Apr 16 2025 14:11:13 GMT-0400 (Eastern Daylight Time),269985.5,A,star,I,r,89,1,2083.2000007629395,267902.29999923706,9014,WL,B,1.0
2,2.4830000400543213,learn,57516.99995994568,Wed Apr 16 2025 14:11:13 GMT-0400 (Eastern Daylight Time),270385.0,A,starenter,I,enter,377,1,2482.7000007629395,267902.29999923706,9014,WL,B,1.0
2,3.634000062942505,learn,56365.999937057495,Wed Apr 16 2025 14:11:13 GMT-0400 (Eastern Daylight Time),271535.5999994278,A,s,I,s,1133,1,1150.1999998092651,270385.39999961853,9014,WL,B,2.0
2,4.233999967575073,learn,55766.00003242493,Wed Apr 16 2025 14:11:13 GMT-0400 (Eastern Daylight Time),272135.39999961853,A,st,I,t,587,1,1750.0,270385.39999961853,9014,WL,B,2.0
2,5.300000190734863,learn,54699.99980926514,Wed Apr 16 2025 14:11:13 GMT-0400 (Eastern Daylight Time),273202.0,A,str,I,r,1041,1,2816.6000003814697,270385.39999961853,9014,WL,B,2.0
2,5.550000190734863,learn,54449.99980926514,Wed Apr 16 2025 14:11:13 GMT-0400 (Eastern Daylight Time),273452.0999994278,A,stre,I,e,233,1,3066.699999809265,270385.39999961853,9014,WL,B,2.0
2,5.7170000076293945,learn,54282.999992370605,Wed Apr 16 2025 14:11:13 GMT-0400 (Eastern Daylight Time),273618.5999994278,A,stree,I,e,143,1,3233.199999809265,270385.39999961853,9014,WL,B,2.0
2,5.983999967575073,learn,54016.00003242493,Wed Apr 16 2025 14:11:13 GMT-0400 (Eastern Daylight Time),273885.39999961853,A,street,I,t,247,1,3500.0,270385.39999961853,9014,WL,B,2.0
2,6.41700005531311,learn,53582.99994468689,Wed Apr 16 2025 14:11:13 GMT-0400 (Eastern Daylight Time),274318.29999923706,A,streetenter,I,enter,413,1,3932.8999996185303,270385.39999961853,9014,WL,B,2.0
2,6.7840001583099365,learn,53215.99984169006,Wed Apr 16 2025 14:11:13 GMT-0400 (Eastern Daylight Time),274685.39999961853,A,d,I,d,351,1,366.69999980926514,274318.69999980927,9014,WL,B,3.0
2,6.900000095367432,learn,53099.99990463257,Wed Apr 16 2025 14:11:13 GMT-0400 (Eastern Daylight Time),274802.0,A,do,I,o,92,1,483.30000019073486,274318.69999980927,9014,WL,B,3.0
2,7.084000110626221,learn,52915.99988937378,Wed Apr 16 2025 14:11:13 GMT-0400 (Eastern Daylight Time),274985.29999923706,A,doo,I,o,171,1,666.5999994277954,274318.69999980927,9014,WL,B,3.0
2,7.233999967575073,learn,52766.00003242493,Wed Apr 16 2025 14:11:13 GMT-0400 (Eastern Daylight Time),275135.29999923706,A,door,I,r,121,1,816.5999994277954,274318.69999980927,9014,WL,B,3.0
2,7.683000087738037,learn,52316.99991226196,Wed Apr 16 2025 14:11:13 GMT-0400 (Eastern Daylight Time),275584.5999994278,A,doorenter,I,enter,420,1,1265.8999996185303,274318.69999980927,9014,WL,B,3.0
2,7.934000015258789,learn,52065.99998474121,Wed Apr 16 2025 14:11:13 GMT-0400 (Eastern Daylight Time),275835.39999961853,A,g,I,g,238,1,250.39999961853027,275585.0,9014,WL,B,4.0
2,8.200000047683716,learn,51799.999952316284,Wed Apr 16 2025 14:11:13 GMT-0400 (Eastern Daylight Time),276101.5999994278,A,gr,I,r,255,1,516.5999994277954,275585.0,9014,WL,B,4.0
2,8.733999967575073,learn,51266.00003242493,Wed Apr 16 2025 14:11:13 GMT-0400 (Eastern Daylight Time),276635.39999961853,A,gra,I,a,519,1,1050.3999996185303,275585.0,9014,WL,B,4.0
2,8.91700005531311,learn,51082.99994468689,Wed Apr 16 2025 14:11:13 GMT-0400 (Eastern Daylight Time),276818.89999961853,A,gras,I,s,159,1,1233.8999996185303,275585.0,9014,WL,B,4.0
2,9.08400011062622,learn,50915.99988937378,Wed Apr 16 2025 14:11:13 GMT-0400 (Eastern Daylight Time),276985.39999961853,A,grass,I,s,151,1,1400.3999996185303,275585.0,9014,WL,B,4.0
2,9.400000095367432,learn,50599.99990463257,Wed Apr 16 2025 14:11:13 GMT-0400 (Eastern Daylight Time),277301.5,A,grassenter,I,enter,303,1,1716.5,275585.0,9014,WL,B,4.0
2,10.050000190734863,learn,49949.99980926514,Wed Apr 16 2025 14:11:13 GMT-0400 (Eastern Daylight Time),277952.0999994278,A,w,I,w,632,1,650.1999998092651,277301.89999961853,9014,WL,B,5.0
2,10.567000150680542,learn,49432.99984931946,Wed Apr 16 2025 14:11:13 GMT-0400 (Eastern Daylight Time),278468.5,A,wi,I,i,490,1,1166.6000003814697,277301.89999961853,9014,WL,B,5.0
2,10.733999967575073,learn,49266.00003242493,Wed Apr 16 2025 14:11:13 GMT-0400 (Eastern Daylight Time),278635.29999923706,A,wid,I,d,148,1,1333.3999996185303,277301.89999961853,9014,WL,B,5.0
2,10.983000040054321,learn,49016.99995994568,Wed Apr 16 2025 14:11:13 GMT-0400 (Eastern Daylight Time),278885.0999994278,A,wide,I,e,231,1,1583.1999998092651,277301.89999961853,9014,WL,B,5.0
2,12.133000135421753,learn,47866.99986457825,Wed Apr 16 2025 14:11:13 GMT-0400 (Eastern Daylight Time),280035.0999994278,A,wid,I,backspace,1117,1,2733.199999809265,277301.89999961853,9014,WL,B,5.0
2,12.300000190734863,learn,47699.99980926514,Wed Apr 16 2025 14:11:13 GMT-0400 (Eastern Daylight Time),280201.5,A,wi,I,backspace,149,1,2899.6000003814697,277301.89999961853,9014,WL,B,5.0
2,12.800000190734863,learn,47199.99980926514,Wed Apr 16 2025 14:11:13 GMT-0400 (Eastern Daylight Time),280702.0,A,wie,I,e,485,1,3400.1000003814697,277301.89999961853,9014,WL,B,5.0
2,13.400000095367432,learn,46599.99990463257,Wed Apr 16 2025 14:11:13 GMT-0400 (Eastern Daylight Time),281301.79999923706,A,wi,I,backspace,587,1,3999.8999996185303,277301.89999961853,9014,WL,B,5.0
2,13.617000102996826,learn,46382.999897003174,Wed Apr 16 2025 14:11:13 GMT-0400 (Eastern Daylight Time),281518.69999980927,A,wif,I,f,197,1,4216.800000190735,277301.89999961853,9014,WL,B,5.0
2,13.817000150680542,learn,46182.99984931946,Wed Apr 16 2025 14:11:13 GMT-0400 (Eastern Daylight Time),281718.39999961853,A,wife,I,e,181,1,4416.5,277301.89999961853,9014,WL,B,5.0
2,14.433000087738037,learn,45566.99991226196,Wed Apr 16 2025 14:11:13 GMT-0400 (Eastern Daylight Time),282334.89999961853,A,wifeenter,I,enter,595,1,5033.0,277301.89999961853,9014,WL,B,5.0
2,14.833000183105469,learn,45166.99981689453,Wed Apr 16 2025 14:11:13 GMT-0400 (Eastern Daylight Time),282735.0999994278,A,a,I,a,383,1,399.8999996185303,282335.19999980927,9014,WL,B,6.0
2,14.983000040054321,learn,45016.99995994568,Wed Apr 16 2025 14:11:13 GMT-0400 (Eastern Daylight Time),282885.0,A,ar,I,r,139,1,549.8000001907349,282335.19999980927,9014,WL,B,6.0
2,15.400000095367432,learn,44599.99990463257,Wed Apr 16 2025 14:11:13 GMT-0400 (Eastern Daylight Time),283301.89999961853,A,arm,I,m,404,1,966.6999998092651,282335.19999980927,9014,WL,B,6.0
2,15.769000053405762,learn,44230.99994659424,Wed Apr 16 2025 14:11:13 GMT-0400 (Eastern Daylight Time),283670.29999923706,A,armenter,I,enter,340,1,1335.0999994277954,282335.19999980927,9014,WL,B,6.0
2,16.067000150680542,learn,43932.99984931946,Wed Apr 16 2025 14:11:13 GMT-0400 (Eastern Daylight Time),283968.5999994278,A,s,I,s,280,1,297.8999996185303,283670.69999980927,9014,WL,B,7.0
2,16.43400001525879,learn,43565.99998474121,Wed Apr 16 2025 14:11:13 GMT-0400 (Eastern Daylight Time),284335.29999923706,A,st,I,t,344,1,664.5999994277954,283670.69999980927,9014,WL,B,7.0
2,16.68400001525879,learn,43315.99998474121,Wed Apr 16 2025 14:11:13 GMT-0400 (Eastern Daylight Time),284585.5,A,sta,I,a,236,1,914.8000001907349,283670.69999980927,9014,WL,B,7.0
2,16.83300018310547,learn,43166.99981689453,Wed Apr 16 2025 14:11:13 GMT-0400 (Eastern Daylight Time),284735.19999980927,A,star,I,r,129,1,1064.5,283670.69999980927,9014,WL,B,7.0
2,17.183000087738037,learn,42816.99991226196,Wed Apr 16 2025 14:11:13 GMT-0400 (Eastern Daylight Time),285084.5,A,starenter,I,enter,322,1,1413.8000001907349,283670.69999980927,9014,WL,B,7.0
2,17.450000047683716,learn,42549.999952316284,Wed Apr 16 2025 14:11:13 GMT-0400 (Eastern Daylight Time),285352.0,A,w,I,w,256,1,267.1000003814697,285084.89999961853,9014,WL,B,8.0
2,17.717000007629395,learn,42282.999992370605,Wed Apr 16 2025 14:11:13 GMT-0400 (Eastern Daylight Time),285618.5999994278,A,wi,I,i,236,1,533.6999998092651,285084.89999961853,9014,WL,B,8.0
2,17.91700005531311,learn,42082.99994468689,Wed Apr 16 2025 14:11:13 GMT-0400 (Eastern Daylight Time),285818.5,A,win,I,n,186,1,733.6000003814697,285084.89999961853,9014,WL,B,8.0
2,18.134000062942505,learn,41865.999937057495,Wed Apr 16 2025 14:11:13 GMT-0400 (Eastern Daylight Time),286035.39999961853,A,wind,I,d,184,1,950.5,285084.89999961853,9014,WL,B,8.0
2,18.284000158309937,learn,41715.99984169006,Wed Apr 16 2025 14:11:13 GMT-0400 (Eastern Daylight Time),286185.39999961853,A,windo,I,o,136,1,1100.5,285084.89999961853,9014,WL,B,8.0
2,18.567000150680542,learn,41432.99984931946,Wed Apr 16 2025 14:11:13 GMT-0400 (Eastern Daylight Time),286468.5999994278,A,window,I,w,250,1,1383.6999998092651,285084.89999961853,9014,WL,B,8.0
2,19.33300018310547,learn,40666.99981689453,Wed Apr 16 2025 14:11:13 GMT-0400 (Eastern Daylight Time),287234.89999961853,A,windowenter,I,enter,741,1,2150.0,285084.89999961853,9014,WL,B,8.0
2,20.18400001525879,learn,39815.99998474121,Wed Apr 16 2025 14:11:13 GMT-0400 (Eastern Daylight Time),288085.5,A,c,I,c,827,1,850.2000007629395,287235.29999923706,9014,WL,B,9.0
2,20.33400011062622,learn,39665.99988937378,Wed Apr 16 2025 14:11:13 GMT-0400 (Eastern Daylight Time),288235.29999923706,A,ci,I,i,134,1,1000.0,287235.29999923706,9014,WL,B,9.0
2,20.567000150680542,learn,39432.99984931946,Wed Apr 16 2025 14:11:13 GMT-0400 (Eastern Daylight Time),288468.69999980927,A,cit,I,t,207,1,1233.4000005722046,287235.29999923706,9014,WL,B,9.0
2,20.66700005531311,learn,39332.99994468689,Wed Apr 16 2025 14:11:13 GMT-0400 (Eastern Daylight Time),288568.69999980927,A,city,I,y,86,1,1333.4000005722046,287235.29999923706,9014,WL,B,9.0
2,21.032999992370605,learn,38967.000007629395,Wed Apr 16 2025 14:11:13 GMT-0400 (Eastern Daylight Time),288934.89999961853,A,cityenter,I,enter,354,1,1699.6000003814697,287235.29999923706,9014,WL,B,9.0
2,22.18400001525879,learn,37815.99998474121,Wed Apr 16 2025 14:11:13 GMT-0400 (Eastern Daylight Time),290085.5,A,p,I,p,1127,1,1150.2000007629395,288935.29999923706,9014,WL,B,10.0
2,22.41700005531311,learn,37582.99994468689,Wed Apr 16 2025 14:11:13 GMT-0400 (Eastern Daylight Time),290318.5999994278,A,pu,I,u,214,1,1383.3000001907349,288935.29999923706,9014,WL,B,10.0
2,22.58400011062622,learn,37415.99988937378,Wed Apr 16 2025 14:11:13 GMT-0400 (Eastern Daylight Time),290485.29999923706,A,pup,I,p,149,1,1550.0,288935.29999923706,9014,WL,B,10.0
2,23.233999967575073,learn,36766.00003242493,Wed Apr 16 2025 14:11:13 GMT-0400 (Eastern Daylight Time),291135.39999961853,A,pupl,I,l,631,1,2200.1000003814697,288935.29999923706,9014,WL,B,10.0
2,23.733999967575073,learn,36266.00003242493,Wed Apr 16 2025 14:11:13 GMT-0400 (Eastern Daylight Time),291635.29999923706,A,pup,I,backspace,474,1,2700.0,288935.29999923706,9014,WL,B,10.0
2,23.983999967575073,learn,36016.00003242493,Wed Apr 16 2025 14:11:13 GMT-0400 (Eastern Daylight Time),291885.39999961853,A,pupi,I,i,233,1,2950.1000003814697,288935.29999923706,9014,WL,B,10.0
2,24.16700005531311,learn,35832.99994468689,Wed Apr 16 2025 14:11:13 GMT-0400 (Eastern Daylight Time),292068.69999980927,A,pupil,I,l,150,1,3133.4000005722046,288935.29999923706,9014,WL,B,10.0
2,24.883000135421753,learn,35116.99986457825,Wed Apr 16 2025 14:11:13 GMT-0400 (Eastern Daylight Time),292784.89999961853,A,pupilenter,I,enter,685,1,3849.6000003814697,288935.29999923706,9014,WL,B,10.0
2,25.700000047683716,learn,34299.999952316284,Wed Apr 16 2025 14:11:13 GMT-0400 (Eastern Daylight Time),293602.0,A,c,I,c,797,1,816.7000007629395,292785.29999923706,9014,WL,B,11.0
2,25.850000143051147,learn,34149.99985694885,Wed Apr 16 2025 14:11:13 GMT-0400 (Eastern Daylight Time),293751.89999961853,A,ca,I,a,137,1,966.6000003814697,292785.29999923706,9014,WL,B,11.0
2,26.017000198364258,learn,33982.99980163574,Wed Apr 16 2025 14:11:13 GMT-0400 (Eastern Daylight Time),293918.5999994278,A,cab,I,b,146,1,1133.3000001907349,292785.29999923706,9014,WL,B,11.0
2,26.16700005531311,learn,33832.99994468689,Wed Apr 16 2025 14:11:13 GMT-0400 (Eastern Daylight Time),294069.0999994278,A,cabi,I,i,136,1,1283.8000001907349,292785.29999923706,9014,WL,B,11.0
2,26.384000062942505,learn,33615.999937057495,Wed Apr 16 2025 14:11:13 GMT-0400 (Eastern Daylight Time),294285.39999961853,A,cabin,I,n,191,1,1500.1000003814697,292785.29999923706,9014,WL,B,11.0
2,26.782999992370605,learn,33217.000007629395,Wed Apr 16 2025 14:11:13 GMT-0400 (Eastern Daylight Time),294684.89999961853,A,cabinenter,I,enter,381,1,1899.6000003814697,292785.29999923706,9014,WL,B,11.0
2,27.217000007629395,learn,32782.999992370605,Wed Apr 16 2025 14:11:13 GMT-0400 (Eastern Daylight Time),295118.69999980927,A,l,I,l,418,1,433.4000005722046,294685.29999923706,9014,WL,B,12.0
2,27.367000102996826,learn,32632.999897003174,Wed Apr 16 2025 14:11:13 GMT-0400 (Eastern Daylight Time),295268.79999923706,A,la,I,a,125,1,583.5,294685.29999923706,9014,WL,B,12.0
2,27.467000007629395,learn,32532.999992370605,Wed Apr 16 2025 14:11:13 GMT-0400 (Eastern Daylight Time),295368.69999980927,A,lak,I,k,86,1,683.4000005722046,294685.29999923706,9014,WL,B,12.0
2,27.66700005531311,learn,32332.99994468689,Wed Apr 16 2025 14:11:13 GMT-0400 (Eastern Daylight Time),295568.5999994278,A,lake,I,e,179,1,883.3000001907349,294685.29999923706,9014,WL,B,12.0
2,27.950000047683716,learn,32049.999952316284,Wed Apr 16 2025 14:11:13 GMT-0400 (Eastern Daylight Time),295851.5999994278,A,lakeenter,I,enter,267,1,1166.3000001907349,294685.29999923706,9014,WL,B,12.0
2,28.967000007629395,learn,31032.999992370605,Wed Apr 16 2025 14:11:13 GMT-0400 (Eastern Daylight Time),296868.5,A,i,I,i,995,1,1016.4000005722046,295852.0999994278,9014,WL,B,13.0
2,29.08400011062622,learn,30915.99988937378,Wed Apr 16 2025 14:11:13 GMT-0400 (Eastern Daylight Time),296985.19999980927,A,ir,I,r,102,1,1133.1000003814697,295852.0999994278,9014,WL,B,13.0
2,29.43400001525879,learn,30565.99998474121,Wed Apr 16 2025 14:11:13 GMT-0400 (Eastern Daylight Time),297335.39999961853,A,i,I,backspace,339,1,1483.3000001907349,295852.0999994278,9014,WL,B,13.0
2,29.65000009536743,learn,30349.99990463257,Wed Apr 16 2025 14:11:13 GMT-0400 (Eastern Daylight Time),297552.0,A,,I,backspace,193,1,1699.9000005722046,295852.0999994278,9014,WL,B,13.0
2,29.850000143051147,learn,30149.999856948853,Wed Apr 16 2025 14:11:13 GMT-0400 (Eastern Daylight Time),297752.0999994278,A,f,I,f,187,1,1900.0,295852.0999994278,9014,WL,B,13.0
2,30.100000143051147,learn,29899.999856948853,Wed Apr 16 2025 14:11:13 GMT-0400 (Eastern Daylight Time),298002.0999994278,A,fi,I,i,219,1,2150.0,295852.0999994278,9014,WL,B,13.0
2,30.200000047683716,learn,29799.999952316284,Wed Apr 16 2025 14:11:13 GMT-0400 (Eastern Daylight Time),298101.69999980927,A,fir,I,r,89,1,2249.6000003814697,295852.0999994278,9014,WL,B,13.0
2,30.717000007629395,learn,29282.999992370605,Wed Apr 16 2025 14:11:13 GMT-0400 (Eastern Daylight Time),298618.69999980927,A,fire,I,e,497,1,2766.6000003814697,295852.0999994278,9014,WL,B,13.0
2,30.933000087738037,learn,29066.999912261963,Wed Apr 16 2025 14:11:13 GMT-0400 (Eastern Daylight Time),298834.89999961853,A,fireenter,I,enter,190,1,2982.800000190735,295852.0999994278,9014,WL,B,13.0
2,31.300000190734863,learn,28699.999809265137,Wed Apr 16 2025 14:11:13 GMT-0400 (Eastern Daylight Time),299202.0999994278,A,p,I,p,347,1,366.80000019073486,298835.29999923706,9014,WL,B,14.0
2,31.5,learn,28500.0,Wed Apr 16 2025 14:11:13 GMT-0400 (Eastern Daylight Time),299402.0999994278,A,pi,I,i,186,1,566.8000001907349,298835.29999923706,9014,WL,B,14.0
2,32.2020001411438,learn,27797.9998588562,Wed Apr 16 2025 14:11:13 GMT-0400 (Eastern Daylight Time),300104.0,A,pip,I,p,681,1,1268.7000007629395,298835.29999923706,9014,WL,B,14.0
2,32.40000009536743,learn,27599.99990463257,Wed Apr 16 2025 14:11:13 GMT-0400 (Eastern Daylight Time),300302.0,A,pipe,I,e,177,1,1466.7000007629395,298835.29999923706,9014,WL,B,14.0
2,32.85000014305115,learn,27149.999856948853,Wed Apr 16 2025 14:11:13 GMT-0400 (Eastern Daylight Time),300751.39999961853,A,pipeenter,I,enter,420,1,1916.1000003814697,298835.29999923706,9014,WL,B,14.0
2,33.16700005531311,learn,26832.99994468689,Wed Apr 16 2025 14:11:13 GMT-0400 (Eastern Daylight Time),301068.39999961853,A,c,I,c,302,1,316.6000003814697,300751.79999923706,9014,WL,B,15.0
2,33.91700005531311,learn,26082.99994468689,Wed Apr 16 2025 14:11:13 GMT-0400 (Eastern Daylight Time),301818.69999980927,A,co,I,o,734,1,1066.9000005722046,300751.79999923706,9014,WL,B,15.0
2,34.18400001525879,learn,25815.99998474121,Wed Apr 16 2025 14:11:13 GMT-0400 (Eastern Daylight Time),302085.39999961853,A,col,I,l,257,1,1333.6000003814697,300751.79999923706,9014,WL,B,15.0
2,34.43400001525879,learn,25565.99998474121,Wed Apr 16 2025 14:11:13 GMT-0400 (Eastern Daylight Time),302335.29999923706,A,colo,I,o,221,1,1583.5,300751.79999923706,9014,WL,B,15.0
2,34.83400011062622,learn,25165.99988937378,Wed Apr 16 2025 14:11:13 GMT-0400 (Eastern Daylight Time),302735.39999961853,A,col,I,backspace,372,1,1983.6000003814697,300751.79999923706,9014,WL,B,15.0
2,34.98399996757507,learn,25016.000032424927,Wed Apr 16 2025 14:11:13 GMT-0400 (Eastern Daylight Time),302885.29999923706,A,co,I,backspace,122,1,2133.5,300751.79999923706,9014,WL,B,15.0
2,35.134000062942505,learn,24865.999937057495,Wed Apr 16 2025 14:11:13 GMT-0400 (Eastern Daylight Time),303035.29999923706,A,c,I,backspace,126,1,2283.5,300751.79999923706,9014,WL,B,15.0
2,35.384000062942505,learn,24615.999937057495,Wed Apr 16 2025 14:11:13 GMT-0400 (Eastern Daylight Time),303285.39999961853,A,cl,I,l,238,1,2533.6000003814697,300751.79999923706,9014,WL,B,15.0
2,35.56700015068054,learn,24432.999849319458,Wed Apr 16 2025 14:11:13 GMT-0400 (Eastern Daylight Time),303468.79999923706,A,clo,I,o,165,1,2717.0,300751.79999923706,9014,WL,B,15.0
2,35.75,learn,24250.0,Wed Apr 16 2025 14:11:13 GMT-0400 (Eastern Daylight Time),303652.0,A,cloc,I,c,155,1,2900.2000007629395,300751.79999923706,9014,WL,B,15.0
2,35.867000102996826,learn,24132.999897003174,Wed Apr 16 2025 14:11:13 GMT-0400 (Eastern Daylight Time),303768.79999923706,A,clock,I,k,104,1,3017.0,300751.79999923706,9014,WL,B,15.0
2,36.81700015068054,learn,23182.999849319458,Wed Apr 16 2025 14:11:13 GMT-0400 (Eastern Daylight Time),304718.19999980927,A,clockenter,I,enter,922,1,3966.4000005722046,300751.79999923706,9014,WL,B,15.0
3,1.0,learn,59000.0,Wed Apr 16 2025 14:11:13 GMT-0400 (Eastern Daylight Time),376602.0,A,s,I,s,979,1,999.7000007629395,375602.29999923706,9014,WL,B,1.0
3,1.317000150680542,learn,58682.99984931946,Wed Apr 16 2025 14:11:13 GMT-0400 (Eastern Daylight Time),376918.5999994278,A,st,I,t,305,1,1316.3000001907349,375602.29999923706,9014,WL,B,1.0
3,1.683000087738037,learn,58316.99991226196,Wed Apr 16 2025 14:11:13 GMT-0400 (Eastern Daylight Time),377285.0999994278,A,str,I,r,342,1,1682.8000001907349,375602.29999923706,9014,WL,B,1.0
3,1.933000087738037,learn,58066.99991226196,Wed Apr 16 2025 14:11:13 GMT-0400 (Eastern Daylight Time),377535.0999994278,A,stre,I,e,228,1,1932.8000001907349,375602.29999923706,9014,WL,B,1.0
3,2.1000001430511475,learn,57899.99985694885,Wed Apr 16 2025 14:11:13 GMT-0400 (Eastern Daylight Time),377701.5999994278,A,stree,I,e,155,1,2099.300000190735,375602.29999923706,9014,WL,B,1.0
3,2.3340001106262207,learn,57665.99988937378,Wed Apr 16 2025 14:11:13 GMT-0400 (Eastern Daylight Time),377935.19999980927,A,street,I,t,205,1,2332.9000005722046,375602.29999923706,9014,WL,B,1.0
3,2.7660000324249268,learn,57233.99996757507,Wed Apr 16 2025 14:11:13 GMT-0400 (Eastern Daylight Time),378368.19999980927,A,streetenter,I,enter,410,1,2765.9000005722046,375602.29999923706,9014,WL,B,1.0
3,3.1670000553131104,learn,56832.99994468689,Wed Apr 16 2025 14:11:13 GMT-0400 (Eastern Daylight Time),378768.29999923706,A,s,I,s,382,1,399.79999923706055,378368.5,9014,WL,B,2.0
3,3.2829999923706055,learn,56717.000007629395,Wed Apr 16 2025 14:11:13 GMT-0400 (Eastern Daylight Time),378885.0,A,sk,I,k,106,1,516.5,378368.5,9014,WL,B,2.0
3,3.4839999675750732,learn,56516.00003242493,Wed Apr 16 2025 14:11:13 GMT-0400 (Eastern Daylight Time),379085.39999961853,A,ski,I,i,183,1,716.8999996185303,378368.5,9014,WL,B,2.0
3,3.683000087738037,learn,56316.99991226196,Wed Apr 16 2025 14:11:13 GMT-0400 (Eastern Daylight Time),379284.79999923706,A,skin,I,n,173,1,916.2999992370605,378368.5,9014,WL,B,2.0
3,3.9830000400543213,learn,56016.99995994568,Wed Apr 16 2025 14:11:13 GMT-0400 (Eastern Daylight Time),379584.69999980927,A,skinenter,I,enter,281,1,1216.1999998092651,378368.5,9014,WL,B,2.0
3,7.334000110626221,learn,52665.99988937378,Wed Apr 16 2025 14:11:13 GMT-0400 (Eastern Daylight Time),382935.29999923706,A,g,I,g,3340,1,3350.2999992370605,379585.0,9014,WL,B,3.0
3,7.617000102996826,learn,52382.999897003174,Wed Apr 16 2025 14:11:13 GMT-0400 (Eastern Daylight Time),383218.39999961853,A,gr,I,r,251,1,3633.3999996185303,379585.0,9014,WL,B,3.0
3,7.817000150680542,learn,52182.99984931946,Wed Apr 16 2025 14:11:13 GMT-0400 (Eastern Daylight Time),383418.5999994278,A,gra,I,a,184,1,3833.5999994277954,379585.0,9014,WL,B,3.0
3,8.067000150680542,learn,51932.99984931946,Wed Apr 16 2025 14:11:13 GMT-0400 (Eastern Daylight Time),383668.5999994278,A,gras,I,s,224,1,4083.5999994277954,379585.0,9014,WL,B,3.0
3,8.233000040054321,learn,51766.99995994568,Wed Apr 16 2025 14:11:13 GMT-0400 (Eastern Daylight Time),383835.19999980927,A,grass,I,s,149,1,4250.199999809265,379585.0,9014,WL,B,3.0
3,8.467000007629395,learn,51532.999992370605,Wed Apr 16 2025 14:11:13 GMT-0400 (Eastern Daylight Time),384068.19999980927,A,grassenter,I,enter,216,1,4483.199999809265,379585.0,9014,WL,B,3.0
3,9.350000143051147,learn,50649.99985694885,Wed Apr 16 2025 14:11:13 GMT-0400 (Eastern Daylight Time),384951.89999961853,A,d,I,d,874,1,883.3999996185303,384068.5,9014,WL,B,4.0
3,9.633000135421753,learn,50366.99986457825,Wed Apr 16 2025 14:11:13 GMT-0400 (Eastern Daylight Time),385235.19999980927,A,do,I,o,257,1,1166.6999998092651,384068.5,9014,WL,B,4.0
3,10.117000102996826,learn,49882.999897003174,Wed Apr 16 2025 14:11:13 GMT-0400 (Eastern Daylight Time),385718.5,A,doo,I,o,472,1,1650.0,384068.5,9014,WL,B,4.0
3,11.733999967575073,learn,48266.00003242493,Wed Apr 16 2025 14:11:13 GMT-0400 (Eastern Daylight Time),387335.29999923706,A,do,I,backspace,1604,1,3266.7999992370605,384068.5,9014,WL,B,4.0
3,11.933000087738037,learn,48066.99991226196,Wed Apr 16 2025 14:11:13 GMT-0400 (Eastern Daylight Time),387535.19999980927,A,d,I,backspace,179,1,3466.699999809265,384068.5,9014,WL,B,4.0
3,12.117000102996826,learn,47882.999897003174,Wed Apr 16 2025 14:11:13 GMT-0400 (Eastern Daylight Time),387718.5,A,,I,backspace,171,1,3650.0,384068.5,9014,WL,B,4.0
3,12.350000143051147,learn,47649.99985694885,Wed Apr 16 2025 14:11:13 GMT-0400 (Eastern Daylight Time),387952.0,A,a,I,a,212,1,3883.5,384068.5,9014,WL,B,4.0
3,12.5,learn,47500.0,Wed Apr 16 2025 14:11:13 GMT-0400 (Eastern Daylight Time),388101.5,A,ar,I,r,139,1,4033.0,384068.5,9014,WL,B,4.0
3,12.983999967575073,learn,47016.00003242493,Wed Apr 16 2025 14:11:13 GMT-0400 (Eastern Daylight Time),388585.29999923706,A,arm,I,m,462,1,4516.799999237061,384068.5,9014,WL,B,4.0
3,13.549999952316284,learn,46450.000047683716,Wed Apr 16 2025 14:11:13 GMT-0400 (Eastern Daylight Time),389151.29999923706,A,armenter,I,enter,545,1,5082.799999237061,384068.5,9014,WL,B,4.0
3,14.049999952316284,learn,45950.000047683716,Wed Apr 16 2025 14:11:13 GMT-0400 (Eastern Daylight Time),389651.79999923706,A,w,I,w,478,1,500.0,389151.79999923706,9014,WL,B,5.0
3,14.516999959945679,learn,45483.00004005432,Wed Apr 16 2025 14:11:13 GMT-0400 (Eastern Daylight Time),390118.29999923706,A,wi,I,i,454,1,966.5,389151.79999923706,9014,WL,B,5.0
3,14.683000087738037,learn,45316.99991226196,Wed Apr 16 2025 14:11:13 GMT-0400 (Eastern Daylight Time),390284.69999980927,A,wif,I,f,146,1,1132.9000005722046,389151.79999923706,9014,WL,B,5.0
3,14.883000135421753,learn,45116.99986457825,Wed Apr 16 2025 14:11:13 GMT-0400 (Eastern Daylight Time),390485.19999980927,A,wife,I,e,178,1,1333.4000005722046,389151.79999923706,9014,WL,B,5.0
3,15.065999984741211,learn,44934.00001525879,Wed Apr 16 2025 14:11:13 GMT-0400 (Eastern Daylight Time),390668.0999994278,A,wifeenter,I,enter,165,1,1516.3000001907349,389151.79999923706,9014,WL,B,5.0
3,15.783999919891357,learn,44216.00008010864,Wed Apr 16 2025 14:11:13 GMT-0400 (Eastern Daylight Time),391385.29999923706,A,s,I,s,705,1,716.7999992370605,390668.5,9014,WL,B,6.0
3,15.933000087738037,learn,44066.99991226196,Wed Apr 16 2025 14:11:13 GMT-0400 (Eastern Daylight Time),391535.19999980927,A,st,I,t,130,1,866.6999998092651,390668.5,9014,WL,B,6.0
3,16.134000062942505,learn,43865.999937057495,Wed Apr 16 2025 14:11:13 GMT-0400 (Eastern Daylight Time),391735.29999923706,A,sta,I,a,180,1,1066.7999992370605,390668.5,9014,WL,B,6.0
3,16.200000047683716,learn,43799.999952316284,Wed Apr 16 2025 14:11:13 GMT-0400 (Eastern Daylight Time),391801.5,A,star,I,r,51,1,1133.0,390668.5,9014,WL,B,6.0
3,16.90000009536743,learn,43099.99990463257,Wed Apr 16 2025 14:11:13 GMT-0400 (Eastern Daylight Time),392501.19999980927,A,starenter,I,enter,688,1,1832.6999998092651,390668.5,9014,WL,B,6.0
3,17.384000062942505,learn,42615.999937057495,Wed Apr 16 2025 14:11:13 GMT-0400 (Eastern Daylight Time),392985.29999923706,A,w,I,w,472,1,483.5999994277954,392501.69999980927,9014,WL,B,7.0
3,17.58400011062622,learn,42415.99988937378,Wed Apr 16 2025 14:11:13 GMT-0400 (Eastern Daylight Time),393185.29999923706,A,wi,I,i,177,1,683.5999994277954,392501.69999980927,9014,WL,B,7.0
3,17.75,learn,42250.0,Wed Apr 16 2025 14:11:13 GMT-0400 (Eastern Daylight Time),393352.0,A,win,I,n,147,1,850.3000001907349,392501.69999980927,9014,WL,B,7.0
3,17.83299994468689,learn,42167.00005531311,Wed Apr 16 2025 14:11:13 GMT-0400 (Eastern Daylight Time),393435.19999980927,A,wind,I,d,66,1,933.5,392501.69999980927,9014,WL,B,7.0
3,18.100000143051147,learn,41899.99985694885,Wed Apr 16 2025 14:11:13 GMT-0400 (Eastern Daylight Time),393701.5999994278,A,windo,I,o,249,1,1199.8999996185303,392501.69999980927,9014,WL,B,7.0
3,18.66700005531311,learn,41332.99994468689,Wed Apr 16 2025 14:11:13 GMT-0400 (Eastern Daylight Time),394268.5,A,window,I,w,549,1,1766.8000001907349,392501.69999980927,9014,WL,B,7.0
3,19.25,learn,40750.0,Wed Apr 16 2025 14:11:13 GMT-0400 (Eastern Daylight Time),394851.39999961853,A,windowenter,I,enter,558,1,2349.699999809265,392501.69999980927,9014,WL,B,7.0
3,19.532999992370605,learn,40467.000007629395,Wed Apr 16 2025 14:11:13 GMT-0400 (Eastern Daylight Time),395135.19999980927,A,c,I,c,267,1,283.30000019073486,394851.89999961853,9014,WL,B,8.0
3,19.634000062942505,learn,40365.999937057495,Wed Apr 16 2025 14:11:13 GMT-0400 (Eastern Daylight Time),395235.29999923706,A,ci,I,i,76,1,383.3999996185303,394851.89999961853,9014,WL,B,8.0
3,19.817000150680542,learn,40182.99984931946,Wed Apr 16 2025 14:11:13 GMT-0400 (Eastern Daylight Time),395418.5,A,cit,I,t,168,1,566.6000003814697,394851.89999961853,9014,WL,B,8.0
3,19.91700005531311,learn,40082.99994468689,Wed Apr 16 2025 14:11:13 GMT-0400 (Eastern Daylight Time),395518.5,A,city,I,y,80,1,666.6000003814697,394851.89999961853,9014,WL,B,8.0
3,20.25,learn,39750.0,Wed Apr 16 2025 14:11:13 GMT-0400 (Eastern Daylight Time),395851.5,A,cityenter,I,enter,309,1,999.6000003814697,394851.89999961853,9014,WL,B,8.0
3,20.799999952316284,learn,39200.000047683716,Wed Apr 16 2025 14:11:13 GMT-0400 (Eastern Daylight Time),396401.89999961853,A,p,I,p,530,1,550.1000003814697,395851.79999923706,9014,WL,B,9.0
3,21.0,learn,39000.0,Wed Apr 16 2025 14:11:13 GMT-0400 (Eastern Daylight Time),396601.89999961853,A,pu,I,u,184,1,750.1000003814697,395851.79999923706,9014,WL,B,9.0
3,21.117000102996826,learn,38882.999897003174,Wed Apr 16 2025 14:11:13 GMT-0400 (Eastern Daylight Time),396718.39999961853,A,pup,I,p,88,1,866.6000003814697,395851.79999923706,9014,WL,B,9.0
3,21.433000087738037,learn,38566.99991226196,Wed Apr 16 2025 14:11:13 GMT-0400 (Eastern Daylight Time),397035.19999980927,A,pupl,I,l,300,1,1183.4000005722046,395851.79999923706,9014,WL,B,9.0
3,21.91700005531311,learn,38082.99994468689,Wed Apr 16 2025 14:11:13 GMT-0400 (Eastern Daylight Time),397518.39999961853,A,pup,I,backspace,460,1,1666.6000003814697,395851.79999923706,9014,WL,B,9.0
3,22.15000009536743,learn,37849.99990463257,Wed Apr 16 2025 14:11:13 GMT-0400 (Eastern Daylight Time),397751.79999923706,A,pupi,I,i,221,1,1900.0,395851.79999923706,9014,WL,B,9.0
3,22.33400011062622,learn,37665.99988937378,Wed Apr 16 2025 14:11:13 GMT-0400 (Eastern Daylight Time),397935.39999961853,A,pupil,I,l,162,1,2083.6000003814697,395851.79999923706,9014,WL,B,9.0
3,22.58299994468689,learn,37417.00005531311,Wed Apr 16 2025 14:11:13 GMT-0400 (Eastern Daylight Time),398184.69999980927,A,pupilenter,I,enter,234,1,2332.9000005722046,395851.79999923706,9014,WL,B,9.0
3,23.200000047683716,learn,36799.999952316284,Wed Apr 16 2025 14:11:13 GMT-0400 (Eastern Daylight Time),398802.0,A,c,I,c,596,1,616.8000001907349,398185.19999980927,9014,WL,B,10.0
3,23.33299994468689,learn,36667.00005531311,Wed Apr 16 2025 14:11:13 GMT-0400 (Eastern Daylight Time),398935.0,A,ca,I,a,121,1,749.8000001907349,398185.19999980927,9014,WL,B,10.0
3,23.5,learn,36500.0,Wed Apr 16 2025 14:11:13 GMT-0400 (Eastern Daylight Time),399101.89999961853,A,cab,I,b,147,1,916.6999998092651,398185.19999980927,9014,WL,B,10.0
3,24.067000150680542,learn,35932.99984931946,Wed Apr 16 2025 14:11:13 GMT-0400 (Eastern Daylight Time),399668.5,A,cabn,I,n,542,1,1483.3000001907349,398185.19999980927,9014,WL,B,10.0
3,24.75,learn,35250.0,Wed Apr 16 2025 14:11:13 GMT-0400 (Eastern Daylight Time),400352.0999994278,A,cab,I,backspace,660,1,2166.8999996185303,398185.19999980927,9014,WL,B,10.0
3,25.16700005531311,learn,34832.99994468689,Wed Apr 16 2025 14:11:13 GMT-0400 (Eastern Daylight Time),400768.5999994278,A,cabi,I,i,393,1,2583.3999996185303,398185.19999980927,9014,WL,B,10.0
3,25.367000102996826,learn,34632.999897003174,Wed Apr 16 2025 14:11:13 GMT-0400 (Eastern Daylight Time),400968.29999923706,A,cabin,I,n,185,1,2783.0999994277954,398185.19999980927,9014,WL,B,10.0
3,25.66600012779236,learn,34333.99987220764,Wed Apr 16 2025 14:11:13 GMT-0400 (Eastern Daylight Time),401268.0,A,cabinenter,I,enter,274,1,3082.800000190735,398185.19999980927,9014,WL,B,10.0
3,27.0,learn,33000.0,Wed Apr 16 2025 14:11:13 GMT-0400 (Eastern Daylight Time),402601.89999961853,A,l,I,l,1322,1,1333.5,401268.39999961853,9014,WL,B,11.0
3,27.100000143051147,learn,32899.99985694885,Wed Apr 16 2025 14:11:13 GMT-0400 (Eastern Daylight Time),402701.89999961853,A,la,I,a,80,1,1433.5,401268.39999961853,9014,WL,B,11.0
3,27.350000143051147,learn,32649.999856948853,Wed Apr 16 2025 14:11:13 GMT-0400 (Eastern Daylight Time),402951.79999923706,A,lak,I,k,233,1,1683.3999996185303,401268.39999961853,9014,WL,B,11.0
3,27.5,learn,32500.0,Wed Apr 16 2025 14:11:13 GMT-0400 (Eastern Daylight Time),403101.89999961853,A,lake,I,e,132,1,1833.5,401268.39999961853,9014,WL,B,11.0
3,28.08299994468689,learn,31917.00005531311,Wed Apr 16 2025 14:11:13 GMT-0400 (Eastern Daylight Time),403685.19999980927,A,lakep,I,p,566,1,2416.800000190735,401268.39999961853,9014,WL,B,11.0
3,28.782999992370605,learn,31217.000007629395,Wed Apr 16 2025 14:11:13 GMT-0400 (Eastern Daylight Time),404385.0999994278,A,lake,I,backspace,678,1,3116.699999809265,401268.39999961853,9014,WL,B,11.0
3,29.299999952316284,learn,30700.000047683716,Wed Apr 16 2025 14:11:13 GMT-0400 (Eastern Daylight Time),404901.29999923706,A,lakeenter,I,enter,505,1,3632.8999996185303,401268.39999961853,9014,WL,B,11.0
3,29.81599998474121,learn,30184.00001525879,Wed Apr 16 2025 14:11:13 GMT-0400 (Eastern Daylight Time),405417.69999980927,A,p,I,p,502,1,515.8000001907349,404901.89999961853,9014,WL,B,12.0
3,30.049999952316284,learn,29950.000047683716,Wed Apr 16 2025 14:11:13 GMT-0400 (Eastern Daylight Time),405651.89999961853,A,pi,I,i,209,1,750.0,404901.89999961853,9014,WL,B,12.0
3,30.41700005531311,learn,29582.99994468689,Wed Apr 16 2025 14:11:13 GMT-0400 (Eastern Daylight Time),406018.39999961853,A,pip,I,p,336,1,1116.5,404901.89999961853,9014,WL,B,12.0
3,30.717000007629395,learn,29282.999992370605,Wed Apr 16 2025 14:11:13 GMT-0400 (Eastern Daylight Time),406318.5,A,pipe,I,e,280,1,1416.6000003814697,404901.89999961853,9014,WL,B,12.0
3,31.016000032424927,learn,28983.999967575073,Wed Apr 16 2025 14:11:13 GMT-0400 (Eastern Daylight Time),406618.0,A,pipeenter,I,enter,284,1,1716.1000003814697,404901.89999961853,9014,WL,B,12.0
3,32.134000062942505,learn,27865.999937057495,Wed Apr 16 2025 14:11:13 GMT-0400 (Eastern Daylight Time),407735.19999980927,A,f,I,f,1107,1,1116.8000001907349,406618.39999961853,9014,WL,B,13.0
3,32.26699995994568,learn,27733.00004005432,Wed Apr 16 2025 14:11:13 GMT-0400 (Eastern Daylight Time),407868.5,A,fi,I,i,113,1,1250.1000003814697,406618.39999961853,9014,WL,B,13.0
3,32.81700015068054,learn,27182.999849319458,Wed Apr 16 2025 14:11:13 GMT-0400 (Eastern Daylight Time),408418.39999961853,A,f,I,backspace,519,1,1800.0,406618.39999961853,9014,WL,B,13.0
3,32.93300008773804,learn,27066.999912261963,Wed Apr 16 2025 14:11:13 GMT-0400 (Eastern Daylight Time),408535.0999994278,A,,I,backspace,104,1,1916.6999998092651,406618.39999961853,9014,WL,B,13.0
3,34.58400011062622,learn,25415.99988937378,Wed Apr 16 2025 14:11:13 GMT-0400 (Eastern Daylight Time),410185.19999980927,A,f,I,f,1629,1,3566.800000190735,406618.39999961853,9014,WL,B,13.0
3,35.25,learn,24750.0,Wed Apr 16 2025 14:11:13 GMT-0400 (Eastern Daylight Time),410851.89999961853,A,fi,I,i,641,1,4233.5,406618.39999961853,9014,WL,B,13.0
3,35.467000007629395,learn,24532.999992370605,Wed Apr 16 2025 14:11:13 GMT-0400 (Eastern Daylight Time),411068.5999994278,A,fir,I,r,197,1,4450.199999809265,406618.39999961853,9014,WL,B,13.0
3,35.48900008201599,learn,24510.99991798401,Wed Apr 16 2025 14:11:13 GMT-0400 (Eastern Daylight Time),411090.79999923706,A,fire,I,e,2,1,4472.39999961853,406618.39999961853,9014,WL,B,13.0
3,36.01699995994568,learn,23983.00004005432,Wed Apr 16 2025 14:11:13 GMT-0400 (Eastern Daylight Time),411618.19999980927,A,fir,I,backspace,499,1,4999.800000190735,406618.39999961853,9014,WL,B,13.0
3,36.16700005531311,learn,23832.99994468689,Wed Apr 16 2025 14:11:13 GMT-0400 (Eastern Daylight Time),411768.39999961853,A,fi,I,backspace,137,1,5150.0,406618.39999961853,9014,WL,B,13.0
3,36.299999952316284,learn,23700.000047683716,Wed Apr 16 2025 14:11:13 GMT-0400 (Eastern Daylight Time),411901.89999961853,A,f,I,backspace,106,1,5283.5,406618.39999961853,9014,WL,B,13.0
3,36.467000007629395,learn,23532.999992370605,Wed Apr 16 2025 14:11:13 GMT-0400 (Eastern Daylight Time),412068.5,A,,I,backspace,140,1,5450.10000038147,406618.39999961853,9014,WL,B,13.0
3,36.65000009536743,learn,23349.99990463257,Wed Apr 16 2025 14:11:13 GMT-0400 (Eastern Daylight Time),412251.69999980927,A,c,I,c,166,1,5633.300000190735,406618.39999961853,9014,WL,B,13.0
3,36.76699995994568,learn,23233.00004005432,Wed Apr 16 2025 14:11:13 GMT-0400 (Eastern Daylight Time),412368.5,A,co,I,o,95,1,5750.10000038147,406618.39999961853,9014,WL,B,13.0
3,37.13300013542175,learn,22866.999864578247,Wed Apr 16 2025 14:11:13 GMT-0400 (Eastern Daylight Time),412734.39999961853,A,col,I,l,337,1,6116.0,406618.39999961853,9014,WL,B,13.0
3,37.35000014305115,learn,22649.999856948853,Wed Apr 16 2025 14:11:13 GMT-0400 (Eastern Daylight Time),412951.89999961853,A,colo,I,o,207,1,6333.5,406618.39999961853,9014,WL,B,13.0
3,37.65000009536743,learn,22349.99990463257,Wed Apr 16 2025 14:11:13 GMT-0400 (Eastern Daylight Time),413251.89999961853,A,col,I,backspace,274,1,6633.5,406618.39999961853,9014,WL,B,13.0
3,37.76699995994568,learn,22233.00004005432,Wed Apr 16 2025 14:11:13 GMT-0400 (Eastern Daylight Time),413368.5,A,co,I,backspace,101,1,6750.10000038147,406618.39999961853,9014,WL,B,13.0
3,37.90000009536743,learn,22099.99990463257,Wed Apr 16 2025 14:11:13 GMT-0400 (Eastern Daylight Time),413501.89999961853,A,c,I,backspace,115,1,6883.5,406618.39999961853,9014,WL,B,13.0
3,38.10000014305115,learn,21899.999856948853,Wed Apr 16 2025 14:11:13 GMT-0400 (Eastern Daylight Time),413701.39999961853,A,cl,I,l,182,1,7083.0,406618.39999961853,9014,WL,B,13.0
3,38.28399991989136,learn,21716.000080108643,Wed Apr 16 2025 14:11:13 GMT-0400 (Eastern Daylight Time),413885.29999923706,A,clo,I,o,166,1,7266.89999961853,406618.39999961853,9014,WL,B,13.0
3,38.40000009536743,learn,21599.99990463257,Wed Apr 16 2025 14:11:13 GMT-0400 (Eastern Daylight Time),414001.79999923706,A,cloc,I,c,85,1,7383.39999961853,406618.39999961853,9014,WL,B,13.0
3,38.48300004005432,learn,21516.99995994568,Wed Apr 16 2025 14:11:13 GMT-0400 (Eastern Daylight Time),414085.0999994278,A,clock,I,k,65,1,7466.699999809265,406618.39999961853,9014,WL,B,13.0
3,38.83299994468689,learn,21167.00005531311,Wed Apr 16 2025 14:11:13 GMT-0400 (Eastern Daylight Time),414434.69999980927,A,clockenter,I,enter,325,1,7816.300000190735,406618.39999961853,9014,WL,B,13.0
3,39.60000014305115,learn,20399.999856948853,Wed Apr 16 2025 14:11:13 GMT-0400 (Eastern Daylight Time),415201.89999961853,A,f,I,f,746,1,766.6999998092651,414435.19999980927,9014,WL,B,14.0
3,39.66600012779236,learn,20333.99987220764,Wed Apr 16 2025 14:11:13 GMT-0400 (Eastern Daylight Time),415268.0999994278,A,fi,I,i,55,1,832.8999996185303,414435.19999980927,9014,WL,B,14.0
3,39.83400011062622,learn,20165.99988937378,Wed Apr 16 2025 14:11:13 GMT-0400 (Eastern Daylight Time),415435.19999980927,A,fir,I,r,152,1,1000.0,414435.19999980927,9014,WL,B,14.0
3,39.93300008773804,learn,20066.999912261963,Wed Apr 16 2025 14:11:13 GMT-0400 (Eastern Daylight Time),415535.0,A,fire,I,e,79,1,1099.8000001907349,414435.19999980927,9014,WL,B,14.0
3,40.21600008010864,learn,19783.999919891357,Wed Apr 16 2025 14:11:13 GMT-0400 (Eastern Daylight Time),415818.0,A,fireenter,I,enter,258,1,1382.8000001907349,414435.19999980927,9014,WL,B,14.0
3,60.01699995994568,learn,-16.99995994567871,Wed Apr 16 2025 14:11:13 GMT-0400 (Eastern Daylight Time),435618.5999994278,A,None,I,None,19794,1,19800.199999809265,415818.39999961853,9014,WL,B,15.0
4,0.8669998645782471,learn,59133.00013542175,Wed Apr 16 2025 14:11:13 GMT-0400 (Eastern Daylight Time),505685.0,A,s,I,s,841,1,866.3000001907349,504818.69999980927,9014,WL,B,1.0
4,1.1340000629425049,learn,58865.999937057495,Wed Apr 16 2025 14:11:13 GMT-0400 (Eastern Daylight Time),505951.19999980927,A,st,I,t,244,1,1132.5,504818.69999980927,9014,WL,B,1.0
4,1.4010000228881836,learn,58598.99997711182,Wed Apr 16 2025 14:11:13 GMT-0400 (Eastern Daylight Time),506218.29999923706,A,str,I,r,254,1,1399.5999994277954,504818.69999980927,9014,WL,B,1.0
4,1.6340000629425049,learn,58365.999937057495,Wed Apr 16 2025 14:11:13 GMT-0400 (Eastern Daylight Time),506451.69999980927,A,stre,I,e,208,1,1633.0,504818.69999980927,9014,WL,B,1.0
4,1.816999912261963,learn,58183.00008773804,Wed Apr 16 2025 14:11:13 GMT-0400 (Eastern Daylight Time),506635.0999994278,A,stree,I,e,159,1,1816.3999996185303,504818.69999980927,9014,WL,B,1.0
4,2.0339999198913574,learn,57966.00008010864,Wed Apr 16 2025 14:11:13 GMT-0400 (Eastern Daylight Time),506851.5999994278,A,street,I,t,191,1,2032.8999996185303,504818.69999980927,9014,WL,B,1.0
4,2.3999998569488525,learn,57600.00014305115,Wed Apr 16 2025 14:11:13 GMT-0400 (Eastern Daylight Time),507218.0,A,streetenter,I,enter,342,1,2399.300000190735,504818.69999980927,9014,WL,B,1.0
4,2.750999927520752,learn,57249.00007247925,Wed Apr 16 2025 14:11:13 GMT-0400 (Eastern Daylight Time),507568.39999961853,A,g,I,g,331,1,350.1000003814697,507218.29999923706,9014,WL,B,2.0
4,3.0339999198913574,learn,56966.00008010864,Wed Apr 16 2025 14:11:13 GMT-0400 (Eastern Daylight Time),507851.89999961853,A,gr,I,r,266,1,633.6000003814697,507218.29999923706,9014,WL,B,2.0
4,3.250999927520752,learn,56749.00007247925,Wed Apr 16 2025 14:11:13 GMT-0400 (Eastern Daylight Time),508068.29999923706,A,gra,I,a,190,1,850.0,507218.29999923706,9014,WL,B,2.0
4,3.500999927520752,learn,56499.00007247925,Wed Apr 16 2025 14:11:13 GMT-0400 (Eastern Daylight Time),508318.5,A,gras,I,s,231,1,1100.2000007629395,507218.29999923706,9014,WL,B,2.0
4,3.6670000553131104,learn,56332.99994468689,Wed Apr 16 2025 14:11:13 GMT-0400 (Eastern Daylight Time),508484.69999980927,A,grass,I,s,149,1,1266.4000005722046,507218.29999923706,9014,WL,B,2.0
4,3.950000047683716,learn,56049.999952316284,Wed Apr 16 2025 14:11:13 GMT-0400 (Eastern Daylight Time),508767.89999961853,A,grassenter,I,enter,261,1,1549.6000003814697,507218.29999923706,9014,WL,B,2.0
4,4.250999927520752,learn,55749.00007247925,Wed Apr 16 2025 14:11:13 GMT-0400 (Eastern Daylight Time),509068.29999923706,A,d,I,d,285,1,299.8999996185303,508768.39999961853,9014,WL,B,3.0
4,4.384000062942505,learn,55615.999937057495,Wed Apr 16 2025 14:11:13 GMT-0400 (Eastern Daylight Time),509201.5,A,do,I,o,112,1,433.1000003814697,508768.39999961853,9014,WL,B,3.0
4,4.5,learn,55500.0,Wed Apr 16 2025 14:11:13 GMT-0400 (Eastern Daylight Time),509318.0999994278,A,doo,I,o,98,1,549.6999998092651,508768.39999961853,9014,WL,B,3.0
4,4.66700005531311,learn,55332.99994468689,Wed Apr 16 2025 14:11:13 GMT-0400 (Eastern Daylight Time),509485.0999994278,A,door,I,r,142,1,716.6999998092651,508768.39999961853,9014,WL,B,3.0
4,5.134000062942505,learn,54865.999937057495,Wed Apr 16 2025 14:11:13 GMT-0400 (Eastern Daylight Time),509951.29999923706,A,doorenter,I,enter,445,1,1182.8999996185303,508768.39999961853,9014,WL,B,3.0
4,5.550999879837036,learn,54449.000120162964,Wed Apr 16 2025 14:11:13 GMT-0400 (Eastern Daylight Time),510368.29999923706,A,a,I,a,398,1,416.69999980926514,509951.5999994278,9014,WL,B,4.0
4,5.66700005531311,learn,54332.99994468689,Wed Apr 16 2025 14:11:13 GMT-0400 (Eastern Daylight Time),510484.79999923706,A,ar,I,r,106,1,533.1999998092651,509951.5999994278,9014,WL,B,4.0
4,5.884000062942505,learn,54115.999937057495,Wed Apr 16 2025 14:11:13 GMT-0400 (Eastern Daylight Time),510701.79999923706,A,arm,I,m,190,1,750.1999998092651,509951.5999994278,9014,WL,B,4.0
4,6.184000015258789,learn,53815.99998474121,Wed Apr 16 2025 14:11:13 GMT-0400 (Eastern Daylight Time),511001.19999980927,A,armenter,I,enter,284,1,1049.6000003814697,509951.5999994278,9014,WL,B,4.0
4,6.583999872207642,learn,53416.00012779236,Wed Apr 16 2025 14:11:13 GMT-0400 (Eastern Daylight Time),511401.69999980927,A,w,I,w,387,1,400.1000003814697,511001.5999994278,9014,WL,B,5.0
4,6.750999927520752,learn,53249.00007247925,Wed Apr 16 2025 14:11:13 GMT-0400 (Eastern Daylight Time),511568.29999923706,A,wi,I,i,144,1,566.6999998092651,511001.5999994278,9014,WL,B,5.0
4,6.866999864578247,learn,53133.00013542175,Wed Apr 16 2025 14:11:13 GMT-0400 (Eastern Daylight Time),511684.89999961853,A,wif,I,f,106,1,683.3000001907349,511001.5999994278,9014,WL,B,5.0
4,7.033999919891357,learn,52966.00008010864,Wed Apr 16 2025 14:11:13 GMT-0400 (Eastern Daylight Time),511851.69999980927,A,wife,I,e,150,1,850.1000003814697,511001.5999994278,9014,WL,B,5.0
4,7.250999927520752,learn,52749.00007247925,Wed Apr 16 2025 14:11:13 GMT-0400 (Eastern Daylight Time),512068.79999923706,A,wifeenter,I,enter,191,1,1067.1999998092651,511001.5999994278,9014,WL,B,5.0
4,7.41700005531311,learn,52582.99994468689,Wed Apr 16 2025 14:11:13 GMT-0400 (Eastern Daylight Time),512235.0999994278,A,w,I,w,152,1,166.0,512069.0999994278,9014,WL,B,6.0
4,7.651000022888184,learn,52348.99997711182,Wed Apr 16 2025 14:11:13 GMT-0400 (Eastern Daylight Time),512468.39999961853,A,wi,I,i,207,1,399.30000019073486,512069.0999994278,9014,WL,B,6.0
4,7.800999879837036,learn,52199.000120162964,Wed Apr 16 2025 14:11:13 GMT-0400 (Eastern Daylight Time),512618.29999923706,A,win,I,n,133,1,549.1999998092651,512069.0999994278,9014,WL,B,6.0
4,7.950999975204468,learn,52049.00002479553,Wed Apr 16 2025 14:11:13 GMT-0400 (Eastern Daylight Time),512768.29999923706,A,wind,I,d,128,1,699.1999998092651,512069.0999994278,9014,WL,B,6.0
4,8.083999872207642,learn,51916.00012779236,Wed Apr 16 2025 14:11:13 GMT-0400 (Eastern Daylight Time),512901.5,A,windo,I,o,117,1,832.4000005722046,512069.0999994278,9014,WL,B,6.0
4,8.233999967575073,learn,51766.00003242493,Wed Apr 16 2025 14:11:13 GMT-0400 (Eastern Daylight Time),513051.69999980927,A,window,I,w,125,1,982.6000003814697,512069.0999994278,9014,WL,B,6.0
4,8.833999872207642,learn,51166.00012779236,Wed Apr 16 2025 14:11:13 GMT-0400 (Eastern Daylight Time),513651.29999923706,A,windowenter,I,enter,567,1,1582.1999998092651,512069.0999994278,9014,WL,B,6.0
4,9.233999967575073,learn,50766.00003242493,Wed Apr 16 2025 14:11:13 GMT-0400 (Eastern Daylight Time),514051.5999994278,A,s,I,s,378,1,399.8999996185303,513651.69999980927,9014,WL,B,7.0
4,9.533999919891357,learn,50466.00008010864,Wed Apr 16 2025 14:11:13 GMT-0400 (Eastern Daylight Time),514351.79999923706,A,sa,I,a,277,1,700.0999994277954,513651.69999980927,9014,WL,B,7.0
4,9.66700005531311,learn,50332.99994468689,Wed Apr 16 2025 14:11:13 GMT-0400 (Eastern Daylight Time),514484.79999923706,A,sat,I,t,123,1,833.0999994277954,513651.69999980927,9014,WL,B,7.0
4,10.217000007629395,learn,49782.999992370605,Wed Apr 16 2025 14:11:13 GMT-0400 (Eastern Daylight Time),515035.19999980927,A,sa,I,backspace,536,1,1383.5,513651.69999980927,9014,WL,B,7.0
4,10.349999904632568,learn,49650.00009536743,Wed Apr 16 2025 14:11:13 GMT-0400 (Eastern Daylight Time),515168.0999994278,A,s,I,backspace,112,1,1516.3999996185303,513651.69999980927,9014,WL,B,7.0
4,10.450999975204468,learn,49549.00002479553,Wed Apr 16 2025 14:11:13 GMT-0400 (Eastern Daylight Time),515268.29999923706,A,st,I,t,67,1,1616.5999994277954,513651.69999980927,9014,WL,B,7.0
4,10.566999912261963,learn,49433.00008773804,Wed Apr 16 2025 14:11:13 GMT-0400 (Eastern Daylight Time),515385.0,A,sta,I,a,94,1,1733.3000001907349,513651.69999980927,9014,WL,B,7.0
4,10.66700005531311,learn,49332.99994468689,Wed Apr 16 2025 14:11:13 GMT-0400 (Eastern Daylight Time),515484.89999961853,A,star,I,r,73,1,1833.1999998092651,513651.69999980927,9014,WL,B,7.0
4,11.116999864578247,learn,48883.00013542175,Wed Apr 16 2025 14:11:13 GMT-0400 (Eastern Daylight Time),515934.5999994278,A,starenter,I,enter,423,1,2282.8999996185303,513651.69999980927,9014,WL,B,7.0
4,12.550999879837036,learn,47449.000120162964,Wed Apr 16 2025 14:11:13 GMT-0400 (Eastern Daylight Time),517368.29999923706,A,d,I,d,1423,1,1433.5,515934.79999923706,9014,WL,B,8.0
4,12.950999975204468,learn,47049.00002479553,Wed Apr 16 2025 14:11:13 GMT-0400 (Eastern Daylight Time),517768.29999923706,A,,I,backspace,387,1,1833.5,515934.79999923706,9014,WL,B,8.0
4,13.1010000705719,learn,46898.9999294281,Wed Apr 16 2025 14:11:13 GMT-0400 (Eastern Daylight Time),517918.29999923706,A,c,I,c,124,1,1983.5,515934.79999923706,9014,WL,B,8.0
4,13.233999967575073,learn,46766.00003242493,Wed Apr 16 2025 14:11:13 GMT-0400 (Eastern Daylight Time),518051.5999994278,A,ci,I,i,107,1,2116.800000190735,515934.79999923706,9014,WL,B,8.0
4,13.401000022888184,learn,46598.99997711182,Wed Apr 16 2025 14:11:13 GMT-0400 (Eastern Daylight Time),518218.29999923706,A,cit,I,t,149,1,2283.5,515934.79999923706,9014,WL,B,8.0
4,13.483999967575073,learn,46516.00003242493,Wed Apr 16 2025 14:11:13 GMT-0400 (Eastern Daylight Time),518301.79999923706,A,city,I,y,65,1,2367.0,515934.79999923706,9014,WL,B,8.0
4,13.717000007629395,learn,46282.999992370605,Wed Apr 16 2025 14:11:13 GMT-0400 (Eastern Daylight Time),518534.5999994278,A,cityenter,I,enter,212,1,2599.800000190735,515934.79999923706,9014,WL,B,8.0
4,14.134000062942505,learn,45865.999937057495,Wed Apr 16 2025 14:11:13 GMT-0400 (Eastern Daylight Time),518951.69999980927,A,p,I,p,407,1,416.80000019073486,518534.89999961853,9014,WL,B,9.0
4,14.816999912261963,learn,45183.00008773804,Wed Apr 16 2025 14:11:13 GMT-0400 (Eastern Daylight Time),519634.79999923706,A,pu,I,u,657,1,1099.8999996185303,518534.89999961853,9014,WL,B,9.0
4,15.049999952316284,learn,44950.000047683716,Wed Apr 16 2025 14:11:13 GMT-0400 (Eastern Daylight Time),519868.0999994278,A,pup,I,p,217,1,1333.1999998092651,518534.89999961853,9014,WL,B,9.0
4,15.66700005531311,learn,44332.99994468689,Wed Apr 16 2025 14:11:13 GMT-0400 (Eastern Daylight Time),520484.89999961853,A,pupb,I,b,599,1,1950.0,518534.89999961853,9014,WL,B,9.0
4,16.26699995994568,learn,43733.00004005432,Wed Apr 16 2025 14:11:13 GMT-0400 (Eastern Daylight Time),521085.0999994278,A,pup,I,backspace,581,1,2550.199999809265,518534.89999961853,9014,WL,B,9.0
4,16.41700005531311,learn,43582.99994468689,Wed Apr 16 2025 14:11:13 GMT-0400 (Eastern Daylight Time),521235.0,A,pu,I,backspace,122,1,2700.1000003814697,518534.89999961853,9014,WL,B,9.0
4,16.816999912261963,learn,43183.00008773804,Wed Apr 16 2025 14:11:13 GMT-0400 (Eastern Daylight Time),521634.89999961853,A,p,I,backspace,375,1,3100.0,518534.89999961853,9014,WL,B,9.0
4,17.43400001525879,learn,42565.99998474121,Wed Apr 16 2025 14:11:13 GMT-0400 (Eastern Daylight Time),522251.5,A,pu,I,u,600,1,3716.6000003814697,518534.89999961853,9014,WL,B,9.0
4,17.91700005531311,learn,42082.99994468689,Wed Apr 16 2025 14:11:13 GMT-0400 (Eastern Daylight Time),522735.0999994278,A,pup,I,p,463,1,4200.199999809265,518534.89999961853,9014,WL,B,9.0
4,18.134000062942505,learn,41865.999937057495,Wed Apr 16 2025 14:11:13 GMT-0400 (Eastern Daylight Time),522951.5999994278,A,pupl,I,l,202,1,4416.699999809265,518534.89999961853,9014,WL,B,9.0
4,18.384000062942505,learn,41615.999937057495,Wed Apr 16 2025 14:11:13 GMT-0400 (Eastern Daylight Time),523201.79999923706,A,pupli,I,i,227,1,4666.89999961853,518534.89999961853,9014,WL,B,9.0
4,18.901000022888184,learn,41098.99997711182,Wed Apr 16 2025 14:11:13 GMT-0400 (Eastern Daylight Time),523718.29999923706,A,pupl,I,backspace,505,1,5183.39999961853,518534.89999961853,9014,WL,B,9.0
4,19.066999912261963,learn,40933.00008773804,Wed Apr 16 2025 14:11:13 GMT-0400 (Eastern Daylight Time),523885.0999994278,A,pup,I,backspace,145,1,5350.199999809265,518534.89999961853,9014,WL,B,9.0
4,19.282999992370605,learn,40717.000007629395,Wed Apr 16 2025 14:11:13 GMT-0400 (Eastern Daylight Time),524101.19999980927,A,pupi,I,i,198,1,5566.300000190735,518534.89999961853,9014,WL,B,9.0
4,19.41700005531311,learn,40582.99994468689,Wed Apr 16 2025 14:11:13 GMT-0400 (Eastern Daylight Time),524235.0,A,pupil,I,l,117,1,5700.10000038147,518534.89999961853,9014,WL,B,9.0
4,20.066999912261963,learn,39933.00008773804,Wed Apr 16 2025 14:11:13 GMT-0400 (Eastern Daylight Time),524884.2999992371,A,pupilenter,I,enter,639,1,6349.39999961853,518534.89999961853,9014,WL,B,9.0
4,20.899999856948853,learn,39100.00014305115,Wed Apr 16 2025 14:11:13 GMT-0400 (Eastern Daylight Time),525717.5,A,c,I,c,824,1,832.9000005722046,524884.5999994278,9014,WL,B,10.0
4,21.066999912261963,learn,38933.00008773804,Wed Apr 16 2025 14:11:13 GMT-0400 (Eastern Daylight Time),525884.5,A,ca,I,a,148,1,999.9000005722046,524884.5999994278,9014,WL,B,10.0
4,21.25,learn,38750.0,Wed Apr 16 2025 14:11:13 GMT-0400 (Eastern Daylight Time),526068.0999994278,A,cab,I,b,152,1,1183.5,524884.5999994278,9014,WL,B,10.0
4,21.550999879837036,learn,38449.000120162964,Wed Apr 16 2025 14:11:13 GMT-0400 (Eastern Daylight Time),526368.2999992371,A,cabn,I,n,270,1,1483.6999998092651,524884.5999994278,9014,WL,B,10.0
4,21.816999912261963,learn,38183.00008773804,Wed Apr 16 2025 14:11:13 GMT-0400 (Eastern Daylight Time),526634.5999994278,A,cabnenter,I,enter,251,1,1750.0,524884.5999994278,9014,WL,B,10.0
4,23.41700005531311,learn,36582.99994468689,Wed Apr 16 2025 14:11:13 GMT-0400 (Eastern Daylight Time),528235.0,A,l,I,l,1587,1,1600.1000003814697,526634.8999996185,9014,WL,B,11.0
4,23.51699995994568,learn,36483.00004005432,Wed Apr 16 2025 14:11:13 GMT-0400 (Eastern Daylight Time),528334.8999996185,A,la,I,a,80,1,1700.0,526634.8999996185,9014,WL,B,11.0
4,23.634000062942505,learn,36365.999937057495,Wed Apr 16 2025 14:11:13 GMT-0400 (Eastern Daylight Time),528451.3999996185,A,lak,I,k,92,1,1816.5,526634.8999996185,9014,WL,B,11.0
4,23.76699995994568,learn,36233.00004005432,Wed Apr 16 2025 14:11:13 GMT-0400 (Eastern Daylight Time),528584.8999996185,A,lake,I,e,112,1,1950.0,526634.8999996185,9014,WL,B,11.0
4,24.16700005531311,learn,35832.99994468689,Wed Apr 16 2025 14:11:13 GMT-0400 (Eastern Daylight Time),528984.5,A,lakeenter,I,enter,376,1,2349.6000003814697,526634.8999996185,9014,WL,B,11.0
4,25.750999927520752,learn,34249.00007247925,Wed Apr 16 2025 14:11:13 GMT-0400 (Eastern Daylight Time),530568.5,A,f,I,f,1573,1,1583.7000007629395,528984.7999992371,9014,WL,B,12.0
4,25.866999864578247,learn,34133.00013542175,Wed Apr 16 2025 14:11:13 GMT-0400 (Eastern Daylight Time),530684.7999992371,A,fi,I,i,90,1,1700.0,528984.7999992371,9014,WL,B,12.0
4,25.983999967575073,learn,34016.00003242493,Wed Apr 16 2025 14:11:13 GMT-0400 (Eastern Daylight Time),530801.7999992371,A,fir,I,r,86,1,1817.0,528984.7999992371,9014,WL,B,12.0
4,26.066999912261963,learn,33933.00008773804,Wed Apr 16 2025 14:11:13 GMT-0400 (Eastern Daylight Time),530884.8999996185,A,fire,I,e,56,1,1900.1000003814697,528984.7999992371,9014,WL,B,12.0
4,26.366999864578247,learn,33633.00013542175,Wed Apr 16 2025 14:11:13 GMT-0400 (Eastern Daylight Time),531184.5999994278,A,fireenter,I,enter,273,1,2199.800000190735,528984.7999992371,9014,WL,B,12.0
4,29.134000062942505,learn,30865.999937057495,Wed Apr 16 2025 14:11:13 GMT-0400 (Eastern Daylight Time),533951.6999998093,A,p,I,p,2749,1,2766.800000190735,531184.8999996185,9014,WL,B,13.0
4,29.76699995994568,learn,30233.00004005432,Wed Apr 16 2025 14:11:13 GMT-0400 (Eastern Daylight Time),534585.0,A,,I,backspace,618,1,3400.1000003814697,531184.8999996185,9014,WL,B,13.0
4,31.58399987220764,learn,28416.00012779236,Wed Apr 16 2025 14:11:13 GMT-0400 (Eastern Daylight Time),536401.5,A,c,I,c,1795,1,5216.60000038147,531184.8999996185,9014,WL,B,13.0
4,31.750999927520752,learn,28249.000072479248,Wed Apr 16 2025 14:11:13 GMT-0400 (Eastern Daylight Time),536568.2999992371,A,ca,I,a,150,1,5383.39999961853,531184.8999996185,9014,WL,B,13.0
4,31.91700005531311,learn,28082.99994468689,Wed Apr 16 2025 14:11:13 GMT-0400 (Eastern Daylight Time),536735.0999994278,A,cab,I,b,139,1,5550.199999809265,531184.8999996185,9014,WL,B,13.0
4,32.050999879837036,learn,27949.000120162964,Wed Apr 16 2025 14:11:13 GMT-0400 (Eastern Daylight Time),536868.3999996185,A,cabi,I,i,100,1,5683.5,531184.8999996185,9014,WL,B,13.0
4,32.23399996757507,learn,27766.000032424927,Wed Apr 16 2025 14:11:13 GMT-0400 (Eastern Daylight Time),537051.5999994278,A,cabin,I,n,157,1,5866.699999809265,531184.8999996185,9014,WL,B,13.0
4,32.61699986457825,learn,27383.000135421753,Wed Apr 16 2025 14:11:13 GMT-0400 (Eastern Daylight Time),537434.5,A,cabinenter,I,enter,366,1,6249.60000038147,531184.8999996185,9014,WL,B,13.0
4,36.20099997520447,learn,23799.000024795532,Wed Apr 16 2025 14:11:13 GMT-0400 (Eastern Daylight Time),541018.1999998093,A,s,I,s,3571,1,3583.300000190735,537434.8999996185,9014,WL,B,14.0
4,36.31699991226196,learn,23683.000087738037,Wed Apr 16 2025 14:11:13 GMT-0400 (Eastern Daylight Time),541135.0,A,sk,I,k,97,1,3700.1000003814697,537434.8999996185,9014,WL,B,14.0
4,36.467000007629395,learn,23532.999992370605,Wed Apr 16 2025 14:11:13 GMT-0400 (Eastern Daylight Time),541285.0999994278,A,ski,I,i,123,1,3850.199999809265,537434.8999996185,9014,WL,B,14.0
4,36.68400001525879,learn,23315.99998474121,Wed Apr 16 2025 14:11:13 GMT-0400 (Eastern Daylight Time),541501.6999998093,A,skin,I,n,190,1,4066.800000190735,537434.8999996185,9014,WL,B,14.0
4,37.01699995994568,learn,22983.00004005432,Wed Apr 16 2025 14:11:13 GMT-0400 (Eastern Daylight Time),541834.5999994278,A,skinenter,I,enter,309,1,4399.699999809265,537434.8999996185,9014,WL,B,14.0
4,37.299999952316284,learn,22700.000047683716,Wed Apr 16 2025 14:11:13 GMT-0400 (Eastern Daylight Time),542118.1999998093,A,c,I,c,274,1,283.19999980926514,541835.0,9014,WL,B,15.0
4,37.78399991989136,learn,22216.000080108643,Wed Apr 16 2025 14:11:13 GMT-0400 (Eastern Daylight Time),542601.5999994278,A,cl,I,l,467,1,766.5999994277954,541835.0,9014,WL,B,15.0
4,37.967000007629395,learn,22032.999992370605,Wed Apr 16 2025 14:11:13 GMT-0400 (Eastern Daylight Time),542785.0,A,clo,I,o,153,1,950.0,541835.0,9014,WL,B,15.0
4,38.16700005531311,learn,21832.99994468689,Wed Apr 16 2025 14:11:13 GMT-0400 (Eastern Daylight Time),542985.0999994278,A,cloc,I,c,185,1,1150.0999994277954,541835.0,9014,WL,B,15.0
4,38.25,learn,21750.0,Wed Apr 16 2025 14:11:13 GMT-0400 (Eastern Daylight Time),543067.6999998093,A,clock,I,k,57,1,1232.6999998092651,541835.0,9014,WL,B,15.0
4,38.83399987220764,learn,21166.00012779236,Wed Apr 16 2025 14:11:13 GMT-0400 (Eastern Daylight Time),543651.1999998093,A,clockenter,I,enter,559,1,1816.1999998092651,541835.0,9014,WL,B,15.0
5,0.6170001029968262,learn,60000.0,Wed Apr 16 2025 14:11:13 GMT-0400 (Eastern Daylight Time),615201.8999996185,A,s,I,s,594,1,616.6999998092651,614585.1999998093,9014,WL,B,1.0
5,0.9000000953674316,learn,60000.0,Wed Apr 16 2025 14:11:13 GMT-0400 (Eastern Daylight Time),615485.1999998093,A,st,I,t,265,1,900.0,614585.1999998093,9014,WL,B,1.0
5,1.184000015258789,learn,60000.0,Wed Apr 16 2025 14:11:13 GMT-0400 (Eastern Daylight Time),615768.2999992371,A,str,I,r,270,1,1183.0999994277954,614585.1999998093,9014,WL,B,1.0
5,1.4170000553131104,learn,60000.0,Wed Apr 16 2025 14:11:13 GMT-0400 (Eastern Daylight Time),616001.1999998093,A,stre,I,e,211,1,1416.0,614585.1999998093,9014,WL,B,1.0
5,1.5499999523162842,learn,60000.0,Wed Apr 16 2025 14:11:13 GMT-0400 (Eastern Daylight Time),616134.6999998093,A,stree,I,e,120,1,1549.5,614585.1999998093,9014,WL,B,1.0
5,1.7669999599456787,learn,60000.0,Wed Apr 16 2025 14:11:13 GMT-0400 (Eastern Daylight Time),616351.5,A,street,I,t,194,1,1766.3000001907349,614585.1999998093,9014,WL,B,1.0
5,2.315999984741211,learn,60000.0,Wed Apr 16 2025 14:11:13 GMT-0400 (Eastern Daylight Time),616901.0999994278,A,streetenter,I,enter,537,1,2315.8999996185303,614585.1999998093,9014,WL,B,1.0
5,2.5829999446868896,learn,60000.0,Wed Apr 16 2025 14:11:13 GMT-0400 (Eastern Daylight Time),617168.0999994278,A,g,I,g,248,1,266.5999994277954,616901.5,9014,WL,B,2.0
5,2.9170000553131104,learn,60000.0,Wed Apr 16 2025 14:11:13 GMT-0400 (Eastern Daylight Time),617501.5999994278,A,gr,I,r,313,1,600.0999994277954,616901.5,9014,WL,B,2.0
5,3.299999952316284,learn,60000.0,Wed Apr 16 2025 14:11:13 GMT-0400 (Eastern Daylight Time),617885.0999994278,A,gra,I,a,363,1,983.5999994277954,616901.5,9014,WL,B,2.0
5,3.566999912261963,learn,60000.0,Wed Apr 16 2025 14:11:13 GMT-0400 (Eastern Daylight Time),618151.7999992371,A,gras,I,s,253,1,1250.2999992370605,616901.5,9014,WL,B,2.0
5,3.7170000076293945,learn,60000.0,Wed Apr 16 2025 14:11:13 GMT-0400 (Eastern Daylight Time),618301.3999996185,A,grass,I,s,130,1,1399.8999996185303,616901.5,9014,WL,B,2.0
5,4.0329999923706055,learn,60000.0,Wed Apr 16 2025 14:11:13 GMT-0400 (Eastern Daylight Time),618617.6999998093,A,grassenter,I,enter,293,1,1716.1999998092651,616901.5,9014,WL,B,2.0
5,5.132999897003174,learn,60000.0,Wed Apr 16 2025 14:11:13 GMT-0400 (Eastern Daylight Time),619718.1999998093,A,d,I,d,1092,1,1099.9000005722046,618618.2999992371,9014,WL,B,3.0
5,5.2170000076293945,learn,60000.0,Wed Apr 16 2025 14:11:13 GMT-0400 (Eastern Daylight Time),619801.5999994278,A,do,I,o,67,1,1183.3000001907349,618618.2999992371,9014,WL,B,3.0
5,5.349999904632568,learn,60000.0,Wed Apr 16 2025 14:11:13 GMT-0400 (Eastern Daylight Time),619934.7999992371,A,doo,I,o,113,1,1316.5,618618.2999992371,9014,WL,B,3.0
5,5.500999927520752,learn,60000.0,Wed Apr 16 2025 14:11:13 GMT-0400 (Eastern Daylight Time),620085.5999994278,A,door,I,r,133,1,1467.3000001907349,618618.2999992371,9014,WL,B,3.0
5,5.683000087738037,learn,60000.0,Wed Apr 16 2025 14:11:13 GMT-0400 (Eastern Daylight Time),620267.7999992371,A,doorenter,I,enter,164,1,1649.5,618618.2999992371,9014,WL,B,3.0
5,5.950000047683716,learn,60000.0,Wed Apr 16 2025 14:11:13 GMT-0400 (Eastern Daylight Time),620534.7999992371,A,a,I,a,257,1,266.69999980926514,620268.0999994278,9014,WL,B,4.0
5,6.150000095367432,learn,60000.0,Wed Apr 16 2025 14:11:13 GMT-0400 (Eastern Daylight Time),620735.0,A,ar,I,r,180,1,466.9000005722046,620268.0999994278,9014,WL,B,4.0
5,6.33299994468689,learn,60000.0,Wed Apr 16 2025 14:11:13 GMT-0400 (Eastern Daylight Time),620917.8999996185,A,arm,I,m,163,1,649.8000001907349,620268.0999994278,9014,WL,B,4.0
5,6.650000095367432,learn,60000.0,Wed Apr 16 2025 14:11:13 GMT-0400 (Eastern Daylight Time),621234.3999996185,A,armenter,I,enter,292,1,966.3000001907349,620268.0999994278,9014,WL,B,4.0
5,6.900000095367432,learn,60000.0,Wed Apr 16 2025 14:11:13 GMT-0400 (Eastern Daylight Time),621484.8999996185,A,w,I,w,235,1,250.19999980926514,621234.6999998093,9014,WL,B,5.0
5,7.084000110626221,learn,60000.0,Wed Apr 16 2025 14:11:13 GMT-0400 (Eastern Daylight Time),621668.1999998093,A,wi,I,i,157,1,433.5,621234.6999998093,9014,WL,B,5.0
5,7.233000040054321,learn,60000.0,Wed Apr 16 2025 14:11:13 GMT-0400 (Eastern Daylight Time),621818.1999998093,A,wif,I,f,127,1,583.5,621234.6999998093,9014,WL,B,5.0
5,7.382999897003174,learn,60000.0,Wed Apr 16 2025 14:11:13 GMT-0400 (Eastern Daylight Time),621968.0,A,wife,I,e,124,1,733.3000001907349,621234.6999998093,9014,WL,B,5.0
5,7.58299994468689,learn,60000.0,Wed Apr 16 2025 14:11:13 GMT-0400 (Eastern Daylight Time),622167.7999992371,A,wifeenter,I,enter,183,1,933.0999994277954,621234.6999998093,9014,WL,B,5.0
5,7.867000102996826,learn,60000.0,Wed Apr 16 2025 14:11:13 GMT-0400 (Eastern Daylight Time),622451.5,A,w,I,w,262,1,283.30000019073486,622168.1999998093,9014,WL,B,6.0
5,8.299999952316284,learn,60000.0,Wed Apr 16 2025 14:11:13 GMT-0400 (Eastern Daylight Time),622885.0,A,wi,I,i,407,1,716.8000001907349,622168.1999998093,9014,WL,B,6.0
5,8.450000047683716,learn,60000.0,Wed Apr 16 2025 14:11:13 GMT-0400 (Eastern Daylight Time),623034.7999992371,A,win,I,n,134,1,866.5999994277954,622168.1999998093,9014,WL,B,6.0
5,8.58299994468689,learn,60000.0,Wed Apr 16 2025 14:11:13 GMT-0400 (Eastern Daylight Time),623168.0,A,wind,I,d,111,1,999.8000001907349,622168.1999998093,9014,WL,B,6.0
5,8.799999952316284,learn,60000.0,Wed Apr 16 2025 14:11:13 GMT-0400 (Eastern Daylight Time),623385.0,A,windo,I,o,195,1,1216.8000001907349,622168.1999998093,9014,WL,B,6.0
5,8.967000007629395,learn,60000.0,Wed Apr 16 2025 14:11:13 GMT-0400 (Eastern Daylight Time),623551.5,A,window,I,w,138,1,1383.3000001907349,622168.1999998093,9014,WL,B,6.0
5,9.365999937057495,learn,60000.0,Wed Apr 16 2025 14:11:13 GMT-0400 (Eastern Daylight Time),623951.0999994278,A,windowenter,I,enter,379,1,1782.8999996185303,622168.1999998093,9014,WL,B,6.0
5,9.75,learn,60000.0,Wed Apr 16 2025 14:11:13 GMT-0400 (Eastern Daylight Time),624334.8999996185,A,s,I,s,366,1,383.3999996185303,623951.5,9014,WL,B,7.0
5,9.950000047683716,learn,60000.0,Wed Apr 16 2025 14:11:13 GMT-0400 (Eastern Daylight Time),624534.7999992371,A,st,I,t,188,1,583.2999992370605,623951.5,9014,WL,B,7.0
5,10.16700005531311,learn,60000.0,Wed Apr 16 2025 14:11:13 GMT-0400 (Eastern Daylight Time),624751.3999996185,A,sta,I,a,188,1,799.8999996185303,623951.5,9014,WL,B,7.0
5,10.299999952316284,learn,60000.0,Wed Apr 16 2025 14:11:13 GMT-0400 (Eastern Daylight Time),624884.5999994278,A,star,I,r,116,1,933.0999994277954,623951.5,9014,WL,B,7.0
5,10.766000032424927,learn,60000.0,Wed Apr 16 2025 14:11:13 GMT-0400 (Eastern Daylight Time),625351.0999994278,A,starenter,I,enter,448,1,1399.5999994277954,623951.5,9014,WL,B,7.0
5,11.233000040054321,learn,60000.0,Wed Apr 16 2025 14:11:13 GMT-0400 (Eastern Daylight Time),625818.1999998093,A,c,I,c,454,1,466.80000019073486,625351.3999996185,9014,WL,B,8.0
5,11.299999952316284,learn,60000.0,Wed Apr 16 2025 14:11:13 GMT-0400 (Eastern Daylight Time),625884.5999994278,A,ci,I,i,46,1,533.1999998092651,625351.3999996185,9014,WL,B,8.0
5,11.483000040054321,learn,60000.0,Wed Apr 16 2025 14:11:13 GMT-0400 (Eastern Daylight Time),626068.1999998093,A,cit,I,t,157,1,716.8000001907349,625351.3999996185,9014,WL,B,8.0
5,11.599999904632568,learn,60000.0,Wed Apr 16 2025 14:11:13 GMT-0400 (Eastern Daylight Time),626184.8999996185,A,city,I,y,102,1,833.5,625351.3999996185,9014,WL,B,8.0
5,11.882999897003174,learn,60000.0,Wed Apr 16 2025 14:11:13 GMT-0400 (Eastern Daylight Time),626467.8999996185,A,cityenter,I,enter,274,1,1116.5,625351.3999996185,9014,WL,B,8.0
5,12.233000040054321,learn,60000.0,Wed Apr 16 2025 14:11:13 GMT-0400 (Eastern Daylight Time),626818.0999994278,A,p,I,p,329,1,349.80000019073486,626468.2999992371,9014,WL,B,9.0
5,12.41700005531311,learn,60000.0,Wed Apr 16 2025 14:11:13 GMT-0400 (Eastern Daylight Time),627001.5999994278,A,pu,I,u,168,1,533.3000001907349,626468.2999992371,9014,WL,B,9.0
5,12.849999904632568,learn,60000.0,Wed Apr 16 2025 14:11:13 GMT-0400 (Eastern Daylight Time),627434.8999996185,A,pup,I,p,410,1,966.6000003814697,626468.2999992371,9014,WL,B,9.0
5,13.549999952316284,learn,60000.0,Wed Apr 16 2025 14:11:13 GMT-0400 (Eastern Daylight Time),628134.7999992371,A,pupi,I,i,687,1,1666.5,626468.2999992371,9014,WL,B,9.0
5,13.717000007629395,learn,60000.0,Wed Apr 16 2025 14:11:13 GMT-0400 (Eastern Daylight Time),628301.5999994278,A,pupil,I,l,147,1,1833.3000001907349,626468.2999992371,9014,WL,B,9.0
5,13.966000080108643,learn,60000.0,Wed Apr 16 2025 14:11:13 GMT-0400 (Eastern Daylight Time),628551.0999994278,A,pupilenter,I,enter,231,1,2082.800000190735,626468.2999992371,9014,WL,B,9.0
5,14.719000101089478,learn,60000.0,Wed Apr 16 2025 14:11:13 GMT-0400 (Eastern Daylight Time),629303.5,A,c,I,c,742,1,752.1000003814697,628551.3999996185,9014,WL,B,10.0
5,15.33299994468689,learn,60000.0,Wed Apr 16 2025 14:11:13 GMT-0400 (Eastern Daylight Time),629918.1999998093,A,ca,I,a,595,1,1366.8000001907349,628551.3999996185,9014,WL,B,10.0
5,15.532999992370605,learn,60000.0,Wed Apr 16 2025 14:11:13 GMT-0400 (Eastern Daylight Time),630118.1999998093,A,cab,I,b,187,1,1566.8000001907349,628551.3999996185,9014,WL,B,10.0
5,15.700000047683716,learn,60000.0,Wed Apr 16 2025 14:11:13 GMT-0400 (Eastern Daylight Time),630284.8999996185,A,cabi,I,i,147,1,1733.5,628551.3999996185,9014,WL,B,10.0
5,15.882999897003174,learn,60000.0,Wed Apr 16 2025 14:11:13 GMT-0400 (Eastern Daylight Time),630468.0999994278,A,cabin,I,n,157,1,1916.6999998092651,628551.3999996185,9014,WL,B,10.0
5,16.382999897003174,learn,60000.0,Wed Apr 16 2025 14:11:13 GMT-0400 (Eastern Daylight Time),630967.6999998093,A,cabinenter,I,enter,483,1,2416.300000190735,628551.3999996185,9014,WL,B,10.0
5,16.93400001525879,learn,60000.0,Wed Apr 16 2025 14:11:13 GMT-0400 (Eastern Daylight Time),631518.1999998093,A,l,I,l,534,1,550.1000003814697,630968.0999994278,9014,WL,B,11.0
5,17.233999967575073,learn,60000.0,Wed Apr 16 2025 14:11:13 GMT-0400 (Eastern Daylight Time),631818.1999998093,A,la,I,a,285,1,850.1000003814697,630968.0999994278,9014,WL,B,11.0
5,17.59999990463257,learn,60000.0,Wed Apr 16 2025 14:11:13 GMT-0400 (Eastern Daylight Time),632184.8999996185,A,lak,I,k,353,1,1216.8000001907349,630968.0999994278,9014,WL,B,11.0
5,17.76699995994568,learn,60000.0,Wed Apr 16 2025 14:11:13 GMT-0400 (Eastern Daylight Time),632351.5,A,lake,I,e,145,1,1383.4000005722046,630968.0999994278,9014,WL,B,11.0
5,18.032999992370605,learn,60000.0,Wed Apr 16 2025 14:11:13 GMT-0400 (Eastern Daylight Time),632617.6999998093,A,lakeenter,I,enter,250,1,1649.6000003814697,630968.0999994278,9014,WL,B,11.0
5,18.382999897003174,learn,60000.0,Wed Apr 16 2025 14:11:13 GMT-0400 (Eastern Daylight Time),632968.0999994278,A,p,I,p,340,1,350.0,632618.0999994278,9014,WL,B,12.0
5,18.566999912261963,learn,60000.0,Wed Apr 16 2025 14:11:13 GMT-0400 (Eastern Daylight Time),633151.5,A,pi,I,i,162,1,533.4000005722046,632618.0999994278,9014,WL,B,12.0
5,18.91700005531311,learn,60000.0,Wed Apr 16 2025 14:11:13 GMT-0400 (Eastern Daylight Time),633501.5,A,pie,I,e,331,1,883.4000005722046,632618.0999994278,9014,WL,B,12.0
5,19.282999992370605,learn,60000.0,Wed Apr 16 2025 14:11:13 GMT-0400 (Eastern Daylight Time),633868.1999998093,A,pi,I,backspace,348,1,1250.1000003814697,632618.0999994278,9014,WL,B,12.0
5,19.532999992370605,learn,60000.0,Wed Apr 16 2025 14:11:13 GMT-0400 (Eastern Daylight Time),634118.0999994278,A,pip,I,p,238,1,1500.0,632618.0999994278,9014,WL,B,12.0
5,19.76699995994568,learn,60000.0,Wed Apr 16 2025 14:11:13 GMT-0400 (Eastern Daylight Time),634351.5999994278,A,pipe,I,e,205,1,1733.5,632618.0999994278,9014,WL,B,12.0
5,20.06599998474121,learn,60000.0,Wed Apr 16 2025 14:11:13 GMT-0400 (Eastern Daylight Time),634651.0,A,pipeenter,I,enter,281,1,2032.9000005722046,632618.0999994278,9014,WL,B,12.0
5,20.58299994468689,learn,60000.0,Wed Apr 16 2025 14:11:13 GMT-0400 (Eastern Daylight Time),635167.8999996185,A,f,I,f,498,1,516.5,634651.3999996185,9014,WL,B,13.0
5,20.933000087738037,learn,60000.0,Wed Apr 16 2025 14:11:13 GMT-0400 (Eastern Daylight Time),635518.0999994278,A,fi,I,i,330,1,866.6999998092651,634651.3999996185,9014,WL,B,13.0
5,21.132999897003174,learn,60000.0,Wed Apr 16 2025 14:11:13 GMT-0400 (Eastern Daylight Time),635718.0,A,fir,I,r,189,1,1066.6000003814697,634651.3999996185,9014,WL,B,13.0
5,21.217000007629395,learn,60000.0,Wed Apr 16 2025 14:11:13 GMT-0400 (Eastern Daylight Time),635801.3999996185,A,fire,I,e,62,1,1150.0,634651.3999996185,9014,WL,B,13.0
5,21.651999950408936,learn,60000.0,Wed Apr 16 2025 14:11:13 GMT-0400 (Eastern Daylight Time),636236.5,A,fireenter,I,enter,417,1,1585.1000003814697,634651.3999996185,9014,WL,B,13.0
5,22.299999952316284,learn,60000.0,Wed Apr 16 2025 14:11:13 GMT-0400 (Eastern Daylight Time),636884.6999998093,A,s,I,s,641,1,647.9000005722046,636236.7999992371,9014,WL,B,14.0
5,22.48300004005432,learn,60000.0,Wed Apr 16 2025 14:11:13 GMT-0400 (Eastern Daylight Time),637068.0999994278,A,sk,I,k,166,1,831.3000001907349,636236.7999992371,9014,WL,B,14.0
5,22.66700005531311,learn,60000.0,Wed Apr 16 2025 14:11:13 GMT-0400 (Eastern Daylight Time),637251.5999994278,A,ski,I,i,158,1,1014.8000001907349,636236.7999992371,9014,WL,B,14.0
5,23.183000087738037,learn,60000.0,Wed Apr 16 2025 14:11:13 GMT-0400 (Eastern Daylight Time),637768.1999998093,A,skin,I,n,495,1,1531.4000005722046,636236.7999992371,9014,WL,B,14.0
5,23.48300004005432,learn,60000.0,Wed Apr 16 2025 14:11:13 GMT-0400 (Eastern Daylight Time),638067.6999998093,A,skinenter,I,enter,288,1,1830.9000005722046,636236.7999992371,9014,WL,B,14.0
5,24.16700005531311,learn,60000.0,Wed Apr 16 2025 14:11:13 GMT-0400 (Eastern Daylight Time),638751.6999998093,A,c,I,c,665,1,683.6999998092651,638068.0,9014,WL,B,15.0
5,24.316999912261963,learn,60000.0,Wed Apr 16 2025 14:11:13 GMT-0400 (Eastern Daylight Time),638901.1999998093,A,co,I,o,138,1,833.1999998092651,638068.0,9014,WL,B,15.0
5,25.15000009536743,learn,60000.0,Wed Apr 16 2025 14:11:13 GMT-0400 (Eastern Daylight Time),639734.8999996185,A,col,I,l,813,1,1666.8999996185303,638068.0,9014,WL,B,15.0
5,25.90000009536743,learn,60000.0,Wed Apr 16 2025 14:11:13 GMT-0400 (Eastern Daylight Time),640485.0999994278,A,co,I,backspace,720,1,2417.0999994277954,638068.0,9014,WL,B,15.0
5,26.01699995994568,learn,60000.0,Wed Apr 16 2025 14:11:13 GMT-0400 (Eastern Daylight Time),640601.6999998093,A,c,I,backspace,101,1,2533.699999809265,638068.0,9014,WL,B,15.0
5,27.09999990463257,learn,60000.0,Wed Apr 16 2025 14:11:13 GMT-0400 (Eastern Daylight Time),641684.6999998093,A,cl,I,l,1057,1,3616.699999809265,638068.0,9014,WL,B,15.0
5,27.282999992370605,learn,60000.0,Wed Apr 16 2025 14:11:13 GMT-0400 (Eastern Daylight Time),641868.0999994278,A,clo,I,o,166,1,3800.0999994277954,638068.0,9014,WL,B,15.0
5,28.283999919891357,learn,60000.0,Wed Apr 16 2025 14:11:13 GMT-0400 (Eastern Daylight Time),642868.2999992371,A,cloc,I,c,967,1,4800.299999237061,638068.0,9014,WL,B,15.0
5,28.467000007629395,learn,60000.0,Wed Apr 16 2025 14:11:13 GMT-0400 (Eastern Daylight Time),643051.5999994278,A,clock,I,k,165,1,4983.599999427795,638068.0,9014,WL,B,15.0
5,28.91599988937378,learn,60000.0,Wed Apr 16 2025 14:11:13 GMT-0400 (Eastern Daylight Time),643501.0,A,clockenter,I,enter,423,1,5433.0,638068.0,9014,WL,B,15.0
6,2.049999952316284,distr,57950.000047683716,Wed Apr 16 2025 14:11:13 GMT-0400 (Eastern Daylight Time),716568.0999994278,B,f,I,f,2037,1,2049.5999994277954,714518.5,9014,WL,B,1.0
6,2.382999897003174,distr,57617.000102996826,Wed Apr 16 2025 14:11:13 GMT-0400 (Eastern Daylight Time),716900.8999996185,B,fr,I,r,322,1,2382.3999996185303,714518.5,9014,WL,B,1.0
6,2.5169999599456787,distr,57483.00004005432,Wed Apr 16 2025 14:11:13 GMT-0400 (Eastern Daylight Time),717034.8999996185,B,fri,I,i,119,1,2516.3999996185303,714518.5,9014,WL,B,1.0
6,2.6669998168945312,distr,57333.00018310547,Wed Apr 16 2025 14:11:13 GMT-0400 (Eastern Daylight Time),717184.7999992371,B,frie,I,e,128,1,2666.2999992370605,714518.5,9014,WL,B,1.0
6,3.5,distr,56500.0,Wed Apr 16 2025 14:11:13 GMT-0400 (Eastern Daylight Time),718018.0,B,fri,I,backspace,803,1,3499.5,714518.5,9014,WL,B,1.0
6,3.616999864578247,distr,56383.00013542175,Wed Apr 16 2025 14:11:13 GMT-0400 (Eastern Daylight Time),718134.6999998093,B,fr,I,backspace,105,1,3616.199999809265,714518.5,9014,WL,B,1.0
6,4.116999864578247,distr,55883.00013542175,Wed Apr 16 2025 14:11:13 GMT-0400 (Eastern Daylight Time),718634.6999998093,B,fri,I,i,483,1,4116.199999809265,714518.5,9014,WL,B,1.0
6,4.6499998569488525,distr,55350.00014305115,Wed Apr 16 2025 14:11:13 GMT-0400 (Eastern Daylight Time),719168.0,B,frie,I,e,512,1,4649.5,714518.5,9014,WL,B,1.0
6,4.765999794006348,distr,55234.00020599365,Wed Apr 16 2025 14:11:13 GMT-0400 (Eastern Daylight Time),719284.0999994278,B,frien,I,n,91,1,4765.599999427795,714518.5,9014,WL,B,1.0
6,4.849999904632568,distr,55150.00009536743,Wed Apr 16 2025 14:11:13 GMT-0400 (Eastern Daylight Time),719367.6999998093,B,friend,I,d,72,1,4849.199999809265,714518.5,9014,WL,B,1.0
6,5.2829999923706055,distr,54717.000007629395,Wed Apr 16 2025 14:11:13 GMT-0400 (Eastern Daylight Time),719800.8999996185,B,friendenter,I,enter,417,1,5282.39999961853,714518.5,9014,WL,B,1.0
6,5.799999952316284,distr,54200.000047683716,Wed Apr 16 2025 14:11:13 GMT-0400 (Eastern Daylight Time),720318.0,B,c,I,c,501,1,516.8000001907349,719801.1999998093,9014,WL,B,2.0
6,5.982999801635742,distr,54017.00019836426,Wed Apr 16 2025 14:11:13 GMT-0400 (Eastern Daylight Time),720501.0999994278,B,ce,I,e,172,1,699.8999996185303,719801.1999998093,9014,WL,B,2.0
6,6.199999809265137,distr,53800.00019073486,Wed Apr 16 2025 14:11:13 GMT-0400 (Eastern Daylight Time),720717.8999996185,B,cel,I,l,190,1,916.6999998092651,719801.1999998093,9014,WL,B,2.0
6,6.616999864578247,distr,53383.00013542175,Wed Apr 16 2025 14:11:13 GMT-0400 (Eastern Daylight Time),721134.6999998093,B,cell,I,l,396,1,1333.5,719801.1999998093,9014,WL,B,2.0
6,7.199999809265137,distr,52800.00019073486,Wed Apr 16 2025 14:11:13 GMT-0400 (Eastern Daylight Time),721717.5999994278,B,cellenter,I,enter,571,1,1916.3999996185303,719801.1999998093,9014,WL,B,2.0
6,8.983999967575073,distr,51016.00003242493,Wed Apr 16 2025 14:11:13 GMT-0400 (Eastern Daylight Time),723501.3999996185,B,b,I,b,1768,1,1783.5,721717.8999996185,9014,WL,B,3.0
6,9.75,distr,50250.0,Wed Apr 16 2025 14:11:13 GMT-0400 (Eastern Daylight Time),724267.8999996185,B,ba,I,a,749,1,2550.0,721717.8999996185,9014,WL,B,3.0
6,10.0,distr,50000.0,Wed Apr 16 2025 14:11:13 GMT-0400 (Eastern Daylight Time),724518.0999994278,B,bab,I,b,237,1,2800.199999809265,721717.8999996185,9014,WL,B,3.0
6,10.199999809265137,distr,49800.00019073486,Wed Apr 16 2025 14:11:13 GMT-0400 (Eastern Daylight Time),724718.0,B,baby,I,y,180,1,3000.1000003814697,721717.8999996185,9014,WL,B,3.0
6,10.616999864578247,distr,49383.00013542175,Wed Apr 16 2025 14:11:13 GMT-0400 (Eastern Daylight Time),725134.1999998093,B,babyenter,I,enter,396,1,3416.300000190735,721717.8999996185,9014,WL,B,3.0
6,10.849999904632568,distr,49150.00009536743,Wed Apr 16 2025 14:11:13 GMT-0400 (Eastern Daylight Time),725367.8999996185,B,b,I,b,223,1,233.30000019073486,725134.5999994278,9014,WL,B,4.0
6,10.967000007629395,distr,49032.999992370605,Wed Apr 16 2025 14:11:13 GMT-0400 (Eastern Daylight Time),725484.7999992371,B,ba,I,a,98,1,350.19999980926514,725134.5999994278,9014,WL,B,4.0
6,11.149999856948853,distr,48850.00014305115,Wed Apr 16 2025 14:11:13 GMT-0400 (Eastern Daylight Time),725667.8999996185,B,bar,I,r,158,1,533.3000001907349,725134.5999994278,9014,WL,B,4.0
6,11.467000007629395,distr,48532.999992370605,Wed Apr 16 2025 14:11:13 GMT-0400 (Eastern Daylight Time),725984.1999998093,B,barenter,I,enter,293,1,849.6000003814697,725134.5999994278,9014,WL,B,4.0
6,12.232999801635742,distr,47767.00019836426,Wed Apr 16 2025 14:11:13 GMT-0400 (Eastern Daylight Time),726751.1999998093,B,l,I,l,748,1,766.6000003814697,725984.5999994278,9014,WL,B,5.0
6,12.382999897003174,distr,47617.000102996826,Wed Apr 16 2025 14:11:13 GMT-0400 (Eastern Daylight Time),726900.8999996185,B,li,I,i,139,1,916.3000001907349,725984.5999994278,9014,WL,B,5.0
6,12.566999912261963,distr,47433.00008773804,Wed Apr 16 2025 14:11:13 GMT-0400 (Eastern Daylight Time),727084.7999992371,B,lip,I,p,162,1,1100.1999998092651,725984.5999994278,9014,WL,B,5.0
6,12.83299994468689,distr,47167.00005531311,Wed Apr 16 2025 14:11:13 GMT-0400 (Eastern Daylight Time),727350.8999996185,B,lipenter,I,enter,245,1,1366.3000001907349,725984.5999994278,9014,WL,B,5.0
6,13.149999856948853,distr,46850.00014305115,Wed Apr 16 2025 14:11:13 GMT-0400 (Eastern Daylight Time),727668.0999994278,B,p,I,p,295,1,316.8999996185303,727351.1999998093,9014,WL,B,6.0
6,13.366999864578247,distr,46633.00013542175,Wed Apr 16 2025 14:11:13 GMT-0400 (Eastern Daylight Time),727884.7999992371,B,pl,I,l,197,1,533.5999994277954,727351.1999998093,9014,WL,B,6.0
6,13.516999959945679,distr,46483.00004005432,Wed Apr 16 2025 14:11:13 GMT-0400 (Eastern Daylight Time),728034.6999998093,B,pla,I,a,118,1,683.5,727351.1999998093,9014,WL,B,6.0
6,14.434000015258789,distr,45565.99998474121,Wed Apr 16 2025 14:11:13 GMT-0400 (Eastern Daylight Time),728951.3999996185,B,pl,I,backspace,903,1,1600.1999998092651,727351.1999998093,9014,WL,B,6.0
6,14.583999872207642,distr,45416.00012779236,Wed Apr 16 2025 14:11:13 GMT-0400 (Eastern Daylight Time),729101.5,B,p,I,backspace,130,1,1750.3000001907349,727351.1999998093,9014,WL,B,6.0
6,14.766999959945679,distr,45233.00004005432,Wed Apr 16 2025 14:11:13 GMT-0400 (Eastern Daylight Time),729284.5999994278,B,pa,I,a,164,1,1933.3999996185303,727351.1999998093,9014,WL,B,6.0
6,14.849999904632568,distr,45150.00009536743,Wed Apr 16 2025 14:11:13 GMT-0400 (Eastern Daylight Time),729367.8999996185,B,pal,I,l,71,1,2016.6999998092651,727351.1999998093,9014,WL,B,6.0
6,15.399999856948853,distr,44600.00014305115,Wed Apr 16 2025 14:11:13 GMT-0400 (Eastern Daylight Time),729918.0,B,pala,I,a,524,1,2566.800000190735,727351.1999998093,9014,WL,B,6.0
6,15.566999912261963,distr,44433.00008773804,Wed Apr 16 2025 14:11:13 GMT-0400 (Eastern Daylight Time),730085.0,B,palac,I,c,154,1,2733.800000190735,727351.1999998093,9014,WL,B,6.0
6,15.816999912261963,distr,44183.00008773804,Wed Apr 16 2025 14:11:13 GMT-0400 (Eastern Daylight Time),730334.7999992371,B,palace,I,e,229,1,2983.5999994277954,727351.1999998093,9014,WL,B,6.0
6,16.282999992370605,distr,43717.000007629395,Wed Apr 16 2025 14:11:13 GMT-0400 (Eastern Daylight Time),730800.8999996185,B,palaceenter,I,enter,443,1,3449.699999809265,727351.1999998093,9014,WL,B,6.0
6,17.066999912261963,distr,42933.00008773804,Wed Apr 16 2025 14:11:13 GMT-0400 (Eastern Daylight Time),731584.8999996185,B,o,I,o,765,1,783.6999998092651,730801.1999998093,9014,WL,B,7.0
6,17.483999967575073,distr,42516.00003242493,Wed Apr 16 2025 14:11:13 GMT-0400 (Eastern Daylight Time),732001.3999996185,B,oc,I,c,392,1,1200.1999998092651,730801.1999998093,9014,WL,B,7.0
6,17.699999809265137,distr,42300.00019073486,Wed Apr 16 2025 14:11:13 GMT-0400 (Eastern Daylight Time),732218.0,B,oce,I,e,201,1,1416.8000001907349,730801.1999998093,9014,WL,B,7.0
6,18.283999919891357,distr,41716.00008010864,Wed Apr 16 2025 14:11:13 GMT-0400 (Eastern Daylight Time),732801.2999992371,B,ocea,I,a,553,1,2000.0999994277954,730801.1999998093,9014,WL,B,7.0
6,18.399999856948853,distr,41600.00014305115,Wed Apr 16 2025 14:11:13 GMT-0400 (Eastern Daylight Time),732917.8999996185,B,ocean,I,n,104,1,2116.699999809265,730801.1999998093,9014,WL,B,7.0
6,19.032999992370605,distr,40967.000007629395,Wed Apr 16 2025 14:11:13 GMT-0400 (Eastern Daylight Time),733550.8999996185,B,oceanenter,I,enter,612,1,2749.699999809265,730801.1999998093,9014,WL,B,7.0
6,21.51699995994568,distr,38483.00004005432,Wed Apr 16 2025 14:11:13 GMT-0400 (Eastern Daylight Time),736034.7999992371,B,a,I,a,2463,1,2483.5999994277954,733551.1999998093,9014,WL,B,8.0
6,21.649999856948853,distr,38350.00014305115,Wed Apr 16 2025 14:11:13 GMT-0400 (Eastern Daylight Time),736168.0,B,ar,I,r,119,1,2616.800000190735,733551.1999998093,9014,WL,B,8.0
6,21.83299994468689,distr,38167.00005531311,Wed Apr 16 2025 14:11:13 GMT-0400 (Eastern Daylight Time),736350.8999996185,B,arm,I,m,162,1,2799.699999809265,733551.1999998093,9014,WL,B,8.0
6,22.316999912261963,distr,37683.00008773804,Wed Apr 16 2025 14:11:13 GMT-0400 (Eastern Daylight Time),736834.7999992371,B,army,I,y,462,1,3283.5999994277954,733551.1999998093,9014,WL,B,8.0
6,22.965999841690063,distr,37034.00015830994,Wed Apr 16 2025 14:11:13 GMT-0400 (Eastern Daylight Time),737484.1999998093,B,armyenter,I,enter,629,1,3933.0,733551.1999998093,9014,WL,B,8.0
6,24.033999919891357,distr,35966.00008010864,Wed Apr 16 2025 14:11:13 GMT-0400 (Eastern Daylight Time),738551.3999996185,B,c,I,c,1057,1,1066.8000001907349,737484.5999994278,9014,WL,B,9.0
6,24.533999919891357,distr,35466.00008010864,Wed Apr 16 2025 14:11:13 GMT-0400 (Eastern Daylight Time),739051.2999992371,B,,I,backspace,483,1,1566.6999998092651,737484.5999994278,9014,WL,B,9.0
6,26.816999912261963,distr,33183.00008773804,Wed Apr 16 2025 14:11:13 GMT-0400 (Eastern Daylight Time),741334.6999998093,B,b,I,b,2271,1,3850.1000003814697,737484.5999994278,9014,WL,B,9.0
6,26.91699981689453,distr,33083.00018310547,Wed Apr 16 2025 14:11:13 GMT-0400 (Eastern Daylight Time),741434.5999994278,B,bu,I,u,84,1,3950.0,737484.5999994278,9014,WL,B,9.0
6,27.16699981689453,distr,32833.00018310547,Wed Apr 16 2025 14:11:13 GMT-0400 (Eastern Daylight Time),741684.5999994278,B,bui,I,i,224,1,4200.0,737484.5999994278,9014,WL,B,9.0
6,27.399999856948853,distr,32600.000143051147,Wed Apr 16 2025 14:11:13 GMT-0400 (Eastern Daylight Time),741918.0,B,buil,I,l,213,1,4433.400000572205,737484.5999994278,9014,WL,B,9.0
6,27.66699981689453,distr,32333.00018310547,Wed Apr 16 2025 14:11:13 GMT-0400 (Eastern Daylight Time),742184.6999998093,B,build,I,d,250,1,4700.10000038147,737484.5999994278,9014,WL,B,9.0
6,27.783999919891357,distr,32216.000080108643,Wed Apr 16 2025 14:11:13 GMT-0400 (Eastern Daylight Time),742301.3999996185,B,buildi,I,i,98,1,4816.800000190735,737484.5999994278,9014,WL,B,9.0
6,28.033999919891357,distr,31966.000080108643,Wed Apr 16 2025 14:11:13 GMT-0400 (Eastern Daylight Time),742551.1999998093,B,buildig,I,g,236,1,5066.60000038147,737484.5999994278,9014,WL,B,9.0
6,28.51699995994568,distr,31483.00004005432,Wed Apr 16 2025 14:11:13 GMT-0400 (Eastern Daylight Time),743034.6999998093,B,buildi,I,backspace,468,1,5550.10000038147,737484.5999994278,9014,WL,B,9.0
6,28.75,distr,31250.0,Wed Apr 16 2025 14:11:13 GMT-0400 (Eastern Daylight Time),743267.8999996185,B,buildin,I,n,208,1,5783.300000190735,737484.5999994278,9014,WL,B,9.0
6,28.866999864578247,distr,31133.000135421753,Wed Apr 16 2025 14:11:13 GMT-0400 (Eastern Daylight Time),743384.6999998093,B,building,I,g,94,1,5900.10000038147,737484.5999994278,9014,WL,B,9.0
6,29.16699981689453,distr,30833.00018310547,Wed Apr 16 2025 14:11:13 GMT-0400 (Eastern Daylight Time),743685.1999998093,B,buildingenter,I,enter,280,1,6200.60000038147,737484.5999994278,9014,WL,B,9.0
6,60.01699995994568,distr,-16.99995994567871,Wed Apr 16 2025 14:11:13 GMT-0400 (Eastern Daylight Time),774534.7999992371,B,None,I,None,30841,1,30849.29999923706,743685.5,9014,WL,B,10.0
7,1.3670001029968262,immed,58632.999897003174,Wed Apr 16 2025 14:11:13 GMT-0400 (Eastern Daylight Time),783834.7999992371,A,d,I,d,1351,1,1366.2999992370605,782468.5,9014,WL,B,1.0
7,2.6500000953674316,immed,57349.99990463257,Wed Apr 16 2025 14:11:13 GMT-0400 (Eastern Daylight Time),785118.0,A,,I,backspace,1261,1,2649.5,782468.5,9014,WL,B,1.0
7,3.2840001583099365,immed,56715.99984169006,Wed Apr 16 2025 14:11:13 GMT-0400 (Eastern Daylight Time),785751.3999996185,A,g,I,g,621,1,3282.8999996185303,782468.5,9014,WL,B,1.0
7,3.567000150680542,immed,56432.99984931946,Wed Apr 16 2025 14:11:13 GMT-0400 (Eastern Daylight Time),786034.6999998093,A,gr,I,r,259,1,3566.199999809265,782468.5,9014,WL,B,1.0
7,3.8000001907348633,immed,56199.99980926514,Wed Apr 16 2025 14:11:13 GMT-0400 (Eastern Daylight Time),786267.8999996185,A,gra,I,a,216,1,3799.3999996185303,782468.5,9014,WL,B,1.0
7,4.16700005531311,immed,55832.99994468689,Wed Apr 16 2025 14:11:13 GMT-0400 (Eastern Daylight Time),786634.6999998093,A,gras,I,s,351,1,4166.199999809265,782468.5,9014,WL,B,1.0
7,4.334000110626221,immed,55665.99988937378,Wed Apr 16 2025 14:11:13 GMT-0400 (Eastern Daylight Time),786801.2999992371,A,grass,I,s,144,1,4332.799999237061,782468.5,9014,WL,B,1.0
7,4.883000135421753,immed,55116.99986457825,Wed Apr 16 2025 14:11:13 GMT-0400 (Eastern Daylight Time),787350.8999996185,A,grassenter,I,enter,537,1,4882.39999961853,782468.5,9014,WL,B,1.0
7,5.367000102996826,immed,54632.999897003174,Wed Apr 16 2025 14:11:13 GMT-0400 (Eastern Daylight Time),787834.5999994278,A,s,I,s,471,1,483.3999996185303,787351.1999998093,9014,WL,B,2.0
7,5.650000095367432,immed,54349.99990463257,Wed Apr 16 2025 14:11:13 GMT-0400 (Eastern Daylight Time),788117.7999992371,A,st,I,t,272,1,766.5999994277954,787351.1999998093,9014,WL,B,2.0
7,5.884000062942505,immed,54115.999937057495,Wed Apr 16 2025 14:11:13 GMT-0400 (Eastern Daylight Time),788351.2999992371,A,str,I,r,213,1,1000.0999994277954,787351.1999998093,9014,WL,B,2.0
7,6.067000150680542,immed,53932.99984931946,Wed Apr 16 2025 14:11:13 GMT-0400 (Eastern Daylight Time),788534.6999998093,A,stre,I,e,164,1,1183.5,787351.1999998093,9014,WL,B,2.0
7,6.267000198364258,immed,53732.99980163574,Wed Apr 16 2025 14:11:13 GMT-0400 (Eastern Daylight Time),788734.6999998093,A,stree,I,e,180,1,1383.5,787351.1999998093,9014,WL,B,2.0
7,6.6000001430511475,immed,53399.99985694885,Wed Apr 16 2025 14:11:13 GMT-0400 (Eastern Daylight Time),789068.0,A,street,I,t,308,1,1716.8000001907349,787351.1999998093,9014,WL,B,2.0
7,6.8500001430511475,immed,53149.99985694885,Wed Apr 16 2025 14:11:13 GMT-0400 (Eastern Daylight Time),789317.3999996185,A,streetenter,I,enter,237,1,1966.1999998092651,787351.1999998093,9014,WL,B,2.0
7,7.767000198364258,immed,52232.99980163574,Wed Apr 16 2025 14:11:13 GMT-0400 (Eastern Daylight Time),790234.5999994278,A,d,I,d,904,1,916.8999996185303,789317.6999998093,9014,WL,B,3.0
7,7.91700005531311,immed,52082.99994468689,Wed Apr 16 2025 14:11:13 GMT-0400 (Eastern Daylight Time),790384.5999994278,A,do,I,o,128,1,1066.8999996185303,789317.6999998093,9014,WL,B,3.0
7,8.034000158309937,immed,51965.99984169006,Wed Apr 16 2025 14:11:13 GMT-0400 (Eastern Daylight Time),790502.0999994278,A,doo,I,o,106,1,1184.3999996185303,789317.6999998093,9014,WL,B,3.0
7,8.200000047683716,immed,51799.999952316284,Wed Apr 16 2025 14:11:13 GMT-0400 (Eastern Daylight Time),790668.0999994278,A,door,I,r,141,1,1350.3999996185303,789317.6999998093,9014,WL,B,3.0
7,8.532999992370605,immed,51467.000007629395,Wed Apr 16 2025 14:11:13 GMT-0400 (Eastern Daylight Time),791000.8999996185,A,doorenter,I,enter,318,1,1683.1999998092651,789317.6999998093,9014,WL,B,3.0
7,8.800000190734863,immed,51199.99980926514,Wed Apr 16 2025 14:11:13 GMT-0400 (Eastern Daylight Time),791267.7999992371,A,a,I,a,245,1,266.5999994277954,791001.1999998093,9014,WL,B,4.0
7,8.91700005531311,immed,51082.99994468689,Wed Apr 16 2025 14:11:13 GMT-0400 (Eastern Daylight Time),791384.6999998093,A,ar,I,r,103,1,383.5,791001.1999998093,9014,WL,B,4.0
7,9.117000102996826,immed,50882.999897003174,Wed Apr 16 2025 14:11:13 GMT-0400 (Eastern Daylight Time),791584.6999998093,A,arm,I,m,171,1,583.5,791001.1999998093,9014,WL,B,4.0
7,9.450000047683716,immed,50549.999952316284,Wed Apr 16 2025 14:11:13 GMT-0400 (Eastern Daylight Time),791917.5,A,armenter,I,enter,313,1,916.3000001907349,791001.1999998093,9014,WL,B,4.0
7,10.517000198364258,immed,49482.99980163574,Wed Apr 16 2025 14:11:13 GMT-0400 (Eastern Daylight Time),792984.6999998093,A,w,I,w,1056,1,1066.8000001907349,791917.8999996185,9014,WL,B,5.0
7,10.650000095367432,immed,49349.99990463257,Wed Apr 16 2025 14:11:13 GMT-0400 (Eastern Daylight Time),793118.1999998093,A,wi,I,i,114,1,1200.3000001907349,791917.8999996185,9014,WL,B,5.0
