Q,Q1,Q2,Q3,Q4,acc_sum,block,block_c,correct,correct_response,datetime,endtime,project,response,response_time,row_sel,session_number,squiggle1,squiggle1x,squiggle1y,squiggle2,squiggle2x,squiggle2y,squiggle3,squiggle3x,squiggle3y,squiggle4,squiggle4x,squiggle4y,start_end,starttime,subject_id,target_congruent,task,task_vers,testsquiggle,testsquigglex,testsquiggley,time_practice_delay,time_practice_fixation,time_practice_stimuli,time_practice_study,time_test_delay,time_test_fixation,time_test_stimuli,time_test_study,trial
1,1,0,0,0,0,prac,1,0,z,Thu Feb 06 2025 12:12:52 GMT-0600 (Central Standard Time),202443.59999999404,I,None,2014,1,1,116.bmp,-120,-120,117.bmp,120,-120,118.bmp,-120,120,119.bmp,120,120,10826.899999976158,191616.70000001788,8022,yes,SM,A,116.bmp,-120,-120,194929,188901,196947,190915,,,,,1
3,0,0,1,0,0,prac,1,0,m,Thu Feb 06 2025 12:12:52 GMT-0600 (Central Standard Time),213373.59999999404,I,None,2013,2,1,120.bmp,-120,-120,121.bmp,120,-120,122.bmp,-120,120,123.bmp,120,120,10926.0,202447.59999999404,8022,no,SM,A,123.bmp,-120,120,205873,199732,207878,201745,,,,,2
4,0,0,0,1,0,prac,1,0,m,Thu Feb 06 2025 12:12:52 GMT-0600 (Central Standard Time),223970.09999999404,I,z,1780,3,1,124.bmp,-120,-120,125.bmp,120,-120,126.bmp,-120,120,127.bmp,120,120,10592.899999976158,213377.20000001788,8022,no,SM,A,124.bmp,120,120,216689,210661,218707,212675,,,,,3
2,0,1,0,0,1,prac,1,1,z,Thu Feb 06 2025 12:12:52 GMT-0600 (Central Standard Time),234516.80000001192,I,z,1592,4,1,128.bmp,-120,-120,129.bmp,120,-120,130.bmp,-120,120,131.bmp,120,120,10542.90000000596,223973.90000000596,8022,yes,SM,A,129.bmp,120,-120,227286,221258,229431,223273,,,,,4
3,0,0,1,0,2,prac,1,1,z,Thu Feb 06 2025 12:12:52 GMT-0600 (Central Standard Time),245113.70000001788,I,z,1773,5,1,132.bmp,-120,-120,133.bmp,120,-120,134.bmp,-120,120,135.bmp,120,120,10593.300000011921,234520.40000000596,8022,yes,SM,A,134.bmp,-120,120,237832,231805,239850,233818,,,,,5
1,1,0,0,0,2,prac,1,0,m,Thu Feb 06 2025 12:12:52 GMT-0600 (Central Standard Time),255943.30000001192,I,None,2014,6,1,136.bmp,-120,-120,137.bmp,120,-120,138.bmp,-120,120,139.bmp,120,120,10826.200000017881,245117.09999999404,8022,no,SM,A,139.bmp,-120,-120,248430,242401,250447,244415,,,,,6
2,0,1,0,0,3,prac,1,1,m,Thu Feb 06 2025 12:12:52 GMT-0600 (Central Standard Time),266256.90000000596,I,m,1490,7,1,140.bmp,-120,-120,141.bmp,120,-120,142.bmp,-120,120,143.bmp,120,120,10310.09999999404,255946.80000001192,8022,no,SM,A,140.bmp,120,-120,259259,253231,261277,255245,,,,,7
4,0,0,0,1,3,prac,1,0,z,Thu Feb 06 2025 12:12:52 GMT-0600 (Central Standard Time),277086.8000000119,I,None,2014,8,1,144.bmp,-120,-120,145.bmp,120,-120,146.bmp,-120,120,147.bmp,120,120,10826.300000011921,266260.5,8022,yes,SM,A,147.bmp,120,120,269572,263545,271590,265559,,,,,8
1,1,0,0,0,1,prac,2,1,z,Thu Feb 06 2025 12:12:52 GMT-0600 (Central Standard Time),291532.5,I,z,1537,1,1,116.bmp,-120,-120,117.bmp,120,-120,118.bmp,-120,120,119.bmp,120,120,10360.5,281172.0,8022,yes,SM,A,116.bmp,-120,-120,284484,278456,286502,280471,,,,,1
3,0,0,1,0,1,prac,2,0,m,Thu Feb 06 2025 12:12:52 GMT-0600 (Central Standard Time),302012.59999999404,I,z,1653,2,1,120.bmp,-120,-120,121.bmp,120,-120,122.bmp,-120,120,123.bmp,120,120,10476.799999982119,291535.8000000119,8022,no,SM,A,123.bmp,-120,120,294848,288820,296866,290834,,,,,2
4,0,0,0,1,1,prac,2,0,m,Thu Feb 06 2025 12:12:52 GMT-0600 (Central Standard Time),312842.40000000596,I,None,2014,3,1,124.bmp,-120,-120,125.bmp,120,-120,126.bmp,-120,120,127.bmp,120,120,10826.40000000596,302016.0,8022,no,SM,A,124.bmp,120,120,305328,299300,307346,301314,,,,,3
2,0,1,0,0,2,prac,2,1,z,Thu Feb 06 2025 12:12:52 GMT-0600 (Central Standard Time),323456.0,I,z,1783,4,1,128.bmp,-120,-120,129.bmp,120,-120,130.bmp,-120,120,131.bmp,120,120,10609.799999982119,312846.2000000179,8022,yes,SM,A,129.bmp,120,-120,316158,310130,318176,312144,,,,,4
3,0,0,1,0,3,prac,2,1,z,Thu Feb 06 2025 12:12:52 GMT-0600 (Central Standard Time),334185.8000000119,I,z,1898,5,1,132.bmp,-120,-120,133.bmp,120,-120,134.bmp,-120,120,135.bmp,120,120,10726.59999999404,323459.2000000179,8022,yes,SM,A,134.bmp,-120,120,326771,320743,328789,322757,,,,,5
1,1,0,0,0,4,prac,2,1,m,Thu Feb 06 2025 12:12:52 GMT-0600 (Central Standard Time),344499.2000000179,I,m,1496,6,1,136.bmp,-120,-120,137.bmp,120,-120,138.bmp,-120,120,139.bmp,120,120,10310.0,334189.2000000179,8022,no,SM,A,139.bmp,-120,-120,337502,331474,339519,333487,,,,,6
2,0,1,0,0,5,prac,2,1,m,Thu Feb 06 2025 12:12:52 GMT-0600 (Central Standard Time),354895.8000000119,I,m,1566,7,1,140.bmp,-120,-120,141.bmp,120,-120,142.bmp,-120,120,143.bmp,120,120,10393.0,344502.8000000119,8022,no,SM,A,140.bmp,120,-120,347815,341787,349833,343800,,,,,7
4,0,0,0,1,6,prac,2,1,z,Thu Feb 06 2025 12:12:52 GMT-0600 (Central Standard Time),365459.2000000179,I,z,1738,8,1,144.bmp,-120,-120,145.bmp,120,-120,146.bmp,-120,120,147.bmp,120,120,10559.700000017881,354899.5,8022,yes,SM,A,147.bmp,120,120,358211,352184,360229,354198,,,,,8
4,0,0,0,1,1,test,1,1,m,Thu Feb 06 2025 12:12:52 GMT-0600 (Central Standard Time),391134.59999999404,I,m,1461,1,1,148.bmp,-120,-120,149.bmp,120,-120,150.bmp,-120,120,143.bmp,120,120,9511.09999999404,381623.5,8022,no,SM,A,150.bmp,120,120,358211,352184,360229,354198,384936.0,378908.0,386954.0,380922.0,1
2,0,1,0,0,2,test,1,1,m,Thu Feb 06 2025 12:12:52 GMT-0600 (Central Standard Time),400648.3000000119,I,m,1476,2,1,101.bmp,-120,-120,102.bmp,120,-120,103.bmp,-120,120,104.bmp,120,120,9510.40000000596,391137.90000000596,8022,no,SM,A,103.bmp,120,-120,358211,352184,360229,354198,394445.0,388422.0,396451.0,390436.0,2
1,1,0,0,0,2,test,1,0,z,Thu Feb 06 2025 12:12:52 GMT-0600 (Central Standard Time),410461.8000000119,I,m,1761,3,1,105.bmp,-120,-120,106.bmp,120,-120,107.bmp,-120,120,108.bmp,120,120,9809.90000000596,400651.90000000596,8022,yes,SM,A,105.bmp,-120,-120,358211,352184,360229,354198,403964.0,397936.0,405982.0,399950.0,3
3,0,0,1,0,2,test,1,0,m,Thu Feb 06 2025 12:12:52 GMT-0600 (Central Standard Time),420540.5,I,None,2030,4,1,109.bmp,-120,-120,110.bmp,120,-120,111.bmp,-120,120,112.bmp,120,120,10075.299999982119,410465.2000000179,8022,no,SM,A,109.bmp,-120,120,358211,352184,360229,354198,413777.0,407749.0,415795.0,409763.0,4
2,0,1,0,0,2,test,1,0,z,Thu Feb 06 2025 12:12:52 GMT-0600 (Central Standard Time),430605.5,I,None,2015,5,1,113.bmp,-120,-120,114.bmp,120,-120,115.bmp,-120,120,116.bmp,120,120,10061.699999988079,420543.8000000119,8022,yes,SM,A,114.bmp,120,-120,358211,352184,360229,354198,423858.0,417828.0,425875.0,419843.0,5
3,0,0,1,0,3,test,1,1,z,Thu Feb 06 2025 12:12:52 GMT-0600 (Central Standard Time),440285.8000000119,I,z,1620,6,1,117.bmp,-120,-120,118.bmp,120,-120,119.bmp,-120,120,120.bmp,120,120,9676.700000017881,430609.09999999404,8022,yes,SM,A,119.bmp,-120,120,358211,352184,360229,354198,433921.0,427893.0,435939.0,429907.0,6
4,0,0,0,1,4,test,1,1,z,Thu Feb 06 2025 12:12:52 GMT-0600 (Central Standard Time),450315.7000000179,I,z,1979,7,1,121.bmp,-120,-120,122.bmp,120,-120,123.bmp,-120,120,124.bmp,120,120,10026.5,440289.2000000179,8022,yes,SM,A,124.bmp,120,120,358211,352184,360229,354198,443602.0,437573.0,445620.0,439588.0,7
2,0,1,0,0,5,test,1,1,m,Thu Feb 06 2025 12:12:52 GMT-0600 (Central Standard Time),460180.90000000596,I,m,1814,8,1,125.bmp,-120,-120,126.bmp,120,-120,127.bmp,-120,120,128.bmp,120,120,9861.59999999404,450319.3000000119,8022,no,SM,A,125.bmp,120,-120,358211,352184,360229,354198,453632.0,447604.0,455649.0,449618.0,8
3,0,0,1,0,6,test,1,1,m,Thu Feb 06 2025 12:12:52 GMT-0600 (Central Standard Time),470143.09999999404,I,m,1925,9,1,129.bmp,-120,-120,130.bmp,120,-120,131.bmp,-120,120,132.bmp,120,120,9958.799999982119,460184.3000000119,8022,no,SM,A,130.bmp,-120,120,358211,352184,360229,354198,463495.0,457469.0,465498.0,459481.0,9
4,0,0,0,1,7,test,1,1,z,Thu Feb 06 2025 12:12:52 GMT-0600 (Central Standard Time),479623.5,I,z,1418,10,1,137.bmp,-120,-120,138.bmp,120,-120,139.bmp,-120,120,140.bmp,120,120,9476.90000000596,470146.59999999404,8022,yes,SM,A,140.bmp,120,120,358211,352184,360229,354198,473459.0,467431.0,475477.0,469445.0,10
3,0,0,1,0,8,test,1,1,z,Thu Feb 06 2025 12:12:52 GMT-0600 (Central Standard Time),489203.59999999404,I,z,1530,11,1,133.bmp,-120,-120,134.bmp,120,-120,135.bmp,-120,120,136.bmp,120,120,9576.799999982119,479626.8000000119,8022,yes,SM,A,135.bmp,-120,120,358211,352184,360229,354198,482939.0,476911.0,484957.0,478925.0,11
2,0,1,0,0,9,test,1,1,m,Thu Feb 06 2025 12:12:52 GMT-0600 (Central Standard Time),499001.0,I,m,1642,12,1,141.bmp,-120,-120,142.bmp,120,-120,143.bmp,-120,120,144.bmp,120,120,9794.40000000596,489206.59999999404,8022,no,SM,A,141.bmp,120,-120,358211,352184,360229,354198,492619.0,486491.0,494637.0,488617.0,12
3,0,0,1,0,10,test,1,1,m,Thu Feb 06 2025 12:12:52 GMT-0600 (Central Standard Time),508381.3000000119,I,m,1321,13,1,145.bmp,-120,-120,146.bmp,120,-120,147.bmp,-120,120,148.bmp,120,120,9377.200000017881,499004.09999999404,8022,no,SM,A,146.bmp,-120,120,358211,352184,360229,354198,502316.0,496288.0,504334.0,498303.0,13
1,1,0,0,0,11,test,1,1,z,Thu Feb 06 2025 12:12:52 GMT-0600 (Central Standard Time),518011.7000000179,I,z,1580,14,1,149.bmp,-120,-120,150.bmp,120,-120,104.bmp,-120,120,101.bmp,120,120,9627.300000011921,508384.40000000596,8022,yes,SM,A,149.bmp,-120,-120,358211,352184,360229,354198,511697.0,505669.0,513714.0,507687.0,14
4,0,0,0,1,11,test,1,0,m,Thu Feb 06 2025 12:12:52 GMT-0600 (Central Standard Time),527908.599999994,I,z,1846,15,1,110.bmp,-120,-120,111.bmp,120,-120,112.bmp,-120,120,113.bmp,120,120,9893.5,518015.09999999404,8022,no,SM,A,111.bmp,120,120,358211,352184,360229,354198,521327.0,515299.0,523345.0,517313.0,15
1,1,0,0,0,12,test,1,1,m,Thu Feb 06 2025 12:12:52 GMT-0600 (Central Standard Time),537138.900000006,I,m,1165,16,1,102.bmp,-120,-120,103.bmp,120,-120,104.bmp,-120,120,105.bmp,120,120,9227.300000011921,527911.599999994,8022,no,SM,A,105.bmp,-120,-120,358211,352184,360229,354198,531224.0,525196.0,533242.0,527210.0,16
3,0,0,1,0,12,test,1,0,m,Thu Feb 06 2025 12:12:52 GMT-0600 (Central Standard Time),547202.5,I,None,2014,17,1,122.bmp,-120,-120,123.bmp,120,-120,124.bmp,-120,120,125.bmp,120,120,10060.5,537142.0,8022,no,SM,A,122.bmp,-120,120,358211,352184,360229,354198,540455.0,534426.0,542472.0,536440.0,17
1,1,0,0,0,13,test,1,1,z,Thu Feb 06 2025 12:12:52 GMT-0600 (Central Standard Time),556666.0,I,z,1407,18,1,106.bmp,-120,-120,107.bmp,120,-120,108.bmp,-120,120,109.bmp,120,120,9459.90000000596,547206.099999994,8022,yes,SM,A,106.bmp,-120,-120,358211,352184,360229,354198,550518.0,544490.0,552536.0,546504.0,18
2,0,1,0,0,14,test,1,1,z,Thu Feb 06 2025 12:12:52 GMT-0600 (Central Standard Time),566329.7000000179,I,z,1607,19,1,126.bmp,-120,-120,127.bmp,120,-120,128.bmp,-120,120,129.bmp,120,120,9656.5,556673.2000000179,8022,yes,SM,A,127.bmp,120,-120,358211,352184,360229,354198,559982.0,553957.0,562000.0,555968.0,19
3,0,0,1,0,15,test,1,1,z,Thu Feb 06 2025 12:12:52 GMT-0600 (Central Standard Time),575560.099999994,I,z,1176,20,1,130.bmp,-120,-120,131.bmp,120,-120,132.bmp,-120,120,133.bmp,120,120,9227.199999988079,566332.900000006,8022,yes,SM,A,132.bmp,-120,120,358211,352184,360229,354198,569646.0,563617.0,571663.0,565632.0,20
1,1,0,0,0,16,test,1,1,m,Thu Feb 06 2025 12:12:52 GMT-0600 (Central Standard Time),585552.599999994,I,m,1926,21,1,114.bmp,-120,-120,115.bmp,120,-120,116.bmp,-120,120,117.bmp,120,120,9989.399999976158,575563.2000000179,8022,no,SM,A,116.bmp,-120,-120,358211,352184,360229,354198,578876.0,572847.0,580894.0,574862.0,21
4,0,0,0,1,17,test,1,1,z,Thu Feb 06 2025 12:12:52 GMT-0600 (Central Standard Time),595320.8000000119,I,z,1700,22,1,118.bmp,-120,-120,119.bmp,120,-120,120.bmp,-120,120,121.bmp,120,120,9764.5,585556.3000000119,8022,yes,SM,A,121.bmp,120,120,358211,352184,360229,354198,588873.0,582841.0,590891.0,584859.0,22
1,1,0,0,0,18,test,1,1,m,Thu Feb 06 2025 12:12:52 GMT-0600 (Central Standard Time),604734.5,I,m,1353,23,1,134.bmp,-120,-120,135.bmp,120,-120,136.bmp,-120,120,137.bmp,120,120,9410.799999982119,595323.7000000179,8022,no,SM,A,137.bmp,-120,-120,358211,352184,360229,354198,598636.0,592608.0,600654.0,594622.0,23
2,0,1,0,0,19,test,1,1,z,Thu Feb 06 2025 12:12:52 GMT-0600 (Central Standard Time),614348.3000000119,I,z,1555,24,1,142.bmp,-120,-120,143.bmp,120,-120,144.bmp,-120,120,145.bmp,120,120,9610.90000000596,604737.400000006,8022,yes,SM,A,143.bmp,120,-120,358211,352184,360229,354198,608050.0,602022.0,610068.0,604036.0,24
4,0,0,0,1,20,test,1,1,m,Thu Feb 06 2025 12:12:52 GMT-0600 (Central Standard Time),623861.8000000119,I,m,1453,25,1,146.bmp,-120,-120,147.bmp,120,-120,148.bmp,-120,120,149.bmp,120,120,9510.200000017881,614351.599999994,8022,no,SM,A,148.bmp,120,120,358211,352184,360229,354198,617664.0,611636.0,619682.0,613650.0,25
1,1,0,0,0,21,test,1,1,z,Thu Feb 06 2025 12:12:52 GMT-0600 (Central Standard Time),633808.900000006,I,z,1892,26,1,138.bmp,-120,-120,139.bmp,120,-120,140.bmp,-120,120,141.bmp,120,120,9943.5,623865.400000006,8022,yes,SM,A,138.bmp,-120,-120,358211,352184,360229,354198,627177.0,621150.0,629195.0,623163.0,26
4,0,0,0,1,21,test,1,0,z,Thu Feb 06 2025 12:12:52 GMT-0600 (Central Standard Time),643872.2000000179,I,None,2014,27,1,150.bmp,-120,-120,111.bmp,120,-120,101.bmp,-120,120,102.bmp,120,120,10059.90000000596,633812.3000000119,8022,yes,SM,A,102.bmp,120,120,358211,352184,360229,354198,637125.0,631096.0,639142.0,633110.0,27
3,0,0,1,0,21,test,1,0,m,Thu Feb 06 2025 12:12:52 GMT-0600 (Central Standard Time),653285.8000000119,I,z,1361,28,1,103.bmp,-120,-120,104.bmp,120,-120,105.bmp,-120,120,106.bmp,120,120,9410.40000000596,643875.400000006,8022,no,SM,A,103.bmp,-120,120,358211,352184,360229,354198,647188.0,641160.0,649206.0,643174.0,28
2,0,1,0,0,22,test,1,1,z,Thu Feb 06 2025 12:12:52 GMT-0600 (Central Standard Time),662866.3000000119,I,z,1524,29,1,107.bmp,-120,-120,108.bmp,120,-120,109.bmp,-120,120,110.bmp,120,120,9577.40000000596,653288.900000006,8022,yes,SM,A,108.bmp,120,-120,358211,352184,360229,354198,656602.0,650573.0,658619.0,652588.0,29
3,0,0,1,0,23,test,1,1,z,Thu Feb 06 2025 12:12:52 GMT-0600 (Central Standard Time),672163.5,I,z,1247,30,1,111.bmp,-120,-120,112.bmp,120,-120,113.bmp,-120,120,114.bmp,120,120,9293.699999988079,662869.8000000119,8022,yes,SM,A,113.bmp,-120,120,358211,352184,360229,354198,666182.0,660154.0,668200.0,662168.0,30
1,1,0,0,0,24,test,1,1,z,Thu Feb 06 2025 12:12:52 GMT-0600 (Central Standard Time),681643.7000000179,I,z,1415,31,1,115.bmp,-120,-120,116.bmp,120,-120,117.bmp,-120,120,118.bmp,120,120,9477.300000011921,672166.400000006,8022,yes,SM,A,115.bmp,-120,-120,358211,352184,360229,354198,675479.0,669451.0,677497.0,671465.0,31
2,0,1,0,0,25,test,1,1,m,Thu Feb 06 2025 12:12:52 GMT-0600 (Central Standard Time),691390.900000006,I,m,1694,32,1,119.bmp,-120,-120,120.bmp,120,-120,121.bmp,-120,120,122.bmp,120,120,9744.09999999404,681646.8000000119,8022,no,SM,A,119.bmp,120,-120,358211,352184,360229,354198,684960.0,678931.0,686977.0,680946.0,32
4,0,0,0,1,26,test,1,1,z,Thu Feb 06 2025 12:12:52 GMT-0600 (Central Standard Time),701221.099999994,I,z,1771,33,1,131.bmp,-120,-120,132.bmp,120,-120,133.bmp,-120,120,134.bmp,120,120,9827.0,691394.099999994,8022,yes,SM,A,134.bmp,120,120,358211,352184,360229,354198,694706.0,688678.0,696724.0,690692.0,33
2,0,1,0,0,27,test,1,1,z,Thu Feb 06 2025 12:12:52 GMT-0600 (Central Standard Time),710868.099999994,I,z,1581,34,1,123.bmp,-120,-120,124.bmp,120,-120,125.bmp,-120,120,126.bmp,120,120,9643.399999976158,701224.7000000179,8022,yes,SM,A,124.bmp,120,-120,358211,352184,360229,354198,704553.0,698509.0,706570.0,700544.0,34
4,0,0,0,1,28,test,1,1,m,Thu Feb 06 2025 12:12:52 GMT-0600 (Central Standard Time),720614.900000006,I,m,1686,35,1,127.bmp,-120,-120,128.bmp,120,-120,129.bmp,-120,120,130.bmp,120,120,9743.800000011921,710871.099999994,8022,no,SM,A,129.bmp,120,120,358211,352184,360229,354198,714184.0,708155.0,716201.0,710170.0,35
3,0,0,1,0,28,test,1,0,m,Thu Feb 06 2025 12:12:52 GMT-0600 (Central Standard Time),730261.900000006,I,z,1603,36,1,135.bmp,-120,-120,136.bmp,120,-120,137.bmp,-120,120,138.bmp,120,120,9643.699999988079,720618.2000000179,8022,no,SM,A,135.bmp,-120,120,358211,352184,360229,354198,723924.0,717903.0,725932.0,719917.0,36
1,1,0,0,0,29,test,1,1,m,Thu Feb 06 2025 12:12:52 GMT-0600 (Central Standard Time),739559.0,I,m,1236,37,1,139.bmp,-120,-120,140.bmp,120,-120,141.bmp,-120,120,142.bmp,120,120,9293.799999982119,730265.2000000179,8022,no,SM,A,140.bmp,-120,-120,358211,352184,360229,354198,733578.0,727549.0,735595.0,729563.0,37
2,0,1,0,0,30,test,1,1,m,Thu Feb 06 2025 12:12:52 GMT-0600 (Central Standard Time),748989.3000000119,I,m,1370,38,1,143.bmp,-120,-120,144.bmp,120,-120,145.bmp,-120,120,146.bmp,120,120,9427.300000011921,739562.0,8022,no,SM,A,145.bmp,120,-120,358211,352184,360229,354198,742875.0,736846.0,744893.0,738861.0,38
4,0,0,0,1,31,test,1,1,z,Thu Feb 06 2025 12:12:52 GMT-0600 (Central Standard Time),758636.3000000119,I,z,1588,39,1,147.bmp,-120,-120,148.bmp,120,-120,149.bmp,-120,120,150.bmp,120,120,9643.5,748992.8000000119,8022,yes,SM,A,150.bmp,120,120,358211,352184,360229,354198,752305.0,746277.0,754323.0,748291.0,39
3,0,0,1,0,32,test,1,1,m,Thu Feb 06 2025 12:12:52 GMT-0600 (Central Standard Time),768200.099999994,I,m,1501,40,1,104.bmp,-120,-120,105.bmp,120,-120,106.bmp,-120,120,107.bmp,120,120,9560.799999982119,758639.3000000119,8022,no,SM,A,105.bmp,-120,120,358211,352184,360229,354198,761952.0,755923.0,763970.0,757938.0,40
1,1,0,0,0,33,test,1,1,z,Thu Feb 06 2025 12:12:52 GMT-0600 (Central Standard Time),777797.0,I,z,1538,41,1,108.bmp,-120,-120,109.bmp,120,-120,110.bmp,-120,120,111.bmp,120,120,9593.90000000596,768203.099999994,8022,yes,SM,A,108.bmp,-120,-120,358211,352184,360229,354198,771516.0,765487.0,773533.0,767502.0,41
4,0,0,0,1,34,test,1,1,z,Thu Feb 06 2025 12:12:52 GMT-0600 (Central Standard Time),787510.7000000179,I,z,1661,42,1,112.bmp,-120,-120,113.bmp,120,-120,114.bmp,-120,120,115.bmp,120,120,9710.40000000596,777800.3000000119,8022,yes,SM,A,115.bmp,120,120,358211,352184,360229,354198,781113.0,775084.0,783130.0,777099.0,42
1,1,0,0,0,35,test,1,1,z,Thu Feb 06 2025 12:12:52 GMT-0600 (Central Standard Time),796691.2000000179,I,z,1115,43,1,116.bmp,-120,-120,117.bmp,120,-120,118.bmp,-120,120,119.bmp,120,120,9177.100000023842,787514.099999994,8022,yes,SM,A,116.bmp,-120,-120,358211,352184,360229,354198,790826.0,784798.0,792844.0,786812.0,43
4,0,0,0,1,36,test,1,1,m,Thu Feb 06 2025 12:12:52 GMT-0600 (Central Standard Time),805905.2000000179,I,m,1158,44,1,104.bmp,-120,-120,101.bmp,120,-120,102.bmp,-120,120,103.bmp,120,120,9211.100000023842,796694.099999994,8022,no,SM,A,104.bmp,120,120,358211,352184,360229,354198,800007.0,793978.0,802025.0,795993.0,44
1,1,0,0,0,37,test,1,1,m,Thu Feb 06 2025 12:12:52 GMT-0600 (Central Standard Time),815535.3000000119,I,m,1569,45,1,128.bmp,-120,-120,129.bmp,120,-120,130.bmp,-120,120,131.bmp,120,120,9627.0,805908.3000000119,8022,no,SM,A,131.bmp,-120,-120,358211,352184,360229,354198,809221.0,803193.0,811238.0,805206.0,45
1,1,0,0,0,38,test,1,1,m,Thu Feb 06 2025 12:12:52 GMT-0600 (Central Standard Time),824865.7000000179,I,m,1266,46,1,120.bmp,-120,-120,121.bmp,120,-120,122.bmp,-120,120,123.bmp,120,120,9327.600000023842,815538.099999994,8022,no,SM,A,121.bmp,-120,-120,358211,352184,360229,354198,818851.0,812822.0,820869.0,814837.0,46
3,0,0,1,0,39,test,1,1,z,Thu Feb 06 2025 12:12:52 GMT-0600 (Central Standard Time),834246.3000000119,I,z,1328,47,1,124.bmp,-120,-120,125.bmp,120,-120,126.bmp,-120,120,127.bmp,120,120,9377.40000000596,824868.900000006,8022,yes,SM,A,126.bmp,-120,120,358211,352184,360229,354198,828181.0,822153.0,830199.0,824167.0,47
3,0,0,1,0,40,test,1,1,z,Thu Feb 06 2025 12:12:52 GMT-0600 (Central Standard Time),843709.900000006,I,z,1403,48,1,140.bmp,-120,-120,141.bmp,120,-120,142.bmp,-120,120,143.bmp,120,120,9460.699999988079,834249.2000000179,8022,yes,SM,A,142.bmp,-120,120,358211,352184,360229,354198,837563.0,831533.0,839580.0,833548.0,48
2,0,1,0,0,41,test,1,1,z,Thu Feb 06 2025 12:12:52 GMT-0600 (Central Standard Time),853573.3000000119,I,z,1804,49,1,136.bmp,-120,-120,137.bmp,120,-120,138.bmp,-120,120,139.bmp,120,120,9860.800000011921,843712.5,8022,yes,SM,A,137.bmp,120,-120,358211,352184,360229,354198,847025.0,840997.0,849043.0,843011.0,49
3,0,0,1,0,41,test,1,0,m,Thu Feb 06 2025 12:12:52 GMT-0600 (Central Standard Time),863637.0,I,None,2014,50,1,132.bmp,-120,-120,133.bmp,120,-120,134.bmp,-120,120,135.bmp,120,120,10060.699999988079,853576.3000000119,8022,no,SM,A,132.bmp,-120,120,358211,352184,360229,354198,856889.0,850861.0,858907.0,852875.0,50
2,0,1,0,0,42,test,1,1,z,Thu Feb 06 2025 12:12:52 GMT-0600 (Central Standard Time),873133.8000000119,I,z,1446,51,1,144.bmp,-120,-120,145.bmp,120,-120,146.bmp,-120,120,147.bmp,120,120,9493.90000000596,863639.900000006,8022,yes,SM,A,145.bmp,120,-120,358211,352184,360229,354198,866953.0,860924.0,868970.0,862938.0,51
4,0,0,0,1,43,test,1,1,m,Thu Feb 06 2025 12:12:52 GMT-0600 (Central Standard Time),882814.2000000179,I,m,1628,52,1,148.bmp,-120,-120,149.bmp,120,-120,150.bmp,-120,120,131.bmp,120,120,9677.5,873136.7000000179,8022,no,SM,A,148.bmp,120,120,358211,352184,360229,354198,876449.0,870421.0,878467.0,872436.0,52
3,0,0,1,0,44,test,1,1,z,Thu Feb 06 2025 12:12:52 GMT-0600 (Central Standard Time),891961.3000000119,I,z,1091,53,1,101.bmp,-120,-120,102.bmp,120,-120,103.bmp,-120,120,104.bmp,120,120,9143.90000000596,882817.400000006,8022,yes,SM,A,103.bmp,-120,120,358211,352184,360229,354198,886130.0,880101.0,888148.0,882116.0,53
1,1,0,0,0,44,test,1,0,m,Thu Feb 06 2025 12:12:52 GMT-0600 (Central Standard Time),902024.8000000119,I,None,2014,54,1,105.bmp,-120,-120,106.bmp,120,-120,107.bmp,-120,120,108.bmp,120,120,10060.40000000596,891964.400000006,8022,no,SM,A,107.bmp,-120,-120,358211,352184,360229,354198,895278.0,889249.0,897295.0,891263.0,54
4,0,0,0,1,45,test,1,1,z,Thu Feb 06 2025 12:12:52 GMT-0600 (Central Standard Time),911838.2000000179,I,z,1752,55,1,109.bmp,-120,-120,110.bmp,120,-120,111.bmp,-120,120,112.bmp,120,120,9810.40000000596,902027.8000000119,8022,yes,SM,A,112.bmp,120,120,358211,352184,360229,354198,905341.0,899312.0,907359.0,901326.0,55
2,0,1,0,0,46,test,1,1,m,Thu Feb 06 2025 12:12:52 GMT-0600 (Central Standard Time),921002.3000000119,I,m,1107,56,1,113.bmp,-120,-120,114.bmp,120,-120,115.bmp,-120,120,116.bmp,120,120,9161.300000011921,911841.0,8022,no,SM,A,113.bmp,120,-120,358211,352184,360229,354198,915154.0,909125.0,917172.0,911140.0,56
4,0,0,0,1,47,test,1,1,m,Thu Feb 06 2025 12:12:52 GMT-0600 (Central Standard Time),931049.5,I,m,1983,57,1,117.bmp,-120,-120,118.bmp,120,-120,119.bmp,-120,120,120.bmp,120,120,10044.09999999404,921005.400000006,8022,no,SM,A,118.bmp,120,120,358211,352184,360229,354198,924318.0,918290.0,926336.0,920304.0,57
3,0,0,1,0,48,test,1,1,z,Thu Feb 06 2025 12:12:52 GMT-0600 (Central Standard Time),940363.0,I,z,1256,58,1,121.bmp,-120,-120,122.bmp,120,-120,123.bmp,-120,120,124.bmp,120,120,9310.59999999404,931052.400000006,8022,yes,SM,A,123.bmp,-120,120,358211,352184,360229,354198,934365.0,928337.0,936383.0,930351.0,58
2,0,1,0,0,49,test,1,1,m,Thu Feb 06 2025 12:12:52 GMT-0600 (Central Standard Time),949843.2000000179,I,m,1416,59,1,125.bmp,-120,-120,126.bmp,120,-120,127.bmp,-120,120,128.bmp,120,120,9476.40000000596,940366.8000000119,8022,no,SM,A,128.bmp,120,-120,358211,352184,360229,354198,943679.0,937651.0,945696.0,939665.0,59
1,1,0,0,0,50,test,1,1,z,Thu Feb 06 2025 12:12:52 GMT-0600 (Central Standard Time),959623.5,I,z,1727,60,1,129.bmp,-120,-120,130.bmp,120,-120,131.bmp,-120,120,132.bmp,120,120,9776.699999988079,949846.8000000119,8022,yes,SM,A,129.bmp,-120,-120,358211,352184,360229,354198,953159.0,947131.0,955177.0,949145.0,60
2,0,1,0,0,51,test,1,1,z,Thu Feb 06 2025 12:12:52 GMT-0600 (Central Standard Time),969587.099999994,I,z,1907,61,1,133.bmp,-120,-120,134.bmp,120,-120,135.bmp,-120,120,136.bmp,120,120,9960.699999988079,959626.400000006,8022,yes,SM,A,134.bmp,120,-120,358211,352184,360229,354198,962939.0,956911.0,964957.0,958925.0,61
4,0,0,0,1,52,test,1,1,z,Thu Feb 06 2025 12:12:52 GMT-0600 (Central Standard Time),978684.400000006,I,z,1038,62,1,141.bmp,-120,-120,142.bmp,120,-120,143.bmp,-120,120,144.bmp,120,120,9094.199999988079,969590.2000000179,8022,yes,SM,A,144.bmp,120,120,358211,352184,360229,354198,972903.0,966874.0,974921.0,968889.0,62
1,1,0,0,0,52,test,1,0,m,Thu Feb 06 2025 12:12:52 GMT-0600 (Central Standard Time),988748.0,I,None,2014,63,1,145.bmp,-120,-120,146.bmp,120,-120,147.bmp,-120,120,148.bmp,120,120,10060.299999982119,978687.7000000179,8022,no,SM,A,145.bmp,-120,120,358211,352184,360229,354198,982000.0,975972.0,984018.0,977986.0,63
2,0,1,0,0,53,test,1,1,z,Thu Feb 06 2025 12:12:52 GMT-0600 (Central Standard Time),998161.599999994,I,z,1350,64,1,149.bmp,-120,-120,150.bmp,120,-120,112.bmp,-120,120,101.bmp,120,120,9410.399999976158,988751.2000000179,8022,yes,SM,A,150.bmp,120,-120,358211,352184,360229,354198,992063.0,986035.0,994081.0,988050.0,64
4,0,0,0,1,54,test,1,1,m,Thu Feb 06 2025 12:12:52 GMT-0600 (Central Standard Time),1007425.400000006,I,m,1200,65,1,102.bmp,-120,-120,103.bmp,120,-120,104.bmp,-120,120,105.bmp,120,120,9260.800000011921,998164.599999994,8022,no,SM,A,104.bmp,120,120,358211,352184,360229,354198,1001477.0,995449.0,1003495.0,997463.0,65
3,0,0,1,0,55,test,1,1,m,Thu Feb 06 2025 12:12:52 GMT-0600 (Central Standard Time),1017238.900000006,I,m,1778,66,1,106.bmp,-120,-120,107.bmp,120,-120,108.bmp,-120,120,109.bmp,120,120,9809.699999988079,1007429.2000000179,8022,no,SM,A,109.bmp,-120,120,358211,352184,360229,354198,1010724.0,1004713.0,1012742.0,1006720.0,66
2,0,1,0,0,56,test,1,1,m,Thu Feb 06 2025 12:12:52 GMT-0600 (Central Standard Time),1026486.2000000179,I,m,1187,67,1,137.bmp,-120,-120,138.bmp,120,-120,139.bmp,-120,120,140.bmp,120,120,9243.40000000596,1017242.8000000119,8022,no,SM,A,139.bmp,120,-120,358211,352184,360229,354198,1020555.0,1014527.0,1022572.0,1016541.0,67
3,0,0,1,0,57,test,1,1,z,Thu Feb 06 2025 12:12:52 GMT-0600 (Central Standard Time),1035583.3000000119,I,z,1036,68,1,110.bmp,-120,-120,111.bmp,120,-120,112.bmp,-120,120,113.bmp,120,120,9093.09999999404,1026490.2000000179,8022,yes,SM,A,112.bmp,-120,120,358211,352184,360229,354198,1029802.0,1023774.0,1031819.0,1025788.0,68
1,1,0,0,0,58,test,1,1,m,Thu Feb 06 2025 12:12:52 GMT-0600 (Central Standard Time),1044630.5,I,m,986,69,1,114.bmp,-120,-120,115.bmp,120,-120,116.bmp,-120,120,117.bmp,120,120,9044.40000000596,1035586.099999994,8022,no,SM,A,115.bmp,-120,-120,358211,352184,360229,354198,1038899.0,1032870.0,1040917.0,1034885.0,69
2,0,1,0,0,59,test,1,1,m,Thu Feb 06 2025 12:12:52 GMT-0600 (Central Standard Time),1053877.5,I,m,1196,70,1,118.bmp,-120,-120,119.bmp,120,-120,120.bmp,-120,120,121.bmp,120,120,9244.0,1044633.5,8022,no,SM,A,120.bmp,120,-120,358211,352184,360229,354198,1047946.0,1041918.0,1049964.0,1043932.0,70
4,0,0,0,1,60,test,1,1,z,Thu Feb 06 2025 12:12:52 GMT-0600 (Central Standard Time),1063574.5,I,z,1636,71,1,122.bmp,-120,-120,123.bmp,120,-120,124.bmp,-120,120,125.bmp,120,120,9693.799999982119,1053880.7000000179,8022,yes,SM,A,125.bmp,120,120,358211,352184,360229,354198,1057193.0,1051165.0,1059211.0,1053179.0,71
1,1,0,0,0,61,test,1,1,z,Thu Feb 06 2025 12:12:52 GMT-0600 (Central Standard Time),1073221.5,I,z,1595,72,1,126.bmp,-120,-120,127.bmp,120,-120,128.bmp,-120,120,129.bmp,120,120,9643.0,1063578.5,8022,yes,SM,A,126.bmp,-120,-120,358211,352184,360229,354198,1066890.0,1060863.0,1068908.0,1062876.0,72
2,0,1,0,0,62,test,1,1,z,Thu Feb 06 2025 12:12:52 GMT-0600 (Central Standard Time),1083051.800000012,I,z,1781,73,1,130.bmp,-120,-120,131.bmp,120,-120,132.bmp,-120,120,133.bmp,120,120,9827.200000017881,1073224.599999994,8022,yes,SM,A,131.bmp,120,-120,358211,352184,360229,354198,1076537.0,1070509.0,1078555.0,1072523.0,73
4,0,0,0,1,63,test,1,1,m,Thu Feb 06 2025 12:12:52 GMT-0600 (Central Standard Time),1092065.5,I,m,959,74,1,134.bmp,-120,-120,135.bmp,120,-120,136.bmp,-120,120,137.bmp,120,120,9010.799999982119,1083054.7000000179,8022,no,SM,A,136.bmp,120,120,358211,352184,360229,354198,1086367.0,1080339.0,1088385.0,1082353.0,74
2,0,1,0,0,63,test,1,0,m,Thu Feb 06 2025 12:12:52 GMT-0600 (Central Standard Time),1102130.2000000179,I,None,2015,75,1,138.bmp,-120,-120,139.bmp,120,-120,140.bmp,-120,120,141.bmp,120,120,10061.800000011921,1092068.400000006,8022,no,SM,A,141.bmp,120,-120,358211,352184,360229,354198,1095381.0,1089353.0,1097399.0,1091367.0,75
1,1,0,0,0,64,test,1,1,z,Thu Feb 06 2025 12:12:52 GMT-0600 (Central Standard Time),1111192.900000006,I,z,1002,76,1,142.bmp,-120,-120,143.bmp,120,-120,144.bmp,-120,120,145.bmp,120,120,9059.09999999404,1102133.800000012,8022,yes,SM,A,142.bmp,-120,-120,358211,352184,360229,354198,1105445.0,1099418.0,1107462.0,1101431.0,76
3,0,0,1,0,65,test,1,1,z,Thu Feb 06 2025 12:12:52 GMT-0600 (Central Standard Time),1120323.2000000179,I,z,1065,77,1,150.bmp,-120,-120,111.bmp,120,-120,101.bmp,-120,120,102.bmp,120,120,9127.100000023842,1111196.099999994,8022,yes,SM,A,101.bmp,-120,120,358211,352184,360229,354198,1114509.0,1108480.0,1116526.0,1110495.0,77
1,1,0,0,0,66,test,1,1,m,Thu Feb 06 2025 12:12:52 GMT-0600 (Central Standard Time),1129537.2000000179,I,m,1151,78,1,146.bmp,-120,-120,147.bmp,120,-120,148.bmp,-120,120,149.bmp,120,120,9210.90000000596,1120326.300000012,8022,no,SM,A,147.bmp,-120,-120,358211,352184,360229,354198,1123639.0,1117611.0,1125657.0,1119625.0,78
4,0,0,0,1,67,test,1,1,m,Thu Feb 06 2025 12:12:52 GMT-0600 (Central Standard Time),1138634.5,I,m,1032,79,1,107.bmp,-120,-120,108.bmp,120,-120,109.bmp,-120,120,110.bmp,120,120,9094.40000000596,1129540.099999994,8022,no,SM,A,107.bmp,120,120,358211,352184,360229,354198,1132853.0,1126824.0,1134871.0,1128839.0,79
3,0,0,1,0,68,test,1,1,m,Thu Feb 06 2025 12:12:52 GMT-0600 (Central Standard Time),1147715.099999994,I,m,1015,80,1,103.bmp,-120,-120,104.bmp,120,-120,105.bmp,-120,120,106.bmp,120,120,9077.699999988079,1138637.400000006,8022,no,SM,A,106.bmp,-120,120,358211,352184,360229,354198,1141950.0,1135922.0,1143968.0,1137936.0,80
