acc_sum,block,block_c,condition,correct,correct_response,datetime,endtime,flanker,jitter,project,response,response_test_buffer_response,response_test_target_response,response_time,response_time_test_buffer_response,response_time_test_target_response,row_sel,session_number,start_end,starttime,subject_id,target,task,task_vers,time_test_buffer,time_test_buffer_response,time_test_constants,time_test_flanker,time_test_jitter,time_test_logger,time_test_target,time_test_target_response,time_test_variables,trial
0,prac,1,inc,0,z,Thu Oct 24 2024 14:28:39 GMT-0500 (Central Daylight Time),141224.40000003576,iron,900,I,m,,,343,,,6,1,2540.600000023842,138683.80000001192,7030,pear,NF,C,,,,,,,,,,1
1,prac,1,con,1,m,Thu Oct 24 2024 14:28:39 GMT-0500 (Central Daylight Time),144523.70000004768,zinc,1000,I,m,,,972,,,15,1,3279.7000000476837,141244.0,7030,zinc,NF,C,,,,,,,,,,2
2,prac,1,inc,1,m,Thu Oct 24 2024 14:28:39 GMT-0500 (Central Daylight Time),147572.0,raisin,1100,I,m,,,622,,,12,1,3023.099999964237,144548.90000003576,7030,cobalt,NF,C,,,,,,,,,,3
3,prac,1,con,1,m,Thu Oct 24 2024 14:28:39 GMT-0500 (Central Daylight Time),150204.40000003576,bronze,800,I,m,,,505,,,9,1,2608.699999988079,147595.70000004768,7030,bronze,NF,C,,,,,,,,,,4
4,prac,1,con,1,m,Thu Oct 24 2024 14:28:39 GMT-0500 (Central Daylight Time),152920.20000004768,silver,1000,I,m,,,384,,,11,1,2693.300000011921,150226.90000003576,7030,silver,NF,C,,,,,,,,,,5
5,prac,1,con,1,z,Thu Oct 24 2024 14:28:39 GMT-0500 (Central Daylight Time),155636.20000004768,kiwi,1000,I,z,,,390,,,7,1,2693.0,152943.20000004768,7030,kiwi,NF,C,,,,,,,,,,6
6,prac,1,inc,1,z,Thu Oct 24 2024 14:28:39 GMT-0500 (Central Daylight Time),158701.10000002384,cobalt,1100,I,z,,,645,,,4,1,3044.399999976158,155656.70000004768,7030,raisin,NF,C,,,,,,,,,,7
7,prac,1,inc,1,z,Thu Oct 24 2024 14:28:39 GMT-0500 (Central Daylight Time),161300.80000001192,copper,900,I,z,,,388,,,2,1,2591.0,158709.80000001192,7030,cherry,NF,C,,,,,,,,,,8
8,prac,1,con,1,m,Thu Oct 24 2024 14:28:39 GMT-0500 (Central Daylight Time),164116.60000002384,gold,800,I,m,,,697,,,13,1,2792.699999988079,161323.90000003576,7030,gold,NF,C,,,,,,,,,,9
9,prac,1,con,1,z,Thu Oct 24 2024 14:28:39 GMT-0500 (Central Daylight Time),166632.40000003576,lime,800,I,z,,,392,,,5,1,2496.600000023842,164135.80000001192,7030,lime,NF,C,,,,,,,,,,10
10,prac,1,inc,1,m,Thu Oct 24 2024 14:28:39 GMT-0500 (Central Daylight Time),169731.5,plum,1100,I,m,,,673,,,16,1,3076.899999976158,166654.60000002384,7030,lead,NF,C,,,,,,,,,,11
11,prac,1,inc,1,m,Thu Oct 24 2024 14:28:39 GMT-0500 (Central Daylight Time),172680.60000002384,cherry,900,I,m,,,718,,,10,1,2927.100000023842,169753.5,7030,copper,NF,C,,,,,,,,,,12
12,prac,1,con,1,z,Thu Oct 24 2024 14:28:39 GMT-0500 (Central Daylight Time),175513.0,banana,800,I,z,,,708,,,1,1,2811.0,172702.0,7030,banana,NF,C,,,,,,,,,,13
13,prac,1,inc,1,z,Thu Oct 24 2024 14:28:39 GMT-0500 (Central Daylight Time),178677.80000001192,lead,1100,I,z,,,744,,,8,1,3143.0,175534.80000001192,7030,plum,NF,C,,,,,,,,,,14
14,prac,1,con,1,z,Thu Oct 24 2024 14:28:39 GMT-0500 (Central Daylight Time),182127.20000004768,orange,1000,I,z,,,1137,,,3,1,3440.2000000476837,178687.0,7030,orange,NF,C,,,,,,,,,,15
15,prac,1,inc,1,m,Thu Oct 24 2024 14:28:39 GMT-0500 (Central Daylight Time),185026.30000001192,pear,900,I,m,,,666,,,14,1,2876.899999976158,182149.40000003576,7030,iron,NF,C,,,,,,,,,,16
1,test,1,inc,1,m,Thu Oct 24 2024 14:28:39 GMT-0500 (Central Daylight Time),201854.30000001192,orange,1000,I,m,m,None,505,306.0,199.0,87,1,2044.8999999761581,199809.40000003576,7030,silver,NF,C,194397,194397,192668,193681,192670,194713,194197,194197,194713,1
2,test,1,con,1,m,Thu Oct 24 2024 14:28:39 GMT-0500 (Central Daylight Time),203753.60000002384,bronze,900,I,m,m,None,444,245.0,199.0,66,1,1875.6000000238419,201878.0,7030,bronze,NF,C,196362,196362,194737,195647,194738,196613,196163,196163,196612,2
3,test,1,inc,1,z,Thu Oct 24 2024 14:28:39 GMT-0500 (Central Daylight Time),205736.0,iron,900,I,z,z,None,527,328.0,199.0,46,1,1958.0999999642372,203777.90000003576,7030,pear,NF,C,198263,198263,196637,197546,196638,198595,198063,198063,198595,3
4,test,1,con,1,z,Thu Oct 24 2024 14:28:39 GMT-0500 (Central Daylight Time),207835.40000003576,raisin,900,I,z,z,None,640,441.0,199.0,26,1,2077.800000011921,205757.60000002384,7030,raisin,NF,C,200246,200246,198617,199529,198618,200694,200045,200046,200694,4
5,test,1,con,1,m,Thu Oct 24 2024 14:28:39 GMT-0500 (Central Daylight Time),209834.70000004768,gold,800,I,m,m,None,641,442.0,199.0,97,1,1976.1000000238419,207858.60000002384,7030,gold,NF,C,202245,202245,200718,201528,200719,202694,202045,202045,202694,5
6,test,1,con,1,m,Thu Oct 24 2024 14:28:39 GMT-0500 (Central Daylight Time),212200.60000002384,zinc,1100,I,m,m,None,702,503.0,199.0,116,1,2345.399999976158,209855.20000004768,7030,zinc,NF,C,204544,204544,202714,203827,202715,205060,204344,204344,205060,6
7,test,1,inc,1,m,Thu Oct 24 2024 14:28:39 GMT-0500 (Central Daylight Time),214283.10000002384,pear,900,I,m,m,None,624,425.0,199.0,110,1,2060.300000011921,212222.80000001192,7030,iron,NF,C,206710,206710,205082,205993,205083,207142,206510,206510,207142,7
7,test,1,con,0,z,Thu Oct 24 2024 14:28:39 GMT-0500 (Central Daylight Time),216148.90000003576,lime,800,I,m,m,None,513,314.0,199.0,33,1,1844.9000000357628,214304.0,7030,lime,NF,C,208692,208693,207163,207976,207164,209008,208492,208493,209008,8
8,test,1,inc,1,z,Thu Oct 24 2024 14:28:39 GMT-0500 (Central Daylight Time),218348.60000002384,cobalt,1100,I,z,z,None,540,340.0,200.0,32,1,2178.0,216170.60000002384,7030,raisin,NF,C,210859,210859,209030,210142,209031,211208,210658,210658,211208,9
9,test,1,con,1,m,Thu Oct 24 2024 14:28:39 GMT-0500 (Central Daylight Time),220448.0,iron,900,I,m,m,None,644,445.0,199.0,106,1,2078.899999976158,218369.10000002384,7030,iron,NF,C,212858,212858,211228,212141,211229,213307,212658,212658,213307,10
10,test,1,inc,1,m,Thu Oct 24 2024 14:28:39 GMT-0500 (Central Daylight Time),222630.5,banana,800,I,m,m,None,830,630.0,200.0,85,1,2160.5,220470.0,7030,silver,NF,C,214857,214857,213329,214141,213331,215490,214657,214657,215490,11
11,test,1,con,1,m,Thu Oct 24 2024 14:28:39 GMT-0500 (Central Daylight Time),224679.90000003576,zinc,800,I,m,m,None,686,487.0,199.0,113,1,2026.699999988079,222653.20000004768,7030,zinc,NF,C,217040,217040,215512,216323,215513,217539,216840,216840,217539,12
12,test,1,inc,1,z,Thu Oct 24 2024 14:28:39 GMT-0500 (Central Daylight Time),226912.40000003576,silver,1000,I,z,z,None,677,478.0,199.0,15,1,2211.300000011921,224701.10000002384,7030,cherry,NF,C,219289,219289,217560,218573,217561,219772,219089,219089,219771,13
13,test,1,con,1,z,Thu Oct 24 2024 14:28:39 GMT-0500 (Central Daylight Time),229311.70000004768,raisin,1100,I,z,z,None,736,537.0,199.0,28,1,2377.2000000476837,226934.5,7030,raisin,NF,C,221621,221622,219794,220905,219795,222171,221422,221422,222171,14
14,test,1,inc,1,z,Thu Oct 24 2024 14:28:39 GMT-0500 (Central Daylight Time),231511.0,iron,900,I,z,z,None,745,546.0,199.0,62,1,2178.5,229332.5,7030,plum,NF,C,223821,223821,222192,223104,222193,224370,223621,223621,224370,15
15,test,1,con,1,z,Thu Oct 24 2024 14:28:39 GMT-0500 (Central Daylight Time),234060.40000003576,kiwi,1100,I,z,z,None,898,699.0,199.0,52,1,2529.300000011921,231531.10000002384,7030,kiwi,NF,C,226220,226220,224390,225503,224392,226920,226020,226020,226919,16
16,test,1,inc,1,m,Thu Oct 24 2024 14:28:39 GMT-0500 (Central Daylight Time),236242.70000004768,cherry,900,I,m,m,None,725,526.0,199.0,78,1,2161.5,234081.20000004768,7030,copper,NF,C,228569,228569,226940,227853,226942,229102,228369,228369,229102,17
17,test,1,inc,1,m,Thu Oct 24 2024 14:28:39 GMT-0500 (Central Daylight Time),238342.0,lime,800,I,m,m,None,738,539.0,199.0,101,1,2078.899999976158,236263.10000002384,7030,gold,NF,C,230652,230652,229122,229935,229123,231201,230452,230452,231201,18
18,test,1,inc,1,z,Thu Oct 24 2024 14:28:39 GMT-0500 (Central Daylight Time),240924.70000004768,cobalt,1100,I,z,z,None,931,732.0,199.0,24,1,2561.600000023842,238363.10000002384,7030,orange,NF,C,233051,233051,231222,232334,231224,233784,232851,232851,233784,19
19,test,1,inc,1,z,Thu Oct 24 2024 14:28:39 GMT-0500 (Central Daylight Time),243607.10000002384,zinc,1000,I,z,z,None,1120,921.0,199.0,63,1,2661.800000011921,240945.30000001192,7030,plum,NF,C,235534,235534,233804,234817,233805,236466,235334,235334,236466,20
20,test,1,con,1,z,Thu Oct 24 2024 14:28:39 GMT-0500 (Central Daylight Time),245873.10000002384,cherry,1000,I,z,z,None,701,502.0,199.0,11,1,2243.399999976158,243629.70000004768,7030,cherry,NF,C,238216,238217,236489,237500,236490,238732,238016,238016,238732,21
21,test,1,inc,1,z,Thu Oct 24 2024 14:28:39 GMT-0500 (Central Daylight Time),248022.20000004768,bronze,800,I,z,z,None,796,597.0,199.0,21,1,2122.0,245900.20000004768,7030,orange,NF,C,240282,240282,238759,239566,238760,240881,240082,240082,240881,22
22,test,1,inc,1,z,Thu Oct 24 2024 14:28:39 GMT-0500 (Central Daylight Time),250388.0,silver,1000,I,z,z,None,799,600.0,199.0,31,1,2344.0,248044.0,7030,raisin,NF,C,242631,242631,240903,241915,240904,243247,242432,242432,243247,23
23,test,1,inc,1,z,Thu Oct 24 2024 14:28:39 GMT-0500 (Central Daylight Time),252887.20000004768,silver,1000,I,z,z,None,937,738.0,199.0,23,1,2478.800000011921,250408.40000003576,7030,orange,NF,C,244997,244997,243267,244281,243268,245746,244797,244797,245746,24
24,test,1,inc,1,m,Thu Oct 24 2024 14:28:39 GMT-0500 (Central Daylight Time),255203.20000004768,raisin,1100,I,m,m,None,658,459.0,199.0,72,1,2295.900000035763,252907.30000001192,7030,bronze,NF,C,247596,247596,245766,246880,245768,248062,247396,247396,248062,25
25,test,1,con,1,z,Thu Oct 24 2024 14:28:39 GMT-0500 (Central Daylight Time),257452.40000003576,orange,800,I,z,z,None,891,691.0,200.0,17,1,2228.800000011921,255223.60000002384,7030,orange,NF,C,249612,249612,248083,248896,248084,250312,249412,249412,250311,26
26,test,1,inc,1,z,Thu Oct 24 2024 14:28:39 GMT-0500 (Central Daylight Time),259868.70000004768,copper,900,I,z,z,None,967,766.0,201.0,22,1,2396.7000000476837,257472.0,7030,orange,NF,C,251961,251961,250331,251244,250332,252728,251760,251760,252728,27
27,test,1,inc,1,z,Thu Oct 24 2024 14:28:39 GMT-0500 (Central Daylight Time),262200.8000000119,zinc,1000,I,z,z,None,778,578.0,200.0,47,1,2311.199999988079,259889.60000002384,7030,pear,NF,C,254477,254477,252749,253761,252750,255060,254277,254277,255060,28
28,test,1,con,1,z,Thu Oct 24 2024 14:28:39 GMT-0500 (Central Daylight Time),264450.10000002384,lime,1000,I,z,z,None,684,485.0,199.0,35,1,2229.600000023842,262220.5,7030,lime,NF,C,256810,256810,255080,256093,255081,257309,256610,256610,257309,29
29,test,1,con,1,z,Thu Oct 24 2024 14:28:39 GMT-0500 (Central Daylight Time),266632.7000000477,cherry,900,I,z,z,None,727,528.0,199.0,10,1,2161.5,264471.2000000477,7030,cherry,NF,C,258959,258959,257330,258243,257331,259492,258759,258759,259492,30
30,test,1,inc,1,m,Thu Oct 24 2024 14:28:39 GMT-0500 (Central Daylight Time),268815.3000000119,lime,800,I,m,m,None,828,629.0,199.0,125,1,2163.0,266652.3000000119,7030,lead,NF,C,261042,261042,259511,260325,259512,261675,260842,260842,261674,31
31,test,1,inc,1,m,Thu Oct 24 2024 14:28:39 GMT-0500 (Central Daylight Time),271214.60000002384,raisin,1100,I,m,m,None,739,539.0,200.0,96,1,2378.199999988079,268836.40000003576,7030,cobalt,NF,C,263524,263524,261695,262808,261696,264074,263324,263324,264074,32
32,test,1,inc,1,m,Thu Oct 24 2024 14:28:39 GMT-0500 (Central Daylight Time),273497.10000002384,kiwi,1000,I,m,m,None,726,527.0,199.0,103,1,2261.699999988079,271235.40000003576,7030,gold,NF,C,265824,265824,264094,265107,264095,266356,265624,265624,266356,33
33,test,1,con,1,z,Thu Oct 24 2024 14:28:39 GMT-0500 (Central Daylight Time),275713.10000002384,plum,900,I,z,z,None,752,553.0,199.0,58,1,2195.0,273518.10000002384,7030,plum,NF,C,268006,268006,266377,267289,266378,268572,267806,267806,268572,34
34,test,1,con,1,m,Thu Oct 24 2024 14:28:39 GMT-0500 (Central Daylight Time),278012.3000000119,iron,800,I,m,m,None,932,733.0,199.0,105,1,2279.300000011921,275733.0,7030,iron,NF,C,270122,270122,268592,269406,268593,270871,269922,269922,270871,35
35,test,1,inc,1,z,Thu Oct 24 2024 14:28:39 GMT-0500 (Central Daylight Time),280128.2000000477,iron,900,I,z,z,None,652,453.0,199.0,38,1,2096.5,278031.7000000477,7030,lime,NF,C,272522,272522,270891,271805,270892,272987,272321,272322,272987,36
36,test,1,con,1,m,Thu Oct 24 2024 14:28:39 GMT-0500 (Central Daylight Time),282377.7000000477,bronze,1000,I,m,m,None,685,485.0,200.0,67,1,2229.7000000476837,280148.0,7030,bronze,NF,C,274738,274738,273007,274021,273008,275237,274537,274537,275237,37
37,test,1,inc,1,z,Thu Oct 24 2024 14:28:39 GMT-0500 (Central Daylight Time),284393.7000000477,bronze,800,I,z,z,None,651,452.0,199.0,13,1,1997.2000000476837,282396.5,7030,cherry,NF,C,276787,276787,275255,276070,275256,277253,276587,276587,277253,38
38,test,1,con,1,m,Thu Oct 24 2024 14:28:39 GMT-0500 (Central Daylight Time),286792.7000000477,cobalt,1100,I,m,m,None,743,544.0,199.0,92,1,2379.800000011921,284412.90000003576,7030,cobalt,NF,C,279103,279103,277272,278386,277273,279652,278903,278903,279652,39
39,test,1,inc,1,m,Thu Oct 24 2024 14:28:39 GMT-0500 (Central Daylight Time),289408.60000002384,kiwi,1000,I,m,m,None,1060,861.0,199.0,119,1,2594.800000011921,286813.8000000119,7030,zinc,NF,C,281402,281402,279673,280685,279674,282268,281202,281202,282268,40
40,test,1,inc,1,z,Thu Oct 24 2024 14:28:39 GMT-0500 (Central Daylight Time),292190.90000003576,lead,1100,I,z,z,None,1128,929.0,199.0,64,1,2761.800000011921,289429.10000002384,7030,plum,NF,C,284118,284118,282288,283401,282289,285050,283918,283918,285050,41
41,test,1,con,1,m,Thu Oct 24 2024 14:28:39 GMT-0500 (Central Daylight Time),295240.0,lead,1000,I,m,m,None,1486,1287.0,199.0,123,1,3031.599999964237,292208.40000003576,7030,lead,NF,C,286800,286800,285067,286083,285068,288099,286600,286600,288099,42
42,test,1,con,1,m,Thu Oct 24 2024 14:28:39 GMT-0500 (Central Daylight Time),297589.2000000477,silver,1000,I,m,m,None,789,590.0,199.0,83,1,2327.2000000476837,295262.0,7030,silver,NF,C,289849,289849,288121,289132,288122,290448,289649,289649,290448,43
43,test,1,inc,1,z,Thu Oct 24 2024 14:28:39 GMT-0500 (Central Daylight Time),299771.7000000477,copper,900,I,z,z,None,724,524.0,200.0,14,1,2161.7000000476837,297610.0,7030,cherry,NF,C,292098,292099,290469,291382,290470,292631,291898,291898,292631,44
44,test,1,inc,1,m,Thu Oct 24 2024 14:28:39 GMT-0500 (Central Daylight Time),301854.5,cherry,900,I,m,m,None,621,422.0,199.0,94,1,2062.599999964237,299791.90000003576,7030,cobalt,NF,C,294281,294281,292651,293564,292652,294714,294081,294081,294714,45
45,test,1,con,1,m,Thu Oct 24 2024 14:28:39 GMT-0500 (Central Daylight Time),303887.10000002384,cobalt,800,I,m,m,None,670,471.0,199.0,89,1,2013.0,301874.10000002384,7030,cobalt,NF,C,296264,296264,294733,295547,294734,296746,296064,296064,296746,46
46,test,1,inc,1,m,Thu Oct 24 2024 14:28:39 GMT-0500 (Central Daylight Time),306203.0,orange,1000,I,m,m,None,758,559.0,199.0,79,1,2294.699999988079,303908.3000000119,7030,copper,NF,C,298496,298496,296767,297780,296768,299062,298296,298296,299062,47
47,test,1,inc,1,m,Thu Oct 24 2024 14:28:39 GMT-0500 (Central Daylight Time),308502.2000000477,orange,1000,I,m,m,None,738,539.0,199.0,95,1,2279.400000035763,306222.8000000119,7030,cobalt,NF,C,300812,300812,299082,300096,299083,301361,300612,300612,301361,48
48,test,1,con,1,m,Thu Oct 24 2024 14:28:39 GMT-0500 (Central Daylight Time),310734.90000003576,copper,1000,I,m,m,None,679,479.0,200.0,75,1,2213.5,308521.40000003576,7030,copper,NF,C,303112,303112,301380,302395,301381,303594,302911,302911,303594,49
49,test,1,con,1,z,Thu Oct 24 2024 14:28:39 GMT-0500 (Central Daylight Time),312984.10000002384,banana,1100,I,z,z,None,586,387.0,199.0,4,1,2230.0,310754.10000002384,7030,banana,NF,C,305444,305444,303613,304727,303614,305843,305244,305244,305843,50
50,test,1,inc,1,m,Thu Oct 24 2024 14:28:39 GMT-0500 (Central Daylight Time),315200.10000002384,pear,900,I,m,m,None,753,554.0,199.0,102,1,2196.399999976158,313003.7000000477,7030,gold,NF,C,307493,307493,305863,306777,305864,308059,307293,307293,308059,51
51,test,1,inc,1,z,Thu Oct 24 2024 14:28:39 GMT-0500 (Central Daylight Time),317549.40000003576,zinc,1000,I,z,z,None,789,590.0,199.0,55,1,2329.5,315219.90000003576,7030,kiwi,NF,C,309809,309809,308079,309093,308080,310408,309609,309609,310408,52
52,test,1,inc,1,z,Thu Oct 24 2024 14:28:39 GMT-0500 (Central Daylight Time),319981.7000000477,cobalt,1100,I,z,z,None,781,581.0,200.0,16,1,2412.300000011921,317569.40000003576,7030,cherry,NF,C,312258,312258,310428,311542,310429,312841,312058,312058,312841,53
53,test,1,inc,1,z,Thu Oct 24 2024 14:28:39 GMT-0500 (Central Daylight Time),321913.8000000119,bronze,800,I,z,z,None,566,367.0,199.0,5,1,1911.8999999761581,320001.90000003576,7030,banana,NF,C,314391,314391,312861,313675,312861,314773,314191,314191,314773,54
54,test,1,con,1,z,Thu Oct 24 2024 14:28:39 GMT-0500 (Central Daylight Time),324013.90000003576,cherry,800,I,z,z,None,755,556.0,199.0,9,1,2092.400000035763,321921.5,7030,cherry,NF,C,316307,316307,314781,315589,314781,316873,316107,316107,316873,55
55,test,1,inc,1,z,Thu Oct 24 2024 14:28:39 GMT-0500 (Central Daylight Time),326346.5,gold,800,I,z,z,None,976,776.0,200.0,53,1,2311.599999964237,324034.90000003576,7030,kiwi,NF,C,318423,318423,316894,317706,316895,319206,318223,318223,319205,56
56,test,1,con,1,z,Thu Oct 24 2024 14:28:39 GMT-0500 (Central Daylight Time),328795.7000000477,pear,1100,I,z,z,None,783,584.0,199.0,44,1,2428.0,326367.7000000477,7030,pear,NF,C,321055,321055,319227,320339,319228,321655,320855,320855,321655,57
57,test,1,inc,1,m,Thu Oct 24 2024 14:28:39 GMT-0500 (Central Daylight Time),331244.7000000477,kiwi,1000,I,m,m,None,897,698.0,199.0,111,1,2429.0,328815.7000000477,7030,iron,NF,C,323404,323405,321675,322688,321676,324104,323205,323205,324104,58
58,test,1,inc,1,m,Thu Oct 24 2024 14:28:39 GMT-0500 (Central Daylight Time),333710.60000002384,plum,1100,I,m,m,None,812,613.0,199.0,120,1,2445.800000011921,331264.8000000119,7030,zinc,NF,C,325954,325954,324124,325237,324125,326570,325754,325754,326570,59
59,test,1,con,1,z,Thu Oct 24 2024 14:28:39 GMT-0500 (Central Daylight Time),336126.60000002384,pear,800,I,z,z,None,1054,855.0,199.0,41,1,2398.0,333728.60000002384,7030,pear,NF,C,328120,328120,326588,327403,326588,328986,327920,327920,328985,60
60,test,1,con,1,z,Thu Oct 24 2024 14:28:39 GMT-0500 (Central Daylight Time),338225.8000000119,orange,1000,I,z,z,None,542,343.0,199.0,19,1,2079.199999988079,336146.60000002384,7030,orange,NF,C,330735,330736,329006,330019,329007,331085,330536,330536,331085,61
61,test,1,inc,1,m,Thu Oct 24 2024 14:28:39 GMT-0500 (Central Daylight Time),340541.7000000477,orange,1000,I,m,m,None,755,556.0,199.0,71,1,2297.100000023842,338244.60000002384,7030,bronze,NF,C,332835,332835,331104,332118,331104,333401,332635,332635,333401,62
62,test,1,inc,1,m,Thu Oct 24 2024 14:28:39 GMT-0500 (Central Daylight Time),343074.3000000119,raisin,1100,I,m,m,None,875,676.0,199.0,88,1,2513.099999964237,340561.2000000477,7030,silver,NF,C,335251,335251,333420,334534,333421,335933,335051,335051,335933,63
63,test,1,con,1,m,Thu Oct 24 2024 14:28:39 GMT-0500 (Central Daylight Time),345373.3000000119,lead,800,I,m,m,None,948,748.0,200.0,121,1,2279.899999976158,343093.40000003576,7030,lead,NF,C,337483,337483,335952,336767,335953,338232,337283,337283,338232,64
64,test,1,inc,1,z,Thu Oct 24 2024 14:28:39 GMT-0500 (Central Daylight Time),347956.0,lead,1100,I,z,z,None,924,724.0,200.0,48,1,2562.599999964237,345393.40000003576,7030,pear,NF,C,340082,340083,338252,339366,338254,340815,339882,339882,340815,65
65,test,1,inc,1,m,Thu Oct 24 2024 14:28:39 GMT-0500 (Central Daylight Time),350355.10000002384,plum,1100,I,m,m,None,733,534.0,199.0,104,1,2378.699999988079,347976.40000003576,7030,gold,NF,C,342665,342665,340835,341948,340836,343214,342465,342465,343214,66
66,test,1,inc,1,z,Thu Oct 24 2024 14:28:39 GMT-0500 (Central Daylight Time),352587.8000000119,silver,1000,I,z,z,None,667,467.0,200.0,7,1,2211.199999988079,350376.60000002384,7030,banana,NF,C,344964,344964,343236,344248,343237,345447,344764,344764,345447,67
67,test,1,con,1,m,Thu Oct 24 2024 14:28:39 GMT-0500 (Central Daylight Time),355003.7000000477,silver,1100,I,m,m,None,749,550.0,199.0,84,1,2396.400000035763,352607.3000000119,7030,silver,NF,C,347297,347297,345466,346580,345467,347863,347097,347097,347863,68
68,test,1,con,1,m,Thu Oct 24 2024 14:28:39 GMT-0500 (Central Daylight Time),357237.3000000119,iron,1000,I,m,m,None,682,483.0,199.0,107,1,2213.699999988079,355023.60000002384,7030,iron,NF,C,349612,349613,347883,348896,347884,350096,349413,349413,350096,69
69,test,1,con,1,z,Thu Oct 24 2024 14:28:39 GMT-0500 (Central Daylight Time),359884.90000003576,raisin,1000,I,z,z,None,1097,897.0,200.0,27,1,2628.5,357256.40000003576,7030,raisin,NF,C,351846,351846,350115,351129,350117,352744,351645,351645,352744,70
70,test,1,con,1,z,Thu Oct 24 2024 14:28:39 GMT-0500 (Central Daylight Time),362551.2000000477,lime,1100,I,z,z,None,1013,813.0,200.0,36,1,2647.600000023842,359903.60000002384,7030,lime,NF,C,354594,354594,352763,353878,352763,355410,354394,354394,355410,71
71,test,1,con,1,m,Thu Oct 24 2024 14:28:39 GMT-0500 (Central Daylight Time),364516.90000003576,cobalt,900,I,m,m,None,514,315.0,199.0,90,1,1945.699999988079,362571.2000000477,7030,cobalt,NF,C,357060,357060,355430,356344,355431,357376,356860,356860,357376,72
72,test,1,con,1,m,Thu Oct 24 2024 14:28:39 GMT-0500 (Central Daylight Time),367049.60000002384,cobalt,1000,I,m,m,None,977,777.0,200.0,91,1,2514.100000023842,364535.5,7030,cobalt,NF,C,359126,359126,357395,358410,357396,359909,358926,358926,359909,73
73,test,1,con,1,z,Thu Oct 24 2024 14:28:39 GMT-0500 (Central Daylight Time),369215.60000002384,banana,900,I,z,z,None,703,504.0,199.0,2,1,2146.100000023842,367069.5,7030,banana,NF,C,361559,361559,359928,360842,359930,362075,361359,361359,362075,74
74,test,1,inc,1,m,Thu Oct 24 2024 14:28:39 GMT-0500 (Central Daylight Time),371998.10000002384,kiwi,1000,I,m,m,None,1221,1022.0,199.0,127,1,2762.699999988079,369235.40000003576,7030,lead,NF,C,363825,363825,362094,363108,362096,364857,363625,363625,364857,75
75,test,1,con,1,z,Thu Oct 24 2024 14:28:39 GMT-0500 (Central Daylight Time),374380.7000000477,plum,1100,I,z,z,None,723,524.0,199.0,60,1,2361.100000023842,372019.60000002384,7030,plum,NF,C,366707,366707,364879,365991,364880,367240,366507,366507,367240,76
76,test,1,con,1,m,Thu Oct 24 2024 14:28:39 GMT-0500 (Central Daylight Time),377013.10000002384,gold,1000,I,m,m,None,1072,873.0,199.0,99,1,2611.100000023842,374402.0,7030,gold,NF,C,368990,368990,367261,368273,367262,369872,368790,368790,369872,77
77,test,1,con,1,z,Thu Oct 24 2024 14:28:39 GMT-0500 (Central Daylight Time),379479.2000000477,banana,1000,I,z,z,None,911,712.0,199.0,3,1,2446.2000000476837,377033.0,7030,banana,NF,C,371623,371623,369892,370906,369893,372338,371422,371422,372338,78
78,test,1,inc,1,m,Thu Oct 24 2024 14:28:39 GMT-0500 (Central Daylight Time),381444.7000000477,banana,800,I,m,m,None,614,415.0,199.0,93,1,1944.6000000238419,379500.10000002384,7030,cobalt,NF,C,373888,373888,372359,373171,372360,374304,373688,373688,374304,79
79,test,1,con,1,m,Thu Oct 24 2024 14:28:39 GMT-0500 (Central Daylight Time),383560.90000003576,copper,800,I,m,m,None,760,561.0,199.0,73,1,2096.400000035763,381464.5,7030,copper,NF,C,375854,375854,374324,375138,374325,376420,375654,375654,376420,80
80,test,1,con,1,z,Thu Oct 24 2024 14:28:39 GMT-0500 (Central Daylight Time),385576.90000003576,banana,800,I,z,z,None,660,461.0,199.0,1,1,1996.1000000238419,383580.8000000119,7030,banana,NF,C,377970,377970,376440,377253,376441,378436,377770,377770,378436,81
81,test,1,con,1,z,Thu Oct 24 2024 14:28:39 GMT-0500 (Central Daylight Time),387859.2000000477,kiwi,900,I,z,z,None,824,625.0,199.0,50,1,2263.2000000476837,385596.0,7030,kiwi,NF,C,380086,380086,378455,379370,378456,380718,379886,379886,380718,82
82,test,1,con,1,m,Thu Oct 24 2024 14:28:39 GMT-0500 (Central Daylight Time),390292.60000002384,lead,1100,I,m,m,None,773,574.0,199.0,124,1,2413.199999988079,387879.40000003576,7030,lead,NF,C,382569,382569,380738,381852,380739,383152,382369,382369,383152,83
83,test,1,inc,1,m,Thu Oct 24 2024 14:28:39 GMT-0500 (Central Daylight Time),393557.60000002384,lime,800,I,m,m,None,1905,1706.0,199.0,117,1,3245.300000011921,390312.3000000119,7030,zinc,NF,C,384701,384701,383171,383985,383172,386417,384502,384502,386417,84
84,test,1,con,1,m,Thu Oct 24 2024 14:28:39 GMT-0500 (Central Daylight Time),395890.7000000477,zinc,1000,I,m,m,None,775,576.0,199.0,115,1,2313.300000011921,393577.40000003576,7030,zinc,NF,C,388167,388167,386436,387451,386438,388750,387967,387967,388750,85
85,test,1,inc,1,m,Thu Oct 24 2024 14:28:39 GMT-0500 (Central Daylight Time),397989.10000002384,banana,800,I,m,m,None,748,548.0,200.0,77,1,2078.899999976158,395910.2000000477,7030,copper,NF,C,390299,390299,388769,389583,388770,390848,390099,390099,390848,86
86,test,1,inc,1,z,Thu Oct 24 2024 14:28:39 GMT-0500 (Central Daylight Time),400222.0,copper,900,I,z,z,None,779,580.0,199.0,30,1,2217.399999976158,398004.60000002384,7030,raisin,NF,C,392499,392499,390864,391782,390865,393081,392299,392299,393081,87
87,test,1,inc,1,m,Thu Oct 24 2024 14:28:39 GMT-0500 (Central Daylight Time),402437.7000000477,cherry,900,I,m,m,None,763,564.0,199.0,70,1,2196.300000011921,400241.40000003576,7030,bronze,NF,C,394731,394731,393100,394015,393101,395297,394531,394531,395297,88
88,test,1,inc,1,z,Thu Oct 24 2024 14:28:39 GMT-0500 (Central Daylight Time),405053.90000003576,gold,800,I,z,z,None,1262,1047.0,215.0,45,1,2596.800000011921,402457.10000002384,7030,pear,NF,C,396864,396864,395316,396131,395317,397913,396648,396648,397913,89
89,test,1,con,1,m,Thu Oct 24 2024 14:28:39 GMT-0500 (Central Daylight Time),407369.7000000477,silver,800,I,m,m,None,959,760.0,199.0,81,1,2297.600000023842,405072.10000002384,7030,silver,NF,C,399463,399463,397931,398746,397932,400229,399263,399263,400229,90
90,test,1,inc,1,m,Thu Oct 24 2024 14:28:39 GMT-0500 (Central Daylight Time),409852.3000000119,cherry,900,I,m,m,None,1041,841.0,200.0,86,1,2462.699999988079,407389.60000002384,7030,silver,NF,C,401862,401862,400249,401161,400250,402711,401662,401662,402711,91
91,test,1,con,1,z,Thu Oct 24 2024 14:28:39 GMT-0500 (Central Daylight Time),412518.10000002384,kiwi,1000,I,z,z,None,1106,906.0,200.0,51,1,2647.300000011921,409870.8000000119,7030,kiwi,NF,C,404461,404461,402730,403745,402730,405377,404261,404261,405377,92
92,test,1,inc,1,m,Thu Oct 24 2024 14:28:39 GMT-0500 (Central Daylight Time),414867.3000000119,pear,900,I,m,m,None,883,684.0,199.0,126,1,2330.199999988079,412537.10000002384,7030,lead,NF,C,407027,407027,405396,406311,405397,407726,406827,406827,407726,93
93,test,1,con,1,z,Thu Oct 24 2024 14:28:39 GMT-0500 (Central Daylight Time),417616.40000003576,orange,900,I,z,z,None,1294,1095.0,199.0,18,1,2729.600000023842,414886.8000000119,7030,orange,NF,C,409376,409376,407746,408660,407747,410476,409176,409177,410475,94
94,test,1,con,1,m,Thu Oct 24 2024 14:28:39 GMT-0500 (Central Daylight Time),419948.90000003576,copper,900,I,m,m,None,873,674.0,199.0,74,1,2313.900000035763,417635.0,7030,copper,NF,C,412125,412125,410494,411409,410495,412808,411925,411926,412808,95
95,test,1,inc,1,z,Thu Oct 24 2024 14:28:39 GMT-0500 (Central Daylight Time),422314.8000000119,copper,900,I,z,z,None,901,702.0,199.0,6,1,2347.199999988079,419967.60000002384,7030,banana,NF,C,414457,414457,412827,413741,412827,415174,414258,414258,415174,96
96,test,1,con,1,z,Thu Oct 24 2024 14:28:39 GMT-0500 (Central Daylight Time),424647.40000003576,pear,1000,I,z,z,None,770,571.0,199.0,43,1,2313.300000011921,422334.10000002384,7030,pear,NF,C,416924,416924,415193,416208,415194,417507,416724,416724,417506,97
97,test,1,con,1,z,Thu Oct 24 2024 14:28:39 GMT-0500 (Central Daylight Time),427429.90000003576,cherry,1100,I,z,z,None,1121,922.0,199.0,12,1,2762.900000035763,424667.0,7030,cherry,NF,C,419357,419357,417526,418640,417527,420289,419157,419157,420289,98
98,test,1,con,1,z,Thu Oct 24 2024 14:28:39 GMT-0500 (Central Daylight Time),429546.0,plum,800,I,z,z,None,751,552.0,199.0,57,1,2094.899999976158,427451.10000002384,7030,plum,NF,C,421839,421839,420310,421122,420311,422405,421639,421639,422405,99
99,test,1,con,1,z,Thu Oct 24 2024 14:28:39 GMT-0500 (Central Daylight Time),432078.3000000119,plum,1000,I,z,z,None,971,772.0,199.0,59,1,2512.300000011921,429566.0,7030,plum,NF,C,424155,424155,422425,423438,422426,424937,423955,423955,424937,100
100,test,1,con,1,m,Thu Oct 24 2024 14:28:39 GMT-0500 (Central Daylight Time),434760.60000002384,gold,1100,I,m,m,None,1028,828.0,200.0,100,1,2662.5,432098.10000002384,7030,gold,NF,C,426787,426787,424957,426071,424958,427620,426587,426587,427620,101
101,test,1,con,1,z,Thu Oct 24 2024 14:28:39 GMT-0500 (Central Daylight Time),437360.0,orange,1100,I,z,z,None,944,745.0,199.0,20,1,2580.2999999523163,434779.7000000477,7030,orange,NF,C,429470,429470,427639,428753,427640,430219,429270,429270,430219,102
102,test,1,inc,1,m,Thu Oct 24 2024 14:28:39 GMT-0500 (Central Daylight Time),439792.5,pear,900,I,m,m,None,969,770.0,199.0,118,1,2411.7999999523163,437380.7000000477,7030,zinc,NF,C,431869,431869,430240,431153,430241,432652,431669,431669,432651,103
103,test,1,inc,1,z,Thu Oct 24 2024 14:28:39 GMT-0500 (Central Daylight Time),441991.5,gold,800,I,z,z,None,836,637.0,199.0,61,1,2180.0,439811.5,7030,plum,NF,C,434201,434202,432671,433485,432671,434851,434002,434002,434851,104
104,test,1,con,1,m,Thu Oct 24 2024 14:28:39 GMT-0500 (Central Daylight Time),444956.60000002384,gold,900,I,m,m,None,1512,1313.0,199.0,98,1,2946.0,442010.60000002384,7030,gold,NF,C,436501,436501,434870,435784,434871,437816,436301,436301,437816,105
105,test,1,inc,1,m,Thu Oct 24 2024 14:28:39 GMT-0500 (Central Daylight Time),447506.60000002384,plum,1100,I,m,m,None,900,701.0,199.0,112,1,2545.100000023842,444961.5,7030,iron,NF,C,439650,439650,437821,438933,437821,440366,439450,439450,440366,106
106,test,1,con,1,m,Thu Oct 24 2024 14:28:39 GMT-0500 (Central Daylight Time),449539.3000000119,bronze,800,I,m,m,None,666,467.0,199.0,65,1,2010.3999999761581,447528.90000003576,7030,bronze,NF,C,441916,441916,440388,441199,440389,442398,441716,441716,442398,107
107,test,1,con,1,z,Thu Oct 24 2024 14:28:39 GMT-0500 (Central Daylight Time),451571.90000003576,kiwi,800,I,z,z,None,675,475.0,200.0,49,1,2013.5,449558.40000003576,7030,kiwi,NF,C,443948,443948,442417,443232,442418,444431,443748,443748,444431,108
108,test,1,inc,1,m,Thu Oct 24 2024 14:28:39 GMT-0500 (Central Daylight Time),454404.2000000477,plum,1100,I,m,m,None,1173,974.0,199.0,128,1,2813.600000023842,451590.60000002384,7030,lead,NF,C,446281,446281,444450,445565,444450,447263,446081,446081,447263,109
109,test,1,con,1,z,Thu Oct 24 2024 14:28:39 GMT-0500 (Central Daylight Time),456603.60000002384,raisin,800,I,z,z,None,841,642.0,199.0,25,1,2178.300000011921,454425.3000000119,7030,raisin,NF,C,448813,448813,447284,448097,447286,449463,448614,448614,449463,110
110,test,1,con,1,m,Thu Oct 24 2024 14:28:39 GMT-0500 (Central Daylight Time),458886.10000002384,zinc,900,I,m,m,None,821,619.0,202.0,114,1,2260.800000011921,456625.3000000119,7030,zinc,NF,C,451116,451116,449484,450397,449485,451745,450913,450913,451745,111
111,test,1,inc,1,z,Thu Oct 24 2024 14:28:39 GMT-0500 (Central Daylight Time),461052.10000002384,gold,800,I,z,z,None,809,609.0,200.0,37,1,2145.800000011921,458906.3000000119,7030,lime,NF,C,453294,453294,451765,452579,451766,453911,453094,453094,453911,112
112,test,1,con,1,m,Thu Oct 24 2024 14:28:39 GMT-0500 (Central Daylight Time),463284.7000000477,lead,900,I,m,m,None,781,582.0,199.0,122,1,2215.0,461069.7000000477,7030,lead,NF,C,455561,455561,453929,454845,453929,456144,455361,455361,456144,113
113,test,1,inc,1,z,Thu Oct 24 2024 14:28:39 GMT-0500 (Central Daylight Time),465800.5,lead,1100,I,z,z,None,852,653.0,199.0,56,1,2496.0,463304.5,7030,kiwi,NF,C,457993,457994,456164,457277,456165,458660,457794,457794,458659,114
114,test,1,inc,1,z,Thu Oct 24 2024 14:28:39 GMT-0500 (Central Daylight Time),468266.40000003576,lead,1100,I,z,z,None,808,609.0,199.0,40,1,2446.699999988079,465819.7000000477,7030,lime,NF,C,460510,460510,458679,459793,458680,461126,460309,460310,461125,115
115,test,1,inc,1,m,Thu Oct 24 2024 14:28:39 GMT-0500 (Central Daylight Time),470649.0,raisin,1100,I,m,m,None,728,528.0,200.0,80,1,2363.699999988079,468285.3000000119,7030,copper,NF,C,462975,462975,461144,462259,461145,463508,462775,462775,463508,116
116,test,1,con,1,z,Thu Oct 24 2024 14:28:39 GMT-0500 (Central Daylight Time),473031.3000000119,lime,900,I,z,z,None,920,721.0,199.0,34,1,2363.199999988079,470668.10000002384,7030,lime,NF,C,465158,465158,463527,464441,463528,465890,464958,464958,465890,117
117,test,1,inc,1,m,Thu Oct 24 2024 14:28:39 GMT-0500 (Central Daylight Time),475280.8000000119,lime,800,I,m,m,None,910,711.0,199.0,109,1,2234.399999976158,473046.40000003576,7030,iron,NF,C,467424,467424,465905,466708,465906,468140,467224,467224,468140,118
118,test,1,con,1,z,Thu Oct 24 2024 14:28:39 GMT-0500 (Central Daylight Time),477579.90000003576,pear,900,I,z,z,None,849,650.0,199.0,42,1,2285.100000023842,475294.8000000119,7030,pear,NF,C,469773,469773,468154,469057,468154,470439,469573,469573,470439,119
119,test,1,inc,1,z,Thu Oct 24 2024 14:28:39 GMT-0500 (Central Daylight Time),480395.7000000477,bronze,800,I,z,z,None,1457,1258.0,199.0,29,1,2796.900000035763,477598.8000000119,7030,raisin,NF,C,471989,471989,470458,471272,470459,473255,471789,471789,473255,120
120,test,1,con,1,m,Thu Oct 24 2024 14:28:39 GMT-0500 (Central Daylight Time),482911.60000002384,copper,1100,I,m,m,None,862,662.0,200.0,76,1,2496.800000011921,480414.8000000119,7030,copper,NF,C,475105,475105,473274,474388,473275,475771,474904,474904,475771,121
121,test,1,inc,1,z,Thu Oct 24 2024 14:28:39 GMT-0500 (Central Daylight Time),485227.5,iron,900,I,z,z,None,849,650.0,199.0,54,1,2296.7999999523163,482930.7000000477,7030,kiwi,NF,C,477421,477421,475790,476704,475791,478087,477221,477221,478086,122
122,test,1,inc,1,m,Thu Oct 24 2024 14:28:39 GMT-0500 (Central Daylight Time),488293.0,banana,800,I,m,m,None,1705,1506.0,199.0,69,1,3044.7999999523163,485248.2000000477,7030,bronze,NF,C,479636,479637,478107,478920,478108,481152,479436,479437,481152,123
123,test,1,inc,1,z,Thu Oct 24 2024 14:28:39 GMT-0500 (Central Daylight Time),490725.40000003576,cobalt,1100,I,z,z,None,780,581.0,199.0,8,1,2411.800000011921,488313.60000002384,7030,banana,NF,C,483002,483002,481173,482285,481174,483585,482802,482802,483584,124
124,test,1,con,1,m,Thu Oct 24 2024 14:28:39 GMT-0500 (Central Daylight Time),493191.60000002384,bronze,1100,I,m,m,None,803,604.0,199.0,68,1,2447.100000023842,490744.5,7030,bronze,NF,C,485435,485435,483604,484718,483605,486051,485235,485235,486051,125
125,test,1,con,1,m,Thu Oct 24 2024 14:28:39 GMT-0500 (Central Daylight Time),496323.8000000119,iron,1100,I,m,m,None,1465,1266.0,199.0,108,1,3112.699999988079,493211.10000002384,7030,iron,NF,C,487900,487901,486070,487184,486071,489183,487701,487701,489183,126
126,test,1,inc,1,z,Thu Oct 24 2024 14:28:39 GMT-0500 (Central Daylight Time),498606.5,zinc,1000,I,z,z,None,721,522.0,199.0,39,1,2263.2999999523163,496343.2000000477,7030,lime,NF,C,490933,490933,489202,490216,489203,491466,490733,490733,491465,127
127,test,1,con,1,m,Thu Oct 24 2024 14:28:39 GMT-0500 (Central Daylight Time),500755.8000000119,silver,900,I,m,m,None,682,483.0,199.0,82,1,2129.899999976158,498625.90000003576,7030,silver,NF,C,493115,493116,491485,492399,491486,493615,492915,492916,493615,128
