acc_sum,block,block_c,change,condition,correct,correct_response,datetime,endtime,face,project,response,response_time,row_sel,session_number,start_end,starttime,subject_id,task,task_vers,trial
0,prac,1,,1-Back,,,Wed Apr 02 2025 11:48:17 GMT-0500 (Central Daylight Time),,005_o_f_d_a.png,O,space,8245,1,1,,,7103,VNB,B,0
1,prac,1,0.0,1-Back,1,m,Wed Apr 02 2025 11:48:17 GMT-0500 (Central Daylight Time),181210.90000000596,020_y_f_n_a.png,O,m,1037,2,1,1944.800000011921,179266.09999999404,7103,VNB,B,1
2,prac,1,0.0,1-Back,1,m,Wed Apr 02 2025 11:48:17 GMT-0500 (Central Daylight Time),183460.40000000596,007_m_m_h_a.png,O,m,1268,3,1,2217.5,181242.90000000596,7103,VNB,B,2
3,prac,1,0.0,1-Back,1,m,Wed Apr 02 2025 11:48:17 GMT-0500 (Central Daylight Time),185626.0,016_y_m_d_a.png,O,m,1197,4,1,2133.2000000178814,183492.79999998212,7103,VNB,B,3
4,prac,1,0.0,1-Back,1,m,Wed Apr 02 2025 11:48:17 GMT-0500 (Central Daylight Time),188041.90000000596,005_o_f_n_a.png,O,m,1473,5,1,2390.100000023842,185651.79999998212,7103,VNB,B,4
5,prac,1,1.0,1-Back,1,z,Wed Apr 02 2025 11:48:17 GMT-0500 (Central Daylight Time),190374.29999998212,016_y_m_n_a.png,O,z,1374,6,1,2295.5999999940395,188078.69999998808,7103,VNB,B,5
6,prac,1,0.0,1-Back,1,m,Wed Apr 02 2025 11:48:17 GMT-0500 (Central Daylight Time),192440.29999998212,004_o_m_h_a.png,O,m,1123,7,1,2025.199999988079,190415.09999999404,7103,VNB,B,6
7,prac,1,0.0,1-Back,1,m,Wed Apr 02 2025 11:48:17 GMT-0500 (Central Daylight Time),194556.59999999404,011_m_f_d_a.png,O,m,1161,8,1,2076.199999988079,192480.40000000596,7103,VNB,B,7
8,prac,1,1.0,1-Back,1,z,Wed Apr 02 2025 11:48:17 GMT-0500 (Central Daylight Time),196572.5,020_y_f_d_a.png,O,z,1075,9,1,1983.2000000178814,194589.29999998212,7103,VNB,B,8
9,prac,1,0.0,1-Back,1,m,Wed Apr 02 2025 11:48:17 GMT-0500 (Central Daylight Time),198505.0,007_m_m_n_a.png,O,m,980,10,1,1903.0999999940395,196601.90000000596,7103,VNB,B,9
10,prac,1,0.0,1-Back,1,m,Wed Apr 02 2025 11:48:17 GMT-0500 (Central Daylight Time),200587.90000000596,005_o_f_h_a.png,O,m,1129,11,1,2042.800000011921,198545.09999999404,7103,VNB,B,10
11,prac,1,0.0,1-Back,1,m,Wed Apr 02 2025 11:48:17 GMT-0500 (Central Daylight Time),202203.79999998212,016_y_m_d_a.png,O,m,663,12,1,1581.199999988079,200622.59999999404,7103,VNB,B,11
0,test,1,0.0,1-Back,,,Wed Apr 02 2025 11:48:17 GMT-0500 (Central Daylight Time),202203.79999998212,020_y_f_d_a.png,O,space,10161,1,1,1581.199999988079,200622.59999999404,7103,VNB,B,0
1,test,1,0.0,1-Back,1,m,Wed Apr 02 2025 11:48:17 GMT-0500 (Central Daylight Time),221980.79999998212,011_m_f_n_a.png,O,m,840,2,1,1858.2999999821186,220122.5,7103,VNB,B,1
2,test,1,0.0,1-Back,1,m,Wed Apr 02 2025 11:48:17 GMT-0500 (Central Daylight Time),224146.79999998212,004_o_m_h_a.png,O,m,1117,3,1,2141.2999999821186,222005.5,7103,VNB,B,2
3,test,1,1.0,1-Back,1,z,Wed Apr 02 2025 11:48:17 GMT-0500 (Central Daylight Time),226012.5,007_m_m_h_a.png,O,z,823,4,1,1842.4000000059605,224170.09999999404,7103,VNB,B,3
4,test,1,0.0,1-Back,1,m,Wed Apr 02 2025 11:48:17 GMT-0500 (Central Daylight Time),227878.5,005_o_f_n_a.png,O,m,829,5,1,1838.300000011921,226040.19999998808,7103,VNB,B,4
5,test,1,0.0,1-Back,1,m,Wed Apr 02 2025 11:48:17 GMT-0500 (Central Daylight Time),229961.40000000596,016_y_m_d_a.png,O,m,1035,6,1,2057.2000000178814,227904.19999998808,7103,VNB,B,5
6,test,1,1.0,1-Back,1,z,Wed Apr 02 2025 11:48:17 GMT-0500 (Central Daylight Time),231760.79999998212,011_m_f_d_a.png,O,z,752,7,1,1775.3999999761581,229985.40000000596,7103,VNB,B,6
7,test,1,0.0,1-Back,1,m,Wed Apr 02 2025 11:48:17 GMT-0500 (Central Daylight Time),233660.0,020_y_f_h_a.png,O,m,857,8,1,1872.4000000059605,231787.59999999404,7103,VNB,B,7
8,test,1,0.0,1-Back,1,m,Wed Apr 02 2025 11:48:17 GMT-0500 (Central Daylight Time),235509.5,004_o_m_n_a.png,O,m,805,9,1,1827.5,233682.0,7103,VNB,B,8
9,test,1,0.0,1-Back,1,m,Wed Apr 02 2025 11:48:17 GMT-0500 (Central Daylight Time),237358.19999998808,016_y_m_h_a.png,O,m,811,10,1,1822.5999999940395,235535.59999999404,7103,VNB,B,9
10,test,1,0.0,1-Back,1,m,Wed Apr 02 2025 11:48:17 GMT-0500 (Central Daylight Time),239309.0,004_o_m_d_a.png,O,m,931,11,1,1940.0999999940395,237368.90000000596,7103,VNB,B,10
11,test,1,1.0,1-Back,1,z,Wed Apr 02 2025 11:48:17 GMT-0500 (Central Daylight Time),241273.90000000596,005_o_f_d_a.png,O,z,910,12,1,1931.5,239342.40000000596,7103,VNB,B,11
12,test,1,0.0,1-Back,1,m,Wed Apr 02 2025 11:48:17 GMT-0500 (Central Daylight Time),243107.0,007_m_m_n_a.png,O,m,790,13,1,1807.800000011921,241299.19999998808,7103,VNB,B,12
13,test,1,1.0,1-Back,1,z,Wed Apr 02 2025 11:48:17 GMT-0500 (Central Daylight Time),245497.40000000596,020_y_f_n_a.png,O,z,1334,14,1,2367.800000011921,243129.59999999404,7103,VNB,B,13
14,test,1,0.0,1-Back,1,m,Wed Apr 02 2025 11:48:17 GMT-0500 (Central Daylight Time),247405.5,011_m_f_h_a.png,O,m,872,15,1,1894.300000011921,245511.19999998808,7103,VNB,B,14
15,test,1,0.0,1-Back,1,m,Wed Apr 02 2025 11:48:17 GMT-0500 (Central Daylight Time),249589.19999998808,007_m_m_d_a.png,O,m,1131,16,1,2144.0999999940395,247445.09999999404,7103,VNB,B,15
16,test,1,0.0,1-Back,1,m,Wed Apr 02 2025 11:48:17 GMT-0500 (Central Daylight Time),251387.59999999404,016_y_m_n_a.png,O,m,758,17,1,1775.199999988079,249612.40000000596,7103,VNB,B,16
17,test,1,0.0,1-Back,1,m,Wed Apr 02 2025 11:48:17 GMT-0500 (Central Daylight Time),253603.59999999404,005_o_f_h_a.png,O,m,1174,18,1,2194.199999988079,251409.40000000596,7103,VNB,B,17
0,test,2,0.0,1-Back,,,Wed Apr 02 2025 11:48:17 GMT-0500 (Central Daylight Time),253603.59999999404,016_y_m_n_a.png,O,space,1582,1,1,2194.199999988079,251409.40000000596,7103,VNB,B,0
1,test,2,0.0,1-Back,1,m,Wed Apr 02 2025 11:48:17 GMT-0500 (Central Daylight Time),259051.69999998808,020_y_f_h_a.png,O,m,792,2,1,1805.5999999940395,257246.09999999404,7103,VNB,B,1
2,test,2,1.0,1-Back,1,m,Wed Apr 02 2025 11:48:17 GMT-0500 (Central Daylight Time),260934.5,004_o_m_n_a.png,O,m,838,3,1,1854.0999999940395,259080.40000000596,7103,VNB,B,2
3,test,2,0.0,1-Back,1,m,Wed Apr 02 2025 11:48:17 GMT-0500 (Central Daylight Time),262767.1999999881,011_m_f_d_a.png,O,m,780,4,1,1801.0999999940395,260966.09999999404,7103,VNB,B,3
4,test,2,0.0,1-Back,1,z,Wed Apr 02 2025 11:48:17 GMT-0500 (Central Daylight Time),264683.1999999881,007_m_m_d_a.png,O,z,866,5,1,1891.0,262792.1999999881,7103,VNB,B,4
5,test,2,0.0,1-Back,1,m,Wed Apr 02 2025 11:48:17 GMT-0500 (Central Daylight Time),266499.5,016_y_m_h_a.png,O,m,750,6,1,1783.2000000178814,264716.2999999821,7103,VNB,B,5
6,test,2,1.0,1-Back,1,z,Wed Apr 02 2025 11:48:17 GMT-0500 (Central Daylight Time),268549.40000000596,005_o_f_h_a.png,O,z,997,7,1,2020.0,266529.40000000596,7103,VNB,B,6
7,test,2,0.0,1-Back,1,m,Wed Apr 02 2025 11:48:17 GMT-0500 (Central Daylight Time),270315.0,011_m_f_n_a.png,O,m,701,8,1,1729.4000000059605,268585.59999999404,7103,VNB,B,7
8,test,2,0.0,1-Back,1,m,Wed Apr 02 2025 11:48:17 GMT-0500 (Central Daylight Time),272430.7999999821,020_y_f_d_a.png,O,m,1055,9,1,2079.2999999821186,270351.5,7103,VNB,B,8
9,test,2,0.0,1-Back,1,m,Wed Apr 02 2025 11:48:17 GMT-0500 (Central Daylight Time),274413.1999999881,007_m_m_n_a.png,O,m,922,10,1,1947.4000000059605,272465.7999999821,7103,VNB,B,9
10,test,2,1.0,1-Back,1,m,Wed Apr 02 2025 11:48:17 GMT-0500 (Central Daylight Time),276246.1999999881,011_m_f_h_a.png,O,m,788,11,1,1808.7999999821186,274437.40000000596,7103,VNB,B,10
11,test,2,0.0,1-Back,1,z,Wed Apr 02 2025 11:48:17 GMT-0500 (Central Daylight Time),278128.6999999881,004_o_m_h_a.png,O,z,819,12,1,1860.0,276268.6999999881,7103,VNB,B,11
12,test,2,0.0,1-Back,1,m,Wed Apr 02 2025 11:48:17 GMT-0500 (Central Daylight Time),279894.6999999881,016_y_m_d_a.png,O,m,729,13,1,1740.199999988079,278154.5,7103,VNB,B,12
13,test,2,0.0,1-Back,1,m,Wed Apr 02 2025 11:48:17 GMT-0500 (Central Daylight Time),281927.59999999404,005_o_f_n_a.png,O,m,986,14,1,2005.9000000059605,279921.6999999881,7103,VNB,B,13
14,test,2,0.0,1-Back,1,z,Wed Apr 02 2025 11:48:17 GMT-0500 (Central Daylight Time),284026.90000000596,020_y_f_n_a.png,O,z,1059,15,1,2069.300000011921,281957.59999999404,7103,VNB,B,14
15,test,2,1.0,1-Back,1,m,Wed Apr 02 2025 11:48:17 GMT-0500 (Central Daylight Time),285926.0,007_m_m_h_a.png,O,m,847,16,1,1866.5,284059.5,7103,VNB,B,15
16,test,2,0.0,1-Back,1,m,Wed Apr 02 2025 11:48:17 GMT-0500 (Central Daylight Time),288091.59999999404,005_o_f_d_a.png,O,m,1114,17,1,2139.300000011921,285952.2999999821,7103,VNB,B,16
17,test,2,1.0,1-Back,1,z,Wed Apr 02 2025 11:48:17 GMT-0500 (Central Daylight Time),289841.59999999404,004_o_m_d_a.png,O,z,702,18,1,1730.5999999940395,288111.0,7103,VNB,B,17
0,test,3,1.0,1-Back,,,Wed Apr 02 2025 11:48:17 GMT-0500 (Central Daylight Time),289841.59999999404,005_o_f_h_a.png,O,space,1128,1,1,1730.5999999940395,288111.0,7103,VNB,B,0
1,test,3,0.0,1-Back,1,m,Wed Apr 02 2025 11:48:17 GMT-0500 (Central Daylight Time),295573.6999999881,011_m_f_d_a.png,O,m,1398,2,1,2410.699999988079,293163.0,7103,VNB,B,1
2,test,3,1.0,1-Back,1,m,Wed Apr 02 2025 11:48:17 GMT-0500 (Central Daylight Time),297405.59999999404,007_m_m_n_a.png,O,m,798,3,1,1805.5,295600.09999999404,7103,VNB,B,2
3,test,3,0.0,1-Back,1,z,Wed Apr 02 2025 11:48:17 GMT-0500 (Central Daylight Time),299255.2999999821,005_o_f_n_a.png,O,z,795,4,1,1815.699999988079,297439.59999999404,7103,VNB,B,3
4,test,3,1.0,1-Back,1,m,Wed Apr 02 2025 11:48:17 GMT-0500 (Central Daylight Time),301587.59999999404,004_o_m_d_a.png,O,m,1290,5,1,2310.0,299277.59999999404,7103,VNB,B,4
5,test,3,0.0,1-Back,1,m,Wed Apr 02 2025 11:48:17 GMT-0500 (Central Daylight Time),303737.0,020_y_f_h_a.png,O,m,1102,6,1,2124.4000000059605,301612.59999999404,7103,VNB,B,5
6,test,3,0.0,1-Back,1,z,Wed Apr 02 2025 11:48:17 GMT-0500 (Central Daylight Time),305469.90000000596,016_y_m_h_a.png,O,z,689,7,1,1708.300000011921,303761.59999999404,7103,VNB,B,6
7,test,3,0.0,1-Back,1,m,Wed Apr 02 2025 11:48:17 GMT-0500 (Central Daylight Time),307368.6999999881,011_m_f_n_a.png,O,m,859,8,1,1873.5999999940395,305495.09999999404,7103,VNB,B,7
8,test,3,0.0,1-Back,1,m,Wed Apr 02 2025 11:48:17 GMT-0500 (Central Daylight Time),309651.7999999821,020_y_f_d_a.png,O,m,1242,9,1,2260.5999999940395,307391.1999999881,7103,VNB,B,8
9,test,3,1.0,1-Back,1,m,Wed Apr 02 2025 11:48:17 GMT-0500 (Central Daylight Time),312101.1999999881,004_o_m_n_a.png,O,m,1415,10,1,2421.0,309680.1999999881,7103,VNB,B,9
9,test,3,0.0,1-Back,0,m,Wed Apr 02 2025 11:48:17 GMT-0500 (Central Daylight Time),314067.1999999881,007_m_m_h_a.png,O,z,900,11,1,1934.7999999821186,312132.40000000596,7103,VNB,B,10
10,test,3,0.0,1-Back,1,z,Wed Apr 02 2025 11:48:17 GMT-0500 (Central Daylight Time),316316.1999999881,011_m_f_h_a.png,O,z,1198,12,1,2223.9000000059605,314092.2999999821,7103,VNB,B,11
11,test,3,1.0,1-Back,1,m,Wed Apr 02 2025 11:48:17 GMT-0500 (Central Daylight Time),318382.0,005_o_f_d_a.png,O,m,1029,13,1,2041.0999999940395,316340.90000000596,7103,VNB,B,12
12,test,3,0.0,1-Back,1,z,Wed Apr 02 2025 11:48:17 GMT-0500 (Central Daylight Time),320581.59999999404,007_m_m_d_a.png,O,z,1156,14,1,2170.5,318411.09999999404,7103,VNB,B,13
13,test,3,0.0,1-Back,1,m,Wed Apr 02 2025 11:48:17 GMT-0500 (Central Daylight Time),322481.0,016_y_m_n_a.png,O,m,860,15,1,1873.0,320608.0,7103,VNB,B,14
14,test,3,1.0,1-Back,1,m,Wed Apr 02 2025 11:48:17 GMT-0500 (Central Daylight Time),324963.40000000596,004_o_m_h_a.png,O,m,1440,16,1,2461.300000011921,322502.09999999404,7103,VNB,B,15
15,test,3,0.0,1-Back,1,m,Wed Apr 02 2025 11:48:17 GMT-0500 (Central Daylight Time),326797.5,016_y_m_d_a.png,O,m,782,17,1,1794.7000000178814,325002.7999999821,7103,VNB,B,16
15,test,3,1.0,1-Back,0,m,Wed Apr 02 2025 11:48:17 GMT-0500 (Central Daylight Time),329829.09999999404,020_y_f_n_a.png,O,z,1980,18,1,3000.9000000059605,326828.1999999881,7103,VNB,B,17
0,test,4,1.0,1-Back,,,Wed Apr 02 2025 11:48:17 GMT-0500 (Central Daylight Time),329829.09999999404,007_m_m_d_a.png,O,space,1085,1,1,3000.9000000059605,326828.1999999881,7103,VNB,B,0
1,test,4,0.0,1-Back,1,z,Wed Apr 02 2025 11:48:17 GMT-0500 (Central Daylight Time),335476.90000000596,004_o_m_d_a.png,O,z,1315,2,1,2350.300000011921,333126.59999999404,7103,VNB,B,1
2,test,4,0.0,1-Back,1,m,Wed Apr 02 2025 11:48:17 GMT-0500 (Central Daylight Time),337342.40000000596,016_y_m_h_a.png,O,m,812,3,1,1835.300000011921,335507.09999999404,7103,VNB,B,2
3,test,4,0.0,1-Back,1,m,Wed Apr 02 2025 11:48:17 GMT-0500 (Central Daylight Time),339375.5,011_m_f_n_a.png,O,m,987,4,1,2003.9000000059605,337371.59999999404,7103,VNB,B,3
4,test,4,1.0,1-Back,1,m,Wed Apr 02 2025 11:48:17 GMT-0500 (Central Daylight Time),341224.7999999821,005_o_f_h_a.png,O,m,786,5,1,1818.0,339406.7999999821,7103,VNB,B,4
5,test,4,0.0,1-Back,1,m,Wed Apr 02 2025 11:48:17 GMT-0500 (Central Daylight Time),342973.90000000596,007_m_m_n_a.png,O,m,713,6,1,1726.2000000178814,341247.6999999881,7103,VNB,B,5
6,test,4,0.0,1-Back,1,m,Wed Apr 02 2025 11:48:17 GMT-0500 (Central Daylight Time),344890.2999999821,016_y_m_d_a.png,O,m,850,7,1,1874.5999999940395,343015.6999999881,7103,VNB,B,6
7,test,4,1.0,1-Back,1,z,Wed Apr 02 2025 11:48:17 GMT-0500 (Central Daylight Time),346839.59999999404,020_y_f_d_a.png,O,z,903,8,1,1920.4000000059605,344919.1999999881,7103,VNB,B,7
8,test,4,0.0,1-Back,1,m,Wed Apr 02 2025 11:48:17 GMT-0500 (Central Daylight Time),348821.90000000596,011_m_f_h_a.png,O,m,944,9,1,1956.7000000178814,346865.1999999881,7103,VNB,B,8
9,test,4,0.0,1-Back,1,z,Wed Apr 02 2025 11:48:17 GMT-0500 (Central Daylight Time),351071.6999999881,004_o_m_h_a.png,O,z,1211,10,1,2220.7999999821186,348850.90000000596,7103,VNB,B,9
10,test,4,1.0,1-Back,1,m,Wed Apr 02 2025 11:48:17 GMT-0500 (Central Daylight Time),352854.0,005_o_f_n_a.png,O,m,722,11,1,1748.300000011921,351105.6999999881,7103,VNB,B,10
11,test,4,0.0,1-Back,1,m,Wed Apr 02 2025 11:48:17 GMT-0500 (Central Daylight Time),354937.0,011_m_f_d_a.png,O,m,1043,12,1,2057.0999999940395,352879.90000000596,7103,VNB,B,11
12,test,4,0.0,1-Back,1,m,Wed Apr 02 2025 11:48:17 GMT-0500 (Central Daylight Time),357319.5,020_y_f_n_a.png,O,m,1328,13,1,2349.0,354970.5,7103,VNB,B,12
13,test,4,0.0,1-Back,1,m,Wed Apr 02 2025 11:48:17 GMT-0500 (Central Daylight Time),359668.6999999881,005_o_f_d_a.png,O,m,1306,14,1,2318.5999999940395,357350.09999999404,7103,VNB,B,13
14,test,4,0.0,1-Back,1,m,Wed Apr 02 2025 11:48:17 GMT-0500 (Central Daylight Time),361885.09999999404,020_y_f_h_a.png,O,m,1181,15,1,2188.5,359696.59999999404,7103,VNB,B,14
15,test,4,1.0,1-Back,1,z,Wed Apr 02 2025 11:48:17 GMT-0500 (Central Daylight Time),363817.40000000596,007_m_m_h_a.png,O,z,885,16,1,1907.0,361910.40000000596,7103,VNB,B,15
16,test,4,0.0,1-Back,1,m,Wed Apr 02 2025 11:48:17 GMT-0500 (Central Daylight Time),365966.40000000596,004_o_m_n_a.png,O,m,1113,17,1,2125.7000000178814,363840.6999999881,7103,VNB,B,16
17,test,4,1.0,1-Back,1,z,Wed Apr 02 2025 11:48:17 GMT-0500 (Central Daylight Time),368116.0,016_y_m_n_a.png,O,z,1107,18,1,2121.9000000059605,365994.09999999404,7103,VNB,B,17
0,test,5,1.0,1-Back,,,Wed Apr 02 2025 11:48:17 GMT-0500 (Central Daylight Time),368116.0,004_o_m_n_a.png,O,space,1094,1,1,2121.9000000059605,365994.09999999404,7103,VNB,B,0
1,test,5,1.0,1-Back,1,m,Wed Apr 02 2025 11:48:17 GMT-0500 (Central Daylight Time),373164.40000000596,005_o_f_h_a.png,O,m,865,2,1,1902.4000000059605,371262.0,7103,VNB,B,1
2,test,5,0.0,1-Back,1,m,Wed Apr 02 2025 11:48:17 GMT-0500 (Central Daylight Time),375063.5,016_y_m_d_a.png,O,m,855,3,1,1871.0,373192.5,7103,VNB,B,2
3,test,5,0.0,1-Back,1,z,Wed Apr 02 2025 11:48:17 GMT-0500 (Central Daylight Time),377012.90000000596,004_o_m_d_a.png,O,z,906,4,1,1923.5,375089.40000000596,7103,VNB,B,3
4,test,5,0.0,1-Back,1,m,Wed Apr 02 2025 11:48:17 GMT-0500 (Central Daylight Time),378813.09999999404,011_m_f_h_a.png,O,m,764,5,1,1773.300000011921,377039.7999999821,7103,VNB,B,4
5,test,5,0.0,1-Back,1,m,Wed Apr 02 2025 11:48:17 GMT-0500 (Central Daylight Time),380761.6999999881,020_y_f_n_a.png,O,m,909,6,1,1921.9000000059605,378839.7999999821,7103,VNB,B,5
6,test,5,1.0,1-Back,1,z,Wed Apr 02 2025 11:48:17 GMT-0500 (Central Daylight Time),382544.59999999404,005_o_f_n_a.png,O,z,743,7,1,1759.0,380785.59999999404,7103,VNB,B,6
7,test,5,0.0,1-Back,1,m,Wed Apr 02 2025 11:48:17 GMT-0500 (Central Daylight Time),384293.90000000596,011_m_f_d_a.png,O,m,713,8,1,1725.9000000059605,382568.0,7103,VNB,B,7
8,test,5,0.0,1-Back,1,m,Wed Apr 02 2025 11:48:17 GMT-0500 (Central Daylight Time),386276.2999999821,016_y_m_h_a.png,O,m,942,9,1,1956.0999999940395,384320.1999999881,7103,VNB,B,8
9,test,5,0.0,1-Back,1,m,Wed Apr 02 2025 11:48:17 GMT-0500 (Central Daylight Time),388109.40000000596,020_y_f_d_a.png,O,m,789,10,1,1809.2000000178814,386300.1999999881,7103,VNB,B,9
10,test,5,0.0,1-Back,1,m,Wed Apr 02 2025 11:48:17 GMT-0500 (Central Daylight Time),389858.7999999821,007_m_m_n_a.png,O,m,700,11,1,1723.5999999940395,388135.1999999881,7103,VNB,B,10
11,test,5,1.0,1-Back,1,z,Wed Apr 02 2025 11:48:17 GMT-0500 (Central Daylight Time),391591.5,011_m_f_n_a.png,O,z,678,12,1,1694.0999999940395,389897.40000000596,7103,VNB,B,11
12,test,5,0.0,1-Back,1,m,Wed Apr 02 2025 11:48:17 GMT-0500 (Central Daylight Time),393340.0,004_o_m_h_a.png,O,m,713,13,1,1724.5999999940395,391615.40000000596,7103,VNB,B,12
13,test,5,0.0,1-Back,1,z,Wed Apr 02 2025 11:48:17 GMT-0500 (Central Daylight Time),395656.7999999821,007_m_m_h_a.png,O,z,1285,14,1,2312.399999976158,393344.40000000596,7103,VNB,B,13
14,test,5,1.0,1-Back,1,m,Wed Apr 02 2025 11:48:17 GMT-0500 (Central Daylight Time),397473.0,005_o_f_d_a.png,O,m,753,15,1,1781.5,395691.5,7103,VNB,B,14
15,test,5,0.0,1-Back,1,m,Wed Apr 02 2025 11:48:17 GMT-0500 (Central Daylight Time),399572.2999999821,016_y_m_n_a.png,O,m,1049,16,1,2072.0999999940395,397500.1999999881,7103,VNB,B,15
16,test,5,0.0,1-Back,1,m,Wed Apr 02 2025 11:48:17 GMT-0500 (Central Daylight Time),401854.90000000596,020_y_f_h_a.png,O,m,1245,17,1,2259.0,399595.90000000596,7103,VNB,B,16
17,test,5,0.0,1-Back,1,m,Wed Apr 02 2025 11:48:17 GMT-0500 (Central Daylight Time),403621.1999999881,007_m_m_d_a.png,O,m,715,18,1,1737.5,401883.6999999881,7103,VNB,B,17
0,prac,1,0.0,2-Back,,,Wed Apr 02 2025 11:48:17 GMT-0500 (Central Daylight Time),403621.1999999881,011_m_f_n_a.png,O,space,7736,1,1,1737.5,401883.6999999881,7103,VNB,B,0
0,prac,1,0.0,2-Back,,,Wed Apr 02 2025 11:48:17 GMT-0500 (Central Daylight Time),403621.1999999881,005_o_f_h_a.png,O,space,7736,2,1,1737.5,401883.6999999881,7103,VNB,B,0
1,prac,1,0.0,2-Back,1,m,Wed Apr 02 2025 11:48:17 GMT-0500 (Central Daylight Time),510156.09999999404,004_o_m_d_a.png,O,m,1420,3,1,2324.300000011921,507831.7999999821,7103,VNB,B,1
2,prac,1,1.0,2-Back,1,z,Wed Apr 02 2025 11:48:17 GMT-0500 (Central Daylight Time),512635.5,007_m_m_h_a.png,O,z,1497,4,1,2448.0999999940395,510187.40000000596,7103,VNB,B,2
3,prac,1,0.0,2-Back,1,m,Wed Apr 02 2025 11:48:17 GMT-0500 (Central Daylight Time),515267.5,020_y_f_n_a.png,O,m,1670,5,1,2587.5999999940395,512679.90000000596,7103,VNB,B,3
4,prac,1,1.0,2-Back,1,z,Wed Apr 02 2025 11:48:17 GMT-0500 (Central Daylight Time),518100.09999999404,004_o_m_h_a.png,O,z,1900,6,1,2802.199999988079,515297.90000000596,7103,VNB,B,4
5,prac,1,1.0,2-Back,1,z,Wed Apr 02 2025 11:48:17 GMT-0500 (Central Daylight Time),520249.59999999404,016_y_m_n_a.png,O,z,1178,7,1,2114.0,518135.59999999404,7103,VNB,B,5
6,prac,1,0.0,2-Back,1,m,Wed Apr 02 2025 11:48:17 GMT-0500 (Central Daylight Time),522365.5,011_m_f_d_a.png,O,m,1151,8,1,2080.0,520285.5,7103,VNB,B,6
6,prac,1,0.0,2-Back,0,m,Wed Apr 02 2025 11:48:17 GMT-0500 (Central Daylight Time),524548.1999999881,005_o_f_d_a.png,O,z,1225,9,1,2143.7999999821186,522404.40000000596,7103,VNB,B,7
6,prac,1,0.0,2-Back,0,m,Wed Apr 02 2025 11:48:17 GMT-0500 (Central Daylight Time),527063.6999999881,007_m_m_h_a.png,O,z,1545,10,1,2474.7999999821186,524588.900000006,7103,VNB,B,8
6,prac,1,1.0,2-Back,0,z,Wed Apr 02 2025 11:48:17 GMT-0500 (Central Daylight Time),529413.0,020_y_f_d_a.png,O,m,1391,11,1,2307.9000000059605,527105.099999994,7103,VNB,B,9
7,prac,1,0.0,2-Back,1,m,Wed Apr 02 2025 11:48:17 GMT-0500 (Central Daylight Time),531912.099999994,004_o_m_n_a.png,O,m,1561,12,1,2459.0,529453.099999994,7103,VNB,B,10
0,test,1,0.0,2-Back,,,Wed Apr 02 2025 11:48:17 GMT-0500 (Central Daylight Time),531912.099999994,016_y_m_h_a.png,O,space,8729,1,1,2459.0,529453.099999994,7103,VNB,B,0
0,test,1,0.0,2-Back,,,Wed Apr 02 2025 11:48:17 GMT-0500 (Central Daylight Time),531912.099999994,005_o_f_n_a.png,O,space,8729,2,1,2459.0,529453.099999994,7103,VNB,B,0
1,test,1,0.0,2-Back,1,z,Wed Apr 02 2025 11:48:17 GMT-0500 (Central Daylight Time),554953.6999999881,004_o_m_h_a.png,O,z,1533,3,1,2564.0,552389.6999999881,7103,VNB,B,1
2,test,1,0.0,2-Back,1,m,Wed Apr 02 2025 11:48:17 GMT-0500 (Central Daylight Time),557587.2999999821,011_m_f_d_a.png,O,m,1606,4,1,2622.0999999940395,554965.1999999881,7103,VNB,B,2
3,test,1,1.0,2-Back,1,m,Wed Apr 02 2025 11:48:17 GMT-0500 (Central Daylight Time),559852.5,016_y_m_n_a.png,O,m,1199,5,1,2223.5,557629.0,7103,VNB,B,3
4,test,1,0.0,2-Back,1,z,Wed Apr 02 2025 11:48:17 GMT-0500 (Central Daylight Time),562402.2999999821,020_y_f_d_a.png,O,z,1510,6,1,2531.7999999821186,559870.5,7103,VNB,B,4
4,test,1,0.0,2-Back,0,m,Wed Apr 02 2025 11:48:17 GMT-0500 (Central Daylight Time),565470.599999994,007_m_m_h_a.png,O,None,2014,7,1,3029.0,562441.599999994,7103,VNB,B,5
5,test,1,1.0,2-Back,1,m,Wed Apr 02 2025 11:48:17 GMT-0500 (Central Daylight Time),568065.900000006,020_y_f_n_a.png,O,m,1534,8,1,2561.100000023842,565504.7999999821,7103,VNB,B,6
6,test,1,0.0,2-Back,1,z,Wed Apr 02 2025 11:48:17 GMT-0500 (Central Daylight Time),570465.5,005_o_f_h_a.png,O,z,1374,9,1,2395.2000000178814,568070.2999999821,7103,VNB,B,7
6,test,1,0.0,2-Back,0,m,Wed Apr 02 2025 11:48:17 GMT-0500 (Central Daylight Time),573131.1999999881,004_o_m_d_a.png,O,z,1618,10,1,2646.7999999821186,570484.400000006,7103,VNB,B,8
7,test,1,1.0,2-Back,1,m,Wed Apr 02 2025 11:48:17 GMT-0500 (Central Daylight Time),575647.900000006,007_m_m_d_a.png,O,m,1468,11,1,2499.0,573148.900000006,7103,VNB,B,9
7,test,1,0.0,2-Back,0,m,Wed Apr 02 2025 11:48:17 GMT-0500 (Central Daylight Time),578679.1999999881,011_m_f_n_a.png,O,z,1987,12,1,3003.7999999821186,575675.400000006,7103,VNB,B,10
7,test,1,0.0,2-Back,0,m,Wed Apr 02 2025 11:48:17 GMT-0500 (Central Daylight Time),580996.1999999881,020_y_f_h_a.png,O,z,1282,13,1,2307.7999999821186,578688.400000006,7103,VNB,B,11
8,test,1,0.0,2-Back,1,z,Wed Apr 02 2025 11:48:17 GMT-0500 (Central Daylight Time),584011.599999994,007_m_m_n_a.png,O,z,1966,14,1,2991.0,581020.599999994,7103,VNB,B,12
9,test,1,0.0,2-Back,1,m,Wed Apr 02 2025 11:48:17 GMT-0500 (Central Daylight Time),586127.7999999821,016_y_m_d_a.png,O,m,1062,15,1,2079.7999999821186,584048.0,7103,VNB,B,13
10,test,1,1.0,2-Back,1,m,Wed Apr 02 2025 11:48:17 GMT-0500 (Central Daylight Time),588243.6999999881,011_m_f_h_a.png,O,m,1074,16,1,2092.5,586151.1999999881,7103,VNB,B,14
11,test,1,0.0,2-Back,1,z,Wed Apr 02 2025 11:48:17 GMT-0500 (Central Daylight Time),590192.599999994,005_o_f_d_a.png,O,z,893,17,1,1915.5,588277.099999994,7103,VNB,B,15
11,test,1,0.0,2-Back,0,m,Wed Apr 02 2025 11:48:17 GMT-0500 (Central Daylight Time),593242.1999999881,004_o_m_n_a.png,O,None,2015,18,1,3034.0,590208.1999999881,7103,VNB,B,16
0,test,2,0.0,2-Back,,,Wed Apr 02 2025 11:48:17 GMT-0500 (Central Daylight Time),593242.1999999881,007_m_m_h_a.png,O,space,1413,1,1,3034.0,590208.1999999881,7103,VNB,B,0
0,test,2,0.0,2-Back,,,Wed Apr 02 2025 11:48:17 GMT-0500 (Central Daylight Time),593242.1999999881,020_y_f_n_a.png,O,space,1413,2,1,3034.0,590208.1999999881,7103,VNB,B,0
1,test,2,1.0,2-Back,1,z,Wed Apr 02 2025 11:48:17 GMT-0500 (Central Daylight Time),602389.0,005_o_f_h_a.png,O,z,1299,3,1,2320.5999999940395,600068.400000006,7103,VNB,B,1
2,test,2,0.0,2-Back,1,m,Wed Apr 02 2025 11:48:17 GMT-0500 (Central Daylight Time),605207.099999994,004_o_m_d_a.png,O,m,1767,4,1,2785.199999988079,602421.900000006,7103,VNB,B,2
3,test,2,0.0,2-Back,1,m,Wed Apr 02 2025 11:48:17 GMT-0500 (Central Daylight Time),608053.7999999821,011_m_f_d_a.png,O,m,1821,5,1,2841.5,605212.2999999821,7103,VNB,B,3
4,test,2,0.0,2-Back,1,m,Wed Apr 02 2025 11:48:17 GMT-0500 (Central Daylight Time),610319.7999999821,016_y_m_h_a.png,O,m,1219,6,1,2236.7999999821186,608083.0,7103,VNB,B,4
4,test,2,0.0,2-Back,0,m,Wed Apr 02 2025 11:48:17 GMT-0500 (Central Daylight Time),612520.2999999821,005_o_f_n_a.png,O,z,1150,7,1,2171.0,610349.2999999821,7103,VNB,B,5
5,test,2,1.0,2-Back,1,z,Wed Apr 02 2025 11:48:17 GMT-0500 (Central Daylight Time),615051.900000006,004_o_m_h_a.png,O,z,1493,8,1,2504.600000023842,612547.2999999821,7103,VNB,B,6
6,test,2,0.0,2-Back,1,m,Wed Apr 02 2025 11:48:17 GMT-0500 (Central Daylight Time),617883.7999999821,020_y_f_d_a.png,O,m,1766,9,1,2799.2999999821186,615084.5,7103,VNB,B,7
7,test,2,0.0,2-Back,1,m,Wed Apr 02 2025 11:48:17 GMT-0500 (Central Daylight Time),619700.0,016_y_m_d_a.png,O,m,749,10,1,1784.0,617916.0,7103,VNB,B,8
8,test,2,0.0,2-Back,1,m,Wed Apr 02 2025 11:48:17 GMT-0500 (Central Daylight Time),622315.0,007_m_m_n_a.png,O,m,1556,11,1,2584.0,619731.0,7103,VNB,B,9
9,test,2,0.0,2-Back,1,m,Wed Apr 02 2025 11:48:17 GMT-0500 (Central Daylight Time),624147.7999999821,011_m_f_h_a.png,O,m,807,12,1,1826.8999999761581,622320.900000006,7103,VNB,B,10
10,test,2,1.0,2-Back,1,z,Wed Apr 02 2025 11:48:17 GMT-0500 (Central Daylight Time),626131.400000006,004_o_m_n_a.png,O,z,949,13,1,1978.9000000059605,624152.5,7103,VNB,B,11
11,test,2,0.0,2-Back,1,m,Wed Apr 02 2025 11:48:17 GMT-0500 (Central Daylight Time),628546.900000006,005_o_f_d_a.png,O,m,1375,14,1,2386.600000023842,626160.2999999821,7103,VNB,B,12
11,test,2,0.0,2-Back,0,m,Wed Apr 02 2025 11:48:17 GMT-0500 (Central Daylight Time),630896.400000006,020_y_f_h_a.png,O,z,1311,15,1,2323.0,628573.400000006,7103,VNB,B,13
12,test,2,0.0,2-Back,1,z,Wed Apr 02 2025 11:48:17 GMT-0500 (Central Daylight Time),632978.599999994,007_m_m_d_a.png,O,z,1042,16,1,2053.699999988079,630924.900000006,7103,VNB,B,14
12,test,2,0.0,2-Back,0,m,Wed Apr 02 2025 11:48:17 GMT-0500 (Central Daylight Time),636028.099999994,016_y_m_n_a.png,O,None,2015,17,1,3021.199999988079,633006.900000006,7103,VNB,B,15
12,test,2,1.0,2-Back,0,m,Wed Apr 02 2025 11:48:17 GMT-0500 (Central Daylight Time),638563.5,011_m_f_n_a.png,O,z,1484,18,1,2503.7000000178814,636059.7999999821,7103,VNB,B,16
0,test,3,1.0,2-Back,,,Wed Apr 02 2025 11:48:17 GMT-0500 (Central Daylight Time),638563.5,004_o_m_n_a.png,O,space,2118,1,1,2503.7000000178814,636059.7999999821,7103,VNB,B,0
0,test,3,1.0,2-Back,,,Wed Apr 02 2025 11:48:17 GMT-0500 (Central Daylight Time),638563.5,005_o_f_d_a.png,O,space,2118,2,1,2503.7000000178814,636059.7999999821,7103,VNB,B,0
1,test,3,0.0,2-Back,1,m,Wed Apr 02 2025 11:48:17 GMT-0500 (Central Daylight Time),648690.400000006,020_y_f_h_a.png,O,m,1626,3,1,2637.600000023842,646052.7999999821,7103,VNB,B,1
2,test,3,0.0,2-Back,1,z,Wed Apr 02 2025 11:48:17 GMT-0500 (Central Daylight Time),650989.7999999821,011_m_f_d_a.png,O,z,1240,4,1,2261.5999999940395,648728.1999999881,7103,VNB,B,2
2,test,3,1.0,2-Back,0,m,Wed Apr 02 2025 11:48:17 GMT-0500 (Central Daylight Time),654038.900000006,016_y_m_n_a.png,O,None,2014,5,1,3024.5,651014.400000006,7103,VNB,B,3
2,test,3,0.0,2-Back,0,m,Wed Apr 02 2025 11:48:17 GMT-0500 (Central Daylight Time),656221.0,004_o_m_h_a.png,O,z,1129,6,1,2152.7000000178814,654068.2999999821,7103,VNB,B,4
3,test,3,0.0,2-Back,1,z,Wed Apr 02 2025 11:48:17 GMT-0500 (Central Daylight Time),658786.5,020_y_f_n_a.png,O,z,1516,7,1,2547.7000000178814,656238.7999999821,7103,VNB,B,5
4,test,3,1.0,2-Back,1,m,Wed Apr 02 2025 11:48:17 GMT-0500 (Central Daylight Time),660553.2999999821,007_m_m_d_a.png,O,m,744,8,1,1754.7999999821186,658798.5,7103,VNB,B,6
5,test,3,0.0,2-Back,1,m,Wed Apr 02 2025 11:48:17 GMT-0500 (Central Daylight Time),663368.7999999821,016_y_m_d_a.png,O,m,1769,9,1,2788.2999999821186,660580.5,7103,VNB,B,7
6,test,3,0.0,2-Back,1,m,Wed Apr 02 2025 11:48:17 GMT-0500 (Central Daylight Time),665384.900000006,005_o_f_h_a.png,O,m,978,10,1,1986.0,663398.900000006,7103,VNB,B,8
7,test,3,1.0,2-Back,1,m,Wed Apr 02 2025 11:48:17 GMT-0500 (Central Daylight Time),667550.6999999881,011_m_f_n_a.png,O,m,1129,11,1,2139.5,665411.1999999881,7103,VNB,B,9
8,test,3,1.0,2-Back,1,z,Wed Apr 02 2025 11:48:17 GMT-0500 (Central Daylight Time),669499.900000006,007_m_m_h_a.png,O,z,900,12,1,1924.1000000238419,667575.7999999821,7103,VNB,B,10
9,test,3,0.0,2-Back,1,m,Wed Apr 02 2025 11:48:17 GMT-0500 (Central Daylight Time),672049.599999994,020_y_f_d_a.png,O,m,1519,13,1,2536.5,669513.099999994,7103,VNB,B,11
9,test,3,0.0,2-Back,0,m,Wed Apr 02 2025 11:48:17 GMT-0500 (Central Daylight Time),674648.6999999881,005_o_f_n_a.png,O,z,1535,14,1,2569.0999999940395,672079.599999994,7103,VNB,B,12
9,test,3,0.0,2-Back,0,z,Wed Apr 02 2025 11:48:17 GMT-0500 (Central Daylight Time),676797.900000006,004_o_m_d_a.png,O,m,1097,15,1,2119.300000011921,674678.599999994,7103,VNB,B,13
10,test,3,1.0,2-Back,1,m,Wed Apr 02 2025 11:48:17 GMT-0500 (Central Daylight Time),679347.099999994,011_m_f_h_a.png,O,m,1492,16,1,2517.699999988079,676829.400000006,7103,VNB,B,14
10,test,3,0.0,2-Back,0,m,Wed Apr 02 2025 11:48:17 GMT-0500 (Central Daylight Time),682079.7999999821,007_m_m_n_a.png,O,z,1671,17,1,2701.399999976158,679378.400000006,7103,VNB,B,15
11,test,3,0.0,2-Back,1,z,Wed Apr 02 2025 11:48:17 GMT-0500 (Central Daylight Time),684612.0,016_y_m_h_a.png,O,z,1482,18,1,2503.800000011921,682108.1999999881,7103,VNB,B,16
0,test,4,0.0,2-Back,,,Wed Apr 02 2025 11:48:17 GMT-0500 (Central Daylight Time),684612.0,011_m_f_n_a.png,O,space,1114,1,1,2503.800000011921,682108.1999999881,7103,VNB,B,0
0,test,4,0.0,2-Back,,,Wed Apr 02 2025 11:48:17 GMT-0500 (Central Daylight Time),684612.0,004_o_m_n_a.png,O,space,1114,2,1,2503.800000011921,682108.1999999881,7103,VNB,B,0
1,test,4,1.0,2-Back,1,m,Wed Apr 02 2025 11:48:17 GMT-0500 (Central Daylight Time),693309.400000006,016_y_m_h_a.png,O,m,1148,3,1,2181.7000000178814,691127.6999999881,7103,VNB,B,1
2,test,4,1.0,2-Back,1,m,Wed Apr 02 2025 11:48:17 GMT-0500 (Central Daylight Time),695725.0,005_o_f_d_a.png,O,m,1372,4,1,2388.0,693337.0,7103,VNB,B,2
3,test,4,0.0,2-Back,1,z,Wed Apr 02 2025 11:48:17 GMT-0500 (Central Daylight Time),697565.900000006,004_o_m_h_a.png,O,z,806,5,1,1813.4000000059605,695752.5,7103,VNB,B,3
4,test,4,0.0,2-Back,1,m,Wed Apr 02 2025 11:48:17 GMT-0500 (Central Daylight Time),700589.7999999821,007_m_m_n_a.png,O,m,1964,6,1,2979.5,697610.2999999821,7103,VNB,B,4
5,test,4,0.0,2-Back,1,m,Wed Apr 02 2025 11:48:17 GMT-0500 (Central Daylight Time),703622.2999999821,011_m_f_d_a.png,O,m,1996,7,1,3003.0,700619.2999999821,7103,VNB,B,5
6,test,4,0.0,2-Back,1,z,Wed Apr 02 2025 11:48:17 GMT-0500 (Central Daylight Time),705655.0,020_y_f_n_a.png,O,z,977,8,1,1999.0,703656.0,7103,VNB,B,6
7,test,4,1.0,2-Back,1,m,Wed Apr 02 2025 11:48:17 GMT-0500 (Central Daylight Time),708171.1999999881,005_o_f_h_a.png,O,m,1450,9,1,2484.199999988079,705687.0,7103,VNB,B,7
8,test,4,0.0,2-Back,1,m,Wed Apr 02 2025 11:48:17 GMT-0500 (Central Daylight Time),710620.099999994,007_m_m_h_a.png,O,m,1407,10,1,2422.5,708197.599999994,7103,VNB,B,8
9,test,4,0.0,2-Back,1,m,Wed Apr 02 2025 11:48:17 GMT-0500 (Central Daylight Time),713335.6999999881,020_y_f_d_a.png,O,m,1680,11,1,2686.7999999821186,710648.900000006,7103,VNB,B,9
10,test,4,0.0,2-Back,1,m,Wed Apr 02 2025 11:48:17 GMT-0500 (Central Daylight Time),715885.2999999821,016_y_m_n_a.png,O,m,1500,12,1,2524.399999976158,713360.900000006,7103,VNB,B,10
11,test,4,0.0,2-Back,1,z,Wed Apr 02 2025 11:48:17 GMT-0500 (Central Daylight Time),718384.1999999881,004_o_m_d_a.png,O,z,1461,13,1,2470.7999999821186,715913.400000006,7103,VNB,B,11
12,test,4,1.0,2-Back,1,m,Wed Apr 02 2025 11:48:17 GMT-0500 (Central Daylight Time),721166.6999999881,011_m_f_h_a.png,O,m,1721,14,1,2751.0999999940395,718415.599999994,7103,VNB,B,12
13,test,4,1.0,2-Back,1,m,Wed Apr 02 2025 11:48:17 GMT-0500 (Central Daylight Time),723865.7999999821,020_y_f_h_a.png,O,m,1660,15,1,2678.0,721187.7999999821,7103,VNB,B,13
14,test,4,0.0,2-Back,1,m,Wed Apr 02 2025 11:48:17 GMT-0500 (Central Daylight Time),726798.400000006,005_o_f_n_a.png,O,m,1872,16,1,2901.7000000178814,723896.6999999881,7103,VNB,B,14
15,test,4,0.0,2-Back,1,m,Wed Apr 02 2025 11:48:17 GMT-0500 (Central Daylight Time),729130.7999999821,016_y_m_d_a.png,O,m,1292,17,1,2308.0999999940395,726822.6999999881,7103,VNB,B,15
16,test,4,1.0,2-Back,1,m,Wed Apr 02 2025 11:48:17 GMT-0500 (Central Daylight Time),731263.5,007_m_m_d_a.png,O,m,1087,18,1,2106.2000000178814,729157.2999999821,7103,VNB,B,16
0,test,5,1.0,2-Back,,,Wed Apr 02 2025 11:48:17 GMT-0500 (Central Daylight Time),731263.5,020_y_f_d_a.png,O,space,2075,1,1,2106.2000000178814,729157.2999999821,7103,VNB,B,0
0,test,5,1.0,2-Back,,,Wed Apr 02 2025 11:48:17 GMT-0500 (Central Daylight Time),731263.5,005_o_f_h_a.png,O,space,2075,2,1,2106.2000000178814,729157.2999999821,7103,VNB,B,0
1,test,5,1.0,2-Back,1,z,Wed Apr 02 2025 11:48:17 GMT-0500 (Central Daylight Time),740393.7999999821,004_o_m_d_a.png,O,z,635,3,1,1653.5999999940395,738740.1999999881,7103,VNB,B,1
2,test,5,1.0,2-Back,1,m,Wed Apr 02 2025 11:48:17 GMT-0500 (Central Daylight Time),742609.7999999821,011_m_f_n_a.png,O,m,1169,4,1,2191.199999988079,740418.599999994,7103,VNB,B,2
3,test,5,0.0,2-Back,1,m,Wed Apr 02 2025 11:48:17 GMT-0500 (Central Daylight Time),744758.099999994,007_m_m_h_a.png,O,m,1096,5,1,2116.0999999940395,742642.0,7103,VNB,B,3
4,test,5,0.0,2-Back,1,z,Wed Apr 02 2025 11:48:17 GMT-0500 (Central Daylight Time),746757.900000006,020_y_f_n_a.png,O,z,980,6,1,1992.4000000059605,744765.5,7103,VNB,B,4
5,test,5,0.0,2-Back,1,m,Wed Apr 02 2025 11:48:17 GMT-0500 (Central Daylight Time),748807.900000006,005_o_f_d_a.png,O,m,1020,7,1,2045.2000000178814,746762.6999999881,7103,VNB,B,5
5,test,5,0.0,2-Back,0,m,Wed Apr 02 2025 11:48:17 GMT-0500 (Central Daylight Time),751173.599999994,004_o_m_h_a.png,O,z,1325,8,1,2337.5,748836.099999994,7103,VNB,B,6
6,test,5,1.0,2-Back,1,z,Wed Apr 02 2025 11:48:17 GMT-0500 (Central Daylight Time),753438.5,011_m_f_d_a.png,O,z,1210,9,1,2231.300000011921,751207.1999999881,7103,VNB,B,7
7,test,5,0.0,2-Back,1,m,Wed Apr 02 2025 11:48:17 GMT-0500 (Central Daylight Time),756371.7999999821,016_y_m_n_a.png,O,m,1899,10,1,2929.0,753442.7999999821,7103,VNB,B,8
8,test,5,0.0,2-Back,1,m,Wed Apr 02 2025 11:48:17 GMT-0500 (Central Daylight Time),759171.0,007_m_m_n_a.png,O,m,1759,11,1,2771.5999999940395,756399.400000006,7103,VNB,B,9
9,test,5,0.0,2-Back,1,m,Wed Apr 02 2025 11:48:17 GMT-0500 (Central Daylight Time),761237.2999999821,020_y_f_h_a.png,O,m,1032,12,1,2041.0999999940395,759196.1999999881,7103,VNB,B,10
10,test,5,0.0,2-Back,1,m,Wed Apr 02 2025 11:48:17 GMT-0500 (Central Daylight Time),763386.2999999821,016_y_m_d_a.png,O,m,1102,13,1,2123.699999988079,761262.599999994,7103,VNB,B,11
11,test,5,1.0,2-Back,1,z,Wed Apr 02 2025 11:48:17 GMT-0500 (Central Daylight Time),764902.400000006,011_m_f_h_a.png,O,z,473,14,1,1488.2000000178814,763414.1999999881,7103,VNB,B,12
12,test,5,0.0,2-Back,1,m,Wed Apr 02 2025 11:48:17 GMT-0500 (Central Daylight Time),767168.5,004_o_m_n_a.png,O,m,1230,15,1,2241.0999999940395,764927.400000006,7103,VNB,B,13
13,test,5,0.0,2-Back,1,m,Wed Apr 02 2025 11:48:17 GMT-0500 (Central Daylight Time),769917.5,007_m_m_d_a.png,O,m,1714,16,1,2722.0999999940395,767195.400000006,7103,VNB,B,14
14,test,5,0.0,2-Back,1,z,Wed Apr 02 2025 11:48:17 GMT-0500 (Central Daylight Time),771966.1999999881,005_o_f_n_a.png,O,z,997,17,1,2017.0,769949.1999999881,7103,VNB,B,15
15,test,5,1.0,2-Back,1,m,Wed Apr 02 2025 11:48:17 GMT-0500 (Central Daylight Time),774532.6999999881,016_y_m_h_a.png,O,m,1516,18,1,2537.5,771995.1999999881,7103,VNB,B,16
