acc_sum,block,block_c,condition,correct,correct_response,datetime,endtime,flanker,jitter,project,response,response_test_buffer_response,response_test_target_response,response_time,response_time_test_buffer_response,response_time_test_target_response,row_sel,session_number,start_end,starttime,subject_id,target,task,task_vers,time_test_buffer,time_test_buffer_response,time_test_constants,time_test_flanker,time_test_jitter,time_test_logger,time_test_target,time_test_target_response,time_test_variables,trial
1,prac,1,inc,1,m,Wed Mar 05 2025 16:55:11 GMT-0600 (Central Standard Time),151839.5,plum,1100,I,m,,,924,,,16,1,3328.5999999940395,148510.90000000596,7083,lead,NF,C,,,,,,,,,,1
1,prac,1,con,0,z,Wed Mar 05 2025 16:55:11 GMT-0600 (Central Standard Time),154706.40000000596,kiwi,1000,I,m,,,563,,,7,1,2861.4000000059605,151845.0,7083,kiwi,NF,C,,,,,,,,,,2
2,prac,1,inc,1,z,Wed Mar 05 2025 16:55:11 GMT-0600 (Central Standard Time),157804.09999999404,cobalt,1100,I,z,,,694,,,4,1,3093.0,154711.09999999404,7083,raisin,NF,C,,,,,,,,,,3
3,prac,1,con,1,m,Wed Mar 05 2025 16:55:11 GMT-0600 (Central Standard Time),160436.40000000596,bronze,800,I,m,,,528,,,9,1,2628.0,157808.40000000596,7083,bronze,NF,C,,,,,,,,,,4
4,prac,1,con,1,m,Wed Mar 05 2025 16:55:11 GMT-0600 (Central Standard Time),163352.30000001192,gold,800,I,m,,,814,,,13,1,2911.300000011921,160441.0,7083,gold,NF,C,,,,,,,,,,5
5,prac,1,con,1,z,Wed Mar 05 2025 16:55:11 GMT-0600 (Central Standard Time),165968.0,lime,800,I,z,,,506,,,5,1,2611.4000000059605,163356.59999999404,7083,lime,NF,C,,,,,,,,,,6
6,prac,1,inc,1,m,Wed Mar 05 2025 16:55:11 GMT-0600 (Central Standard Time),168867.20000001788,pear,900,I,m,,,687,,,14,1,2894.9000000059605,165972.30000001192,7083,iron,NF,C,,,,,,,,,,7
7,prac,1,inc,1,z,Wed Mar 05 2025 16:55:11 GMT-0600 (Central Standard Time),171866.40000000596,lead,1100,I,z,,,597,,,8,1,2995.0,168871.40000000596,7083,plum,NF,C,,,,,,,,,,8
8,prac,1,con,1,z,Wed Mar 05 2025 16:55:11 GMT-0600 (Central Standard Time),175015.30000001192,banana,800,I,z,,,1041,,,1,1,3144.5999999940395,171870.70000001788,7083,banana,NF,C,,,,,,,,,,9
9,prac,1,con,1,z,Wed Mar 05 2025 16:55:11 GMT-0600 (Central Standard Time),177947.70000001788,orange,1000,I,z,,,628,,,3,1,2928.0,175019.70000001788,7083,orange,NF,C,,,,,,,,,,10
10,prac,1,inc,1,z,Wed Mar 05 2025 16:55:11 GMT-0600 (Central Standard Time),180846.80000001192,copper,900,I,z,,,691,,,2,1,2894.4000000059605,177952.40000000596,7083,cherry,NF,C,,,,,,,,,,11
11,prac,1,con,1,m,Wed Mar 05 2025 16:55:11 GMT-0600 (Central Standard Time),183712.59999999404,silver,1000,I,m,,,557,,,11,1,2861.2999999821186,180851.30000001192,7083,silver,NF,C,,,,,,,,,,12
12,prac,1,con,1,m,Wed Mar 05 2025 16:55:11 GMT-0600 (Central Standard Time),186678.20000001788,zinc,1000,I,m,,,650,,,15,1,2961.300000011921,183716.90000000596,7083,zinc,NF,C,,,,,,,,,,13
13,prac,1,inc,1,z,Wed Mar 05 2025 16:55:11 GMT-0600 (Central Standard Time),189394.0,iron,900,I,z,,,514,,,6,1,2711.5999999940395,186682.40000000596,7083,pear,NF,C,,,,,,,,,,14
14,prac,1,inc,1,m,Wed Mar 05 2025 16:55:11 GMT-0600 (Central Standard Time),192326.70000001788,cherry,900,I,m,,,717,,,10,1,2928.2000000178814,189398.5,7083,copper,NF,C,,,,,,,,,,15
15,prac,1,inc,1,m,Wed Mar 05 2025 16:55:11 GMT-0600 (Central Standard Time),195392.09999999404,raisin,1100,I,m,,,657,,,12,1,3061.199999988079,192330.90000000596,7083,cobalt,NF,C,,,,,,,,,,16
1,test,1,inc,1,z,Wed Mar 05 2025 16:55:11 GMT-0600 (Central Standard Time),213170.90000000596,bronze,800,I,z,z,None,563,364.0,199.0,5,1,1896.9000000059605,211274.0,7083,banana,NF,C,207698,207698,206168,206981,206168,208065,207498,207498,208065,1
2,test,1,con,1,m,Wed Mar 05 2025 16:55:11 GMT-0600 (Central Standard Time),215269.20000001788,bronze,1000,I,m,m,None,561,361.0,200.0,67,1,2093.100000023842,213176.09999999404,7083,bronze,NF,C,209797,209797,208070,209080,208070,210163,209597,209597,210163,2
3,test,1,con,1,m,Wed Mar 05 2025 16:55:11 GMT-0600 (Central Standard Time),217651.80000001192,gold,1000,I,m,m,None,838,638.0,200.0,99,1,2378.0,215273.80000001192,7083,gold,NF,C,211896,211896,210168,211180,210168,212546,211696,211696,212546,3
4,test,1,con,1,z,Wed Mar 05 2025 16:55:11 GMT-0600 (Central Standard Time),219984.30000001192,lime,1100,I,z,z,None,691,492.0,199.0,36,1,2328.5999999940395,217655.70000001788,7083,lime,NF,C,214379,214379,212550,213663,212550,214878,214179,214179,214878,4
5,test,1,con,1,z,Wed Mar 05 2025 16:55:11 GMT-0600 (Central Standard Time),222416.90000000596,pear,1000,I,z,z,None,899,699.0,200.0,43,1,2428.300000011921,219988.59999999404,7083,pear,NF,C,216612,216612,214883,215895,214883,217311,216412,216412,217311,5
6,test,1,con,1,z,Wed Mar 05 2025 16:55:11 GMT-0600 (Central Standard Time),224299.59999999404,pear,900,I,z,z,None,446,246.0,200.0,42,1,1878.5999999940395,222421.0,7083,pear,NF,C,218944,218944,217315,218228,217315,219194,218744,218744,219193,6
7,test,1,con,1,m,Wed Mar 05 2025 16:55:11 GMT-0600 (Central Standard Time),226199.0,cobalt,1000,I,m,m,None,360,160.0,200.0,91,1,1895.4000000059605,224303.59999999404,7083,cobalt,NF,C,220927,220927,219198,220210,219198,221093,220727,220727,221093,7
8,test,1,con,1,z,Wed Mar 05 2025 16:55:11 GMT-0600 (Central Standard Time),228114.90000000596,banana,900,I,z,z,None,480,279.0,201.0,2,1,1911.800000011921,226203.09999999404,7083,banana,NF,C,222727,222727,221097,222009,221097,223009,222526,222526,223009,8
9,test,1,con,1,m,Wed Mar 05 2025 16:55:11 GMT-0600 (Central Standard Time),229848.30000001192,zinc,800,I,m,m,None,384,184.0,200.0,113,1,1729.0,228119.30000001192,7083,zinc,NF,C,224542,224542,223013,223826,223014,224742,224342,224342,224742,9
10,test,1,inc,1,m,Wed Mar 05 2025 16:55:11 GMT-0600 (Central Standard Time),231963.70000001788,kiwi,1000,I,m,m,None,572,372.0,200.0,127,1,2110.2000000178814,229853.5,7083,lead,NF,C,226475,226475,224748,225759,224748,226858,226275,226275,226858,10
11,test,1,inc,1,m,Wed Mar 05 2025 16:55:11 GMT-0600 (Central Standard Time),234096.59999999404,cherry,900,I,m,m,None,699,499.0,200.0,78,1,2128.5,231968.09999999404,7083,copper,NF,C,228491,228491,226862,227775,226862,228991,228291,228291,228991,11
12,test,1,inc,1,z,Wed Mar 05 2025 16:55:11 GMT-0600 (Central Standard Time),236112.70000001788,copper,900,I,z,z,None,581,382.0,199.0,14,1,2012.0,234100.70000001788,7083,cherry,NF,C,230624,230624,228995,229907,228995,231007,230424,230424,231007,12
13,test,1,inc,1,z,Wed Mar 05 2025 16:55:11 GMT-0600 (Central Standard Time),238378.59999999404,lead,1100,I,z,z,None,631,431.0,200.0,48,1,2261.699999988079,236116.90000000596,7083,pear,NF,C,232839,232840,231011,232123,231011,233273,232639,232639,233273,13
14,test,1,con,1,z,Wed Mar 05 2025 16:55:11 GMT-0600 (Central Standard Time),240244.5,lime,800,I,z,z,None,519,320.0,199.0,33,1,1861.9000000059605,238382.59999999404,7083,lime,NF,C,234806,234806,233277,234089,233277,235139,234606,234606,235138,14
15,test,1,con,1,z,Wed Mar 05 2025 16:55:11 GMT-0600 (Central Standard Time),242360.90000000596,raisin,1100,I,z,z,None,482,283.0,199.0,28,1,2112.4000000059605,240248.5,7083,raisin,NF,C,236972,236972,235143,236255,235143,237255,236772,236772,237255,15
16,test,1,inc,1,m,Wed Mar 05 2025 16:55:11 GMT-0600 (Central Standard Time),244493.30000001192,plum,1100,I,m,m,None,494,295.0,199.0,128,1,2128.300000011921,242365.0,7083,lead,NF,C,239088,239088,237259,238371,237259,239387,238888,238888,239387,16
17,test,1,inc,1,z,Wed Mar 05 2025 16:55:11 GMT-0600 (Central Standard Time),246675.90000000596,iron,900,I,z,z,None,736,537.0,199.0,38,1,2178.4000000059605,244497.5,7083,lime,NF,C,241021,241021,239392,240304,239392,241570,240821,240821,241570,17
18,test,1,inc,1,m,Wed Mar 05 2025 16:55:11 GMT-0600 (Central Standard Time),248941.80000001192,plum,1100,I,m,m,None,618,419.0,199.0,104,1,2261.800000011921,246680.0,7083,gold,NF,C,243403,243403,241574,242687,241575,243836,243204,243204,243836,18
19,test,1,inc,1,z,Wed Mar 05 2025 16:55:11 GMT-0600 (Central Standard Time),251124.70000001788,zinc,1000,I,z,z,None,646,446.0,200.0,39,1,2178.7000000178814,248946.0,7083,lime,NF,C,245569,245569,243840,244853,243840,246019,245369,245369,246019,19
20,test,1,inc,1,m,Wed Mar 05 2025 16:55:11 GMT-0600 (Central Standard Time),253457.0,plum,1100,I,m,m,None,683,483.0,200.0,112,1,2328.199999988079,251128.80000001192,7083,iron,NF,C,247852,247852,246023,247135,246023,248351,247651,247651,248351,20
21,test,1,con,1,z,Wed Mar 05 2025 16:55:11 GMT-0600 (Central Standard Time),255406.70000001788,kiwi,900,I,z,z,None,502,303.0,199.0,50,1,1945.7000000178814,253461.0,7083,kiwi,NF,C,249984,249984,248355,249268,248355,250301,249785,249785,250301,21
21,test,1,con,0,z,Wed Mar 05 2025 16:55:11 GMT-0600 (Central Standard Time),257472.40000000596,plum,1000,I,m,m,None,516,301.0,215.0,59,1,2060.5999999940395,255411.80000001192,7083,plum,NF,C,252050,252050,250306,251317,250306,252366,251835,251835,252366,22
22,test,1,inc,1,z,Wed Mar 05 2025 16:55:11 GMT-0600 (Central Standard Time),259638.40000000596,silver,1000,I,z,z,None,625,426.0,199.0,15,1,2161.300000011921,257477.09999999404,7083,cherry,NF,C,254100,254100,252371,253384,252372,254532,253900,253900,254532,23
23,test,1,con,1,z,Wed Mar 05 2025 16:55:11 GMT-0600 (Central Standard Time),261704.59999999404,orange,1100,I,z,z,None,424,224.0,200.0,20,1,2061.899999976158,259642.70000001788,7083,orange,NF,C,256366,256366,254537,255649,254537,256599,256166,256166,256599,24
24,test,1,con,1,z,Wed Mar 05 2025 16:55:11 GMT-0600 (Central Standard Time),263704.09999999404,orange,1000,I,z,z,None,449,250.0,199.0,19,1,1995.699999988079,261708.40000000596,7083,orange,NF,C,258332,258332,256602,257615,256603,258598,258132,258132,258598,25
25,test,1,inc,1,z,Wed Mar 05 2025 16:55:11 GMT-0600 (Central Standard Time),265569.90000000596,bronze,800,I,z,z,None,530,331.0,199.0,29,1,1861.699999988079,263708.2000000179,7083,raisin,NF,C,260131,260131,258602,259414,258603,260464,259932,259932,260464,26
26,test,1,con,1,z,Wed Mar 05 2025 16:55:11 GMT-0600 (Central Standard Time),267419.40000000596,orange,900,I,z,z,None,406,206.0,200.0,18,1,1845.199999988079,265574.2000000179,7083,orange,NF,C,262097,262097,260468,261381,260468,262313,261897,261897,262313,27
27,test,1,con,1,m,Wed Mar 05 2025 16:55:11 GMT-0600 (Central Standard Time),269668.8000000119,gold,900,I,m,m,None,803,604.0,199.0,98,1,2245.300000011921,267423.5,7083,gold,NF,C,263947,263947,262318,263230,262318,264563,263747,263747,264563,28
28,test,1,inc,1,z,Wed Mar 05 2025 16:55:11 GMT-0600 (Central Standard Time),271568.0,bronze,800,I,z,z,None,558,359.0,199.0,13,1,1895.4000000059605,269672.59999999404,7083,cherry,NF,C,266096,266096,264567,265379,264567,266462,265896,265896,266462,29
29,test,1,inc,1,m,Wed Mar 05 2025 16:55:11 GMT-0600 (Central Standard Time),273601.09999999404,pear,900,I,m,m,None,600,400.0,200.0,118,1,2028.7999999821186,271572.3000000119,7083,zinc,NF,C,268095,268095,266466,267379,266467,268495,267895,267895,268495,30
30,test,1,inc,1,m,Wed Mar 05 2025 16:55:11 GMT-0600 (Central Standard Time),275866.7000000179,kiwi,1000,I,m,m,None,731,531.0,200.0,103,1,2261.7000000178814,273605.0,7083,gold,NF,C,270228,270228,268499,269511,268499,270761,270028,270028,270761,31
31,test,1,con,1,m,Wed Mar 05 2025 16:55:11 GMT-0600 (Central Standard Time),277699.40000000596,silver,800,I,m,m,None,488,288.0,200.0,81,1,1828.9000000059605,275870.5,7083,silver,NF,C,272294,272294,270764,271577,270765,272593,272094,272094,272593,32
32,test,1,con,1,m,Wed Mar 05 2025 16:55:11 GMT-0600 (Central Standard Time),279532.2000000179,iron,800,I,m,m,None,487,288.0,199.0,105,1,1828.9000000059605,277703.3000000119,7083,iron,NF,C,274127,274127,272597,273410,272598,274426,273927,273927,274426,33
33,test,1,inc,1,m,Wed Mar 05 2025 16:55:11 GMT-0600 (Central Standard Time),281815.09999999404,cherry,900,I,m,m,None,843,644.0,199.0,70,1,2279.0999999940395,279536.0,7083,bronze,NF,C,276059,276059,274430,275343,274430,276709,275860,275860,276709,34
34,test,1,inc,1,m,Wed Mar 05 2025 16:55:11 GMT-0600 (Central Standard Time),283814.3000000119,cherry,900,I,m,m,None,559,360.0,199.0,86,1,1995.300000011921,281819.0,7083,silver,NF,C,278342,278342,276713,277626,276713,278708,278143,278143,278708,35
35,test,1,con,1,z,Wed Mar 05 2025 16:55:11 GMT-0600 (Central Standard Time),286030.3000000119,banana,1100,I,z,z,None,576,377.0,199.0,4,1,2212.2000000178814,283818.09999999404,7083,banana,NF,C,280541,280541,278712,279825,278713,280924,280342,280342,280924,36
36,test,1,con,1,z,Wed Mar 05 2025 16:55:11 GMT-0600 (Central Standard Time),288296.3000000119,kiwi,1100,I,z,z,None,625,298.0,327.0,52,1,2262.300000011921,286034.0,7083,kiwi,NF,C,282885,282885,280928,282041,280928,283190,282557,282557,283190,37
37,test,1,inc,1,z,Wed Mar 05 2025 16:55:11 GMT-0600 (Central Standard Time),290328.7000000179,gold,800,I,z,z,None,690,491.0,199.0,61,1,2028.5,288300.2000000179,7083,plum,NF,C,284723,284723,283194,284007,283195,285223,284524,284524,285223,38
38,test,1,con,1,m,Wed Mar 05 2025 16:55:11 GMT-0600 (Central Standard Time),292379.0,lead,900,I,m,m,None,605,406.0,199.0,122,1,2046.199999988079,290332.8000000119,7083,lead,NF,C,286856,286856,285227,286140,285227,287273,286656,286656,287273,39
39,test,1,inc,1,z,Wed Mar 05 2025 16:55:11 GMT-0600 (Central Standard Time),294310.5,bronze,800,I,z,z,None,593,393.0,200.0,21,1,1927.2999999821186,292383.2000000179,7083,orange,NF,C,288805,288805,287277,288088,287278,289205,288605,288605,289205,40
40,test,1,con,1,m,Wed Mar 05 2025 16:55:11 GMT-0600 (Central Standard Time),296377.09999999404,bronze,900,I,m,m,None,617,417.0,200.0,66,1,2062.5,294314.59999999404,7083,bronze,NF,C,290838,290838,289209,290121,289209,291271,290638,290638,291271,41
41,test,1,inc,1,z,Wed Mar 05 2025 16:55:11 GMT-0600 (Central Standard Time),298509.40000000596,silver,1000,I,z,z,None,586,387.0,199.0,31,1,2128.699999988079,296380.7000000179,7083,raisin,NF,C,293004,293004,291275,292287,291275,293403,292804,292804,293403,42
42,test,1,inc,1,m,Wed Mar 05 2025 16:55:11 GMT-0600 (Central Standard Time),300508.90000000596,banana,800,I,m,m,None,652,453.0,199.0,85,1,1995.699999988079,298513.2000000179,7083,silver,NF,C,294937,294937,293407,294220,293408,295403,294737,294737,295403,43
43,test,1,inc,1,z,Wed Mar 05 2025 16:55:11 GMT-0600 (Central Standard Time),302757.8000000119,lead,1100,I,z,z,None,601,402.0,199.0,56,1,2245.0999999940395,300512.7000000179,7083,kiwi,NF,C,297236,297236,295407,296519,295407,297652,297036,297036,297652,44
44,test,1,con,1,z,Wed Mar 05 2025 16:55:11 GMT-0600 (Central Standard Time),304807.3000000119,lime,1000,I,z,z,None,509,309.0,200.0,35,1,2045.0999999940395,302762.2000000179,7083,lime,NF,C,299385,299385,297656,298669,297657,299701,299185,299185,299701,45
45,test,1,con,1,m,Wed Mar 05 2025 16:55:11 GMT-0600 (Central Standard Time),306723.5,copper,800,I,m,m,None,572,372.0,200.0,73,1,1912.5999999940395,304810.90000000596,7083,copper,NF,C,301234,301234,299705,300518,299705,301618,301034,301034,301618,46
46,test,1,inc,1,m,Wed Mar 05 2025 16:55:11 GMT-0600 (Central Standard Time),308706.09999999404,lime,800,I,m,m,None,638,439.0,199.0,117,1,1978.2999999821186,306727.8000000119,7083,zinc,NF,C,303151,303151,301622,302434,301622,303600,302951,302951,303600,47
47,test,1,inc,1,z,Wed Mar 05 2025 16:55:11 GMT-0600 (Central Standard Time),310922.09999999404,lead,1100,I,z,z,None,581,381.0,200.0,40,1,2211.699999988079,308710.40000000596,7083,lime,NF,C,305433,305433,303604,304717,303605,305816,305233,305233,305816,48
48,test,1,inc,1,z,Wed Mar 05 2025 16:55:11 GMT-0600 (Central Standard Time),313171.40000000596,cobalt,1100,I,z,z,None,613,413.0,200.0,24,1,2245.300000011921,310926.09999999404,7083,orange,NF,C,307649,307649,305820,306933,305820,308065,307449,307449,308065,49
49,test,1,con,1,z,Wed Mar 05 2025 16:55:11 GMT-0600 (Central Standard Time),315037.5,pear,800,I,z,z,None,518,319.0,199.0,41,1,1861.5999999940395,313175.90000000596,7083,pear,NF,C,309598,309599,308070,308882,308070,309932,309399,309399,309932,50
49,test,1,con,0,m,Wed Mar 05 2025 16:55:11 GMT-0600 (Central Standard Time),316870.3000000119,lead,800,I,z,z,None,492,293.0,199.0,121,1,1828.7000000178814,315041.59999999404,7083,lead,NF,C,311465,311465,309936,310748,309936,311764,311265,311265,311764,51
50,test,1,inc,1,m,Wed Mar 05 2025 16:55:11 GMT-0600 (Central Standard Time),319236.09999999404,raisin,1100,I,m,m,None,729,529.0,200.0,80,1,2361.2999999821186,316874.8000000119,7083,copper,NF,C,313597,313597,311769,312881,311769,314130,313397,313397,314130,52
51,test,1,con,1,m,Wed Mar 05 2025 16:55:11 GMT-0600 (Central Standard Time),321285.5,gold,800,I,m,m,None,703,503.0,200.0,97,1,2044.5999999940395,319240.90000000596,7083,gold,NF,C,315663,315663,314135,314947,314135,316180,315463,315463,316180,53
52,test,1,inc,1,z,Wed Mar 05 2025 16:55:11 GMT-0600 (Central Standard Time),323284.90000000596,iron,900,I,z,z,None,560,361.0,199.0,62,1,1995.5999999940395,321289.3000000119,7083,plum,NF,C,317813,317813,316183,317096,316184,318179,317613,317613,318179,54
53,test,1,con,1,m,Wed Mar 05 2025 16:55:11 GMT-0600 (Central Standard Time),325484.2000000179,iron,1000,I,m,m,None,662,462.0,200.0,107,1,2194.9000000059605,323289.3000000119,7083,iron,NF,C,319912,319912,318183,319196,318184,320378,319712,319712,320378,55
54,test,1,con,1,z,Wed Mar 05 2025 16:55:11 GMT-0600 (Central Standard Time),327367.0,cherry,800,I,z,z,None,543,343.0,200.0,9,1,1878.5999999940395,325488.40000000596,7083,cherry,NF,C,321911,321911,320382,321195,320383,322261,321711,321711,322261,56
55,test,1,inc,1,z,Wed Mar 05 2025 16:55:11 GMT-0600 (Central Standard Time),329416.3000000119,copper,900,I,z,z,None,600,400.0,200.0,30,1,2045.0,327371.3000000119,7083,raisin,NF,C,323894,323894,322265,323178,322266,324310,323694,323694,324310,57
56,test,1,con,1,m,Wed Mar 05 2025 16:55:11 GMT-0600 (Central Standard Time),331315.7000000179,cobalt,800,I,m,m,None,554,355.0,199.0,89,1,1895.4000000059605,329420.3000000119,7083,cobalt,NF,C,325844,325844,324314,325127,324315,326210,325644,325644,326210,58
57,test,1,inc,1,m,Wed Mar 05 2025 16:55:11 GMT-0600 (Central Standard Time),333248.5,banana,800,I,m,m,None,590,391.0,199.0,93,1,1928.4000000059605,331320.09999999404,7083,cobalt,NF,C,327743,327743,326214,327027,326214,328143,327544,327544,328142,59
58,test,1,inc,1,m,Wed Mar 05 2025 16:55:11 GMT-0600 (Central Standard Time),335364.40000000596,orange,1000,I,m,m,None,570,273.0,297.0,79,1,2111.5999999940395,333252.8000000119,7083,copper,NF,C,329973,329973,328147,329159,328147,330258,329676,329676,330258,60
59,test,1,con,1,m,Wed Mar 05 2025 16:55:11 GMT-0600 (Central Standard Time),337497.09999999404,zinc,1100,I,m,m,None,498,299.0,199.0,116,1,2128.5999999940395,335368.5,7083,zinc,NF,C,332091,332091,330263,331375,330263,332391,331892,331892,332391,61
60,test,1,inc,1,m,Wed Mar 05 2025 16:55:11 GMT-0600 (Central Standard Time),339646.40000000596,orange,1000,I,m,m,None,602,402.0,200.0,71,1,2145.0999999940395,337501.3000000119,7083,bronze,NF,C,334124,334124,332395,333408,332396,334540,333924,333924,334540,62
61,test,1,inc,1,m,Wed Mar 05 2025 16:55:11 GMT-0600 (Central Standard Time),341679.09999999404,pear,900,I,m,m,None,583,384.0,199.0,110,1,2028.0999999940395,339651.0,7083,iron,NF,C,336174,336174,334545,335457,334545,336573,335974,335974,336573,63
62,test,1,inc,1,m,Wed Mar 05 2025 16:55:11 GMT-0600 (Central Standard Time),343645.2000000179,banana,800,I,m,m,None,619,420.0,199.0,77,1,1962.0,341683.2000000179,7083,copper,NF,C,338106,338106,336577,337390,336578,338539,337907,337907,338539,64
63,test,1,inc,1,z,Wed Mar 05 2025 16:55:11 GMT-0600 (Central Standard Time),345911.0,zinc,1000,I,z,z,None,718,518.0,200.0,47,1,2261.5999999940395,343649.40000000596,7083,pear,NF,C,340272,340272,338543,339556,338544,340805,340072,340072,340805,65
64,test,1,con,1,m,Wed Mar 05 2025 16:55:11 GMT-0600 (Central Standard Time),348160.40000000596,copper,1000,I,m,m,None,708,508.0,200.0,75,1,2245.300000011921,345915.09999999404,7083,copper,NF,C,342538,342538,340809,341822,340809,343054,342338,342338,343054,66
65,test,1,con,1,z,Wed Mar 05 2025 16:55:11 GMT-0600 (Central Standard Time),350409.59999999404,cherry,1100,I,z,z,None,606,407.0,199.0,12,1,2244.899999976158,348164.7000000179,7083,cherry,NF,C,344887,344887,343059,344171,343059,345304,344688,344688,345304,67
66,test,1,inc,1,z,Wed Mar 05 2025 16:55:11 GMT-0600 (Central Standard Time),352692.40000000596,iron,900,I,z,z,None,845,645.0,200.0,46,1,2278.800000011921,350413.59999999404,7083,pear,NF,C,346937,346937,345308,346220,345308,347586,346737,346737,347586,68
67,test,1,inc,1,m,Wed Mar 05 2025 16:55:11 GMT-0600 (Central Standard Time),354924.90000000596,cherry,900,I,m,m,None,787,587.0,200.0,94,1,2228.0999999940395,352696.8000000119,7083,cobalt,NF,C,349219,349219,347591,348503,347591,349819,349019,349019,349819,69
68,test,1,inc,1,m,Wed Mar 05 2025 16:55:11 GMT-0600 (Central Standard Time),357024.3000000119,pear,900,I,m,m,None,658,458.0,200.0,102,1,2094.9000000059605,354929.40000000596,7083,gold,NF,C,351452,351452,349823,350735,349824,351918,351252,351252,351918,70
69,test,1,inc,1,z,Wed Mar 05 2025 16:55:11 GMT-0600 (Central Standard Time),359173.59999999404,copper,900,I,z,z,None,672,467.0,205.0,6,1,2145.0999999940395,357028.5,7083,banana,NF,C,353587,353587,351923,352835,351923,354068,353382,353382,354068,71
70,test,1,con,1,z,Wed Mar 05 2025 16:55:11 GMT-0600 (Central Standard Time),361373.0,plum,1100,I,z,z,None,553,353.0,200.0,60,1,2195.699999988079,359177.3000000119,7083,plum,NF,C,355901,355901,354071,355185,354072,356267,355701,355701,356267,72
71,test,1,inc,1,z,Wed Mar 05 2025 16:55:11 GMT-0600 (Central Standard Time),363305.59999999404,gold,800,I,z,z,None,590,390.0,200.0,37,1,1928.5999999940395,361377.0,7083,lime,NF,C,357800,357800,356271,357083,356271,358200,357600,357600,358200,73
72,test,1,inc,1,z,Wed Mar 05 2025 16:55:11 GMT-0600 (Central Standard Time),365488.8000000119,cobalt,1100,I,z,z,None,549,349.0,200.0,8,1,2178.800000011921,363310.0,7083,banana,NF,C,360033,360033,358204,359317,358205,360383,359833,359833,360383,74
73,test,1,con,1,z,Wed Mar 05 2025 16:55:11 GMT-0600 (Central Standard Time),367371.3000000119,plum,800,I,z,z,None,538,339.0,199.0,57,1,1878.7000000178814,365492.59999999404,7083,plum,NF,C,361916,361916,360387,361199,360387,362265,361716,361716,362265,75
74,test,1,con,1,m,Wed Mar 05 2025 16:55:11 GMT-0600 (Central Standard Time),369653.8000000119,silver,1000,I,m,m,None,744,544.0,200.0,83,1,2278.5,367375.3000000119,7083,silver,NF,C,363998,363998,362269,363282,362270,364548,363798,363798,364548,76
75,test,1,con,1,z,Wed Mar 05 2025 16:55:11 GMT-0600 (Central Standard Time),372236.3000000119,cherry,1000,I,z,z,None,1037,837.0,200.0,11,1,2578.4000000059605,369657.90000000596,7083,cherry,NF,C,366281,366281,364552,365564,364552,367130,366081,366081,367130,77
76,test,1,con,1,m,Wed Mar 05 2025 16:55:11 GMT-0600 (Central Standard Time),374568.8000000119,bronze,1100,I,m,m,None,697,482.0,215.0,68,1,2328.5,372240.3000000119,7083,bronze,NF,C,368980,368980,367134,368247,367135,369463,368765,368765,369463,78
77,test,1,con,1,z,Wed Mar 05 2025 16:55:11 GMT-0600 (Central Standard Time),376551.40000000596,orange,800,I,z,z,None,641,442.0,199.0,17,1,1978.699999988079,374572.7000000179,7083,orange,NF,C,370996,370996,369467,370280,369467,371445,370797,370797,371445,79
78,test,1,con,1,m,Wed Mar 05 2025 16:55:11 GMT-0600 (Central Standard Time),378784.8000000119,gold,1100,I,m,m,None,582,383.0,199.0,100,1,2229.800000011921,376555.0,7083,gold,NF,C,373278,373279,371449,372562,371449,373679,373079,373079,373679,80
79,test,1,inc,1,m,Wed Mar 05 2025 16:55:11 GMT-0600 (Central Standard Time),381084.59999999404,kiwi,1000,I,m,m,None,778,563.0,215.0,119,1,2295.899999976158,378788.7000000179,7083,zinc,NF,C,375411,375411,373683,374695,373683,375979,375196,375196,375979,81
80,test,1,con,1,m,Wed Mar 05 2025 16:55:11 GMT-0600 (Central Standard Time),383482.8000000119,zinc,1000,I,m,m,None,797,597.0,200.0,115,1,2394.0999999940395,381088.7000000179,7083,zinc,NF,C,377777,377777,375983,377073,375983,378377,377577,377577,378377,82
81,test,1,con,1,z,Wed Mar 05 2025 16:55:11 GMT-0600 (Central Standard Time),385398.8000000119,banana,800,I,z,z,None,568,368.0,200.0,1,1,1912.300000011921,383486.5,7083,banana,NF,C,379910,379910,378381,379193,378381,380293,379710,379710,380293,83
82,test,1,inc,1,m,Wed Mar 05 2025 16:55:11 GMT-0600 (Central Standard Time),388082.7000000179,kiwi,1000,I,m,m,None,1140,940.0,200.0,111,1,2680.0,385402.7000000179,7083,iron,NF,C,382026,382026,380297,381310,380297,382977,381826,381826,382977,84
83,test,1,inc,1,z,Wed Mar 05 2025 16:55:11 GMT-0600 (Central Standard Time),389930.59999999404,gold,800,I,z,z,None,513,313.0,200.0,53,1,1843.699999988079,388086.90000000596,7083,kiwi,NF,C,384509,384509,382981,383792,382981,384825,384309,384309,384825,85
84,test,1,inc,1,m,Wed Mar 05 2025 16:55:11 GMT-0600 (Central Standard Time),392163.40000000596,raisin,1100,I,m,m,None,588,389.0,199.0,72,1,2229.0,389934.40000000596,7083,bronze,NF,C,386658,386658,384828,385941,384829,387057,386458,386458,387057,86
85,test,1,inc,1,z,Wed Mar 05 2025 16:55:11 GMT-0600 (Central Standard Time),394062.8000000119,gold,800,I,z,z,None,550,351.0,199.0,45,1,1895.5999999940395,392167.2000000179,7083,pear,NF,C,388591,388591,387061,387874,387061,388957,388391,388391,388957,87
86,test,1,inc,1,m,Wed Mar 05 2025 16:55:11 GMT-0600 (Central Standard Time),396095.59999999404,lime,800,I,m,m,None,693,493.0,200.0,101,1,2028.8999999761581,394066.7000000179,7083,gold,NF,C,390490,390490,388961,389774,388961,390990,390290,390290,390990,88
87,test,1,con,1,z,Wed Mar 05 2025 16:55:11 GMT-0600 (Central Standard Time),398078.2000000179,plum,900,I,z,z,None,543,344.0,199.0,58,1,1978.800000011921,396099.40000000596,7083,plum,NF,C,392622,392622,390993,391906,390994,392972,392423,392423,392972,89
88,test,1,inc,1,z,Wed Mar 05 2025 16:55:11 GMT-0600 (Central Standard Time),400194.0,silver,1000,I,z,z,None,581,381.0,200.0,23,1,2112.199999988079,398081.8000000119,7083,orange,NF,C,394705,394705,392976,393989,392976,395088,394505,394505,395088,90
89,test,1,inc,1,m,Wed Mar 05 2025 16:55:11 GMT-0600 (Central Standard Time),402410.2000000179,raisin,1100,I,m,m,None,582,382.0,200.0,88,1,2212.300000011921,400197.90000000596,7083,silver,NF,C,396921,396921,395092,396205,395092,397304,396721,396721,397304,91
90,test,1,inc,1,m,Wed Mar 05 2025 16:55:11 GMT-0600 (Central Standard Time),404459.40000000596,pear,900,I,m,m,None,604,404.0,200.0,126,1,2045.199999988079,402414.2000000179,7083,lead,NF,C,398938,398938,397308,398221,397309,399353,398738,398738,399353,92
91,test,1,con,1,z,Wed Mar 05 2025 16:55:11 GMT-0600 (Central Standard Time),406591.90000000596,kiwi,1000,I,z,z,None,525,325.0,200.0,51,1,2128.800000011921,404463.09999999404,7083,kiwi,NF,C,401153,401153,399357,400451,399357,401486,400953,400953,401486,93
92,test,1,inc,1,m,Wed Mar 05 2025 16:55:11 GMT-0600 (Central Standard Time),408792.40000000596,raisin,1100,I,m,m,None,551,351.0,200.0,96,1,2196.800000011921,406595.59999999404,7083,cobalt,NF,C,403319,403319,401490,402603,401490,403686,403119,403119,403686,94
93,test,1,con,1,m,Wed Mar 05 2025 16:55:11 GMT-0600 (Central Standard Time),411090.7000000179,silver,1100,I,m,m,None,662,463.0,199.0,84,1,2294.5,408796.2000000179,7083,silver,NF,C,405519,405519,403690,404802,403691,405985,405319,405319,405985,95
94,test,1,inc,1,z,Wed Mar 05 2025 16:55:11 GMT-0600 (Central Standard Time),413106.8000000119,zinc,1000,I,z,z,None,472,272.0,200.0,63,1,2011.800000011921,411095.0,7083,plum,NF,C,407718,407718,405989,407001,405989,408001,407518,407518,408001,96
95,test,1,con,1,z,Wed Mar 05 2025 16:55:11 GMT-0600 (Central Standard Time),415206.2000000179,cherry,900,I,z,z,None,651,452.0,199.0,10,1,2095.7000000178814,413110.5,7083,cherry,NF,C,409634,409634,408005,408918,408005,410100,409434,409434,410100,97
96,test,1,inc,1,m,Wed Mar 05 2025 16:55:11 GMT-0600 (Central Standard Time),417105.3000000119,lime,800,I,m,m,None,564,365.0,199.0,125,1,1895.2000000178814,415210.09999999404,7083,lead,NF,C,411633,411633,410104,410917,410104,411999,411434,411434,411999,98
97,test,1,con,1,m,Wed Mar 05 2025 16:55:11 GMT-0600 (Central Standard Time),419305.0,iron,1100,I,m,m,None,548,349.0,199.0,108,1,2195.7999999821186,417109.2000000179,7083,iron,NF,C,413833,413833,412003,413117,412003,414199,413633,413633,414199,99
98,test,1,con,1,m,Wed Mar 05 2025 16:55:11 GMT-0600 (Central Standard Time),421420.8000000119,copper,900,I,m,m,None,670,470.0,200.0,74,1,2112.0,419308.8000000119,7083,copper,NF,C,415832,415832,414203,415116,414203,416315,415632,415632,416315,100
99,test,1,inc,1,m,Wed Mar 05 2025 16:55:11 GMT-0600 (Central Standard Time),423386.90000000596,banana,800,I,m,m,None,631,431.0,200.0,69,1,1962.300000011921,421424.59999999404,7083,bronze,NF,C,417848,417848,416319,417131,416319,418281,417648,417648,418281,101
100,test,1,inc,1,m,Wed Mar 05 2025 16:55:11 GMT-0600 (Central Standard Time),425586.40000000596,plum,1100,I,m,m,None,556,356.0,200.0,120,1,2195.4000000059605,423391.0,7083,zinc,NF,C,420114,420114,418285,419398,418285,420480,419914,419914,420480,102
101,test,1,con,1,m,Wed Mar 05 2025 16:55:11 GMT-0600 (Central Standard Time),427568.90000000596,cobalt,900,I,m,m,None,539,340.0,199.0,90,1,1978.800000011921,425590.09999999404,7083,cobalt,NF,C,422114,422114,420484,421397,420484,422463,421913,421914,422463,103
102,test,1,inc,1,z,Wed Mar 05 2025 16:55:11 GMT-0600 (Central Standard Time),429602.7000000179,iron,900,I,z,z,None,498,288.0,210.0,54,1,2030.2000000178814,427572.5,7083,kiwi,NF,C,424198,424198,422467,423380,422467,424497,423988,423988,424497,104
103,test,1,con,1,m,Wed Mar 05 2025 16:55:11 GMT-0600 (Central Standard Time),431884.3000000119,cobalt,1100,I,m,m,None,644,429.0,215.0,92,1,2277.800000011921,429606.5,7083,cobalt,NF,C,426345,426345,424501,425612,424501,426778,426130,426130,426778,105
104,test,1,con,1,m,Wed Mar 05 2025 16:55:11 GMT-0600 (Central Standard Time),433816.90000000596,bronze,800,I,m,m,None,598,399.0,199.0,65,1,1928.800000011921,431888.09999999404,7083,bronze,NF,C,428311,428311,426782,427595,426782,428711,428112,428112,428711,106
105,test,1,inc,1,m,Wed Mar 05 2025 16:55:11 GMT-0600 (Central Standard Time),435899.7000000179,orange,1000,I,m,m,None,538,338.0,200.0,87,1,2078.9000000059605,433820.8000000119,7083,silver,NF,C,430444,430444,428715,429728,428715,430794,430244,430244,430794,107
106,test,1,con,1,m,Wed Mar 05 2025 16:55:11 GMT-0600 (Central Standard Time),437882.3000000119,lead,1000,I,m,m,None,438,239.0,199.0,123,1,1978.9000000059605,435903.40000000596,7083,lead,NF,C,432527,432527,430797,431810,430798,432776,432327,432327,432776,108
107,test,1,con,1,m,Wed Mar 05 2025 16:55:11 GMT-0600 (Central Standard Time),439965.0,lead,1100,I,m,m,None,435,235.0,200.0,124,1,2078.699999988079,437886.3000000119,7083,lead,NF,C,434611,434611,432780,433893,432781,434859,434410,434410,434859,109
108,test,1,con,1,z,Wed Mar 05 2025 16:55:11 GMT-0600 (Central Standard Time),441914.3000000119,kiwi,800,I,z,z,None,613,414.0,199.0,49,1,1944.9000000059605,439969.40000000596,7083,kiwi,NF,C,436392,436392,434863,435676,434864,436808,436193,436193,436808,110
109,test,1,con,1,z,Wed Mar 05 2025 16:55:11 GMT-0600 (Central Standard Time),443897.2000000179,banana,1000,I,z,z,None,433,233.0,200.0,3,1,1978.4000000059605,441918.8000000119,7083,banana,NF,C,438541,438542,436813,437825,436813,438791,438341,438341,438791,111
110,test,1,con,1,z,Wed Mar 05 2025 16:55:11 GMT-0600 (Central Standard Time),445713.2000000179,raisin,900,I,z,z,None,375,175.0,200.0,26,1,1812.4000000059605,443900.8000000119,7083,raisin,NF,C,440424,440424,438795,439708,438795,440607,440224,440224,440607,112
111,test,1,con,1,z,Wed Mar 05 2025 16:55:11 GMT-0600 (Central Standard Time),447812.59999999404,pear,1100,I,z,z,None,455,254.0,201.0,44,1,2095.699999988079,445716.90000000596,7083,pear,NF,C,442441,442441,440611,441724,440611,442707,442240,442240,442707,113
112,test,1,con,1,m,Wed Mar 05 2025 16:55:11 GMT-0600 (Central Standard Time),449911.8000000119,zinc,900,I,m,m,None,649,450.0,199.0,114,1,2095.300000011921,447816.5,7083,zinc,NF,C,444340,444340,442711,443623,442711,444806,444140,444140,444806,114
113,test,1,inc,1,m,Wed Mar 05 2025 16:55:11 GMT-0600 (Central Standard Time),452044.5,orange,1000,I,m,m,None,595,395.0,200.0,95,1,2128.699999988079,449915.8000000119,7083,cobalt,NF,C,446539,446539,444810,445822,444810,446939,446339,446339,446939,115
114,test,1,con,1,m,Wed Mar 05 2025 16:55:11 GMT-0600 (Central Standard Time),454227.2000000179,copper,1100,I,m,m,None,546,347.0,199.0,76,1,2178.300000011921,452048.90000000596,7083,copper,NF,C,448771,448772,446943,448055,446943,449121,448572,448572,449121,116
115,test,1,inc,1,z,Wed Mar 05 2025 16:55:11 GMT-0600 (Central Standard Time),456426.3000000119,lead,1100,I,z,z,None,564,364.0,200.0,64,1,2195.300000011921,454231.0,7083,plum,NF,C,450954,450954,449125,450238,449125,451320,450754,450754,451320,117
116,test,1,con,1,m,Wed Mar 05 2025 16:55:11 GMT-0600 (Central Standard Time),458442.59999999404,iron,900,I,m,m,None,579,380.0,199.0,106,1,2012.699999988079,456429.90000000596,7083,iron,NF,C,452954,452954,451324,452238,451324,453337,452754,452754,453337,118
117,test,1,con,1,z,Wed Mar 05 2025 16:55:11 GMT-0600 (Central Standard Time),460508.8000000119,raisin,1000,I,z,z,None,528,329.0,199.0,27,1,2062.2000000178814,458446.59999999404,7083,raisin,NF,C,455070,455070,453341,454353,453341,455403,454870,454870,455403,119
118,test,1,inc,1,z,Wed Mar 05 2025 16:55:11 GMT-0600 (Central Standard Time),462774.3000000119,cobalt,1100,I,z,z,None,625,426.0,199.0,16,1,2261.800000011921,460512.5,7083,cherry,NF,C,457236,457236,455407,456519,455407,457668,457036,457036,457668,120
119,test,1,con,1,z,Wed Mar 05 2025 16:55:11 GMT-0600 (Central Standard Time),464823.7000000179,raisin,800,I,z,z,None,709,510.0,199.0,25,1,2045.5,462778.2000000179,7083,raisin,NF,C,459201,459201,457672,458485,457673,459718,459002,459002,459718,121
120,test,1,inc,1,m,Wed Mar 05 2025 16:55:11 GMT-0600 (Central Standard Time),466739.40000000596,lime,800,I,m,m,None,579,379.0,200.0,109,1,1912.0999999940395,464827.3000000119,7083,iron,NF,C,461251,461251,459721,460535,459722,461634,461051,461051,461633,122
121,test,1,inc,1,z,Wed Mar 05 2025 16:55:11 GMT-0600 (Central Standard Time),468805.8000000119,silver,1000,I,z,z,None,527,327.0,200.0,7,1,2061.800000011921,466744.0,7083,banana,NF,C,463367,463367,461638,462651,461638,463700,463167,463167,463700,123
122,test,1,con,1,z,Wed Mar 05 2025 16:55:11 GMT-0600 (Central Standard Time),470805.3000000119,lime,900,I,z,z,None,553,353.0,200.0,34,1,1995.7000000178814,468809.59999999404,7083,lime,NF,C,465333,465333,463704,464617,463704,465699,465133,465133,465699,124
123,test,1,con,1,m,Wed Mar 05 2025 16:55:11 GMT-0600 (Central Standard Time),472837.90000000596,silver,900,I,m,m,None,594,394.0,200.0,82,1,2028.800000011921,470809.09999999404,7083,silver,NF,C,467332,467332,465703,466616,465703,467732,467132,467132,467732,125
124,test,1,inc,1,z,Wed Mar 05 2025 16:55:11 GMT-0600 (Central Standard Time),475054.0,cobalt,1100,I,z,z,None,577,377.0,200.0,32,1,2212.199999988079,472841.8000000119,7083,raisin,NF,C,469565,469565,467736,468849,467736,469948,469365,469365,469948,126
125,test,1,inc,1,z,Wed Mar 05 2025 16:55:11 GMT-0600 (Central Standard Time),477320.2000000179,zinc,1000,I,z,z,None,626,426.0,200.0,55,1,2262.5,475057.7000000179,7083,kiwi,NF,C,471781,471781,469952,471079,469952,472214,471581,471581,472214,127
126,test,1,inc,1,z,Wed Mar 05 2025 16:55:11 GMT-0600 (Central Standard Time),479419.3000000119,copper,900,I,z,z,None,664,464.0,200.0,22,1,2095.300000011921,477324.0,7083,orange,NF,C,473847,473847,472218,473131,472218,474313,473647,473647,474313,128
