acc_sum,block,block_c,condition,correct,correct_response,datetime,endtime,flanker,jitter,project,response,response_test_buffer_response,response_test_target_response,response_time,response_time_test_buffer_response,response_time_test_target_response,row_sel,session_number,start_end,starttime,subject_id,target,task,task_vers,time_test_buffer,time_test_buffer_response,time_test_constants,time_test_flanker,time_test_jitter,time_test_logger,time_test_target,time_test_target_response,time_test_variables,trial
1,prac,1,con,1,z,Mon Feb 17 2025 16:38:29 GMT-0600 (Central Standard Time),150566.0,orange,1000,I,z,,,1336,,,3,1,3645.100000000093,146920.8999999999,7049,orange,NF,C,,,,,,,,,,1
2,prac,1,inc,1,m,Mon Feb 17 2025 16:38:29 GMT-0600 (Central Standard Time),154181.2000000002,cherry,900,I,m,,,1402,,,10,1,3609.7000000001863,150571.5,7049,copper,NF,C,,,,,,,,,,2
3,prac,1,inc,1,z,Mon Feb 17 2025 16:38:29 GMT-0600 (Central Standard Time),157413.6000000001,cobalt,1100,I,z,,,819,,,4,1,3227.600000000093,154186.0,7049,raisin,NF,C,,,,,,,,,,3
4,prac,1,con,1,m,Mon Feb 17 2025 16:38:29 GMT-0600 (Central Standard Time),160329.5,zinc,1000,I,m,,,614,,,15,1,2911.7000000001863,157417.7999999998,7049,zinc,NF,C,,,,,,,,,,4
5,prac,1,inc,1,m,Mon Feb 17 2025 16:38:29 GMT-0600 (Central Standard Time),163144.8999999999,pear,900,I,m,,,615,,,14,1,2810.6999999997206,160334.2000000002,7049,iron,NF,C,,,,,,,,,,5
6,prac,1,con,1,m,Mon Feb 17 2025 16:38:29 GMT-0600 (Central Standard Time),165944.1000000001,gold,800,I,m,,,692,,,13,1,2794.8000000002794,163149.2999999998,7049,gold,NF,C,,,,,,,,,,6
7,prac,1,con,1,m,Mon Feb 17 2025 16:38:29 GMT-0600 (Central Standard Time),168810.1000000001,silver,1000,I,m,,,557,,,11,1,2861.3000000002794,165948.7999999998,7049,silver,NF,C,,,,,,,,,,7
8,prac,1,inc,1,z,Mon Feb 17 2025 16:38:29 GMT-0600 (Central Standard Time),171625.7999999998,iron,900,I,z,,,615,,,6,1,2811.6999999997206,168814.1000000001,7049,pear,NF,C,,,,,,,,,,8
9,prac,1,con,1,z,Mon Feb 17 2025 16:38:29 GMT-0600 (Central Standard Time),174408.3999999999,kiwi,1000,I,z,,,475,,,7,1,2777.899999999907,171630.5,7049,kiwi,NF,C,,,,,,,,,,9
10,prac,1,con,1,m,Mon Feb 17 2025 16:38:29 GMT-0600 (Central Standard Time),177190.8999999999,bronze,800,I,m,,,584,,,9,1,2777.899999999907,174413.0,7049,bronze,NF,C,,,,,,,,,,10
11,prac,1,inc,1,z,Mon Feb 17 2025 16:38:29 GMT-0600 (Central Standard Time),180239.7999999998,lead,1100,I,z,,,633,,,8,1,3044.0,177195.7999999998,7049,plum,NF,C,,,,,,,,,,11
12,prac,1,con,1,z,Mon Feb 17 2025 16:38:29 GMT-0600 (Central Standard Time),183022.1000000001,lime,800,I,z,,,668,,,5,1,2776.7000000001863,180245.3999999999,7049,lime,NF,C,,,,,,,,,,12
13,prac,1,inc,1,z,Mon Feb 17 2025 16:38:29 GMT-0600 (Central Standard Time),185854.6000000001,copper,900,I,z,,,619,,,2,1,2828.100000000093,183026.5,7049,cherry,NF,C,,,,,,,,,,13
14,prac,1,inc,1,m,Mon Feb 17 2025 16:38:29 GMT-0600 (Central Standard Time),188853.7000000002,raisin,1100,I,m,,,585,,,12,1,2994.7000000001863,185859.0,7049,cobalt,NF,C,,,,,,,,,,14
15,prac,1,con,1,z,Mon Feb 17 2025 16:38:29 GMT-0600 (Central Standard Time),191552.7999999998,banana,800,I,z,,,590,,,1,1,2694.7999999998137,188858.0,7049,banana,NF,C,,,,,,,,,,15
16,prac,1,inc,1,m,Mon Feb 17 2025 16:38:29 GMT-0600 (Central Standard Time),194601.7000000002,plum,1100,I,m,,,640,,,16,1,3044.5,191557.2000000002,7049,lead,NF,C,,,,,,,,,,16
1,test,1,con,1,m,Mon Feb 17 2025 16:38:29 GMT-0600 (Central Standard Time),212079.7999999998,bronze,1000,I,m,m,None,536,336.0,200.0,67,1,2079.399999999907,210000.3999999999,7049,bronze,NF,C,205198,205198,203468,204482,203469,205548,204998,204998,205548,1
2,test,1,inc,1,m,Mon Feb 17 2025 16:38:29 GMT-0600 (Central Standard Time),214162.2999999998,cherry,900,I,m,m,None,641,441.0,200.0,86,1,2077.6999999997206,212084.6000000001,7049,silver,NF,C,207181,207181,205553,206465,205553,207630,206981,206981,207630,2
3,test,1,inc,1,m,Mon Feb 17 2025 16:38:29 GMT-0600 (Central Standard Time),216245.2000000002,kiwi,1000,I,m,m,None,537,337.0,200.0,111,1,2078.4000000003725,214166.7999999998,7049,iron,NF,C,209365,209365,207635,208647,207635,209713,209164,209164,209713,3
4,test,1,con,1,z,Mon Feb 17 2025 16:38:29 GMT-0600 (Central Standard Time),218077.6000000001,raisin,800,I,z,z,None,496,296.0,200.0,25,1,1828.5,216249.1000000001,7049,raisin,NF,C,211246,211246,209717,210530,209718,211546,211046,211046,211546,4
5,test,1,inc,1,z,Mon Feb 17 2025 16:38:29 GMT-0600 (Central Standard Time),220010.6000000001,iron,900,I,z,z,None,490,291.0,199.0,62,1,1928.6000000000931,218082.0,7049,plum,NF,C,213179,213179,211550,212463,211550,213479,212979,212979,213479,5
6,test,1,con,1,z,Mon Feb 17 2025 16:38:29 GMT-0600 (Central Standard Time),222290.1000000001,cherry,1100,I,z,z,None,645,446.0,199.0,12,1,2275.600000000093,220014.5,7049,cherry,NF,C,215312,215312,213483,214595,213483,215758,215112,215112,215758,6
7,test,1,inc,1,z,Mon Feb 17 2025 16:38:29 GMT-0600 (Central Standard Time),224459.0,zinc,1000,I,z,z,None,623,424.0,199.0,39,1,2164.7000000001863,222294.2999999998,7049,lime,NF,C,217494,217494,215762,216778,215763,217927,217294,217295,217927,7
8,test,1,con,1,m,Mon Feb 17 2025 16:38:29 GMT-0600 (Central Standard Time),226708.3999999999,silver,1100,I,m,m,None,614,414.0,200.0,84,1,2245.600000000093,224462.7999999998,7049,silver,NF,C,219760,219760,217931,219044,217931,220177,219560,219560,220176,8
9,test,1,inc,1,m,Mon Feb 17 2025 16:38:29 GMT-0600 (Central Standard Time),228974.2000000002,cherry,900,I,m,m,None,844,645.0,199.0,94,1,2261.7000000001863,226712.5,7049,cobalt,NF,C,221793,221793,220180,221093,220181,222442,221594,221594,222442,9
10,test,1,con,1,m,Mon Feb 17 2025 16:38:29 GMT-0600 (Central Standard Time),231190.3999999999,iron,900,I,m,m,None,778,579.0,199.0,106,1,2212.100000000093,228978.2999999998,7049,iron,NF,C,224075,224075,222446,223359,222447,224658,223876,223876,224658,10
11,test,1,inc,1,m,Mon Feb 17 2025 16:38:29 GMT-0600 (Central Standard Time),233239.8999999999,pear,900,I,m,m,None,601,402.0,199.0,126,1,2045.1999999997206,231194.7000000002,7049,lead,NF,C,226292,226292,224663,225575,224663,226708,226092,226092,226708,11
12,test,1,inc,1,z,Mon Feb 17 2025 16:38:29 GMT-0600 (Central Standard Time),235238.8999999999,copper,900,I,z,z,None,561,361.0,200.0,30,1,1994.2999999998137,233244.6000000001,7049,raisin,NF,C,228341,228341,226713,227624,226713,228707,228141,228141,228707,12
13,test,1,inc,1,m,Mon Feb 17 2025 16:38:29 GMT-0600 (Central Standard Time),237521.7999999998,raisin,1100,I,m,m,None,634,434.0,200.0,96,1,2279.0999999996275,235242.7000000002,7049,cobalt,NF,C,230540,230540,228711,229824,228711,230990,230340,230340,230990,13
14,test,1,inc,1,z,Mon Feb 17 2025 16:38:29 GMT-0600 (Central Standard Time),239721.2000000002,gold,800,I,z,z,None,851,651.0,200.0,37,1,2195.2000000001863,237526.0,7049,lime,NF,C,232523,232523,230994,231807,230994,233189,232323,232323,233189,14
15,test,1,inc,1,z,Mon Feb 17 2025 16:38:29 GMT-0600 (Central Standard Time),241770.3999999999,copper,900,I,z,z,None,600,400.0,200.0,14,1,2045.3999999999069,239725.0,7049,cherry,NF,C,234822,234822,233193,234106,233193,235238,234622,234622,235238,15
16,test,1,inc,1,m,Mon Feb 17 2025 16:38:29 GMT-0600 (Central Standard Time),244103.0,raisin,1100,I,m,m,None,686,487.0,199.0,72,1,2328.600000000093,241774.3999999999,7049,bronze,NF,C,237071,237071,235242,236355,235243,237571,236872,236872,237571,16
17,test,1,con,1,z,Mon Feb 17 2025 16:38:29 GMT-0600 (Central Standard Time),246552.3999999999,raisin,1100,I,z,z,None,705,502.0,203.0,28,1,2444.2999999998137,244108.1000000001,7049,raisin,NF,C,239504,239504,237576,238688,237577,240020,239300,239300,240020,17
18,test,1,inc,1,m,Mon Feb 17 2025 16:38:29 GMT-0600 (Central Standard Time),248834.5,raisin,1100,I,m,m,None,649,449.0,200.0,88,1,2278.2000000001863,246556.2999999998,7049,silver,NF,C,241853,241853,240024,241137,240025,242303,241653,241653,242303,18
19,test,1,inc,1,z,Mon Feb 17 2025 16:38:29 GMT-0600 (Central Standard Time),251084.2000000002,zinc,1000,I,z,z,None,706,506.0,200.0,47,1,2245.3000000002794,248838.8999999999,7049,pear,NF,C,244036,244036,242307,243320,242307,244552,243836,243836,244552,19
20,test,1,inc,1,z,Mon Feb 17 2025 16:38:29 GMT-0600 (Central Standard Time),253166.8999999999,gold,800,I,z,z,None,736,537.0,199.0,45,1,2078.5,251088.3999999999,7049,pear,NF,C,246085,246085,244556,245369,244557,246635,245886,245886,246635,20
21,test,1,inc,1,m,Mon Feb 17 2025 16:38:29 GMT-0600 (Central Standard Time),255366.1000000001,kiwi,1000,I,m,m,None,654,454.0,200.0,127,1,2195.100000000093,253171.0,7049,lead,NF,C,248368,248368,246639,247652,246640,248834,248168,248168,248834,21
22,test,1,con,1,m,Mon Feb 17 2025 16:38:29 GMT-0600 (Central Standard Time),257565.3999999999,cobalt,800,I,m,m,None,863,663.0,200.0,89,1,2193.6999999997206,255371.7000000002,7049,cobalt,NF,C,250367,250367,248840,249651,248840,251033,250167,250167,251033,22
23,test,1,con,1,z,Mon Feb 17 2025 16:38:29 GMT-0600 (Central Standard Time),259931.2000000002,pear,1100,I,z,z,None,723,524.0,199.0,44,1,2361.7000000001863,257569.5,7049,pear,NF,C,252866,252866,251038,252150,251038,253399,252667,252667,253399,23
24,test,1,con,1,m,Mon Feb 17 2025 16:38:29 GMT-0600 (Central Standard Time),262263.8999999999,cobalt,1000,I,m,m,None,785,586.0,199.0,91,1,2328.5,259935.3999999999,7049,cobalt,NF,C,255132,255132,253403,254416,253404,255732,254933,254933,255732,24
25,test,1,con,1,m,Mon Feb 17 2025 16:38:29 GMT-0600 (Central Standard Time),264513.6000000001,cobalt,1100,I,m,m,None,601,401.0,200.0,92,1,2245.899999999907,262267.7000000002,7049,cobalt,NF,C,257565,257565,255736,256849,255736,257982,257365,257365,257982,25
26,test,1,con,1,m,Mon Feb 17 2025 16:38:29 GMT-0600 (Central Standard Time),266678.8999999999,copper,800,I,m,m,None,819,620.0,199.0,73,1,2161.5,264517.3999999999,7049,copper,NF,C,259514,259514,257985,258798,257986,260147,259315,259315,260147,26
27,test,1,inc,1,m,Mon Feb 17 2025 16:38:29 GMT-0600 (Central Standard Time),268978.5,orange,1000,I,m,m,None,764,565.0,199.0,79,1,2294.7000000001863,266683.7999999998,7049,copper,NF,C,261881,261881,260152,261164,260152,262447,261681,261681,262447,27
28,test,1,con,1,z,Mon Feb 17 2025 16:38:29 GMT-0600 (Central Standard Time),271177.6000000001,pear,900,I,z,z,None,749,550.0,199.0,42,1,2195.3000000002794,268982.2999999998,7049,pear,NF,C,264079,264080,262450,263363,262451,264646,263880,263880,264646,28
29,test,1,con,1,z,Mon Feb 17 2025 16:38:29 GMT-0600 (Central Standard Time),272927.3999999999,kiwi,800,I,z,z,None,403,203.0,200.0,49,1,1746.1000000000931,271181.2999999998,7049,kiwi,NF,C,266179,266179,264649,265462,264650,266395,265979,265979,266395,29
30,test,1,inc,1,z,Mon Feb 17 2025 16:38:29 GMT-0600 (Central Standard Time),275010.0,iron,900,I,z,z,None,632,433.0,199.0,54,1,2078.7000000001863,272931.2999999998,7049,kiwi,NF,C,268028,268029,266399,267312,266400,268478,267829,267829,268478,30
31,test,1,con,1,m,Mon Feb 17 2025 16:38:29 GMT-0600 (Central Standard Time),277042.7000000002,gold,900,I,m,m,None,591,391.0,200.0,98,1,2028.7000000001863,275014.0,7049,gold,NF,C,270111,270111,268482,269395,268482,270511,269911,269911,270511,31
32,test,1,con,1,z,Mon Feb 17 2025 16:38:29 GMT-0600 (Central Standard Time),278858.6000000001,banana,900,I,z,z,None,381,182.0,199.0,2,1,1811.8999999999069,277046.7000000002,7049,banana,NF,C,272144,272144,270515,271427,270515,272327,271944,271944,272327,32
33,test,1,con,1,m,Mon Feb 17 2025 16:38:29 GMT-0600 (Central Standard Time),280891.3999999999,iron,800,I,m,m,None,690,490.0,200.0,105,1,2029.0,278862.3999999999,7049,iron,NF,C,273860,273860,272330,273143,272331,274359,273660,273660,274359,33
34,test,1,con,1,m,Mon Feb 17 2025 16:38:29 GMT-0600 (Central Standard Time),283157.3999999999,copper,1100,I,m,m,None,620,421.0,199.0,76,1,2262.2999999998137,280895.1000000001,7049,copper,NF,C,276192,276193,274363,275476,274363,276625,275993,275993,276625,34
35,test,1,con,1,z,Mon Feb 17 2025 16:38:29 GMT-0600 (Central Standard Time),285090.2000000002,pear,800,I,z,z,None,598,399.0,199.0,41,1,1929.0,283161.2000000002,7049,pear,NF,C,278159,278159,276629,277442,276630,278558,277959,277959,278558,35
36,test,1,con,1,z,Mon Feb 17 2025 16:38:29 GMT-0600 (Central Standard Time),287606.1000000001,banana,1100,I,z,z,None,870,671.0,199.0,4,1,2512.3000000002794,285093.7999999998,7049,banana,NF,C,280391,280391,278562,279675,278562,281074,280192,280192,281074,36
37,test,1,con,1,m,Mon Feb 17 2025 16:38:29 GMT-0600 (Central Standard Time),289522.1000000001,lead,800,I,m,m,None,583,383.0,200.0,121,1,1912.0,287610.1000000001,7049,lead,NF,C,282607,282607,281078,281891,281078,282990,282407,282407,282990,37
38,test,1,con,1,m,Mon Feb 17 2025 16:38:29 GMT-0600 (Central Standard Time),291871.2999999998,zinc,1000,I,m,m,None,803,603.0,200.0,115,1,2345.5999999996275,289525.7000000002,7049,zinc,NF,C,284723,284723,282994,284007,282994,285339,284523,284523,285339,38
39,test,1,con,1,m,Mon Feb 17 2025 16:38:29 GMT-0600 (Central Standard Time),294020.7000000002,gold,1000,I,m,m,None,597,397.0,200.0,99,1,2145.2000000001863,291875.5,7049,gold,NF,C,287089,287089,285344,286386,285344,287489,286889,286889,287489,39
40,test,1,inc,1,m,Mon Feb 17 2025 16:38:29 GMT-0600 (Central Standard Time),296020.1000000001,lime,800,I,m,m,None,663,464.0,199.0,109,1,1995.3999999999069,294024.7000000002,7049,iron,NF,C,289022,289022,287493,288305,287493,289488,288822,288822,289488,40
41,test,1,con,1,m,Mon Feb 17 2025 16:38:29 GMT-0600 (Central Standard Time),298086.5,silver,800,I,m,m,None,720,521.0,199.0,81,1,2062.7000000001863,296023.7999999998,7049,silver,NF,C,291021,291021,289492,290305,289492,291555,290822,290822,291555,41
42,test,1,con,1,z,Mon Feb 17 2025 16:38:29 GMT-0600 (Central Standard Time),300152.1000000001,orange,1000,I,z,z,None,526,327.0,199.0,19,1,2061.5,298090.6000000001,7049,orange,NF,C,293287,293287,291559,292571,291559,293620,293088,293088,293620,42
43,test,1,inc,1,z,Mon Feb 17 2025 16:38:29 GMT-0600 (Central Standard Time),302285.0,iron,900,I,z,z,None,697,497.0,200.0,46,1,2129.0,300156.0,7049,pear,NF,C,295253,295253,293624,294537,293624,295753,295053,295053,295753,43
44,test,1,inc,1,m,Mon Feb 17 2025 16:38:29 GMT-0600 (Central Standard Time),304500.7999999998,orange,1000,I,m,m,None,679,480.0,199.0,95,1,2212.0,302288.7999999998,7049,cobalt,NF,C,297486,297486,295757,296769,295757,297969,297286,297286,297969,44
45,test,1,inc,1,m,Mon Feb 17 2025 16:38:29 GMT-0600 (Central Standard Time),306733.2999999998,orange,1000,I,m,m,None,696,496.0,200.0,71,1,2228.5999999996275,304504.7000000002,7049,bronze,NF,C,299702,299702,297973,298985,297973,300201,299502,299502,300201,45
46,test,1,inc,1,z,Mon Feb 17 2025 16:38:29 GMT-0600 (Central Standard Time),308899.2999999998,silver,1000,I,z,z,None,622,423.0,199.0,15,1,2162.1999999997206,306737.1000000001,7049,cherry,NF,C,301935,301935,300205,301218,300206,302367,301735,301735,302367,46
47,test,1,inc,1,m,Mon Feb 17 2025 16:38:29 GMT-0600 (Central Standard Time),311448.2999999998,orange,1000,I,m,m,None,1001,802.0,199.0,87,1,2544.5999999996275,308903.7000000002,7049,silver,NF,C,304100,304100,302372,303384,302372,304916,303900,303901,304916,47
48,test,1,con,1,m,Mon Feb 17 2025 16:38:29 GMT-0600 (Central Standard Time),313431.1000000001,cobalt,900,I,m,m,None,544,345.0,199.0,90,1,1979.0,311452.1000000001,7049,cobalt,NF,C,306549,306549,304920,305833,304920,306899,306350,306350,306899,48
49,test,1,inc,1,m,Mon Feb 17 2025 16:38:29 GMT-0600 (Central Standard Time),315330.5,banana,800,I,m,m,None,565,366.0,199.0,93,1,1895.6000000000931,313434.8999999999,7049,cobalt,NF,C,308432,308432,306903,307716,306903,308799,308233,308233,308799,49
50,test,1,inc,1,z,Mon Feb 17 2025 16:38:29 GMT-0600 (Central Standard Time),317330.0,gold,800,I,z,z,None,657,458.0,199.0,53,1,1995.7999999998137,315334.2000000002,7049,kiwi,NF,C,310332,310332,308802,309615,308803,310798,310132,310132,310798,50
51,test,1,inc,1,z,Mon Feb 17 2025 16:38:29 GMT-0600 (Central Standard Time),319495.8999999999,silver,1000,I,z,z,None,619,419.0,200.0,31,1,2162.100000000093,317333.7999999998,7049,raisin,NF,C,312531,312531,310802,311815,310802,312964,312331,312331,312964,51
52,test,1,con,1,z,Mon Feb 17 2025 16:38:29 GMT-0600 (Central Standard Time),321362.1000000001,raisin,900,I,z,z,None,425,225.0,200.0,26,1,1862.1000000000931,319500.0,7049,raisin,NF,C,314597,314597,312968,313881,312968,314830,314397,314397,314830,52
53,test,1,inc,1,z,Mon Feb 17 2025 16:38:29 GMT-0600 (Central Standard Time),323511.2999999998,zinc,1000,I,z,z,None,603,403.0,200.0,63,1,2145.1999999997206,321366.1000000001,7049,plum,NF,C,316563,316563,314834,315847,314834,316979,316363,316363,316979,53
54,test,1,con,1,m,Mon Feb 17 2025 16:38:29 GMT-0600 (Central Standard Time),325560.8999999999,zinc,900,I,m,m,None,600,401.0,199.0,114,1,2045.2999999998137,323515.6000000001,7049,zinc,NF,C,318613,318613,316984,317896,316984,319029,318413,318413,319029,54
55,test,1,inc,1,m,Mon Feb 17 2025 16:38:29 GMT-0600 (Central Standard Time),327526.8999999999,cherry,900,I,m,m,None,528,328.0,200.0,78,1,1962.1999999997206,325564.7000000002,7049,copper,NF,C,320662,320662,319033,319946,319033,320995,320462,320462,320995,55
56,test,1,con,1,m,Mon Feb 17 2025 16:38:29 GMT-0600 (Central Standard Time),329476.2000000002,bronze,900,I,m,m,None,506,306.0,200.0,66,1,1945.4000000003725,327530.7999999998,7049,bronze,NF,C,322628,322628,320999,321911,320999,322944,322428,322428,322944,56
57,test,1,inc,1,m,Mon Feb 17 2025 16:38:29 GMT-0600 (Central Standard Time),331575.7000000002,pear,900,I,m,m,None,652,453.0,199.0,102,1,2095.8000000002794,329479.8999999999,7049,gold,NF,C,324577,324577,322948,323861,322948,325044,324378,324378,325044,57
58,test,1,inc,1,z,Mon Feb 17 2025 16:38:29 GMT-0600 (Central Standard Time),333741.6000000001,iron,900,I,z,z,None,720,521.0,199.0,38,1,2162.2000000001863,331579.3999999999,7049,lime,NF,C,326677,326677,325047,325960,325048,327210,326477,326477,327210,58
59,test,1,con,1,z,Mon Feb 17 2025 16:38:29 GMT-0600 (Central Standard Time),335674.2999999998,lime,900,I,z,z,None,482,283.0,199.0,34,1,1929.0,333745.2999999998,7049,lime,NF,C,328843,328843,327213,328126,327214,329142,328643,328643,329142,59
60,test,1,con,1,z,Mon Feb 17 2025 16:38:29 GMT-0600 (Central Standard Time),337790.2000000002,pear,1000,I,z,z,None,569,370.0,199.0,43,1,2112.0,335678.2000000002,7049,pear,NF,C,330876,330876,329146,330159,329147,331258,330676,330676,331258,60
61,test,1,con,1,m,Mon Feb 17 2025 16:38:29 GMT-0600 (Central Standard Time),340166.5,gold,1100,I,m,m,None,596,397.0,199.0,100,1,2372.399999999907,337794.1000000001,7049,gold,NF,C,333091,333091,331262,332375,331262,333635,332892,332892,333634,61
62,test,1,con,1,z,Mon Feb 17 2025 16:38:29 GMT-0600 (Central Standard Time),342422.2000000002,orange,900,I,z,z,None,821,621.0,200.0,18,1,2251.8000000002794,340170.3999999999,7049,orange,NF,C,335257,335257,333638,334541,333639,335890,335057,335057,335890,62
63,test,1,inc,1,z,Mon Feb 17 2025 16:38:29 GMT-0600 (Central Standard Time),344504.7000000002,silver,1000,I,z,z,None,534,334.0,200.0,7,1,2078.4000000003725,342426.2999999998,7049,banana,NF,C,337624,337624,335894,336907,335895,337973,337423,337423,337973,63
64,test,1,inc,1,m,Mon Feb 17 2025 16:38:29 GMT-0600 (Central Standard Time),346670.8999999999,kiwi,1000,I,m,m,None,620,420.0,200.0,119,1,2162.5,344508.3999999999,7049,zinc,NF,C,339706,339706,337976,338990,337977,340139,339506,339506,340139,64
65,test,1,inc,1,z,Mon Feb 17 2025 16:38:29 GMT-0600 (Central Standard Time),348770.1000000001,bronze,800,I,z,z,None,766,566.0,200.0,13,1,2095.2000000001863,346674.8999999999,7049,cherry,NF,C,341672,341672,340143,340956,340143,342238,341472,341472,342238,65
66,test,1,inc,1,m,Mon Feb 17 2025 16:38:29 GMT-0600 (Central Standard Time),351036.5,raisin,1100,I,m,m,None,623,423.0,200.0,80,1,2262.7000000001863,348773.7999999998,7049,copper,NF,C,344071,344071,342242,343355,342242,344505,343871,343871,344505,66
67,test,1,con,1,z,Mon Feb 17 2025 16:38:29 GMT-0600 (Central Standard Time),353568.7000000002,kiwi,1100,I,z,z,None,892,693.0,199.0,52,1,2528.2000000001863,351040.5,7049,kiwi,NF,C,346337,346337,344509,345621,344509,347037,346138,346138,347037,67
68,test,1,inc,1,m,Mon Feb 17 2025 16:38:29 GMT-0600 (Central Standard Time),355485.0,banana,800,I,m,m,None,580,380.0,200.0,77,1,1912.2999999998137,353572.7000000002,7049,copper,NF,C,348570,348570,347041,347854,347041,348953,348370,348370,348953,68
69,test,1,con,1,m,Mon Feb 17 2025 16:38:29 GMT-0600 (Central Standard Time),357634.0,iron,1100,I,m,m,None,500,300.0,200.0,108,1,2145.100000000093,355488.8999999999,7049,iron,NF,C,350786,350786,348957,350070,348957,351102,350586,350586,351102,69
70,test,1,inc,1,m,Mon Feb 17 2025 16:38:29 GMT-0600 (Central Standard Time),359883.5,plum,1100,I,m,m,None,607,407.0,200.0,128,1,2245.399999999907,357638.1000000001,7049,lead,NF,C,352935,352935,351106,352219,351106,353352,352735,352735,353352,70
71,test,1,con,1,z,Mon Feb 17 2025 16:38:29 GMT-0600 (Central Standard Time),362165.8999999999,raisin,1000,I,z,z,None,736,537.0,199.0,27,1,2278.5,359887.3999999999,7049,raisin,NF,C,355085,355085,353355,354368,353356,355634,354885,354885,355634,71
72,test,1,con,1,m,Mon Feb 17 2025 16:38:29 GMT-0600 (Central Standard Time),364348.7000000002,silver,1000,I,m,m,None,619,413.0,206.0,83,1,2179.100000000093,362169.6000000001,7049,silver,NF,C,357401,357401,355638,356652,355638,357817,357195,357195,357817,72
73,test,1,inc,1,m,Mon Feb 17 2025 16:38:29 GMT-0600 (Central Standard Time),366281.3999999999,lime,800,I,m,m,None,591,392.0,199.0,125,1,1928.8999999999069,364352.5,7049,lead,NF,C,359350,359350,357821,358634,357821,359750,359150,359150,359749,73
74,test,1,inc,1,z,Mon Feb 17 2025 16:38:29 GMT-0600 (Central Standard Time),368230.7000000002,bronze,800,I,z,z,None,602,403.0,199.0,21,1,1945.6000000000931,366285.1000000001,7049,orange,NF,C,361283,361283,359753,360566,359754,361699,361083,361083,361699,74
75,test,1,inc,1,m,Mon Feb 17 2025 16:38:29 GMT-0600 (Central Standard Time),370196.7999999998,lime,800,I,m,m,None,622,422.0,200.0,117,1,1962.2999999998137,368234.5,7049,zinc,NF,C,363232,363232,361703,362515,361703,363665,363032,363032,363665,75
76,test,1,inc,1,z,Mon Feb 17 2025 16:38:29 GMT-0600 (Central Standard Time),372329.5,copper,900,I,z,z,None,684,484.0,200.0,6,1,2129.2000000001863,370200.2999999998,7049,banana,NF,C,365298,365298,363668,364582,363669,365798,365098,365098,365798,76
77,test,1,inc,1,z,Mon Feb 17 2025 16:38:29 GMT-0600 (Central Standard Time),374495.6000000001,lead,1100,I,z,z,None,526,327.0,199.0,64,1,2162.0,372333.6000000001,7049,plum,NF,C,367631,367631,365802,366914,365802,367964,367431,367431,367964,77
78,test,1,inc,1,z,Mon Feb 17 2025 16:38:29 GMT-0600 (Central Standard Time),376761.3999999999,lead,1100,I,z,z,None,625,426.0,199.0,56,1,2261.6999999997206,374499.7000000002,7049,kiwi,NF,C,369796,369796,367968,369080,367968,370230,369597,369597,370229,78
79,test,1,con,1,m,Mon Feb 17 2025 16:38:29 GMT-0600 (Central Standard Time),378694.1000000001,gold,800,I,m,m,None,586,387.0,199.0,97,1,1928.8999999999069,376765.2000000002,7049,gold,NF,C,371763,371763,370233,371046,370234,372162,371563,371563,372162,79
80,test,1,inc,1,z,Mon Feb 17 2025 16:38:29 GMT-0600 (Central Standard Time),381110.2000000002,cobalt,1100,I,z,z,None,771,571.0,200.0,24,1,2412.4000000003725,378697.7999999998,7049,orange,NF,C,373995,373995,372166,373279,372166,374578,373795,373795,374578,80
81,test,1,con,1,z,Mon Feb 17 2025 16:38:29 GMT-0600 (Central Standard Time),383192.7999999998,banana,1000,I,z,z,None,543,343.0,200.0,3,1,2078.2999999998137,381114.5,7049,banana,NF,C,376311,376311,374583,375595,374583,376661,376111,376111,376661,81
82,test,1,inc,1,m,Mon Feb 17 2025 16:38:29 GMT-0600 (Central Standard Time),385092.2000000002,banana,800,I,m,m,None,564,364.0,200.0,69,1,1895.7000000001863,383196.5,7049,bronze,NF,C,378194,378194,376664,377478,376665,378560,377994,377994,378560,82
83,test,1,inc,1,z,Mon Feb 17 2025 16:38:29 GMT-0600 (Central Standard Time),387391.1000000001,cobalt,1100,I,z,z,None,655,455.0,200.0,8,1,2294.8000000002794,385096.2999999998,7049,banana,NF,C,380393,380393,378564,379677,378565,380859,380193,380193,380859,83
84,test,1,con,1,z,Mon Feb 17 2025 16:38:29 GMT-0600 (Central Standard Time),389407.3999999999,plum,1000,I,z,z,None,477,278.0,199.0,59,1,2012.6000000000931,387394.7999999998,7049,plum,NF,C,382592,382592,380863,381876,380863,382876,382393,382393,382875,84
85,test,1,inc,1,m,Mon Feb 17 2025 16:38:29 GMT-0600 (Central Standard Time),391473.5,pear,900,I,m,m,None,616,417.0,199.0,118,1,2062.100000000093,389411.3999999999,7049,zinc,NF,C,384509,384509,382879,383792,382880,384942,384309,384309,384941,85
86,test,1,con,1,m,Mon Feb 17 2025 16:38:29 GMT-0600 (Central Standard Time),393639.3999999999,bronze,800,I,m,m,None,819,620.0,199.0,65,1,2162.399999999907,391477.0,7049,bronze,NF,C,386474,386474,384945,385758,384945,387108,386275,386275,387107,86
87,test,1,con,1,z,Mon Feb 17 2025 16:38:29 GMT-0600 (Central Standard Time),395555.7000000002,lime,1000,I,z,z,None,380,181.0,199.0,35,1,1912.3000000002794,393643.3999999999,7049,lime,NF,C,388841,388841,387111,388124,387112,389024,388641,388641,389024,87
88,test,1,con,1,m,Mon Feb 17 2025 16:38:29 GMT-0600 (Central Standard Time),397654.8999999999,zinc,1100,I,m,m,None,461,262.0,199.0,116,1,2095.5,395559.3999999999,7049,zinc,NF,C,390856,390856,389027,390140,389028,391123,390657,390657,391123,88
89,test,1,inc,1,m,Mon Feb 17 2025 16:38:29 GMT-0600 (Central Standard Time),399804.2999999998,plum,1100,I,m,m,None,506,306.0,200.0,120,1,2145.6999999997206,397658.6000000001,7049,zinc,NF,C,392956,392956,391127,392240,391127,393272,392756,392756,393272,89
90,test,1,inc,1,z,Mon Feb 17 2025 16:38:29 GMT-0600 (Central Standard Time),401920.2999999998,silver,1000,I,z,z,None,577,377.0,200.0,23,1,2112.399999999907,399807.8999999999,7049,orange,NF,C,395005,395005,393276,394289,393276,395388,394805,394805,395388,90
91,test,1,inc,1,z,Mon Feb 17 2025 16:38:29 GMT-0600 (Central Standard Time),403836.2999999998,bronze,800,I,z,z,None,573,373.0,200.0,5,1,1912.3999999999069,401923.8999999999,7049,banana,NF,C,396921,396921,395392,396205,395392,397304,396721,396721,397304,91
92,test,1,con,1,z,Mon Feb 17 2025 16:38:29 GMT-0600 (Central Standard Time),406118.8999999999,orange,1100,I,z,z,None,637,437.0,200.0,20,1,2278.5,403840.3999999999,7049,orange,NF,C,399137,399137,397308,398421,397309,399587,398937,398937,399587,92
93,test,1,inc,1,m,Mon Feb 17 2025 16:38:29 GMT-0600 (Central Standard Time),408218.3999999999,kiwi,1000,I,m,m,None,550,350.0,200.0,103,1,2095.5,406122.8999999999,7049,gold,NF,C,401320,401320,399591,400604,399591,401686,401120,401120,401686,93
94,test,1,con,1,m,Mon Feb 17 2025 16:38:29 GMT-0600 (Central Standard Time),410434.2000000002,copper,1000,I,m,m,None,667,467.0,200.0,75,1,2212.100000000093,408222.1000000001,7049,copper,NF,C,403419,403419,401690,402703,401690,403902,403219,403219,403902,94
95,test,1,con,1,z,Mon Feb 17 2025 16:38:29 GMT-0600 (Central Standard Time),412350.2000000002,cherry,800,I,z,z,None,571,371.0,200.0,9,1,1912.2000000001863,410438.0,7049,cherry,NF,C,405435,405435,403906,404719,403906,405818,405235,405235,405818,95
96,test,1,con,1,m,Mon Feb 17 2025 16:38:29 GMT-0600 (Central Standard Time),414482.8999999999,iron,1000,I,m,m,None,591,391.0,200.0,107,1,2129.0,412353.8999999999,7049,iron,NF,C,407551,407551,405822,406835,405822,407951,407351,407351,407951,96
97,test,1,con,1,m,Mon Feb 17 2025 16:38:29 GMT-0600 (Central Standard Time),416532.2000000002,silver,900,I,m,m,None,614,414.0,200.0,82,1,2045.4000000003725,414486.7999999998,7049,silver,NF,C,409584,409584,407955,408867,407955,410000,409384,409384,410000,97
98,test,1,con,1,z,Mon Feb 17 2025 16:38:29 GMT-0600 (Central Standard Time),418431.6000000001,orange,800,I,z,z,None,551,352.0,199.0,17,1,1895.6000000000931,416536.0,7049,orange,NF,C,411534,411534,410004,410817,410004,411900,411334,411334,411900,98
99,test,1,con,1,m,Mon Feb 17 2025 16:38:29 GMT-0600 (Central Standard Time),420680.8999999999,lead,1000,I,m,m,None,701,501.0,200.0,123,1,2245.2999999998137,418435.6000000001,7049,lead,NF,C,413633,413633,411904,412916,411904,414149,413433,413433,414149,99
100,test,1,inc,1,z,Mon Feb 17 2025 16:38:29 GMT-0600 (Central Standard Time),422597.1000000001,bronze,800,I,z,z,None,572,372.0,200.0,29,1,1912.3000000002794,420684.7999999998,7049,raisin,NF,C,415682,415682,414153,414966,414153,416065,415482,415482,416065,100
101,test,1,con,1,m,Mon Feb 17 2025 16:38:29 GMT-0600 (Central Standard Time),424696.5,copper,900,I,m,m,None,660,460.0,200.0,74,1,2095.600000000093,422600.8999999999,7049,copper,NF,C,417698,417698,416069,416982,416069,418165,417498,417498,418164,101
102,test,1,con,1,m,Mon Feb 17 2025 16:38:29 GMT-0600 (Central Standard Time),426729.3999999999,lead,900,I,m,m,None,583,368.0,215.0,122,1,2029.1999999997206,424700.2000000002,7049,lead,NF,C,419814,419814,418168,419081,418169,420197,419599,419599,420197,102
103,test,1,inc,1,z,Mon Feb 17 2025 16:38:29 GMT-0600 (Central Standard Time),429044.8999999999,lead,1100,I,z,z,None,672,472.0,200.0,48,1,2311.600000000093,426733.2999999998,7049,pear,NF,C,422030,422030,420201,421314,420202,422513,421830,421830,422513,103
104,test,1,con,1,z,Mon Feb 17 2025 16:38:29 GMT-0600 (Central Standard Time),430861.2000000002,lime,800,I,z,z,None,471,272.0,199.0,33,1,1812.5,429048.7000000002,7049,lime,NF,C,424046,424046,422517,423330,422517,424329,423847,423847,424329,104
105,test,1,con,1,z,Mon Feb 17 2025 16:38:29 GMT-0600 (Central Standard Time),433410.6000000001,plum,1100,I,z,z,None,908,708.0,200.0,60,1,2545.8000000002794,430864.7999999998,7049,plum,NF,C,426162,426162,424333,425446,424333,426879,425962,425962,426879,105
106,test,1,con,1,z,Mon Feb 17 2025 16:38:29 GMT-0600 (Central Standard Time),435359.7000000002,plum,900,I,z,z,None,476,277.0,199.0,58,1,1945.4000000003725,433414.2999999998,7049,plum,NF,C,428545,428545,426882,427837,426883,428828,428345,428345,428828,106
107,test,1,inc,1,m,Mon Feb 17 2025 16:38:29 GMT-0600 (Central Standard Time),437359.0,cherry,900,I,m,m,None,553,353.0,200.0,70,1,1995.1000000000931,435363.8999999999,7049,bronze,NF,C,430461,430461,428832,429744,428832,430827,430261,430261,430827,107
108,test,1,con,1,z,Mon Feb 17 2025 16:38:29 GMT-0600 (Central Standard Time),439541.7999999998,cherry,1000,I,z,z,None,638,438.0,200.0,11,1,2178.899999999907,437362.8999999999,7049,cherry,NF,C,432560,432560,430831,431844,430831,433010,432360,432360,433010,108
109,test,1,inc,1,z,Mon Feb 17 2025 16:38:29 GMT-0600 (Central Standard Time),441674.3999999999,gold,800,I,z,z,None,783,583.0,200.0,61,1,2128.7999999998137,439545.6000000001,7049,plum,NF,C,434543,434543,433014,433827,433014,435143,434343,434343,435142,109
110,test,1,inc,1,z,Mon Feb 17 2025 16:38:29 GMT-0600 (Central Standard Time),443923.7000000002,cobalt,1100,I,z,z,None,606,407.0,199.0,16,1,2245.3000000002794,441678.3999999999,7049,cherry,NF,C,436975,436975,435146,436259,435147,437392,436776,436776,437392,110
111,test,1,con,1,z,Mon Feb 17 2025 16:38:29 GMT-0600 (Central Standard Time),446023.1000000001,kiwi,1000,I,z,z,None,561,361.0,200.0,51,1,2095.600000000093,443927.5,7049,kiwi,NF,C,439125,439125,437396,438408,437396,439491,438925,438925,439491,111
112,test,1,con,1,z,Mon Feb 17 2025 16:38:29 GMT-0600 (Central Standard Time),447940.2000000002,cherry,900,I,z,z,None,482,282.0,200.0,10,1,1913.1000000000931,446027.1000000001,7049,cherry,NF,C,441124,441124,439495,440408,439495,441408,440924,440924,441408,112
113,test,1,inc,1,z,Mon Feb 17 2025 16:38:29 GMT-0600 (Central Standard Time),450188.5,cobalt,1100,I,z,z,None,606,406.0,200.0,32,1,2244.5,447944.0,7049,raisin,NF,C,443240,443240,441412,442524,441412,443657,443040,443040,443657,113
114,test,1,con,1,m,Mon Feb 17 2025 16:38:29 GMT-0600 (Central Standard Time),452021.2000000002,zinc,800,I,m,m,None,495,296.0,199.0,113,1,1829.0,450192.2000000002,7049,zinc,NF,C,445190,445190,443660,444473,443660,445489,444990,444990,445489,114
115,test,1,con,1,z,Mon Feb 17 2025 16:38:29 GMT-0600 (Central Standard Time),454270.6000000001,lime,1100,I,z,z,None,603,404.0,199.0,36,1,2245.899999999907,452024.7000000002,7049,lime,NF,C,447322,447322,445493,446606,445493,447739,447123,447123,447739,115
116,test,1,inc,1,m,Mon Feb 17 2025 16:38:29 GMT-0600 (Central Standard Time),456303.1000000001,banana,800,I,m,m,None,694,495.0,199.0,85,1,2028.7000000001863,454274.3999999999,7049,silver,NF,C,449271,449271,447742,448555,447743,449771,449072,449072,449771,116
117,test,1,inc,1,z,Mon Feb 17 2025 16:38:29 GMT-0600 (Central Standard Time),458585.6000000001,lead,1100,I,z,z,None,634,434.0,200.0,40,1,2278.600000000093,456307.0,7049,lime,NF,C,451604,451604,449775,450888,449775,452054,451404,451404,452054,117
118,test,1,inc,1,z,Mon Feb 17 2025 16:38:29 GMT-0600 (Central Standard Time),460784.8999999999,zinc,1000,I,z,z,None,658,459.0,199.0,55,1,2195.5,458589.3999999999,7049,kiwi,NF,C,453787,453787,452057,453070,452058,454253,453587,453587,454253,118
119,test,1,inc,1,m,Mon Feb 17 2025 16:38:29 GMT-0600 (Central Standard Time),462684.6000000001,lime,800,I,m,m,None,556,356.0,200.0,101,1,1895.8999999999069,460788.7000000002,7049,gold,NF,C,455786,455786,454257,455070,454257,456153,455586,455586,456153,119
120,test,1,inc,1,m,Mon Feb 17 2025 16:38:29 GMT-0600 (Central Standard Time),464950.3999999999,plum,1100,I,m,m,None,619,420.0,199.0,112,1,2261.6999999997206,462688.7000000002,7049,iron,NF,C,457986,457986,456157,457269,456157,458418,457786,457786,458418,120
121,test,1,inc,1,m,Mon Feb 17 2025 16:38:29 GMT-0600 (Central Standard Time),466883.1000000001,pear,900,I,m,m,None,497,298.0,199.0,110,1,1928.8000000002794,464954.2999999998,7049,iron,NF,C,460052,460052,458422,459335,458423,460351,459852,459852,460351,121
122,test,1,con,1,z,Mon Feb 17 2025 16:38:29 GMT-0600 (Central Standard Time),468666.2000000002,banana,800,I,z,z,None,449,250.0,199.0,1,1,1779.6000000000931,466886.6000000001,7049,banana,NF,C,461884,461884,460355,461169,460355,462134,461684,461685,462134,122
123,test,1,inc,1,z,Mon Feb 17 2025 16:38:29 GMT-0600 (Central Standard Time),470848.7999999998,copper,900,I,z,z,None,742,542.0,200.0,22,1,2179.0999999996275,468669.7000000002,7049,orange,NF,C,463768,463768,462138,463051,462138,464317,463567,463567,464317,123
124,test,1,con,1,z,Mon Feb 17 2025 16:38:29 GMT-0600 (Central Standard Time),472664.7999999998,plum,800,I,z,z,None,475,276.0,199.0,57,1,1810.2999999998137,470854.5,7049,plum,NF,C,465850,465850,464323,465133,464323,466133,465650,465650,466133,124
125,test,1,con,1,z,Mon Feb 17 2025 16:38:29 GMT-0600 (Central Standard Time),474564.1000000001,kiwi,900,I,z,z,None,456,256.0,200.0,50,1,1895.6000000000931,472668.5,7049,kiwi,NF,C,467766,467766,466137,467049,466137,468032,467566,467566,468032,125
126,test,1,con,1,m,Mon Feb 17 2025 16:38:29 GMT-0600 (Central Standard Time),476613.5,bronze,1100,I,m,m,None,413,213.0,200.0,68,1,2046.0,474567.5,7049,bronze,NF,C,469865,469865,468036,469149,468036,470082,469665,469665,470082,126
127,test,1,inc,1,m,Mon Feb 17 2025 16:38:29 GMT-0600 (Central Standard Time),478946.2999999998,plum,1100,I,m,m,None,691,492.0,199.0,104,1,2329.1999999997206,476617.1000000001,7049,gold,NF,C,471914,471914,470085,471198,470085,472414,471714,471715,472414,127
128,test,1,con,1,m,Mon Feb 17 2025 16:38:29 GMT-0600 (Central Standard Time),481290.5,lead,1100,I,m,m,None,711,511.0,200.0,124,1,2340.2000000001863,478950.2999999998,7049,lead,NF,C,474247,474247,472418,473531,472419,474759,474047,474047,474758,128
