acc_sum,block,block_c,change,condition,correct,correct_response,datetime,endtime,face,project,response,response_time,row_sel,session_number,start_end,starttime,subject_id,task,task_vers,trial
0,prac,1,,1-Back,,,Fri Apr 18 2025 14:19:12 GMT-0500 (Central Daylight Time),,093_m_f_n_a.png,O,space,9812,1,1,,,7129,NNB,C,0
1,prac,1,0.0,1-Back,1,m,Fri Apr 18 2025 14:19:12 GMT-0500 (Central Daylight Time),119221.19999998808,098_y_f_n_a.png,O,m,987,2,1,1837.2999999821186,117383.90000000596,7129,NNB,C,1
2,prac,1,1.0,1-Back,1,z,Fri Apr 18 2025 14:19:12 GMT-0500 (Central Daylight Time),121155.90000000596,098_y_f_n_a.png,O,z,1151,3,1,1926.7000000178814,119229.19999998808,7129,NNB,C,2
2,prac,1,0.0,1-Back,0,m,Fri Apr 18 2025 14:19:12 GMT-0500 (Central Daylight Time),123022.90000000596,059_o_m_n_a.png,O,z,998,4,1,1856.300000011921,121166.59999999404,7129,NNB,C,3
3,prac,1,0.0,1-Back,1,m,Fri Apr 18 2025 14:19:12 GMT-0500 (Central Daylight Time),124973.09999999404,092_m_m_n_a.png,O,m,1088,5,1,1942.699999988079,123030.40000000596,7129,NNB,C,4
4,prac,1,1.0,1-Back,1,z,Fri Apr 18 2025 14:19:12 GMT-0500 (Central Daylight Time),126706.69999998808,092_m_m_n_a.png,O,z,952,6,1,1725.0,124981.69999998808,7129,NNB,C,5
5,prac,1,0.0,1-Back,1,m,Fri Apr 18 2025 14:19:12 GMT-0500 (Central Daylight Time),128587.30000001192,130_o_f_n_a.png,O,m,986,7,1,1866.300000011921,126721.0,7129,NNB,C,6
5,prac,1,0.0,1-Back,0,m,Fri Apr 18 2025 14:19:12 GMT-0500 (Central Daylight Time),131106.0,082_m_m_n_a.png,O,z,1663,8,1,2508.300000011921,128597.69999998808,7129,NNB,C,7
6,prac,1,0.0,1-Back,1,m,Fri Apr 18 2025 14:19:12 GMT-0500 (Central Daylight Time),133835.40000000596,093_m_f_n_a.png,O,m,1947,9,1,2720.5,131114.90000000596,7129,NNB,C,8
7,prac,1,1.0,1-Back,1,z,Fri Apr 18 2025 14:19:12 GMT-0500 (Central Daylight Time),135420.80000001192,093_m_f_n_a.png,O,z,807,10,1,1575.6000000238419,133845.19999998808,7129,NNB,C,9
8,prac,1,0.0,1-Back,1,m,Fri Apr 18 2025 14:19:12 GMT-0500 (Central Daylight Time),137584.80000001192,059_o_m_n_a.png,O,m,1385,11,1,2155.800000011921,135429.0,7129,NNB,C,10
9,prac,1,0.0,1-Back,1,m,Fri Apr 18 2025 14:19:12 GMT-0500 (Central Daylight Time),139334.09999999404,028_y_f_n_a.png,O,m,876,12,1,1740.7999999821186,137593.30000001192,7129,NNB,C,11
0,test,1,0.0,1-Back,,,Fri Apr 18 2025 14:19:12 GMT-0500 (Central Daylight Time),139334.09999999404,098_y_f_n_a.png,O,space,17773,1,1,1740.7999999821186,137593.30000001192,7129,NNB,C,0
1,test,1,0.0,1-Back,1,m,Fri Apr 18 2025 14:19:12 GMT-0500 (Central Daylight Time),172775.19999998808,006_m_f_n_a.png,O,m,968,2,1,1975.0999999940395,170800.09999999404,7129,NNB,C,1
2,test,1,0.0,1-Back,1,m,Fri Apr 18 2025 14:19:12 GMT-0500 (Central Daylight Time),174655.40000000596,028_y_f_n_a.png,O,m,856,3,1,1872.5,172782.90000000596,7129,NNB,C,2
3,test,1,1.0,1-Back,1,z,Fri Apr 18 2025 14:19:12 GMT-0500 (Central Daylight Time),176389.19999998808,028_y_f_n_a.png,O,z,700,4,1,1727.3999999761581,174661.80000001192,7129,NNB,C,3
4,test,1,0.0,1-Back,1,m,Fri Apr 18 2025 14:19:12 GMT-0500 (Central Daylight Time),178154.30000001192,006_m_f_n_a.png,O,m,744,5,1,1760.2000000178814,176394.09999999404,7129,NNB,C,4
5,test,1,0.0,1-Back,1,m,Fri Apr 18 2025 14:19:12 GMT-0500 (Central Daylight Time),179887.69999998808,059_o_m_n_a.png,O,m,706,6,1,1726.699999988079,178161.0,7129,NNB,C,5
6,test,1,1.0,1-Back,1,z,Fri Apr 18 2025 14:19:12 GMT-0500 (Central Daylight Time),181753.19999998808,059_o_m_n_a.png,O,z,845,7,1,1858.0999999940395,179895.09999999404,7129,NNB,C,6
7,test,1,0.0,1-Back,1,m,Fri Apr 18 2025 14:19:12 GMT-0500 (Central Daylight Time),183619.80000001192,092_m_m_n_a.png,O,m,834,8,1,1861.9000000059605,181757.90000000596,7129,NNB,C,7
8,test,1,0.0,1-Back,1,m,Fri Apr 18 2025 14:19:12 GMT-0500 (Central Daylight Time),185336.80000001192,130_o_f_n_a.png,O,m,698,9,1,1708.7000000178814,183628.09999999404,7129,NNB,C,8
9,test,1,0.0,1-Back,1,m,Fri Apr 18 2025 14:19:12 GMT-0500 (Central Daylight Time),187235.40000000596,092_m_m_n_a.png,O,m,867,10,1,1891.5,185343.90000000596,7129,NNB,C,9
10,test,1,0.0,1-Back,1,m,Fri Apr 18 2025 14:19:12 GMT-0500 (Central Daylight Time),188935.30000001192,057_y_m_n_a.png,O,m,682,11,1,1693.300000011921,187242.0,7129,NNB,C,10
11,test,1,1.0,1-Back,1,z,Fri Apr 18 2025 14:19:12 GMT-0500 (Central Daylight Time),190600.59999999404,057_y_m_n_a.png,O,z,637,12,1,1660.9000000059605,188939.69999998808,7129,NNB,C,11
12,test,1,0.0,1-Back,1,m,Fri Apr 18 2025 14:19:12 GMT-0500 (Central Daylight Time),192283.80000001192,030_o_f_n_a.png,O,m,660,13,1,1676.5,190607.30000001192,7129,NNB,C,12
12,test,1,1.0,1-Back,0,z,Fri Apr 18 2025 14:19:12 GMT-0500 (Central Daylight Time),193882.5,030_o_f_n_a.png,O,m,576,14,1,1591.199999988079,192291.30000001192,7129,NNB,C,13
13,test,1,0.0,1-Back,1,m,Fri Apr 18 2025 14:19:12 GMT-0500 (Central Daylight Time),195932.19999998808,031_y_m_n_a.png,O,m,1026,15,1,2042.3999999761581,193889.80000001192,7129,NNB,C,14
14,test,1,0.0,1-Back,1,m,Fri Apr 18 2025 14:19:12 GMT-0500 (Central Daylight Time),198698.80000001192,093_m_f_n_a.png,O,m,1743,16,1,2760.5,195938.30000001192,7129,NNB,C,15
15,test,1,0.0,1-Back,1,m,Fri Apr 18 2025 14:19:12 GMT-0500 (Central Daylight Time),200483.0,146_o_m_n_a.png,O,m,765,17,1,1777.4000000059605,198705.59999999404,7129,NNB,C,16
16,test,1,0.0,1-Back,1,m,Fri Apr 18 2025 14:19:12 GMT-0500 (Central Daylight Time),202480.30000001192,093_m_f_n_a.png,O,m,972,18,1,1994.300000011921,200486.0,7129,NNB,C,17
0,test,2,0.0,1-Back,,,Fri Apr 18 2025 14:19:12 GMT-0500 (Central Daylight Time),202480.30000001192,092_m_m_n_a.png,O,space,3421,1,1,1994.300000011921,200486.0,7129,NNB,C,0
0,test,2,0.0,1-Back,0,m,Fri Apr 18 2025 14:19:12 GMT-0500 (Central Daylight Time),210960.0,006_m_f_n_a.png,O,None,2014,2,1,3021.800000011921,207938.19999998808,7129,NNB,C,1
1,test,2,1.0,1-Back,1,z,Fri Apr 18 2025 14:19:12 GMT-0500 (Central Daylight Time),212696.0,006_m_f_n_a.png,O,z,718,3,1,1730.199999988079,210965.80000001192,7129,NNB,C,2
2,test,2,0.0,1-Back,1,m,Fri Apr 18 2025 14:19:12 GMT-0500 (Central Daylight Time),214959.90000000596,092_m_m_n_a.png,O,m,1248,4,1,2259.0999999940395,212700.80000001192,7129,NNB,C,3
3,test,2,0.0,1-Back,1,m,Fri Apr 18 2025 14:19:12 GMT-0500 (Central Daylight Time),216727.09999999404,057_y_m_n_a.png,O,m,750,5,1,1759.0999999940395,214968.0,7129,NNB,C,4
4,test,2,0.0,1-Back,1,m,Fri Apr 18 2025 14:19:12 GMT-0500 (Central Daylight Time),218526.0,098_y_f_n_a.png,O,m,767,6,1,1791.800000011921,216734.19999998808,7129,NNB,C,5
5,test,2,1.0,1-Back,1,z,Fri Apr 18 2025 14:19:12 GMT-0500 (Central Daylight Time),220175.5,098_y_f_n_a.png,O,z,622,7,1,1641.5999999940395,218533.90000000596,7129,NNB,C,6
6,test,2,0.0,1-Back,1,m,Fri Apr 18 2025 14:19:12 GMT-0500 (Central Daylight Time),222005.40000000596,057_y_m_n_a.png,O,m,813,8,1,1825.9000000059605,220179.5,7129,NNB,C,7
7,test,2,0.0,1-Back,1,m,Fri Apr 18 2025 14:19:12 GMT-0500 (Central Daylight Time),223776.5,030_o_f_n_a.png,O,m,739,9,1,1764.300000011921,222012.19999998808,7129,NNB,C,8
8,test,2,0.0,1-Back,1,m,Fri Apr 18 2025 14:19:12 GMT-0500 (Central Daylight Time),225540.5,082_m_m_n_a.png,O,m,734,10,1,1760.800000011921,223779.69999998808,7129,NNB,C,9
9,test,2,1.0,1-Back,1,z,Fri Apr 18 2025 14:19:12 GMT-0500 (Central Daylight Time),227256.09999999404,082_m_m_n_a.png,O,z,696,11,1,1709.4000000059605,225546.69999998808,7129,NNB,C,10
10,test,2,0.0,1-Back,1,m,Fri Apr 18 2025 14:19:12 GMT-0500 (Central Daylight Time),229055.09999999404,030_o_f_n_a.png,O,m,771,12,1,1790.5999999940395,227264.5,7129,NNB,C,11
11,test,2,0.0,1-Back,1,m,Fri Apr 18 2025 14:19:12 GMT-0500 (Central Daylight Time),231274.40000000596,130_o_f_n_a.png,O,m,1200,13,1,2212.7000000178814,229061.69999998808,7129,NNB,C,12
12,test,2,0.0,1-Back,1,m,Fri Apr 18 2025 14:19:12 GMT-0500 (Central Daylight Time),233089.69999998808,059_o_m_n_a.png,O,m,801,14,1,1808.3999999761581,231281.30000001192,7129,NNB,C,13
13,test,2,0.0,1-Back,1,m,Fri Apr 18 2025 14:19:12 GMT-0500 (Central Daylight Time),234802.40000000596,146_o_m_n_a.png,O,m,685,15,1,1706.4000000059605,233096.0,7129,NNB,C,14
14,test,2,1.0,1-Back,1,z,Fri Apr 18 2025 14:19:12 GMT-0500 (Central Daylight Time),236486.30000001192,146_o_m_n_a.png,O,z,656,16,1,1677.7000000178814,234808.59999999404,7129,NNB,C,15
15,test,2,0.0,1-Back,1,m,Fri Apr 18 2025 14:19:12 GMT-0500 (Central Daylight Time),238569.09999999404,031_y_m_n_a.png,O,m,1055,17,1,2074.0,236495.09999999404,7129,NNB,C,16
16,test,2,1.0,1-Back,1,z,Fri Apr 18 2025 14:19:12 GMT-0500 (Central Daylight Time),240267.30000001192,031_y_m_n_a.png,O,z,676,18,1,1690.2000000178814,238577.09999999404,7129,NNB,C,17
0,test,3,1.0,1-Back,,,Fri Apr 18 2025 14:19:12 GMT-0500 (Central Daylight Time),240267.30000001192,028_y_f_n_a.png,O,space,1994,1,1,1690.2000000178814,238577.09999999404,7129,NNB,C,0
1,test,3,0.0,1-Back,1,m,Fri Apr 18 2025 14:19:12 GMT-0500 (Central Daylight Time),246384.0,146_o_m_n_a.png,O,m,989,1,1,2010.699999988079,244373.30000001192,7129,NNB,C,1
2,test,3,1.0,1-Back,1,z,Fri Apr 18 2025 14:19:12 GMT-0500 (Central Daylight Time),248099.19999998808,146_o_m_n_a.png,O,z,683,1,1,1707.5,246391.69999998808,7129,NNB,C,2
3,test,3,0.0,1-Back,1,m,Fri Apr 18 2025 14:19:12 GMT-0500 (Central Daylight Time),249915.0,093_m_f_n_a.png,O,m,793,1,1,1808.5999999940395,248106.40000000596,7129,NNB,C,3
4,test,3,1.0,1-Back,1,z,Fri Apr 18 2025 14:19:12 GMT-0500 (Central Daylight Time),251697.80000001192,093_m_f_n_a.png,O,z,752,1,1,1777.0,249920.80000001192,7129,NNB,C,4
5,test,3,0.0,1-Back,1,m,Fri Apr 18 2025 14:19:12 GMT-0500 (Central Daylight Time),253462.69999998808,030_o_f_n_a.png,O,m,736,1,1,1758.5,251704.19999998808,7129,NNB,C,5
6,test,3,0.0,1-Back,1,m,Fri Apr 18 2025 14:19:12 GMT-0500 (Central Daylight Time),255362.69999998808,057_y_m_n_a.png,O,m,867,1,1,1897.699999988079,253465.0,7129,NNB,C,6
7,test,3,0.0,1-Back,1,m,Fri Apr 18 2025 14:19:12 GMT-0500 (Central Daylight Time),257180.59999999404,030_o_f_n_a.png,O,m,785,1,1,1810.0999999940395,255370.5,7129,NNB,C,7
8,test,3,0.0,1-Back,1,m,Fri Apr 18 2025 14:19:12 GMT-0500 (Central Daylight Time),258963.19999998808,031_y_m_n_a.png,O,m,760,1,1,1775.0,257188.19999998808,7129,NNB,C,8
9,test,3,1.0,1-Back,1,z,Fri Apr 18 2025 14:19:12 GMT-0500 (Central Daylight Time),260681.09999999404,031_y_m_n_a.png,O,z,689,1,1,1710.4000000059605,258970.69999998808,7129,NNB,C,9
10,test,3,0.0,1-Back,1,m,Fri Apr 18 2025 14:19:12 GMT-0500 (Central Daylight Time),262644.6999999881,006_m_f_n_a.png,O,m,934,1,1,1956.8999999761581,260687.80000001192,7129,NNB,C,10
11,test,3,0.0,1-Back,1,m,Fri Apr 18 2025 14:19:12 GMT-0500 (Central Daylight Time),264543.0,098_y_f_n_a.png,O,m,871,1,1,1890.699999988079,262652.3000000119,7129,NNB,C,11
12,test,3,1.0,1-Back,1,z,Fri Apr 18 2025 14:19:12 GMT-0500 (Central Daylight Time),266193.3000000119,098_y_f_n_a.png,O,z,622,1,1,1643.6000000238419,264549.6999999881,7129,NNB,C,12
13,test,3,0.0,1-Back,1,m,Fri Apr 18 2025 14:19:12 GMT-0500 (Central Daylight Time),268042.3000000119,006_m_f_n_a.png,O,m,827,1,1,1840.7000000178814,266201.59999999404,7129,NNB,C,13
14,test,3,0.0,1-Back,1,m,Fri Apr 18 2025 14:19:12 GMT-0500 (Central Daylight Time),269908.3000000119,092_m_m_n_a.png,O,m,841,1,1,1860.4000000059605,268047.90000000596,7129,NNB,C,14
15,test,3,1.0,1-Back,1,z,Fri Apr 18 2025 14:19:12 GMT-0500 (Central Daylight Time),271526.09999999404,092_m_m_n_a.png,O,z,600,1,1,1611.0999999940395,269915.0,7129,NNB,C,15
16,test,3,0.0,1-Back,1,m,Fri Apr 18 2025 14:19:12 GMT-0500 (Central Daylight Time),273722.59999999404,130_o_f_n_a.png,O,m,1177,1,1,2191.0,271531.59999999404,7129,NNB,C,16
17,test,3,1.0,1-Back,1,z,Fri Apr 18 2025 14:19:12 GMT-0500 (Central Daylight Time),275390.0,130_o_f_n_a.png,O,z,641,1,1,1661.0999999940395,273728.90000000596,7129,NNB,C,17
0,test,4,1.0,1-Back,,,Fri Apr 18 2025 14:19:12 GMT-0500 (Central Daylight Time),275390.0,093_m_f_n_a.png,O,space,1511,1,1,1661.0999999940395,273728.90000000596,7129,NNB,C,0
1,test,4,0.0,1-Back,1,m,Fri Apr 18 2025 14:19:12 GMT-0500 (Central Daylight Time),280957.1999999881,146_o_m_n_a.png,O,m,918,2,1,1945.5999999940395,279011.59999999404,7129,NNB,C,1
2,test,4,0.0,1-Back,1,m,Fri Apr 18 2025 14:19:12 GMT-0500 (Central Daylight Time),282521.40000000596,093_m_f_n_a.png,O,m,537,3,1,1556.800000011921,280964.59999999404,7129,NNB,C,2
3,test,4,0.0,1-Back,1,m,Fri Apr 18 2025 14:19:12 GMT-0500 (Central Daylight Time),284236.6999999881,030_o_f_n_a.png,O,m,690,4,1,1708.8999999761581,282527.8000000119,7129,NNB,C,3
4,test,4,1.0,1-Back,1,z,Fri Apr 18 2025 14:19:12 GMT-0500 (Central Daylight Time),285986.3000000119,030_o_f_n_a.png,O,z,726,5,1,1745.0,284241.3000000119,7129,NNB,C,4
5,test,4,0.0,1-Back,1,m,Fri Apr 18 2025 14:19:12 GMT-0500 (Central Daylight Time),287670.0,098_y_f_n_a.png,O,m,655,6,1,1678.0,285992.0,7129,NNB,C,5
6,test,4,0.0,1-Back,1,m,Fri Apr 18 2025 14:19:12 GMT-0500 (Central Daylight Time),289235.40000000596,057_y_m_n_a.png,O,m,542,7,1,1560.2000000178814,287675.1999999881,7129,NNB,C,6
7,test,4,1.0,1-Back,1,z,Fri Apr 18 2025 14:19:12 GMT-0500 (Central Daylight Time),290851.6999999881,057_y_m_n_a.png,O,z,583,8,1,1609.2999999821186,289242.40000000596,7129,NNB,C,7
8,test,4,0.0,1-Back,1,m,Fri Apr 18 2025 14:19:12 GMT-0500 (Central Daylight Time),293483.1999999881,098_y_f_n_a.png,O,m,1607,9,1,2624.0999999940395,290859.09999999404,7129,NNB,C,8
9,test,4,0.0,1-Back,1,m,Fri Apr 18 2025 14:19:12 GMT-0500 (Central Daylight Time),295118.0,082_m_m_n_a.png,O,m,602,10,1,1629.5999999940395,293488.40000000596,7129,NNB,C,9
10,test,4,1.0,1-Back,1,z,Fri Apr 18 2025 14:19:12 GMT-0500 (Central Daylight Time),296815.90000000596,082_m_m_n_a.png,O,z,669,11,1,1691.0,295124.90000000596,7129,NNB,C,10
11,test,4,0.0,1-Back,1,m,Fri Apr 18 2025 14:19:12 GMT-0500 (Central Daylight Time),298517.09999999404,130_o_f_n_a.png,O,m,674,12,1,1694.699999988079,296822.40000000596,7129,NNB,C,11
12,test,4,0.0,1-Back,1,m,Fri Apr 18 2025 14:19:12 GMT-0500 (Central Daylight Time),300265.3000000119,059_o_m_n_a.png,O,m,718,13,1,1741.1000000238419,298524.1999999881,7129,NNB,C,12
13,test,4,0.0,1-Back,1,m,Fri Apr 18 2025 14:19:12 GMT-0500 (Central Daylight Time),302264.8000000119,130_o_f_n_a.png,O,m,978,14,1,1995.4000000059605,300269.40000000596,7129,NNB,C,13
14,test,4,0.0,1-Back,1,m,Fri Apr 18 2025 14:19:12 GMT-0500 (Central Daylight Time),304314.6999999881,028_y_f_n_a.png,O,m,1020,15,1,2045.5999999940395,302269.09999999404,7129,NNB,C,14
15,test,4,1.0,1-Back,1,z,Fri Apr 18 2025 14:19:12 GMT-0500 (Central Daylight Time),306048.0,028_y_f_n_a.png,O,z,707,16,1,1726.5,304321.5,7129,NNB,C,15
16,test,4,0.0,1-Back,1,m,Fri Apr 18 2025 14:19:12 GMT-0500 (Central Daylight Time),307678.3000000119,006_m_f_n_a.png,O,m,614,17,1,1624.2000000178814,306054.09999999404,7129,NNB,C,16
17,test,4,1.0,1-Back,1,z,Fri Apr 18 2025 14:19:12 GMT-0500 (Central Daylight Time),309462.5,006_m_f_n_a.png,O,z,755,18,1,1777.800000011921,307684.6999999881,7129,NNB,C,17
0,test,5,1.0,1-Back,,,Fri Apr 18 2025 14:19:12 GMT-0500 (Central Daylight Time),309462.5,059_o_m_n_a.png,O,space,1359,1,1,1777.800000011921,307684.6999999881,7129,NNB,C,0
1,test,5,1.0,1-Back,1,z,Fri Apr 18 2025 14:19:12 GMT-0500 (Central Daylight Time),315062.0,059_o_m_n_a.png,O,z,1184,2,1,2207.5,312854.5,7129,NNB,C,1
2,test,5,0.0,1-Back,1,m,Fri Apr 18 2025 14:19:12 GMT-0500 (Central Daylight Time),317842.90000000596,098_y_f_n_a.png,O,m,1757,3,1,2775.2000000178814,315067.6999999881,7129,NNB,C,2
3,test,5,0.0,1-Back,1,m,Fri Apr 18 2025 14:19:12 GMT-0500 (Central Daylight Time),319626.40000000596,057_y_m_n_a.png,O,m,761,4,1,1778.2000000178814,317848.1999999881,7129,NNB,C,3
4,test,5,0.0,1-Back,1,m,Fri Apr 18 2025 14:19:12 GMT-0500 (Central Daylight Time),321328.3000000119,098_y_f_n_a.png,O,m,684,5,1,1695.0,319633.3000000119,7129,NNB,C,4
5,test,5,0.0,1-Back,1,m,Fri Apr 18 2025 14:19:12 GMT-0500 (Central Daylight Time),322976.3000000119,092_m_m_n_a.png,O,m,633,6,1,1640.4000000059605,321335.90000000596,7129,NNB,C,5
6,test,5,1.0,1-Back,1,z,Fri Apr 18 2025 14:19:12 GMT-0500 (Central Daylight Time),324690.90000000596,092_m_m_n_a.png,O,z,692,7,1,1710.0,322980.90000000596,7129,NNB,C,6
7,test,5,0.0,1-Back,1,m,Fri Apr 18 2025 14:19:12 GMT-0500 (Central Daylight Time),326474.6999999881,028_y_f_n_a.png,O,m,753,8,1,1777.5999999940395,324697.09999999404,7129,NNB,C,7
8,test,5,0.0,1-Back,1,m,Fri Apr 18 2025 14:19:12 GMT-0500 (Central Daylight Time),328291.59999999404,031_y_m_n_a.png,O,m,785,9,1,1809.199999988079,326482.40000000596,7129,NNB,C,8
9,test,5,0.0,1-Back,1,m,Fri Apr 18 2025 14:19:12 GMT-0500 (Central Daylight Time),330056.0,028_y_f_n_a.png,O,m,746,10,1,1759.199999988079,328296.8000000119,7129,NNB,C,9
10,test,5,0.0,1-Back,1,m,Fri Apr 18 2025 14:19:12 GMT-0500 (Central Daylight Time),331672.1999999881,130_o_f_n_a.png,O,m,596,11,1,1608.7999999821186,330063.40000000596,7129,NNB,C,10
11,test,5,1.0,1-Back,1,z,Fri Apr 18 2025 14:19:12 GMT-0500 (Central Daylight Time),333222.1999999881,130_o_f_n_a.png,O,z,524,12,1,1542.5,331679.6999999881,7129,NNB,C,11
12,test,5,0.0,1-Back,1,m,Fri Apr 18 2025 14:19:12 GMT-0500 (Central Daylight Time),334989.1999999881,146_o_m_n_a.png,O,m,733,13,1,1760.8999999761581,333228.3000000119,7129,NNB,C,12
13,test,5,0.0,1-Back,1,m,Fri Apr 18 2025 14:19:12 GMT-0500 (Central Daylight Time),336821.5,093_m_f_n_a.png,O,m,808,14,1,1825.199999988079,334996.3000000119,7129,NNB,C,13
14,test,5,1.0,1-Back,1,z,Fri Apr 18 2025 14:19:12 GMT-0500 (Central Daylight Time),338336.3000000119,093_m_f_n_a.png,O,z,498,15,1,1509.6000000238419,336826.6999999881,7129,NNB,C,14
15,test,5,0.0,1-Back,1,m,Fri Apr 18 2025 14:19:12 GMT-0500 (Central Daylight Time),340271.3000000119,146_o_m_n_a.png,O,m,916,16,1,1928.7000000178814,338342.59999999404,7129,NNB,C,15
16,test,5,0.0,1-Back,1,m,Fri Apr 18 2025 14:19:12 GMT-0500 (Central Daylight Time),342002.5,006_m_f_n_a.png,O,m,704,17,1,1724.5999999940395,340277.90000000596,7129,NNB,C,16
17,test,5,0.0,1-Back,1,m,Fri Apr 18 2025 14:19:12 GMT-0500 (Central Daylight Time),343669.6999999881,082_m_m_n_a.png,O,m,639,18,1,1661.7999999821186,342007.90000000596,7129,NNB,C,17
0,prac,1,0.0,2-Back,,,Fri Apr 18 2025 14:19:12 GMT-0500 (Central Daylight Time),343669.6999999881,031_y_m_n_a.png,O,space,16828,1,1,1661.7999999821186,342007.90000000596,7129,NNB,C,0
0,prac,1,0.0,2-Back,,,Fri Apr 18 2025 14:19:12 GMT-0500 (Central Daylight Time),343669.6999999881,006_m_f_n_a.png,O,space,16828,2,1,1661.7999999821186,342007.90000000596,7129,NNB,C,0
1,prac,1,1.0,2-Back,1,m,Fri Apr 18 2025 14:19:12 GMT-0500 (Central Daylight Time),475478.1999999881,146_o_m_n_a.png,O,m,1720,3,1,2592.399999976158,472885.8000000119,7129,NNB,C,1
1,prac,1,0.0,2-Back,0,m,Fri Apr 18 2025 14:19:12 GMT-0500 (Central Daylight Time),478360.90000000596,130_o_f_n_a.png,O,None,2014,4,1,2873.5,475487.40000000596,7129,NNB,C,2
1,prac,1,0.0,2-Back,0,z,Fri Apr 18 2025 14:19:12 GMT-0500 (Central Daylight Time),480710.3000000119,146_o_m_n_a.png,O,m,1572,5,1,2341.100000023842,478369.1999999881,7129,NNB,C,3
1,prac,1,1.0,2-Back,0,z,Fri Apr 18 2025 14:19:12 GMT-0500 (Central Daylight Time),482906.8000000119,130_o_f_n_a.png,O,m,1414,6,1,2189.300000011921,480717.5,7129,NNB,C,4
2,prac,1,0.0,2-Back,1,m,Fri Apr 18 2025 14:19:12 GMT-0500 (Central Daylight Time),485423.59999999404,082_m_m_n_a.png,O,m,1653,7,1,2511.199999988079,482912.40000000596,7129,NNB,C,5
2,prac,1,0.0,2-Back,0,m,Fri Apr 18 2025 14:19:12 GMT-0500 (Central Daylight Time),488291.40000000596,059_o_m_n_a.png,O,None,2002,8,1,2859.7000000178814,485431.6999999881,7129,NNB,C,6
3,prac,1,0.0,2-Back,1,m,Fri Apr 18 2025 14:19:12 GMT-0500 (Central Daylight Time),490121.3000000119,028_y_f_n_a.png,O,m,960,9,1,1821.0,488300.3000000119,7129,NNB,C,7
3,prac,1,1.0,2-Back,0,z,Fri Apr 18 2025 14:19:12 GMT-0500 (Central Daylight Time),492071.3000000119,059_o_m_n_a.png,O,m,1177,10,1,1942.9000000059605,490128.40000000596,7129,NNB,C,8
4,prac,1,0.0,2-Back,1,m,Fri Apr 18 2025 14:19:12 GMT-0500 (Central Daylight Time),494588.40000000596,098_y_f_n_a.png,O,m,1658,11,1,2508.800000011921,492079.59999999404,7129,NNB,C,9
5,prac,1,0.0,2-Back,1,m,Fri Apr 18 2025 14:19:12 GMT-0500 (Central Daylight Time),496437.59999999404,082_m_m_n_a.png,O,m,1075,12,1,1841.9000000059605,494595.6999999881,7129,NNB,C,10
0,prac,2,0.0,2-Back,,,Fri Apr 18 2025 14:19:12 GMT-0500 (Central Daylight Time),496437.59999999404,031_y_m_n_a.png,O,a,4372,1,1,1841.9000000059605,494595.6999999881,7129,NNB,C,0
0,prac,2,0.0,2-Back,,,Fri Apr 18 2025 14:19:12 GMT-0500 (Central Daylight Time),496437.59999999404,006_m_f_n_a.png,O,a,4372,2,1,1841.9000000059605,494595.6999999881,7129,NNB,C,0
1,prac,2,1.0,2-Back,1,m,Fri Apr 18 2025 14:19:12 GMT-0500 (Central Daylight Time),508351.1999999881,146_o_m_n_a.png,O,m,1412,3,1,2274.199999988079,506077.0,7129,NNB,C,1
2,prac,2,0.0,2-Back,1,m,Fri Apr 18 2025 14:19:12 GMT-0500 (Central Daylight Time),511198.8000000119,130_o_f_n_a.png,O,m,1951,4,1,2839.0,508359.8000000119,7129,NNB,C,2
2,prac,2,0.0,2-Back,0,z,Fri Apr 18 2025 14:19:12 GMT-0500 (Central Daylight Time),513432.6999999881,146_o_m_n_a.png,O,m,1447,5,1,2225.7999999821186,511206.90000000596,7129,NNB,C,3
2,prac,2,1.0,2-Back,0,z,Fri Apr 18 2025 14:19:12 GMT-0500 (Central Daylight Time),516214.09999999404,130_o_f_n_a.png,O,None,2007,6,1,2773.9000000059605,513440.1999999881,7129,NNB,C,4
3,prac,2,0.0,2-Back,1,m,Fri Apr 18 2025 14:19:12 GMT-0500 (Central Daylight Time),518310.59999999404,082_m_m_n_a.png,O,m,1319,7,1,2087.5999999940395,516223.0,7129,NNB,C,5
4,prac,2,0.0,2-Back,1,m,Fri Apr 18 2025 14:19:12 GMT-0500 (Central Daylight Time),520029.40000000596,059_o_m_n_a.png,O,m,843,8,1,1714.0,518315.40000000596,7129,NNB,C,6
5,prac,2,0.0,2-Back,1,m,Fri Apr 18 2025 14:19:12 GMT-0500 (Central Daylight Time),521945.59999999404,028_y_f_n_a.png,O,m,1038,9,1,1906.9000000059605,520038.6999999881,7129,NNB,C,7
6,prac,2,1.0,2-Back,1,z,Fri Apr 18 2025 14:19:12 GMT-0500 (Central Daylight Time),523795.1999999881,059_o_m_n_a.png,O,z,1060,10,1,1842.699999988079,521952.5,7129,NNB,C,8
7,prac,2,0.0,2-Back,1,m,Fri Apr 18 2025 14:19:12 GMT-0500 (Central Daylight Time),525627.599999994,098_y_f_n_a.png,O,m,960,11,1,1823.699999988079,523803.90000000596,7129,NNB,C,9
8,prac,2,0.0,2-Back,1,m,Fri Apr 18 2025 14:19:12 GMT-0500 (Central Daylight Time),527343.099999994,082_m_m_n_a.png,O,m,939,12,1,1706.7999999821186,525636.3000000119,7129,NNB,C,10
0,test,1,0.0,2-Back,,,Fri Apr 18 2025 14:19:12 GMT-0500 (Central Daylight Time),527343.099999994,057_y_m_n_a.png,O,space,8787,1,1,1706.7999999821186,525636.3000000119,7129,NNB,C,0
0,test,1,0.0,2-Back,,,Fri Apr 18 2025 14:19:12 GMT-0500 (Central Daylight Time),527343.099999994,057_y_m_n_a.png,O,space,8787,2,1,1706.7999999821186,525636.3000000119,7129,NNB,C,0
1,test,1,0.0,2-Back,1,m,Fri Apr 18 2025 14:19:12 GMT-0500 (Central Daylight Time),552052.3000000119,130_o_f_n_a.png,O,m,627,3,1,1642.1000000238419,550410.1999999881,7129,NNB,C,1
2,test,1,0.0,2-Back,1,m,Fri Apr 18 2025 14:19:12 GMT-0500 (Central Daylight Time),554451.599999994,092_m_m_n_a.png,O,m,1376,4,1,2392.5999999940395,552059.0,7129,NNB,C,2
3,test,1,1.0,2-Back,1,z,Fri Apr 18 2025 14:19:12 GMT-0500 (Central Daylight Time),556416.599999994,130_o_f_n_a.png,O,z,933,5,1,1959.0999999940395,554457.5,7129,NNB,C,3
4,test,1,0.0,2-Back,1,m,Fri Apr 18 2025 14:19:12 GMT-0500 (Central Daylight Time),558834.0,098_y_f_n_a.png,O,m,1396,6,1,2410.699999988079,556423.3000000119,7129,NNB,C,4
4,test,1,0.0,2-Back,0,m,Fri Apr 18 2025 14:19:12 GMT-0500 (Central Daylight Time),561116.0,092_m_m_n_a.png,O,z,1259,7,1,2274.800000011921,558841.1999999881,7129,NNB,C,5
5,test,1,1.0,2-Back,1,z,Fri Apr 18 2025 14:19:12 GMT-0500 (Central Daylight Time),563517.3000000119,098_y_f_n_a.png,O,z,1376,8,1,2394.100000023842,561123.1999999881,7129,NNB,C,6
6,test,1,0.0,2-Back,1,m,Fri Apr 18 2025 14:19:12 GMT-0500 (Central Daylight Time),565731.1999999881,031_y_m_n_a.png,O,m,1185,9,1,2208.199999988079,563523.0,7129,NNB,C,7
7,test,1,0.0,2-Back,1,m,Fri Apr 18 2025 14:19:12 GMT-0500 (Central Daylight Time),567946.400000006,030_o_f_n_a.png,O,m,1191,10,1,2207.4000000059605,565739.0,7129,NNB,C,8
8,test,1,1.0,2-Back,1,z,Fri Apr 18 2025 14:19:12 GMT-0500 (Central Daylight Time),570264.900000006,031_y_m_n_a.png,O,z,1299,11,1,2312.0,567952.900000006,7129,NNB,C,9
9,test,1,0.0,2-Back,1,m,Fri Apr 18 2025 14:19:12 GMT-0500 (Central Daylight Time),572327.6999999881,006_m_f_n_a.png,O,m,1046,12,1,2055.7999999821186,570271.900000006,7129,NNB,C,10
9,test,1,0.0,2-Back,0,m,Fri Apr 18 2025 14:19:12 GMT-0500 (Central Daylight Time),575362.0,006_m_f_n_a.png,O,None,2016,13,1,3026.199999988079,572335.8000000119,7129,NNB,C,11
10,test,1,0.0,2-Back,1,m,Fri Apr 18 2025 14:19:12 GMT-0500 (Central Daylight Time),577644.0,146_o_m_n_a.png,O,m,1257,14,1,2275.0999999940395,575368.900000006,7129,NNB,C,12
11,test,1,0.0,2-Back,1,m,Fri Apr 18 2025 14:19:12 GMT-0500 (Central Daylight Time),580209.5,030_o_f_n_a.png,O,m,1545,15,1,2559.199999988079,577650.3000000119,7129,NNB,C,13
12,test,1,1.0,2-Back,1,z,Fri Apr 18 2025 14:19:12 GMT-0500 (Central Daylight Time),582226.5,146_o_m_n_a.png,O,z,985,16,1,2010.199999988079,580216.3000000119,7129,NNB,C,14
12,test,1,0.0,2-Back,0,m,Fri Apr 18 2025 14:19:12 GMT-0500 (Central Daylight Time),585258.1999999881,093_m_f_n_a.png,O,None,2013,17,1,3024.699999988079,582233.5,7129,NNB,C,15
13,test,1,0.0,2-Back,1,m,Fri Apr 18 2025 14:19:12 GMT-0500 (Central Daylight Time),587508.6999999881,082_m_m_n_a.png,O,m,1217,18,1,2243.699999988079,585265.0,7129,NNB,C,16
0,test,2,0.0,2-Back,,,Fri Apr 18 2025 14:19:12 GMT-0500 (Central Daylight Time),587508.6999999881,082_m_m_n_a.png,O,space,2392,1,1,2243.699999988079,585265.0,7129,NNB,C,0
0,test,2,0.0,2-Back,,,Fri Apr 18 2025 14:19:12 GMT-0500 (Central Daylight Time),587508.6999999881,028_y_f_n_a.png,O,space,2392,2,1,2243.699999988079,585265.0,7129,NNB,C,0
0,test,2,1.0,2-Back,0,z,Fri Apr 18 2025 14:19:12 GMT-0500 (Central Daylight Time),598072.099999994,082_m_m_n_a.png,O,None,2016,3,1,3026.0,595046.099999994,7129,NNB,C,1
1,test,2,0.0,2-Back,1,m,Fri Apr 18 2025 14:19:12 GMT-0500 (Central Daylight Time),600304.0,093_m_f_n_a.png,O,m,1204,4,1,2225.0999999940395,598078.900000006,7129,NNB,C,2
1,test,2,0.0,2-Back,0,m,Fri Apr 18 2025 14:19:12 GMT-0500 (Central Daylight Time),602469.8000000119,028_y_f_n_a.png,O,z,1141,5,1,2159.100000023842,600310.6999999881,7129,NNB,C,3
2,test,2,0.0,2-Back,1,m,Fri Apr 18 2025 14:19:12 GMT-0500 (Central Daylight Time),605003.900000006,146_o_m_n_a.png,O,m,1503,6,1,2526.300000011921,602477.599999994,7129,NNB,C,4
3,test,2,0.0,2-Back,1,m,Fri Apr 18 2025 14:19:12 GMT-0500 (Central Daylight Time),607168.3000000119,098_y_f_n_a.png,O,m,1138,7,1,2158.300000011921,605010.0,7129,NNB,C,5
4,test,2,1.0,2-Back,1,z,Fri Apr 18 2025 14:19:12 GMT-0500 (Central Daylight Time),609233.900000006,146_o_m_n_a.png,O,z,1036,8,1,2058.0999999940395,607175.8000000119,7129,NNB,C,6
5,test,2,0.0,2-Back,1,m,Fri Apr 18 2025 14:19:12 GMT-0500 (Central Daylight Time),611600.1999999881,031_y_m_n_a.png,O,m,1338,9,1,2361.399999976158,609238.8000000119,7129,NNB,C,7
6,test,2,0.0,2-Back,1,m,Fri Apr 18 2025 14:19:12 GMT-0500 (Central Daylight Time),613801.0,031_y_m_n_a.png,O,m,1184,10,1,2194.199999988079,611606.8000000119,7129,NNB,C,8
7,test,2,0.0,2-Back,1,m,Fri Apr 18 2025 14:19:12 GMT-0500 (Central Daylight Time),615780.900000006,006_m_f_n_a.png,O,m,950,11,1,1972.5999999940395,613808.3000000119,7129,NNB,C,9
8,test,2,0.0,2-Back,1,m,Fri Apr 18 2025 14:19:12 GMT-0500 (Central Daylight Time),617733.599999994,028_y_f_n_a.png,O,m,918,12,1,1948.2999999821186,615785.3000000119,7129,NNB,C,10
9,test,2,1.0,2-Back,1,z,Fri Apr 18 2025 14:19:12 GMT-0500 (Central Daylight Time),619680.3000000119,006_m_f_n_a.png,O,z,930,13,1,1940.2000000178814,617740.099999994,7129,NNB,C,11
10,test,2,0.0,2-Back,1,m,Fri Apr 18 2025 14:19:12 GMT-0500 (Central Daylight Time),621529.6999999881,059_o_m_n_a.png,O,m,827,14,1,1842.5999999940395,619687.099999994,7129,NNB,C,12
11,test,2,0.0,2-Back,1,m,Fri Apr 18 2025 14:19:12 GMT-0500 (Central Daylight Time),623463.3000000119,059_o_m_n_a.png,O,m,907,15,1,1927.5,621535.8000000119,7129,NNB,C,13
12,test,2,0.0,2-Back,1,m,Fri Apr 18 2025 14:19:12 GMT-0500 (Central Daylight Time),625229.8000000119,030_o_f_n_a.png,O,m,732,16,1,1759.5,623470.3000000119,7129,NNB,C,14
13,test,2,0.0,2-Back,1,m,Fri Apr 18 2025 14:19:12 GMT-0500 (Central Daylight Time),627011.0,092_m_m_n_a.png,O,m,761,17,1,1774.0,625237.0,7129,NNB,C,15
14,test,2,1.0,2-Back,1,z,Fri Apr 18 2025 14:19:12 GMT-0500 (Central Daylight Time),628928.900000006,030_o_f_n_a.png,O,z,900,18,1,1912.300000011921,627016.599999994,7129,NNB,C,16
0,test,3,1.0,2-Back,,,Fri Apr 18 2025 14:19:12 GMT-0500 (Central Daylight Time),628928.900000006,057_y_m_n_a.png,O,space,1381,1,1,1912.300000011921,627016.599999994,7129,NNB,C,0
0,test,3,1.0,2-Back,,,Fri Apr 18 2025 14:19:12 GMT-0500 (Central Daylight Time),628928.900000006,057_y_m_n_a.png,O,space,1381,2,1,1912.300000011921,627016.599999994,7129,NNB,C,0
0,test,3,0.0,2-Back,0,m,Fri Apr 18 2025 14:19:12 GMT-0500 (Central Daylight Time),638324.8000000119,030_o_f_n_a.png,O,z,1843,3,1,2858.600000023842,635466.1999999881,7129,NNB,C,1
1,test,3,0.0,2-Back,1,m,Fri Apr 18 2025 14:19:12 GMT-0500 (Central Daylight Time),640423.1999999881,082_m_m_n_a.png,O,m,1071,4,1,2091.5999999940395,638331.599999994,7129,NNB,C,2
2,test,3,1.0,2-Back,1,z,Fri Apr 18 2025 14:19:12 GMT-0500 (Central Daylight Time),642474.0,030_o_f_n_a.png,O,z,1020,5,1,2043.800000011921,640430.1999999881,7129,NNB,C,3
3,test,3,0.0,2-Back,1,m,Fri Apr 18 2025 14:19:12 GMT-0500 (Central Daylight Time),644556.5,031_y_m_n_a.png,O,m,1060,6,1,2076.0999999940395,642480.400000006,7129,NNB,C,4
4,test,3,0.0,2-Back,1,m,Fri Apr 18 2025 14:19:12 GMT-0500 (Central Daylight Time),646471.900000006,082_m_m_n_a.png,O,m,888,7,1,1909.0999999940395,644562.8000000119,7129,NNB,C,5
4,test,3,1.0,2-Back,0,z,Fri Apr 18 2025 14:19:12 GMT-0500 (Central Daylight Time),648388.8000000119,031_y_m_n_a.png,O,m,885,8,1,1911.6000000238419,646477.1999999881,7129,NNB,C,6
5,test,3,0.0,2-Back,1,m,Fri Apr 18 2025 14:19:12 GMT-0500 (Central Daylight Time),650353.3000000119,028_y_f_n_a.png,O,m,944,9,1,1958.0,648395.3000000119,7129,NNB,C,7
6,test,3,0.0,2-Back,1,m,Fri Apr 18 2025 14:19:12 GMT-0500 (Central Daylight Time),652187.6999999881,092_m_m_n_a.png,O,m,810,10,1,1828.7999999821186,650358.900000006,7129,NNB,C,8
6,test,3,1.0,2-Back,0,z,Fri Apr 18 2025 14:19:12 GMT-0500 (Central Daylight Time),654186.6999999881,028_y_f_n_a.png,O,m,969,11,1,1993.0,652193.6999999881,7129,NNB,C,9
7,test,3,1.0,2-Back,1,z,Fri Apr 18 2025 14:19:12 GMT-0500 (Central Daylight Time),656167.8000000119,092_m_m_n_a.png,O,z,962,12,1,1973.9000000059605,654193.900000006,7129,NNB,C,10
8,test,3,0.0,2-Back,1,m,Fri Apr 18 2025 14:19:12 GMT-0500 (Central Daylight Time),658103.6999999881,030_o_f_n_a.png,O,m,918,13,1,1928.3999999761581,656175.3000000119,7129,NNB,C,11
9,test,3,0.0,2-Back,1,m,Fri Apr 18 2025 14:19:12 GMT-0500 (Central Daylight Time),659983.6999999881,093_m_f_n_a.png,O,m,863,14,1,1874.0,658109.6999999881,7129,NNB,C,12
9,test,3,0.0,2-Back,0,m,Fri Apr 18 2025 14:19:12 GMT-0500 (Central Daylight Time),661850.5,146_o_m_n_a.png,O,z,844,15,1,1859.199999988079,659991.3000000119,7129,NNB,C,13
10,test,3,1.0,2-Back,1,z,Fri Apr 18 2025 14:19:12 GMT-0500 (Central Daylight Time),664432.099999994,093_m_f_n_a.png,O,z,1562,16,1,2576.0999999940395,661856.0,7129,NNB,C,14
11,test,3,0.0,2-Back,1,m,Fri Apr 18 2025 14:19:12 GMT-0500 (Central Daylight Time),666532.1999999881,130_o_f_n_a.png,O,m,1074,17,1,2094.7999999821186,664437.400000006,7129,NNB,C,15
12,test,3,0.0,2-Back,1,m,Fri Apr 18 2025 14:19:12 GMT-0500 (Central Daylight Time),668448.900000006,130_o_f_n_a.png,O,m,887,18,1,1910.5,666538.400000006,7129,NNB,C,16
0,test,4,0.0,2-Back,,,Fri Apr 18 2025 14:19:12 GMT-0500 (Central Daylight Time),668448.900000006,059_o_m_n_a.png,O,space,1507,1,1,1910.5,666538.400000006,7129,NNB,C,0
0,test,4,0.0,2-Back,,,Fri Apr 18 2025 14:19:12 GMT-0500 (Central Daylight Time),668448.900000006,098_y_f_n_a.png,O,space,1507,2,1,1910.5,666538.400000006,7129,NNB,C,0
1,test,4,1.0,2-Back,1,z,Fri Apr 18 2025 14:19:12 GMT-0500 (Central Daylight Time),677362.3000000119,059_o_m_n_a.png,O,z,1126,3,1,2141.100000023842,675221.1999999881,7129,NNB,C,1
1,test,4,1.0,2-Back,0,z,Fri Apr 18 2025 14:19:12 GMT-0500 (Central Daylight Time),680396.0,098_y_f_n_a.png,O,None,2016,4,1,3027.199999988079,677368.8000000119,7129,NNB,C,2
2,test,4,0.0,2-Back,1,m,Fri Apr 18 2025 14:19:12 GMT-0500 (Central Daylight Time),682427.3000000119,030_o_f_n_a.png,O,m,1002,5,1,2025.4000000059605,680401.900000006,7129,NNB,C,3
3,test,4,0.0,2-Back,1,m,Fri Apr 18 2025 14:19:12 GMT-0500 (Central Daylight Time),684343.5,030_o_f_n_a.png,O,m,898,6,1,1909.300000011921,682434.1999999881,7129,NNB,C,4
4,test,4,0.0,2-Back,1,m,Fri Apr 18 2025 14:19:12 GMT-0500 (Central Daylight Time),686344.0,006_m_f_n_a.png,O,m,984,7,1,1992.9000000059605,684351.099999994,7129,NNB,C,5
5,test,4,0.0,2-Back,1,m,Fri Apr 18 2025 14:19:12 GMT-0500 (Central Daylight Time),688092.099999994,031_y_m_n_a.png,O,m,726,8,1,1741.4000000059605,686350.6999999881,7129,NNB,C,6
6,test,4,1.0,2-Back,1,z,Fri Apr 18 2025 14:19:12 GMT-0500 (Central Daylight Time),690109.8000000119,006_m_f_n_a.png,O,z,983,9,1,2011.7000000178814,688098.099999994,7129,NNB,C,7
7,test,4,0.0,2-Back,1,m,Fri Apr 18 2025 14:19:12 GMT-0500 (Central Daylight Time),692191.400000006,092_m_m_n_a.png,O,m,1057,10,1,2075.5,690115.900000006,7129,NNB,C,8
7,test,4,0.0,2-Back,0,m,Fri Apr 18 2025 14:19:12 GMT-0500 (Central Daylight Time),694041.3000000119,031_y_m_n_a.png,O,z,832,11,1,1844.0,692197.3000000119,7129,NNB,C,9
8,test,4,0.0,2-Back,1,m,Fri Apr 18 2025 14:19:12 GMT-0500 (Central Daylight Time),696006.1999999881,130_o_f_n_a.png,O,m,947,12,1,1960.3999999761581,694045.8000000119,7129,NNB,C,10
9,test,4,0.0,2-Back,1,m,Fri Apr 18 2025 14:19:12 GMT-0500 (Central Daylight Time),697905.6999999881,057_y_m_n_a.png,O,m,879,13,1,1893.7999999821186,696011.900000006,7129,NNB,C,11
10,test,4,1.0,2-Back,1,z,Fri Apr 18 2025 14:19:12 GMT-0500 (Central Daylight Time),699837.8000000119,130_o_f_n_a.png,O,z,906,14,1,1924.800000011921,697913.0,7129,NNB,C,12
11,test,4,1.0,2-Back,1,z,Fri Apr 18 2025 14:19:12 GMT-0500 (Central Daylight Time),701987.400000006,057_y_m_n_a.png,O,z,1126,15,1,2144.4000000059605,699843.0,7129,NNB,C,13
12,test,4,0.0,2-Back,1,m,Fri Apr 18 2025 14:19:12 GMT-0500 (Central Daylight Time),703904.0,082_m_m_n_a.png,O,m,895,16,1,1910.199999988079,701993.8000000119,7129,NNB,C,14
13,test,4,0.0,2-Back,1,m,Fri Apr 18 2025 14:19:12 GMT-0500 (Central Daylight Time),706086.900000006,093_m_f_n_a.png,O,m,1165,17,1,2178.9000000059605,703908.0,7129,NNB,C,15
14,test,4,1.0,2-Back,1,z,Fri Apr 18 2025 14:19:12 GMT-0500 (Central Daylight Time),708069.900000006,082_m_m_n_a.png,O,z,956,18,1,1978.300000011921,706091.599999994,7129,NNB,C,16
0,test,5,1.0,2-Back,,,Fri Apr 18 2025 14:19:12 GMT-0500 (Central Daylight Time),708069.900000006,057_y_m_n_a.png,O,space,1271,1,1,1978.300000011921,706091.599999994,7129,NNB,C,0
0,test,5,1.0,2-Back,,,Fri Apr 18 2025 14:19:12 GMT-0500 (Central Daylight Time),708069.900000006,093_m_f_n_a.png,O,space,1271,2,1,1978.300000011921,706091.599999994,7129,NNB,C,0
1,test,5,1.0,2-Back,1,z,Fri Apr 18 2025 14:19:12 GMT-0500 (Central Daylight Time),716633.900000006,057_y_m_n_a.png,O,z,1204,3,1,2226.800000011921,714407.099999994,7129,NNB,C,1
2,test,5,1.0,2-Back,1,z,Fri Apr 18 2025 14:19:12 GMT-0500 (Central Daylight Time),718550.6999999881,093_m_f_n_a.png,O,z,899,4,1,1908.199999988079,716642.5,7129,NNB,C,2
3,test,5,0.0,2-Back,1,m,Fri Apr 18 2025 14:19:12 GMT-0500 (Central Daylight Time),720332.8000000119,130_o_f_n_a.png,O,m,759,5,1,1776.800000011921,718556.0,7129,NNB,C,3
3,test,5,0.0,2-Back,0,m,Fri Apr 18 2025 14:19:12 GMT-0500 (Central Daylight Time),722331.400000006,057_y_m_n_a.png,O,z,968,6,1,1989.9000000059605,720341.5,7129,NNB,C,4
4,test,5,0.0,2-Back,1,m,Fri Apr 18 2025 14:19:12 GMT-0500 (Central Daylight Time),724381.1999999881,028_y_f_n_a.png,O,m,1023,7,1,2041.5999999940395,722339.599999994,7129,NNB,C,5
4,test,5,0.0,2-Back,0,m,Fri Apr 18 2025 14:19:12 GMT-0500 (Central Daylight Time),726697.0,130_o_f_n_a.png,O,z,1287,8,1,2307.199999988079,724389.8000000119,7129,NNB,C,6
5,test,5,1.0,2-Back,1,z,Fri Apr 18 2025 14:19:12 GMT-0500 (Central Daylight Time),729111.5,028_y_f_n_a.png,O,z,1396,9,1,2407.199999988079,726704.3000000119,7129,NNB,C,7
6,test,5,0.0,2-Back,1,m,Fri Apr 18 2025 14:19:12 GMT-0500 (Central Daylight Time),730895.6999999881,146_o_m_n_a.png,O,m,756,10,1,1777.699999988079,729118.0,7129,NNB,C,8
7,test,5,0.0,2-Back,1,m,Fri Apr 18 2025 14:19:12 GMT-0500 (Central Daylight Time),732794.900000006,006_m_f_n_a.png,O,m,877,11,1,1891.7000000178814,730903.1999999881,7129,NNB,C,9
8,test,5,0.0,2-Back,1,m,Fri Apr 18 2025 14:19:12 GMT-0500 (Central Daylight Time),734695.3000000119,092_m_m_n_a.png,O,m,867,12,1,1893.6000000238419,732801.6999999881,7129,NNB,C,10
9,test,5,0.0,2-Back,1,m,Fri Apr 18 2025 14:19:12 GMT-0500 (Central Daylight Time),737077.5,146_o_m_n_a.png,O,m,1351,13,1,2375.300000011921,734702.1999999881,7129,NNB,C,11
10,test,5,1.0,2-Back,1,z,Fri Apr 18 2025 14:19:12 GMT-0500 (Central Daylight Time),739242.3000000119,092_m_m_n_a.png,O,z,1143,14,1,2159.4000000059605,737082.900000006,7129,NNB,C,12
11,test,5,0.0,2-Back,1,m,Fri Apr 18 2025 14:19:12 GMT-0500 (Central Daylight Time),741192.599999994,098_y_f_n_a.png,O,m,929,15,1,1944.2999999821186,739248.3000000119,7129,NNB,C,13
12,test,5,0.0,2-Back,1,m,Fri Apr 18 2025 14:19:12 GMT-0500 (Central Daylight Time),742991.900000006,059_o_m_n_a.png,O,m,779,16,1,1792.7000000178814,741199.1999999881,7129,NNB,C,14
13,test,5,0.0,2-Back,1,m,Fri Apr 18 2025 14:19:12 GMT-0500 (Central Daylight Time),744874.8000000119,006_m_f_n_a.png,O,m,861,17,1,1877.300000011921,742997.5,7129,NNB,C,15
14,test,5,1.0,2-Back,1,z,Fri Apr 18 2025 14:19:12 GMT-0500 (Central Daylight Time),746706.599999994,059_o_m_n_a.png,O,z,810,18,1,1825.4000000059605,744881.1999999881,7129,NNB,C,16
