acc_sum,block,block_c,condition,correct,correct_response,datetime,endtime,flanker,jitter,project,response,response_test_buffer_response,response_test_target_response,response_time,response_time_test_buffer_response,response_time_test_target_response,row_sel,session_number,start_end,starttime,subject_id,target,task,task_vers,time_test_buffer,time_test_buffer_response,time_test_constants,time_test_flanker,time_test_jitter,time_test_logger,time_test_target,time_test_target_response,time_test_variables,trial
0,prac,1,con,0,m,Fri Apr 04 2025 13:58:07 GMT-0500 (Central Daylight Time),211082.1000000015,zinc,1000,I,None,,,1815,,,15,1,5079.10000000149,206003.0,7112,zinc,NF,C,,,,,,,,,,1
0,prac,1,inc,0,z,Fri Apr 04 2025 13:58:07 GMT-0500 (Central Daylight Time),213815.20000000298,cobalt,1100,I,m,,,320,,,4,1,2727.7000000029802,211087.5,7112,raisin,NF,C,,,,,,,,,,2
0,prac,1,con,0,m,Fri Apr 04 2025 13:58:07 GMT-0500 (Central Daylight Time),216311.6000000015,gold,800,I,z,,,398,,,13,1,2492.6999999955297,213818.90000000596,7112,gold,NF,C,,,,,,,,,,3
1,prac,1,inc,1,m,Fri Apr 04 2025 13:58:07 GMT-0500 (Central Daylight Time),219095.80000000447,raisin,1100,I,m,,,378,,,12,1,2779.0,216316.80000000447,7112,cobalt,NF,C,,,,,,,,,,4
1,prac,1,con,0,m,Fri Apr 04 2025 13:58:07 GMT-0500 (Central Daylight Time),223176.1000000015,silver,1000,I,z,,,1766,,,11,1,4074.89999999851,219101.20000000298,7112,silver,NF,C,,,,,,,,,,5
1,prac,1,inc,0,m,Fri Apr 04 2025 13:58:07 GMT-0500 (Central Daylight Time),226558.70000000298,pear,900,I,z,,,1165,,,14,1,3375.60000000149,223183.1000000015,7112,iron,NF,C,,,,,,,,,,6
2,prac,1,con,1,z,Fri Apr 04 2025 13:58:07 GMT-0500 (Central Daylight Time),228690.5,banana,800,I,z,,,30,,,1,1,2125.5,226565.0,7112,banana,NF,C,,,,,,,,,,7
3,prac,1,con,1,z,Fri Apr 04 2025 13:58:07 GMT-0500 (Central Daylight Time),230957.20000000298,lime,800,I,z,,,162,,,5,1,2259.7999999970198,228697.40000000596,7112,lime,NF,C,,,,,,,,,,8
3,prac,1,inc,0,z,Fri Apr 04 2025 13:58:07 GMT-0500 (Central Daylight Time),233356.5,copper,900,I,m,,,203,,,2,1,2393.5,230963.0,7112,cherry,NF,C,,,,,,,,,,9
3,prac,1,inc,0,z,Fri Apr 04 2025 13:58:07 GMT-0500 (Central Daylight Time),235836.20000000298,lead,1100,I,m,,,76,,,8,1,2472.0,233364.20000000298,7112,plum,NF,C,,,,,,,,,,10
4,prac,1,con,1,z,Fri Apr 04 2025 13:58:07 GMT-0500 (Central Daylight Time),238355.40000000596,orange,1000,I,z,,,232,,,3,1,2515.10000000149,235840.30000000447,7112,orange,NF,C,,,,,,,,,,11
4,prac,1,inc,0,m,Fri Apr 04 2025 13:58:07 GMT-0500 (Central Daylight Time),241070.80000000447,plum,1100,I,z,,,317,,,16,1,2709.60000000149,238361.20000000298,7112,lead,NF,C,,,,,,,,,,12
4,prac,1,inc,0,z,Fri Apr 04 2025 13:58:07 GMT-0500 (Central Daylight Time),244003.80000000447,iron,900,I,m,,,737,,,6,1,2927.60000000149,241076.20000000298,7112,pear,NF,C,,,,,,,,,,13
5,prac,1,con,1,m,Fri Apr 04 2025 13:58:07 GMT-0500 (Central Daylight Time),247119.20000000298,bronze,800,I,m,,,1001,,,9,1,3108.89999999851,244010.30000000447,7112,bronze,NF,C,,,,,,,,,,14
5,prac,1,inc,0,m,Fri Apr 04 2025 13:58:07 GMT-0500 (Central Daylight Time),249949.90000000596,cherry,900,I,z,,,624,,,10,1,2825.3000000044703,247124.6000000015,7112,copper,NF,C,,,,,,,,,,15
6,prac,1,con,1,z,Fri Apr 04 2025 13:58:07 GMT-0500 (Central Daylight Time),252782.40000000596,kiwi,1000,I,z,,,517,,,7,1,2824.8000000044703,249957.6000000015,7112,kiwi,NF,C,,,,,,,,,,16
0,prac,2,con,0,z,Fri Apr 04 2025 13:58:07 GMT-0500 (Central Daylight Time),301034.200000003,orange,1000,I,None,,,1800,,,3,1,5039.10000000149,295995.1000000015,7112,orange,NF,C,,,,,,,,,,1
0,prac,2,inc,0,m,Fri Apr 04 2025 13:58:07 GMT-0500 (Central Daylight Time),303885.200000003,plum,1100,I,z,,,446,,,16,1,2844.2000000029802,301041.0,7112,lead,NF,C,,,,,,,,,,2
1,prac,2,con,1,m,Fri Apr 04 2025 13:58:07 GMT-0500 (Central Daylight Time),306515.90000000596,gold,800,I,m,,,521,,,13,1,2624.5,303891.40000000596,7112,gold,NF,C,,,,,,,,,,3
1,prac,2,inc,0,z,Fri Apr 04 2025 13:58:07 GMT-0500 (Central Daylight Time),309465.40000000596,lead,1100,I,m,,,534,,,8,1,2942.10000000149,306523.30000000447,7112,plum,NF,C,,,,,,,,,,4
2,prac,2,con,1,z,Fri Apr 04 2025 13:58:07 GMT-0500 (Central Daylight Time),312098.1000000015,lime,800,I,z,,,523,,,5,1,2621.10000000149,309477.0,7112,lime,NF,C,,,,,,,,,,5
3,prac,2,inc,1,z,Fri Apr 04 2025 13:58:07 GMT-0500 (Central Daylight Time),315414.700000003,cobalt,1100,I,z,,,901,,,4,1,3309.89999999851,312104.80000000447,7112,raisin,NF,C,,,,,,,,,,6
4,prac,2,inc,1,m,Fri Apr 04 2025 13:58:07 GMT-0500 (Central Daylight Time),318179.6000000015,pear,900,I,m,,,553,,,14,1,2759.5,315420.1000000015,7112,iron,NF,C,,,,,,,,,,7
5,prac,2,inc,1,m,Fri Apr 04 2025 13:58:07 GMT-0500 (Central Daylight Time),321179.30000000447,raisin,1100,I,m,,,599,,,12,1,2994.60000000149,318184.700000003,7112,cobalt,NF,C,,,,,,,,,,8
6,prac,2,con,1,z,Fri Apr 04 2025 13:58:07 GMT-0500 (Central Daylight Time),323810.90000000596,banana,800,I,z,,,521,,,1,1,2625.2000000029802,321185.700000003,7112,banana,NF,C,,,,,,,,,,9
7,prac,2,con,1,m,Fri Apr 04 2025 13:58:07 GMT-0500 (Central Daylight Time),326443.5,bronze,800,I,m,,,533,,,9,1,2624.5,323819.0,7112,bronze,NF,C,,,,,,,,,,10
7,prac,2,inc,0,m,Fri Apr 04 2025 13:58:07 GMT-0500 (Central Daylight Time),329144.80000000447,cherry,900,I,z,,,508,,,10,1,2694.60000000149,326450.200000003,7112,copper,NF,C,,,,,,,,,,11
8,prac,2,inc,1,z,Fri Apr 04 2025 13:58:07 GMT-0500 (Central Daylight Time),331875.200000003,copper,900,I,z,,,519,,,2,1,2724.60000000149,329150.6000000015,7112,cherry,NF,C,,,,,,,,,,12
8,prac,2,con,0,m,Fri Apr 04 2025 13:58:07 GMT-0500 (Central Daylight Time),334739.90000000596,silver,1000,I,z,,,564,,,11,1,2858.5,331881.40000000596,7112,silver,NF,C,,,,,,,,,,13
9,prac,2,inc,1,z,Fri Apr 04 2025 13:58:07 GMT-0500 (Central Daylight Time),337473.200000003,iron,900,I,z,,,524,,,6,1,2726.2999999970198,334746.90000000596,7112,pear,NF,C,,,,,,,,,,14
10,prac,2,con,1,z,Fri Apr 04 2025 13:58:07 GMT-0500 (Central Daylight Time),340305.5,kiwi,1000,I,z,,,525,,,7,1,2826.0999999940395,337479.40000000596,7112,kiwi,NF,C,,,,,,,,,,15
10,prac,2,con,0,m,Fri Apr 04 2025 13:58:07 GMT-0500 (Central Daylight Time),343071.6000000015,zinc,1000,I,z,,,460,,,15,1,2760.1999999955297,340311.40000000596,7112,zinc,NF,C,,,,,,,,,,16
0,test,1,con,0,z,Fri Apr 04 2025 13:58:07 GMT-0500 (Central Daylight Time),360949.0,plum,800,I,m,m,None,569,354.0,215.0,57,1,1912.5,359036.5,7112,plum,NF,C,349965,349965,348418,349231,348418,350330,349749,349749,350330,1
1,test,1,con,1,z,Fri Apr 04 2025 13:58:07 GMT-0500 (Central Daylight Time),362849.0,raisin,800,I,z,z,None,552,350.0,202.0,25,1,1893.7999999970198,360955.200000003,7112,raisin,NF,C,351865,351865,350336,351148,350337,352230,351663,351663,352230,2
2,test,1,con,1,z,Fri Apr 04 2025 13:58:07 GMT-0500 (Central Daylight Time),364747.0,lime,800,I,z,z,None,557,356.0,201.0,33,1,1892.5999999940395,362854.40000000596,7112,lime,NF,C,353763,353763,352235,353047,352236,354128,353562,353562,354128,3
2,test,1,con,0,m,Fri Apr 04 2025 13:58:07 GMT-0500 (Central Daylight Time),366499.200000003,iron,800,I,z,z,None,417,218.0,199.0,105,1,1746.2999999970198,364752.90000000596,7112,iron,NF,C,355662,355662,354134,354947,354134,355880,355463,355463,355880,4
3,test,1,inc,1,z,Fri Apr 04 2025 13:58:07 GMT-0500 (Central Daylight Time),368530.1000000015,iron,900,I,z,z,None,593,392.0,201.0,54,1,2026.5,366503.6000000015,7112,kiwi,NF,C,357512,357512,355885,356795,355885,357911,357311,357311,357911,5
4,test,1,inc,1,z,Fri Apr 04 2025 13:58:07 GMT-0500 (Central Daylight Time),370496.0,copper,900,I,z,z,None,517,302.0,215.0,6,1,1961.0,368535.0,7112,banana,NF,C,359561,359561,357916,358828,357916,359877,359345,359345,359877,6
5,test,1,con,1,z,Fri Apr 04 2025 13:58:07 GMT-0500 (Central Daylight Time),372628.5,banana,1100,I,z,z,None,487,288.0,199.0,4,1,2127.5999999940395,370500.90000000596,7112,banana,NF,C,361711,361711,359882,360994,359882,362010,361511,361511,362010,7
6,test,1,inc,1,z,Fri Apr 04 2025 13:58:07 GMT-0500 (Central Daylight Time),374760.6000000015,cobalt,1100,I,z,z,None,491,292.0,199.0,16,1,2125.89999999851,372634.700000003,7112,cherry,NF,C,363844,363844,362016,363128,362016,364142,363644,363644,364142,8
7,test,1,con,1,m,Fri Apr 04 2025 13:58:07 GMT-0500 (Central Daylight Time),376795.40000000596,silver,1000,I,m,m,None,500,300.0,200.0,83,1,2030.1000000014901,374765.30000000447,7112,silver,NF,C,365876,365876,364146,365159,364147,366176,365675,365675,366176,9
8,test,1,con,1,z,Fri Apr 04 2025 13:58:07 GMT-0500 (Central Daylight Time),378844.700000003,banana,900,I,z,z,None,616,401.0,215.0,2,1,2044.0,376800.700000003,7112,banana,NF,C,367824,367824,366182,367090,366182,368226,367609,367609,368226,10
9,test,1,inc,1,z,Fri Apr 04 2025 13:58:07 GMT-0500 (Central Daylight Time),380693.0,gold,800,I,z,z,None,516,315.0,201.0,61,1,1843.3999999985099,378849.6000000015,7112,plum,NF,C,369758,369758,368231,369042,368231,370074,369557,369557,370074,11
10,test,1,con,1,m,Fri Apr 04 2025 13:58:07 GMT-0500 (Central Daylight Time),382725.200000003,lead,1000,I,m,m,None,497,298.0,199.0,123,1,2027.3999999985099,380697.80000000447,7112,lead,NF,C,371808,371808,370079,371091,370079,372106,371608,371608,372106,12
11,test,1,inc,1,m,Fri Apr 04 2025 13:58:07 GMT-0500 (Central Daylight Time),384808.200000003,plum,1100,I,m,m,None,434,234.0,200.0,120,1,2078.7000000029802,382729.5,7112,zinc,NF,C,373941,373941,372111,373223,372111,374189,373740,373740,374189,13
12,test,1,inc,1,m,Fri Apr 04 2025 13:58:07 GMT-0500 (Central Daylight Time),386973.30000000447,plum,1100,I,m,m,None,536,320.0,216.0,104,1,2159.7000000029802,384813.6000000015,7112,gold,NF,C,376023,376023,374195,375305,374195,376354,375806,375806,376354,14
13,test,1,inc,1,z,Fri Apr 04 2025 13:58:07 GMT-0500 (Central Daylight Time),389173.6000000015,lead,1100,I,z,z,None,554,355.0,199.0,48,1,2194.7999999970198,386978.80000000447,7112,pear,NF,C,378189,378189,376360,377472,376360,378555,377989,377989,378555,15
14,test,1,inc,1,m,Fri Apr 04 2025 13:58:07 GMT-0500 (Central Daylight Time),391289.200000003,kiwi,1000,I,m,m,None,591,392.0,199.0,127,1,2110.7999999970198,389178.40000000596,7112,lead,NF,C,380271,380271,378559,379569,378560,380670,380071,380071,380670,16
14,test,1,con,0,m,Fri Apr 04 2025 13:58:07 GMT-0500 (Central Daylight Time),393522.6000000015,gold,1100,I,z,z,None,592,392.0,200.0,100,1,2228.39999999851,391294.200000003,7112,gold,NF,C,382504,382504,380675,381788,380676,382904,382304,382304,382904,17
14,test,1,con,0,z,Fri Apr 04 2025 13:58:07 GMT-0500 (Central Daylight Time),395271.200000003,kiwi,800,I,m,m,None,412,211.0,201.0,49,1,1741.7000000029802,393529.5,7112,kiwi,NF,C,384437,384437,382911,383721,382911,384652,384236,384236,384652,18
15,test,1,inc,1,z,Fri Apr 04 2025 13:58:07 GMT-0500 (Central Daylight Time),397220.80000000447,zinc,1000,I,z,z,None,406,205.0,201.0,63,1,1944.8999999985099,395275.90000000596,7112,plum,NF,C,386387,386387,384657,385670,384657,386602,386185,386185,386602,19
16,test,1,inc,1,m,Fri Apr 04 2025 13:58:07 GMT-0500 (Central Daylight Time),399136.6000000015,pear,900,I,m,m,None,467,267.0,200.0,110,1,1909.5,397227.1000000015,7112,iron,NF,C,388236,388236,386608,387520,386609,388518,388035,388035,388518,20
17,test,1,inc,1,z,Fri Apr 04 2025 13:58:07 GMT-0500 (Central Daylight Time),401100.700000003,bronze,800,I,z,z,None,628,427.0,201.0,5,1,1957.7999999970198,399142.90000000596,7112,banana,NF,C,390051,390051,388524,389335,388524,390482,389850,389850,390482,21
17,test,1,con,0,m,Fri Apr 04 2025 13:58:07 GMT-0500 (Central Daylight Time),403001.700000003,iron,900,I,z,z,None,458,242.0,216.0,106,1,1898.3999999985099,401103.30000000447,7112,iron,NF,C,392134,392134,390484,391401,390485,392383,391918,391918,392383,22
17,test,1,con,0,z,Fri Apr 04 2025 13:58:07 GMT-0500 (Central Daylight Time),405034.80000000447,kiwi,900,I,m,m,None,592,392.0,200.0,50,1,2028.3000000044703,403006.5,7112,kiwi,NF,C,394015,394015,392388,393303,392388,394416,393815,393815,394416,23
18,test,1,inc,1,m,Fri Apr 04 2025 13:58:07 GMT-0500 (Central Daylight Time),406933.90000000596,lime,800,I,m,m,None,562,360.0,202.0,109,1,1895.5,405038.40000000596,7112,iron,NF,C,395951,395951,394419,395232,394420,396315,395749,395749,396315,24
19,test,1,inc,1,z,Fri Apr 04 2025 13:58:07 GMT-0500 (Central Daylight Time),409183.700000003,zinc,1000,I,z,z,None,702,501.0,201.0,39,1,2243.89999999851,406939.80000000447,7112,lime,NF,C,398050,398050,396321,397332,396321,398565,397848,397848,398565,25
20,test,1,inc,1,z,Fri Apr 04 2025 13:58:07 GMT-0500 (Central Daylight Time),411399.5,zinc,1000,I,z,z,None,678,476.0,202.0,47,1,2209.5,409190.0,7112,pear,NF,C,400299,400299,398571,399582,398571,400781,400097,400097,400780,26
21,test,1,con,1,z,Fri Apr 04 2025 13:58:07 GMT-0500 (Central Daylight Time),413497.5,plum,900,I,z,z,None,657,457.0,200.0,58,1,2091.1999999955297,411406.30000000447,7112,plum,NF,C,402415,402415,400787,401698,400788,402879,402214,402214,402879,27
22,test,1,inc,1,m,Fri Apr 04 2025 13:58:07 GMT-0500 (Central Daylight Time),415532.1000000015,pear,900,I,m,m,None,589,390.0,199.0,118,1,2029.1000000014901,413503.0,7112,zinc,NF,C,404514,404514,402884,403797,402884,404913,404315,404315,404913,28
23,test,1,inc,1,m,Fri Apr 04 2025 13:58:07 GMT-0500 (Central Daylight Time),417463.80000000447,banana,800,I,m,m,None,591,391.0,200.0,93,1,1925.3000000044703,415538.5,7112,cobalt,NF,C,406448,406448,404920,405729,404920,406845,406247,406247,406845,29
24,test,1,con,1,m,Fri Apr 04 2025 13:58:07 GMT-0500 (Central Daylight Time),419647.0,iron,1000,I,m,m,None,646,446.0,200.0,107,1,2179.1999999955297,417467.80000000447,7112,iron,NF,C,408577,408577,406849,407864,406849,409028,408376,408376,409028,30
25,test,1,inc,1,m,Fri Apr 04 2025 13:58:07 GMT-0500 (Central Daylight Time),421781.1000000015,orange,1000,I,m,m,None,601,400.0,201.0,87,1,2129.60000000149,419651.5,7112,silver,NF,C,410762,410762,409033,410045,409033,411162,410561,410561,411162,31
26,test,1,inc,1,m,Fri Apr 04 2025 13:58:07 GMT-0500 (Central Daylight Time),423895.0,orange,1000,I,m,m,None,578,378.0,200.0,95,1,2109.5,421785.5,7112,cobalt,NF,C,412894,412894,411167,412177,411167,413276,412694,412694,413276,32
27,test,1,inc,1,m,Fri Apr 04 2025 13:58:07 GMT-0500 (Central Daylight Time),425878.200000003,pear,900,I,m,m,None,537,338.0,199.0,126,1,1979.1000000014901,423899.1000000015,7112,lead,NF,C,414909,414909,413280,414197,413280,415259,414709,414709,415259,33
28,test,1,con,1,z,Fri Apr 04 2025 13:58:07 GMT-0500 (Central Daylight Time),427911.6000000015,cherry,900,I,z,z,None,585,386.0,199.0,10,1,2028.3999999985099,425883.200000003,7112,cherry,NF,C,416893,416893,415264,416177,415265,417293,416694,416694,417293,34
28,test,1,con,0,z,Fri Apr 04 2025 13:58:07 GMT-0500 (Central Daylight Time),430211.90000000596,lime,1100,I,m,m,None,649,450.0,199.0,36,1,2295.3000000044703,427916.6000000015,7112,lime,NF,C,419126,419126,417298,418410,417298,419593,418926,418926,419593,35
29,test,1,con,1,z,Fri Apr 04 2025 13:58:07 GMT-0500 (Central Daylight Time),432241.30000000447,orange,800,I,z,z,None,706,507.0,199.0,17,1,2023.8999999985099,430217.40000000596,7112,orange,NF,C,421108,421108,419598,420407,419599,421622,420909,420909,421622,36
30,test,1,con,1,m,Fri Apr 04 2025 13:58:07 GMT-0500 (Central Daylight Time),434491.80000000447,copper,1100,I,m,m,None,630,415.0,215.0,76,1,2247.2000000029802,432244.6000000015,7112,copper,NF,C,423457,423457,421626,422741,421626,423873,423242,423242,423873,37
31,test,1,inc,1,z,Fri Apr 04 2025 13:58:07 GMT-0500 (Central Daylight Time),436640.90000000596,copper,900,I,z,z,None,709,508.0,201.0,14,1,2143.0,434497.90000000596,7112,cherry,NF,C,425507,425507,423879,424793,423879,426022,425306,425306,426022,38
32,test,1,inc,1,m,Fri Apr 04 2025 13:58:07 GMT-0500 (Central Daylight Time),438708.0,cherry,900,I,m,m,None,632,432.0,200.0,94,1,2063.0,436645.0,7112,cobalt,NF,C,427657,427657,426026,426941,426026,428089,427457,427457,428089,39
32,test,1,inc,0,m,Fri Apr 04 2025 13:58:07 GMT-0500 (Central Daylight Time),440839.90000000596,kiwi,1000,I,z,z,None,592,392.0,200.0,111,1,2127.9000000059605,438712.0,7112,iron,NF,C,429823,429823,428093,429107,428093,430221,429622,429622,430221,40
33,test,1,con,1,m,Fri Apr 04 2025 13:58:07 GMT-0500 (Central Daylight Time),442873.1000000015,zinc,900,I,m,m,None,583,366.0,217.0,114,1,2028.3999999985099,440844.700000003,7112,zinc,NF,C,431873,431873,430226,431138,430226,432254,431656,431656,432254,41
34,test,1,inc,1,m,Fri Apr 04 2025 13:58:07 GMT-0500 (Central Daylight Time),445105.6000000015,orange,1000,I,m,m,None,692,491.0,201.0,71,1,2228.10000000149,442877.5,7112,bronze,NF,C,433989,433989,432259,433271,432259,434487,433787,433787,434487,42
34,test,1,con,0,z,Fri Apr 04 2025 13:58:07 GMT-0500 (Central Daylight Time),447204.200000003,raisin,1000,I,m,m,None,560,346.0,214.0,27,1,2095.39999999851,445108.80000000447,7112,raisin,NF,C,436237,436237,434490,435504,434490,436585,436022,436022,436585,43
35,test,1,inc,1,m,Fri Apr 04 2025 13:58:07 GMT-0500 (Central Daylight Time),449188.5,lime,800,I,m,m,None,664,450.0,214.0,101,1,1978.8999999985099,447209.6000000015,7112,gold,NF,C,438119,438119,436591,437402,436591,438570,437905,437905,438570,44
36,test,1,inc,1,z,Fri Apr 04 2025 13:58:07 GMT-0500 (Central Daylight Time),451670.40000000596,lead,1100,I,z,z,None,839,640.0,199.0,56,1,2477.4000000059605,449193.0,7112,kiwi,NF,C,440400,440400,438574,439686,438574,441051,440201,440201,441051,45
37,test,1,inc,1,m,Fri Apr 04 2025 13:58:07 GMT-0500 (Central Daylight Time),453636.200000003,lime,800,I,m,m,None,638,424.0,214.0,125,1,1961.0,451675.200000003,7112,lead,NF,C,442583,442583,441056,441867,441057,443017,442368,442369,443017,46
38,test,1,con,1,z,Fri Apr 04 2025 13:58:07 GMT-0500 (Central Daylight Time),455585.80000000447,pear,800,I,z,z,None,600,400.0,200.0,41,1,1945.2000000029802,453640.6000000015,7112,pear,NF,C,444551,444551,443022,443834,443022,444967,444351,444351,444967,47
39,test,1,inc,1,m,Fri Apr 04 2025 13:58:07 GMT-0500 (Central Daylight Time),457885.80000000447,plum,1100,I,m,m,None,655,455.0,200.0,112,1,2295.10000000149,455590.700000003,7112,iron,NF,C,446801,446801,444972,446084,444972,447267,446601,446601,447267,48
40,test,1,inc,1,m,Fri Apr 04 2025 13:58:07 GMT-0500 (Central Daylight Time),460217.80000000447,cherry,900,I,m,m,None,891,692.0,199.0,78,1,2326.89999999851,457890.90000000596,7112,copper,NF,C,448900,448900,447272,448184,447272,449599,448700,448700,449599,49
41,test,1,con,1,m,Fri Apr 04 2025 13:58:07 GMT-0500 (Central Daylight Time),462416.90000000596,bronze,1000,I,m,m,None,675,476.0,199.0,67,1,2195.5,460221.40000000596,7112,bronze,NF,C,451315,451315,449602,450614,449603,451798,451116,451116,451798,50
41,test,1,con,0,m,Fri Apr 04 2025 13:58:07 GMT-0500 (Central Daylight Time),464333.0,silver,900,I,z,z,None,471,272.0,199.0,82,1,1912.0,462421.0,7112,silver,NF,C,453431,453431,451802,452715,451802,453714,453231,453231,453714,51
42,test,1,inc,1,m,Fri Apr 04 2025 13:58:07 GMT-0500 (Central Daylight Time),466548.30000000447,kiwi,1000,I,m,m,None,671,471.0,200.0,119,1,2210.3000000044703,464338.0,7112,zinc,NF,C,455448,455448,453719,454731,453719,455929,455247,455247,455929,52
43,test,1,inc,1,m,Fri Apr 04 2025 13:58:07 GMT-0500 (Central Daylight Time),468698.5,orange,1000,I,m,m,None,613,400.0,213.0,79,1,2145.89999999851,466552.6000000015,7112,copper,NF,C,457663,457663,455934,456947,455934,458080,457449,457449,458079,53
44,test,1,inc,1,m,Fri Apr 04 2025 13:58:07 GMT-0500 (Central Daylight Time),470746.80000000447,pear,900,I,m,m,None,606,388.0,218.0,102,1,2042.7000000029802,468704.1000000015,7112,gold,NF,C,459731,459731,458085,458997,458086,460128,459513,459513,460128,54
45,test,1,inc,1,z,Fri Apr 04 2025 13:58:07 GMT-0500 (Central Daylight Time),472780.5,bronze,800,I,z,z,None,688,489.0,199.0,13,1,2029.3999999985099,470751.1000000015,7112,cherry,NF,C,461662,461662,460132,460946,460133,462162,461463,461463,462162,55
46,test,1,inc,1,m,Fri Apr 04 2025 13:58:07 GMT-0500 (Central Daylight Time),474845.90000000596,banana,800,I,m,m,None,735,520.0,215.0,85,1,2061.0,472784.90000000596,7112,silver,NF,C,463695,463695,462166,462977,462166,464227,463479,463479,464227,56
46,test,1,con,0,z,Fri Apr 04 2025 13:58:07 GMT-0500 (Central Daylight Time),477078.5,lime,1000,I,m,m,None,696,496.0,200.0,35,1,2228.1999999955297,474850.30000000447,7112,lime,NF,C,465960,465960,464231,465244,464232,466460,465760,465760,466459,57
47,test,1,inc,1,m,Fri Apr 04 2025 13:58:07 GMT-0500 (Central Daylight Time),479329.0,raisin,1100,I,m,m,None,602,386.0,216.0,80,1,2246.2999999970198,477082.700000003,7112,copper,NF,C,468309,468309,466464,467578,466464,468710,468093,468093,468710,58
48,test,1,inc,1,z,Fri Apr 04 2025 13:58:07 GMT-0500 (Central Daylight Time),481461.5,lead,1100,I,z,z,None,487,272.0,215.0,40,1,2128.0999999940395,479333.40000000596,7112,lime,NF,C,470559,470559,468714,469826,468715,470843,470343,470343,470843,59
49,test,1,con,1,m,Fri Apr 04 2025 13:58:07 GMT-0500 (Central Daylight Time),483461.0,copper,900,I,m,m,None,566,350.0,216.0,74,1,1994.7999999970198,481466.200000003,7112,copper,NF,C,472492,472492,470847,471760,470848,472842,472275,472275,472842,60
50,test,1,con,1,m,Fri Apr 04 2025 13:58:07 GMT-0500 (Central Daylight Time),485542.5,bronze,1100,I,m,m,None,436,237.0,199.0,68,1,2076.5999999940395,483465.90000000596,7112,bronze,NF,C,474674,474674,472847,473958,472847,474924,474474,474474,474923,61
51,test,1,con,1,z,Fri Apr 04 2025 13:58:07 GMT-0500 (Central Daylight Time),487425.5,banana,800,I,z,z,None,542,343.0,199.0,1,1,1878.5999999940395,485546.90000000596,7112,banana,NF,C,476456,476456,474928,475742,474928,476807,476257,476257,476807,62
52,test,1,inc,1,z,Fri Apr 04 2025 13:58:07 GMT-0500 (Central Daylight Time),489441.40000000596,gold,800,I,z,z,None,675,459.0,216.0,45,1,2011.4000000059605,487430.0,7112,pear,NF,C,478357,478357,476811,477623,476811,478822,478141,478141,478822,63
53,test,1,con,1,m,Fri Apr 04 2025 13:58:07 GMT-0500 (Central Daylight Time),491624.30000000447,iron,1100,I,m,m,None,534,335.0,199.0,108,1,2179.8000000044703,489444.5,7112,iron,NF,C,480656,480656,478826,479940,478826,481005,480457,480457,481005,64
54,test,1,con,1,z,Fri Apr 04 2025 13:58:07 GMT-0500 (Central Daylight Time),493825.200000003,banana,1000,I,z,z,None,661,462.0,199.0,3,1,2195.2999999970198,491629.90000000596,7112,banana,NF,C,482738,482738,481011,482023,481011,483206,482538,482538,483206,65
55,test,1,inc,1,z,Fri Apr 04 2025 13:58:07 GMT-0500 (Central Daylight Time),496022.40000000596,silver,1000,I,z,z,None,664,462.0,202.0,15,1,2193.0,493829.40000000596,7112,cherry,NF,C,484937,484937,483210,484221,483211,485403,484735,484735,485403,66
56,test,1,con,1,m,Fri Apr 04 2025 13:58:07 GMT-0500 (Central Daylight Time),497939.200000003,zinc,800,I,m,m,None,581,382.0,199.0,113,1,1912.2999999970198,496026.90000000596,7112,zinc,NF,C,486921,486921,485408,486221,485408,487320,486722,486722,487320,67
57,test,1,con,1,z,Fri Apr 04 2025 13:58:07 GMT-0500 (Central Daylight Time),500054.90000000596,raisin,900,I,z,z,None,667,453.0,214.0,26,1,2109.10000000149,497945.80000000447,7112,raisin,NF,C,488970,488970,487327,488238,487327,489436,488755,488755,489436,68
58,test,1,inc,1,z,Fri Apr 04 2025 13:58:07 GMT-0500 (Central Daylight Time),502154.5,silver,1000,I,z,z,None,557,358.0,199.0,23,1,2094.39999999851,500060.1000000015,7112,orange,NF,C,491170,491170,489441,490453,489441,491536,490970,490970,491536,69
59,test,1,con,1,m,Fri Apr 04 2025 13:58:07 GMT-0500 (Central Daylight Time),504069.40000000596,silver,800,I,m,m,None,568,353.0,215.0,81,1,1910.6000000014901,502158.80000000447,7112,silver,NF,C,493086,493086,491540,492353,491540,493451,492870,492870,493450,70
60,test,1,con,1,z,Fri Apr 04 2025 13:58:07 GMT-0500 (Central Daylight Time),506186.1000000015,cherry,1000,I,z,z,None,589,375.0,214.0,11,1,2112.0,504074.1000000015,7112,cherry,NF,C,495184,495184,493455,494468,493455,495567,494970,494970,495567,71
61,test,1,inc,1,z,Fri Apr 04 2025 13:58:07 GMT-0500 (Central Daylight Time),508451.700000003,cobalt,1100,I,z,z,None,620,405.0,215.0,24,1,2260.10000000149,506191.6000000015,7112,orange,NF,C,497418,497418,495573,496685,495573,497833,497202,497202,497833,72
62,test,1,inc,1,z,Fri Apr 04 2025 13:58:07 GMT-0500 (Central Daylight Time),510469.80000000447,bronze,800,I,z,z,None,700,501.0,199.0,29,1,2012.6000000014901,508457.200000003,7112,raisin,NF,C,499350,499350,497838,498649,497838,499851,499151,499151,499851,73
63,test,1,con,1,m,Fri Apr 04 2025 13:58:07 GMT-0500 (Central Daylight Time),512468.700000003,lead,900,I,m,m,None,567,367.0,200.0,122,1,1994.2999999970198,510474.40000000596,7112,lead,NF,C,501482,501482,499855,500766,499856,501850,501282,501282,501850,74
63,test,1,con,0,m,Fri Apr 04 2025 13:58:07 GMT-0500 (Central Daylight Time),514599.30000000447,copper,1000,I,z,z,None,600,385.0,215.0,75,1,2126.8000000044703,512472.5,7112,copper,NF,C,503582,503582,501854,502866,501854,503980,503367,503367,503980,75
63,test,1,inc,0,z,Fri Apr 04 2025 13:58:07 GMT-0500 (Central Daylight Time),516599.40000000596,iron,900,I,m,m,None,550,351.0,199.0,62,1,1994.4000000059605,514605.0,7112,plum,NF,C,505616,505616,503986,504898,503986,505980,505416,505416,505980,76
64,test,1,inc,1,m,Fri Apr 04 2025 13:58:07 GMT-0500 (Central Daylight Time),519065.6000000015,raisin,1100,I,m,m,None,848,633.0,215.0,88,1,2460.39999999851,516605.200000003,7112,silver,NF,C,507814,507814,505986,507098,505987,508447,507599,507599,508447,77
64,test,1,con,0,m,Fri Apr 04 2025 13:58:07 GMT-0500 (Central Daylight Time),521113.90000000596,bronze,900,I,z,z,None,623,423.0,200.0,66,1,2045.5,519068.40000000596,7112,bronze,NF,C,510064,510064,508449,509362,508450,510495,509864,509864,510495,78
65,test,1,inc,1,z,Fri Apr 04 2025 13:58:07 GMT-0500 (Central Daylight Time),523047.1000000015,bronze,800,I,z,z,None,586,387.0,199.0,21,1,1929.1999999955297,521117.90000000596,7112,orange,NF,C,512028,512028,510499,511313,510499,512428,511829,511829,512428,79
66,test,1,inc,1,m,Fri Apr 04 2025 13:58:07 GMT-0500 (Central Daylight Time),525265.1000000015,raisin,1100,I,m,m,None,569,369.0,200.0,72,1,2214.89999999851,523050.200000003,7112,bronze,NF,C,514262,514262,512431,513547,512431,514646,514062,514062,514646,80
67,test,1,con,1,m,Fri Apr 04 2025 13:58:07 GMT-0500 (Central Daylight Time),527361.400000006,copper,800,I,m,m,None,756,540.0,216.0,73,1,2089.2000000029802,525272.200000003,7112,copper,NF,C,516195,516195,514653,515462,514653,516742,515979,515979,516742,81
68,test,1,con,1,m,Fri Apr 04 2025 13:58:07 GMT-0500 (Central Daylight Time),529613.1000000015,zinc,1000,I,m,m,None,703,502.0,201.0,115,1,2246.2999999970198,527366.8000000045,7112,zinc,NF,C,518478,518478,516748,517761,516748,518994,518277,518277,518994,82
69,test,1,inc,1,z,Fri Apr 04 2025 13:58:07 GMT-0500 (Central Daylight Time),531611.700000003,iron,900,I,z,z,None,558,358.0,200.0,38,1,1993.7999999970198,529617.900000006,7112,lime,NF,C,520626,520626,518999,519911,518999,520993,520426,520426,520993,83
70,test,1,inc,1,z,Fri Apr 04 2025 13:58:07 GMT-0500 (Central Daylight Time),533960.8000000045,silver,1000,I,z,z,None,802,601.0,201.0,7,1,2344.2000000029802,531616.6000000015,7112,banana,NF,C,522726,522726,520998,522011,520998,523342,522525,522525,523342,84
71,test,1,con,1,m,Fri Apr 04 2025 13:58:07 GMT-0500 (Central Daylight Time),536060.3000000045,gold,900,I,m,m,None,656,456.0,200.0,98,1,2095.3000000044703,533965.0,7112,gold,NF,C,524975,524975,523346,524258,523346,525441,524775,524775,525441,85
72,test,1,con,1,z,Fri Apr 04 2025 13:58:07 GMT-0500 (Central Daylight Time),538078.1000000015,pear,1000,I,z,z,None,499,285.0,214.0,43,1,2012.3999999985099,536065.700000003,7112,pear,NF,C,527174,527174,525447,526458,525447,527459,526960,526960,527459,86
73,test,1,con,1,m,Fri Apr 04 2025 13:58:07 GMT-0500 (Central Daylight Time),540274.8000000045,zinc,1100,I,m,m,None,556,339.0,217.0,116,1,2192.39999999851,538082.400000006,7112,zinc,NF,C,529308,529308,527463,528576,527464,529656,529091,529091,529656,87
74,test,1,con,1,m,Fri Apr 04 2025 13:58:07 GMT-0500 (Central Daylight Time),542124.900000006,bronze,800,I,m,m,None,506,306.0,200.0,65,1,1844.9000000059605,540280.0,7112,bronze,NF,C,531190,531190,529661,530474,529661,531506,530990,530990,531506,88
75,test,1,con,1,z,Fri Apr 04 2025 13:58:07 GMT-0500 (Central Daylight Time),544291.0,plum,1100,I,z,z,None,531,332.0,199.0,60,1,2161.89999999851,542129.1000000015,7112,plum,NF,C,533340,533340,531510,532625,531510,533672,533140,533140,533672,89
76,test,1,con,1,m,Fri Apr 04 2025 13:58:07 GMT-0500 (Central Daylight Time),546322.700000003,cobalt,900,I,m,m,None,589,374.0,215.0,90,1,2024.3999999985099,544298.3000000045,7112,cobalt,NF,C,535322,535322,533679,534591,533680,535704,535106,535106,535704,90
77,test,1,inc,1,z,Fri Apr 04 2025 13:58:07 GMT-0500 (Central Daylight Time),548356.200000003,copper,900,I,z,z,None,589,390.0,199.0,22,1,2029.1000000014901,546327.1000000015,7112,orange,NF,C,537338,537338,535708,536622,535708,537737,537138,537138,537737,91
78,test,1,con,1,z,Fri Apr 04 2025 13:58:07 GMT-0500 (Central Daylight Time),550303.700000003,pear,900,I,z,z,None,506,289.0,217.0,42,1,1943.7000000029802,548360.0,7112,pear,NF,C,539389,539389,537741,538655,537741,539685,539171,539171,539685,92
79,test,1,con,1,z,Fri Apr 04 2025 13:58:07 GMT-0500 (Central Daylight Time),552437.1000000015,kiwi,1100,I,z,z,None,501,286.0,215.0,52,1,2129.5,550307.6000000015,7112,kiwi,NF,C,541522,541522,539689,540803,539689,541818,541306,541306,541818,93
80,test,1,inc,1,m,Fri Apr 04 2025 13:58:07 GMT-0500 (Central Daylight Time),554619.8000000045,plum,1100,I,m,m,None,548,346.0,202.0,128,1,2177.10000000149,552442.700000003,7112,lead,NF,C,543653,543654,541824,542936,541824,544001,543451,543451,544001,94
81,test,1,con,1,z,Fri Apr 04 2025 13:58:07 GMT-0500 (Central Daylight Time),556652.700000003,orange,1000,I,z,z,None,489,289.0,200.0,19,1,2027.2000000029802,554625.5,7112,orange,NF,C,545735,545735,544007,545018,544007,546034,545535,545535,546034,95
81,test,1,con,0,z,Fri Apr 04 2025 13:58:07 GMT-0500 (Central Daylight Time),558852.5,raisin,1100,I,m,m,None,554,355.0,199.0,28,1,2195.2999999970198,556657.200000003,7112,raisin,NF,C,547868,547868,546038,547152,546039,548234,547668,547668,548234,96
82,test,1,inc,1,m,Fri Apr 04 2025 13:58:07 GMT-0500 (Central Daylight Time),560835.6000000015,cherry,900,I,m,m,None,538,324.0,214.0,86,1,1978.1000000014901,558857.5,7112,silver,NF,C,549884,549884,548239,549151,548239,550217,549669,549669,550217,97
83,test,1,con,1,m,Fri Apr 04 2025 13:58:07 GMT-0500 (Central Daylight Time),563016.3000000045,cobalt,1000,I,m,m,None,635,434.0,201.0,91,1,2176.5,560839.8000000045,7112,cobalt,NF,C,551948,551948,550221,551234,550221,552397,551747,551747,552397,98
83,test,1,inc,0,m,Fri Apr 04 2025 13:58:07 GMT-0500 (Central Daylight Time),564835.1000000015,banana,800,I,z,z,None,482,283.0,199.0,77,1,1815.6000000014901,563019.5,7112,copper,NF,C,553933,553933,552401,553216,552401,554216,553733,553733,554216,99
84,test,1,con,1,z,Fri Apr 04 2025 13:58:07 GMT-0500 (Central Daylight Time),566733.6000000015,cherry,800,I,z,z,None,550,351.0,199.0,9,1,1893.1000000014901,564840.5,7112,cherry,NF,C,555747,555747,554222,555032,554222,556115,555548,555548,556115,100
85,test,1,inc,1,z,Fri Apr 04 2025 13:58:07 GMT-0500 (Central Daylight Time),568916.0,silver,1000,I,z,z,None,638,421.0,217.0,31,1,2177.39999999851,566738.6000000015,7112,raisin,NF,C,557866,557866,556120,557133,556120,558297,557648,557648,558297,101
86,test,1,con,1,z,Fri Apr 04 2025 13:58:07 GMT-0500 (Central Daylight Time),570898.1000000015,lime,900,I,z,z,None,555,355.0,200.0,34,1,1976.7999999970198,568921.3000000045,7112,lime,NF,C,559915,559916,558302,559214,558303,560279,559715,559715,560279,102
87,test,1,inc,1,m,Fri Apr 04 2025 13:58:07 GMT-0500 (Central Daylight Time),572865.200000003,banana,800,I,m,m,None,619,418.0,201.0,69,1,1962.7999999970198,570902.400000006,7112,bronze,NF,C,561814,561814,560283,561098,560284,562246,561613,561613,562246,103
88,test,1,inc,1,m,Fri Apr 04 2025 13:58:07 GMT-0500 (Central Daylight Time),574814.400000006,lime,800,I,m,m,None,629,430.0,199.0,117,1,1946.0,572868.400000006,7112,zinc,NF,C,563762,563762,562249,563062,562250,564195,563563,563563,564195,104
88,test,1,con,0,m,Fri Apr 04 2025 13:58:07 GMT-0500 (Central Daylight Time),576897.8000000045,silver,1100,I,z,z,None,434,234.0,200.0,84,1,2079.0,574818.8000000045,7112,silver,NF,C,566029,566029,564200,565311,564200,566279,565829,565829,566279,105
89,test,1,inc,1,m,Fri Apr 04 2025 13:58:07 GMT-0500 (Central Daylight Time),578931.1000000015,cherry,900,I,m,m,None,599,400.0,199.0,70,1,2029.1000000014901,576902.0,7112,bronze,NF,C,567912,567912,566283,567195,566283,568312,567713,567713,568312,106
90,test,1,con,1,m,Fri Apr 04 2025 13:58:07 GMT-0500 (Central Daylight Time),581095.8000000045,gold,1000,I,m,m,None,628,427.0,201.0,99,1,2161.10000000149,578934.700000003,7112,gold,NF,C,570045,570045,568316,569328,568316,570477,569844,569844,570477,107
90,test,1,con,0,z,Fri Apr 04 2025 13:58:07 GMT-0500 (Central Daylight Time),583144.900000006,plum,1000,I,m,m,None,525,325.0,200.0,59,1,2045.2000000029802,581099.700000003,7112,plum,NF,C,572194,572194,570481,571492,570481,572526,571994,571994,572526,108
91,test,1,con,1,z,Fri Apr 04 2025 13:58:07 GMT-0500 (Central Daylight Time),585710.700000003,kiwi,1000,I,z,z,None,1029,829.0,200.0,51,1,2561.2999999970198,583149.400000006,7112,kiwi,NF,C,574259,574259,572530,573544,572531,575092,574059,574059,575092,109
92,test,1,inc,1,z,Fri Apr 04 2025 13:58:07 GMT-0500 (Central Daylight Time),587943.400000006,lead,1100,I,z,z,None,594,394.0,200.0,64,1,2228.8000000044703,585714.6000000015,7112,plum,NF,C,576924,576925,575096,576208,575096,577324,576724,576724,577324,110
93,test,1,con,1,m,Fri Apr 04 2025 13:58:07 GMT-0500 (Central Daylight Time),589927.0,cobalt,800,I,m,m,None,660,460.0,200.0,89,1,1979.7999999970198,587947.200000003,7112,cobalt,NF,C,578843,578843,577328,578141,577328,579308,578643,578643,579308,111
94,test,1,inc,1,m,Fri Apr 04 2025 13:58:07 GMT-0500 (Central Daylight Time),592258.700000003,raisin,1100,I,m,m,None,684,484.0,200.0,96,1,2328.0,589930.700000003,7112,cobalt,NF,C,581140,581140,579312,580424,579312,581640,580940,580940,581640,112
94,test,1,inc,0,z,Fri Apr 04 2025 13:58:07 GMT-0500 (Central Daylight Time),594325.1000000015,iron,900,I,m,m,None,636,422.0,214.0,46,1,2062.0,592263.1000000015,7112,pear,NF,C,583273,583273,581644,582557,581644,583706,583059,583059,583706,113
95,test,1,inc,1,z,Fri Apr 04 2025 13:58:07 GMT-0500 (Central Daylight Time),596590.0,zinc,1000,I,z,z,None,727,511.0,216.0,55,1,2260.0999999940395,594329.900000006,7112,kiwi,NF,C,585457,585457,583711,584723,583711,585971,585240,585240,585971,114
96,test,1,con,1,z,Fri Apr 04 2025 13:58:07 GMT-0500 (Central Daylight Time),598473.400000006,orange,900,I,z,z,None,458,259.0,199.0,18,1,1879.4000000059605,596594.0,7112,orange,NF,C,587588,587588,585975,586888,585975,587854,587389,587389,587854,115
97,test,1,inc,1,z,Fri Apr 04 2025 13:58:07 GMT-0500 (Central Daylight Time),600740.0,cobalt,1100,I,z,z,None,633,432.0,201.0,32,1,2262.5999999940395,598477.400000006,7112,raisin,NF,C,589689,589689,587858,588972,587859,590121,589488,589488,590121,116
98,test,1,con,1,m,Fri Apr 04 2025 13:58:07 GMT-0500 (Central Daylight Time),602737.700000003,gold,800,I,m,m,None,656,440.0,216.0,97,1,1993.2000000029802,600744.5,7112,gold,NF,C,591671,591671,590126,590937,590126,592119,591454,591454,592119,117
98,test,1,con,0,m,Fri Apr 04 2025 13:58:07 GMT-0500 (Central Daylight Time),604837.3000000045,cobalt,1100,I,z,z,None,461,261.0,200.0,92,1,2094.8000000044703,602742.5,7112,cobalt,NF,C,593955,593955,592124,593236,592124,594218,593754,593754,594218,118
99,test,1,inc,1,z,Fri Apr 04 2025 13:58:07 GMT-0500 (Central Daylight Time),606919.700000003,gold,800,I,z,z,None,732,517.0,215.0,37,1,2078.60000000149,604841.1000000015,7112,lime,NF,C,595770,595770,594222,595036,594223,596301,595555,595555,596301,119
100,test,1,inc,1,z,Fri Apr 04 2025 13:58:07 GMT-0500 (Central Daylight Time),609303.900000006,cobalt,1100,I,z,z,None,745,544.0,201.0,8,1,2378.3000000044703,606925.6000000015,7112,banana,NF,C,598136,598136,596307,597419,596307,598685,597935,597935,598685,120
101,test,1,inc,1,m,Fri Apr 04 2025 13:58:07 GMT-0500 (Central Daylight Time),611502.3000000045,kiwi,1000,I,m,m,None,653,454.0,199.0,103,1,2194.60000000149,609307.700000003,7112,gold,NF,C,600417,600417,598689,599701,598689,600883,600218,600218,600883,121
102,test,1,con,1,z,Fri Apr 04 2025 13:58:07 GMT-0500 (Central Daylight Time),613801.200000003,cherry,1100,I,z,z,None,666,467.0,199.0,12,1,2294.0,611507.200000003,7112,cherry,NF,C,602701,602701,600888,602000,600889,603182,602501,602501,603182,122
103,test,1,con,1,z,Fri Apr 04 2025 13:58:07 GMT-0500 (Central Daylight Time),615901.5,pear,1100,I,z,z,None,455,254.0,201.0,44,1,2095.39999999851,613806.1000000015,7112,pear,NF,C,605017,605017,603187,604300,603187,605283,604816,604816,605283,123
104,test,1,con,1,m,Fri Apr 04 2025 13:58:07 GMT-0500 (Central Daylight Time),618216.400000006,lead,1100,I,m,m,None,667,468.0,199.0,124,1,2310.9000000059605,615905.5,7112,lead,NF,C,607115,607115,605287,606400,605287,607597,606916,606916,607597,124
105,test,1,con,1,m,Fri Apr 04 2025 13:58:07 GMT-0500 (Central Daylight Time),620249.200000003,lead,800,I,m,m,None,693,493.0,200.0,121,1,2028.0,618221.200000003,7112,lead,NF,C,609131,609131,607602,608416,607602,609630,608931,608931,609630,125
106,test,1,inc,1,z,Fri Apr 04 2025 13:58:07 GMT-0500 (Central Daylight Time),622233.5,copper,900,I,z,z,None,532,317.0,215.0,30,1,1979.2999999970198,620254.200000003,7112,raisin,NF,C,611282,611282,609635,610549,609636,611615,611066,611066,611614,126
107,test,1,inc,1,z,Fri Apr 04 2025 13:58:07 GMT-0500 (Central Daylight Time),624232.0,gold,800,I,z,z,None,660,461.0,199.0,53,1,1993.5999999940395,622238.400000006,7112,kiwi,NF,C,613147,613147,611619,612432,611620,613613,612948,612948,613613,127
108,test,1,con,1,z,Fri Apr 04 2025 13:58:07 GMT-0500 (Central Daylight Time),626381.900000006,orange,1100,I,z,z,None,516,316.0,200.0,20,1,2145.4000000059605,624236.5,7112,orange,NF,C,615446,615446,613618,614730,613618,615763,615246,615246,615763,128
