acc_sum,block,block_c,condition,correct,correct_response,datetime,endtime,flanker,jitter,project,response,response_test_buffer_response,response_test_target_response,response_time,response_time_test_buffer_response,response_time_test_target_response,row_sel,session_number,start_end,starttime,subject_id,target,task,task_vers,time_test_buffer,time_test_buffer_response,time_test_constants,time_test_flanker,time_test_jitter,time_test_logger,time_test_target,time_test_target_response,time_test_variables,trial
0,prac,1,con,0,z,Mon Mar 10 2025 17:23:01 GMT-0500 (Central Daylight Time),112300.59999996424,brutal,800,O,None,,,1801,,,13,1,4858.199999988079,107442.39999997616,7048,brutal,AF,C,,,,,,,,,,1
1,prac,1,inc,1,m,Mon Mar 10 2025 17:23:01 GMT-0500 (Central Daylight Time),115364.0,kind,900,O,m,,,852,,,2,1,3056.5,112307.5,7048,rock,AF,C,,,,,,,,,,2
2,prac,1,con,1,m,Mon Mar 10 2025 17:23:01 GMT-0500 (Central Daylight Time),118364.5,bell,1000,O,m,,,689,,,3,1,2997.0,115367.5,7048,bell,AF,C,,,,,,,,,,3
3,prac,1,inc,1,z,Mon Mar 10 2025 17:23:01 GMT-0500 (Central Daylight Time),121265.59999996424,rock,900,O,z,,,692,,,10,1,2893.800000011921,118371.79999995232,7048,kind,AF,C,,,,,,,,,,4
4,prac,1,con,1,m,Mon Mar 10 2025 17:23:01 GMT-0500 (Central Daylight Time),124530.39999997616,remote,1000,O,m,,,972,,,7,1,3258.199999988079,121272.19999998808,7048,remote,AF,C,,,,,,,,,,5
5,prac,1,con,1,z,Mon Mar 10 2025 17:23:01 GMT-0500 (Central Daylight Time),127829.39999997616,love,1000,O,z,,,987,,,11,1,3291.399999976158,124538.0,7048,love,AF,C,,,,,,,,,,6
6,prac,1,inc,1,m,Mon Mar 10 2025 17:23:01 GMT-0500 (Central Daylight Time),131011.29999995232,brutal,1100,O,m,,,771,,,8,1,3174.699999988079,127836.59999996424,7048,window,AF,C,,,,,,,,,,7
7,prac,1,con,1,m,Mon Mar 10 2025 17:23:01 GMT-0500 (Central Daylight Time),134062.89999997616,step,800,O,m,,,937,,,1,1,3045.800000011921,131017.09999996424,7048,step,AF,C,,,,,,,,,,8
8,prac,1,inc,1,z,Mon Mar 10 2025 17:23:01 GMT-0500 (Central Daylight Time),136925.79999995232,film,900,O,z,,,660,,,14,1,2859.0,134066.79999995232,7048,hate,AF,C,,,,,,,,,,9
9,prac,1,con,1,m,Mon Mar 10 2025 17:23:01 GMT-0500 (Central Daylight Time),139725.29999995232,jacket,800,O,m,,,686,,,5,1,2792.7999999523163,136932.5,7048,jacket,AF,C,,,,,,,,,,10
10,prac,1,inc,1,z,Mon Mar 10 2025 17:23:01 GMT-0500 (Central Daylight Time),142973.69999998808,napkin,1100,O,z,,,834,,,12,1,3241.800000011921,139731.89999997616,7048,friend,AF,C,,,,,,,,,,11
11,prac,1,inc,1,m,Mon Mar 10 2025 17:23:01 GMT-0500 (Central Daylight Time),146140.69999998808,hate,1100,O,m,,,779,,,4,1,3157.0,142983.69999998808,7048,film,AF,C,,,,,,,,,,12
11,prac,1,con,0,z,Mon Mar 10 2025 17:23:01 GMT-0500 (Central Daylight Time),149122.5,rage,1000,O,m,,,682,,,15,1,2972.2000000476837,146150.29999995232,7048,rage,AF,C,,,,,,,,,,13
12,prac,1,con,1,z,Mon Mar 10 2025 17:23:01 GMT-0500 (Central Daylight Time),152286.19999998808,elated,800,O,z,,,1075,,,9,1,3158.400000035763,149127.79999995232,7048,elated,AF,C,,,,,,,,,,14
13,prac,1,inc,1,m,Mon Mar 10 2025 17:23:01 GMT-0500 (Central Daylight Time),155187.29999995232,elated,900,O,m,,,712,,,6,1,2897.399999976158,152289.89999997616,7048,napkin,AF,C,,,,,,,,,,15
14,prac,1,inc,1,z,Mon Mar 10 2025 17:23:01 GMT-0500 (Central Daylight Time),158435.89999997616,window,1100,O,z,,,838,,,16,1,3244.0,155191.89999997616,7048,temper,AF,C,,,,,,,,,,16
1,test,1,inc,1,z,Mon Mar 10 2025 17:23:01 GMT-0500 (Central Daylight Time),172048.19999998808,napkin,900,O,z,z,None,860,661.0,199.0,6,1,2293.900000035763,169754.29999995232,7048,elated,AF,C,167706,167706,166078,166990,166079,168372,167507,167507,168372,1
2,test,1,inc,1,z,Mon Mar 10 2025 17:23:01 GMT-0500 (Central Daylight Time),174396.69999998808,bell,1000,O,z,z,None,804,605.0,199.0,55,1,2340.900000035763,172055.79999995232,7048,rage,AF,C,170106,170106,168380,169390,168380,170721,169906,169906,170721,2
3,test,1,inc,1,m,Mon Mar 10 2025 17:23:01 GMT-0500 (Central Daylight Time),176547.09999996424,temper,1000,O,m,m,None,608,408.0,200.0,111,1,2145.0,174402.09999996424,7048,napkin,AF,C,172456,172456,170726,171739,170727,172871,172255,172255,172871,3
4,test,1,con,1,z,Mon Mar 10 2025 17:23:01 GMT-0500 (Central Daylight Time),178530.79999995232,hate,800,O,z,z,None,647,435.0,212.0,41,1,1978.3999999761581,176552.39999997616,7048,hate,AF,C,174404,174404,172876,173688,172877,174855,174191,174191,174855,4
5,test,1,con,1,m,Mon Mar 10 2025 17:23:01 GMT-0500 (Central Daylight Time),181080.39999997616,step,1100,O,m,m,None,916,703.0,213.0,68,1,2543.899999976158,178536.5,7048,step,AF,C,176687,176687,174861,175971,174861,177404,176473,176473,177404,5
6,test,1,con,1,m,Mon Mar 10 2025 17:23:01 GMT-0500 (Central Daylight Time),183377.5,rock,1000,O,m,m,None,759,560.0,199.0,75,1,2293.7000000476837,181083.79999995232,7048,rock,AF,C,179136,179136,177408,178420,177408,179702,178936,178936,179701,6
7,test,1,inc,1,z,Mon Mar 10 2025 17:23:01 GMT-0500 (Central Daylight Time),185594.69999998808,rock,900,O,z,z,None,780,568.0,212.0,22,1,2212.100000023842,183382.59999996424,7048,love,AF,C,181335,181335,179707,180619,179707,181919,181122,181122,181919,7
8,test,1,con,1,m,Mon Mar 10 2025 17:23:01 GMT-0500 (Central Daylight Time),187910.0,film,1100,O,m,m,None,670,454.0,216.0,92,1,2309.400000035763,185600.59999996424,7048,film,AF,C,183769,183769,181925,183035,181925,184234,183552,183552,184234,8
9,test,1,inc,1,z,Mon Mar 10 2025 17:23:01 GMT-0500 (Central Daylight Time),190291.79999995232,window,1100,O,z,z,None,738,522.0,216.0,8,1,2375.099999964237,187916.69999998808,7048,elated,AF,C,186085,186085,184241,185351,184241,186616,185868,185868,186616,9
10,test,1,con,1,z,Mon Mar 10 2025 17:23:01 GMT-0500 (Central Daylight Time),192425.39999997616,love,1100,O,z,z,None,492,292.0,200.0,20,1,2130.100000023842,190295.29999995232,7048,love,AF,C,188451,188451,186619,187733,186620,188749,188250,188250,188749,10
11,test,1,con,1,z,Mon Mar 10 2025 17:23:01 GMT-0500 (Central Daylight Time),194408.59999996424,rage,900,O,z,z,None,561,361.0,200.0,50,1,1979.0,192429.59999996424,7048,rage,AF,C,190367,190367,188754,189665,188754,190733,190167,190167,190732,11
12,test,1,inc,1,z,Mon Mar 10 2025 17:23:01 GMT-0500 (Central Daylight Time),196889.29999995232,window,1100,O,z,z,None,841,642.0,199.0,40,1,2474.7999999523163,194414.5,7048,brutal,AF,C,192565,192565,190739,191850,190739,193213,192365,192365,193213,12
13,test,1,con,1,z,Mon Mar 10 2025 17:23:01 GMT-0500 (Central Daylight Time),199189.0,kind,1100,O,z,z,None,678,462.0,216.0,12,1,2294.7000000476837,196894.29999995232,7048,kind,AF,C,195049,195049,193218,194331,193219,195513,194833,194833,195513,13
14,test,1,con,1,m,Mon Mar 10 2025 17:23:01 GMT-0500 (Central Daylight Time),201840.5,remote,1000,O,m,m,None,1098,886.0,212.0,115,1,2644.600000023842,199195.89999997616,7048,remote,AF,C,197264,197264,195520,196532,195521,198165,197051,197051,198165,14
15,test,1,con,1,z,Mon Mar 10 2025 17:23:01 GMT-0500 (Central Daylight Time),203971.69999998808,friend,1100,O,z,z,None,491,291.0,200.0,28,1,2125.800000011921,201845.89999997616,7048,friend,AF,C,199996,199996,198170,199280,198170,200296,199795,199795,200296,15
16,test,1,con,1,z,Mon Mar 10 2025 17:23:01 GMT-0500 (Central Daylight Time),205989.0,brutal,900,O,z,z,None,583,383.0,200.0,34,1,2013.1000000238419,203975.89999997616,7048,brutal,AF,C,201930,201930,200300,201213,200300,202313,201729,201729,202313,16
17,test,1,inc,1,z,Mon Mar 10 2025 17:23:01 GMT-0500 (Central Daylight Time),208104.0,rock,900,O,z,z,None,670,470.0,200.0,54,1,2110.5,205993.5,7048,rage,AF,C,203945,203945,202318,203230,202318,204428,203745,203745,204428,17
18,test,1,inc,1,z,Mon Mar 10 2025 17:23:01 GMT-0500 (Central Daylight Time),210103.29999995232,step,800,O,z,z,None,653,453.0,200.0,45,1,1993.3999999761581,208109.89999997616,7048,hate,AF,C,205962,205962,204434,205245,204434,206427,205761,205761,206427,18
19,test,1,con,1,m,Mon Mar 10 2025 17:23:01 GMT-0500 (Central Daylight Time),212168.59999996424,bell,1000,O,m,m,None,533,318.0,215.0,83,1,2059.399999976158,210109.19999998808,7048,bell,AF,C,208161,208161,206433,207443,206434,208493,207945,207945,208493,19
20,test,1,inc,1,m,Mon Mar 10 2025 17:23:01 GMT-0500 (Central Daylight Time),214351.39999997616,temper,1000,O,m,m,None,635,434.0,201.0,127,1,2176.699999988079,212174.69999998808,7048,window,AF,C,210228,210228,208499,209511,208499,210675,210026,210026,210675,20
21,test,1,con,1,m,Mon Mar 10 2025 17:23:01 GMT-0500 (Central Daylight Time),216401.39999997616,remote,800,O,m,m,None,709,492.0,217.0,113,1,2045.699999988079,214355.69999998808,7048,remote,AF,C,212227,212227,210680,211494,210680,212725,212010,212010,212725,21
22,test,1,inc,1,m,Mon Mar 10 2025 17:23:01 GMT-0500 (Central Daylight Time),218667.5,hate,1100,O,m,m,None,625,426.0,199.0,72,1,2259.900000035763,216407.59999996424,7048,step,AF,C,214557,214557,212732,213842,212732,214992,214358,214358,214992,22
23,test,1,inc,1,z,Mon Mar 10 2025 17:23:01 GMT-0500 (Central Daylight Time),220682.5,jacket,800,O,z,z,None,672,457.0,215.0,61,1,2010.1000000238419,218672.39999997616,7048,temper,AF,C,216541,216541,214996,215807,214997,217007,216326,216326,217006,23
24,test,1,con,1,m,Mon Mar 10 2025 17:23:01 GMT-0500 (Central Daylight Time),223114.89999997616,remote,1100,O,m,m,None,784,584.0,200.0,116,1,2427.600000023842,220687.29999995232,7048,remote,AF,C,218840,218840,217011,218124,217012,219439,218640,218640,219439,24
25,test,1,inc,1,z,Mon Mar 10 2025 17:23:01 GMT-0500 (Central Daylight Time),225346.39999997616,remote,1000,O,z,z,None,691,490.0,201.0,7,1,2226.899999976158,223119.5,7048,elated,AF,C,221173,221173,219444,220456,219444,221670,220972,220972,221670,25
26,test,1,inc,1,z,Mon Mar 10 2025 17:23:01 GMT-0500 (Central Daylight Time),227365.29999995232,step,800,O,z,z,None,689,474.0,215.0,53,1,2014.3999999761581,225350.89999997616,7048,rage,AF,C,223205,223205,221675,222488,221675,223689,222990,222990,223689,26
27,test,1,con,1,z,Mon Mar 10 2025 17:23:01 GMT-0500 (Central Daylight Time),229413.19999998808,elated,900,O,z,z,None,604,389.0,215.0,2,1,2043.4000000357628,227369.79999995232,7048,elated,AF,C,225338,225338,223694,224610,223694,225737,225123,225123,225737,27
28,test,1,con,1,m,Mon Mar 10 2025 17:23:01 GMT-0500 (Central Daylight Time),231296.0,rock,800,O,m,m,None,560,344.0,216.0,73,1,1876.7000000476837,229419.29999995232,7048,rock,AF,C,227272,227272,225743,226554,225744,227620,227056,227056,227620,28
29,test,1,con,1,m,Mon Mar 10 2025 17:23:01 GMT-0500 (Central Daylight Time),233345.39999997616,film,1000,O,m,m,None,510,309.0,201.0,91,1,2044.699999988079,231300.69999998808,7048,film,AF,C,229355,229355,227625,228637,227625,229669,229153,229153,229669,29
30,test,1,inc,1,m,Mon Mar 10 2025 17:23:01 GMT-0500 (Central Daylight Time),235527.69999998808,hate,1100,O,m,m,None,536,335.0,201.0,80,1,2178.400000035763,233349.29999995232,7048,rock,AF,C,231504,231504,229673,230786,229674,231852,231302,231302,231852,30
31,test,1,inc,1,z,Mon Mar 10 2025 17:23:01 GMT-0500 (Central Daylight Time),237709.79999995232,bell,1000,O,z,z,None,660,446.0,214.0,23,1,2176.399999976158,235533.39999997616,7048,love,AF,C,233585,233585,231857,232868,231858,234034,233370,233370,234034,31
32,test,1,con,1,z,Mon Mar 10 2025 17:23:01 GMT-0500 (Central Daylight Time),240011.5,elated,1000,O,z,z,None,750,550.0,200.0,3,1,2297.7000000476837,237713.79999995232,7048,elated,AF,C,235769,235769,234038,235051,234038,236336,235569,235569,236335,32
33,test,1,con,1,m,Mon Mar 10 2025 17:23:01 GMT-0500 (Central Daylight Time),242108.5,remote,900,O,m,m,None,653,454.0,199.0,114,1,2092.600000023842,240015.89999997616,7048,remote,AF,C,237968,237968,236340,237250,236340,238433,237768,237768,238433,33
34,test,1,con,1,z,Mon Mar 10 2025 17:23:01 GMT-0500 (Central Daylight Time),244074.79999995232,friend,900,O,z,z,None,516,316.0,200.0,26,1,1961.8999999761581,242112.89999997616,7048,friend,AF,C,240067,240067,238437,239351,238437,240399,239866,239866,240399,34
35,test,1,inc,1,m,Mon Mar 10 2025 17:23:01 GMT-0500 (Central Daylight Time),246174.39999997616,brutal,900,O,m,m,None,654,455.0,199.0,126,1,2093.699999988079,244080.69999998808,7048,window,AF,C,242032,242032,240405,241318,240405,242499,241833,241833,242498,35
36,test,1,con,1,m,Mon Mar 10 2025 17:23:01 GMT-0500 (Central Daylight Time),248490.09999996424,rock,1100,O,m,m,None,674,475.0,199.0,76,1,2310.199999988079,246179.89999997616,7048,rock,AF,C,244332,244332,242504,243616,242504,244814,244133,244133,244814,36
37,test,1,inc,1,m,Mon Mar 10 2025 17:23:01 GMT-0500 (Central Daylight Time),250623.0,brutal,900,O,m,m,None,684,469.0,215.0,102,1,2128.300000011921,248494.69999998808,7048,jacket,AF,C,246466,246466,244819,245732,244819,246947,246250,246250,246947,37
38,test,1,inc,1,m,Mon Mar 10 2025 17:23:01 GMT-0500 (Central Daylight Time),252556.79999995232,elated,800,O,m,m,None,600,400.0,200.0,109,1,1929.7999999523163,250627.0,7048,napkin,AF,C,248481,248481,246951,247764,246951,248881,248281,248281,248881,38
39,test,1,inc,1,z,Mon Mar 10 2025 17:23:01 GMT-0500 (Central Daylight Time),254638.89999997616,rock,900,O,z,z,None,637,438.0,199.0,14,1,2076.100000023842,252562.79999995232,7048,kind,AF,C,250513,250513,248887,249798,248887,250963,250314,250314,250963,39
40,test,1,inc,1,z,Mon Mar 10 2025 17:23:01 GMT-0500 (Central Daylight Time),256722.0,napkin,900,O,z,z,None,644,445.0,199.0,38,1,2077.5,254644.5,7048,brutal,AF,C,252595,252595,250969,251879,250969,253046,252395,252395,253046,40
41,test,1,con,1,m,Mon Mar 10 2025 17:23:01 GMT-0500 (Central Daylight Time),258935.89999997616,window,1000,O,m,m,None,676,476.0,200.0,123,1,2209.399999976158,256726.5,7048,window,AF,C,254779,254779,253051,254064,253051,255260,254579,254579,255260,41
42,test,1,con,1,m,Mon Mar 10 2025 17:23:01 GMT-0500 (Central Daylight Time),261004.0,window,900,O,m,m,None,634,433.0,201.0,122,1,2062.7000000476837,258941.29999995232,7048,window,AF,C,256895,256895,255265,256177,255266,257328,256694,256694,257328,42
43,test,1,con,1,m,Mon Mar 10 2025 17:23:01 GMT-0500 (Central Daylight Time),263037.09999996424,jacket,900,O,m,m,None,589,389.0,200.0,98,1,2028.699999988079,261008.39999997616,7048,jacket,AF,C,258962,258962,257332,258244,257333,259361,258761,258761,259361,43
44,test,1,inc,1,m,Mon Mar 10 2025 17:23:01 GMT-0500 (Central Daylight Time),264969.2999999523,elated,800,O,m,m,None,593,393.0,200.0,101,1,1923.699999988079,263045.59999996424,7048,jacket,AF,C,260893,260894,259370,260177,259370,261293,260693,260693,261293,44
45,test,1,con,1,m,Mon Mar 10 2025 17:23:01 GMT-0500 (Central Daylight Time),267117.89999997616,napkin,900,O,m,m,None,715,515.0,200.0,106,1,2142.399999976158,264975.5,7048,napkin,AF,C,262927,262927,261299,262210,261300,263442,262726,262726,263442,45
46,test,1,inc,1,m,Mon Mar 10 2025 17:23:01 GMT-0500 (Central Daylight Time),269149.6999999881,elated,800,O,m,m,None,693,494.0,199.0,117,1,2025.1000000238419,267124.59999996424,7048,remote,AF,C,264975,264976,263449,264259,263449,265474,264776,264776,265474,46
47,test,1,inc,1,z,Mon Mar 10 2025 17:23:01 GMT-0500 (Central Daylight Time),271333.7999999523,film,1100,O,z,z,None,536,323.0,213.0,16,1,2179.599999964237,269154.1999999881,7048,kind,AF,C,267325,267325,265478,266593,265478,267658,267111,267111,267658,47
48,test,1,inc,1,m,Mon Mar 10 2025 17:23:01 GMT-0500 (Central Daylight Time),273565.09999996424,friend,1100,O,m,m,None,591,391.0,200.0,104,1,2227.099999964237,271338.0,7048,jacket,AF,C,269489,269489,267662,268775,267662,269889,269289,269289,269889,48
49,test,1,con,1,m,Mon Mar 10 2025 17:23:01 GMT-0500 (Central Daylight Time),275781.0,window,1100,O,m,m,None,583,382.0,201.0,124,1,2209.5,273571.5,7048,window,AF,C,271721,271721,269896,271005,269896,272105,271520,271520,272105,49
50,test,1,inc,1,z,Mon Mar 10 2025 17:23:01 GMT-0500 (Central Daylight Time),278100.09999996424,window,1100,O,z,z,None,665,450.0,215.0,32,1,2310.699999988079,275789.39999997616,7048,friend,AF,C,273957,273957,272113,273223,272114,274424,273742,273742,274424,50
51,test,1,con,1,z,Mon Mar 10 2025 17:23:01 GMT-0500 (Central Daylight Time),280013.5,friend,800,O,z,z,None,578,362.0,216.0,25,1,1906.0,278107.5,7048,friend,AF,C,275973,275973,274432,275240,274432,276338,275757,275757,276338,51
52,test,1,con,1,m,Mon Mar 10 2025 17:23:01 GMT-0500 (Central Daylight Time),281914.1999999881,jacket,800,O,m,m,None,549,350.0,199.0,97,1,1895.5,280018.6999999881,7048,jacket,AF,C,277873,277873,276343,277154,276343,278238,277672,277673,278238,52
53,test,1,inc,1,z,Mon Mar 10 2025 17:23:01 GMT-0500 (Central Daylight Time),283863.2999999523,jacket,800,O,z,z,None,603,403.0,200.0,37,1,1940.5,281922.7999999523,7048,brutal,AF,C,279772,279772,278247,279055,278247,280187,279572,279572,280187,53
54,test,1,con,1,z,Mon Mar 10 2025 17:23:01 GMT-0500 (Central Daylight Time),285809.59999996424,love,900,O,z,z,None,498,298.0,200.0,18,1,1935.800000011921,283873.7999999523,7048,love,AF,C,281820,281820,280198,281104,280198,282134,281619,281620,282134,54
55,test,1,inc,1,z,Mon Mar 10 2025 17:23:01 GMT-0500 (Central Daylight Time),287794.39999997616,jacket,800,O,z,z,None,640,424.0,216.0,5,1,1981.800000011921,285812.59999996424,7048,elated,AF,C,283687,283687,282137,282953,282137,284118,283471,283471,284118,55
56,test,1,con,1,m,Mon Mar 10 2025 17:23:01 GMT-0500 (Central Daylight Time),289676.7999999523,bell,800,O,m,m,None,546,346.0,200.0,81,1,1877.699999988079,287799.09999996424,7048,bell,AF,C,285653,285653,284123,284937,284123,286001,285453,285453,286001,56
57,test,1,inc,1,z,Mon Mar 10 2025 17:23:01 GMT-0500 (Central Daylight Time),291926.39999997616,film,1100,O,z,z,None,612,413.0,199.0,56,1,2240.5,289685.89999997616,7048,rage,AF,C,287834,287834,286010,287119,286010,288250,287635,287635,288250,57
58,test,1,con,1,m,Mon Mar 10 2025 17:23:01 GMT-0500 (Central Daylight Time),294011.09999996424,rock,900,O,m,m,None,641,426.0,215.0,74,1,2080.899999976158,291930.1999999881,7048,rock,AF,C,289901,289901,288254,289169,288255,290335,289685,289685,290335,58
59,test,1,con,1,z,Mon Mar 10 2025 17:23:01 GMT-0500 (Central Daylight Time),295974.5,temper,900,O,z,z,None,527,327.0,200.0,58,1,1956.6000000238419,294017.89999997616,7048,temper,AF,C,291968,291968,290342,291251,290342,292299,291767,291767,292299,59
60,test,1,con,1,z,Mon Mar 10 2025 17:23:01 GMT-0500 (Central Daylight Time),297825.6999999881,rage,800,O,z,z,None,501,301.0,200.0,49,1,1846.4000000357628,295979.2999999523,7048,rage,AF,C,293834,293834,292303,293117,292304,294150,293633,293633,294150,60
61,test,1,inc,1,z,Mon Mar 10 2025 17:23:01 GMT-0500 (Central Daylight Time),299874.89999997616,napkin,900,O,z,z,None,615,416.0,199.0,62,1,2044.1000000238419,297830.7999999523,7048,temper,AF,C,295783,295783,294155,295065,294155,296199,295583,295583,296199,61
62,test,1,con,1,z,Mon Mar 10 2025 17:23:01 GMT-0500 (Central Daylight Time),301972.59999996424,hate,1100,O,z,z,None,455,255.0,200.0,44,1,2092.099999964237,299880.5,7048,hate,AF,C,298032,298032,296205,297315,296205,298297,297832,297832,298297,62
63,test,1,inc,1,z,Mon Mar 10 2025 17:23:01 GMT-0500 (Central Daylight Time),303923.39999997616,rock,900,O,z,z,None,514,301.0,213.0,46,1,1944.800000011921,301978.59999996424,7048,hate,AF,C,299930,299930,298303,299215,298303,300248,299716,299716,300247,63
64,test,1,inc,1,z,Mon Mar 10 2025 17:23:01 GMT-0500 (Central Daylight Time),306038.89999997616,bell,1000,O,z,z,None,568,352.0,216.0,47,1,2109.5,303929.39999997616,7048,hate,AF,C,301999,301999,300253,301264,300254,302363,301782,301782,302363,64
65,test,1,con,1,m,Mon Mar 10 2025 17:23:01 GMT-0500 (Central Daylight Time),307972.6999999881,window,800,O,m,m,None,598,399.0,199.0,121,1,1928.9000000357628,306043.7999999523,7048,window,AF,C,303897,303897,302368,303180,302368,304297,303697,303697,304297,65
66,test,1,inc,1,m,Mon Mar 10 2025 17:23:01 GMT-0500 (Central Daylight Time),309939.2999999523,kind,900,O,m,m,None,534,334.0,200.0,70,1,1961.0999999642372,307978.1999999881,7048,step,AF,C,305929,305929,304302,305213,304303,306263,305728,305729,306263,66
67,test,1,con,1,z,Mon Mar 10 2025 17:23:01 GMT-0500 (Central Daylight Time),311736.7999999523,brutal,800,O,z,z,None,461,261.0,200.0,33,1,1791.5999999642372,309945.1999999881,7048,brutal,AF,C,307795,307795,306269,307078,306270,308061,307594,307594,308061,67
68,test,1,inc,1,m,Mon Mar 10 2025 17:23:01 GMT-0500 (Central Daylight Time),313769.39999997616,love,1000,O,m,m,None,485,285.0,200.0,95,1,2027.199999988079,311742.1999999881,7048,film,AF,C,309794,309794,308066,309079,308067,310093,309594,309594,310093,68
69,test,1,inc,1,m,Mon Mar 10 2025 17:23:01 GMT-0500 (Central Daylight Time),315935.6999999881,friend,1100,O,m,m,None,520,304.0,216.0,128,1,2160.699999988079,313775.0,7048,window,AF,C,311943,311943,310099,311211,310099,312260,311727,311727,312260,69
70,test,1,con,1,z,Mon Mar 10 2025 17:23:01 GMT-0500 (Central Daylight Time),318067.1999999881,rage,1100,O,z,z,None,487,288.0,199.0,52,1,2125.800000011921,315941.39999997616,7048,rage,AF,C,314094,314094,312265,313378,312266,314391,313894,313894,314391,70
71,test,1,con,1,m,Mon Mar 10 2025 17:23:01 GMT-0500 (Central Daylight Time),320052.7999999523,jacket,1000,O,m,m,None,455,240.0,215.0,99,1,1982.7999999523163,318070.0,7048,jacket,AF,C,316127,316127,314394,315407,314394,316377,315911,315911,316377,71
72,test,1,inc,1,m,Mon Mar 10 2025 17:23:01 GMT-0500 (Central Daylight Time),322203.39999997616,hate,1100,O,m,m,None,499,285.0,214.0,96,1,2142.5,320060.89999997616,7048,film,AF,C,318226,318226,316385,317491,316385,318527,318010,318010,318527,72
73,test,1,con,1,z,Mon Mar 10 2025 17:23:01 GMT-0500 (Central Daylight Time),324149.59999996424,elated,800,O,z,z,None,613,414.0,199.0,1,1,1941.8999999761581,322207.6999999881,7048,elated,AF,C,320058,320058,318532,319343,318532,320474,319858,319858,320474,73
73,test,1,inc,0,z,Mon Mar 10 2025 17:23:01 GMT-0500 (Central Daylight Time),325949.5,step,800,O,m,m,None,454,238.0,216.0,21,1,1793.2000000476837,324156.2999999523,7048,love,AF,C,322025,322025,320480,321292,320481,322274,321809,321809,322274,74
74,test,1,inc,1,z,Mon Mar 10 2025 17:23:01 GMT-0500 (Central Daylight Time),327916.1999999881,step,800,O,z,z,None,632,416.0,216.0,13,1,1961.9000000357628,325954.2999999523,7048,kind,AF,C,323824,323824,322278,323091,322279,324240,323608,323608,324240,75
75,test,1,con,1,z,Mon Mar 10 2025 17:23:01 GMT-0500 (Central Daylight Time),330116.39999997616,elated,1100,O,z,z,None,564,351.0,213.0,4,1,2194.800000011921,327921.59999996424,7048,elated,AF,C,326072,326072,324246,325356,324246,326441,325858,325858,326440,76
76,test,1,con,1,m,Mon Mar 10 2025 17:23:01 GMT-0500 (Central Daylight Time),332181.1999999881,bell,1100,O,m,m,None,422,207.0,215.0,84,1,2058.900000035763,330122.2999999523,7048,bell,AF,C,328288,328288,326446,327555,326447,328505,328073,328073,328505,77
77,test,1,inc,1,m,Mon Mar 10 2025 17:23:01 GMT-0500 (Central Daylight Time),334262.5,brutal,900,O,m,m,None,638,437.0,201.0,110,1,2076.600000023842,332185.89999997616,7048,napkin,AF,C,330138,330138,328510,329422,328510,330587,329937,329937,330586,78
78,test,1,con,1,z,Mon Mar 10 2025 17:23:01 GMT-0500 (Central Daylight Time),336180.0,temper,800,O,z,z,None,567,365.0,202.0,57,1,1913.0,334267.0,7048,temper,AF,C,332122,332122,330591,331406,330591,332504,331920,331920,332504,79
79,test,1,inc,1,m,Mon Mar 10 2025 17:23:01 GMT-0500 (Central Daylight Time),338029.6999999881,rage,800,O,m,m,None,516,316.0,200.0,77,1,1843.800000011921,336185.89999997616,7048,rock,AF,C,334037,334037,332510,333320,332510,334354,333837,333837,334354,80
80,test,1,inc,1,m,Mon Mar 10 2025 17:23:01 GMT-0500 (Central Daylight Time),340011.59999996424,kind,900,O,m,m,None,548,332.0,216.0,86,1,1977.5,338034.09999996424,7048,bell,AF,C,336003,336003,334358,335271,334358,336336,335787,335787,336336,81
81,test,1,inc,1,m,Mon Mar 10 2025 17:23:01 GMT-0500 (Central Daylight Time),341943.7999999523,elated,800,O,m,m,None,587,386.0,201.0,125,1,1927.8999999761581,340015.89999997616,7048,window,AF,C,337869,337869,336340,337153,336340,338268,337668,337668,338268,82
82,test,1,inc,1,m,Mon Mar 10 2025 17:23:01 GMT-0500 (Central Daylight Time),344093.2999999523,hate,1100,O,m,m,None,505,306.0,199.0,88,1,2144.199999988079,341949.09999996424,7048,bell,AF,C,340101,340101,338273,339386,338273,340417,339901,339901,340417,83
83,test,1,inc,1,m,Mon Mar 10 2025 17:23:01 GMT-0500 (Central Daylight Time),345976.0,kind,900,O,m,m,None,441,242.0,199.0,94,1,1877.4000000357628,344098.59999996424,7048,film,AF,C,342053,342053,340423,341335,340423,342300,341853,341853,342300,84
84,test,1,con,1,z,Mon Mar 10 2025 17:23:01 GMT-0500 (Central Daylight Time),347825.5,kind,800,O,z,z,None,499,284.0,215.0,9,1,1844.6000000238419,345980.89999997616,7048,kind,AF,C,343850,343850,342305,343118,342305,344150,343635,343635,344150,85
85,test,1,con,1,m,Mon Mar 10 2025 17:23:01 GMT-0500 (Central Daylight Time),349757.89999997616,step,800,O,m,m,None,595,396.0,199.0,65,1,1927.6000000238419,347830.2999999523,7048,step,AF,C,345683,345683,344154,344967,344155,346082,345483,345483,346082,86
86,test,1,con,1,m,Mon Mar 10 2025 17:23:01 GMT-0500 (Central Daylight Time),351641.5,step,900,O,m,m,None,443,243.0,200.0,66,1,1879.0,349762.5,7048,step,AF,C,347716,347716,346087,347001,346087,347966,347516,347516,347965,87
87,test,1,inc,1,m,Mon Mar 10 2025 17:23:01 GMT-0500 (Central Daylight Time),353491.89999997616,rage,800,O,m,m,None,517,317.0,200.0,69,1,1845.800000011921,351646.09999996424,7048,step,AF,C,349499,349499,347970,348783,347970,349816,349298,349298,349816,88
88,test,1,inc,1,m,Mon Mar 10 2025 17:23:01 GMT-0500 (Central Daylight Time),355341.2999999523,rage,800,O,m,m,None,516,317.0,199.0,85,1,1845.199999988079,353496.09999996424,7048,bell,AF,C,351348,351348,349820,350633,349821,351665,351149,351149,351665,89
89,test,1,inc,1,m,Mon Mar 10 2025 17:23:01 GMT-0500 (Central Daylight Time),357122.1999999881,rage,800,O,m,m,None,434,233.0,201.0,93,1,1774.6000000238419,355347.59999996424,7048,film,AF,C,353198,353198,351672,352482,351672,353446,352997,352997,353446,90
90,test,1,con,1,z,Mon Mar 10 2025 17:23:01 GMT-0500 (Central Daylight Time),359090.6999999881,hate,1000,O,z,z,None,434,220.0,214.0,43,1,1963.300000011921,357127.39999997616,7048,hate,AF,C,355194,355194,353451,354464,353452,355415,354980,354980,355415,91
91,test,1,con,1,m,Mon Mar 10 2025 17:23:01 GMT-0500 (Central Daylight Time),360904.09999996424,film,900,O,m,m,None,375,159.0,216.0,90,1,1808.8999999761581,359095.1999999881,7048,film,AF,C,357064,357064,355419,356329,355419,357228,356847,356847,357228,92
92,test,1,con,1,z,Mon Mar 10 2025 17:23:01 GMT-0500 (Central Daylight Time),362821.89999997616,love,1000,O,z,z,None,384,185.0,199.0,19,1,1913.5,360908.39999997616,7048,love,AF,C,358961,358961,357232,358246,357233,359146,358762,358762,359146,93
93,test,1,con,1,z,Mon Mar 10 2025 17:23:01 GMT-0500 (Central Daylight Time),364903.59999996424,temper,1100,O,z,z,None,436,237.0,199.0,60,1,2076.099999964237,362827.5,7048,temper,AF,C,360978,360978,359152,360262,359152,361228,360778,360778,361228,94
94,test,1,inc,1,z,Mon Mar 10 2025 17:23:01 GMT-0500 (Central Daylight Time),367035.6999999881,film,1100,O,z,z,None,491,290.0,201.0,48,1,2127.800000011921,364907.89999997616,7048,hate,AF,C,363061,363061,361232,362345,361232,363360,362860,362860,363360,95
95,test,1,con,1,z,Mon Mar 10 2025 17:23:01 GMT-0500 (Central Daylight Time),369017.5,kind,1000,O,z,z,None,440,240.0,200.0,11,1,1977.800000011921,367039.6999999881,7048,kind,AF,C,365094,365094,363364,364378,363364,365342,364894,364894,365342,96
96,test,1,con,1,m,Mon Mar 10 2025 17:23:01 GMT-0500 (Central Daylight Time),370768.2999999523,film,800,O,m,m,None,409,209.0,200.0,89,1,1748.0,369020.2999999523,7048,film,AF,C,366878,366878,365344,366160,365345,367092,366677,366677,367092,97
97,test,1,con,1,z,Mon Mar 10 2025 17:23:01 GMT-0500 (Central Daylight Time),372582.5,kind,900,O,z,z,None,393,194.0,199.0,10,1,1807.6000000238419,370774.89999997616,7048,kind,AF,C,368709,368709,367099,368008,367099,368907,368510,368510,368907,98
98,test,1,con,1,z,Mon Mar 10 2025 17:23:01 GMT-0500 (Central Daylight Time),374619.7999999523,brutal,1000,O,z,z,None,502,303.0,199.0,35,1,2033.7999999523163,372586.0,7048,brutal,AF,C,370641,370641,368910,369925,368910,370944,370442,370442,370944,99
99,test,1,inc,1,m,Mon Mar 10 2025 17:23:01 GMT-0500 (Central Daylight Time),376748.5,friend,1100,O,m,m,None,495,281.0,214.0,112,1,2123.800000011921,374624.6999999881,7048,napkin,AF,C,372790,372790,370949,372058,370949,373073,372576,372576,373072,100
100,test,1,con,1,z,Mon Mar 10 2025 17:23:01 GMT-0500 (Central Daylight Time),378482.5,love,800,O,z,z,None,390,191.0,199.0,17,1,1727.800000011921,376754.6999999881,7048,love,AF,C,374608,374608,373079,373892,373079,374807,374408,374408,374806,101
101,test,1,inc,1,m,Mon Mar 10 2025 17:23:01 GMT-0500 (Central Daylight Time),380498.5,love,1000,O,m,m,None,476,276.0,200.0,79,1,2011.5,378487.0,7048,rock,AF,C,376540,376540,374811,375825,374811,376823,376340,376340,376823,102
102,test,1,inc,1,z,Mon Mar 10 2025 17:23:01 GMT-0500 (Central Daylight Time),382514.7999999523,remote,1000,O,z,z,None,467,267.0,200.0,39,1,2011.2999999523163,380503.5,7048,brutal,AF,C,378557,378557,376828,377841,376828,378839,378356,378356,378839,103
103,test,1,inc,1,m,Mon Mar 10 2025 17:23:01 GMT-0500 (Central Daylight Time),384662.7999999523,friend,1100,O,m,m,None,502,301.0,201.0,120,1,2143.699999988079,382519.09999996424,7048,remote,AF,C,380673,380673,378843,379958,378844,380987,380471,380471,380987,104
103,test,1,inc,0,z,Mon Mar 10 2025 17:23:01 GMT-0500 (Central Daylight Time),386730.1999999881,remote,1000,O,m,m,None,524,325.0,199.0,31,1,2061.300000011921,384668.89999997616,7048,friend,AF,C,382722,382722,380993,382008,380993,383054,382522,382522,383054,105
104,test,1,con,1,z,Mon Mar 10 2025 17:23:01 GMT-0500 (Central Daylight Time),388779.89999997616,brutal,1100,O,z,z,None,406,206.0,200.0,36,1,2044.699999988079,386735.1999999881,7048,brutal,AF,C,384888,384888,383059,384172,383060,385104,384688,384688,385104,106
105,test,1,con,1,m,Mon Mar 10 2025 17:23:01 GMT-0500 (Central Daylight Time),390945.5,napkin,1100,O,m,m,None,525,325.0,200.0,108,1,2162.300000011921,388783.1999999881,7048,napkin,AF,C,386938,386938,385107,386222,385108,387270,386738,386738,387270,107
106,test,1,con,1,z,Mon Mar 10 2025 17:23:01 GMT-0500 (Central Daylight Time),392911.0,friend,1000,O,z,z,None,421,216.0,205.0,27,1,1958.800000011921,390952.1999999881,7048,friend,AF,C,389006,389007,387276,388286,387277,389235,388801,388801,389235,108
107,test,1,inc,1,m,Mon Mar 10 2025 17:23:01 GMT-0500 (Central Daylight Time),394944.2999999523,love,1000,O,m,m,None,500,301.0,199.0,87,1,2027.5999999642372,392916.6999999881,7048,bell,AF,C,390954,390954,389241,390251,389241,391269,390754,390754,391268,109
108,test,1,inc,1,z,Mon Mar 10 2025 17:23:01 GMT-0500 (Central Daylight Time),396827.1999999881,jacket,800,O,z,z,None,542,343.0,199.0,29,1,1876.699999988079,394950.5,7048,friend,AF,C,392801,392801,391275,392086,391275,393151,392602,392602,393151,110
109,test,1,inc,1,z,Mon Mar 10 2025 17:23:01 GMT-0500 (Central Daylight Time),398660.6999999881,napkin,900,O,z,z,None,400,200.0,200.0,30,1,1829.1000000238419,396831.59999996424,7048,friend,AF,C,394784,394784,393156,394070,393156,394985,394584,394584,394985,111
110,test,1,inc,1,m,Mon Mar 10 2025 17:23:01 GMT-0500 (Central Daylight Time),400709.0,temper,1000,O,m,m,None,516,316.0,200.0,103,1,2043.0,398666.0,7048,jacket,AF,C,396717,396717,394990,396002,394991,397033,396517,396517,397033,112
111,test,1,inc,1,m,Mon Mar 10 2025 17:23:01 GMT-0500 (Central Daylight Time),402725.6999999881,kind,900,O,m,m,None,581,381.0,200.0,78,1,2011.5,400714.1999999881,7048,rock,AF,C,398667,398667,397038,397950,397039,399050,398467,398467,399050,113
112,test,1,con,1,m,Mon Mar 10 2025 17:23:01 GMT-0500 (Central Daylight Time),404790.59999996424,napkin,1000,O,m,m,None,526,327.0,199.0,107,1,2058.199999988079,402732.39999997616,7048,napkin,AF,C,400784,400784,399056,400066,399057,401115,400584,400584,401115,114
113,test,1,inc,1,z,Mon Mar 10 2025 17:23:01 GMT-0500 (Central Daylight Time),406823.39999997616,window,1100,O,z,z,None,402,186.0,216.0,64,1,2028.0,404795.39999997616,7048,temper,AF,C,402949,402949,401119,402231,401120,403148,402733,402733,403147,115
114,test,1,con,1,m,Mon Mar 10 2025 17:23:01 GMT-0500 (Central Daylight Time),408823.09999996424,step,1000,O,m,m,None,462,245.0,217.0,67,1,1995.3999999761581,406827.6999999881,7048,step,AF,C,404898,404898,403152,404164,403152,405147,404681,404681,405147,116
115,test,1,con,1,m,Mon Mar 10 2025 17:23:01 GMT-0500 (Central Daylight Time),410657.1999999881,bell,900,O,m,m,None,384,185.0,199.0,82,1,1827.199999988079,408830.0,7048,bell,AF,C,406782,406782,405154,406065,405154,406981,406582,406582,406981,117
116,test,1,inc,1,z,Mon Mar 10 2025 17:23:01 GMT-0500 (Central Daylight Time),412704.6999999881,bell,1000,O,z,z,None,501,302.0,199.0,15,1,2041.199999988079,410663.5,7048,kind,AF,C,408713,408713,406988,407996,406988,409029,408513,408513,409029,118
117,test,1,con,1,z,Mon Mar 10 2025 17:23:01 GMT-0500 (Central Daylight Time),414670.89999997616,rage,1000,O,z,z,None,429,229.0,200.0,51,1,1961.300000011921,412709.59999996424,7048,rage,AF,C,410763,410763,409034,410046,409034,410995,410563,410563,410995,119
117,test,1,inc,0,z,Mon Mar 10 2025 17:23:01 GMT-0500 (Central Daylight Time),416704.2999999523,remote,1000,O,m,m,None,500,288.0,212.0,63,1,2028.7999999523163,414675.5,7048,temper,AF,C,412727,412727,411000,412012,411000,413028,412515,412515,413028,120
118,test,1,con,1,z,Mon Mar 10 2025 17:23:01 GMT-0500 (Central Daylight Time),418836.2999999523,temper,1000,O,z,z,None,589,389.0,200.0,59,1,2127.399999976158,416708.89999997616,7048,temper,AF,C,414762,414762,413033,414046,413033,415160,414561,414561,415160,121
119,test,1,inc,1,m,Mon Mar 10 2025 17:23:01 GMT-0500 (Central Daylight Time),420819.39999997616,love,1000,O,m,m,None,441,242.0,199.0,71,1,1980.0,418839.39999997616,7048,step,AF,C,416893,416893,415163,416178,415164,417144,416694,416694,417143,122
120,test,1,con,1,m,Mon Mar 10 2025 17:23:01 GMT-0500 (Central Daylight Time),422619.5,napkin,800,O,m,m,None,467,265.0,202.0,105,1,1795.800000011921,420823.6999999881,7048,napkin,AF,C,418677,418678,417148,417960,417148,418944,418475,418475,418943,123
121,test,1,inc,1,z,Mon Mar 10 2025 17:23:01 GMT-0500 (Central Daylight Time),424751.1999999881,film,1100,O,z,z,None,485,286.0,199.0,24,1,2127.100000023842,422624.09999996424,7048,love,AF,C,420776,420776,418948,420060,418948,421075,420577,420577,421075,124
122,test,1,inc,1,m,Mon Mar 10 2025 17:23:01 GMT-0500 (Central Daylight Time),426684.89999997616,brutal,900,O,m,m,None,499,300.0,199.0,118,1,1929.699999988079,424755.1999999881,7048,remote,AF,C,422709,422709,421079,421993,421079,423009,422510,422510,423009,125
123,test,1,con,1,m,Mon Mar 10 2025 17:23:01 GMT-0500 (Central Daylight Time),428816.39999997616,jacket,1100,O,m,m,None,485,286.0,199.0,100,1,2126.0,426690.39999997616,7048,jacket,AF,C,424841,424841,423014,424126,423015,425141,424642,424642,425140,126
124,test,1,con,1,z,Mon Mar 10 2025 17:23:01 GMT-0500 (Central Daylight Time),430632.0,hate,900,O,z,z,None,376,177.0,199.0,42,1,1811.2000000476837,428820.7999999523,7048,hate,AF,C,426774,426774,425145,426057,425145,426956,426575,426575,426956,127
125,test,1,inc,1,m,Mon Mar 10 2025 17:23:01 GMT-0500 (Central Daylight Time),432682.59999996424,temper,1000,O,m,m,None,510,309.0,201.0,119,1,2047.199999988079,430635.39999997616,7048,remote,AF,C,428690,428690,426959,427974,426960,429007,428489,428489,429007,128
