acc_sum,block,block_c,block_cond,con_img,correct,correct_response,datetime,endtime,face,jitter,line,project,response,response_time,row_sel,session_number,start_end,starttime,subject_id,task,task_vers,trial
1,prac,1,A,haborder.png,1,m,Mon Jan 27 2025 18:09:02 GMT-0600 (Central Standard Time),49749.09999990463,CFD-WM-004-005-HC.jpg,1400,solid,I,m,981,7,1,3166.9000000953674,46582.199999809265,8019,ATS,A,1
2,prac,1,A,haborder.png,1,z,Mon Jan 27 2025 18:09:02 GMT-0600 (Central Standard Time),52196.699999809265,CFD-WF-019-015-A.jpg,1000,solid,I,z,643,12,1,5614.5,46582.199999809265,8019,ATS,A,2
3,prac,1,A,haborder.png,1,z,Mon Jan 27 2025 18:09:02 GMT-0600 (Central Standard Time),54629.800000190735,CFD-BF-023-013-A.jpg,1000,solid,I,z,635,4,1,8047.60000038147,46582.199999809265,8019,ATS,A,3
4,prac,1,A,haborder.png,1,z,Mon Jan 27 2025 18:09:02 GMT-0600 (Central Standard Time),57229.300000190735,CFD-BF-039-039-A.jpg,1200,solid,I,z,611,6,1,10647.10000038147,46582.199999809265,8019,ATS,A,4
5,prac,1,A,haborder.png,1,m,Mon Jan 27 2025 18:09:02 GMT-0600 (Central Standard Time),60245.699999809265,CFD-BM-029-026-HC.jpg,1500,solid,I,m,736,3,1,13663.5,46582.199999809265,8019,ATS,A,5
6,prac,1,A,haborder.png,1,m,Mon Jan 27 2025 18:09:02 GMT-0600 (Central Standard Time),63445.699999809265,CFD-WM-006-013-HC.jpg,1700,solid,I,m,689,9,1,16863.5,46582.199999809265,8019,ATS,A,6
7,prac,1,A,haborder.png,1,m,Mon Jan 27 2025 18:09:02 GMT-0600 (Central Standard Time),66743.40000009537,CFD-WF-017-016-HC.jpg,1500,solid,I,m,1016,11,1,20161.200000286102,46582.199999809265,8019,ATS,A,7
8,prac,1,A,haborder.png,1,m,Mon Jan 27 2025 18:09:02 GMT-0600 (Central Standard Time),70391.30000019073,CFD-BF-028-020-HC.jpg,2000,solid,I,m,860,5,1,23809.10000038147,46582.199999809265,8019,ATS,A,8
9,prac,1,A,haborder.png,1,z,Mon Jan 27 2025 18:09:02 GMT-0600 (Central Standard Time),73389.5,CFD-BM-005-010-A.jpg,1600,solid,I,z,601,2,1,26807.300000190735,46582.199999809265,8019,ATS,A,9
10,prac,1,A,haborder.png,1,z,Mon Jan 27 2025 18:09:02 GMT-0600 (Central Standard Time),76788.5,CFD-WM-013-015-A.jpg,1900,solid,I,z,703,8,1,30206.300000190735,46582.199999809265,8019,ATS,A,10
11,prac,1,A,haborder.png,1,z,Mon Jan 27 2025 18:09:02 GMT-0600 (Central Standard Time),80023.5,CFD-WF-003-014-A.jpg,1600,solid,I,z,837,10,1,33441.300000190735,46582.199999809265,8019,ATS,A,11
12,prac,1,A,haborder.png,1,m,Mon Jan 27 2025 18:09:02 GMT-0600 (Central Standard Time),83304.30000019073,CFD-BM-017-052-HC.jpg,1700,solid,I,m,791,1,1,36722.10000038147,46582.199999809265,8019,ATS,A,12
1,prac,1,B,mfborder.png,1,m,Mon Jan 27 2025 18:09:02 GMT-0600 (Central Standard Time),104547.30000019073,CFD-WM-013-015-A.jpg,1700,dash,I,m,1272,9,1,3764.9000000953674,100782.40000009537,8019,ATS,A,1
2,prac,1,B,mfborder.png,1,m,Mon Jan 27 2025 18:09:02 GMT-0600 (Central Standard Time),108095.59999990463,CFD-BM-010-019-A.jpg,1600,dash,I,m,1150,2,1,7313.199999809265,100782.40000009537,8019,ATS,A,2
3,prac,1,B,mfborder.png,1,m,Mon Jan 27 2025 18:09:02 GMT-0600 (Central Standard Time),111361.90000009537,CFD-WM-006-013-HC.jpg,1600,dash,I,m,866,10,1,10579.5,100782.40000009537,8019,ATS,A,3
4,prac,1,B,mfborder.png,1,z,Mon Jan 27 2025 18:09:02 GMT-0600 (Central Standard Time),114293.40000009537,CFD-WF-003-014-A.jpg,1500,dash,I,z,635,11,1,13511.0,100782.40000009537,8019,ATS,A,4
4,prac,1,B,mfborder.png,0,z,Mon Jan 27 2025 18:09:02 GMT-0600 (Central Standard Time),117589.19999980927,CFD-BF-023-013-A.jpg,1000,dash,I,None,1514,4,1,16806.799999713898,100782.40000009537,8019,ATS,A,5
5,prac,1,B,mfborder.png,1,m,Mon Jan 27 2025 18:09:02 GMT-0600 (Central Standard Time),120208.69999980927,CFD-WM-019-013-A.jpg,1200,dash,I,m,644,6,1,19426.299999713898,100782.40000009537,8019,ATS,A,6
6,prac,1,B,mfborder.png,1,z,Mon Jan 27 2025 18:09:02 GMT-0600 (Central Standard Time),123425.0,CFD-BF-028-020-HC.jpg,1400,dash,I,z,1017,7,1,22642.599999904633,100782.40000009537,8019,ATS,A,7
6,prac,1,B,mfborder.png,0,m,Mon Jan 27 2025 18:09:02 GMT-0600 (Central Standard Time),127422.30000019073,CFD-BM-029-026-HC.jpg,1700,dash,I,None,1511,1,1,26639.900000095367,100782.40000009537,8019,ATS,A,8
7,prac,1,B,mfborder.png,1,z,Mon Jan 27 2025 18:09:02 GMT-0600 (Central Standard Time),129989.80000019073,CFD-WF-017-016-HC.jpg,1000,dash,I,z,763,12,1,29207.400000095367,100782.40000009537,8019,ATS,A,9
8,prac,1,B,mfborder.png,1,m,Mon Jan 27 2025 18:09:02 GMT-0600 (Central Standard Time),133737.40000009537,CFD-BM-005-010-A.jpg,2000,dash,I,m,958,5,1,32955.0,100782.40000009537,8019,ATS,A,10
9,prac,1,B,mfborder.png,1,z,Mon Jan 27 2025 18:09:02 GMT-0600 (Central Standard Time),137150.80000019073,CFD-BF-010-005-HC.jpg,1500,dash,I,z,1098,3,1,36368.40000009537,100782.40000009537,8019,ATS,A,11
10,prac,1,B,mfborder.png,1,z,Mon Jan 27 2025 18:09:02 GMT-0600 (Central Standard Time),140967.0,CFD-WF-002-008-HC.jpg,1900,dash,I,z,1116,8,1,40184.59999990463,100782.40000009537,8019,ATS,A,12
1,test,1,A,haborder.png,1,z,Mon Jan 27 2025 18:09:02 GMT-0600 (Central Standard Time),158029.69999980927,CFD-WF-019-015-A.jpg,1000,solid,I,z,1262,12,1,2283.7999997138977,155745.90000009537,8019,ATS,A,1
2,test,1,A,haborder.png,1,z,Mon Jan 27 2025 18:09:02 GMT-0600 (Central Standard Time),159779.5,CFD-BF-023-013-A.jpg,1000,solid,I,z,722,4,1,4033.5999999046326,155745.90000009537,8019,ATS,A,2
3,test,1,A,haborder.png,1,m,Mon Jan 27 2025 18:09:02 GMT-0600 (Central Standard Time),162428.59999990463,CFD-BM-029-026-HC.jpg,1500,solid,I,m,1120,3,1,6682.699999809265,155745.90000009537,8019,ATS,A,3
4,test,1,A,haborder.png,1,z,Mon Jan 27 2025 18:09:02 GMT-0600 (Central Standard Time),164312.19999980927,CFD-BF-039-039-A.jpg,1200,solid,I,z,657,6,1,8566.299999713898,155745.90000009537,8019,ATS,A,4
5,test,1,A,haborder.png,1,m,Mon Jan 27 2025 18:09:02 GMT-0600 (Central Standard Time),166844.90000009537,CFD-BM-017-052-HC.jpg,1700,solid,I,m,797,1,1,11099.0,155745.90000009537,8019,ATS,A,5
6,test,1,A,haborder.png,1,m,Mon Jan 27 2025 18:09:02 GMT-0600 (Central Standard Time),169693.09999990463,CFD-WM-006-013-HC.jpg,1700,solid,I,m,1123,9,1,13947.199999809265,155745.90000009537,8019,ATS,A,6
7,test,1,A,haborder.png,1,z,Mon Jan 27 2025 18:09:02 GMT-0600 (Central Standard Time),172026.5,CFD-WF-003-014-A.jpg,1600,solid,I,z,696,10,1,16280.599999904633,155745.90000009537,8019,ATS,A,7
8,test,1,A,haborder.png,1,m,Mon Jan 27 2025 18:09:02 GMT-0600 (Central Standard Time),174658.30000019073,CFD-WF-017-016-HC.jpg,1500,solid,I,m,1107,11,1,18912.400000095367,155745.90000009537,8019,ATS,A,8
9,test,1,A,haborder.png,1,m,Mon Jan 27 2025 18:09:02 GMT-0600 (Central Standard Time),176974.0,CFD-BM-029-026-HC.jpg,1500,solid,I,m,797,3,1,21228.099999904633,155745.90000009537,8019,ATS,A,9
10,test,1,A,haborder.png,1,m,Mon Jan 27 2025 18:09:02 GMT-0600 (Central Standard Time),179223.0,CFD-BM-017-052-HC.jpg,1700,solid,I,m,519,1,1,23477.099999904633,155745.90000009537,8019,ATS,A,10
10,test,1,A,haborder.png,0,z,Mon Jan 27 2025 18:09:02 GMT-0600 (Central Standard Time),182358.09999990463,CFD-BM-005-010-A.jpg,1600,solid,I,None,1518,2,1,26612.199999809265,155745.90000009537,8019,ATS,A,11
10,test,1,A,haborder.png,0,z,Mon Jan 27 2025 18:09:02 GMT-0600 (Central Standard Time),185488.59999990463,CFD-BM-005-010-A.jpg,1600,solid,I,None,1513,2,1,29742.699999809265,155745.90000009537,8019,ATS,A,12
11,test,1,A,haborder.png,1,m,Mon Jan 27 2025 18:09:02 GMT-0600 (Central Standard Time),187937.5,CFD-WF-017-016-HC.jpg,1500,solid,I,m,926,11,1,32191.599999904633,155745.90000009537,8019,ATS,A,13
12,test,1,A,haborder.png,1,z,Mon Jan 27 2025 18:09:02 GMT-0600 (Central Standard Time),191268.80000019073,CFD-WM-013-015-A.jpg,1900,solid,I,z,1413,8,1,35522.90000009537,155745.90000009537,8019,ATS,A,14
12,test,1,A,haborder.png,0,m,Mon Jan 27 2025 18:09:02 GMT-0600 (Central Standard Time),194801.90000009537,CFD-BF-028-020-HC.jpg,2000,solid,I,None,1515,5,1,39056.0,155745.90000009537,8019,ATS,A,15
13,test,1,A,haborder.png,1,m,Mon Jan 27 2025 18:09:02 GMT-0600 (Central Standard Time),197634.5,CFD-WM-006-013-HC.jpg,1700,solid,I,m,1098,9,1,41888.59999990463,155745.90000009537,8019,ATS,A,16
14,test,1,A,haborder.png,1,m,Mon Jan 27 2025 18:09:02 GMT-0600 (Central Standard Time),200350.19999980927,CFD-BF-028-020-HC.jpg,2000,solid,I,m,680,5,1,44604.2999997139,155745.90000009537,8019,ATS,A,17
15,test,1,A,haborder.png,1,z,Mon Jan 27 2025 18:09:02 GMT-0600 (Central Standard Time),202199.0,CFD-WF-019-015-A.jpg,1000,solid,I,z,828,12,1,46453.09999990463,155745.90000009537,8019,ATS,A,18
16,test,1,A,haborder.png,1,z,Mon Jan 27 2025 18:09:02 GMT-0600 (Central Standard Time),204315.30000019073,CFD-BF-023-013-A.jpg,1000,solid,I,z,1091,4,1,48569.40000009537,155745.90000009537,8019,ATS,A,19
16,test,1,A,haborder.png,0,z,Mon Jan 27 2025 18:09:02 GMT-0600 (Central Standard Time),207748.59999990463,CFD-WM-013-015-A.jpg,1900,solid,I,None,1507,8,1,52002.699999809265,155745.90000009537,8019,ATS,A,20
17,test,1,A,haborder.png,1,m,Mon Jan 27 2025 18:09:02 GMT-0600 (Central Standard Time),209980.5,CFD-WM-004-005-HC.jpg,1400,solid,I,m,807,7,1,54234.59999990463,155745.90000009537,8019,ATS,A,21
18,test,1,A,haborder.png,1,m,Mon Jan 27 2025 18:09:02 GMT-0600 (Central Standard Time),212093.69999980927,CFD-WM-004-005-HC.jpg,1400,solid,I,m,684,7,1,56347.7999997139,155745.90000009537,8019,ATS,A,22
19,test,1,A,haborder.png,1,z,Mon Jan 27 2025 18:09:02 GMT-0600 (Central Standard Time),214462.40000009537,CFD-WF-003-014-A.jpg,1600,solid,I,z,737,10,1,58716.5,155745.90000009537,8019,ATS,A,23
20,test,1,A,haborder.png,1,z,Mon Jan 27 2025 18:09:02 GMT-0600 (Central Standard Time),216410.80000019073,CFD-BF-039-039-A.jpg,1200,solid,I,z,719,6,1,60664.90000009537,155745.90000009537,8019,ATS,A,24
1,test,1,B,mfborder.png,1,m,Mon Jan 27 2025 18:09:02 GMT-0600 (Central Standard Time),227141.30000019073,CFD-WM-013-015-A.jpg,1700,dash,I,m,830,9,1,2550.5,224590.80000019073,8019,ATS,A,1
2,test,1,B,mfborder.png,1,z,Mon Jan 27 2025 18:09:02 GMT-0600 (Central Standard Time),229473.90000009537,CFD-WF-003-014-A.jpg,1500,dash,I,z,801,11,1,4883.099999904633,224590.80000019073,8019,ATS,A,2
3,test,1,B,mfborder.png,1,z,Mon Jan 27 2025 18:09:02 GMT-0600 (Central Standard Time),232339.80000019073,CFD-BF-010-005-HC.jpg,1500,dash,I,z,1340,3,1,7749.0,224590.80000019073,8019,ATS,A,3
4,test,1,B,mfborder.png,1,m,Mon Jan 27 2025 18:09:02 GMT-0600 (Central Standard Time),234755.80000019073,CFD-WM-006-013-HC.jpg,1600,dash,I,m,783,10,1,10165.0,224590.80000019073,8019,ATS,A,4
5,test,1,B,mfborder.png,1,z,Mon Jan 27 2025 18:09:02 GMT-0600 (Central Standard Time),236488.19999980927,CFD-BF-023-013-A.jpg,1000,dash,I,z,709,4,1,11897.39999961853,224590.80000019073,8019,ATS,A,5
6,test,1,B,mfborder.png,1,m,Mon Jan 27 2025 18:09:02 GMT-0600 (Central Standard Time),238320.5,CFD-WM-019-013-A.jpg,1200,dash,I,m,608,6,1,13729.699999809265,224590.80000019073,8019,ATS,A,6
7,test,1,B,mfborder.png,1,z,Mon Jan 27 2025 18:09:02 GMT-0600 (Central Standard Time),240438.40000009537,CFD-WF-003-014-A.jpg,1500,dash,I,z,598,11,1,15847.599999904633,224590.80000019073,8019,ATS,A,7
8,test,1,B,mfborder.png,1,z,Mon Jan 27 2025 18:09:02 GMT-0600 (Central Standard Time),243168.5,CFD-WF-002-008-HC.jpg,1900,dash,I,z,807,8,1,18577.699999809265,224590.80000019073,8019,ATS,A,8
9,test,1,B,mfborder.png,1,z,Mon Jan 27 2025 18:09:02 GMT-0600 (Central Standard Time),246033.30000019073,CFD-WF-002-008-HC.jpg,1900,dash,I,z,939,8,1,21442.5,224590.80000019073,8019,ATS,A,9
10,test,1,B,mfborder.png,1,m,Mon Jan 27 2025 18:09:02 GMT-0600 (Central Standard Time),248533.09999990463,CFD-WM-013-015-A.jpg,1700,dash,I,m,769,9,1,23942.299999713898,224590.80000019073,8019,ATS,A,10
11,test,1,B,mfborder.png,1,m,Mon Jan 27 2025 18:09:02 GMT-0600 (Central Standard Time),250884.69999980927,CFD-WM-006-013-HC.jpg,1600,dash,I,m,730,10,1,26293.89999961853,224590.80000019073,8019,ATS,A,11
12,test,1,B,mfborder.png,1,m,Mon Jan 27 2025 18:09:02 GMT-0600 (Central Standard Time),253649.69999980927,CFD-BM-029-026-HC.jpg,1700,dash,I,m,1032,1,1,29058.89999961853,224590.80000019073,8019,ATS,A,12
13,test,1,B,mfborder.png,1,z,Mon Jan 27 2025 18:09:02 GMT-0600 (Central Standard Time),255914.40000009537,CFD-BF-028-020-HC.jpg,1400,dash,I,z,843,7,1,31323.599999904633,224590.80000019073,8019,ATS,A,13
14,test,1,B,mfborder.png,1,z,Mon Jan 27 2025 18:09:02 GMT-0600 (Central Standard Time),257548.09999990463,CFD-BF-023-013-A.jpg,1000,dash,I,z,589,4,1,32957.2999997139,224590.80000019073,8019,ATS,A,14
15,test,1,B,mfborder.png,1,m,Mon Jan 27 2025 18:09:02 GMT-0600 (Central Standard Time),260214.40000009537,CFD-BM-005-010-A.jpg,2000,dash,I,m,634,5,1,35623.59999990463,224590.80000019073,8019,ATS,A,15
16,test,1,B,mfborder.png,1,z,Mon Jan 27 2025 18:09:02 GMT-0600 (Central Standard Time),262380.19999980927,CFD-BF-010-005-HC.jpg,1500,dash,I,z,639,3,1,37789.39999961853,224590.80000019073,8019,ATS,A,16
17,test,1,B,mfborder.png,1,m,Mon Jan 27 2025 18:09:02 GMT-0600 (Central Standard Time),265178.80000019073,CFD-BM-010-019-A.jpg,1600,dash,I,m,1164,2,1,40588.0,224590.80000019073,8019,ATS,A,17
18,test,1,B,mfborder.png,1,z,Mon Jan 27 2025 18:09:02 GMT-0600 (Central Standard Time),267944.30000019073,CFD-BF-028-020-HC.jpg,1400,dash,I,z,1339,7,1,43353.5,224590.80000019073,8019,ATS,A,18
18,test,1,B,mfborder.png,0,m,Mon Jan 27 2025 18:09:02 GMT-0600 (Central Standard Time),271478.0,CFD-BM-005-010-A.jpg,2000,dash,I,None,1514,5,1,46887.199999809265,224590.80000019073,8019,ATS,A,19
19,test,1,B,mfborder.png,1,m,Mon Jan 27 2025 18:09:02 GMT-0600 (Central Standard Time),273277.80000019073,CFD-WM-019-013-A.jpg,1200,dash,I,m,581,6,1,48687.0,224590.80000019073,8019,ATS,A,20
20,test,1,B,mfborder.png,1,m,Mon Jan 27 2025 18:09:02 GMT-0600 (Central Standard Time),275642.5,CFD-BM-029-026-HC.jpg,1700,dash,I,m,618,1,1,51051.699999809265,224590.80000019073,8019,ATS,A,21
21,test,1,B,mfborder.png,1,z,Mon Jan 27 2025 18:09:02 GMT-0600 (Central Standard Time),277392.40000009537,CFD-WF-017-016-HC.jpg,1000,dash,I,z,718,12,1,52801.59999990463,224590.80000019073,8019,ATS,A,22
22,test,1,B,mfborder.png,1,m,Mon Jan 27 2025 18:09:02 GMT-0600 (Central Standard Time),280190.09999990463,CFD-BM-010-019-A.jpg,1600,dash,I,m,1171,2,1,55599.2999997139,224590.80000019073,8019,ATS,A,23
23,test,1,B,mfborder.png,1,z,Mon Jan 27 2025 18:09:02 GMT-0600 (Central Standard Time),282057.19999980927,CFD-WF-017-016-HC.jpg,1000,dash,I,z,826,12,1,57466.39999961853,224590.80000019073,8019,ATS,A,24
0,prac,1,C,haborder.png,0,m,Mon Jan 27 2025 18:09:02 GMT-0600 (Central Standard Time),325493.30000019073,CFD-BM-029-026-HC.jpg,1500,solid,I,None,1502,10,1,3799.2000002861023,321694.09999990463,8019,ATS,A,1
1,prac,1,C,mfborder.png,1,m,Mon Jan 27 2025 18:09:02 GMT-0600 (Central Standard Time),329243.40000009537,CFD-BM-017-052-HC.jpg,2000,solid,I,m,949,4,1,7549.300000190735,321694.09999990463,8019,ATS,A,2
2,prac,1,C,haborder.png,1,z,Mon Jan 27 2025 18:09:02 GMT-0600 (Central Standard Time),332907.30000019073,CFD-WF-003-014-A.jpg,1600,dash,I,z,1282,9,1,11213.200000286102,321694.09999990463,8019,ATS,A,3
3,prac,1,C,haborder.png,1,m,Mon Jan 27 2025 18:09:02 GMT-0600 (Central Standard Time),335658.5,CFD-WM-004-005-HC.jpg,1000,dash,I,m,969,11,1,13964.400000095367,321694.09999990463,8019,ATS,A,4
4,prac,1,C,haborder.png,1,m,Mon Jan 27 2025 18:09:02 GMT-0600 (Central Standard Time),339090.30000019073,CFD-WM-004-005-HC.jpg,1400,solid,I,m,1246,12,1,17396.200000286102,321694.09999990463,8019,ATS,A,5
5,prac,1,C,mfborder.png,1,m,Mon Jan 27 2025 18:09:02 GMT-0600 (Central Standard Time),342539.09999990463,CFD-WM-013-015-A.jpg,1700,solid,I,m,971,6,1,20845.0,321694.09999990463,8019,ATS,A,6
6,prac,1,C,haborder.png,1,z,Mon Jan 27 2025 18:09:02 GMT-0600 (Central Standard Time),346120.5,CFD-BF-039-039-A.jpg,1700,solid,I,z,1092,8,1,24426.400000095367,321694.09999990463,8019,ATS,A,7
7,prac,1,C,mfborder.png,1,z,Mon Jan 27 2025 18:09:02 GMT-0600 (Central Standard Time),349570.19999980927,CFD-WF-017-016-HC.jpg,1600,dash,I,z,1068,1,1,27876.099999904633,321694.09999990463,8019,ATS,A,8
8,prac,1,C,mfborder.png,1,z,Mon Jan 27 2025 18:09:02 GMT-0600 (Central Standard Time),352300.80000019073,CFD-BF-028-020-HC.jpg,1000,dash,I,z,929,3,1,30606.700000286102,321694.09999990463,8019,ATS,A,9
9,prac,1,C,haborder.png,1,z,Mon Jan 27 2025 18:09:02 GMT-0600 (Central Standard Time),356284.90000009537,CFD-BF-023-013-A.jpg,1900,dash,I,z,1299,7,1,34590.800000190735,321694.09999990463,8019,ATS,A,10
9,prac,1,C,mfborder.png,0,m,Mon Jan 27 2025 18:09:02 GMT-0600 (Central Standard Time),359566.09999990463,CFD-BM-005-010-A.jpg,1200,dash,I,z,1284,5,1,37872.0,321694.09999990463,8019,ATS,A,11
10,prac,1,C,mfborder.png,1,z,Mon Jan 27 2025 18:09:02 GMT-0600 (Central Standard Time),363131.40000009537,CFD-WF-019-015-A.jpg,1500,solid,I,z,1283,2,1,41437.300000190735,321694.09999990463,8019,ATS,A,12
1,test,1,C,haborder.png,1,m,Mon Jan 27 2025 18:09:02 GMT-0600 (Central Standard Time),377027.59999990463,CFD-BF-028-020-HC.jpg,1600,solid,I,m,1294,10,1,2932.9000000953674,374094.69999980927,8019,ATS,A,1
2,test,1,C,haborder.png,1,m,Mon Jan 27 2025 18:09:02 GMT-0600 (Central Standard Time),379359.59999990463,CFD-BF-028-020-HC.jpg,1600,solid,I,m,700,10,1,5264.900000095367,374094.69999980927,8019,ATS,A,2
3,test,1,C,mfborder.png,1,z,Mon Jan 27 2025 18:09:02 GMT-0600 (Central Standard Time),382043.69999980927,CFD-BF-023-013-A.jpg,1600,dash,I,z,1065,2,1,7949.0,374094.69999980927,8019,ATS,A,3
4,test,1,C,haborder.png,1,m,Mon Jan 27 2025 18:09:02 GMT-0600 (Central Standard Time),384307.40000009537,CFD-WF-017-016-HC.jpg,1000,solid,I,m,1238,12,1,10212.700000286102,374094.69999980927,8019,ATS,A,4
4,test,1,C,mfborder.png,0,m,Mon Jan 27 2025 18:09:02 GMT-0600 (Central Standard Time),387841.80000019073,CFD-WM-019-013-A.jpg,2000,dash,I,None,1515,5,1,13747.10000038147,374094.69999980927,8019,ATS,A,5
4,test,1,C,haborder.png,0,z,Mon Jan 27 2025 18:09:02 GMT-0600 (Central Standard Time),391074.09999990463,CFD-BM-010-019-A.jpg,1700,solid,I,None,1515,9,1,16979.400000095367,374094.69999980927,8019,ATS,A,6
4,test,1,C,mfborder.png,0,m,Mon Jan 27 2025 18:09:02 GMT-0600 (Central Standard Time),394604.30000019073,CFD-WM-019-013-A.jpg,2000,dash,I,None,1513,5,1,20509.60000038147,374094.69999980927,8019,ATS,A,7
4,test,1,C,haborder.png,0,m,Mon Jan 27 2025 18:09:02 GMT-0600 (Central Standard Time),397135.59999990463,CFD-WF-017-016-HC.jpg,1000,solid,I,None,1517,12,1,23040.900000095367,374094.69999980927,8019,ATS,A,8
5,test,1,C,mfborder.png,1,m,Mon Jan 27 2025 18:09:02 GMT-0600 (Central Standard Time),399217.69999980927,CFD-BM-029-026-HC.jpg,1200,dash,I,m,846,6,1,25123.0,374094.69999980927,8019,ATS,A,9
5,test,1,C,mfborder.png,0,z,Mon Jan 27 2025 18:09:02 GMT-0600 (Central Standard Time),402350.30000019073,CFD-BF-023-013-A.jpg,1600,dash,I,None,1511,2,1,28255.60000038147,374094.69999980927,8019,ATS,A,10
6,test,1,C,mfborder.png,1,z,Mon Jan 27 2025 18:09:02 GMT-0600 (Central Standard Time),404784.80000019073,CFD-BF-010-005-HC.jpg,1700,dash,I,z,711,1,1,30690.10000038147,374094.69999980927,8019,ATS,A,11
6,test,1,C,haborder.png,0,z,Mon Jan 27 2025 18:09:02 GMT-0600 (Central Standard Time),407715.30000019073,CFD-WM-013-015-A.jpg,1400,solid,I,None,1514,7,1,33620.60000038147,374094.69999980927,8019,ATS,A,12
6,test,1,C,haborder.png,0,z,Mon Jan 27 2025 18:09:02 GMT-0600 (Central Standard Time),411146.80000019073,CFD-BM-005-010-A.jpg,1900,solid,I,None,1515,8,1,37052.10000038147,374094.69999980927,8019,ATS,A,13
7,test,1,C,mfborder.png,1,z,Mon Jan 27 2025 18:09:02 GMT-0600 (Central Standard Time),413397.09999990463,CFD-WF-003-014-A.jpg,1500,dash,I,z,730,3,1,39302.40000009537,374094.69999980927,8019,ATS,A,14
7,test,1,C,haborder.png,0,m,Mon Jan 27 2025 18:09:02 GMT-0600 (Central Standard Time),416437.0,CFD-WF-002-008-HC.jpg,1500,solid,I,None,1516,11,1,42342.300000190735,374094.69999980927,8019,ATS,A,15
8,test,1,C,mfborder.png,1,m,Mon Jan 27 2025 18:09:02 GMT-0600 (Central Standard Time),418796.59999990463,CFD-WM-006-013-HC.jpg,1000,dash,I,m,1332,4,1,44701.90000009537,374094.69999980927,8019,ATS,A,16
9,test,1,C,haborder.png,1,z,Mon Jan 27 2025 18:09:02 GMT-0600 (Central Standard Time),421994.5,CFD-BM-005-010-A.jpg,1900,solid,I,z,1275,8,1,47899.800000190735,374094.69999980927,8019,ATS,A,17
10,test,1,C,mfborder.png,1,z,Mon Jan 27 2025 18:09:02 GMT-0600 (Central Standard Time),424327.09999990463,CFD-WF-003-014-A.jpg,1500,dash,I,z,812,3,1,50232.40000009537,374094.69999980927,8019,ATS,A,18
11,test,1,C,mfborder.png,1,m,Mon Jan 27 2025 18:09:02 GMT-0600 (Central Standard Time),426493.0,CFD-WM-006-013-HC.jpg,1000,dash,I,m,1132,4,1,52398.300000190735,374094.69999980927,8019,ATS,A,19
12,test,1,C,mfborder.png,1,z,Mon Jan 27 2025 18:09:02 GMT-0600 (Central Standard Time),429376.80000019073,CFD-BF-010-005-HC.jpg,1700,dash,I,z,1154,1,1,55282.10000038147,374094.69999980927,8019,ATS,A,20
13,test,1,C,mfborder.png,1,m,Mon Jan 27 2025 18:09:02 GMT-0600 (Central Standard Time),431774.90000009537,CFD-BM-029-026-HC.jpg,1200,dash,I,m,1169,6,1,57680.2000002861,374094.69999980927,8019,ATS,A,21
13,test,1,C,haborder.png,0,z,Mon Jan 27 2025 18:09:02 GMT-0600 (Central Standard Time),435008.30000019073,CFD-BM-010-019-A.jpg,1700,solid,I,None,1516,9,1,60913.60000038147,374094.69999980927,8019,ATS,A,22
13,test,1,C,haborder.png,0,m,Mon Jan 27 2025 18:09:02 GMT-0600 (Central Standard Time),437989.59999990463,CFD-WF-002-008-HC.jpg,1500,solid,I,z,1460,11,1,63894.90000009537,374094.69999980927,8019,ATS,A,23
13,test,1,C,haborder.png,0,z,Mon Jan 27 2025 18:09:02 GMT-0600 (Central Standard Time),440922.19999980927,CFD-WM-013-015-A.jpg,1400,solid,I,None,1516,7,1,66827.5,374094.69999980927,8019,ATS,A,24
1,test,2,C,haborder.png,1,z,Mon Jan 27 2025 18:09:02 GMT-0600 (Central Standard Time),448502.0,CFD-BF-039-039-A.jpg,1900,solid,I,z,1440,8,1,3364.5999999046326,445137.40000009537,8019,ATS,A,1
2,test,2,C,mfborder.png,1,m,Mon Jan 27 2025 18:09:02 GMT-0600 (Central Standard Time),450752.40000009537,CFD-BM-017-052-HC.jpg,1000,dash,I,m,1222,4,1,5615.0,445137.40000009537,8019,ATS,A,2
3,test,2,C,haborder.png,1,m,Mon Jan 27 2025 18:09:02 GMT-0600 (Central Standard Time),453334.30000019073,CFD-BM-029-026-HC.jpg,1600,solid,I,m,961,10,1,8196.900000095367,445137.40000009537,8019,ATS,A,3
3,test,2,C,mfborder.png,0,z,Mon Jan 27 2025 18:09:02 GMT-0600 (Central Standard Time),456466.19999980927,CFD-WF-019-015-A.jpg,1600,dash,I,None,1515,2,1,11328.799999713898,445137.40000009537,8019,ATS,A,4
4,test,2,C,mfborder.png,1,m,Mon Jan 27 2025 18:09:02 GMT-0600 (Central Standard Time),458382.69999980927,CFD-BM-017-052-HC.jpg,1000,dash,I,m,887,4,1,13245.299999713898,445137.40000009537,8019,ATS,A,5
5,test,2,C,mfborder.png,1,z,Mon Jan 27 2025 18:09:02 GMT-0600 (Central Standard Time),460999.40000009537,CFD-BF-028-020-HC.jpg,1500,dash,I,z,1094,3,1,15862.0,445137.40000009537,8019,ATS,A,6
6,test,2,C,haborder.png,1,m,Mon Jan 27 2025 18:09:02 GMT-0600 (Central Standard Time),463130.90000009537,CFD-WM-004-005-HC.jpg,1000,solid,I,m,1115,12,1,17993.5,445137.40000009537,8019,ATS,A,7
7,test,2,C,mfborder.png,1,m,Mon Jan 27 2025 18:09:02 GMT-0600 (Central Standard Time),466164.80000019073,CFD-BM-005-010-A.jpg,2000,dash,I,m,1004,5,1,21027.400000095367,445137.40000009537,8019,ATS,A,8
8,test,2,C,haborder.png,1,m,Mon Jan 27 2025 18:09:02 GMT-0600 (Central Standard Time),468680.80000019073,CFD-WM-004-005-HC.jpg,1500,solid,I,m,990,11,1,23543.400000095367,445137.40000009537,8019,ATS,A,9
9,test,2,C,haborder.png,1,z,Mon Jan 27 2025 18:09:02 GMT-0600 (Central Standard Time),471079.30000019073,CFD-BF-023-013-A.jpg,1400,solid,I,z,961,7,1,25941.900000095367,445137.40000009537,8019,ATS,A,10
9,test,2,C,haborder.png,0,z,Mon Jan 27 2025 18:09:02 GMT-0600 (Central Standard Time),474312.90000009537,CFD-WF-003-014-A.jpg,1700,solid,I,None,1514,9,1,29175.5,445137.40000009537,8019,ATS,A,11
10,test,2,C,mfborder.png,1,m,Mon Jan 27 2025 18:09:02 GMT-0600 (Central Standard Time),476479.0,CFD-WM-013-015-A.jpg,1200,dash,I,m,932,6,1,31341.599999904633,445137.40000009537,8019,ATS,A,12
11,test,2,C,haborder.png,1,m,Mon Jan 27 2025 18:09:02 GMT-0600 (Central Standard Time),479094.0,CFD-WM-004-005-HC.jpg,1500,solid,I,m,1085,11,1,33956.59999990463,445137.40000009537,8019,ATS,A,13
11,test,2,C,mfborder.png,0,z,Mon Jan 27 2025 18:09:02 GMT-0600 (Central Standard Time),482327.40000009537,CFD-WF-017-016-HC.jpg,1700,dash,I,None,1513,1,1,37190.0,445137.40000009537,8019,ATS,A,14
11,test,2,C,mfborder.png,0,m,Mon Jan 27 2025 18:09:02 GMT-0600 (Central Standard Time),485860.09999990463,CFD-BM-005-010-A.jpg,2000,dash,I,None,1516,5,1,40722.699999809265,445137.40000009537,8019,ATS,A,15
11,test,2,C,haborder.png,0,m,Mon Jan 27 2025 18:09:02 GMT-0600 (Central Standard Time),488991.40000009537,CFD-BM-029-026-HC.jpg,1600,solid,I,None,1512,10,1,43854.0,445137.40000009537,8019,ATS,A,16
12,test,2,C,mfborder.png,1,z,Mon Jan 27 2025 18:09:02 GMT-0600 (Central Standard Time),491759.0,CFD-WF-017-016-HC.jpg,1700,dash,I,z,1049,1,1,46621.59999990463,445137.40000009537,8019,ATS,A,17
13,test,2,C,mfborder.png,1,m,Mon Jan 27 2025 18:09:02 GMT-0600 (Central Standard Time),493989.80000019073,CFD-WM-013-015-A.jpg,1200,dash,I,m,1012,6,1,48852.40000009537,445137.40000009537,8019,ATS,A,18
14,test,2,C,mfborder.png,1,z,Mon Jan 27 2025 18:09:02 GMT-0600 (Central Standard Time),496756.59999990463,CFD-WF-019-015-A.jpg,1600,dash,I,z,1137,2,1,51619.199999809265,445137.40000009537,8019,ATS,A,19
14,test,2,C,haborder.png,0,m,Mon Jan 27 2025 18:09:02 GMT-0600 (Central Standard Time),499289.5,CFD-WM-004-005-HC.jpg,1000,solid,I,None,1512,12,1,54152.09999990463,445137.40000009537,8019,ATS,A,20
15,test,2,C,haborder.png,1,z,Mon Jan 27 2025 18:09:02 GMT-0600 (Central Standard Time),501622.69999980927,CFD-BF-023-013-A.jpg,1400,solid,I,z,914,7,1,56485.2999997139,445137.40000009537,8019,ATS,A,21
16,test,2,C,haborder.png,1,z,Mon Jan 27 2025 18:09:02 GMT-0600 (Central Standard Time),504353.5,CFD-BF-039-039-A.jpg,1900,solid,I,z,808,8,1,59216.09999990463,445137.40000009537,8019,ATS,A,22
17,test,2,C,haborder.png,1,z,Mon Jan 27 2025 18:09:02 GMT-0600 (Central Standard Time),506858.40000009537,CFD-WF-003-014-A.jpg,1700,solid,I,z,781,9,1,61721.0,445137.40000009537,8019,ATS,A,23
17,test,2,C,mfborder.png,0,z,Mon Jan 27 2025 18:09:02 GMT-0600 (Central Standard Time),509650.5,CFD-BF-028-020-HC.jpg,1500,dash,I,m,1264,3,1,64513.09999990463,445137.40000009537,8019,ATS,A,24
0,test,3,C,mfborder.png,0,m,Mon Jan 27 2025 18:09:02 GMT-0600 (Central Standard Time),517416.30000019073,CFD-BM-029-026-HC.jpg,1200,dash,I,None,1505,6,1,2732.2000002861023,514684.09999990463,8019,ATS,A,1
0,test,3,C,haborder.png,0,m,Mon Jan 27 2025 18:09:02 GMT-0600 (Central Standard Time),520065.19999980927,CFD-WF-002-008-HC.jpg,1500,solid,I,z,1107,11,1,5381.099999904633,514684.09999990463,8019,ATS,A,2
1,test,3,C,mfborder.png,1,z,Mon Jan 27 2025 18:09:02 GMT-0600 (Central Standard Time),522631.0,CFD-BF-010-005-HC.jpg,1700,dash,I,z,847,1,1,7946.900000095367,514684.09999990463,8019,ATS,A,3
1,test,3,C,mfborder.png,0,z,Mon Jan 27 2025 18:09:02 GMT-0600 (Central Standard Time),525862.5999999046,CFD-BF-010-005-HC.jpg,1700,dash,I,None,1506,1,1,11178.5,514684.09999990463,8019,ATS,A,4
2,test,3,C,mfborder.png,1,z,Mon Jan 27 2025 18:09:02 GMT-0600 (Central Standard Time),528430.3000001907,CFD-WF-003-014-A.jpg,1500,dash,I,z,1047,3,1,13746.200000286102,514684.09999990463,8019,ATS,A,5
3,test,3,C,mfborder.png,1,z,Mon Jan 27 2025 18:09:02 GMT-0600 (Central Standard Time),531196.5999999046,CFD-BF-023-013-A.jpg,1600,dash,I,z,1149,2,1,16512.5,514684.09999990463,8019,ATS,A,6
3,test,3,C,haborder.png,0,m,Mon Jan 27 2025 18:09:02 GMT-0600 (Central Standard Time),534227.9000000954,CFD-WF-002-008-HC.jpg,1500,solid,I,None,1516,11,1,19543.800000190735,514684.09999990463,8019,ATS,A,7
3,test,3,C,mfborder.png,0,m,Mon Jan 27 2025 18:09:02 GMT-0600 (Central Standard Time),537759.6999998093,CFD-WM-019-013-A.jpg,2000,dash,I,None,1513,5,1,23075.599999904633,514684.09999990463,8019,ATS,A,8
4,test,3,C,mfborder.png,1,z,Mon Jan 27 2025 18:09:02 GMT-0600 (Central Standard Time),540157.9000000954,CFD-WF-003-014-A.jpg,1500,dash,I,z,868,3,1,25473.800000190735,514684.09999990463,8019,ATS,A,9
5,test,3,C,mfborder.png,1,m,Mon Jan 27 2025 18:09:02 GMT-0600 (Central Standard Time),542342.5999999046,CFD-WM-006-013-HC.jpg,1000,dash,I,m,1164,4,1,27658.5,514684.09999990463,8019,ATS,A,10
5,test,3,C,haborder.png,0,z,Mon Jan 27 2025 18:09:02 GMT-0600 (Central Standard Time),545159.0,CFD-BM-010-019-A.jpg,1700,solid,I,m,1099,9,1,30474.900000095367,514684.09999990463,8019,ATS,A,11
6,test,3,C,mfborder.png,1,z,Mon Jan 27 2025 18:09:02 GMT-0600 (Central Standard Time),547922.5,CFD-BF-023-013-A.jpg,1600,dash,I,z,1131,2,1,33238.40000009537,514684.09999990463,8019,ATS,A,12
7,test,3,C,haborder.png,1,m,Mon Jan 27 2025 18:09:02 GMT-0600 (Central Standard Time),550420.8000001907,CFD-BF-028-020-HC.jpg,1600,solid,I,m,870,10,1,35736.7000002861,514684.09999990463,8019,ATS,A,13
8,test,3,C,haborder.png,1,m,Mon Jan 27 2025 18:09:02 GMT-0600 (Central Standard Time),553004.9000000954,CFD-BF-028-020-HC.jpg,1600,solid,I,m,957,10,1,38320.800000190735,514684.09999990463,8019,ATS,A,14
8,test,3,C,haborder.png,0,z,Mon Jan 27 2025 18:09:02 GMT-0600 (Central Standard Time),556437.0999999046,CFD-BM-005-010-A.jpg,1900,solid,I,None,1512,8,1,41753.0,514684.09999990463,8019,ATS,A,15
9,test,3,C,haborder.png,1,z,Mon Jan 27 2025 18:09:02 GMT-0600 (Central Standard Time),559018.0999999046,CFD-WM-013-015-A.jpg,1400,solid,I,z,1156,7,1,44334.0,514684.09999990463,8019,ATS,A,16
10,test,3,C,haborder.png,1,z,Mon Jan 27 2025 18:09:02 GMT-0600 (Central Standard Time),561017.9000000954,CFD-WM-013-015-A.jpg,1400,solid,I,z,566,7,1,46333.800000190735,514684.09999990463,8019,ATS,A,17
11,test,3,C,mfborder.png,1,m,Mon Jan 27 2025 18:09:02 GMT-0600 (Central Standard Time),563284.3000001907,CFD-BM-029-026-HC.jpg,1200,dash,I,m,1037,6,1,48600.2000002861,514684.09999990463,8019,ATS,A,18
12,test,3,C,haborder.png,1,m,Mon Jan 27 2025 18:09:02 GMT-0600 (Central Standard Time),565335.0,CFD-WF-017-016-HC.jpg,1000,solid,I,m,1031,12,1,50650.90000009537,514684.09999990463,8019,ATS,A,19
13,test,3,C,mfborder.png,1,m,Mon Jan 27 2025 18:09:02 GMT-0600 (Central Standard Time),568499.3000001907,CFD-WM-019-013-A.jpg,2000,dash,I,m,1141,5,1,53815.2000002861,514684.09999990463,8019,ATS,A,20
14,test,3,C,mfborder.png,1,m,Mon Jan 27 2025 18:09:02 GMT-0600 (Central Standard Time),570532.9000000954,CFD-WM-006-013-HC.jpg,1000,dash,I,m,1005,4,1,55848.800000190735,514684.09999990463,8019,ATS,A,21
14,test,3,C,haborder.png,0,m,Mon Jan 27 2025 18:09:02 GMT-0600 (Central Standard Time),572229.6999998093,CFD-WF-017-016-HC.jpg,1000,solid,I,z,678,12,1,57545.59999990463,514684.09999990463,8019,ATS,A,22
14,test,3,C,haborder.png,0,z,Mon Jan 27 2025 18:09:02 GMT-0600 (Central Standard Time),575331.0999999046,CFD-BM-005-010-A.jpg,1900,solid,I,m,1164,8,1,60647.0,514684.09999990463,8019,ATS,A,23
14,test,3,C,haborder.png,0,z,Mon Jan 27 2025 18:09:02 GMT-0600 (Central Standard Time),578179.8000001907,CFD-BM-010-019-A.jpg,1700,solid,I,m,1121,9,1,63495.7000002861,514684.09999990463,8019,ATS,A,24
1,test,4,C,haborder.png,1,z,Mon Jan 27 2025 18:09:02 GMT-0600 (Central Standard Time),585995.5999999046,CFD-BF-023-013-A.jpg,1400,solid,I,z,1298,7,1,2732.9000000953674,583262.6999998093,8019,ATS,A,1
2,test,4,C,mfborder.png,1,m,Mon Jan 27 2025 18:09:02 GMT-0600 (Central Standard Time),589394.1999998093,CFD-BM-005-010-A.jpg,2000,dash,I,m,1358,5,1,6131.5,583262.6999998093,8019,ATS,A,2
3,test,4,C,mfborder.png,1,m,Mon Jan 27 2025 18:09:02 GMT-0600 (Central Standard Time),591092.5,CFD-BM-017-052-HC.jpg,1000,dash,I,m,681,4,1,7829.800000190735,583262.6999998093,8019,ATS,A,3
4,test,4,C,mfborder.png,1,m,Mon Jan 27 2025 18:09:02 GMT-0600 (Central Standard Time),592691.9000000954,CFD-BM-017-052-HC.jpg,1000,dash,I,m,563,4,1,9429.200000286102,583262.6999998093,8019,ATS,A,4
5,test,4,C,mfborder.png,1,z,Mon Jan 27 2025 18:09:02 GMT-0600 (Central Standard Time),595411.0999999046,CFD-WF-017-016-HC.jpg,1700,dash,I,z,993,1,1,12148.400000095367,583262.6999998093,8019,ATS,A,5
6,test,4,C,haborder.png,1,m,Mon Jan 27 2025 18:09:02 GMT-0600 (Central Standard Time),598240.3000001907,CFD-WM-004-005-HC.jpg,1500,solid,I,m,1309,11,1,14977.60000038147,583262.6999998093,8019,ATS,A,6
7,test,4,C,mfborder.png,1,z,Mon Jan 27 2025 18:09:02 GMT-0600 (Central Standard Time),600988.9000000954,CFD-BF-028-020-HC.jpg,1500,dash,I,z,1231,3,1,17726.200000286102,583262.6999998093,8019,ATS,A,7
8,test,4,C,mfborder.png,1,m,Mon Jan 27 2025 18:09:02 GMT-0600 (Central Standard Time),604005.3000001907,CFD-BM-005-010-A.jpg,2000,dash,I,m,987,5,1,20742.60000038147,583262.6999998093,8019,ATS,A,8
9,test,4,C,haborder.png,1,z,Mon Jan 27 2025 18:09:02 GMT-0600 (Central Standard Time),606770.5999999046,CFD-WF-003-014-A.jpg,1700,solid,I,z,1039,9,1,23507.900000095367,583262.6999998093,8019,ATS,A,9
10,test,4,C,haborder.png,1,z,Mon Jan 27 2025 18:09:02 GMT-0600 (Central Standard Time),610186.5,CFD-BF-039-039-A.jpg,1900,solid,I,z,1491,8,1,26923.800000190735,583262.6999998093,8019,ATS,A,10
11,test,4,C,haborder.png,1,z,Mon Jan 27 2025 18:09:02 GMT-0600 (Central Standard Time),612751.4000000954,CFD-BF-039-039-A.jpg,1900,solid,I,z,636,8,1,29488.700000286102,583262.6999998093,8019,ATS,A,11
12,test,4,C,haborder.png,1,m,Mon Jan 27 2025 18:09:02 GMT-0600 (Central Standard Time),615335.0,CFD-WM-004-005-HC.jpg,1500,solid,I,m,1063,11,1,32072.300000190735,583262.6999998093,8019,ATS,A,12
12,test,4,C,mfborder.png,0,z,Mon Jan 27 2025 18:09:02 GMT-0600 (Central Standard Time),618568.5,CFD-WF-017-016-HC.jpg,1700,dash,I,None,1513,1,1,35305.800000190735,583262.6999998093,8019,ATS,A,13
13,test,4,C,haborder.png,1,m,Mon Jan 27 2025 18:09:02 GMT-0600 (Central Standard Time),620450.9000000954,CFD-WM-004-005-HC.jpg,1000,solid,I,m,850,12,1,37188.2000002861,583262.6999998093,8019,ATS,A,14
13,test,4,C,haborder.png,0,z,Mon Jan 27 2025 18:09:02 GMT-0600 (Central Standard Time),623381.4000000954,CFD-BF-023-013-A.jpg,1400,solid,I,None,1511,7,1,40118.7000002861,583262.6999998093,8019,ATS,A,15
13,test,4,C,mfborder.png,0,z,Mon Jan 27 2025 18:09:02 GMT-0600 (Central Standard Time),626514.9000000954,CFD-WF-019-015-A.jpg,1600,dash,I,None,1515,2,1,43252.2000002861,583262.6999998093,8019,ATS,A,16
14,test,4,C,haborder.png,1,m,Mon Jan 27 2025 18:09:02 GMT-0600 (Central Standard Time),629429.6999998093,CFD-BM-029-026-HC.jpg,1600,solid,I,m,1286,10,1,46167.0,583262.6999998093,8019,ATS,A,17
15,test,4,C,haborder.png,1,m,Mon Jan 27 2025 18:09:02 GMT-0600 (Central Standard Time),632495.8000001907,CFD-BM-029-026-HC.jpg,1600,solid,I,m,1435,10,1,49233.10000038147,583262.6999998093,8019,ATS,A,18
16,test,4,C,mfborder.png,1,m,Mon Jan 27 2025 18:09:02 GMT-0600 (Central Standard Time),635011.1999998093,CFD-WM-013-015-A.jpg,1200,dash,I,m,1281,6,1,51748.5,583262.6999998093,8019,ATS,A,19
17,test,4,C,mfborder.png,1,z,Mon Jan 27 2025 18:09:02 GMT-0600 (Central Standard Time),637411.4000000954,CFD-BF-028-020-HC.jpg,1500,dash,I,z,863,3,1,54148.7000002861,583262.6999998093,8019,ATS,A,20
18,test,4,C,mfborder.png,1,m,Mon Jan 27 2025 18:09:02 GMT-0600 (Central Standard Time),639258.5999999046,CFD-WM-013-015-A.jpg,1200,dash,I,m,620,6,1,55995.90000009537,583262.6999998093,8019,ATS,A,21
19,test,4,C,haborder.png,1,m,Mon Jan 27 2025 18:09:02 GMT-0600 (Central Standard Time),641360.0999999046,CFD-WM-004-005-HC.jpg,1000,solid,I,m,1076,12,1,58097.40000009537,583262.6999998093,8019,ATS,A,22
19,test,4,C,haborder.png,0,z,Mon Jan 27 2025 18:09:02 GMT-0600 (Central Standard Time),644591.5,CFD-WF-003-014-A.jpg,1700,solid,I,None,1511,9,1,61328.800000190735,583262.6999998093,8019,ATS,A,23
20,test,4,C,mfborder.png,1,z,Mon Jan 27 2025 18:09:02 GMT-0600 (Central Standard Time),647326.0,CFD-WF-019-015-A.jpg,1600,dash,I,z,1107,2,1,64063.300000190735,583262.6999998093,8019,ATS,A,24
