acc_sum,block,block_c,block_cond,con_img,correct,correct_response,datetime,endtime,face,jitter,line,project,response,response_time,row_sel,session_number,start_end,starttime,subject_id,task,task_vers,trial
1,prac,1,A,haborder.png,1,m,Tue Apr 22 2025 18:01:26 GMT-0500 (Central Daylight Time),47596.40000000596,CFD-WM-028-005-HC.jpg,1400,solid,I,m,800,7,2,3027.800000011921,44568.59999999404,8019,ATS,C,1
2,prac,1,A,haborder.png,1,m,Tue Apr 22 2025 18:01:26 GMT-0500 (Central Daylight Time),50601.09999999404,CFD-WF-013-009-HC.jpg,1500,solid,I,m,708,11,2,6032.5,44568.59999999404,8019,ATS,C,2
3,prac,1,A,haborder.png,1,m,Tue Apr 22 2025 18:01:26 GMT-0500 (Central Daylight Time),53682.19999998808,CFD-WM-035-036-HC.jpg,1700,solid,I,m,589,9,2,9113.59999999404,44568.59999999404,8019,ATS,C,3
4,prac,1,A,haborder.png,1,m,Tue Apr 22 2025 18:01:26 GMT-0500 (Central Daylight Time),56648.40000000596,CFD-BM-022-004-HC.jpg,1500,solid,I,m,667,3,2,12079.800000011921,44568.59999999404,8019,ATS,C,4
5,prac,1,A,haborder.png,1,z,Tue Apr 22 2025 18:01:26 GMT-0500 (Central Daylight Time),59980.30000001192,CFD-WM-036-018-A.jpg,1900,solid,I,z,645,8,2,15411.700000017881,44568.59999999404,8019,ATS,C,5
6,prac,1,A,haborder.png,1,z,Tue Apr 22 2025 18:01:26 GMT-0500 (Central Daylight Time),62379.59999999404,CFD-BF-031-020-A.jpg,1000,solid,I,z,605,4,2,17811.0,44568.59999999404,8019,ATS,C,6
7,prac,1,A,haborder.png,1,z,Tue Apr 22 2025 18:01:26 GMT-0500 (Central Daylight Time),65028.90000000596,CFD-BF-002-018-A.jpg,1200,solid,I,z,654,6,2,20460.30000001192,44568.59999999404,8019,ATS,C,7
8,prac,1,A,haborder.png,1,m,Tue Apr 22 2025 18:01:26 GMT-0500 (Central Daylight Time),68610.90000000596,CFD-BM-034-035-HC.jpg,1700,solid,I,m,1097,1,2,24042.30000001192,44568.59999999404,8019,ATS,C,8
9,prac,1,A,haborder.png,1,z,Tue Apr 22 2025 18:01:26 GMT-0500 (Central Daylight Time),71510.09999999404,CFD-WF-037-016-A.jpg,1600,solid,I,z,502,10,2,26941.5,44568.59999999404,8019,ATS,C,9
10,prac,1,A,haborder.png,1,m,Tue Apr 22 2025 18:01:26 GMT-0500 (Central Daylight Time),74975.69999998808,CFD-BF-019-004-HC.jpg,2000,solid,I,m,675,5,2,30407.09999999404,44568.59999999404,8019,ATS,C,10
11,prac,1,A,haborder.png,1,z,Tue Apr 22 2025 18:01:26 GMT-0500 (Central Daylight Time),77608.19999998808,CFD-WF-023-013-A.jpg,1000,solid,I,z,841,12,2,33039.59999999404,44568.59999999404,8019,ATS,C,11
12,prac,1,A,haborder.png,1,z,Tue Apr 22 2025 18:01:26 GMT-0500 (Central Daylight Time),80974.09999999404,CFD-BM-043-014-A.jpg,1600,solid,I,z,977,2,2,36405.5,44568.59999999404,8019,ATS,C,12
1,prac,1,B,mfborder.png,1,z,Tue Apr 22 2025 18:01:26 GMT-0500 (Central Daylight Time),108715.09999999404,CFD-WF-001-010-HC.jpg,1900,8,I,z,755,dash,2,3449.0,105266.09999999404,8019,ATS,C,1
2,prac,1,B,mfborder.png,1,m,Tue Apr 22 2025 18:01:26 GMT-0500 (Central Daylight Time),112130.80000001192,CFD-BM-021-026-A.jpg,1600,2,I,m,1022,dash,2,6864.700000017881,105266.09999999404,8019,ATS,C,2
3,prac,1,B,mfborder.png,1,z,Tue Apr 22 2025 18:01:26 GMT-0500 (Central Daylight Time),115097.59999999404,CFD-BF-019-004-HC.jpg,1400,7,I,z,790,dash,2,9831.5,105266.09999999404,8019,ATS,C,3
4,prac,1,B,mfborder.png,1,z,Tue Apr 22 2025 18:01:26 GMT-0500 (Central Daylight Time),118275.19999998808,CFD-BF-042-031-HC.jpg,1500,3,I,z,869,dash,2,13009.09999999404,105266.09999999404,8019,ATS,C,4
5,prac,1,B,mfborder.png,1,m,Tue Apr 22 2025 18:01:26 GMT-0500 (Central Daylight Time),121761.19999998808,CFD-BM-022-004-HC.jpg,1700,1,I,m,990,dash,2,16495.09999999404,105266.09999999404,8019,ATS,C,5
6,prac,1,B,mfborder.png,1,z,Tue Apr 22 2025 18:01:26 GMT-0500 (Central Daylight Time),124326.80000001192,CFD-BF-031-020-A.jpg,1000,4,I,z,768,dash,2,19060.70000001788,105266.09999999404,8019,ATS,C,6
7,prac,1,B,mfborder.png,1,m,Tue Apr 22 2025 18:01:26 GMT-0500 (Central Daylight Time),127525.80000001192,CFD-WM-035-036-HC.jpg,1600,10,I,m,803,dash,2,22259.70000001788,105266.09999999404,8019,ATS,C,7
8,prac,1,B,mfborder.png,1,z,Tue Apr 22 2025 18:01:26 GMT-0500 (Central Daylight Time),130258.40000000596,CFD-WF-013-009-HC.jpg,1000,12,I,z,939,dash,2,24992.30000001192,105266.09999999404,8019,ATS,C,8
9,prac,1,B,mfborder.png,1,z,Tue Apr 22 2025 18:01:26 GMT-0500 (Central Daylight Time),133823.80000001192,CFD-WF-037-016-A.jpg,1500,11,I,z,1275,dash,2,28557.70000001788,105266.09999999404,8019,ATS,C,9
10,prac,1,B,mfborder.png,1,m,Tue Apr 22 2025 18:01:26 GMT-0500 (Central Daylight Time),137223.0,CFD-WM-036-018-A.jpg,1700,9,I,m,902,dash,2,31956.90000000596,105266.09999999404,8019,ATS,C,10
11,prac,1,B,mfborder.png,1,m,Tue Apr 22 2025 18:01:26 GMT-0500 (Central Daylight Time),141005.09999999404,CFD-BM-043-014-A.jpg,2000,5,I,m,987,dash,2,35739.0,105266.09999999404,8019,ATS,C,11
12,prac,1,B,mfborder.png,1,m,Tue Apr 22 2025 18:01:26 GMT-0500 (Central Daylight Time),143604.09999999404,CFD-WM-034-040-A.jpg,1200,6,I,m,604,dash,2,38338.0,105266.09999999404,8019,ATS,C,12
1,test,1,A,haborder.png,1,m,Tue Apr 22 2025 18:01:26 GMT-0500 (Central Daylight Time),158965.90000000596,CFD-BF-019-004-HC.jpg,2000,solid,I,m,962,5,2,2982.300000011921,155983.59999999404,8019,ATS,C,1
2,test,1,A,haborder.png,1,z,Tue Apr 22 2025 18:01:26 GMT-0500 (Central Daylight Time),161232.09999999404,CFD-WF-037-016-A.jpg,1600,solid,I,z,643,10,2,5248.5,155983.59999999404,8019,ATS,C,2
3,test,1,A,haborder.png,1,z,Tue Apr 22 2025 18:01:26 GMT-0500 (Central Daylight Time),162881.40000000596,CFD-BF-031-020-A.jpg,1000,solid,I,z,625,4,2,6897.800000011921,155983.59999999404,8019,ATS,C,3
4,test,1,A,haborder.png,1,m,Tue Apr 22 2025 18:01:26 GMT-0500 (Central Daylight Time),165228.5,CFD-WF-013-009-HC.jpg,1500,solid,I,m,830,11,2,9244.90000000596,155983.59999999404,8019,ATS,C,4
5,test,1,A,haborder.png,1,m,Tue Apr 22 2025 18:01:26 GMT-0500 (Central Daylight Time),167780.0,CFD-BM-034-035-HC.jpg,1700,solid,I,m,822,1,2,11796.40000000596,155983.59999999404,8019,ATS,C,5
6,test,1,A,haborder.png,1,z,Tue Apr 22 2025 18:01:26 GMT-0500 (Central Daylight Time),170745.69999998808,CFD-WM-036-018-A.jpg,1900,solid,I,z,1041,8,2,14762.09999999404,155983.59999999404,8019,ATS,C,6
7,test,1,A,haborder.png,1,z,Tue Apr 22 2025 18:01:26 GMT-0500 (Central Daylight Time),172578.5,CFD-BF-002-018-A.jpg,1200,solid,I,z,616,6,2,16594.90000000596,155983.59999999404,8019,ATS,C,7
8,test,1,A,haborder.png,1,m,Tue Apr 22 2025 18:01:26 GMT-0500 (Central Daylight Time),174594.40000000596,CFD-WM-028-005-HC.jpg,1400,solid,I,m,591,7,2,18610.80000001192,155983.59999999404,8019,ATS,C,8
9,test,1,A,haborder.png,1,m,Tue Apr 22 2025 18:01:26 GMT-0500 (Central Daylight Time),176593.80000001192,CFD-WM-028-005-HC.jpg,1400,solid,I,m,567,7,2,20610.20000001788,155983.59999999404,8019,ATS,C,9
10,test,1,A,haborder.png,1,m,Tue Apr 22 2025 18:01:26 GMT-0500 (Central Daylight Time),178909.69999998808,CFD-BM-034-035-HC.jpg,1700,solid,I,m,588,1,2,22926.09999999404,155983.59999999404,8019,ATS,C,10
11,test,1,A,haborder.png,1,m,Tue Apr 22 2025 18:01:26 GMT-0500 (Central Daylight Time),180925.90000000596,CFD-BM-022-004-HC.jpg,1500,solid,I,m,495,3,2,24942.30000001192,155983.59999999404,8019,ATS,C,11
11,test,1,A,haborder.png,0,z,Tue Apr 22 2025 18:01:26 GMT-0500 (Central Daylight Time),184358.0,CFD-WM-036-018-A.jpg,1900,solid,I,None,1515,8,2,28374.40000000596,155983.59999999404,8019,ATS,C,12
12,test,1,A,haborder.png,1,z,Tue Apr 22 2025 18:01:26 GMT-0500 (Central Daylight Time),186874.0,CFD-BM-043-014-A.jpg,1600,solid,I,z,891,2,2,30890.40000000596,155983.59999999404,8019,ATS,C,13
13,test,1,A,haborder.png,1,m,Tue Apr 22 2025 18:01:26 GMT-0500 (Central Daylight Time),189106.5,CFD-BM-022-004-HC.jpg,1500,solid,I,m,699,3,2,33122.90000000596,155983.59999999404,8019,ATS,C,14
14,test,1,A,haborder.png,1,z,Tue Apr 22 2025 18:01:26 GMT-0500 (Central Daylight Time),190822.69999998808,CFD-WF-023-013-A.jpg,1000,solid,I,z,686,12,2,34839.09999999404,155983.59999999404,8019,ATS,C,15
15,test,1,A,haborder.png,1,m,Tue Apr 22 2025 18:01:26 GMT-0500 (Central Daylight Time),193123.0,CFD-WF-013-009-HC.jpg,1500,solid,I,m,774,11,2,37139.40000000596,155983.59999999404,8019,ATS,C,16
16,test,1,A,haborder.png,1,z,Tue Apr 22 2025 18:01:26 GMT-0500 (Central Daylight Time),195154.5,CFD-BF-002-018-A.jpg,1200,solid,I,z,815,6,2,39170.90000000596,155983.59999999404,8019,ATS,C,17
16,test,1,A,haborder.png,0,m,Tue Apr 22 2025 18:01:26 GMT-0500 (Central Daylight Time),198053.80000001192,CFD-BF-019-004-HC.jpg,2000,solid,I,z,871,5,2,42070.20000001788,155983.59999999404,8019,ATS,C,18
17,test,1,A,haborder.png,1,m,Tue Apr 22 2025 18:01:26 GMT-0500 (Central Daylight Time),200436.40000000596,CFD-WM-035-036-HC.jpg,1700,solid,I,m,664,9,2,44452.80000001192,155983.59999999404,8019,ATS,C,19
18,test,1,A,haborder.png,1,z,Tue Apr 22 2025 18:01:26 GMT-0500 (Central Daylight Time),202752.40000000596,CFD-WF-037-016-A.jpg,1600,solid,I,z,693,10,2,46768.80000001192,155983.59999999404,8019,ATS,C,20
19,test,1,A,haborder.png,1,z,Tue Apr 22 2025 18:01:26 GMT-0500 (Central Daylight Time),204468.40000000596,CFD-WF-023-013-A.jpg,1000,solid,I,z,689,12,2,48484.80000001192,155983.59999999404,8019,ATS,C,21
20,test,1,A,haborder.png,1,z,Tue Apr 22 2025 18:01:26 GMT-0500 (Central Daylight Time),206850.90000000596,CFD-BM-043-014-A.jpg,1600,solid,I,z,757,2,2,50867.30000001192,155983.59999999404,8019,ATS,C,22
21,test,1,A,haborder.png,1,z,Tue Apr 22 2025 18:01:26 GMT-0500 (Central Daylight Time),208900.40000000596,CFD-BF-031-020-A.jpg,1000,solid,I,z,1030,4,2,52916.80000001192,155983.59999999404,8019,ATS,C,23
22,test,1,A,haborder.png,1,m,Tue Apr 22 2025 18:01:26 GMT-0500 (Central Daylight Time),211332.90000000596,CFD-WM-035-036-HC.jpg,1700,solid,I,m,705,9,2,55349.30000001192,155983.59999999404,8019,ATS,C,24
1,test,1,B,mfborder.png,1,m,Tue Apr 22 2025 18:01:26 GMT-0500 (Central Daylight Time),226611.90000000596,CFD-BM-043-014-A.jpg,2000,dash,I,m,1056,5,2,3082.7000000178814,223529.19999998808,8019,ATS,C,1
2,test,1,B,mfborder.png,1,m,Tue Apr 22 2025 18:01:26 GMT-0500 (Central Daylight Time),228810.80000001192,CFD-BM-021-026-A.jpg,1600,dash,I,m,574,2,2,5281.600000023842,223529.19999998808,8019,ATS,C,2
3,test,1,B,mfborder.png,1,z,Tue Apr 22 2025 18:01:26 GMT-0500 (Central Daylight Time),231193.40000000596,CFD-BF-019-004-HC.jpg,1400,dash,I,z,950,7,2,7664.200000017881,223529.19999998808,8019,ATS,C,3
4,test,1,B,mfborder.png,1,m,Tue Apr 22 2025 18:01:26 GMT-0500 (Central Daylight Time),233459.30000001192,CFD-WM-035-036-HC.jpg,1600,dash,I,m,648,10,2,9930.100000023842,223529.19999998808,8019,ATS,C,4
5,test,1,B,mfborder.png,1,z,Tue Apr 22 2025 18:01:26 GMT-0500 (Central Daylight Time),235442.19999998808,CFD-BF-019-004-HC.jpg,1400,dash,I,z,566,7,2,11913.0,223529.19999998808,8019,ATS,C,5
6,test,1,B,mfborder.png,1,z,Tue Apr 22 2025 18:01:26 GMT-0500 (Central Daylight Time),237508.0,CFD-BF-042-031-HC.jpg,1500,dash,I,z,547,3,2,13978.800000011921,223529.19999998808,8019,ATS,C,6
7,test,1,B,mfborder.png,1,m,Tue Apr 22 2025 18:01:26 GMT-0500 (Central Daylight Time),239324.09999999404,CFD-WM-034-040-A.jpg,1200,dash,I,m,597,6,2,15794.90000000596,223529.19999998808,8019,ATS,C,7
8,test,1,B,mfborder.png,1,m,Tue Apr 22 2025 18:01:26 GMT-0500 (Central Daylight Time),241573.5,CFD-WM-035-036-HC.jpg,1600,dash,I,m,628,10,2,18044.30000001192,223529.19999998808,8019,ATS,C,8
9,test,1,B,mfborder.png,1,z,Tue Apr 22 2025 18:01:26 GMT-0500 (Central Daylight Time),243222.90000000596,CFD-BF-031-020-A.jpg,1000,dash,I,z,628,4,2,19693.70000001788,223529.19999998808,8019,ATS,C,9
10,test,1,B,mfborder.png,1,z,Tue Apr 22 2025 18:01:26 GMT-0500 (Central Daylight Time),245705.30000001192,CFD-WF-001-010-HC.jpg,1900,dash,I,z,550,8,2,22176.100000023842,223529.19999998808,8019,ATS,C,10
11,test,1,B,mfborder.png,1,z,Tue Apr 22 2025 18:01:26 GMT-0500 (Central Daylight Time),247338.40000000596,CFD-WF-013-009-HC.jpg,1000,dash,I,z,601,12,2,23809.20000001788,223529.19999998808,8019,ATS,C,11
12,test,1,B,mfborder.png,1,m,Tue Apr 22 2025 18:01:26 GMT-0500 (Central Daylight Time),249922.30000001192,CFD-BM-043-014-A.jpg,2000,dash,I,m,564,5,2,26393.100000023842,223529.19999998808,8019,ATS,C,12
13,test,1,B,mfborder.png,1,m,Tue Apr 22 2025 18:01:26 GMT-0500 (Central Daylight Time),252353.40000000596,CFD-WM-036-018-A.jpg,1700,dash,I,m,708,9,2,28824.20000001788,223529.19999998808,8019,ATS,C,13
14,test,1,B,mfborder.png,1,m,Tue Apr 22 2025 18:01:26 GMT-0500 (Central Daylight Time),254152.90000000596,CFD-WM-034-040-A.jpg,1200,dash,I,m,576,6,2,30623.70000001788,223529.19999998808,8019,ATS,C,14
14,test,1,B,mfborder.png,0,z,Tue Apr 22 2025 18:01:26 GMT-0500 (Central Daylight Time),256269.0,CFD-WF-013-009-HC.jpg,1000,dash,I,m,1088,12,2,32739.80000001192,223529.19999998808,8019,ATS,C,15
15,test,1,B,mfborder.png,1,z,Tue Apr 22 2025 18:01:26 GMT-0500 (Central Daylight Time),258651.40000000596,CFD-WF-037-016-A.jpg,1500,dash,I,z,864,11,2,35122.20000001788,223529.19999998808,8019,ATS,C,16
16,test,1,B,mfborder.png,1,m,Tue Apr 22 2025 18:01:26 GMT-0500 (Central Daylight Time),261267.40000000596,CFD-WM-036-018-A.jpg,1700,dash,I,m,898,9,2,37738.20000001788,223529.19999998808,8019,ATS,C,17
17,test,1,B,mfborder.png,1,m,Tue Apr 22 2025 18:01:26 GMT-0500 (Central Daylight Time),263634.09999999404,CFD-BM-022-004-HC.jpg,1700,dash,I,m,650,1,2,40104.90000000596,223529.19999998808,8019,ATS,C,18
18,test,1,B,mfborder.png,1,m,Tue Apr 22 2025 18:01:26 GMT-0500 (Central Daylight Time),265882.5,CFD-BM-022-004-HC.jpg,1700,dash,I,m,517,1,2,42353.30000001192,223529.19999998808,8019,ATS,C,19
19,test,1,B,mfborder.png,1,z,Tue Apr 22 2025 18:01:26 GMT-0500 (Central Daylight Time),268415.09999999404,CFD-WF-001-010-HC.jpg,1900,dash,I,z,610,8,2,44885.90000000596,223529.19999998808,8019,ATS,C,20
20,test,1,B,mfborder.png,1,m,Tue Apr 22 2025 18:01:26 GMT-0500 (Central Daylight Time),270681.3000000119,CFD-BM-021-026-A.jpg,1600,dash,I,m,634,2,2,47152.10000002384,223529.19999998808,8019,ATS,C,21
21,test,1,B,mfborder.png,1,z,Tue Apr 22 2025 18:01:26 GMT-0500 (Central Daylight Time),272880.40000000596,CFD-WF-037-016-A.jpg,1500,dash,I,z,668,11,2,49351.20000001788,223529.19999998808,8019,ATS,C,22
22,test,1,B,mfborder.png,1,z,Tue Apr 22 2025 18:01:26 GMT-0500 (Central Daylight Time),275779.3000000119,CFD-BF-042-031-HC.jpg,1500,dash,I,z,1373,3,2,52250.10000002384,223529.19999998808,8019,ATS,C,23
23,test,1,B,mfborder.png,1,z,Tue Apr 22 2025 18:01:26 GMT-0500 (Central Daylight Time),277429.0,CFD-BF-031-020-A.jpg,1000,dash,I,z,629,4,2,53899.80000001192,223529.19999998808,8019,ATS,C,24
0,prac,1,C,mfborder.png,0,m,Tue Apr 22 2025 18:01:26 GMT-0500 (Central Daylight Time),312034.8000000119,CFD-BM-034-035-HC.jpg,2000,solid,I,None,1516,4,2,4298.600000023842,307736.1999999881,8019,ATS,C,1
1,prac,1,C,haborder.png,1,m,Tue Apr 22 2025 18:01:26 GMT-0500 (Central Daylight Time),315050.6999999881,CFD-BM-022-004-HC.jpg,1500,solid,I,m,722,4,2,7314.5,307736.1999999881,8019,ATS,C,2
2,prac,1,C,haborder.png,1,z,Tue Apr 22 2025 18:01:26 GMT-0500 (Central Daylight Time),318599.5,CFD-WF-037-016-A.jpg,1600,dash,I,z,1158,4,2,10863.300000011921,307736.1999999881,8019,ATS,C,3
3,prac,1,C,haborder.png,1,z,Tue Apr 22 2025 18:01:26 GMT-0500 (Central Daylight Time),322048.40000000596,CFD-BF-002-018-A.jpg,1700,solid,I,z,950,4,2,14312.200000017881,307736.1999999881,8019,ATS,C,4
3,prac,1,C,mfborder.png,0,m,Tue Apr 22 2025 18:01:26 GMT-0500 (Central Daylight Time),325697.1999999881,CFD-WM-036-018-A.jpg,1700,solid,I,z,1157,4,2,17961.0,307736.1999999881,8019,ATS,C,5
3,prac,1,C,haborder.png,0,m,Tue Apr 22 2025 18:01:26 GMT-0500 (Central Daylight Time),328996.40000000596,CFD-WM-028-005-HC.jpg,1000,dash,I,None,1516,4,2,21260.20000001788,307736.1999999881,8019,ATS,C,6
4,prac,1,C,mfborder.png,1,z,Tue Apr 22 2025 18:01:26 GMT-0500 (Central Daylight Time),332045.59999999404,CFD-BF-019-004-HC.jpg,1000,dash,I,z,1222,4,2,24309.40000000596,307736.1999999881,8019,ATS,C,7
5,prac,1,C,haborder.png,1,m,Tue Apr 22 2025 18:01:26 GMT-0500 (Central Daylight Time),335361.09999999404,CFD-WM-028-005-HC.jpg,1400,solid,I,m,1132,4,2,27624.90000000596,307736.1999999881,8019,ATS,C,8
6,prac,1,C,mfborder.png,1,m,Tue Apr 22 2025 18:01:26 GMT-0500 (Central Daylight Time),338227.0,CFD-BM-043-014-A.jpg,1200,dash,I,m,880,4,2,30490.80000001192,307736.1999999881,8019,ATS,C,9
7,prac,1,C,mfborder.png,1,z,Tue Apr 22 2025 18:01:26 GMT-0500 (Central Daylight Time),341309.09999999404,CFD-WF-013-009-HC.jpg,1600,dash,I,z,694,4,2,33572.90000000596,307736.1999999881,8019,ATS,C,10
8,prac,1,C,haborder.png,1,z,Tue Apr 22 2025 18:01:26 GMT-0500 (Central Daylight Time),345224.40000000596,CFD-BF-031-020-A.jpg,1900,dash,I,z,1225,4,2,37488.20000001788,307736.1999999881,8019,ATS,C,11
9,prac,1,C,mfborder.png,1,z,Tue Apr 22 2025 18:01:26 GMT-0500 (Central Daylight Time),348990.0,CFD-WF-023-013-A.jpg,1500,solid,I,z,1477,4,2,41253.80000001192,307736.1999999881,8019,ATS,C,12
1,test,1,C,mfborder.png,1,z,Tue Apr 22 2025 18:01:26 GMT-0500 (Central Daylight Time),363119.0,CFD-BF-031-020-A.jpg,1600,dash,I,z,1344,2,2,2965.800000011921,360153.1999999881,8019,ATS,C,1
1,test,1,C,haborder.png,0,z,Tue Apr 22 2025 18:01:26 GMT-0500 (Central Daylight Time),365901.40000000596,CFD-WM-036-018-A.jpg,1400,solid,I,m,1363,7,2,5748.200000017881,360153.1999999881,8019,ATS,C,2
1,test,1,C,mfborder.png,0,m,Tue Apr 22 2025 18:01:26 GMT-0500 (Central Daylight Time),368633.8000000119,CFD-BM-022-004-HC.jpg,1200,dash,I,None,1516,6,2,8480.600000023842,360153.1999999881,8019,ATS,C,3
1,test,1,C,haborder.png,0,m,Tue Apr 22 2025 18:01:26 GMT-0500 (Central Daylight Time),371099.59999999404,CFD-WF-001-010-HC.jpg,1500,solid,I,z,948,11,2,10946.40000000596,360153.1999999881,8019,ATS,C,4
1,test,1,C,haborder.png,0,z,Tue Apr 22 2025 18:01:26 GMT-0500 (Central Daylight Time),373782.1999999881,CFD-WM-036-018-A.jpg,1400,solid,I,m,1253,7,2,13629.0,360153.1999999881,8019,ATS,C,5
1,test,1,C,haborder.png,0,z,Tue Apr 22 2025 18:01:26 GMT-0500 (Central Daylight Time),376897.90000000596,CFD-BM-021-026-A.jpg,1700,solid,I,m,1392,9,2,16744.70000001788,360153.1999999881,8019,ATS,C,6
2,test,1,C,mfborder.png,1,z,Tue Apr 22 2025 18:01:26 GMT-0500 (Central Daylight Time),379897.09999999404,CFD-WF-037-016-A.jpg,1500,dash,I,z,1475,3,2,19743.90000000596,360153.1999999881,8019,ATS,C,7
2,test,1,C,mfborder.png,0,z,Tue Apr 22 2025 18:01:26 GMT-0500 (Central Daylight Time),382762.6999999881,CFD-BF-042-031-HC.jpg,1700,dash,I,m,1141,1,2,22609.5,360153.1999999881,8019,ATS,C,8
2,test,1,C,haborder.png,0,z,Tue Apr 22 2025 18:01:26 GMT-0500 (Central Daylight Time),386194.90000000596,CFD-BM-043-014-A.jpg,1900,solid,I,None,1516,8,2,26041.70000001788,360153.1999999881,8019,ATS,C,9
2,test,1,C,mfborder.png,0,m,Tue Apr 22 2025 18:01:26 GMT-0500 (Central Daylight Time),388727.59999999404,CFD-WM-035-036-HC.jpg,1000,dash,I,None,1516,4,2,28574.40000000596,360153.1999999881,8019,ATS,C,10
3,test,1,C,haborder.png,1,m,Tue Apr 22 2025 18:01:26 GMT-0500 (Central Daylight Time),391410.09999999404,CFD-BF-019-004-HC.jpg,1600,solid,I,m,1058,10,2,31256.90000000596,360153.1999999881,8019,ATS,C,11
4,test,1,C,mfborder.png,1,z,Tue Apr 22 2025 18:01:26 GMT-0500 (Central Daylight Time),394475.6999999881,CFD-BF-042-031-HC.jpg,1700,dash,I,z,1347,1,2,34322.5,360153.1999999881,8019,ATS,C,12
5,test,1,C,haborder.png,1,z,Tue Apr 22 2025 18:01:26 GMT-0500 (Central Daylight Time),397625.0,CFD-BM-021-026-A.jpg,1700,solid,I,z,1418,9,2,37471.80000001192,360153.1999999881,8019,ATS,C,13
5,test,1,C,haborder.png,0,m,Tue Apr 22 2025 18:01:26 GMT-0500 (Central Daylight Time),400157.1999999881,CFD-WF-013-009-HC.jpg,1000,solid,I,None,1515,12,2,40004.0,360153.1999999881,8019,ATS,C,14
5,test,1,C,mfborder.png,0,m,Tue Apr 22 2025 18:01:26 GMT-0500 (Central Daylight Time),403689.6999999881,CFD-WM-034-040-A.jpg,2000,dash,I,None,1516,5,2,43536.5,360153.1999999881,8019,ATS,C,15
5,test,1,C,haborder.png,0,m,Tue Apr 22 2025 18:01:26 GMT-0500 (Central Daylight Time),406722.0,CFD-WF-001-010-HC.jpg,1500,solid,I,None,1516,11,2,46568.80000001192,360153.1999999881,8019,ATS,C,16
5,test,1,C,haborder.png,0,z,Tue Apr 22 2025 18:01:26 GMT-0500 (Central Daylight Time),410070.90000000596,CFD-BM-043-014-A.jpg,1900,solid,I,m,1420,8,2,49917.70000001788,360153.1999999881,8019,ATS,C,17
6,test,1,C,mfborder.png,1,m,Tue Apr 22 2025 18:01:26 GMT-0500 (Central Daylight Time),413586.40000000596,CFD-WM-034-040-A.jpg,2000,dash,I,m,1499,5,2,53433.20000001788,360153.1999999881,8019,ATS,C,18
6,test,1,C,haborder.png,0,m,Tue Apr 22 2025 18:01:26 GMT-0500 (Central Daylight Time),416118.90000000596,CFD-WF-013-009-HC.jpg,1000,solid,I,None,1516,12,2,55965.70000001788,360153.1999999881,8019,ATS,C,19
7,test,1,C,mfborder.png,1,z,Tue Apr 22 2025 18:01:26 GMT-0500 (Central Daylight Time),418601.40000000596,CFD-WF-037-016-A.jpg,1500,dash,I,z,958,3,2,58448.20000001788,360153.1999999881,8019,ATS,C,20
7,test,1,C,mfborder.png,0,z,Tue Apr 22 2025 18:01:26 GMT-0500 (Central Daylight Time),421733.90000000596,CFD-BF-031-020-A.jpg,1600,dash,I,None,1516,2,2,61580.70000001788,360153.1999999881,8019,ATS,C,21
8,test,1,C,mfborder.png,1,m,Tue Apr 22 2025 18:01:26 GMT-0500 (Central Daylight Time),423966.40000000596,CFD-WM-035-036-HC.jpg,1000,dash,I,m,1203,4,2,63813.20000001788,360153.1999999881,8019,ATS,C,22
8,test,1,C,haborder.png,0,m,Tue Apr 22 2025 18:01:26 GMT-0500 (Central Daylight Time),427015.59999999404,CFD-BF-019-004-HC.jpg,1600,solid,I,z,1419,10,2,66862.40000000596,360153.1999999881,8019,ATS,C,23
9,test,1,C,mfborder.png,1,m,Tue Apr 22 2025 18:01:26 GMT-0500 (Central Daylight Time),429648.1999999881,CFD-BM-022-004-HC.jpg,1200,dash,I,m,1402,6,2,69495.0,360153.1999999881,8019,ATS,C,24
1,test,2,C,haborder.png,1,m,Tue Apr 22 2025 18:01:26 GMT-0500 (Central Daylight Time),436712.5,CFD-WM-028-005-HC.jpg,1000,solid,I,m,1154,12,2,2182.800000011921,434529.6999999881,8019,ATS,C,1
1,test,2,C,mfborder.png,0,m,Tue Apr 22 2025 18:01:26 GMT-0500 (Central Daylight Time),439445.09999999404,CFD-WM-036-018-A.jpg,1200,dash,I,None,1512,6,2,4915.4000000059605,434529.6999999881,8019,ATS,C,2
2,test,2,C,haborder.png,1,m,Tue Apr 22 2025 18:01:26 GMT-0500 (Central Daylight Time),441794.1999999881,CFD-WM-028-005-HC.jpg,1000,solid,I,m,1316,12,2,7264.5,434529.6999999881,8019,ATS,C,3
3,test,2,C,haborder.png,1,m,Tue Apr 22 2025 18:01:26 GMT-0500 (Central Daylight Time),444060.1999999881,CFD-WM-028-005-HC.jpg,1500,solid,I,m,739,11,2,9530.5,434529.6999999881,8019,ATS,C,4
4,test,2,C,haborder.png,1,m,Tue Apr 22 2025 18:01:26 GMT-0500 (Central Daylight Time),446176.1999999881,CFD-WM-028-005-HC.jpg,1500,solid,I,m,585,11,2,11646.5,434529.6999999881,8019,ATS,C,5
4,test,2,C,mfborder.png,0,z,Tue Apr 22 2025 18:01:26 GMT-0500 (Central Daylight Time),449475.1999999881,CFD-WF-013-009-HC.jpg,1700,dash,I,None,1505,1,2,14945.5,434529.6999999881,8019,ATS,C,6
4,test,2,C,mfborder.png,0,m,Tue Apr 22 2025 18:01:26 GMT-0500 (Central Daylight Time),452207.6999999881,CFD-WM-036-018-A.jpg,1200,dash,I,None,1516,6,2,17678.0,434529.6999999881,8019,ATS,C,7
5,test,2,C,haborder.png,1,z,Tue Apr 22 2025 18:01:26 GMT-0500 (Central Daylight Time),455173.3000000119,CFD-BF-002-018-A.jpg,1900,solid,I,z,1046,8,2,20643.600000023842,434529.6999999881,8019,ATS,C,8
6,test,2,C,haborder.png,1,z,Tue Apr 22 2025 18:01:26 GMT-0500 (Central Daylight Time),457772.5,CFD-WF-037-016-A.jpg,1700,solid,I,z,880,9,2,23242.80000001192,434529.6999999881,8019,ATS,C,9
6,test,2,C,mfborder.png,0,m,Tue Apr 22 2025 18:01:26 GMT-0500 (Central Daylight Time),460305.09999999404,CFD-BM-034-035-HC.jpg,1000,dash,I,None,1515,4,2,25775.40000000596,434529.6999999881,8019,ATS,C,10
7,test,2,C,mfborder.png,1,z,Tue Apr 22 2025 18:01:26 GMT-0500 (Central Daylight Time),462638.8000000119,CFD-BF-019-004-HC.jpg,1500,dash,I,z,804,3,2,28109.100000023842,434529.6999999881,8019,ATS,C,11
8,test,2,C,mfborder.png,1,z,Tue Apr 22 2025 18:01:26 GMT-0500 (Central Daylight Time),464756.90000000596,CFD-BF-019-004-HC.jpg,1500,dash,I,z,591,3,2,30227.20000001788,434529.6999999881,8019,ATS,C,12
9,test,2,C,haborder.png,1,z,Tue Apr 22 2025 18:01:26 GMT-0500 (Central Daylight Time),467103.0,CFD-BF-031-020-A.jpg,1400,solid,I,z,920,7,2,32573.30000001192,434529.6999999881,8019,ATS,C,13
10,test,2,C,haborder.png,1,m,Tue Apr 22 2025 18:01:26 GMT-0500 (Central Daylight Time),469452.3000000119,CFD-BM-022-004-HC.jpg,1600,solid,I,m,730,10,2,34922.60000002384,434529.6999999881,8019,ATS,C,14
11,test,2,C,haborder.png,1,z,Tue Apr 22 2025 18:01:26 GMT-0500 (Central Daylight Time),472118.1999999881,CFD-BF-002-018-A.jpg,1900,solid,I,z,740,8,2,37588.5,434529.6999999881,8019,ATS,C,15
12,test,2,C,haborder.png,1,z,Tue Apr 22 2025 18:01:26 GMT-0500 (Central Daylight Time),474817.1999999881,CFD-WF-037-016-A.jpg,1700,solid,I,z,968,9,2,40287.5,434529.6999999881,8019,ATS,C,16
12,test,2,C,mfborder.png,0,z,Tue Apr 22 2025 18:01:26 GMT-0500 (Central Daylight Time),477949.5,CFD-WF-023-013-A.jpg,1600,dash,I,None,1515,2,2,43419.80000001192,434529.6999999881,8019,ATS,C,17
13,test,2,C,mfborder.png,1,m,Tue Apr 22 2025 18:01:26 GMT-0500 (Central Daylight Time),481048.8000000119,CFD-BM-043-014-A.jpg,2000,dash,I,m,1068,5,2,46519.10000002384,434529.6999999881,8019,ATS,C,18
14,test,2,C,mfborder.png,1,z,Tue Apr 22 2025 18:01:26 GMT-0500 (Central Daylight Time),483797.59999999404,CFD-WF-023-013-A.jpg,1600,dash,I,z,1121,2,2,49267.90000000596,434529.6999999881,8019,ATS,C,19
15,test,2,C,mfborder.png,1,m,Tue Apr 22 2025 18:01:26 GMT-0500 (Central Daylight Time),485880.5,CFD-BM-034-035-HC.jpg,1000,dash,I,m,1047,4,2,51350.80000001192,434529.6999999881,8019,ATS,C,20
16,test,2,C,haborder.png,1,m,Tue Apr 22 2025 18:01:26 GMT-0500 (Central Daylight Time),488296.3000000119,CFD-BM-022-004-HC.jpg,1600,solid,I,m,793,10,2,53766.60000002384,434529.6999999881,8019,ATS,C,21
17,test,2,C,haborder.png,1,z,Tue Apr 22 2025 18:01:26 GMT-0500 (Central Daylight Time),490745.6999999881,CFD-BF-031-020-A.jpg,1400,solid,I,z,1025,7,2,56216.0,434529.6999999881,8019,ATS,C,22
18,test,2,C,mfborder.png,1,m,Tue Apr 22 2025 18:01:26 GMT-0500 (Central Daylight Time),493878.0,CFD-BM-043-014-A.jpg,2000,dash,I,m,1112,5,2,59348.30000001192,434529.6999999881,8019,ATS,C,23
19,test,2,C,mfborder.png,1,z,Tue Apr 22 2025 18:01:26 GMT-0500 (Central Daylight Time),496577.09999999404,CFD-WF-013-009-HC.jpg,1700,dash,I,z,968,1,2,62047.40000000596,434529.6999999881,8019,ATS,C,24
0,test,3,C,haborder.png,0,m,Tue Apr 22 2025 18:01:26 GMT-0500 (Central Daylight Time),501908.8000000119,CFD-WF-013-009-HC.jpg,1000,solid,I,z,1022,12,2,2049.4000000059605,499859.40000000596,8019,ATS,C,1
1,test,3,C,haborder.png,1,m,Tue Apr 22 2025 18:01:26 GMT-0500 (Central Daylight Time),504608.09999999404,CFD-BF-019-004-HC.jpg,1600,solid,I,m,1069,10,2,4748.699999988079,499859.40000000596,8019,ATS,C,2
2,test,3,C,haborder.png,1,z,Tue Apr 22 2025 18:01:26 GMT-0500 (Central Daylight Time),506807.1999999881,CFD-WM-036-018-A.jpg,1400,solid,I,z,778,7,2,6947.799999982119,499859.40000000596,8019,ATS,C,3
3,test,3,C,haborder.png,1,z,Tue Apr 22 2025 18:01:26 GMT-0500 (Central Daylight Time),509722.90000000596,CFD-BM-021-026-A.jpg,1700,solid,I,z,1191,9,2,9863.5,499859.40000000596,8019,ATS,C,4
4,test,3,C,mfborder.png,1,m,Tue Apr 22 2025 18:01:26 GMT-0500 (Central Daylight Time),511622.40000000596,CFD-BM-022-004-HC.jpg,1200,dash,I,m,678,6,2,11763.0,499859.40000000596,8019,ATS,C,5
4,test,3,C,mfborder.png,0,z,Tue Apr 22 2025 18:01:26 GMT-0500 (Central Daylight Time),514754.90000000596,CFD-BF-031-020-A.jpg,1600,dash,I,None,1516,2,2,14895.5,499859.40000000596,8019,ATS,C,6
5,test,3,C,mfborder.png,1,m,Tue Apr 22 2025 18:01:26 GMT-0500 (Central Daylight Time),516705.1999999881,CFD-WM-035-036-HC.jpg,1000,dash,I,m,926,4,2,16845.79999998212,499859.40000000596,8019,ATS,C,7
6,test,3,C,haborder.png,1,z,Tue Apr 22 2025 18:01:26 GMT-0500 (Central Daylight Time),519386.90000000596,CFD-WM-036-018-A.jpg,1400,solid,I,z,1265,7,2,19527.5,499859.40000000596,8019,ATS,C,8
6,test,3,C,mfborder.png,0,z,Tue Apr 22 2025 18:01:26 GMT-0500 (Central Daylight Time),522618.90000000596,CFD-BF-042-031-HC.jpg,1700,dash,I,None,1516,1,2,22759.5,499859.40000000596,8019,ATS,C,9
7,test,3,C,mfborder.png,1,z,Tue Apr 22 2025 18:01:26 GMT-0500 (Central Daylight Time),525101.599999994,CFD-BF-031-020-A.jpg,1600,dash,I,z,862,2,2,25242.19999998808,499859.40000000596,8019,ATS,C,10
8,test,3,C,mfborder.png,1,z,Tue Apr 22 2025 18:01:26 GMT-0500 (Central Daylight Time),527334.0,CFD-WF-037-016-A.jpg,1500,dash,I,z,712,3,2,27474.59999999404,499859.40000000596,8019,ATS,C,11
9,test,3,C,mfborder.png,1,m,Tue Apr 22 2025 18:01:26 GMT-0500 (Central Daylight Time),530133.3000000119,CFD-WM-034-040-A.jpg,2000,dash,I,m,771,5,2,30273.90000000596,499859.40000000596,8019,ATS,C,12
9,test,3,C,haborder.png,0,z,Tue Apr 22 2025 18:01:26 GMT-0500 (Central Daylight Time),533565.1999999881,CFD-BM-043-014-A.jpg,1900,solid,I,None,1515,8,2,33705.79999998212,499859.40000000596,8019,ATS,C,13
10,test,3,C,haborder.png,1,z,Tue Apr 22 2025 18:01:26 GMT-0500 (Central Daylight Time),536348.0,CFD-BM-043-014-A.jpg,1900,solid,I,z,864,8,2,36488.59999999404,499859.40000000596,8019,ATS,C,14
10,test,3,C,mfborder.png,0,z,Tue Apr 22 2025 18:01:26 GMT-0500 (Central Daylight Time),539380.1999999881,CFD-WF-037-016-A.jpg,1500,dash,I,None,1512,3,2,39520.79999998212,499859.40000000596,8019,ATS,C,15
10,test,3,C,haborder.png,0,m,Tue Apr 22 2025 18:01:26 GMT-0500 (Central Daylight Time),541912.8000000119,CFD-WF-013-009-HC.jpg,1000,solid,I,None,1515,12,2,42053.40000000596,499859.40000000596,8019,ATS,C,16
11,test,3,C,haborder.png,1,m,Tue Apr 22 2025 18:01:26 GMT-0500 (Central Daylight Time),544662.1999999881,CFD-WF-001-010-HC.jpg,1500,solid,I,m,1221,11,2,44802.79999998212,499859.40000000596,8019,ATS,C,17
12,test,3,C,mfborder.png,1,m,Tue Apr 22 2025 18:01:26 GMT-0500 (Central Daylight Time),547311.3000000119,CFD-BM-022-004-HC.jpg,1200,dash,I,m,1419,6,2,47451.90000000596,499859.40000000596,8019,ATS,C,18
12,test,3,C,haborder.png,0,z,Tue Apr 22 2025 18:01:26 GMT-0500 (Central Daylight Time),550543.5,CFD-BM-021-026-A.jpg,1700,solid,I,None,1516,9,2,50684.09999999404,499859.40000000596,8019,ATS,C,19
13,test,3,C,mfborder.png,1,m,Tue Apr 22 2025 18:01:26 GMT-0500 (Central Daylight Time),552592.900000006,CFD-WM-035-036-HC.jpg,1000,dash,I,m,1026,4,2,52733.5,499859.40000000596,8019,ATS,C,20
13,test,3,C,haborder.png,0,m,Tue Apr 22 2025 18:01:26 GMT-0500 (Central Daylight Time),555192.1999999881,CFD-WF-001-010-HC.jpg,1500,solid,I,z,1068,11,2,55332.79999998212,499859.40000000596,8019,ATS,C,21
13,test,3,C,mfborder.png,0,z,Tue Apr 22 2025 18:01:26 GMT-0500 (Central Daylight Time),558424.5,CFD-BF-042-031-HC.jpg,1700,dash,I,None,1515,1,2,58565.09999999404,499859.40000000596,8019,ATS,C,22
14,test,3,C,haborder.png,1,m,Tue Apr 22 2025 18:01:26 GMT-0500 (Central Daylight Time),561256.8000000119,CFD-BF-019-004-HC.jpg,1600,solid,I,m,1201,10,2,61397.40000000596,499859.40000000596,8019,ATS,C,23
14,test,3,C,mfborder.png,0,m,Tue Apr 22 2025 18:01:26 GMT-0500 (Central Daylight Time),564772.3000000119,CFD-WM-034-040-A.jpg,2000,dash,I,z,1488,5,2,64912.90000000596,499859.40000000596,8019,ATS,C,24
1,test,4,C,haborder.png,1,m,Tue Apr 22 2025 18:01:26 GMT-0500 (Central Daylight Time),570637.400000006,CFD-BM-022-004-HC.jpg,1600,solid,I,m,996,10,2,2615.9000000059605,568021.5,8019,ATS,C,1
2,test,4,C,haborder.png,1,m,Tue Apr 22 2025 18:01:26 GMT-0500 (Central Daylight Time),572320.099999994,CFD-WM-028-005-HC.jpg,1000,solid,I,m,656,12,2,4298.5999999940395,568021.5,8019,ATS,C,2
3,test,4,C,haborder.png,1,z,Tue Apr 22 2025 18:01:26 GMT-0500 (Central Daylight Time),574685.900000006,CFD-WF-037-016-A.jpg,1700,solid,I,z,637,9,2,6664.4000000059605,568021.5,8019,ATS,C,3
4,test,4,C,mfborder.png,1,m,Tue Apr 22 2025 18:01:26 GMT-0500 (Central Daylight Time),577885.0,CFD-BM-043-014-A.jpg,2000,dash,I,m,1172,5,2,9863.5,568021.5,8019,ATS,C,4
5,test,4,C,mfborder.png,1,z,Tue Apr 22 2025 18:01:26 GMT-0500 (Central Daylight Time),580400.8000000119,CFD-WF-023-013-A.jpg,1600,dash,I,z,893,2,2,12379.300000011921,568021.5,8019,ATS,C,5
6,test,4,C,mfborder.png,1,z,Tue Apr 22 2025 18:01:26 GMT-0500 (Central Daylight Time),582716.8000000119,CFD-WF-023-013-A.jpg,1600,dash,I,z,688,2,2,14695.300000011921,568021.5,8019,ATS,C,6
7,test,4,C,mfborder.png,1,m,Tue Apr 22 2025 18:01:26 GMT-0500 (Central Daylight Time),584932.900000006,CFD-BM-034-035-HC.jpg,1000,dash,I,m,1189,4,2,16911.40000000596,568021.5,8019,ATS,C,7
8,test,4,C,haborder.png,1,m,Tue Apr 22 2025 18:01:26 GMT-0500 (Central Daylight Time),587198.599999994,CFD-WM-028-005-HC.jpg,1000,solid,I,m,1236,12,2,19177.09999999404,568021.5,8019,ATS,C,8
8,test,4,C,mfborder.png,0,m,Tue Apr 22 2025 18:01:26 GMT-0500 (Central Daylight Time),589931.1999999881,CFD-WM-036-018-A.jpg,1200,dash,I,None,1515,6,2,21909.69999998808,568021.5,8019,ATS,C,9
8,test,4,C,haborder.png,0,z,Tue Apr 22 2025 18:01:26 GMT-0500 (Central Daylight Time),593363.5,CFD-BF-002-018-A.jpg,1900,solid,I,None,1515,8,2,25342.0,568021.5,8019,ATS,C,10
9,test,4,C,haborder.png,1,z,Tue Apr 22 2025 18:01:26 GMT-0500 (Central Daylight Time),595412.6999999881,CFD-BF-031-020-A.jpg,1400,solid,I,z,622,7,2,27391.19999998808,568021.5,8019,ATS,C,11
10,test,4,C,mfborder.png,1,m,Tue Apr 22 2025 18:01:26 GMT-0500 (Central Daylight Time),598062.0,CFD-WM-036-018-A.jpg,1200,dash,I,m,1428,6,2,30040.5,568021.5,8019,ATS,C,12
10,test,4,C,haborder.png,0,z,Tue Apr 22 2025 18:01:26 GMT-0500 (Central Daylight Time),600994.400000006,CFD-BF-031-020-A.jpg,1400,solid,I,None,1512,7,2,32972.90000000596,568021.5,8019,ATS,C,13
11,test,4,C,haborder.png,1,m,Tue Apr 22 2025 18:01:26 GMT-0500 (Central Daylight Time),603393.1999999881,CFD-WM-028-005-HC.jpg,1500,solid,I,m,867,11,2,35371.69999998808,568021.5,8019,ATS,C,14
12,test,4,C,haborder.png,1,m,Tue Apr 22 2025 18:01:26 GMT-0500 (Central Daylight Time),605710.400000006,CFD-BM-022-004-HC.jpg,1600,solid,I,m,696,10,2,37688.90000000596,568021.5,8019,ATS,C,15
13,test,4,C,mfborder.png,1,z,Tue Apr 22 2025 18:01:26 GMT-0500 (Central Daylight Time),608575.1999999881,CFD-BF-019-004-HC.jpg,1500,dash,I,z,1336,3,2,40553.69999998808,568021.5,8019,ATS,C,16
14,test,4,C,haborder.png,1,m,Tue Apr 22 2025 18:01:26 GMT-0500 (Central Daylight Time),610907.900000006,CFD-WM-028-005-HC.jpg,1500,solid,I,m,812,11,2,42886.40000000596,568021.5,8019,ATS,C,17
15,test,4,C,mfborder.png,1,z,Tue Apr 22 2025 18:01:26 GMT-0500 (Central Daylight Time),613540.1999999881,CFD-WF-013-009-HC.jpg,1700,dash,I,z,826,1,2,45518.69999998808,568021.5,8019,ATS,C,18
15,test,4,C,mfborder.png,0,m,Tue Apr 22 2025 18:01:26 GMT-0500 (Central Daylight Time),617072.900000006,CFD-BM-043-014-A.jpg,2000,dash,I,None,1515,5,2,49051.40000000596,568021.5,8019,ATS,C,19
16,test,4,C,mfborder.png,1,z,Tue Apr 22 2025 18:01:26 GMT-0500 (Central Daylight Time),619438.8000000119,CFD-WF-013-009-HC.jpg,1700,dash,I,z,644,1,2,51417.30000001192,568021.5,8019,ATS,C,20
17,test,4,C,mfborder.png,1,m,Tue Apr 22 2025 18:01:26 GMT-0500 (Central Daylight Time),621354.6999999881,CFD-BM-034-035-HC.jpg,1000,dash,I,m,891,4,2,53333.19999998808,568021.5,8019,ATS,C,21
18,test,4,C,haborder.png,1,z,Tue Apr 22 2025 18:01:26 GMT-0500 (Central Daylight Time),624037.099999994,CFD-WF-037-016-A.jpg,1700,solid,I,z,959,9,2,56015.59999999404,568021.5,8019,ATS,C,22
19,test,4,C,haborder.png,1,z,Tue Apr 22 2025 18:01:26 GMT-0500 (Central Daylight Time),626803.1999999881,CFD-BF-002-018-A.jpg,1900,solid,I,z,840,8,2,58781.69999998808,568021.5,8019,ATS,C,23
19,test,4,C,mfborder.png,0,z,Tue Apr 22 2025 18:01:26 GMT-0500 (Central Daylight Time),629835.599999994,CFD-BF-019-004-HC.jpg,1500,dash,I,None,1516,3,2,61814.09999999404,568021.5,8019,ATS,C,24
