Number,acc_sum,block,block_c,block_cond,con_img,correct,correct_response,datetime,endtime,jitter,project,response,response_time,row_sel,session_number,start_end,starttime,subject_id,task,task_vers,trial
7,1,prac,1,A,circle.png,1,m,Fri Mar 07 2025 15:37:20 GMT-0600 (Central Standard Time),72291.59999999986,1700,O,m,714,6,1,3193.6999999999534,69097.8999999999,7078,NTS,C,1
6,2,prac,1,A,circle.png,1,m,Fri Mar 07 2025 15:37:20 GMT-0600 (Central Standard Time),75491.0,1900,O,m,515,5,1,3193.100000000093,72297.8999999999,7078,NTS,C,2
7,3,prac,1,A,circle.png,1,m,Fri Mar 07 2025 15:37:20 GMT-0600 (Central Standard Time),78506.59999999986,1700,O,m,517,6,1,3010.3000000000466,75496.29999999981,7078,NTS,C,3
4,4,prac,1,A,circle.png,1,z,Fri Mar 07 2025 15:37:20 GMT-0600 (Central Standard Time),81305.5,1400,O,z,600,4,1,2793.3000000000466,78512.19999999995,7078,NTS,C,4
3,5,prac,1,A,circle.png,1,z,Fri Mar 07 2025 15:37:20 GMT-0600 (Central Standard Time),83971.5,1200,O,z,681,3,1,2660.4000000001397,81311.09999999986,7078,NTS,C,5
1,6,prac,1,A,circle.png,1,z,Fri Mar 07 2025 15:37:20 GMT-0600 (Central Standard Time),86287.19999999995,1000,O,z,520,1,1,2310.1999999999534,83977.0,7078,NTS,C,6
8,7,prac,1,A,circle.png,1,m,Fri Mar 07 2025 15:37:20 GMT-0600 (Central Standard Time),89319.59999999986,1600,O,m,635,7,1,3026.899999999907,86292.69999999995,7078,NTS,C,7
6,8,prac,1,A,circle.png,1,m,Fri Mar 07 2025 15:37:20 GMT-0600 (Central Standard Time),92668.59999999986,1900,O,m,656,5,1,3343.899999999907,89324.69999999995,7078,NTS,C,8
2,9,prac,1,A,circle.png,1,z,Fri Mar 07 2025 15:37:20 GMT-0600 (Central Standard Time),96134.5,2000,O,z,678,2,1,3460.4000000001397,92674.09999999986,7078,NTS,C,9
2,10,prac,1,A,circle.png,1,z,Fri Mar 07 2025 15:37:20 GMT-0600 (Central Standard Time),99683.29999999981,2000,O,z,757,2,1,3543.399999999907,96139.8999999999,7078,NTS,C,10
8,11,prac,1,A,circle.png,1,m,Fri Mar 07 2025 15:37:20 GMT-0600 (Central Standard Time),102849.79999999981,1600,O,m,792,7,1,3161.2999999998137,99688.5,7078,NTS,C,11
9,12,prac,1,A,circle.png,1,m,Fri Mar 07 2025 15:37:20 GMT-0600 (Central Standard Time),106014.69999999995,1500,O,m,870,8,1,3159.4000000001397,102855.29999999981,7078,NTS,C,12
6,1,prac,1,B,triangle.png,1,m,Fri Mar 07 2025 15:37:20 GMT-0600 (Central Standard Time),150267.2999999998,1000,O,m,1149,5,1,2927.5999999998603,147339.69999999995,7078,NTS,C,1
8,2,prac,1,B,triangle.png,1,m,Fri Mar 07 2025 15:37:20 GMT-0600 (Central Standard Time),152766.09999999986,1200,O,m,504,7,1,2493.0,150273.09999999986,7078,NTS,C,2
8,3,prac,1,B,triangle.png,1,m,Fri Mar 07 2025 15:37:20 GMT-0600 (Central Standard Time),155298.7999999998,1200,O,m,533,7,1,2527.2999999998137,152771.5,7078,NTS,C,3
4,4,prac,1,B,triangle.png,1,m,Fri Mar 07 2025 15:37:20 GMT-0600 (Central Standard Time),158214.69999999995,1500,O,m,620,4,1,2911.1999999999534,155303.5,7078,NTS,C,4
9,5,prac,1,B,triangle.png,1,z,Fri Mar 07 2025 15:37:20 GMT-0600 (Central Standard Time),161180.69999999995,1400,O,z,779,8,1,2960.8000000000466,158219.8999999999,7078,NTS,C,5
7,5,prac,1,B,triangle.png,0,z,Fri Mar 07 2025 15:37:20 GMT-0600 (Central Standard Time),164729.19999999995,2000,O,m,759,6,1,3543.3000000000466,161185.8999999999,7078,NTS,C,6
2,6,prac,1,B,triangle.png,1,m,Fri Mar 07 2025 15:37:20 GMT-0600 (Central Standard Time),168011.7999999998,1700,O,m,798,2,1,3277.399999999907,164734.3999999999,7078,NTS,C,7
2,7,prac,1,B,triangle.png,1,m,Fri Mar 07 2025 15:37:20 GMT-0600 (Central Standard Time),171310.8999999999,1700,O,m,804,2,1,3294.100000000093,168016.7999999998,7078,NTS,C,8
1,8,prac,1,B,triangle.png,1,z,Fri Mar 07 2025 15:37:20 GMT-0600 (Central Standard Time),174626.2999999998,1900,O,z,617,1,1,3310.399999999907,171315.8999999999,7078,NTS,C,9
4,9,prac,1,B,triangle.png,1,m,Fri Mar 07 2025 15:37:20 GMT-0600 (Central Standard Time),177608.8999999999,1500,O,m,693,4,1,2977.600000000093,174631.2999999998,7078,NTS,C,10
1,10,prac,1,B,triangle.png,1,z,Fri Mar 07 2025 15:37:20 GMT-0600 (Central Standard Time),181007.59999999986,1900,O,z,711,1,1,3393.8000000000466,177613.7999999998,7078,NTS,C,11
3,11,prac,1,B,triangle.png,1,z,Fri Mar 07 2025 15:37:20 GMT-0600 (Central Standard Time),184256.59999999986,1600,O,z,860,3,1,3244.1999999999534,181012.3999999999,7078,NTS,C,12
6,1,test,1,A,circle.png,1,m,Fri Mar 07 2025 15:37:20 GMT-0600 (Central Standard Time),209115.3999999999,1900,O,m,1208,5,1,3128.100000000093,205987.2999999998,7078,NTS,C,1
8,2,test,1,A,circle.png,1,m,Fri Mar 07 2025 15:37:20 GMT-0600 (Central Standard Time),211465.8999999999,1600,O,m,650,7,1,2346.3000000000466,209119.59999999986,7078,NTS,C,2
3,3,test,1,A,circle.png,1,z,Fri Mar 07 2025 15:37:20 GMT-0600 (Central Standard Time),213297.2999999998,1200,O,z,610,3,1,1827.3999999999069,211469.8999999999,7078,NTS,C,3
7,4,test,1,A,circle.png,1,m,Fri Mar 07 2025 15:37:20 GMT-0600 (Central Standard Time),215979.8999999999,1700,O,m,950,6,1,2679.0,213300.8999999999,7078,NTS,C,4
1,5,test,1,A,circle.png,1,z,Fri Mar 07 2025 15:37:20 GMT-0600 (Central Standard Time),217729.3999999999,1000,O,z,727,1,1,1745.8999999999069,215983.5,7078,NTS,C,5
2,6,test,1,A,circle.png,1,z,Fri Mar 07 2025 15:37:20 GMT-0600 (Central Standard Time),220628.3999999999,2000,O,z,874,2,1,2895.399999999907,217733.0,7078,NTS,C,6
9,6,test,1,A,circle.png,0,m,Fri Mar 07 2025 15:37:20 GMT-0600 (Central Standard Time),223660.69999999995,1500,O,None,1516,8,1,3028.5,220632.19999999995,7078,NTS,C,7
1,7,test,1,A,circle.png,1,z,Fri Mar 07 2025 15:37:20 GMT-0600 (Central Standard Time),225327.0,1000,O,z,646,1,1,1662.4000000001397,223664.59999999986,7078,NTS,C,8
4,8,test,1,A,circle.png,1,z,Fri Mar 07 2025 15:37:20 GMT-0600 (Central Standard Time),227926.19999999995,1400,O,z,1172,4,1,2595.600000000093,225330.59999999986,7078,NTS,C,9
3,9,test,1,A,circle.png,1,z,Fri Mar 07 2025 15:37:20 GMT-0600 (Central Standard Time),230508.3999999999,1200,O,z,1357,3,1,2578.6999999999534,227929.69999999995,7078,NTS,C,10
7,9,test,1,A,circle.png,0,m,Fri Mar 07 2025 15:37:20 GMT-0600 (Central Standard Time),233741.0,1700,O,None,1514,6,1,3228.3000000000466,230512.69999999995,7078,NTS,C,11
2,10,test,1,A,circle.png,1,z,Fri Mar 07 2025 15:37:20 GMT-0600 (Central Standard Time),236439.69999999995,2000,O,z,679,2,1,2694.9000000001397,233744.7999999998,7078,NTS,C,12
4,11,test,1,A,circle.png,1,z,Fri Mar 07 2025 15:37:20 GMT-0600 (Central Standard Time),238689.19999999995,1400,O,z,819,4,1,2245.6999999999534,236443.5,7078,NTS,C,13
6,12,test,1,A,circle.png,1,m,Fri Mar 07 2025 15:37:20 GMT-0600 (Central Standard Time),241505.5,1900,O,m,894,5,1,2812.5,238693.0,7078,NTS,C,14
9,13,test,1,A,circle.png,1,m,Fri Mar 07 2025 15:37:20 GMT-0600 (Central Standard Time),243621.09999999986,1500,O,m,590,8,1,2111.6999999999534,241509.3999999999,7078,NTS,C,15
9,14,test,1,A,circle.png,1,m,Fri Mar 07 2025 15:37:20 GMT-0600 (Central Standard Time),245770.19999999995,1500,O,m,626,8,1,2145.600000000093,243624.59999999986,7078,NTS,C,16
6,15,test,1,A,circle.png,1,m,Fri Mar 07 2025 15:37:20 GMT-0600 (Central Standard Time),248469.69999999995,1900,O,m,781,5,1,2695.1999999999534,245774.5,7078,NTS,C,17
6,16,test,1,A,circle.png,1,m,Fri Mar 07 2025 15:37:20 GMT-0600 (Central Standard Time),251035.3999999999,1900,O,m,641,5,1,2562.100000000093,248473.2999999998,7078,NTS,C,18
3,17,test,1,A,circle.png,1,z,Fri Mar 07 2025 15:37:20 GMT-0600 (Central Standard Time),252985.09999999986,1200,O,z,727,3,1,1945.6999999999534,251039.3999999999,7078,NTS,C,19
1,18,test,1,A,circle.png,1,z,Fri Mar 07 2025 15:37:20 GMT-0600 (Central Standard Time),255151.0,1000,O,z,1146,1,1,2162.3000000000466,252988.69999999995,7078,NTS,C,20
8,19,test,1,A,circle.png,1,m,Fri Mar 07 2025 15:37:20 GMT-0600 (Central Standard Time),257518.0,1600,O,m,748,7,1,2363.100000000093,255154.8999999999,7078,NTS,C,21
4,20,test,1,A,circle.png,1,z,Fri Mar 07 2025 15:37:20 GMT-0600 (Central Standard Time),260349.5,1400,O,z,1406,4,1,2827.5,257522.0,7078,NTS,C,22
9,21,test,1,A,circle.png,1,m,Fri Mar 07 2025 15:37:20 GMT-0600 (Central Standard Time),262482.0,1500,O,m,602,8,1,2129.2000000001863,260352.7999999998,7078,NTS,C,23
3,22,test,1,A,circle.png,1,z,Fri Mar 07 2025 15:37:20 GMT-0600 (Central Standard Time),264464.5,1200,O,z,753,3,1,1978.9000000001397,262485.59999999986,7078,NTS,C,24
9,1,test,1,B,triangle.png,1,z,Fri Mar 07 2025 15:37:20 GMT-0600 (Central Standard Time),283258.69999999995,1400,O,z,751,8,1,2178.3000000000466,281080.3999999999,7078,NTS,C,1
2,2,test,1,B,triangle.png,1,m,Fri Mar 07 2025 15:37:20 GMT-0600 (Central Standard Time),285191.2999999998,1200,O,m,704,10,1,1928.7999999998137,283262.5,7078,NTS,C,2
6,2,test,1,B,triangle.png,0,m,Fri Mar 07 2025 15:37:20 GMT-0600 (Central Standard Time),288223.7999999998,1500,O,None,1516,13,1,3028.7999999998137,285195.0,7078,NTS,C,3
9,3,test,1,B,triangle.png,1,z,Fri Mar 07 2025 15:37:20 GMT-0600 (Central Standard Time),290273.2999999998,1400,O,z,627,8,1,2045.2999999998137,288228.0,7078,NTS,C,4
8,4,test,1,B,triangle.png,1,m,Fri Mar 07 2025 15:37:20 GMT-0600 (Central Standard Time),292255.8999999999,1200,O,m,762,7,1,1978.8999999999069,290277.0,7078,NTS,C,5
7,5,test,1,B,triangle.png,1,z,Fri Mar 07 2025 15:37:20 GMT-0600 (Central Standard Time),294821.69999999995,1600,O,z,940,14,1,2562.3000000000466,292259.3999999999,7078,NTS,C,6
4,6,test,1,B,triangle.png,1,m,Fri Mar 07 2025 15:37:20 GMT-0600 (Central Standard Time),296837.69999999995,1000,O,m,989,12,1,2012.1000000000931,294825.59999999986,7078,NTS,C,7
8,7,test,1,B,triangle.png,1,m,Fri Mar 07 2025 15:37:20 GMT-0600 (Central Standard Time),299421.0,1700,O,m,849,15,1,2579.600000000093,296841.3999999999,7078,NTS,C,8
4,7,test,1,B,triangle.png,0,m,Fri Mar 07 2025 15:37:20 GMT-0600 (Central Standard Time),302452.8999999999,1500,O,None,1516,4,1,3028.3000000000466,299424.59999999986,7078,NTS,C,9
1,8,test,1,B,triangle.png,1,z,Fri Mar 07 2025 15:37:20 GMT-0600 (Central Standard Time),304972.59999999986,1900,O,z,595,1,1,2515.899999999907,302456.69999999995,7078,NTS,C,10
3,9,test,1,B,triangle.png,1,z,Fri Mar 07 2025 15:37:20 GMT-0600 (Central Standard Time),307701.0,1600,O,z,1115,3,1,2724.5,304976.5,7078,NTS,C,11
2,10,test,1,B,triangle.png,1,m,Fri Mar 07 2025 15:37:20 GMT-0600 (Central Standard Time),310116.7999999998,1700,O,m,698,2,1,2412.0999999998603,307704.69999999995,7078,NTS,C,12
7,11,test,1,B,triangle.png,1,z,Fri Mar 07 2025 15:37:20 GMT-0600 (Central Standard Time),312449.69999999995,1600,O,z,710,14,1,2329.5,310120.19999999995,7078,NTS,C,13
7,12,test,1,B,triangle.png,1,z,Fri Mar 07 2025 15:37:20 GMT-0600 (Central Standard Time),315382.0,2000,O,z,906,6,1,2928.7000000001863,312453.2999999998,7078,NTS,C,14
1,13,test,1,B,triangle.png,1,z,Fri Mar 07 2025 15:37:20 GMT-0600 (Central Standard Time),317498.09999999986,1400,O,z,693,9,1,2112.0,315386.09999999986,7078,NTS,C,15
9,14,test,1,B,triangle.png,1,z,Fri Mar 07 2025 15:37:20 GMT-0600 (Central Standard Time),320247.09999999986,1900,O,z,821,16,1,2745.1999999999534,317501.8999999999,7078,NTS,C,16
6,15,test,1,B,triangle.png,1,m,Fri Mar 07 2025 15:37:20 GMT-0600 (Central Standard Time),322029.8999999999,1000,O,m,756,5,1,1779.1000000000931,320250.7999999998,7078,NTS,C,17
1,16,test,1,B,triangle.png,1,z,Fri Mar 07 2025 15:37:20 GMT-0600 (Central Standard Time),324562.2999999998,1900,O,z,602,1,1,2528.899999999907,322033.3999999999,7078,NTS,C,18
3,17,test,1,B,triangle.png,1,z,Fri Mar 07 2025 15:37:20 GMT-0600 (Central Standard Time),327612.09999999986,2000,O,z,1033,11,1,3046.0,324566.09999999986,7078,NTS,C,19
9,18,test,1,B,triangle.png,1,z,Fri Mar 07 2025 15:37:20 GMT-0600 (Central Standard Time),330360.3999999999,1900,O,z,820,16,1,2744.6999999999534,327615.69999999995,7078,NTS,C,20
4,19,test,1,B,triangle.png,1,m,Fri Mar 07 2025 15:37:20 GMT-0600 (Central Standard Time),332077.0,1000,O,m,683,12,1,1712.7000000001863,330364.2999999998,7078,NTS,C,21
2,20,test,1,B,triangle.png,1,m,Fri Mar 07 2025 15:37:20 GMT-0600 (Central Standard Time),334159.3999999999,1200,O,m,862,10,1,2078.8000000000466,332080.59999999986,7078,NTS,C,22
4,21,test,1,B,triangle.png,1,m,Fri Mar 07 2025 15:37:20 GMT-0600 (Central Standard Time),336292.19999999995,1500,O,m,600,4,1,2129.0,334163.19999999995,7078,NTS,C,23
8,22,test,1,B,triangle.png,1,m,Fri Mar 07 2025 15:37:20 GMT-0600 (Central Standard Time),339274.5,1700,O,m,1259,15,1,2978.3000000000466,336296.19999999995,7078,NTS,C,24
6,0,prac,1,C,circle.png,0,m,Fri Mar 07 2025 15:37:20 GMT-0600 (Central Standard Time),400488.7999999998,2000,O,None,1515,5,1,4293.59999999986,396195.19999999995,7078,NTS,C,1
6,1,prac,1,C,circle.png,1,m,Fri Mar 07 2025 15:37:20 GMT-0600 (Central Standard Time),403754.19999999995,2000,O,m,475,5,1,3259.8000000000466,400494.3999999999,7078,NTS,C,2
7,2,prac,1,C,triangle.png,1,z,Fri Mar 07 2025 15:37:20 GMT-0600 (Central Standard Time),406620.09999999986,1200,O,z,873,6,1,2861.3000000000466,403758.7999999998,7078,NTS,C,3
2,3,prac,1,C,triangle.png,1,m,Fri Mar 07 2025 15:37:20 GMT-0600 (Central Standard Time),409819.19999999995,1600,O,m,799,2,1,3194.4000000001397,406624.7999999998,7078,NTS,C,4
3,4,prac,1,C,triangle.png,1,z,Fri Mar 07 2025 15:37:20 GMT-0600 (Central Standard Time),412818.0,1500,O,z,708,3,1,2993.8000000000466,409824.19999999995,7078,NTS,C,5
8,5,prac,1,C,triangle.png,1,m,Fri Mar 07 2025 15:37:20 GMT-0600 (Central Standard Time),416117.0,1400,O,m,1105,7,1,3293.4000000001397,412823.59999999986,7078,NTS,C,6
2,5,prac,1,C,triangle.png,0,m,Fri Mar 07 2025 15:37:20 GMT-0600 (Central Standard Time),420015.7999999998,1600,O,None,1515,2,1,3894.0999999998603,416121.69999999995,7078,NTS,C,7
9,6,prac,1,C,circle.png,1,m,Fri Mar 07 2025 15:37:20 GMT-0600 (Central Standard Time),424047.7999999998,1900,O,m,1335,8,1,4027.1999999999534,420020.59999999986,7078,NTS,C,8
4,7,prac,1,C,circle.png,1,z,Fri Mar 07 2025 15:37:20 GMT-0600 (Central Standard Time),426846.8999999999,1000,O,z,1003,4,1,2794.3000000000466,424052.59999999986,7078,NTS,C,9
9,8,prac,1,C,circle.png,1,m,Fri Mar 07 2025 15:37:20 GMT-0600 (Central Standard Time),430279.2999999998,1900,O,m,744,8,1,3427.7999999998137,426851.5,7078,NTS,C,10
3,9,prac,1,C,triangle.png,1,z,Fri Mar 07 2025 15:37:20 GMT-0600 (Central Standard Time),433628.3999999999,1500,O,z,1063,3,1,3344.3000000000466,430284.09999999986,7078,NTS,C,11
1,10,prac,1,C,circle.png,1,z,Fri Mar 07 2025 15:37:20 GMT-0600 (Central Standard Time),436793.7999999998,1700,O,z,676,1,1,3160.5999999998603,433633.19999999995,7078,NTS,C,12
9,1,test,1,C,circle.png,1,m,Fri Mar 07 2025 15:37:20 GMT-0600 (Central Standard Time),456870.8999999999,1500,O,m,738,24,1,2263.0,454607.8999999999,7078,NTS,C,1
3,2,test,1,C,circle.png,1,z,Fri Mar 07 2025 15:37:20 GMT-0600 (Central Standard Time),459220.19999999995,1600,O,z,725,19,1,2344.8000000000466,456875.3999999999,7078,NTS,C,2
6,3,test,1,C,circle.png,1,m,Fri Mar 07 2025 15:37:20 GMT-0600 (Central Standard Time),461852.69999999995,1900,O,m,707,21,1,2628.8000000000466,459223.8999999999,7078,NTS,C,3
7,4,test,1,C,circle.png,1,m,Fri Mar 07 2025 15:37:20 GMT-0600 (Central Standard Time),464418.3999999999,2000,O,m,543,14,1,2562.0,461856.3999999999,7078,NTS,C,4
9,5,test,1,C,triangle.png,1,z,Fri Mar 07 2025 15:37:20 GMT-0600 (Central Standard Time),467251.0,1400,O,z,1409,16,1,2828.7000000001863,464422.2999999998,7078,NTS,C,5
4,6,test,1,C,circle.png,1,z,Fri Mar 07 2025 15:37:20 GMT-0600 (Central Standard Time),469699.09999999986,1400,O,z,1014,4,1,2444.0,467255.09999999986,7078,NTS,C,6
2,6,test,1,C,triangle.png,0,m,Fri Mar 07 2025 15:37:20 GMT-0600 (Central Standard Time),473232.59999999986,2000,O,None,1516,2,1,3529.1999999999534,469703.3999999999,7078,NTS,C,7
4,7,test,1,C,triangle.png,1,m,Fri Mar 07 2025 15:37:20 GMT-0600 (Central Standard Time),475648.09999999986,1500,O,m,887,20,1,2411.5999999998603,473236.5,7078,NTS,C,8
8,8,test,1,C,triangle.png,1,m,Fri Mar 07 2025 15:37:20 GMT-0600 (Central Standard Time),478530.69999999995,1600,O,m,1251,23,1,2878.600000000093,475652.09999999986,7078,NTS,C,9
9,8,test,1,C,circle.png,0,m,Fri Mar 07 2025 15:37:20 GMT-0600 (Central Standard Time),480829.7999999998,1500,O,z,780,8,1,2295.0,478534.7999999998,7078,NTS,C,10
8,8,test,1,C,circle.png,0,m,Fri Mar 07 2025 15:37:20 GMT-0600 (Central Standard Time),483562.7999999998,1200,O,None,1516,15,1,2729.2999999998137,480833.5,7078,NTS,C,11
4,8,test,1,C,triangle.png,0,m,Fri Mar 07 2025 15:37:20 GMT-0600 (Central Standard Time),486561.5,1500,O,z,1469,12,1,2994.5,483567.0,7078,NTS,C,12
6,8,test,1,C,triangle.png,0,m,Fri Mar 07 2025 15:37:20 GMT-0600 (Central Standard Time),489094.19999999995,1000,O,None,1515,13,1,2528.9000000001397,486565.2999999998,7078,NTS,C,13
1,9,test,1,C,triangle.png,1,z,Fri Mar 07 2025 15:37:20 GMT-0600 (Central Standard Time),491776.5,1900,O,z,752,17,1,2678.4000000001397,489098.09999999986,7078,NTS,C,14
1,10,test,1,C,triangle.png,1,z,Fri Mar 07 2025 15:37:20 GMT-0600 (Central Standard Time),494542.2999999998,1900,O,z,839,9,1,2761.899999999907,491780.3999999999,7078,NTS,C,15
8,11,test,1,C,triangle.png,1,m,Fri Mar 07 2025 15:37:20 GMT-0600 (Central Standard Time),497191.5,1600,O,m,1021,7,1,2645.4000000001397,494546.09999999986,7078,NTS,C,16
6,12,test,1,C,circle.png,1,m,Fri Mar 07 2025 15:37:20 GMT-0600 (Central Standard Time),500057.19999999995,1900,O,m,936,5,1,2860.5,497196.69999999995,7078,NTS,C,17
3,13,test,1,C,circle.png,1,z,Fri Mar 07 2025 15:37:20 GMT-0600 (Central Standard Time),502523.2999999998,1600,O,z,842,11,1,2462.0999999998603,500061.19999999995,7078,NTS,C,18
3,14,test,1,C,triangle.png,1,z,Fri Mar 07 2025 15:37:20 GMT-0600 (Central Standard Time),505055.7999999998,1200,O,z,1304,3,1,2528.6999999999534,502527.09999999986,7078,NTS,C,19
7,15,test,1,C,triangle.png,1,z,Fri Mar 07 2025 15:37:20 GMT-0600 (Central Standard Time),508187.8999999999,1700,O,z,1399,6,1,3128.100000000093,505059.7999999998,7078,NTS,C,20
1,16,test,1,C,circle.png,1,z,Fri Mar 07 2025 15:37:20 GMT-0600 (Central Standard Time),510187.7999999998,1000,O,z,967,1,1,1996.0999999998603,508191.69999999995,7078,NTS,C,21
2,17,test,1,C,circle.png,1,z,Fri Mar 07 2025 15:37:20 GMT-0600 (Central Standard Time),512970.09999999986,1700,O,z,1060,10,1,2778.399999999907,510191.69999999995,7078,NTS,C,22
2,18,test,1,C,circle.png,1,z,Fri Mar 07 2025 15:37:20 GMT-0600 (Central Standard Time),515319.3999999999,1700,O,z,622,18,1,2345.6999999999534,512973.69999999995,7078,NTS,C,23
7,18,test,1,C,triangle.png,0,z,Fri Mar 07 2025 15:37:20 GMT-0600 (Central Standard Time),518118.2999999998,1700,O,m,1072,22,1,2794.7999999998137,515323.5,7078,NTS,C,24
3,1,test,2,C,circle.png,1,z,Fri Mar 07 2025 15:37:20 GMT-0600 (Central Standard Time),530164.2,1600,O,z,1141,19,1,2762.600000000093,527401.5999999999,7078,NTS,C,1
2,2,test,2,C,circle.png,1,z,Fri Mar 07 2025 15:37:20 GMT-0600 (Central Standard Time),532813.8999999999,1700,O,z,931,10,1,2645.5,530168.3999999999,7078,NTS,C,2
6,2,test,2,C,triangle.png,0,m,Fri Mar 07 2025 15:37:20 GMT-0600 (Central Standard Time),535346.5,1000,O,None,1515,13,1,2525.600000000093,532820.8999999999,7078,NTS,C,3
8,3,test,2,C,triangle.png,1,m,Fri Mar 07 2025 15:37:20 GMT-0600 (Central Standard Time),538412.0999999999,1600,O,m,1441,7,1,3061.6999999999534,535350.3999999999,7078,NTS,C,4
8,4,test,2,C,circle.png,1,m,Fri Mar 07 2025 15:37:20 GMT-0600 (Central Standard Time),540778.2999999998,1200,O,m,1135,15,1,2362.399999999907,538415.8999999999,7078,NTS,C,5
1,5,test,2,C,triangle.png,1,z,Fri Mar 07 2025 15:37:20 GMT-0600 (Central Standard Time),543643.7,1900,O,z,941,17,1,2861.3000000000466,540782.3999999999,7078,NTS,C,6
7,6,test,2,C,circle.png,1,m,Fri Mar 07 2025 15:37:20 GMT-0600 (Central Standard Time),546659.5,2000,O,m,984,22,1,3012.3000000000466,543647.2,7078,NTS,C,7
1,7,test,2,C,circle.png,1,z,Fri Mar 07 2025 15:37:20 GMT-0600 (Central Standard Time),548342.0999999999,1000,O,z,664,1,1,1678.6999999999534,546663.3999999999,7078,NTS,C,8
1,8,test,2,C,triangle.png,1,z,Fri Mar 07 2025 15:37:20 GMT-0600 (Central Standard Time),551091.5,1900,O,z,824,9,1,2745.8000000000466,548345.7,7078,NTS,C,9
7,9,test,2,C,triangle.png,1,z,Fri Mar 07 2025 15:37:20 GMT-0600 (Central Standard Time),553640.5999999999,1700,O,z,828,6,1,2545.1999999999534,551095.3999999999,7078,NTS,C,10
4,10,test,2,C,triangle.png,1,m,Fri Mar 07 2025 15:37:20 GMT-0600 (Central Standard Time),556006.3999999999,1500,O,m,847,12,1,2361.899999999907,553644.5,7078,NTS,C,11
9,11,test,2,C,circle.png,1,m,Fri Mar 07 2025 15:37:20 GMT-0600 (Central Standard Time),558239.0,1500,O,m,705,8,1,2229.0,556010.0,7078,NTS,C,12
9,12,test,2,C,triangle.png,1,z,Fri Mar 07 2025 15:37:20 GMT-0600 (Central Standard Time),560638.5,1400,O,z,980,16,1,2395.5,558243.0,7078,NTS,C,13
6,13,test,2,C,circle.png,1,m,Fri Mar 07 2025 15:37:20 GMT-0600 (Central Standard Time),564054.0,1900,O,m,1497,5,1,3411.5,560642.5,7078,NTS,C,14
2,14,test,2,C,circle.png,1,z,Fri Mar 07 2025 15:37:20 GMT-0600 (Central Standard Time),566519.7999999998,1700,O,z,737,18,1,2461.899999999907,564057.8999999999,7078,NTS,C,15
3,15,test,2,C,circle.png,1,z,Fri Mar 07 2025 15:37:20 GMT-0600 (Central Standard Time),569069.0,1600,O,z,931,11,1,2545.4000000001397,566523.5999999999,7078,NTS,C,16
9,15,test,2,C,triangle.png,0,z,Fri Mar 07 2025 15:37:20 GMT-0600 (Central Standard Time),571501.5999999999,1400,O,m,1006,24,1,2428.5999999998603,569073.0,7078,NTS,C,17
4,15,test,2,C,triangle.png,0,m,Fri Mar 07 2025 15:37:20 GMT-0600 (Central Standard Time),573034.5,1500,O,z,9,20,1,1529.3000000000466,571505.2,7078,NTS,C,18
6,15,test,2,C,triangle.png,0,m,Fri Mar 07 2025 15:37:20 GMT-0600 (Central Standard Time),575567.0999999999,1000,O,None,1515,21,1,2527.5999999998603,573039.5,7078,NTS,C,19
7,16,test,2,C,circle.png,1,m,Fri Mar 07 2025 15:37:20 GMT-0600 (Central Standard Time),577683.0999999999,2000,O,m,85,14,1,2112.1999999999534,575570.8999999999,7078,NTS,C,20
2,16,test,2,C,triangle.png,0,m,Fri Mar 07 2025 15:37:20 GMT-0600 (Central Standard Time),581215.3999999999,2000,O,None,1515,2,1,3528.5,577686.8999999999,7078,NTS,C,21
3,17,test,2,C,triangle.png,1,z,Fri Mar 07 2025 15:37:20 GMT-0600 (Central Standard Time),583597.7,1200,O,z,1164,3,1,2378.6999999999534,581219.0,7078,NTS,C,22
8,18,test,2,C,circle.png,1,m,Fri Mar 07 2025 15:37:20 GMT-0600 (Central Standard Time),585680.3999999999,1200,O,m,853,23,1,2078.8000000000466,583601.5999999999,7078,NTS,C,23
4,19,test,2,C,circle.png,1,z,Fri Mar 07 2025 15:37:20 GMT-0600 (Central Standard Time),588096.2999999998,1400,O,z,949,4,1,2411.0,585685.2999999998,7078,NTS,C,24
3,0,test,3,C,triangle.png,0,z,Fri Mar 07 2025 15:37:20 GMT-0600 (Central Standard Time),592245.2,1200,O,None,1516,3,1,2729.600000000093,589515.5999999999,7078,NTS,C,1
3,0,test,3,C,circle.png,0,z,Fri Mar 07 2025 15:37:20 GMT-0600 (Central Standard Time),594595.5,1600,O,m,726,11,1,2346.8000000000466,592248.7,7078,NTS,C,2
7,1,test,3,C,triangle.png,1,z,Fri Mar 07 2025 15:37:20 GMT-0600 (Central Standard Time),597194.7,1700,O,z,869,6,1,2595.5,594599.2,7078,NTS,C,3
2,1,test,3,C,triangle.png,0,m,Fri Mar 07 2025 15:37:20 GMT-0600 (Central Standard Time),600109.5999999999,2000,O,z,890,2,1,2910.6999999999534,597198.8999999999,7078,NTS,C,4
2,2,test,3,C,triangle.png,1,m,Fri Mar 07 2025 15:37:20 GMT-0600 (Central Standard Time),603574.8999999999,2000,O,m,1446,18,1,3461.6999999999534,600113.2,7078,NTS,C,5
6,3,test,3,C,circle.png,1,m,Fri Mar 07 2025 15:37:20 GMT-0600 (Central Standard Time),606490.5,1900,O,m,984,21,1,2911.8000000000466,603578.7,7078,NTS,C,6
9,4,test,3,C,circle.png,1,m,Fri Mar 07 2025 15:37:20 GMT-0600 (Central Standard Time),608789.8999999999,1500,O,m,781,24,1,2295.5,606494.3999999999,7078,NTS,C,7
7,5,test,3,C,circle.png,1,m,Fri Mar 07 2025 15:37:20 GMT-0600 (Central Standard Time),611605.5,2000,O,m,736,14,1,2811.2000000001863,608794.2999999998,7078,NTS,C,8
7,6,test,3,C,triangle.png,1,z,Fri Mar 07 2025 15:37:20 GMT-0600 (Central Standard Time),614321.3999999999,1700,O,z,986,22,1,2712.0,611609.3999999999,7078,NTS,C,9
1,7,test,3,C,circle.png,1,z,Fri Mar 07 2025 15:37:20 GMT-0600 (Central Standard Time),616137.7,1000,O,z,794,17,1,1812.6000000000931,614325.0999999999,7078,NTS,C,10
8,7,test,3,C,triangle.png,0,m,Fri Mar 07 2025 15:37:20 GMT-0600 (Central Standard Time),619270.0,1600,O,None,1515,23,1,3128.600000000093,616141.3999999999,7078,NTS,C,11
1,8,test,3,C,circle.png,1,z,Fri Mar 07 2025 15:37:20 GMT-0600 (Central Standard Time),621219.2,1000,O,z,925,1,1,1945.3000000000466,619273.8999999999,7078,NTS,C,12
8,9,test,3,C,triangle.png,1,m,Fri Mar 07 2025 15:37:20 GMT-0600 (Central Standard Time),624201.7,1600,O,m,1359,7,1,2978.3000000000466,621223.3999999999,7078,NTS,C,13
1,10,test,3,C,triangle.png,1,z,Fri Mar 07 2025 15:37:20 GMT-0600 (Central Standard Time),626884.3999999999,1900,O,z,766,9,1,2679.0,624205.3999999999,7078,NTS,C,14
3,11,test,3,C,triangle.png,1,z,Fri Mar 07 2025 15:37:20 GMT-0600 (Central Standard Time),629450.0,1200,O,z,1343,19,1,2562.100000000093,626887.8999999999,7078,NTS,C,15
4,12,test,3,C,circle.png,1,z,Fri Mar 07 2025 15:37:20 GMT-0600 (Central Standard Time),631849.2999999998,1400,O,z,969,4,1,2395.399999999907,629453.8999999999,7078,NTS,C,16
4,12,test,3,C,triangle.png,0,m,Fri Mar 07 2025 15:37:20 GMT-0600 (Central Standard Time),634881.7,1500,O,None,1516,12,1,3028.5,631853.2,7078,NTS,C,17
9,13,test,3,C,circle.png,1,m,Fri Mar 07 2025 15:37:20 GMT-0600 (Central Standard Time),637664.0,1500,O,m,1262,8,1,2778.7000000001863,634885.2999999998,7078,NTS,C,18
6,14,test,3,C,circle.png,1,m,Fri Mar 07 2025 15:37:20 GMT-0600 (Central Standard Time),640646.5,1900,O,m,1063,5,1,2978.600000000093,637667.8999999999,7078,NTS,C,19
8,15,test,3,C,circle.png,1,m,Fri Mar 07 2025 15:37:20 GMT-0600 (Central Standard Time),642662.5999999999,1200,O,m,788,15,1,2012.0999999998603,640650.5,7078,NTS,C,20
2,16,test,3,C,circle.png,1,z,Fri Mar 07 2025 15:37:20 GMT-0600 (Central Standard Time),645245.3999999999,1700,O,z,856,10,1,2578.899999999907,642666.5,7078,NTS,C,21
9,17,test,3,C,triangle.png,1,z,Fri Mar 07 2025 15:37:20 GMT-0600 (Central Standard Time),647761.0,1400,O,z,1094,16,1,2512.0,645249.0,7078,NTS,C,22
6,18,test,3,C,triangle.png,1,m,Fri Mar 07 2025 15:37:20 GMT-0600 (Central Standard Time),650276.7,1000,O,m,1498,13,1,2512.100000000093,647764.5999999999,7078,NTS,C,23
4,19,test,3,C,circle.png,1,z,Fri Mar 07 2025 15:37:20 GMT-0600 (Central Standard Time),652742.8999999999,1400,O,z,1046,20,1,2461.6999999999534,650281.2,7078,NTS,C,24
9,1,test,4,C,circle.png,1,m,Fri Mar 07 2025 15:37:20 GMT-0600 (Central Standard Time),656391.7999999998,1500,O,m,1179,8,1,2696.5,653695.2999999998,7078,NTS,C,1
1,2,test,4,C,circle.png,1,z,Fri Mar 07 2025 15:37:20 GMT-0600 (Central Standard Time),658224.5999999999,1000,O,z,811,1,1,1829.0,656395.5999999999,7078,NTS,C,2
7,2,test,4,C,triangle.png,0,z,Fri Mar 07 2025 15:37:20 GMT-0600 (Central Standard Time),661456.7,1700,O,None,1516,22,1,3228.1999999999534,658228.5,7078,NTS,C,3
2,3,test,4,C,triangle.png,1,m,Fri Mar 07 2025 15:37:20 GMT-0600 (Central Standard Time),664472.3999999999,2000,O,m,994,2,1,3011.6999999999534,661460.7,7078,NTS,C,4
9,4,test,4,C,circle.png,1,m,Fri Mar 07 2025 15:37:20 GMT-0600 (Central Standard Time),666855.0999999999,1500,O,m,863,24,1,2378.5999999998603,664476.5,7078,NTS,C,5
1,5,test,4,C,circle.png,1,z,Fri Mar 07 2025 15:37:20 GMT-0600 (Central Standard Time),668754.2999999998,1000,O,z,868,17,1,1895.5999999998603,666858.7,7078,NTS,C,6
9,5,test,4,C,triangle.png,0,z,Fri Mar 07 2025 15:37:20 GMT-0600 (Central Standard Time),671020.3999999999,1400,O,m,849,16,1,2262.3000000000466,668758.0999999999,7078,NTS,C,7
4,5,test,4,C,circle.png,0,z,Fri Mar 07 2025 15:37:20 GMT-0600 (Central Standard Time),673953.0,1400,O,None,1516,4,1,2929.0,671024.0,7078,NTS,C,8
7,6,test,4,C,circle.png,1,m,Fri Mar 07 2025 15:37:20 GMT-0600 (Central Standard Time),676868.7,2000,O,m,883,14,1,2912.1999999999534,673956.5,7078,NTS,C,9
8,7,test,4,C,circle.png,1,m,Fri Mar 07 2025 15:37:20 GMT-0600 (Central Standard Time),679068.2999999998,1200,O,m,982,15,1,2195.7999999998137,676872.5,7078,NTS,C,10
7,8,test,4,C,triangle.png,1,z,Fri Mar 07 2025 15:37:20 GMT-0600 (Central Standard Time),682050.2,1700,O,z,1252,6,1,2978.3000000000466,679071.8999999999,7078,NTS,C,11
3,9,test,4,C,triangle.png,1,z,Fri Mar 07 2025 15:37:20 GMT-0600 (Central Standard Time),684049.5999999999,1200,O,z,777,19,1,1995.8000000000466,682053.7999999998,7078,NTS,C,12
3,10,test,4,C,circle.png,1,z,Fri Mar 07 2025 15:37:20 GMT-0600 (Central Standard Time),686565.3999999999,1600,O,z,890,11,1,2511.899999999907,684053.5,7078,NTS,C,13
6,11,test,4,C,circle.png,1,m,Fri Mar 07 2025 15:37:20 GMT-0600 (Central Standard Time),689364.7999999998,1900,O,m,874,21,1,2793.7999999998137,686571.0,7078,NTS,C,14
4,11,test,4,C,triangle.png,0,m,Fri Mar 07 2025 15:37:20 GMT-0600 (Central Standard Time),692213.5999999999,1500,O,z,1323,12,1,2844.5,689369.0999999999,7078,NTS,C,15
8,12,test,4,C,triangle.png,1,m,Fri Mar 07 2025 15:37:20 GMT-0600 (Central Standard Time),695062.8999999999,1600,O,m,1222,7,1,2844.899999999907,692218.0,7078,NTS,C,16
2,12,test,4,C,triangle.png,0,m,Fri Mar 07 2025 15:37:20 GMT-0600 (Central Standard Time),697896.3999999999,2000,O,z,812,18,1,2829.600000000093,695066.7999999998,7078,NTS,C,17
2,13,test,4,C,circle.png,1,z,Fri Mar 07 2025 15:37:20 GMT-0600 (Central Standard Time),700811.0999999999,1700,O,z,1191,10,1,2910.899999999907,697900.2,7078,NTS,C,18
8,14,test,4,C,triangle.png,1,m,Fri Mar 07 2025 15:37:20 GMT-0600 (Central Standard Time),703576.8999999999,1600,O,m,1136,23,1,2762.100000000093,700814.7999999998,7078,NTS,C,19
1,14,test,4,C,triangle.png,0,z,Fri Mar 07 2025 15:37:20 GMT-0600 (Central Standard Time),707009.0999999999,1900,O,None,1516,9,1,3428.6999999999534,703580.3999999999,7078,NTS,C,20
4,15,test,4,C,circle.png,1,z,Fri Mar 07 2025 15:37:20 GMT-0600 (Central Standard Time),709608.2,1400,O,z,1178,20,1,2594.5,707013.7,7078,NTS,C,21
6,16,test,4,C,triangle.png,1,m,Fri Mar 07 2025 15:37:20 GMT-0600 (Central Standard Time),712007.5999999999,1000,O,m,1371,13,1,2395.6999999999534,709611.8999999999,7078,NTS,C,22
3,16,test,4,C,triangle.png,0,z,Fri Mar 07 2025 15:37:20 GMT-0600 (Central Standard Time),714739.8999999999,1200,O,None,1516,3,1,2728.3000000000466,712011.5999999999,7078,NTS,C,23
6,17,test,4,C,circle.png,1,m,Fri Mar 07 2025 15:37:20 GMT-0600 (Central Standard Time),717705.7,1900,O,m,1035,5,1,2961.9000000001397,714743.7999999998,7078,NTS,C,24
