acc_sum,block,block_c,change,condition,correct,correct_response,datetime,endtime,face,project,response,response_time,row_sel,session_number,start_end,starttime,subject_id,task,task_vers,trial
0,prac,1,,1-Back,,,Mon Feb 24 2025 15:37:06 GMT-0600 (Central Standard Time),,012_o_f_d_a.png,O,space,1801,1,1,,,7060,VNB,C,0
1,prac,1,0.0,1-Back,1,m,Mon Feb 24 2025 15:37:06 GMT-0600 (Central Standard Time),255287.79999998212,022_y_f_n_a.png,O,m,1194,2,1,2071.899999976158,253215.90000000596,7060,VNB,C,1
2,prac,1,0.0,1-Back,1,m,Mon Feb 24 2025 15:37:06 GMT-0600 (Central Standard Time),257487.90000000596,014_m_m_h_a.png,O,m,1333,3,1,2195.5,255292.40000000596,7060,VNB,C,2
3,prac,1,0.0,1-Back,1,m,Mon Feb 24 2025 15:37:06 GMT-0600 (Central Standard Time),260021.29999998212,025_y_m_d_a.png,O,m,1676,4,1,2528.199999988079,257493.09999999404,7060,VNB,C,3
4,prac,1,0.0,1-Back,1,m,Mon Feb 24 2025 15:37:06 GMT-0600 (Central Standard Time),262038.0,012_o_f_n_a.png,O,m,1135,5,1,2012.0,260026.0,7060,VNB,C,4
4,prac,1,1.0,1-Back,0,z,Mon Feb 24 2025 15:37:06 GMT-0600 (Central Standard Time),264902.59999999404,025_y_m_n_a.png,O,None,2008,6,1,2860.0,262042.59999999404,7060,VNB,C,5
5,prac,1,0.0,1-Back,1,m,Mon Feb 24 2025 15:37:06 GMT-0600 (Central Standard Time),267618.6999999881,015_o_m_h_a.png,O,m,1831,7,1,2711.2999999821186,264907.40000000596,7060,VNB,C,6
6,prac,1,0.0,1-Back,1,m,Mon Feb 24 2025 15:37:06 GMT-0600 (Central Standard Time),270070.09999999404,019_m_f_d_a.png,O,m,1556,8,1,2447.0,267623.09999999404,7060,VNB,C,7
7,prac,1,1.0,1-Back,1,z,Mon Feb 24 2025 15:37:06 GMT-0600 (Central Standard Time),272051.40000000596,022_y_f_d_a.png,O,z,1094,9,1,1972.800000011921,270078.59999999404,7060,VNB,C,8
8,prac,1,0.0,1-Back,1,m,Mon Feb 24 2025 15:37:06 GMT-0600 (Central Standard Time),274866.90000000596,014_m_m_n_a.png,O,m,1934,10,1,2806.4000000059605,272060.5,7060,VNB,C,9
9,prac,1,0.0,1-Back,1,m,Mon Feb 24 2025 15:37:06 GMT-0600 (Central Standard Time),277117.0,012_o_f_h_a.png,O,m,1357,11,1,2241.4000000059605,274875.59999999404,7060,VNB,C,10
10,prac,1,0.0,1-Back,1,m,Mon Feb 24 2025 15:37:06 GMT-0600 (Central Standard Time),279215.40000000596,025_y_m_d_a.png,O,m,1234,12,1,2094.2000000178814,277121.1999999881,7060,VNB,C,11
0,test,1,0.0,1-Back,,,Mon Feb 24 2025 15:37:06 GMT-0600 (Central Standard Time),279215.40000000596,022_y_f_d_a.png,O,space,10497,1,1,2094.2000000178814,277121.1999999881,7060,VNB,C,0
1,test,1,0.0,1-Back,1,m,Mon Feb 24 2025 15:37:06 GMT-0600 (Central Standard Time),302392.0,019_m_f_n_a.png,O,m,1242,2,1,2259.0999999940395,300132.90000000596,7060,VNB,C,1
2,test,1,0.0,1-Back,1,m,Mon Feb 24 2025 15:37:06 GMT-0600 (Central Standard Time),304374.6999999881,015_o_m_h_a.png,O,m,959,3,1,1976.5999999940395,302398.09999999404,7060,VNB,C,2
2,test,1,1.0,1-Back,0,z,Mon Feb 24 2025 15:37:06 GMT-0600 (Central Standard Time),306956.1999999881,014_m_m_h_a.png,O,m,1563,4,1,2576.5999999940395,304379.59999999404,7060,VNB,C,3
3,test,1,0.0,1-Back,1,m,Mon Feb 24 2025 15:37:06 GMT-0600 (Central Standard Time),309023.1999999881,012_o_f_n_a.png,O,m,1043,5,1,2058.5999999940395,306964.59999999404,7060,VNB,C,4
4,test,1,0.0,1-Back,1,m,Mon Feb 24 2025 15:37:06 GMT-0600 (Central Standard Time),310824.2999999821,025_y_m_d_a.png,O,m,776,6,1,1793.3999999761581,309030.90000000596,7060,VNB,C,5
5,test,1,1.0,1-Back,1,z,Mon Feb 24 2025 15:37:06 GMT-0600 (Central Standard Time),313307.2999999821,019_m_f_d_a.png,O,z,1450,7,1,2475.5,310831.7999999821,7060,VNB,C,6
5,test,1,0.0,1-Back,0,m,Mon Feb 24 2025 15:37:06 GMT-0600 (Central Standard Time),316338.0,022_y_f_h_a.png,O,None,2014,8,1,3023.2000000178814,313314.7999999821,7060,VNB,C,7
6,test,1,0.0,1-Back,1,m,Mon Feb 24 2025 15:37:06 GMT-0600 (Central Standard Time),318803.6999999881,015_o_m_n_a.png,O,m,1446,9,1,2458.5999999940395,316345.09999999404,7060,VNB,C,8
7,test,1,0.0,1-Back,1,m,Mon Feb 24 2025 15:37:06 GMT-0600 (Central Standard Time),320920.2999999821,025_y_m_h_a.png,O,m,1083,10,1,2107.5999999940395,318812.6999999881,7060,VNB,C,9
8,test,1,0.0,1-Back,1,m,Mon Feb 24 2025 15:37:06 GMT-0600 (Central Standard Time),323435.2999999821,015_o_m_d_a.png,O,m,1497,11,1,2508.0999999940395,320927.1999999881,7060,VNB,C,10
8,test,1,1.0,1-Back,0,z,Mon Feb 24 2025 15:37:06 GMT-0600 (Central Standard Time),325135.0,012_o_f_d_a.png,O,m,678,12,1,1691.0,323444.0,7060,VNB,C,11
9,test,1,0.0,1-Back,1,m,Mon Feb 24 2025 15:37:06 GMT-0600 (Central Standard Time),327333.90000000596,014_m_m_n_a.png,O,m,1178,13,1,2190.300000011921,325143.59999999404,7060,VNB,C,12
10,test,1,1.0,1-Back,1,z,Mon Feb 24 2025 15:37:06 GMT-0600 (Central Standard Time),330100.2999999821,022_y_f_n_a.png,O,z,1739,14,1,2758.399999976158,327341.90000000596,7060,VNB,C,13
11,test,1,0.0,1-Back,1,m,Mon Feb 24 2025 15:37:06 GMT-0600 (Central Standard Time),332366.09999999404,019_m_f_h_a.png,O,m,1243,15,1,2259.0,330107.09999999404,7060,VNB,C,14
12,test,1,0.0,1-Back,1,m,Mon Feb 24 2025 15:37:06 GMT-0600 (Central Standard Time),335182.09999999404,014_m_m_d_a.png,O,m,1786,16,1,2808.5999999940395,332373.5,7060,VNB,C,15
13,test,1,0.0,1-Back,1,m,Mon Feb 24 2025 15:37:06 GMT-0600 (Central Standard Time),337697.6999999881,025_y_m_n_a.png,O,m,1489,17,1,2507.2999999821186,335190.40000000596,7060,VNB,C,16
14,test,1,0.0,1-Back,1,m,Mon Feb 24 2025 15:37:06 GMT-0600 (Central Standard Time),339880.40000000596,012_o_f_h_a.png,O,m,1149,18,1,2174.9000000059605,337705.5,7060,VNB,C,17
0,test,2,0.0,1-Back,,,Mon Feb 24 2025 15:37:06 GMT-0600 (Central Standard Time),339880.40000000596,025_y_m_n_a.png,O,space,2017,1,1,2174.9000000059605,337705.5,7060,VNB,C,0
1,test,2,0.0,1-Back,1,m,Mon Feb 24 2025 15:37:06 GMT-0600 (Central Standard Time),346194.7999999821,022_y_f_h_a.png,O,m,1172,2,1,2190.899999976158,344003.90000000596,7060,VNB,C,1
2,test,2,1.0,1-Back,1,m,Mon Feb 24 2025 15:37:06 GMT-0600 (Central Standard Time),348162.7999999821,015_o_m_n_a.png,O,m,950,3,1,1960.7999999821186,346202.0,7060,VNB,C,2
3,test,2,0.0,1-Back,1,m,Mon Feb 24 2025 15:37:06 GMT-0600 (Central Standard Time),350077.90000000596,019_m_f_d_a.png,O,m,886,4,1,1910.5,348167.40000000596,7060,VNB,C,3
4,test,2,0.0,1-Back,1,z,Mon Feb 24 2025 15:37:06 GMT-0600 (Central Standard Time),352210.09999999404,014_m_m_d_a.png,O,z,1105,5,1,2124.0,350086.09999999404,7060,VNB,C,4
5,test,2,0.0,1-Back,1,m,Mon Feb 24 2025 15:37:06 GMT-0600 (Central Standard Time),354908.6999999881,025_y_m_h_a.png,O,m,1670,6,1,2689.9000000059605,352218.7999999821,7060,VNB,C,5
5,test,2,1.0,1-Back,0,z,Mon Feb 24 2025 15:37:06 GMT-0600 (Central Standard Time),356757.0,012_o_f_h_a.png,O,m,827,7,1,1840.0999999940395,354916.90000000596,7060,VNB,C,6
5,test,2,0.0,1-Back,0,m,Mon Feb 24 2025 15:37:06 GMT-0600 (Central Standard Time),359791.0,019_m_f_n_a.png,O,None,2015,8,1,3024.5,356766.5,7060,VNB,C,7
6,test,2,0.0,1-Back,1,m,Mon Feb 24 2025 15:37:06 GMT-0600 (Central Standard Time),362258.09999999404,022_y_f_d_a.png,O,m,1449,9,1,2457.4000000059605,359800.6999999881,7060,VNB,C,8
7,test,2,0.0,1-Back,1,m,Mon Feb 24 2025 15:37:06 GMT-0600 (Central Standard Time),364189.09999999404,014_m_m_n_a.png,O,m,911,10,1,1922.5999999940395,362266.5,7060,VNB,C,9
7,test,2,1.0,1-Back,0,m,Mon Feb 24 2025 15:37:06 GMT-0600 (Central Standard Time),366072.09999999404,019_m_f_h_a.png,O,z,859,11,1,1874.9000000059605,364197.1999999881,7060,VNB,C,10
7,test,2,0.0,1-Back,0,z,Mon Feb 24 2025 15:37:06 GMT-0600 (Central Standard Time),369105.59999999404,015_o_m_h_a.png,O,None,2015,12,1,3024.699999988079,366080.90000000596,7060,VNB,C,11
7,test,2,0.0,1-Back,0,m,Mon Feb 24 2025 15:37:06 GMT-0600 (Central Standard Time),372138.1999999881,025_y_m_d_a.png,O,None,2017,13,1,3025.0999999940395,369113.09999999404,7060,VNB,C,12
8,test,2,0.0,1-Back,1,m,Mon Feb 24 2025 15:37:06 GMT-0600 (Central Standard Time),374502.6999999881,012_o_f_n_a.png,O,m,1345,14,1,2356.5,372146.1999999881,7060,VNB,C,13
9,test,2,0.0,1-Back,1,z,Mon Feb 24 2025 15:37:06 GMT-0600 (Central Standard Time),377201.59999999404,022_y_f_n_a.png,O,z,1673,15,1,2690.699999988079,374510.90000000596,7060,VNB,C,14
10,test,2,1.0,1-Back,1,m,Mon Feb 24 2025 15:37:06 GMT-0600 (Central Standard Time),379100.7999999821,014_m_m_h_a.png,O,m,870,16,1,1892.199999988079,377208.59999999404,7060,VNB,C,15
11,test,2,0.0,1-Back,1,m,Mon Feb 24 2025 15:37:06 GMT-0600 (Central Standard Time),381651.6999999881,012_o_f_d_a.png,O,m,1532,17,1,2544.2999999821186,379107.40000000596,7060,VNB,C,16
12,test,2,1.0,1-Back,1,z,Mon Feb 24 2025 15:37:06 GMT-0600 (Central Standard Time),383767.2999999821,015_o_m_d_a.png,O,z,1085,18,1,2107.699999988079,381659.59999999404,7060,VNB,C,17
0,test,3,1.0,1-Back,,,Mon Feb 24 2025 15:37:06 GMT-0600 (Central Standard Time),383767.2999999821,012_o_f_h_a.png,O,space,1384,1,1,2107.699999988079,381659.59999999404,7060,VNB,C,0
1,test,3,0.0,1-Back,1,m,Mon Feb 24 2025 15:37:06 GMT-0600 (Central Standard Time),389449.90000000596,019_m_f_d_a.png,O,m,1142,2,1,2158.300000011921,387291.59999999404,7060,VNB,C,1
2,test,3,1.0,1-Back,1,m,Mon Feb 24 2025 15:37:06 GMT-0600 (Central Standard Time),391897.7999999821,014_m_m_n_a.png,O,m,1433,3,1,2441.5999999940395,389456.1999999881,7060,VNB,C,2
3,test,3,0.0,1-Back,1,z,Mon Feb 24 2025 15:37:06 GMT-0600 (Central Standard Time),393931.59999999404,012_o_f_n_a.png,O,z,1016,4,1,2026.300000011921,391905.2999999821,7060,VNB,C,3
4,test,3,1.0,1-Back,1,m,Mon Feb 24 2025 15:37:06 GMT-0600 (Central Standard Time),396143.59999999404,015_o_m_d_a.png,O,m,1180,5,1,2204.0999999940395,393939.5,7060,VNB,C,4
5,test,3,0.0,1-Back,1,m,Mon Feb 24 2025 15:37:06 GMT-0600 (Central Standard Time),398379.90000000596,022_y_f_h_a.png,O,m,1215,6,1,2231.9000000059605,396148.0,7060,VNB,C,5
6,test,3,0.0,1-Back,1,z,Mon Feb 24 2025 15:37:06 GMT-0600 (Central Standard Time),400493.59999999404,025_y_m_h_a.png,O,z,1086,7,1,2104.4000000059605,398389.1999999881,7060,VNB,C,6
7,test,3,0.0,1-Back,1,m,Mon Feb 24 2025 15:37:06 GMT-0600 (Central Standard Time),402427.0,019_m_f_n_a.png,O,m,914,8,1,1929.2000000178814,400497.7999999821,7060,VNB,C,7
8,test,3,0.0,1-Back,1,m,Mon Feb 24 2025 15:37:06 GMT-0600 (Central Standard Time),404592.7999999821,022_y_f_d_a.png,O,m,1142,9,1,2157.2999999821186,402435.5,7060,VNB,C,8
9,test,3,1.0,1-Back,1,m,Mon Feb 24 2025 15:37:06 GMT-0600 (Central Standard Time),406692.0,015_o_m_n_a.png,O,m,1080,10,1,2091.7000000178814,404600.2999999821,7060,VNB,C,9
10,test,3,0.0,1-Back,1,m,Mon Feb 24 2025 15:37:06 GMT-0600 (Central Standard Time),408625.1999999881,014_m_m_h_a.png,O,m,899,11,1,1930.699999988079,406694.5,7060,VNB,C,10
11,test,3,0.0,1-Back,1,z,Mon Feb 24 2025 15:37:06 GMT-0600 (Central Standard Time),410924.0,019_m_f_h_a.png,O,z,1279,12,1,2291.5999999940395,408632.40000000596,7060,VNB,C,11
12,test,3,1.0,1-Back,1,m,Mon Feb 24 2025 15:37:06 GMT-0600 (Central Standard Time),413141.09999999404,012_o_f_d_a.png,O,m,1188,13,1,2209.0999999940395,410932.0,7060,VNB,C,12
13,test,3,0.0,1-Back,1,z,Mon Feb 24 2025 15:37:06 GMT-0600 (Central Standard Time),415606.7999999821,014_m_m_d_a.png,O,z,1435,14,1,2458.0999999940395,413148.6999999881,7060,VNB,C,13
14,test,3,0.0,1-Back,1,m,Mon Feb 24 2025 15:37:06 GMT-0600 (Central Standard Time),417936.5,025_y_m_n_a.png,O,m,1304,15,1,2321.300000011921,415615.1999999881,7060,VNB,C,14
15,test,3,1.0,1-Back,1,m,Mon Feb 24 2025 15:37:06 GMT-0600 (Central Standard Time),420004.1999999881,015_o_m_h_a.png,O,m,1034,16,1,2062.0,417942.1999999881,7060,VNB,C,15
16,test,3,0.0,1-Back,1,m,Mon Feb 24 2025 15:37:06 GMT-0600 (Central Standard Time),422471.09999999404,025_y_m_d_a.png,O,m,1442,17,1,2459.199999988079,420011.90000000596,7060,VNB,C,16
17,test,3,1.0,1-Back,1,m,Mon Feb 24 2025 15:37:06 GMT-0600 (Central Standard Time),424718.7999999821,022_y_f_n_a.png,O,m,1223,18,1,2240.0999999940395,422478.6999999881,7060,VNB,C,17
0,test,4,1.0,1-Back,,,Mon Feb 24 2025 15:37:06 GMT-0600 (Central Standard Time),424718.7999999821,014_m_m_d_a.png,O,space,1178,1,1,2240.0999999940395,422478.6999999881,7060,VNB,C,0
1,test,4,0.0,1-Back,1,z,Mon Feb 24 2025 15:37:06 GMT-0600 (Central Standard Time),430353.90000000596,015_o_m_d_a.png,O,z,1410,2,1,2425.600000023842,427928.2999999821,7060,VNB,C,1
2,test,4,0.0,1-Back,1,m,Mon Feb 24 2025 15:37:06 GMT-0600 (Central Standard Time),432735.59999999404,025_y_m_h_a.png,O,m,1351,3,1,2373.9000000059605,430361.6999999881,7060,VNB,C,2
3,test,4,0.0,1-Back,1,m,Mon Feb 24 2025 15:37:06 GMT-0600 (Central Standard Time),434850.59999999404,019_m_f_n_a.png,O,m,1082,4,1,2107.0,432743.59999999404,7060,VNB,C,3
4,test,4,1.0,1-Back,1,m,Mon Feb 24 2025 15:37:06 GMT-0600 (Central Standard Time),436833.90000000596,012_o_f_h_a.png,O,m,949,5,1,1974.9000000059605,434859.0,7060,VNB,C,4
5,test,4,0.0,1-Back,1,m,Mon Feb 24 2025 15:37:06 GMT-0600 (Central Standard Time),438899.59999999404,014_m_m_n_a.png,O,m,1040,6,1,2061.0,436838.59999999404,7060,VNB,C,5
6,test,4,0.0,1-Back,1,m,Mon Feb 24 2025 15:37:06 GMT-0600 (Central Standard Time),440948.7999999821,025_y_m_d_a.png,O,m,1016,7,1,2044.699999988079,438904.09999999404,7060,VNB,C,6
7,test,4,1.0,1-Back,1,z,Mon Feb 24 2025 15:37:06 GMT-0600 (Central Standard Time),442880.6999999881,022_y_f_d_a.png,O,z,907,8,1,1924.5999999940395,440956.09999999404,7060,VNB,C,7
7,test,4,0.0,1-Back,0,m,Mon Feb 24 2025 15:37:06 GMT-0600 (Central Standard Time),445913.59999999404,019_m_f_h_a.png,O,None,2013,9,1,3027.300000011921,442886.2999999821,7060,VNB,C,8
8,test,4,0.0,1-Back,1,z,Mon Feb 24 2025 15:37:06 GMT-0600 (Central Standard Time),447829.90000000596,015_o_m_h_a.png,O,z,887,10,1,1908.0,445921.90000000596,7060,VNB,C,9
9,test,4,1.0,1-Back,1,m,Mon Feb 24 2025 15:37:06 GMT-0600 (Central Standard Time),450044.7999999821,012_o_f_n_a.png,O,m,1183,11,1,2207.399999976158,447837.40000000596,7060,VNB,C,10
10,test,4,0.0,1-Back,1,m,Mon Feb 24 2025 15:37:06 GMT-0600 (Central Standard Time),452062.09999999404,019_m_f_d_a.png,O,m,996,12,1,2010.4000000059605,450051.6999999881,7060,VNB,C,11
10,test,4,0.0,1-Back,0,m,Mon Feb 24 2025 15:37:06 GMT-0600 (Central Standard Time),454395.5,022_y_f_n_a.png,O,z,1316,13,1,2326.9000000059605,452068.59999999404,7060,VNB,C,12
11,test,4,0.0,1-Back,1,m,Mon Feb 24 2025 15:37:06 GMT-0600 (Central Standard Time),456959.40000000596,012_o_f_d_a.png,O,m,1541,14,1,2556.600000023842,454402.7999999821,7060,VNB,C,13
12,test,4,0.0,1-Back,1,m,Mon Feb 24 2025 15:37:06 GMT-0600 (Central Standard Time),459124.90000000596,022_y_f_h_a.png,O,m,1136,15,1,2158.9000000059605,456966.0,7060,VNB,C,14
13,test,4,1.0,1-Back,1,z,Mon Feb 24 2025 15:37:06 GMT-0600 (Central Standard Time),461260.2999999821,014_m_m_h_a.png,O,z,1117,16,1,2129.5999999940395,459130.6999999881,7060,VNB,C,15
14,test,4,0.0,1-Back,1,m,Mon Feb 24 2025 15:37:06 GMT-0600 (Central Standard Time),463407.7999999821,015_o_m_n_a.png,O,m,1117,17,1,2142.5999999940395,461265.1999999881,7060,VNB,C,16
15,test,4,1.0,1-Back,1,z,Mon Feb 24 2025 15:37:06 GMT-0600 (Central Standard Time),465659.0,025_y_m_n_a.png,O,z,1233,18,1,2245.0999999940395,463413.90000000596,7060,VNB,C,17
0,test,5,1.0,1-Back,,,Mon Feb 24 2025 15:37:06 GMT-0600 (Central Standard Time),465659.0,015_o_m_n_a.png,O,space,1333,1,1,2245.0999999940395,463413.90000000596,7060,VNB,C,0
1,test,5,1.0,1-Back,1,m,Mon Feb 24 2025 15:37:06 GMT-0600 (Central Standard Time),471121.90000000596,012_o_f_h_a.png,O,m,975,2,1,1995.800000011921,469126.09999999404,7060,VNB,C,1
2,test,5,0.0,1-Back,1,m,Mon Feb 24 2025 15:37:06 GMT-0600 (Central Standard Time),473871.90000000596,025_y_m_d_a.png,O,m,1727,3,1,2741.4000000059605,471130.5,7060,VNB,C,2
3,test,5,0.0,1-Back,1,z,Mon Feb 24 2025 15:37:06 GMT-0600 (Central Standard Time),475853.09999999404,015_o_m_d_a.png,O,z,960,4,1,1974.699999988079,473878.40000000596,7060,VNB,C,3
4,test,5,0.0,1-Back,1,m,Mon Feb 24 2025 15:37:06 GMT-0600 (Central Standard Time),478386.09999999404,019_m_f_h_a.png,O,m,1516,5,1,2525.4000000059605,475860.6999999881,7060,VNB,C,4
4,test,5,0.0,1-Back,0,m,Mon Feb 24 2025 15:37:06 GMT-0600 (Central Standard Time),481420.5,022_y_f_n_a.png,O,None,2016,6,1,3025.9000000059605,478394.59999999404,7060,VNB,C,5
5,test,5,1.0,1-Back,1,z,Mon Feb 24 2025 15:37:06 GMT-0600 (Central Standard Time),483351.40000000596,012_o_f_n_a.png,O,z,910,7,1,1922.4000000059605,481429.0,7060,VNB,C,6
6,test,5,0.0,1-Back,1,m,Mon Feb 24 2025 15:37:06 GMT-0600 (Central Standard Time),485116.7999999821,019_m_f_d_a.png,O,m,736,8,1,1758.699999988079,483358.09999999404,7060,VNB,C,7
7,test,5,0.0,1-Back,1,m,Mon Feb 24 2025 15:37:06 GMT-0600 (Central Standard Time),487165.6999999881,025_y_m_h_a.png,O,m,1018,9,1,2041.5999999940395,485124.09999999404,7060,VNB,C,8
8,test,5,0.0,1-Back,1,m,Mon Feb 24 2025 15:37:06 GMT-0600 (Central Standard Time),490067.0,022_y_f_d_a.png,O,m,1866,10,1,2892.0999999940395,487174.90000000596,7060,VNB,C,9
9,test,5,0.0,1-Back,1,m,Mon Feb 24 2025 15:37:06 GMT-0600 (Central Standard Time),492016.09999999404,014_m_m_n_a.png,O,m,919,11,1,1942.300000011921,490073.7999999821,7060,VNB,C,10
10,test,5,1.0,1-Back,1,z,Mon Feb 24 2025 15:37:06 GMT-0600 (Central Standard Time),493981.6999999881,019_m_f_n_a.png,O,z,944,12,1,1959.2999999821186,492022.40000000596,7060,VNB,C,11
11,test,5,0.0,1-Back,1,m,Mon Feb 24 2025 15:37:06 GMT-0600 (Central Standard Time),495864.59999999404,015_o_m_h_a.png,O,m,858,13,1,1875.800000011921,493988.7999999821,7060,VNB,C,12
12,test,5,0.0,1-Back,1,z,Mon Feb 24 2025 15:37:06 GMT-0600 (Central Standard Time),497913.59999999404,014_m_m_h_a.png,O,z,1026,14,1,2041.5999999940395,495872.0,7060,VNB,C,13
13,test,5,1.0,1-Back,1,m,Mon Feb 24 2025 15:37:06 GMT-0600 (Central Standard Time),500245.40000000596,012_o_f_d_a.png,O,m,1311,15,1,2324.800000011921,497920.59999999404,7060,VNB,C,14
13,test,5,0.0,1-Back,0,m,Mon Feb 24 2025 15:37:06 GMT-0600 (Central Standard Time),503278.59999999404,025_y_m_n_a.png,O,None,2015,16,1,3026.800000011921,500251.7999999821,7060,VNB,C,15
14,test,5,0.0,1-Back,1,m,Mon Feb 24 2025 15:37:06 GMT-0600 (Central Standard Time),505527.1999999881,022_y_f_h_a.png,O,m,1217,17,1,2239.0,503288.1999999881,7060,VNB,C,16
15,test,5,0.0,1-Back,1,m,Mon Feb 24 2025 15:37:06 GMT-0600 (Central Standard Time),507811.2999999821,014_m_m_d_a.png,O,m,1265,18,1,2277.199999988079,505534.09999999404,7060,VNB,C,17
0,prac,1,0.0,2-Back,,,Mon Feb 24 2025 15:37:06 GMT-0600 (Central Standard Time),507811.2999999821,019_m_f_n_a.png,O,space,1407,1,1,2277.199999988079,505534.09999999404,7060,VNB,C,0
0,prac,1,0.0,2-Back,,,Mon Feb 24 2025 15:37:06 GMT-0600 (Central Standard Time),507811.2999999821,012_o_f_h_a.png,O,space,1407,2,1,2277.199999988079,505534.09999999404,7060,VNB,C,0
0,prac,1,0.0,2-Back,0,m,Mon Feb 24 2025 15:37:06 GMT-0600 (Central Standard Time),600983.400000006,015_o_m_d_a.png,O,None,2012,3,1,2893.600000023842,598089.7999999821,7060,VNB,C,1
0,prac,1,1.0,2-Back,0,z,Mon Feb 24 2025 15:37:06 GMT-0600 (Central Standard Time),603846.5,014_m_m_h_a.png,O,None,2001,4,1,2853.5,600993.0,7060,VNB,C,2
1,prac,1,0.0,2-Back,1,m,Mon Feb 24 2025 15:37:06 GMT-0600 (Central Standard Time),606515.599999994,022_y_f_n_a.png,O,m,1787,5,1,2660.5,603855.099999994,7060,VNB,C,3
1,prac,1,1.0,2-Back,0,z,Mon Feb 24 2025 15:37:06 GMT-0600 (Central Standard Time),609428.400000006,015_o_m_h_a.png,O,None,2014,6,1,2907.100000023842,606521.2999999821,7060,VNB,C,4
1,prac,1,1.0,2-Back,0,z,Mon Feb 24 2025 15:37:06 GMT-0600 (Central Standard Time),610894.900000006,025_y_m_n_a.png,O,m,593,7,1,1457.5,609437.400000006,7060,VNB,C,5
2,prac,1,0.0,2-Back,1,m,Mon Feb 24 2025 15:37:06 GMT-0600 (Central Standard Time),613261.2999999821,019_m_f_d_a.png,O,m,1492,8,1,2357.899999976158,610903.400000006,7060,VNB,C,6
2,prac,1,0.0,2-Back,0,m,Mon Feb 24 2025 15:37:06 GMT-0600 (Central Standard Time),616142.2999999821,012_o_f_d_a.png,O,None,2003,9,1,2872.399999976158,613269.900000006,7060,VNB,C,7
2,prac,1,0.0,2-Back,0,m,Mon Feb 24 2025 15:37:06 GMT-0600 (Central Standard Time),618925.599999994,014_m_m_h_a.png,O,None,2010,10,1,2775.5999999940395,616150.0,7060,VNB,C,8
2,prac,1,1.0,2-Back,0,z,Mon Feb 24 2025 15:37:06 GMT-0600 (Central Standard Time),620957.6999999881,022_y_f_d_a.png,O,m,1160,11,1,2022.7999999821186,618934.900000006,7060,VNB,C,9
2,prac,1,0.0,2-Back,0,m,Mon Feb 24 2025 15:37:06 GMT-0600 (Central Standard Time),623839.400000006,015_o_m_n_a.png,O,None,2001,12,1,2872.9000000059605,620966.5,7060,VNB,C,10
0,test,1,0.0,2-Back,,,Mon Feb 24 2025 15:37:06 GMT-0600 (Central Standard Time),623839.400000006,025_y_m_h_a.png,O,space,1517,1,1,2872.9000000059605,620966.5,7060,VNB,C,0
0,test,1,0.0,2-Back,,,Mon Feb 24 2025 15:37:06 GMT-0600 (Central Standard Time),623839.400000006,012_o_f_n_a.png,O,space,1517,2,1,2872.9000000059605,620966.5,7060,VNB,C,0
1,test,1,0.0,2-Back,1,z,Mon Feb 24 2025 15:37:06 GMT-0600 (Central Standard Time),640468.2999999821,015_o_m_h_a.png,O,z,1206,3,1,2223.399999976158,638244.900000006,7060,VNB,C,1
1,test,1,0.0,2-Back,0,m,Mon Feb 24 2025 15:37:06 GMT-0600 (Central Standard Time),643502.0,019_m_f_d_a.png,O,None,2016,4,1,3027.2000000178814,640474.7999999821,7060,VNB,C,2
2,test,1,1.0,2-Back,1,m,Mon Feb 24 2025 15:37:06 GMT-0600 (Central Standard Time),645668.099999994,025_y_m_n_a.png,O,m,1150,5,1,2157.5,643510.599999994,7060,VNB,C,3
2,test,1,0.0,2-Back,0,z,Mon Feb 24 2025 15:37:06 GMT-0600 (Central Standard Time),648699.0,022_y_f_d_a.png,O,None,2015,6,1,3025.7000000178814,645673.2999999821,7060,VNB,C,4
3,test,1,0.0,2-Back,1,m,Mon Feb 24 2025 15:37:06 GMT-0600 (Central Standard Time),650882.5,014_m_m_h_a.png,O,m,1165,7,1,2177.0,648705.5,7060,VNB,C,5
4,test,1,1.0,2-Back,1,m,Mon Feb 24 2025 15:37:06 GMT-0600 (Central Standard Time),652997.900000006,022_y_f_n_a.png,O,m,1086,8,1,2110.800000011921,650887.099999994,7060,VNB,C,6
4,test,1,0.0,2-Back,0,z,Mon Feb 24 2025 15:37:06 GMT-0600 (Central Standard Time),655231.0,012_o_f_h_a.png,O,m,1212,9,1,2223.9000000059605,653007.099999994,7060,VNB,C,7
4,test,1,0.0,2-Back,0,m,Mon Feb 24 2025 15:37:06 GMT-0600 (Central Standard Time),658261.900000006,015_o_m_d_a.png,O,None,2012,10,1,3024.0,655237.900000006,7060,VNB,C,8
5,test,1,1.0,2-Back,1,m,Mon Feb 24 2025 15:37:06 GMT-0600 (Central Standard Time),660695.0,014_m_m_d_a.png,O,m,1401,11,1,2424.300000011921,658270.6999999881,7060,VNB,C,9
5,test,1,0.0,2-Back,0,m,Mon Feb 24 2025 15:37:06 GMT-0600 (Central Standard Time),663728.2999999821,019_m_f_n_a.png,O,None,2015,12,1,3025.5999999940395,660702.6999999881,7060,VNB,C,10
5,test,1,0.0,2-Back,0,m,Mon Feb 24 2025 15:37:06 GMT-0600 (Central Standard Time),665411.7999999821,022_y_f_h_a.png,O,z,665,13,1,1676.0,663735.7999999821,7060,VNB,C,11
5,test,1,0.0,2-Back,0,z,Mon Feb 24 2025 15:37:06 GMT-0600 (Central Standard Time),666975.900000006,014_m_m_n_a.png,O,m,532,14,1,1560.300000011921,665415.599999994,7060,VNB,C,12
6,test,1,0.0,2-Back,1,m,Mon Feb 24 2025 15:37:06 GMT-0600 (Central Standard Time),668645.7999999821,025_y_m_d_a.png,O,m,652,15,1,1662.699999988079,666983.099999994,7060,VNB,C,13
7,test,1,1.0,2-Back,1,m,Mon Feb 24 2025 15:37:06 GMT-0600 (Central Standard Time),670242.7999999821,019_m_f_h_a.png,O,m,581,16,1,1590.5999999940395,668652.1999999881,7060,VNB,C,14
8,test,1,0.0,2-Back,1,z,Mon Feb 24 2025 15:37:06 GMT-0600 (Central Standard Time),671793.599999994,012_o_f_d_a.png,O,z,517,17,1,1543.800000011921,670249.7999999821,7060,VNB,C,15
9,test,1,0.0,2-Back,1,m,Mon Feb 24 2025 15:37:06 GMT-0600 (Central Standard Time),673258.7999999821,015_o_m_n_a.png,O,m,442,18,1,1458.2999999821186,671800.5,7060,VNB,C,16
0,test,2,0.0,2-Back,,,Mon Feb 24 2025 15:37:06 GMT-0600 (Central Standard Time),673258.7999999821,014_m_m_h_a.png,O,space,1182,1,1,1458.2999999821186,671800.5,7060,VNB,C,0
0,test,2,0.0,2-Back,,,Mon Feb 24 2025 15:37:06 GMT-0600 (Central Standard Time),673258.7999999821,022_y_f_n_a.png,O,space,1182,2,1,1458.2999999821186,671800.5,7060,VNB,C,0
0,test,2,1.0,2-Back,0,z,Mon Feb 24 2025 15:37:06 GMT-0600 (Central Standard Time),682723.400000006,012_o_f_h_a.png,O,None,2016,3,1,3027.600000023842,679695.7999999821,7060,VNB,C,1
1,test,2,0.0,2-Back,1,m,Mon Feb 24 2025 15:37:06 GMT-0600 (Central Standard Time),684787.599999994,015_o_m_d_a.png,O,m,1048,4,1,2057.4000000059605,682730.1999999881,7060,VNB,C,2
1,test,2,0.0,2-Back,0,m,Mon Feb 24 2025 15:37:06 GMT-0600 (Central Standard Time),687820.5,019_m_f_d_a.png,O,None,2015,5,1,3023.800000011921,684796.6999999881,7060,VNB,C,3
1,test,2,0.0,2-Back,0,m,Mon Feb 24 2025 15:37:06 GMT-0600 (Central Standard Time),690853.6999999881,025_y_m_h_a.png,O,None,2015,6,1,3024.9000000059605,687828.7999999821,7060,VNB,C,4
1,test,2,0.0,2-Back,0,m,Mon Feb 24 2025 15:37:06 GMT-0600 (Central Standard Time),693884.5,012_o_f_n_a.png,O,None,2014,7,1,3024.2000000178814,690860.2999999821,7060,VNB,C,5
1,test,2,1.0,2-Back,0,z,Mon Feb 24 2025 15:37:06 GMT-0600 (Central Standard Time),695201.7999999821,015_o_m_h_a.png,O,m,291,8,1,1309.3999999761581,693892.400000006,7060,VNB,C,6
1,test,2,0.0,2-Back,0,m,Mon Feb 24 2025 15:37:06 GMT-0600 (Central Standard Time),698233.6999999881,022_y_f_d_a.png,O,None,2014,9,1,3022.5,695211.1999999881,7060,VNB,C,7
1,test,2,0.0,2-Back,0,m,Mon Feb 24 2025 15:37:06 GMT-0600 (Central Standard Time),701266.0,025_y_m_d_a.png,O,None,2015,10,1,3025.2000000178814,698240.7999999821,7060,VNB,C,8
1,test,2,0.0,2-Back,0,m,Mon Feb 24 2025 15:37:06 GMT-0600 (Central Standard Time),704298.6999999881,014_m_m_n_a.png,O,None,2016,11,1,3024.199999988079,701274.5,7060,VNB,C,9
1,test,2,0.0,2-Back,0,m,Mon Feb 24 2025 15:37:06 GMT-0600 (Central Standard Time),707330.6999999881,019_m_f_h_a.png,O,None,2015,12,1,3022.0999999940395,704308.599999994,7060,VNB,C,10
2,test,2,1.0,2-Back,1,z,Mon Feb 24 2025 15:37:06 GMT-0600 (Central Standard Time),708996.400000006,015_o_m_n_a.png,O,z,650,13,1,1658.0,707338.400000006,7060,VNB,C,11
3,test,2,0.0,2-Back,1,m,Mon Feb 24 2025 15:37:06 GMT-0600 (Central Standard Time),710078.0,012_o_f_d_a.png,O,m,60,14,1,1072.7000000178814,709005.2999999821,7060,VNB,C,12
4,test,2,0.0,2-Back,1,m,Mon Feb 24 2025 15:37:06 GMT-0600 (Central Standard Time),711428.5,022_y_f_h_a.png,O,m,320,15,1,1343.7000000178814,710084.7999999821,7060,VNB,C,13
4,test,2,0.0,2-Back,0,z,Mon Feb 24 2025 15:37:06 GMT-0600 (Central Standard Time),714462.400000006,014_m_m_d_a.png,O,None,2016,16,1,3025.5,711436.900000006,7060,VNB,C,14
4,test,2,0.0,2-Back,0,m,Mon Feb 24 2025 15:37:06 GMT-0600 (Central Standard Time),717493.6999999881,025_y_m_n_a.png,O,None,2015,17,1,3024.0999999940395,714469.599999994,7060,VNB,C,15
4,test,2,1.0,2-Back,0,m,Mon Feb 24 2025 15:37:06 GMT-0600 (Central Standard Time),719008.400000006,019_m_f_n_a.png,O,z,498,18,1,1506.800000011921,717501.599999994,7060,VNB,C,16
0,test,3,1.0,2-Back,,,Mon Feb 24 2025 15:37:06 GMT-0600 (Central Standard Time),719008.400000006,015_o_m_n_a.png,O,space,1016,1,1,1506.800000011921,717501.599999994,7060,VNB,C,0
0,test,3,1.0,2-Back,,,Mon Feb 24 2025 15:37:06 GMT-0600 (Central Standard Time),719008.400000006,012_o_f_d_a.png,O,space,1016,2,1,1506.800000011921,717501.599999994,7060,VNB,C,0
1,test,3,0.0,2-Back,1,m,Mon Feb 24 2025 15:37:06 GMT-0600 (Central Standard Time),728156.6999999881,022_y_f_h_a.png,O,m,1844,3,1,2857.0,725299.6999999881,7060,VNB,C,1
1,test,3,0.0,2-Back,0,z,Mon Feb 24 2025 15:37:06 GMT-0600 (Central Standard Time),729839.2999999821,019_m_f_d_a.png,O,m,658,4,1,1675.2999999821186,728164.0,7060,VNB,C,2
2,test,3,1.0,2-Back,1,m,Mon Feb 24 2025 15:37:06 GMT-0600 (Central Standard Time),731655.099999994,025_y_m_n_a.png,O,m,783,5,1,1809.0,729846.099999994,7060,VNB,C,3
3,test,3,0.0,2-Back,1,m,Mon Feb 24 2025 15:37:06 GMT-0600 (Central Standard Time),733273.900000006,015_o_m_h_a.png,O,m,599,6,1,1616.2000000178814,731657.6999999881,7060,VNB,C,4
3,test,3,0.0,2-Back,0,z,Mon Feb 24 2025 15:37:06 GMT-0600 (Central Standard Time),734756.1999999881,022_y_f_n_a.png,O,m,467,7,1,1476.9000000059605,733279.2999999821,7060,VNB,C,5
4,test,3,1.0,2-Back,1,m,Mon Feb 24 2025 15:37:06 GMT-0600 (Central Standard Time),736253.900000006,014_m_m_d_a.png,O,m,478,8,1,1491.4000000059605,734762.5,7060,VNB,C,6
5,test,3,0.0,2-Back,1,m,Mon Feb 24 2025 15:37:06 GMT-0600 (Central Standard Time),737954.2999999821,025_y_m_d_a.png,O,m,681,9,1,1693.8999999761581,736260.400000006,7060,VNB,C,7
6,test,3,0.0,2-Back,1,m,Mon Feb 24 2025 15:37:06 GMT-0600 (Central Standard Time),739470.0,012_o_f_h_a.png,O,m,494,10,1,1510.7000000178814,737959.2999999821,7060,VNB,C,8
7,test,3,1.0,2-Back,1,m,Mon Feb 24 2025 15:37:06 GMT-0600 (Central Standard Time),740969.900000006,019_m_f_n_a.png,O,m,474,11,1,1491.7000000178814,739478.1999999881,7060,VNB,C,9
8,test,3,1.0,2-Back,1,z,Mon Feb 24 2025 15:37:06 GMT-0600 (Central Standard Time),742519.5,014_m_m_h_a.png,O,z,519,12,1,1540.800000011921,740978.6999999881,7060,VNB,C,10
9,test,3,0.0,2-Back,1,m,Mon Feb 24 2025 15:37:06 GMT-0600 (Central Standard Time),743985.900000006,022_y_f_d_a.png,O,m,448,13,1,1458.2000000178814,742527.6999999881,7060,VNB,C,11
10,test,3,0.0,2-Back,1,m,Mon Feb 24 2025 15:37:06 GMT-0600 (Central Standard Time),745485.099999994,012_o_f_n_a.png,O,m,466,14,1,1491.800000011921,743993.2999999821,7060,VNB,C,12
10,test,3,0.0,2-Back,0,z,Mon Feb 24 2025 15:37:06 GMT-0600 (Central Standard Time),746986.099999994,015_o_m_d_a.png,O,m,483,15,1,1494.199999988079,745491.900000006,7060,VNB,C,13
10,test,3,1.0,2-Back,0,m,Mon Feb 24 2025 15:37:06 GMT-0600 (Central Standard Time),748383.900000006,019_m_f_h_a.png,O,z,376,16,1,1392.5,746991.400000006,7060,VNB,C,14
11,test,3,0.0,2-Back,1,m,Mon Feb 24 2025 15:37:06 GMT-0600 (Central Standard Time),750033.6999999881,014_m_m_n_a.png,O,m,615,17,1,1642.4000000059605,748391.2999999821,7060,VNB,C,15
11,test,3,0.0,2-Back,0,z,Mon Feb 24 2025 15:37:06 GMT-0600 (Central Standard Time),753067.599999994,025_y_m_h_a.png,O,None,2015,18,1,3027.5999999940395,750040.0,7060,VNB,C,16
0,test,4,0.0,2-Back,,,Mon Feb 24 2025 15:37:06 GMT-0600 (Central Standard Time),753067.599999994,019_m_f_n_a.png,O,space,4838,1,1,3027.5999999940395,750040.0,7060,VNB,C,0
0,test,4,0.0,2-Back,,,Mon Feb 24 2025 15:37:06 GMT-0600 (Central Standard Time),753067.599999994,015_o_m_n_a.png,O,space,4838,2,1,3027.5999999940395,750040.0,7060,VNB,C,0
1,test,4,1.0,2-Back,1,m,Mon Feb 24 2025 15:37:06 GMT-0600 (Central Standard Time),765510.7999999821,025_y_m_h_a.png,O,m,1328,3,1,2339.5,763171.2999999821,7060,VNB,C,1
2,test,4,1.0,2-Back,1,m,Mon Feb 24 2025 15:37:06 GMT-0600 (Central Standard Time),767794.5,012_o_f_d_a.png,O,m,1257,4,1,2276.2000000178814,765518.2999999821,7060,VNB,C,2
2,test,4,0.0,2-Back,0,z,Mon Feb 24 2025 15:37:06 GMT-0600 (Central Standard Time),770162.099999994,015_o_m_h_a.png,O,m,1342,5,1,2359.5,767802.599999994,7060,VNB,C,3
2,test,4,0.0,2-Back,0,m,Mon Feb 24 2025 15:37:06 GMT-0600 (Central Standard Time),773193.2999999821,014_m_m_n_a.png,O,None,2015,6,1,3023.399999976158,770169.900000006,7060,VNB,C,4
3,test,4,0.0,2-Back,1,m,Mon Feb 24 2025 15:37:06 GMT-0600 (Central Standard Time),776041.599999994,019_m_f_d_a.png,O,m,1824,7,1,2840.699999988079,773200.900000006,7060,VNB,C,5
3,test,4,0.0,2-Back,0,z,Mon Feb 24 2025 15:37:06 GMT-0600 (Central Standard Time),778894.1999999881,022_y_f_n_a.png,O,m,1835,8,1,2845.9000000059605,776048.2999999821,7060,VNB,C,6
4,test,4,1.0,2-Back,1,m,Mon Feb 24 2025 15:37:06 GMT-0600 (Central Standard Time),781090.599999994,012_o_f_h_a.png,O,m,1164,9,1,2187.5999999940395,778903.0,7060,VNB,C,7
4,test,4,0.0,2-Back,0,m,Mon Feb 24 2025 15:37:06 GMT-0600 (Central Standard Time),784123.1999999881,014_m_m_h_a.png,O,None,2015,10,1,3024.5,781098.6999999881,7060,VNB,C,8
5,test,4,0.0,2-Back,1,m,Mon Feb 24 2025 15:37:06 GMT-0600 (Central Standard Time),786873.099999994,022_y_f_d_a.png,O,m,1726,11,1,2741.4000000059605,784131.6999999881,7060,VNB,C,9
6,test,4,0.0,2-Back,1,m,Mon Feb 24 2025 15:37:06 GMT-0600 (Central Standard Time),789470.099999994,025_y_m_n_a.png,O,m,1567,12,1,2590.199999988079,786879.900000006,7060,VNB,C,10
7,test,4,0.0,2-Back,1,z,Mon Feb 24 2025 15:37:06 GMT-0600 (Central Standard Time),791669.1999999881,015_o_m_d_a.png,O,z,1179,13,1,2192.5999999940395,789476.599999994,7060,VNB,C,11
8,test,4,1.0,2-Back,1,m,Mon Feb 24 2025 15:37:06 GMT-0600 (Central Standard Time),793785.5,019_m_f_h_a.png,O,m,1091,14,1,2109.2000000178814,791676.2999999821,7060,VNB,C,12
8,test,4,1.0,2-Back,0,m,Mon Feb 24 2025 15:37:06 GMT-0600 (Central Standard Time),796818.599999994,022_y_f_h_a.png,O,None,2016,15,1,3026.0,793792.599999994,7060,VNB,C,13
9,test,4,0.0,2-Back,1,m,Mon Feb 24 2025 15:37:06 GMT-0600 (Central Standard Time),798618.0,012_o_f_n_a.png,O,m,772,16,1,1791.2000000178814,796826.7999999821,7060,VNB,C,14
10,test,4,0.0,2-Back,1,m,Mon Feb 24 2025 15:37:06 GMT-0600 (Central Standard Time),800117.599999994,025_y_m_d_a.png,O,m,477,17,1,1491.800000011921,798625.7999999821,7060,VNB,C,15
10,test,4,1.0,2-Back,0,m,Mon Feb 24 2025 15:37:06 GMT-0600 (Central Standard Time),801867.6999999881,014_m_m_d_a.png,O,z,721,18,1,1743.199999988079,800124.5,7060,VNB,C,16
0,test,5,1.0,2-Back,,,Mon Feb 24 2025 15:37:06 GMT-0600 (Central Standard Time),801867.6999999881,022_y_f_d_a.png,O,space,1141,1,1,1743.199999988079,800124.5,7060,VNB,C,0
0,test,5,1.0,2-Back,,,Mon Feb 24 2025 15:37:06 GMT-0600 (Central Standard Time),801867.6999999881,012_o_f_h_a.png,O,space,1141,2,1,1743.199999988079,800124.5,7060,VNB,C,0
0,test,5,1.0,2-Back,0,z,Mon Feb 24 2025 15:37:06 GMT-0600 (Central Standard Time),809931.099999994,015_o_m_d_a.png,O,m,639,3,1,1656.800000011921,808274.2999999821,7060,VNB,C,1
1,test,5,1.0,2-Back,1,m,Mon Feb 24 2025 15:37:06 GMT-0600 (Central Standard Time),812496.5,019_m_f_n_a.png,O,m,1542,4,1,2557.800000011921,809938.6999999881,7060,VNB,C,2
1,test,5,0.0,2-Back,0,m,Mon Feb 24 2025 15:37:06 GMT-0600 (Central Standard Time),815529.5,014_m_m_h_a.png,O,None,2014,5,1,3026.2000000178814,812503.2999999821,7060,VNB,C,3
1,test,5,0.0,2-Back,0,z,Mon Feb 24 2025 15:37:06 GMT-0600 (Central Standard Time),818560.7999999821,022_y_f_n_a.png,O,None,2015,6,1,3024.0,815536.7999999821,7060,VNB,C,4
1,test,5,0.0,2-Back,0,m,Mon Feb 24 2025 15:37:06 GMT-0600 (Central Standard Time),821594.2999999821,012_o_f_d_a.png,O,None,2015,7,1,3025.0999999940395,818569.1999999881,7060,VNB,C,5
1,test,5,0.0,2-Back,0,m,Mon Feb 24 2025 15:37:06 GMT-0600 (Central Standard Time),824626.0,015_o_m_h_a.png,O,None,2015,8,1,3025.2000000178814,821600.7999999821,7060,VNB,C,6
1,test,5,1.0,2-Back,0,z,Mon Feb 24 2025 15:37:06 GMT-0600 (Central Standard Time),827659.2999999821,019_m_f_d_a.png,O,None,2014,9,1,3025.0,824634.2999999821,7060,VNB,C,7
1,test,5,0.0,2-Back,0,m,Mon Feb 24 2025 15:37:06 GMT-0600 (Central Standard Time),830692.599999994,025_y_m_n_a.png,O,None,2015,10,1,3024.0999999940395,827668.5,7060,VNB,C,8
1,test,5,0.0,2-Back,0,m,Mon Feb 24 2025 15:37:06 GMT-0600 (Central Standard Time),833724.5,014_m_m_n_a.png,O,None,2016,11,1,3023.5,830701.0,7060,VNB,C,9
1,test,5,0.0,2-Back,0,m,Mon Feb 24 2025 15:37:06 GMT-0600 (Central Standard Time),836755.599999994,022_y_f_h_a.png,O,None,2014,12,1,3023.0,833732.599999994,7060,VNB,C,10
1,test,5,0.0,2-Back,0,m,Mon Feb 24 2025 15:37:06 GMT-0600 (Central Standard Time),839787.400000006,025_y_m_d_a.png,O,None,2014,13,1,3023.600000023842,836763.7999999821,7060,VNB,C,11
1,test,5,1.0,2-Back,0,z,Mon Feb 24 2025 15:37:06 GMT-0600 (Central Standard Time),842819.599999994,019_m_f_h_a.png,O,None,2015,14,1,3027.4000000059605,839792.1999999881,7060,VNB,C,12
1,test,5,0.0,2-Back,0,m,Mon Feb 24 2025 15:37:06 GMT-0600 (Central Standard Time),845853.599999994,015_o_m_n_a.png,O,None,2016,15,1,3027.5,842826.099999994,7060,VNB,C,13
1,test,5,0.0,2-Back,0,m,Mon Feb 24 2025 15:37:06 GMT-0600 (Central Standard Time),848886.400000006,014_m_m_d_a.png,O,None,2017,16,1,3026.2000000178814,845860.1999999881,7060,VNB,C,14
1,test,5,0.0,2-Back,0,z,Mon Feb 24 2025 15:37:06 GMT-0600 (Central Standard Time),851919.099999994,012_o_f_n_a.png,O,None,2016,17,1,3026.0,848893.099999994,7060,VNB,C,15
1,test,5,1.0,2-Back,0,m,Mon Feb 24 2025 15:37:06 GMT-0600 (Central Standard Time),854950.900000006,025_y_m_h_a.png,O,None,2016,18,1,3024.9000000059605,851926.0,7060,VNB,C,16
