acc_sum,block,block_c,block_cond,con_img,correct,correct_response,datetime,endtime,face,jitter,line,project,response,response_time,row_sel,session_number,start_end,starttime,subject_id,task,task_vers,trial
1,prac,1,A,haborder.png,1,z,Wed Apr 23 2025 15:16:48 GMT-0500 (Central Daylight Time),56728.59999999963,CFD-WF-013-015-A.jpg,1000,solid,I,z,1242,12,3,3034.399999999441,53694.200000000186,8008,ATS,B,1
2,prac,1,A,haborder.png,1,m,Wed Apr 23 2025 15:16:48 GMT-0500 (Central Daylight Time),60242.90000000037,CFD-WM-012-007-HC.jpg,1700,solid,I,m,1022,9,3,6548.700000000186,53694.200000000186,8008,ATS,B,2
3,prac,1,A,haborder.png,1,m,Wed Apr 23 2025 15:16:48 GMT-0500 (Central Daylight Time),63791.299999999814,CFD-WF-011-006-HC.jpg,1500,solid,I,m,1258,11,3,10097.099999999627,53694.200000000186,8008,ATS,B,3
4,prac,1,A,haborder.png,1,m,Wed Apr 23 2025 15:16:48 GMT-0500 (Central Daylight Time),66923.5,CFD-WM-011-006-HC.jpg,1400,solid,I,m,936,7,3,13229.299999999814,53694.200000000186,8008,ATS,B,4
5,prac,1,A,haborder.png,1,z,Wed Apr 23 2025 15:16:48 GMT-0500 (Central Daylight Time),70155.79999999981,CFD-BF-050-012-A.jpg,1200,solid,I,z,1245,6,3,16461.599999999627,53694.200000000186,8008,ATS,B,5
6,prac,1,A,haborder.png,1,m,Wed Apr 23 2025 15:16:48 GMT-0500 (Central Daylight Time),73705.20000000019,CFD-BF-035-007-HC.jpg,2000,solid,I,m,758,5,3,20011.0,53694.200000000186,8008,ATS,B,6
7,prac,1,A,haborder.png,1,m,Wed Apr 23 2025 15:16:48 GMT-0500 (Central Daylight Time),77421.0,CFD-BM-015-017-HC.jpg,1700,solid,I,m,1229,1,3,23726.799999999814,53694.200000000186,8008,ATS,B,7
8,prac,1,A,haborder.png,1,z,Wed Apr 23 2025 15:16:48 GMT-0500 (Central Daylight Time),80469.5,CFD-BF-051-043-A.jpg,1000,solid,I,z,1253,4,3,26775.299999999814,53694.200000000186,8008,ATS,B,8
9,prac,1,A,haborder.png,1,m,Wed Apr 23 2025 15:16:48 GMT-0500 (Central Daylight Time),83683.59999999963,CFD-BM-020-024-HC.jpg,1500,solid,I,m,917,3,3,29989.39999999944,53694.200000000186,8008,ATS,B,9
10,prac,1,A,haborder.png,1,z,Wed Apr 23 2025 15:16:48 GMT-0500 (Central Daylight Time),87233.59999999963,CFD-BM-037-041-A.jpg,1600,solid,I,z,1165,2,3,33539.39999999944,53694.200000000186,8008,ATS,B,10
11,prac,1,A,haborder.png,1,z,Wed Apr 23 2025 15:16:48 GMT-0500 (Central Daylight Time),90750.79999999981,CFD-WF-026-008-A.jpg,1600,solid,I,z,1126,10,3,37056.59999999963,53694.200000000186,8008,ATS,B,11
12,prac,1,A,haborder.png,1,z,Wed Apr 23 2025 15:16:48 GMT-0500 (Central Daylight Time),94399.59999999963,CFD-WM-009-009-A.jpg,1900,solid,I,z,976,8,3,40705.39999999944,53694.200000000186,8008,ATS,B,12
1,prac,1,B,mfborder.png,1,m,Wed Apr 23 2025 15:16:48 GMT-0500 (Central Daylight Time),125454.5,CFD-WM-009-009-A.jpg,1700,dash,I,m,1016,9,3,3514.4000000003725,121940.09999999963,8008,ATS,B,1
2,prac,1,B,mfborder.png,1,m,Wed Apr 23 2025 15:16:48 GMT-0500 (Central Daylight Time),129137.29999999981,CFD-BM-037-041-A.jpg,2000,dash,I,m,884,5,3,7197.200000000186,121940.09999999963,8008,ATS,B,2
3,prac,1,B,mfborder.png,1,z,Wed Apr 23 2025 15:16:48 GMT-0500 (Central Daylight Time),132587.40000000037,CFD-WF-027-007-HC.jpg,1900,dash,I,z,773,8,3,10647.300000000745,121940.09999999963,8008,ATS,B,3
4,prac,1,B,mfborder.png,1,m,Wed Apr 23 2025 15:16:48 GMT-0500 (Central Daylight Time),136319.2999999998,CFD-BM-020-024-HC.jpg,1700,dash,I,m,1233,1,3,14379.200000000186,121940.09999999963,8008,ATS,B,4
5,prac,1,B,mfborder.png,1,z,Wed Apr 23 2025 15:16:48 GMT-0500 (Central Daylight Time),139185.2999999998,CFD-WF-011-006-HC.jpg,1000,dash,I,z,1067,12,3,17245.200000000186,121940.09999999963,8008,ATS,B,5
6,prac,1,B,mfborder.png,1,z,Wed Apr 23 2025 15:16:48 GMT-0500 (Central Daylight Time),142850.2999999998,CFD-BF-027-013-HC.jpg,1500,dash,I,z,1387,3,3,20910.200000000186,121940.09999999963,8008,ATS,B,6
7,prac,1,B,mfborder.png,1,m,Wed Apr 23 2025 15:16:48 GMT-0500 (Central Daylight Time),146683.7999999998,CFD-BM-041-048-A.jpg,1600,dash,I,m,1465,2,3,24743.700000000186,121940.09999999963,8008,ATS,B,7
8,prac,1,B,mfborder.png,1,m,Wed Apr 23 2025 15:16:48 GMT-0500 (Central Daylight Time),149998.09999999963,CFD-WM-012-007-HC.jpg,1600,dash,I,m,917,10,3,28058.0,121940.09999999963,8008,ATS,B,8
9,prac,1,B,mfborder.png,1,m,Wed Apr 23 2025 15:16:48 GMT-0500 (Central Daylight Time),153312.90000000037,CFD-WM-037-060-A.jpg,1200,dash,I,m,1323,6,3,31372.800000000745,121940.09999999963,8008,ATS,B,9
10,prac,1,B,mfborder.png,1,z,Wed Apr 23 2025 15:16:48 GMT-0500 (Central Daylight Time),156645.5,CFD-WF-026-008-A.jpg,1500,dash,I,z,1035,11,3,34705.40000000037,121940.09999999963,8008,ATS,B,10
11,prac,1,B,mfborder.png,1,z,Wed Apr 23 2025 15:16:48 GMT-0500 (Central Daylight Time),159762.0,CFD-BF-051-043-A.jpg,1000,dash,I,z,1301,4,3,37821.90000000037,121940.09999999963,8008,ATS,B,11
12,prac,1,B,mfborder.png,1,z,Wed Apr 23 2025 15:16:48 GMT-0500 (Central Daylight Time),162978.0,CFD-BF-035-007-HC.jpg,1400,dash,I,z,1025,7,3,41037.90000000037,121940.09999999963,8008,ATS,B,12
1,test,1,A,haborder.png,1,z,Wed Apr 23 2025 15:16:48 GMT-0500 (Central Daylight Time),185402.7999999998,CFD-WF-026-008-A.jpg,1600,solid,I,z,893,10,3,2532.899999999441,182869.90000000037,8008,ATS,B,1
2,test,1,A,haborder.png,1,z,Wed Apr 23 2025 15:16:48 GMT-0500 (Central Daylight Time),188084.5,CFD-WM-009-009-A.jpg,1900,solid,I,z,752,8,3,5214.5999999996275,182869.90000000037,8008,ATS,B,2
3,test,1,A,haborder.png,1,m,Wed Apr 23 2025 15:16:48 GMT-0500 (Central Daylight Time),190467.40000000037,CFD-WM-012-007-HC.jpg,1700,solid,I,m,655,9,3,7597.5,182869.90000000037,8008,ATS,B,3
4,test,1,A,haborder.png,1,z,Wed Apr 23 2025 15:16:48 GMT-0500 (Central Daylight Time),193184.7000000002,CFD-WM-009-009-A.jpg,1900,solid,I,z,785,8,3,10314.799999999814,182869.90000000037,8008,ATS,B,4
5,test,1,A,haborder.png,1,m,Wed Apr 23 2025 15:16:48 GMT-0500 (Central Daylight Time),195649.7999999998,CFD-BM-020-024-HC.jpg,1500,solid,I,m,933,3,3,12779.899999999441,182869.90000000037,8008,ATS,B,5
6,test,1,A,haborder.png,1,m,Wed Apr 23 2025 15:16:48 GMT-0500 (Central Daylight Time),198132.59999999963,CFD-WM-012-007-HC.jpg,1700,solid,I,m,765,9,3,15262.699999999255,182869.90000000037,8008,ATS,B,6
7,test,1,A,haborder.png,1,m,Wed Apr 23 2025 15:16:48 GMT-0500 (Central Daylight Time),201163.59999999963,CFD-BF-035-007-HC.jpg,2000,solid,I,m,1003,5,3,18293.699999999255,182869.90000000037,8008,ATS,B,7
8,test,1,A,haborder.png,1,z,Wed Apr 23 2025 15:16:48 GMT-0500 (Central Daylight Time),203413.7999999998,CFD-BF-050-012-A.jpg,1200,solid,I,z,1029,6,3,20543.89999999944,182869.90000000037,8008,ATS,B,8
9,test,1,A,haborder.png,1,m,Wed Apr 23 2025 15:16:48 GMT-0500 (Central Daylight Time),205664.09999999963,CFD-WM-011-006-HC.jpg,1400,solid,I,m,818,7,3,22794.199999999255,182869.90000000037,8008,ATS,B,9
10,test,1,A,haborder.png,1,m,Wed Apr 23 2025 15:16:48 GMT-0500 (Central Daylight Time),208695.0,CFD-BF-035-007-HC.jpg,2000,solid,I,m,1000,5,3,25825.099999999627,182869.90000000037,8008,ATS,B,10
10,test,1,A,haborder.png,0,m,Wed Apr 23 2025 15:16:48 GMT-0500 (Central Daylight Time),211928.7000000002,CFD-BM-015-017-HC.jpg,1700,solid,I,None,1514,1,3,29058.799999999814,182869.90000000037,8008,ATS,B,11
11,test,1,A,haborder.png,1,z,Wed Apr 23 2025 15:16:48 GMT-0500 (Central Daylight Time),214160.90000000037,CFD-BF-050-012-A.jpg,1200,solid,I,z,1001,6,3,31291.0,182869.90000000037,8008,ATS,B,12
12,test,1,A,haborder.png,1,z,Wed Apr 23 2025 15:16:48 GMT-0500 (Central Daylight Time),216942.09999999963,CFD-WF-026-008-A.jpg,1600,solid,I,z,1161,10,3,34072.199999999255,182869.90000000037,8008,ATS,B,13
13,test,1,A,haborder.png,1,z,Wed Apr 23 2025 15:16:48 GMT-0500 (Central Daylight Time),219425.7000000002,CFD-WF-013-015-A.jpg,1000,solid,I,z,1456,12,3,36555.799999999814,182869.90000000037,8008,ATS,B,14
14,test,1,A,haborder.png,1,z,Wed Apr 23 2025 15:16:48 GMT-0500 (Central Daylight Time),221492.7000000002,CFD-BF-051-043-A.jpg,1000,solid,I,z,1040,4,3,38622.799999999814,182869.90000000037,8008,ATS,B,15
15,test,1,A,haborder.png,1,m,Wed Apr 23 2025 15:16:48 GMT-0500 (Central Daylight Time),224057.90000000037,CFD-WF-011-006-HC.jpg,1500,solid,I,m,1040,11,3,41188.0,182869.90000000037,8008,ATS,B,16
16,test,1,A,haborder.png,1,z,Wed Apr 23 2025 15:16:48 GMT-0500 (Central Daylight Time),227105.09999999963,CFD-BM-037-041-A.jpg,1600,solid,I,z,1397,2,3,44235.199999999255,182869.90000000037,8008,ATS,B,17
17,test,1,A,haborder.png,1,m,Wed Apr 23 2025 15:16:48 GMT-0500 (Central Daylight Time),229671.09999999963,CFD-BM-020-024-HC.jpg,1500,solid,I,m,1043,3,3,46801.199999999255,182869.90000000037,8008,ATS,B,18
18,test,1,A,haborder.png,1,m,Wed Apr 23 2025 15:16:48 GMT-0500 (Central Daylight Time),232353.59999999963,CFD-BM-015-017-HC.jpg,1700,solid,I,m,956,1,3,49483.699999999255,182869.90000000037,8008,ATS,B,19
19,test,1,A,haborder.png,1,m,Wed Apr 23 2025 15:16:48 GMT-0500 (Central Daylight Time),234570.5,CFD-WM-011-006-HC.jpg,1400,solid,I,m,790,7,3,51700.59999999963,182869.90000000037,8008,ATS,B,20
20,test,1,A,haborder.png,1,z,Wed Apr 23 2025 15:16:48 GMT-0500 (Central Daylight Time),237336.2999999998,CFD-BM-037-041-A.jpg,1600,solid,I,z,1133,2,3,54466.39999999944,182869.90000000037,8008,ATS,B,21
21,test,1,A,haborder.png,1,z,Wed Apr 23 2025 15:16:48 GMT-0500 (Central Daylight Time),239535.09999999963,CFD-WF-013-015-A.jpg,1000,solid,I,z,1176,12,3,56665.199999999255,182869.90000000037,8008,ATS,B,22
22,test,1,A,haborder.png,1,z,Wed Apr 23 2025 15:16:48 GMT-0500 (Central Daylight Time),241466.90000000037,CFD-BF-051-043-A.jpg,1000,solid,I,z,904,4,3,58597.0,182869.90000000037,8008,ATS,B,23
23,test,1,A,haborder.png,1,m,Wed Apr 23 2025 15:16:48 GMT-0500 (Central Daylight Time),243932.7999999998,CFD-WF-011-006-HC.jpg,1500,solid,I,m,938,11,3,61062.89999999944,182869.90000000037,8008,ATS,B,24
1,test,1,B,mfborder.png,1,m,Wed Apr 23 2025 15:16:48 GMT-0500 (Central Daylight Time),254965.09999999963,CFD-WM-037-060-A.jpg,1200,dash,I,m,976,6,3,2201.0,252764.09999999963,8008,ATS,B,1
2,test,1,B,mfborder.png,1,m,Wed Apr 23 2025 15:16:48 GMT-0500 (Central Daylight Time),256997.5,CFD-WM-037-060-A.jpg,1200,dash,I,m,816,6,3,4233.4000000003725,252764.09999999963,8008,ATS,B,2
3,test,1,B,mfborder.png,1,z,Wed Apr 23 2025 15:16:48 GMT-0500 (Central Daylight Time),259363.0,CFD-WF-026-008-A.jpg,1500,dash,I,z,840,11,3,6598.9000000003725,252764.09999999963,8008,ATS,B,3
4,test,1,B,mfborder.png,1,m,Wed Apr 23 2025 15:16:48 GMT-0500 (Central Daylight Time),262127.7000000002,CFD-BM-037-041-A.jpg,2000,dash,I,m,742,5,3,9363.600000000559,252764.09999999963,8008,ATS,B,4
5,test,1,B,mfborder.png,1,z,Wed Apr 23 2025 15:16:48 GMT-0500 (Central Daylight Time),264944.5999999996,CFD-WF-027-007-HC.jpg,1900,dash,I,z,883,8,3,12180.5,252764.09999999963,8008,ATS,B,5
6,test,1,B,mfborder.png,1,m,Wed Apr 23 2025 15:16:48 GMT-0500 (Central Daylight Time),267676.4000000004,CFD-WM-012-007-HC.jpg,1600,dash,I,m,1096,10,3,14912.300000000745,252764.09999999963,8008,ATS,B,6
7,test,1,B,mfborder.png,1,m,Wed Apr 23 2025 15:16:48 GMT-0500 (Central Daylight Time),270109.7000000002,CFD-WM-009-009-A.jpg,1700,dash,I,m,703,9,3,17345.60000000056,252764.09999999963,8008,ATS,B,7
8,test,1,B,mfborder.png,1,z,Wed Apr 23 2025 15:16:48 GMT-0500 (Central Daylight Time),272041.7000000002,CFD-BF-051-043-A.jpg,1000,dash,I,z,908,4,3,19277.60000000056,252764.09999999963,8008,ATS,B,8
9,test,1,B,mfborder.png,1,m,Wed Apr 23 2025 15:16:48 GMT-0500 (Central Daylight Time),274425.2000000002,CFD-WM-012-007-HC.jpg,1600,dash,I,m,759,10,3,21661.10000000056,252764.09999999963,8008,ATS,B,9
10,test,1,B,mfborder.png,1,z,Wed Apr 23 2025 15:16:48 GMT-0500 (Central Daylight Time),276806.5999999996,CFD-WF-026-008-A.jpg,1500,dash,I,z,851,11,3,24042.5,252764.09999999963,8008,ATS,B,10
11,test,1,B,mfborder.png,1,z,Wed Apr 23 2025 15:16:48 GMT-0500 (Central Daylight Time),279722.7000000002,CFD-BF-035-007-HC.jpg,1400,dash,I,z,1484,7,3,26958.60000000056,252764.09999999963,8008,ATS,B,11
12,test,1,B,mfborder.png,1,z,Wed Apr 23 2025 15:16:48 GMT-0500 (Central Daylight Time),282437.7000000002,CFD-BF-027-013-HC.jpg,1500,dash,I,z,1194,3,3,29673.60000000056,252764.09999999963,8008,ATS,B,12
13,test,1,B,mfborder.png,1,z,Wed Apr 23 2025 15:16:48 GMT-0500 (Central Daylight Time),284605.0999999996,CFD-BF-051-043-A.jpg,1000,dash,I,z,1149,4,3,31841.0,252764.09999999963,8008,ATS,B,13
14,test,1,B,mfborder.png,1,m,Wed Apr 23 2025 15:16:48 GMT-0500 (Central Daylight Time),287404.5999999996,CFD-BM-020-024-HC.jpg,1700,dash,I,m,1071,1,3,34640.5,252764.09999999963,8008,ATS,B,14
15,test,1,B,mfborder.png,1,m,Wed Apr 23 2025 15:16:48 GMT-0500 (Central Daylight Time),290152.5999999996,CFD-BM-041-048-A.jpg,1600,dash,I,m,1116,2,3,37388.5,252764.09999999963,8008,ATS,B,15
16,test,1,B,mfborder.png,1,m,Wed Apr 23 2025 15:16:48 GMT-0500 (Central Daylight Time),292620.7999999998,CFD-BM-041-048-A.jpg,1600,dash,I,m,836,2,3,39856.700000000186,252764.09999999963,8008,ATS,B,16
17,test,1,B,mfborder.png,1,z,Wed Apr 23 2025 15:16:48 GMT-0500 (Central Daylight Time),294436.2999999998,CFD-WF-011-006-HC.jpg,1000,dash,I,z,790,12,3,41672.200000000186,252764.09999999963,8008,ATS,B,17
18,test,1,B,mfborder.png,1,z,Wed Apr 23 2025 15:16:48 GMT-0500 (Central Daylight Time),296900.2000000002,CFD-BF-027-013-HC.jpg,1500,dash,I,z,933,3,3,44136.10000000056,252764.09999999963,8008,ATS,B,18
19,test,1,B,mfborder.png,1,m,Wed Apr 23 2025 15:16:48 GMT-0500 (Central Daylight Time),299466.2000000002,CFD-WM-009-009-A.jpg,1700,dash,I,m,833,9,3,46702.10000000056,252764.09999999963,8008,ATS,B,19
20,test,1,B,mfborder.png,1,m,Wed Apr 23 2025 15:16:48 GMT-0500 (Central Daylight Time),302014.5999999996,CFD-BM-020-024-HC.jpg,1700,dash,I,m,818,1,3,49250.5,252764.09999999963,8008,ATS,B,20
21,test,1,B,mfborder.png,1,z,Wed Apr 23 2025 15:16:48 GMT-0500 (Central Daylight Time),304831.0999999996,CFD-WF-027-007-HC.jpg,1900,dash,I,z,885,8,3,52067.0,252764.09999999963,8008,ATS,B,21
22,test,1,B,mfborder.png,1,z,Wed Apr 23 2025 15:16:48 GMT-0500 (Central Daylight Time),306696.7999999998,CFD-WF-011-006-HC.jpg,1000,dash,I,z,841,12,3,53932.700000000186,252764.09999999963,8008,ATS,B,22
23,test,1,B,mfborder.png,1,m,Wed Apr 23 2025 15:16:48 GMT-0500 (Central Daylight Time),309464.5,CFD-BM-037-041-A.jpg,2000,dash,I,m,735,5,3,56700.40000000037,252764.09999999963,8008,ATS,B,23
23,test,1,B,mfborder.png,0,z,Wed Apr 23 2025 15:16:48 GMT-0500 (Central Daylight Time),312396.5,CFD-BF-035-007-HC.jpg,1400,dash,I,None,1509,7,3,59632.40000000037,252764.09999999963,8008,ATS,B,24
0,8,1,C,haborder.png,0,z,Wed Apr 23 2025 15:16:48 GMT-0500 (Central Daylight Time),350884.4000000004,CFD-BF-050-012-A.jpg,1700,solid,I,None,1515,prac,3,4000.100000000559,346884.2999999998,8008,ATS,B,1
1,11,1,C,haborder.png,1,m,Wed Apr 23 2025 15:16:48 GMT-0500 (Central Daylight Time),353666.5999999996,CFD-WM-011-006-HC.jpg,1000,dash,I,m,968,prac,3,6782.299999999814,346884.2999999998,8008,ATS,B,2
2,2,1,C,mfborder.png,1,z,Wed Apr 23 2025 15:16:48 GMT-0500 (Central Daylight Time),357214.2000000002,CFD-WF-013-015-A.jpg,1500,solid,I,z,1242,prac,3,10329.900000000373,346884.2999999998,8008,ATS,B,3
2,10,1,C,haborder.png,0,m,Wed Apr 23 2025 15:16:48 GMT-0500 (Central Daylight Time),361012.7999999998,CFD-BM-020-024-HC.jpg,1500,solid,I,None,1515,prac,3,14128.5,346884.2999999998,8008,ATS,B,4
3,3,1,C,mfborder.png,1,z,Wed Apr 23 2025 15:16:48 GMT-0500 (Central Daylight Time),364229.2000000002,CFD-BF-035-007-HC.jpg,1000,dash,I,z,1427,prac,3,17344.900000000373,346884.2999999998,8008,ATS,B,5
3,7,1,C,haborder.png,0,z,Wed Apr 23 2025 15:16:48 GMT-0500 (Central Daylight Time),368427.2000000002,CFD-BF-051-043-A.jpg,1900,dash,I,None,1516,prac,3,21542.900000000373,346884.2999999998,8008,ATS,B,6
4,12,1,C,haborder.png,1,m,Wed Apr 23 2025 15:16:48 GMT-0500 (Central Daylight Time),371691.5,CFD-WM-011-006-HC.jpg,1400,solid,I,m,1068,prac,3,24807.200000000186,346884.2999999998,8008,ATS,B,7
5,5,1,C,mfborder.png,1,m,Wed Apr 23 2025 15:16:48 GMT-0500 (Central Daylight Time),375143.2000000002,CFD-BM-037-041-A.jpg,1200,dash,I,m,1467,prac,3,28258.900000000373,346884.2999999998,8008,ATS,B,8
5,9,1,C,haborder.png,0,z,Wed Apr 23 2025 15:16:48 GMT-0500 (Central Daylight Time),379041.7000000002,CFD-WF-026-008-A.jpg,1600,dash,I,None,1516,prac,3,32157.400000000373,346884.2999999998,8008,ATS,B,9
5,4,1,C,mfborder.png,0,m,Wed Apr 23 2025 15:16:48 GMT-0500 (Central Daylight Time),383341.5999999996,CFD-BM-015-017-HC.jpg,2000,solid,I,None,1515,prac,3,36457.299999999814,346884.2999999998,8008,ATS,B,10
6,1,1,C,mfborder.png,1,z,Wed Apr 23 2025 15:16:48 GMT-0500 (Central Daylight Time),386939.7999999998,CFD-WF-011-006-HC.jpg,1600,dash,I,z,1206,prac,3,40055.5,346884.2999999998,8008,ATS,B,11
6,6,1,C,mfborder.png,0,m,Wed Apr 23 2025 15:16:48 GMT-0500 (Central Daylight Time),390606.2000000002,CFD-WM-009-009-A.jpg,1700,solid,I,z,1186,prac,3,43721.90000000037,346884.2999999998,8008,ATS,B,12
0,11,2,C,haborder.png,0,m,Wed Apr 23 2025 15:16:48 GMT-0500 (Central Daylight Time),418060.9000000004,CFD-WM-011-006-HC.jpg,1000,dash,I,None,1515,prac,3,71176.60000000056,346884.2999999998,8008,ATS,B,1
1,4,2,C,mfborder.png,1,m,Wed Apr 23 2025 15:16:48 GMT-0500 (Central Daylight Time),422261.7999999998,CFD-BM-015-017-HC.jpg,2000,solid,I,m,1410,prac,3,75377.5,346884.2999999998,8008,ATS,B,2
1,9,2,C,haborder.png,0,z,Wed Apr 23 2025 15:16:48 GMT-0500 (Central Daylight Time),426159.5,CFD-WF-026-008-A.jpg,1600,dash,I,None,1516,prac,3,79275.20000000019,346884.2999999998,8008,ATS,B,3
2,2,2,C,mfborder.png,1,z,Wed Apr 23 2025 15:16:48 GMT-0500 (Central Daylight Time),429891.7999999998,CFD-WF-013-015-A.jpg,1500,solid,I,z,1438,prac,3,83007.5,346884.2999999998,8008,ATS,B,4
3,1,2,C,mfborder.png,1,z,Wed Apr 23 2025 15:16:48 GMT-0500 (Central Daylight Time),433589.5999999996,CFD-WF-011-006-HC.jpg,1600,dash,I,z,1312,prac,3,86705.29999999981,346884.2999999998,8008,ATS,B,5
3,7,2,C,haborder.png,0,z,Wed Apr 23 2025 15:16:48 GMT-0500 (Central Daylight Time),437788.9000000004,CFD-BF-051-043-A.jpg,1900,dash,I,None,1518,prac,3,90904.60000000056,346884.2999999998,8008,ATS,B,6
4,8,2,C,haborder.png,1,z,Wed Apr 23 2025 15:16:48 GMT-0500 (Central Daylight Time),441339.0999999996,CFD-BF-050-012-A.jpg,1700,solid,I,z,1071,prac,3,94454.79999999981,346884.2999999998,8008,ATS,B,7
5,10,2,C,haborder.png,1,m,Wed Apr 23 2025 15:16:48 GMT-0500 (Central Daylight Time),444821.2999999998,CFD-BM-020-024-HC.jpg,1500,solid,I,m,1185,prac,3,97937.0,346884.2999999998,8008,ATS,B,8
6,5,2,C,mfborder.png,1,m,Wed Apr 23 2025 15:16:48 GMT-0500 (Central Daylight Time),448101.0999999996,CFD-BM-037-041-A.jpg,1200,dash,I,m,1283,prac,3,101216.79999999981,346884.2999999998,8008,ATS,B,9
7,12,2,C,haborder.png,1,m,Wed Apr 23 2025 15:16:48 GMT-0500 (Central Daylight Time),451733.9000000004,CFD-WM-011-006-HC.jpg,1400,solid,I,m,1442,prac,3,104849.60000000056,346884.2999999998,8008,ATS,B,10
8,6,2,C,mfborder.png,1,m,Wed Apr 23 2025 15:16:48 GMT-0500 (Central Daylight Time),455499.2999999998,CFD-WM-009-009-A.jpg,1700,solid,I,m,1277,prac,3,108615.0,346884.2999999998,8008,ATS,B,11
9,3,2,C,mfborder.png,1,z,Wed Apr 23 2025 15:16:48 GMT-0500 (Central Daylight Time),458515.9000000004,CFD-BF-035-007-HC.jpg,1000,dash,I,z,1218,prac,3,111631.60000000056,346884.2999999998,8008,ATS,B,12
0,test,1,C,haborder.png,0,m,Wed Apr 23 2025 15:16:48 GMT-0500 (Central Daylight Time),476942.5,CFD-WF-011-006-HC.jpg,1000,solid,I,z,1334,12,3,2364.9000000003725,474577.5999999996,8008,ATS,B,1
0,test,1,C,haborder.png,0,m,Wed Apr 23 2025 15:16:48 GMT-0500 (Central Daylight Time),479475.7999999998,CFD-WF-011-006-HC.jpg,1000,solid,I,None,1509,12,3,4898.200000000186,474577.5999999996,8008,ATS,B,2
0,test,1,C,mfborder.png,0,m,Wed Apr 23 2025 15:16:48 GMT-0500 (Central Daylight Time),483007.0999999996,CFD-WM-037-060-A.jpg,2000,dash,I,None,1516,5,3,8429.5,474577.5999999996,8008,ATS,B,3
0,test,1,C,mfborder.png,0,m,Wed Apr 23 2025 15:16:48 GMT-0500 (Central Daylight Time),485740.7000000002,CFD-BM-020-024-HC.jpg,1200,dash,I,None,1517,6,3,11163.100000000559,474577.5999999996,8008,ATS,B,4
0,test,1,C,mfborder.png,0,z,Wed Apr 23 2025 15:16:48 GMT-0500 (Central Daylight Time),488773.7999999998,CFD-WF-026-008-A.jpg,1500,dash,I,None,1516,3,3,14196.200000000186,474577.5999999996,8008,ATS,B,5
0,test,1,C,haborder.png,0,m,Wed Apr 23 2025 15:16:48 GMT-0500 (Central Daylight Time),491807.0999999996,CFD-WF-027-007-HC.jpg,1500,solid,I,None,1511,11,3,17229.5,474577.5999999996,8008,ATS,B,6
1,test,1,C,haborder.png,1,z,Wed Apr 23 2025 15:16:48 GMT-0500 (Central Daylight Time),494970.2000000002,CFD-BM-041-048-A.jpg,1700,solid,I,z,1439,9,3,20392.60000000056,474577.5999999996,8008,ATS,B,7
2,test,1,C,haborder.png,1,z,Wed Apr 23 2025 15:16:48 GMT-0500 (Central Daylight Time),498053.7000000002,CFD-BM-037-041-A.jpg,1900,solid,I,z,1166,8,3,23476.10000000056,474577.5999999996,8008,ATS,B,8
3,test,1,C,mfborder.png,1,z,Wed Apr 23 2025 15:16:48 GMT-0500 (Central Daylight Time),501052.5,CFD-BF-027-013-HC.jpg,1700,dash,I,z,1267,1,3,26474.900000000373,474577.5999999996,8008,ATS,B,9
4,test,1,C,haborder.png,1,m,Wed Apr 23 2025 15:16:48 GMT-0500 (Central Daylight Time),503869.7000000002,CFD-BF-035-007-HC.jpg,1600,solid,I,m,1197,10,3,29292.10000000056,474577.5999999996,8008,ATS,B,10
4,test,1,C,mfborder.png,0,m,Wed Apr 23 2025 15:16:48 GMT-0500 (Central Daylight Time),506400.4000000004,CFD-WM-012-007-HC.jpg,1000,dash,I,None,1516,4,3,31822.800000000745,474577.5999999996,8008,ATS,B,11
5,test,1,C,mfborder.png,1,z,Wed Apr 23 2025 15:16:48 GMT-0500 (Central Daylight Time),509249.0,CFD-BF-027-013-HC.jpg,1700,dash,I,z,1117,1,3,34671.40000000037,474577.5999999996,8008,ATS,B,12
6,test,1,C,mfborder.png,1,z,Wed Apr 23 2025 15:16:48 GMT-0500 (Central Daylight Time),511914.0,CFD-WF-026-008-A.jpg,1500,dash,I,z,1132,3,3,37336.40000000037,474577.5999999996,8008,ATS,B,13
7,test,1,C,mfborder.png,1,z,Wed Apr 23 2025 15:16:48 GMT-0500 (Central Daylight Time),514646.9000000004,CFD-BF-051-043-A.jpg,1600,dash,I,z,1095,2,3,40069.300000000745,474577.5999999996,8008,ATS,B,14
7,test,1,C,haborder.png,0,z,Wed Apr 23 2025 15:16:48 GMT-0500 (Central Daylight Time),518087.2000000002,CFD-BM-037-041-A.jpg,1900,solid,I,None,1516,8,3,43509.60000000056,474577.5999999996,8008,ATS,B,15
8,test,1,C,mfborder.png,1,z,Wed Apr 23 2025 15:16:48 GMT-0500 (Central Daylight Time),521095.2999999998,CFD-BF-051-043-A.jpg,1600,dash,I,z,1395,2,3,46517.700000000186,474577.5999999996,8008,ATS,B,16
9,test,1,C,haborder.png,1,m,Wed Apr 23 2025 15:16:48 GMT-0500 (Central Daylight Time),523761.0999999996,CFD-WF-027-007-HC.jpg,1500,solid,I,m,1135,11,3,49183.5,474577.5999999996,8008,ATS,B,17
9,test,1,C,mfborder.png,0,m,Wed Apr 23 2025 15:16:48 GMT-0500 (Central Daylight Time),526494.4000000004,CFD-BM-020-024-HC.jpg,1200,dash,I,None,1517,6,3,51916.800000000745,474577.5999999996,8008,ATS,B,18
9,test,1,C,haborder.png,0,z,Wed Apr 23 2025 15:16:48 GMT-0500 (Central Daylight Time),529726.2999999998,CFD-BM-041-048-A.jpg,1700,solid,I,None,1516,9,3,55148.700000000186,474577.5999999996,8008,ATS,B,19
10,test,1,C,haborder.png,1,m,Wed Apr 23 2025 15:16:48 GMT-0500 (Central Daylight Time),532642.5,CFD-BF-035-007-HC.jpg,1600,solid,I,m,1290,10,3,58064.90000000037,474577.5999999996,8008,ATS,B,20
10,test,1,C,haborder.png,0,z,Wed Apr 23 2025 15:16:48 GMT-0500 (Central Daylight Time),535308.2999999998,CFD-WM-009-009-A.jpg,1400,solid,I,m,1225,7,3,60730.700000000186,474577.5999999996,8008,ATS,B,21
10,test,1,C,mfborder.png,0,m,Wed Apr 23 2025 15:16:48 GMT-0500 (Central Daylight Time),538841.2000000002,CFD-WM-037-060-A.jpg,2000,dash,I,None,1516,5,3,64263.60000000056,474577.5999999996,8008,ATS,B,22
11,test,1,C,haborder.png,1,z,Wed Apr 23 2025 15:16:48 GMT-0500 (Central Daylight Time),541639.7000000002,CFD-WM-009-009-A.jpg,1400,solid,I,z,1362,7,3,67062.10000000056,474577.5999999996,8008,ATS,B,23
12,test,1,C,mfborder.png,1,m,Wed Apr 23 2025 15:16:48 GMT-0500 (Central Daylight Time),544055.9000000004,CFD-WM-012-007-HC.jpg,1000,dash,I,m,1385,4,3,69478.30000000075,474577.5999999996,8008,ATS,B,24
1,test,2,C,haborder.png,1,z,Wed Apr 23 2025 15:16:48 GMT-0500 (Central Daylight Time),563516.2999999998,CFD-WF-026-008-A.jpg,1700,solid,I,z,1065,9,3,2797.399999999441,560718.9000000004,8008,ATS,B,1
2,test,2,C,haborder.png,1,z,Wed Apr 23 2025 15:16:48 GMT-0500 (Central Daylight Time),566615.2999999998,CFD-BF-050-012-A.jpg,1900,solid,I,z,1168,8,3,5896.399999999441,560718.9000000004,8008,ATS,B,2
3,test,2,C,mfborder.png,1,z,Wed Apr 23 2025 15:16:48 GMT-0500 (Central Daylight Time),569763.7999999998,CFD-WF-011-006-HC.jpg,1700,dash,I,z,1422,1,3,9044.899999999441,560718.9000000004,8008,ATS,B,3
4,test,2,C,haborder.png,1,m,Wed Apr 23 2025 15:16:48 GMT-0500 (Central Daylight Time),572029.4000000004,CFD-WM-011-006-HC.jpg,1000,solid,I,m,1240,12,3,11310.5,560718.9000000004,8008,ATS,B,4
5,test,2,C,mfborder.png,1,z,Wed Apr 23 2025 15:16:48 GMT-0500 (Central Daylight Time),574928.9000000004,CFD-BF-035-007-HC.jpg,1500,dash,I,z,1367,3,3,14210.0,560718.9000000004,8008,ATS,B,5
6,test,2,C,haborder.png,1,m,Wed Apr 23 2025 15:16:48 GMT-0500 (Central Daylight Time),577378.9000000004,CFD-WM-011-006-HC.jpg,1000,solid,I,m,1426,12,3,16660.0,560718.9000000004,8008,ATS,B,6
7,test,2,C,mfborder.png,1,m,Wed Apr 23 2025 15:16:48 GMT-0500 (Central Daylight Time),580843.7999999998,CFD-BM-037-041-A.jpg,2000,dash,I,m,1440,5,3,20124.89999999944,560718.9000000004,8008,ATS,B,7
8,test,2,C,haborder.png,1,m,Wed Apr 23 2025 15:16:48 GMT-0500 (Central Daylight Time),583659.0,CFD-WM-011-006-HC.jpg,1500,solid,I,m,1282,11,3,22940.099999999627,560718.9000000004,8008,ATS,B,8
8,test,2,C,mfborder.png,0,m,Wed Apr 23 2025 15:16:48 GMT-0500 (Central Daylight Time),586191.0,CFD-BM-015-017-HC.jpg,1000,dash,I,None,1514,4,3,25472.099999999627,560718.9000000004,8008,ATS,B,9
9,test,2,C,haborder.png,1,m,Wed Apr 23 2025 15:16:48 GMT-0500 (Central Daylight Time),588990.2999999998,CFD-BM-020-024-HC.jpg,1600,solid,I,m,1177,10,3,28271.39999999944,560718.9000000004,8008,ATS,B,10
10,test,2,C,haborder.png,1,z,Wed Apr 23 2025 15:16:48 GMT-0500 (Central Daylight Time),592039.5,CFD-BF-050-012-A.jpg,1900,solid,I,z,1127,8,3,31320.599999999627,560718.9000000004,8008,ATS,B,11
11,test,2,C,haborder.png,1,m,Wed Apr 23 2025 15:16:48 GMT-0500 (Central Daylight Time),594821.7000000002,CFD-BM-020-024-HC.jpg,1600,solid,I,m,1153,10,3,34102.799999999814,560718.9000000004,8008,ATS,B,12
12,test,2,C,haborder.png,1,m,Wed Apr 23 2025 15:16:48 GMT-0500 (Central Daylight Time),597338.4000000004,CFD-WM-011-006-HC.jpg,1500,solid,I,m,984,11,3,36619.5,560718.9000000004,8008,ATS,B,13
13,test,2,C,haborder.png,1,z,Wed Apr 23 2025 15:16:48 GMT-0500 (Central Daylight Time),599753.5,CFD-BF-051-043-A.jpg,1400,solid,I,z,989,7,3,39034.59999999963,560718.9000000004,8008,ATS,B,14
14,test,2,C,mfborder.png,1,z,Wed Apr 23 2025 15:16:48 GMT-0500 (Central Daylight Time),602787.2000000002,CFD-WF-011-006-HC.jpg,1700,dash,I,z,1302,1,3,42068.299999999814,560718.9000000004,8008,ATS,B,15
15,test,2,C,mfborder.png,1,m,Wed Apr 23 2025 15:16:48 GMT-0500 (Central Daylight Time),604969.0,CFD-BM-015-017-HC.jpg,1000,dash,I,m,1158,4,3,44250.09999999963,560718.9000000004,8008,ATS,B,16
16,test,2,C,mfborder.png,1,m,Wed Apr 23 2025 15:16:48 GMT-0500 (Central Daylight Time),607501.2000000002,CFD-WM-009-009-A.jpg,1200,dash,I,m,1310,6,3,46782.299999999814,560718.9000000004,8008,ATS,B,17
16,test,2,C,haborder.png,0,z,Wed Apr 23 2025 15:16:48 GMT-0500 (Central Daylight Time),610733.5999999996,CFD-WF-026-008-A.jpg,1700,solid,I,None,1514,9,3,50014.699999999255,560718.9000000004,8008,ATS,B,18
17,test,2,C,haborder.png,1,z,Wed Apr 23 2025 15:16:48 GMT-0500 (Central Daylight Time),613416.0,CFD-BF-051-043-A.jpg,1400,solid,I,z,1251,7,3,52697.09999999963,560718.9000000004,8008,ATS,B,19
18,test,2,C,mfborder.png,1,m,Wed Apr 23 2025 15:16:48 GMT-0500 (Central Daylight Time),616864.7999999998,CFD-BM-037-041-A.jpg,2000,dash,I,m,1423,5,3,56145.89999999944,560718.9000000004,8008,ATS,B,20
19,test,2,C,mfborder.png,1,z,Wed Apr 23 2025 15:16:48 GMT-0500 (Central Daylight Time),619530.5999999996,CFD-BF-035-007-HC.jpg,1500,dash,I,z,1134,3,3,58811.699999999255,560718.9000000004,8008,ATS,B,21
20,test,2,C,mfborder.png,1,m,Wed Apr 23 2025 15:16:48 GMT-0500 (Central Daylight Time),621846.5,CFD-WM-009-009-A.jpg,1200,dash,I,m,1092,6,3,61127.59999999963,560718.9000000004,8008,ATS,B,22
21,test,2,C,mfborder.png,1,z,Wed Apr 23 2025 15:16:48 GMT-0500 (Central Daylight Time),624563.2000000002,CFD-WF-013-015-A.jpg,1600,dash,I,z,1077,2,3,63844.299999999814,560718.9000000004,8008,ATS,B,23
22,test,2,C,mfborder.png,1,z,Wed Apr 23 2025 15:16:48 GMT-0500 (Central Daylight Time),627161.5,CFD-WF-013-015-A.jpg,1600,dash,I,z,973,2,3,66442.59999999963,560718.9000000004,8008,ATS,B,24
1,test,3,C,haborder.png,1,z,Wed Apr 23 2025 15:16:48 GMT-0500 (Central Daylight Time),632142.5999999996,CFD-WM-009-009-A.jpg,1400,solid,I,z,1151,7,3,2581.0,629561.5999999996,8008,ATS,B,1
2,test,3,C,haborder.png,1,z,Wed Apr 23 2025 15:16:48 GMT-0500 (Central Daylight Time),635144.9000000004,CFD-BM-037-041-A.jpg,1900,solid,I,z,1077,8,3,5583.300000000745,629561.5999999996,8008,ATS,B,2
3,test,3,C,mfborder.png,1,z,Wed Apr 23 2025 15:16:48 GMT-0500 (Central Daylight Time),638025.0999999996,CFD-BF-027-013-HC.jpg,1700,dash,I,z,1156,1,3,8463.5,629561.5999999996,8008,ATS,B,3
4,test,3,C,haborder.png,1,m,Wed Apr 23 2025 15:16:48 GMT-0500 (Central Daylight Time),640557.0999999996,CFD-WF-027-007-HC.jpg,1500,solid,I,m,1011,11,3,10995.5,629561.5999999996,8008,ATS,B,4
5,test,3,C,haborder.png,1,z,Wed Apr 23 2025 15:16:48 GMT-0500 (Central Daylight Time),643123.5,CFD-WM-009-009-A.jpg,1400,solid,I,z,1133,7,3,13561.900000000373,629561.5999999996,8008,ATS,B,5
6,test,3,C,haborder.png,1,z,Wed Apr 23 2025 15:16:48 GMT-0500 (Central Daylight Time),645938.5,CFD-BM-041-048-A.jpg,1700,solid,I,z,1084,9,3,16376.900000000373,629561.5999999996,8008,ATS,B,6
7,test,3,C,mfborder.png,1,z,Wed Apr 23 2025 15:16:48 GMT-0500 (Central Daylight Time),648787.7000000002,CFD-WF-026-008-A.jpg,1500,dash,I,z,1316,3,3,19226.10000000056,629561.5999999996,8008,ATS,B,7
8,test,3,C,haborder.png,1,z,Wed Apr 23 2025 15:16:48 GMT-0500 (Central Daylight Time),651787.7999999998,CFD-BM-037-041-A.jpg,1900,solid,I,z,1072,8,3,22226.200000000186,629561.5999999996,8008,ATS,B,8
9,test,3,C,mfborder.png,1,m,Wed Apr 23 2025 15:16:48 GMT-0500 (Central Daylight Time),654051.7000000002,CFD-WM-012-007-HC.jpg,1000,dash,I,m,1229,4,3,24490.10000000056,629561.5999999996,8008,ATS,B,9
10,test,3,C,mfborder.png,1,z,Wed Apr 23 2025 15:16:48 GMT-0500 (Central Daylight Time),656968.5999999996,CFD-BF-051-043-A.jpg,1600,dash,I,z,1284,2,3,27407.0,629561.5999999996,8008,ATS,B,10
11,test,3,C,mfborder.png,1,z,Wed Apr 23 2025 15:16:48 GMT-0500 (Central Daylight Time),659600.7000000002,CFD-WF-026-008-A.jpg,1500,dash,I,z,1108,3,3,30039.10000000056,629561.5999999996,8008,ATS,B,11
12,test,3,C,haborder.png,1,z,Wed Apr 23 2025 15:16:48 GMT-0500 (Central Daylight Time),662417.0,CFD-BM-041-048-A.jpg,1700,solid,I,z,1084,9,3,32855.40000000037,629561.5999999996,8008,ATS,B,12
13,test,3,C,mfborder.png,1,m,Wed Apr 23 2025 15:16:48 GMT-0500 (Central Daylight Time),664748.7000000002,CFD-BM-020-024-HC.jpg,1200,dash,I,m,1110,6,3,35187.10000000056,629561.5999999996,8008,ATS,B,13
13,test,3,C,haborder.png,0,m,Wed Apr 23 2025 15:16:48 GMT-0500 (Central Daylight Time),667764.2999999998,CFD-BF-035-007-HC.jpg,1600,solid,I,z,1393,10,3,38202.700000000186,629561.5999999996,8008,ATS,B,14
14,test,3,C,mfborder.png,1,m,Wed Apr 23 2025 15:16:48 GMT-0500 (Central Daylight Time),670348.4000000004,CFD-BM-020-024-HC.jpg,1200,dash,I,m,1365,6,3,40786.800000000745,629561.5999999996,8008,ATS,B,15
14,test,3,C,haborder.png,0,m,Wed Apr 23 2025 15:16:48 GMT-0500 (Central Daylight Time),672864.2999999998,CFD-WF-011-006-HC.jpg,1000,solid,I,None,1501,12,3,43302.700000000186,629561.5999999996,8008,ATS,B,16
15,test,3,C,mfborder.png,1,z,Wed Apr 23 2025 15:16:48 GMT-0500 (Central Daylight Time),675912.2999999998,CFD-BF-027-013-HC.jpg,1700,dash,I,z,1316,1,3,46350.700000000186,629561.5999999996,8008,ATS,B,17
16,test,3,C,mfborder.png,1,m,Wed Apr 23 2025 15:16:48 GMT-0500 (Central Daylight Time),679013.7999999998,CFD-WM-037-060-A.jpg,2000,dash,I,m,1080,5,3,49452.200000000186,629561.5999999996,8008,ATS,B,18
16,test,3,C,haborder.png,0,m,Wed Apr 23 2025 15:16:48 GMT-0500 (Central Daylight Time),682045.0999999996,CFD-WF-027-007-HC.jpg,1500,solid,I,None,1516,11,3,52483.5,629561.5999999996,8008,ATS,B,19
17,test,3,C,mfborder.png,1,m,Wed Apr 23 2025 15:16:48 GMT-0500 (Central Daylight Time),684460.0,CFD-WM-012-007-HC.jpg,1000,dash,I,m,1381,4,3,54898.40000000037,629561.5999999996,8008,ATS,B,20
17,test,3,C,haborder.png,0,m,Wed Apr 23 2025 15:16:48 GMT-0500 (Central Daylight Time),687593.5999999996,CFD-BF-035-007-HC.jpg,1600,solid,I,None,1516,10,3,58032.0,629561.5999999996,8008,ATS,B,21
18,test,3,C,mfborder.png,1,m,Wed Apr 23 2025 15:16:48 GMT-0500 (Central Daylight Time),690874.5999999996,CFD-WM-037-060-A.jpg,2000,dash,I,m,1256,5,3,61313.0,629561.5999999996,8008,ATS,B,22
19,test,3,C,mfborder.png,1,z,Wed Apr 23 2025 15:16:48 GMT-0500 (Central Daylight Time),693706.7000000002,CFD-BF-051-043-A.jpg,1600,dash,I,z,1205,2,3,64145.10000000056,629561.5999999996,8008,ATS,B,23
20,test,3,C,haborder.png,1,m,Wed Apr 23 2025 15:16:48 GMT-0500 (Central Daylight Time),695773.2000000002,CFD-WF-011-006-HC.jpg,1000,solid,I,m,1045,12,3,66211.60000000056,629561.5999999996,8008,ATS,B,24
1,test,4,C,haborder.png,1,m,Wed Apr 23 2025 15:16:48 GMT-0500 (Central Daylight Time),699971.5,CFD-BM-020-024-HC.jpg,1600,solid,I,m,1015,10,3,2649.7999999998137,697321.7000000002,8008,ATS,B,1
2,test,4,C,haborder.png,1,m,Wed Apr 23 2025 15:16:48 GMT-0500 (Central Daylight Time),702621.2999999998,CFD-BM-020-024-HC.jpg,1600,solid,I,m,1019,10,3,5299.5999999996275,697321.7000000002,8008,ATS,B,2
3,test,4,C,mfborder.png,1,z,Wed Apr 23 2025 15:16:48 GMT-0500 (Central Daylight Time),705537.2999999998,CFD-BF-035-007-HC.jpg,1500,dash,I,z,1383,3,3,8215.599999999627,697321.7000000002,8008,ATS,B,3
4,test,4,C,haborder.png,1,z,Wed Apr 23 2025 15:16:48 GMT-0500 (Central Daylight Time),708651.5,CFD-WF-026-008-A.jpg,1700,solid,I,z,1395,9,3,11329.799999999814,697321.7000000002,8008,ATS,B,4
4,test,4,C,mfborder.png,0,m,Wed Apr 23 2025 15:16:48 GMT-0500 (Central Daylight Time),711068.0,CFD-BM-015-017-HC.jpg,1000,dash,I,z,1398,4,3,13746.299999999814,697321.7000000002,8008,ATS,B,5
5,test,4,C,mfborder.png,1,m,Wed Apr 23 2025 15:16:48 GMT-0500 (Central Daylight Time),714550.4000000004,CFD-BM-037-041-A.jpg,2000,dash,I,m,1451,5,3,17228.700000000186,697321.7000000002,8008,ATS,B,6
6,test,4,C,mfborder.png,1,z,Wed Apr 23 2025 15:16:48 GMT-0500 (Central Daylight Time),717282.4000000004,CFD-BF-035-007-HC.jpg,1500,dash,I,z,1200,3,3,19960.700000000186,697321.7000000002,8008,ATS,B,7
7,test,4,C,haborder.png,1,z,Wed Apr 23 2025 15:16:48 GMT-0500 (Central Daylight Time),720231.7000000002,CFD-WF-026-008-A.jpg,1700,solid,I,z,1209,9,3,22910.0,697321.7000000002,8008,ATS,B,8
8,test,4,C,haborder.png,1,m,Wed Apr 23 2025 15:16:48 GMT-0500 (Central Daylight Time),722480.7000000002,CFD-WM-011-006-HC.jpg,1000,solid,I,m,1226,12,3,25159.0,697321.7000000002,8008,ATS,B,9
9,test,4,C,haborder.png,1,m,Wed Apr 23 2025 15:16:48 GMT-0500 (Central Daylight Time),724997.2000000002,CFD-WM-011-006-HC.jpg,1500,solid,I,m,986,11,3,27675.5,697321.7000000002,8008,ATS,B,10
10,test,4,C,mfborder.png,1,z,Wed Apr 23 2025 15:16:48 GMT-0500 (Central Daylight Time),727678.7000000002,CFD-WF-013-015-A.jpg,1600,dash,I,z,1051,2,3,30357.0,697321.7000000002,8008,ATS,B,11
11,test,4,C,haborder.png,1,z,Wed Apr 23 2025 15:16:48 GMT-0500 (Central Daylight Time),730929.0999999996,CFD-BF-050-012-A.jpg,1900,solid,I,z,1317,8,3,33607.39999999944,697321.7000000002,8008,ATS,B,12
12,test,4,C,mfborder.png,1,z,Wed Apr 23 2025 15:16:48 GMT-0500 (Central Daylight Time),733926.2000000002,CFD-WF-011-006-HC.jpg,1700,dash,I,z,1277,1,3,36604.5,697321.7000000002,8008,ATS,B,13
13,test,4,C,mfborder.png,1,z,Wed Apr 23 2025 15:16:48 GMT-0500 (Central Daylight Time),737109.5,CFD-WF-011-006-HC.jpg,1700,dash,I,z,1452,1,3,39787.799999999814,697321.7000000002,8008,ATS,B,14
14,test,4,C,haborder.png,1,z,Wed Apr 23 2025 15:16:48 GMT-0500 (Central Daylight Time),740225.7999999998,CFD-BF-050-012-A.jpg,1900,solid,I,z,1182,8,3,42904.09999999963,697321.7000000002,8008,ATS,B,15
15,test,4,C,haborder.png,1,z,Wed Apr 23 2025 15:16:48 GMT-0500 (Central Daylight Time),742907.9000000004,CFD-BF-051-043-A.jpg,1400,solid,I,z,1247,7,3,45586.200000000186,697321.7000000002,8008,ATS,B,16
16,test,4,C,mfborder.png,1,m,Wed Apr 23 2025 15:16:48 GMT-0500 (Central Daylight Time),745158.0,CFD-WM-009-009-A.jpg,1200,dash,I,m,1020,6,3,47836.299999999814,697321.7000000002,8008,ATS,B,17
16,test,4,C,mfborder.png,0,m,Wed Apr 23 2025 15:16:48 GMT-0500 (Central Daylight Time),748689.2999999998,CFD-BM-037-041-A.jpg,2000,dash,I,None,1515,5,3,51367.59999999963,697321.7000000002,8008,ATS,B,18
16,test,4,C,haborder.png,0,m,Wed Apr 23 2025 15:16:48 GMT-0500 (Central Daylight Time),751721.7999999998,CFD-WM-011-006-HC.jpg,1500,solid,I,None,1516,11,3,54400.09999999963,697321.7000000002,8008,ATS,B,19
17,test,4,C,haborder.png,1,m,Wed Apr 23 2025 15:16:48 GMT-0500 (Central Daylight Time),753421.0,CFD-WM-011-006-HC.jpg,1000,solid,I,m,670,12,3,56099.299999999814,697321.7000000002,8008,ATS,B,20
18,test,4,C,mfborder.png,1,z,Wed Apr 23 2025 15:16:48 GMT-0500 (Central Daylight Time),756187.5999999996,CFD-WF-013-015-A.jpg,1600,dash,I,z,1133,2,3,58865.89999999944,697321.7000000002,8008,ATS,B,21
19,test,4,C,mfborder.png,1,m,Wed Apr 23 2025 15:16:48 GMT-0500 (Central Daylight Time),758137.0999999996,CFD-BM-015-017-HC.jpg,1000,dash,I,m,923,4,3,60815.39999999944,697321.7000000002,8008,ATS,B,22
20,test,4,C,haborder.png,1,z,Wed Apr 23 2025 15:16:48 GMT-0500 (Central Daylight Time),760616.7999999998,CFD-BF-051-043-A.jpg,1400,solid,I,z,1054,7,3,63295.09999999963,697321.7000000002,8008,ATS,B,23
21,test,4,C,mfborder.png,1,m,Wed Apr 23 2025 15:16:48 GMT-0500 (Central Daylight Time),762884.7999999998,CFD-WM-009-009-A.jpg,1200,dash,I,m,1036,6,3,65563.09999999963,697321.7000000002,8008,ATS,B,24
