acc_sum,block,block_c,block_cond,con_img,correct,correct_response,datetime,endtime,face,jitter,line,project,response,response_time,row_sel,session_number,start_end,starttime,subject_id,task,task_vers,trial
1,prac,1,A,haborder.png,1,m,Thu Apr 17 2025 17:05:00 GMT-0500 (Central Daylight Time),47686.19999998808,CFD-BM-020-024-HC.jpg,1500,solid,O,m,1244,3,1,3565.699999988079,44120.5,7130,ATS,B,1
2,prac,1,A,haborder.png,1,m,Thu Apr 17 2025 17:05:00 GMT-0500 (Central Daylight Time),51984.80000001192,CFD-BF-035-007-HC.jpg,2000,solid,O,m,1475,5,1,7864.300000011921,44120.5,7130,ATS,B,2
3,prac,1,A,haborder.png,1,m,Thu Apr 17 2025 17:05:00 GMT-0500 (Central Daylight Time),55233.69999998808,CFD-WM-011-006-HC.jpg,1400,solid,O,m,1024,7,1,11113.199999988079,44120.5,7130,ATS,B,3
3,prac,1,A,haborder.png,0,m,Thu Apr 17 2025 17:05:00 GMT-0500 (Central Daylight Time),59264.69999998808,CFD-BM-015-017-HC.jpg,1700,solid,O,None,1513,1,1,15144.199999988079,44120.5,7130,ATS,B,4
4,prac,1,A,haborder.png,1,z,Thu Apr 17 2025 17:05:00 GMT-0500 (Central Daylight Time),62631.30000001192,CFD-WF-026-008-A.jpg,1600,solid,O,z,968,10,1,18510.80000001192,44120.5,7130,ATS,B,5
5,prac,1,A,haborder.png,1,m,Thu Apr 17 2025 17:05:00 GMT-0500 (Central Daylight Time),65896.69999998808,CFD-WF-011-006-HC.jpg,1500,solid,O,m,942,11,1,21776.19999998808,44120.5,7130,ATS,B,6
6,prac,1,A,haborder.png,1,m,Thu Apr 17 2025 17:05:00 GMT-0500 (Central Daylight Time),69495.59999996424,CFD-WM-012-007-HC.jpg,1700,solid,O,m,1076,9,1,25375.099999964237,44120.5,7130,ATS,B,7
7,prac,1,A,haborder.png,1,z,Thu Apr 17 2025 17:05:00 GMT-0500 (Central Daylight Time),72027.19999998808,CFD-BF-051-043-A.jpg,1000,solid,O,z,705,4,1,27906.69999998808,44120.5,7130,ATS,B,8
8,prac,1,A,haborder.png,1,z,Thu Apr 17 2025 17:05:00 GMT-0500 (Central Daylight Time),75410.30000001192,CFD-WM-009-009-A.jpg,1900,solid,O,z,698,8,1,31289.80000001192,44120.5,7130,ATS,B,9
9,prac,1,A,haborder.png,1,z,Thu Apr 17 2025 17:05:00 GMT-0500 (Central Daylight Time),78859.09999996424,CFD-BM-037-041-A.jpg,1600,solid,O,z,1022,2,1,34738.59999996424,44120.5,7130,ATS,B,10
10,prac,1,A,haborder.png,1,z,Thu Apr 17 2025 17:05:00 GMT-0500 (Central Daylight Time),81758.5,CFD-BF-050-012-A.jpg,1200,solid,O,z,878,6,1,37638.0,44120.5,7130,ATS,B,11
11,prac,1,A,haborder.png,1,z,Thu Apr 17 2025 17:05:00 GMT-0500 (Central Daylight Time),84440.5,CFD-WF-013-015-A.jpg,1000,solid,O,z,859,12,1,40320.0,44120.5,7130,ATS,B,12
0,prac,1,B,mfborder.png,0,z,Thu Apr 17 2025 17:05:00 GMT-0500 (Central Daylight Time),107816.19999998808,CFD-WF-027-007-HC.jpg,1900,dash,O,None,1514,8,1,4199.399999976158,103616.80000001192,7130,ATS,B,1
1,prac,1,B,mfborder.png,1,m,Thu Apr 17 2025 17:05:00 GMT-0500 (Central Daylight Time),111348.30000001192,CFD-WM-009-009-A.jpg,1700,dash,O,m,1012,9,1,7731.5,103616.80000001192,7130,ATS,B,2
2,prac,1,B,mfborder.png,1,z,Thu Apr 17 2025 17:05:00 GMT-0500 (Central Daylight Time),114730.5,CFD-BF-035-007-HC.jpg,1400,dash,O,z,1164,7,1,11113.699999988079,103616.80000001192,7130,ATS,B,3
3,prac,1,B,mfborder.png,1,z,Thu Apr 17 2025 17:05:00 GMT-0500 (Central Daylight Time),118512.19999998808,CFD-WF-026-008-A.jpg,1500,dash,O,z,1450,11,1,14895.399999976158,103616.80000001192,7130,ATS,B,4
4,prac,1,B,mfborder.png,1,m,Thu Apr 17 2025 17:05:00 GMT-0500 (Central Daylight Time),122544.69999998808,CFD-BM-037-041-A.jpg,2000,dash,O,m,1216,5,1,18927.899999976158,103616.80000001192,7130,ATS,B,5
4,prac,1,B,mfborder.png,0,m,Thu Apr 17 2025 17:05:00 GMT-0500 (Central Daylight Time),126577.0,CFD-BM-020-024-HC.jpg,1700,dash,O,None,1514,1,1,22960.19999998808,103616.80000001192,7130,ATS,B,6
5,prac,1,B,mfborder.png,1,z,Thu Apr 17 2025 17:05:00 GMT-0500 (Central Daylight Time),130141.5,CFD-BF-027-013-HC.jpg,1500,dash,O,z,1250,3,1,26524.69999998808,103616.80000001192,7130,ATS,B,7
6,prac,1,B,mfborder.png,1,m,Thu Apr 17 2025 17:05:00 GMT-0500 (Central Daylight Time),133724.5,CFD-WM-012-007-HC.jpg,1600,dash,O,m,1170,10,1,30107.69999998808,103616.80000001192,7130,ATS,B,8
7,prac,1,B,mfborder.png,1,z,Thu Apr 17 2025 17:05:00 GMT-0500 (Central Daylight Time),136807.0,CFD-WF-011-006-HC.jpg,1000,dash,O,z,1276,12,1,33190.19999998808,103616.80000001192,7130,ATS,B,9
8,prac,1,B,mfborder.png,1,m,Thu Apr 17 2025 17:05:00 GMT-0500 (Central Daylight Time),140488.69999998808,CFD-BM-041-048-A.jpg,1600,dash,O,m,1266,2,1,36871.89999997616,103616.80000001192,7130,ATS,B,10
8,prac,1,B,mfborder.png,0,m,Thu Apr 17 2025 17:05:00 GMT-0500 (Central Daylight Time),144020.80000001192,CFD-WM-037-060-A.jpg,1200,dash,O,None,1514,6,1,40404.0,103616.80000001192,7130,ATS,B,11
8,prac,1,B,mfborder.png,0,z,Thu Apr 17 2025 17:05:00 GMT-0500 (Central Daylight Time),147186.39999997616,CFD-BF-051-043-A.jpg,1000,dash,O,m,1339,4,1,43569.59999996424,103616.80000001192,7130,ATS,B,12
1,test,1,A,haborder.png,1,m,Thu Apr 17 2025 17:05:00 GMT-0500 (Central Daylight Time),173728.09999996424,CFD-BF-035-007-HC.jpg,2000,solid,O,m,1386,5,1,3432.099999964237,170296.0,7130,ATS,B,1
2,test,1,A,haborder.png,1,m,Thu Apr 17 2025 17:05:00 GMT-0500 (Central Daylight Time),176560.59999996424,CFD-WM-012-007-HC.jpg,1700,solid,O,m,1074,9,1,6264.599999964237,170296.0,7130,ATS,B,2
3,test,1,A,haborder.png,1,m,Thu Apr 17 2025 17:05:00 GMT-0500 (Central Daylight Time),178992.89999997616,CFD-BM-020-024-HC.jpg,1500,solid,O,m,877,3,1,8696.899999976158,170296.0,7130,ATS,B,3
4,test,1,A,haborder.png,1,z,Thu Apr 17 2025 17:05:00 GMT-0500 (Central Daylight Time),180875.59999996424,CFD-BF-051-043-A.jpg,1000,solid,O,z,840,4,1,10579.599999964237,170296.0,7130,ATS,B,4
5,test,1,A,haborder.png,1,z,Thu Apr 17 2025 17:05:00 GMT-0500 (Central Daylight Time),183258.19999998808,CFD-WF-026-008-A.jpg,1600,solid,O,z,716,10,1,12962.199999988079,170296.0,7130,ATS,B,5
6,test,1,A,haborder.png,1,z,Thu Apr 17 2025 17:05:00 GMT-0500 (Central Daylight Time),185206.89999997616,CFD-WF-013-015-A.jpg,1000,solid,O,z,910,12,1,14910.899999976158,170296.0,7130,ATS,B,6
7,test,1,A,haborder.png,1,m,Thu Apr 17 2025 17:05:00 GMT-0500 (Central Daylight Time),187840.09999996424,CFD-WM-011-006-HC.jpg,1400,solid,O,m,1194,7,1,17544.099999964237,170296.0,7130,ATS,B,7
7,test,1,A,haborder.png,0,m,Thu Apr 17 2025 17:05:00 GMT-0500 (Central Daylight Time),191089.39999997616,CFD-BM-015-017-HC.jpg,1700,solid,O,None,1514,1,1,20793.399999976158,170296.0,7130,ATS,B,8
8,test,1,A,haborder.png,1,z,Thu Apr 17 2025 17:05:00 GMT-0500 (Central Daylight Time),192954.0,CFD-WF-013-015-A.jpg,1000,solid,O,z,823,12,1,22658.0,170296.0,7130,ATS,B,9
9,test,1,A,haborder.png,1,m,Thu Apr 17 2025 17:05:00 GMT-0500 (Central Daylight Time),195221.19999998808,CFD-BM-020-024-HC.jpg,1500,solid,O,m,747,3,1,24925.19999998808,170296.0,7130,ATS,B,10
10,test,1,A,haborder.png,1,z,Thu Apr 17 2025 17:05:00 GMT-0500 (Central Daylight Time),197519.69999998808,CFD-BF-050-012-A.jpg,1200,solid,O,z,1052,6,1,27223.69999998808,170296.0,7130,ATS,B,11
11,test,1,A,haborder.png,1,z,Thu Apr 17 2025 17:05:00 GMT-0500 (Central Daylight Time),199735.19999998808,CFD-BF-050-012-A.jpg,1200,solid,O,z,978,6,1,29439.19999998808,170296.0,7130,ATS,B,12
12,test,1,A,haborder.png,1,m,Thu Apr 17 2025 17:05:00 GMT-0500 (Central Daylight Time),202268.89999997616,CFD-WM-012-007-HC.jpg,1700,solid,O,m,814,9,1,31972.899999976158,170296.0,7130,ATS,B,13
13,test,1,A,haborder.png,1,m,Thu Apr 17 2025 17:05:00 GMT-0500 (Central Daylight Time),204951.19999998808,CFD-WF-011-006-HC.jpg,1500,solid,O,m,1128,11,1,34655.19999998808,170296.0,7130,ATS,B,14
13,test,1,A,haborder.png,0,z,Thu Apr 17 2025 17:05:00 GMT-0500 (Central Daylight Time),208100.0,CFD-BM-037-041-A.jpg,1600,solid,O,None,1513,2,1,37804.0,170296.0,7130,ATS,B,15
14,test,1,A,haborder.png,1,m,Thu Apr 17 2025 17:05:00 GMT-0500 (Central Daylight Time),210482.69999998808,CFD-WF-011-006-HC.jpg,1500,solid,O,m,804,11,1,40186.69999998808,170296.0,7130,ATS,B,16
14,test,1,A,haborder.png,0,m,Thu Apr 17 2025 17:05:00 GMT-0500 (Central Daylight Time),213748.30000001192,CFD-BM-015-017-HC.jpg,1700,solid,O,None,1514,1,1,43452.30000001192,170296.0,7130,ATS,B,17
15,test,1,A,haborder.png,1,z,Thu Apr 17 2025 17:05:00 GMT-0500 (Central Daylight Time),215497.59999996424,CFD-BF-051-043-A.jpg,1000,solid,O,z,709,4,1,45201.59999996424,170296.0,7130,ATS,B,18
16,test,1,A,haborder.png,1,z,Thu Apr 17 2025 17:05:00 GMT-0500 (Central Daylight Time),218147.0,CFD-BM-037-041-A.jpg,1600,solid,O,z,983,2,1,47851.0,170296.0,7130,ATS,B,19
17,test,1,A,haborder.png,1,z,Thu Apr 17 2025 17:05:00 GMT-0500 (Central Daylight Time),221112.39999997616,CFD-WM-009-009-A.jpg,1900,solid,O,z,1019,8,1,50816.39999997616,170296.0,7130,ATS,B,20
18,test,1,A,haborder.png,1,z,Thu Apr 17 2025 17:05:00 GMT-0500 (Central Daylight Time),223877.89999997616,CFD-WF-026-008-A.jpg,1600,solid,O,z,1112,10,1,53581.89999997616,170296.0,7130,ATS,B,21
19,test,1,A,haborder.png,1,z,Thu Apr 17 2025 17:05:00 GMT-0500 (Central Daylight Time),226777.0,CFD-WM-009-009-A.jpg,1900,solid,O,z,959,8,1,56481.0,170296.0,7130,ATS,B,22
20,test,1,A,haborder.png,1,m,Thu Apr 17 2025 17:05:00 GMT-0500 (Central Daylight Time),229476.5,CFD-WM-011-006-HC.jpg,1400,solid,O,m,1248,7,1,59180.5,170296.0,7130,ATS,B,23
21,test,1,A,haborder.png,1,m,Thu Apr 17 2025 17:05:00 GMT-0500 (Central Daylight Time),232592.0,CFD-BF-035-007-HC.jpg,2000,solid,O,m,1069,5,1,62296.0,170296.0,7130,ATS,B,24
1,test,1,B,mfborder.png,1,m,Thu Apr 17 2025 17:05:00 GMT-0500 (Central Daylight Time),243188.59999996424,CFD-BM-037-041-A.jpg,2000,dash,O,m,906,5,1,2948.899999976158,240239.69999998808,7130,ATS,B,1
2,test,1,B,mfborder.png,1,m,Thu Apr 17 2025 17:05:00 GMT-0500 (Central Daylight Time),245537.5,CFD-BM-020-024-HC.jpg,1700,dash,O,m,574,1,1,5297.800000011921,240239.69999998808,7130,ATS,B,2
3,test,1,B,mfborder.png,1,m,Thu Apr 17 2025 17:05:00 GMT-0500 (Central Daylight Time),248186.69999998808,CFD-WM-009-009-A.jpg,1700,dash,O,m,899,9,1,7947.0,240239.69999998808,7130,ATS,B,3
4,test,1,B,mfborder.png,1,z,Thu Apr 17 2025 17:05:00 GMT-0500 (Central Daylight Time),250552.0,CFD-WF-011-006-HC.jpg,1000,dash,O,z,1344,12,1,10312.300000011921,240239.69999998808,7130,ATS,B,4
5,test,1,B,mfborder.png,1,z,Thu Apr 17 2025 17:05:00 GMT-0500 (Central Daylight Time),252518.59999996424,CFD-BF-051-043-A.jpg,1000,dash,O,z,937,4,1,12278.899999976158,240239.69999998808,7130,ATS,B,5
6,test,1,B,mfborder.png,1,m,Thu Apr 17 2025 17:05:00 GMT-0500 (Central Daylight Time),255201.19999998808,CFD-WM-009-009-A.jpg,1700,dash,O,m,942,9,1,14961.5,240239.69999998808,7130,ATS,B,6
7,test,1,B,mfborder.png,1,z,Thu Apr 17 2025 17:05:00 GMT-0500 (Central Daylight Time),258033.39999997616,CFD-WF-027-007-HC.jpg,1900,dash,O,z,884,8,1,17793.69999998808,240239.69999998808,7130,ATS,B,7
8,test,1,B,mfborder.png,1,m,Thu Apr 17 2025 17:05:00 GMT-0500 (Central Daylight Time),260849.59999996424,CFD-BM-041-048-A.jpg,1600,dash,O,m,1151,2,1,20609.899999976158,240239.69999998808,7130,ATS,B,8
9,test,1,B,mfborder.png,1,z,Thu Apr 17 2025 17:05:00 GMT-0500 (Central Daylight Time),263798.6999999881,CFD-WF-027-007-HC.jpg,1900,dash,O,z,1003,8,1,23559.0,240239.69999998808,7130,ATS,B,9
9,test,1,B,mfborder.png,0,z,Thu Apr 17 2025 17:05:00 GMT-0500 (Central Daylight Time),266747.6999999881,CFD-BF-035-007-HC.jpg,1400,dash,O,None,1514,7,1,26508.0,240239.69999998808,7130,ATS,B,10
10,test,1,B,mfborder.png,1,m,Thu Apr 17 2025 17:05:00 GMT-0500 (Central Daylight Time),269313.3000000119,CFD-BM-020-024-HC.jpg,1700,dash,O,m,826,1,1,29073.600000023842,240239.69999998808,7130,ATS,B,11
11,test,1,B,mfborder.png,1,z,Thu Apr 17 2025 17:05:00 GMT-0500 (Central Daylight Time),271112.3000000119,CFD-BF-051-043-A.jpg,1000,dash,O,z,760,4,1,30872.600000023842,240239.69999998808,7130,ATS,B,12
12,test,1,B,mfborder.png,1,m,Thu Apr 17 2025 17:05:00 GMT-0500 (Central Daylight Time),273661.1999999881,CFD-WM-012-007-HC.jpg,1600,dash,O,m,896,10,1,33421.5,240239.69999998808,7130,ATS,B,13
13,test,1,B,mfborder.png,1,m,Thu Apr 17 2025 17:05:00 GMT-0500 (Central Daylight Time),276144.39999997616,CFD-WM-037-060-A.jpg,1200,dash,O,m,1243,6,1,35904.69999998808,240239.69999998808,7130,ATS,B,14
14,test,1,B,mfborder.png,1,z,Thu Apr 17 2025 17:05:00 GMT-0500 (Central Daylight Time),277910.3000000119,CFD-WF-011-006-HC.jpg,1000,dash,O,z,712,12,1,37670.60000002384,240239.69999998808,7130,ATS,B,15
15,test,1,B,mfborder.png,1,m,Thu Apr 17 2025 17:05:00 GMT-0500 (Central Daylight Time),280326.39999997616,CFD-BM-041-048-A.jpg,1600,dash,O,m,770,2,1,40086.69999998808,240239.69999998808,7130,ATS,B,16
16,test,1,B,mfborder.png,1,m,Thu Apr 17 2025 17:05:00 GMT-0500 (Central Daylight Time),282392.39999997616,CFD-WM-037-060-A.jpg,1200,dash,O,m,818,6,1,42152.69999998808,240239.69999998808,7130,ATS,B,17
17,test,1,B,mfborder.png,1,m,Thu Apr 17 2025 17:05:00 GMT-0500 (Central Daylight Time),285074.89999997616,CFD-WM-012-007-HC.jpg,1600,dash,O,m,1016,10,1,44835.19999998808,240239.69999998808,7130,ATS,B,18
18,test,1,B,mfborder.png,1,z,Thu Apr 17 2025 17:05:00 GMT-0500 (Central Daylight Time),287125.0,CFD-WF-026-008-A.jpg,1500,dash,O,z,514,11,1,46885.30000001192,240239.69999998808,7130,ATS,B,19
18,test,1,B,mfborder.png,0,z,Thu Apr 17 2025 17:05:00 GMT-0500 (Central Daylight Time),290173.09999996424,CFD-BF-027-013-HC.jpg,1500,dash,O,None,1514,3,1,49933.39999997616,240239.69999998808,7130,ATS,B,20
18,test,1,B,mfborder.png,0,z,Thu Apr 17 2025 17:05:00 GMT-0500 (Central Daylight Time),292356.0,CFD-BF-035-007-HC.jpg,1400,dash,O,m,732,7,1,52116.30000001192,240239.69999998808,7130,ATS,B,21
19,test,1,B,mfborder.png,1,m,Thu Apr 17 2025 17:05:00 GMT-0500 (Central Daylight Time),295188.1999999881,CFD-BM-037-041-A.jpg,2000,dash,O,m,790,5,1,54948.5,240239.69999998808,7130,ATS,B,22
20,test,1,B,mfborder.png,1,z,Thu Apr 17 2025 17:05:00 GMT-0500 (Central Daylight Time),297604.0,CFD-BF-027-013-HC.jpg,1500,dash,O,z,848,3,1,57364.30000001192,240239.69999998808,7130,ATS,B,23
21,test,1,B,mfborder.png,1,z,Thu Apr 17 2025 17:05:00 GMT-0500 (Central Daylight Time),300069.5,CFD-WF-026-008-A.jpg,1500,dash,O,z,930,11,1,59829.80000001192,240239.69999998808,7130,ATS,B,24
1,10,1,C,haborder.png,1,m,Thu Apr 17 2025 17:05:00 GMT-0500 (Central Daylight Time),333309.1999999881,CFD-BM-020-024-HC.jpg,1500,solid,O,m,1454,prac,1,3782.300000011921,329526.89999997616,7130,ATS,B,1
1,8,1,C,haborder.png,0,z,Thu Apr 17 2025 17:05:00 GMT-0500 (Central Daylight Time),337324.09999996424,CFD-BF-050-012-A.jpg,1700,solid,O,None,1513,prac,1,7797.199999988079,329526.89999997616,7130,ATS,B,2
2,3,1,C,mfborder.png,1,z,Thu Apr 17 2025 17:05:00 GMT-0500 (Central Daylight Time),340041.59999996424,CFD-BF-035-007-HC.jpg,1000,dash,O,z,892,prac,1,10514.699999988079,329526.89999997616,7130,ATS,B,3
3,12,1,C,haborder.png,1,m,Thu Apr 17 2025 17:05:00 GMT-0500 (Central Daylight Time),343355.59999996424,CFD-WM-011-006-HC.jpg,1400,solid,O,m,1105,prac,1,13828.699999988079,329526.89999997616,7130,ATS,B,4
4,4,1,C,mfborder.png,1,m,Thu Apr 17 2025 17:05:00 GMT-0500 (Central Daylight Time),347237.09999996424,CFD-BM-015-017-HC.jpg,2000,solid,O,m,1054,prac,1,17710.19999998808,329526.89999997616,7130,ATS,B,5
5,7,1,C,haborder.png,1,z,Thu Apr 17 2025 17:05:00 GMT-0500 (Central Daylight Time),351203.39999997616,CFD-BF-051-043-A.jpg,1900,dash,O,z,1265,prac,1,21676.5,329526.89999997616,7130,ATS,B,6
5,2,1,C,mfborder.png,0,z,Thu Apr 17 2025 17:05:00 GMT-0500 (Central Daylight Time),354668.5,CFD-WF-013-015-A.jpg,1500,solid,O,m,1139,prac,1,25141.600000023842,329526.89999997616,7130,ATS,B,7
5,1,1,C,mfborder.png,0,z,Thu Apr 17 2025 17:05:00 GMT-0500 (Central Daylight Time),358267.5,CFD-WF-011-006-HC.jpg,1600,dash,O,m,1180,prac,1,28740.600000023842,329526.89999997616,7130,ATS,B,8
5,5,1,C,mfborder.png,0,m,Thu Apr 17 2025 17:05:00 GMT-0500 (Central Daylight Time),361416.09999996424,CFD-BM-037-041-A.jpg,1200,dash,O,z,1126,prac,1,31889.19999998808,329526.89999997616,7130,ATS,B,9
5,6,1,C,mfborder.png,0,m,Thu Apr 17 2025 17:05:00 GMT-0500 (Central Daylight Time),365431.39999997616,CFD-WM-009-009-A.jpg,1700,solid,O,None,1513,prac,1,35904.5,329526.89999997616,7130,ATS,B,10
6,9,1,C,haborder.png,1,z,Thu Apr 17 2025 17:05:00 GMT-0500 (Central Daylight Time),369179.6999999881,CFD-WF-026-008-A.jpg,1600,dash,O,z,1329,prac,1,39652.80000001192,329526.89999997616,7130,ATS,B,11
7,11,1,C,haborder.png,1,m,Thu Apr 17 2025 17:05:00 GMT-0500 (Central Daylight Time),372029.5,CFD-WM-011-006-HC.jpg,1000,dash,O,m,1037,prac,1,42502.60000002384,329526.89999997616,7130,ATS,B,12
0,7,2,C,haborder.png,0,z,Thu Apr 17 2025 17:05:00 GMT-0500 (Central Daylight Time),386341.59999996424,CFD-BF-051-043-A.jpg,1900,dash,O,None,1513,prac,1,56814.69999998808,329526.89999997616,7130,ATS,B,1
1,8,2,C,haborder.png,1,z,Thu Apr 17 2025 17:05:00 GMT-0500 (Central Daylight Time),389990.39999997616,CFD-BF-050-012-A.jpg,1700,solid,O,z,1120,prac,1,60463.5,329526.89999997616,7130,ATS,B,2
2,1,2,C,mfborder.png,1,z,Thu Apr 17 2025 17:05:00 GMT-0500 (Central Daylight Time),393605.89999997616,CFD-WF-011-006-HC.jpg,1600,dash,O,z,1196,prac,1,64079.0,329526.89999997616,7130,ATS,B,3
3,5,2,C,mfborder.png,1,m,Thu Apr 17 2025 17:05:00 GMT-0500 (Central Daylight Time),396655.0,CFD-BM-037-041-A.jpg,1200,dash,O,m,1044,prac,1,67128.10000002384,329526.89999997616,7130,ATS,B,4
4,2,2,C,mfborder.png,1,z,Thu Apr 17 2025 17:05:00 GMT-0500 (Central Daylight Time),400003.89999997616,CFD-WF-013-015-A.jpg,1500,solid,O,z,1022,prac,1,70477.0,329526.89999997616,7130,ATS,B,5
4,3,2,C,mfborder.png,0,z,Thu Apr 17 2025 17:05:00 GMT-0500 (Central Daylight Time),402854.1999999881,CFD-BF-035-007-HC.jpg,1000,dash,O,m,1036,prac,1,73327.30000001192,329526.89999997616,7130,ATS,B,6
5,9,2,C,haborder.png,1,z,Thu Apr 17 2025 17:05:00 GMT-0500 (Central Daylight Time),406484.6999999881,CFD-WF-026-008-A.jpg,1600,dash,O,z,1232,prac,1,76957.80000001192,329526.89999997616,7130,ATS,B,7
6,10,2,C,haborder.png,1,m,Thu Apr 17 2025 17:05:00 GMT-0500 (Central Daylight Time),409767.5,CFD-BM-020-024-HC.jpg,1500,solid,O,m,960,prac,1,80240.60000002384,329526.89999997616,7130,ATS,B,8
6,6,2,C,mfborder.png,0,m,Thu Apr 17 2025 17:05:00 GMT-0500 (Central Daylight Time),413582.5,CFD-WM-009-009-A.jpg,1700,solid,O,z,1294,prac,1,84055.60000002384,329526.89999997616,7130,ATS,B,9
7,4,2,C,mfborder.png,1,m,Thu Apr 17 2025 17:05:00 GMT-0500 (Central Daylight Time),417498.09999996424,CFD-BM-015-017-HC.jpg,2000,solid,O,m,1108,prac,1,87971.19999998808,329526.89999997616,7130,ATS,B,10
8,11,2,C,haborder.png,1,m,Thu Apr 17 2025 17:05:00 GMT-0500 (Central Daylight Time),420596.3000000119,CFD-WM-011-006-HC.jpg,1000,dash,O,m,1279,prac,1,91069.40000003576,329526.89999997616,7130,ATS,B,11
9,12,2,C,haborder.png,1,m,Thu Apr 17 2025 17:05:00 GMT-0500 (Central Daylight Time),423829.39999997616,CFD-WM-011-006-HC.jpg,1400,solid,O,m,1004,prac,1,94302.5,329526.89999997616,7130,ATS,B,12
1,test,1,C,mfborder.png,1,z,Thu Apr 17 2025 17:05:00 GMT-0500 (Central Daylight Time),442639.89999997616,CFD-BF-027-013-HC.jpg,1700,dash,O,z,1228,1,1,2965.699999988079,439674.1999999881,7130,ATS,B,1
2,test,1,C,haborder.png,1,z,Thu Apr 17 2025 17:05:00 GMT-0500 (Central Daylight Time),445089.1999999881,CFD-WM-009-009-A.jpg,1400,solid,O,z,984,7,1,5415.0,439674.1999999881,7130,ATS,B,2
3,test,1,C,haborder.png,1,m,Thu Apr 17 2025 17:05:00 GMT-0500 (Central Daylight Time),447237.8000000119,CFD-WF-011-006-HC.jpg,1000,solid,O,m,1113,12,1,7563.600000023842,439674.1999999881,7130,ATS,B,3
4,test,1,C,haborder.png,1,m,Thu Apr 17 2025 17:05:00 GMT-0500 (Central Daylight Time),450137.3000000119,CFD-WF-027-007-HC.jpg,1500,solid,O,m,1344,11,1,10463.100000023842,439674.1999999881,7130,ATS,B,4
4,test,1,C,mfborder.png,0,m,Thu Apr 17 2025 17:05:00 GMT-0500 (Central Daylight Time),453519.39999997616,CFD-WM-037-060-A.jpg,2000,dash,O,z,1345,5,1,13845.199999988079,439674.1999999881,7130,ATS,B,5
4,test,1,C,haborder.png,0,m,Thu Apr 17 2025 17:05:00 GMT-0500 (Central Daylight Time),456669.1999999881,CFD-BF-035-007-HC.jpg,1600,solid,O,None,1515,10,1,16995.0,439674.1999999881,7130,ATS,B,6
5,test,1,C,haborder.png,1,z,Thu Apr 17 2025 17:05:00 GMT-0500 (Central Daylight Time),460017.3000000119,CFD-BM-037-041-A.jpg,1900,solid,O,z,1401,8,1,20343.100000023842,439674.1999999881,7130,ATS,B,7
5,test,1,C,haborder.png,0,m,Thu Apr 17 2025 17:05:00 GMT-0500 (Central Daylight Time),463166.1999999881,CFD-BF-035-007-HC.jpg,1600,solid,O,None,1514,10,1,23492.0,439674.1999999881,7130,ATS,B,8
6,test,1,C,haborder.png,1,m,Thu Apr 17 2025 17:05:00 GMT-0500 (Central Daylight Time),465615.59999996424,CFD-WF-027-007-HC.jpg,1500,solid,O,m,912,11,1,25941.399999976158,439674.1999999881,7130,ATS,B,9
6,test,1,C,haborder.png,0,z,Thu Apr 17 2025 17:05:00 GMT-0500 (Central Daylight Time),468447.6999999881,CFD-BM-037-041-A.jpg,1900,solid,O,m,894,8,1,28773.5,439674.1999999881,7130,ATS,B,10
7,test,1,C,mfborder.png,1,z,Thu Apr 17 2025 17:05:00 GMT-0500 (Central Daylight Time),471563.3000000119,CFD-BF-051-043-A.jpg,1600,dash,O,z,1466,2,1,31889.100000023842,439674.1999999881,7130,ATS,B,11
8,test,1,C,mfborder.png,1,z,Thu Apr 17 2025 17:05:00 GMT-0500 (Central Daylight Time),474462.59999996424,CFD-BF-027-013-HC.jpg,1700,dash,O,z,1163,1,1,34788.39999997616,439674.1999999881,7130,ATS,B,12
8,test,1,C,mfborder.png,0,z,Thu Apr 17 2025 17:05:00 GMT-0500 (Central Daylight Time),477511.6999999881,CFD-WF-026-008-A.jpg,1500,dash,O,None,1514,3,1,37837.5,439674.1999999881,7130,ATS,B,13
9,test,1,C,haborder.png,1,z,Thu Apr 17 2025 17:05:00 GMT-0500 (Central Daylight Time),480444.39999997616,CFD-BM-041-048-A.jpg,1700,solid,O,z,1183,9,1,40770.19999998808,439674.1999999881,7130,ATS,B,14
10,test,1,C,haborder.png,1,z,Thu Apr 17 2025 17:05:00 GMT-0500 (Central Daylight Time),483677.1999999881,CFD-BM-041-048-A.jpg,1700,solid,O,z,1498,9,1,44003.0,439674.1999999881,7130,ATS,B,15
11,test,1,C,mfborder.png,1,z,Thu Apr 17 2025 17:05:00 GMT-0500 (Central Daylight Time),486508.6999999881,CFD-WF-026-008-A.jpg,1500,dash,O,z,1292,3,1,46834.5,439674.1999999881,7130,ATS,B,16
11,test,1,C,haborder.png,0,z,Thu Apr 17 2025 17:05:00 GMT-0500 (Central Daylight Time),489057.8000000119,CFD-WM-009-009-A.jpg,1400,solid,O,m,1094,7,1,49383.60000002384,439674.1999999881,7130,ATS,B,17
12,test,1,C,haborder.png,1,m,Thu Apr 17 2025 17:05:00 GMT-0500 (Central Daylight Time),491157.39999997616,CFD-WF-011-006-HC.jpg,1000,solid,O,m,1064,12,1,51483.19999998808,439674.1999999881,7130,ATS,B,18
12,test,1,C,mfborder.png,0,m,Thu Apr 17 2025 17:05:00 GMT-0500 (Central Daylight Time),493856.3000000119,CFD-BM-020-024-HC.jpg,1200,dash,O,z,1432,6,1,54182.10000002384,439674.1999999881,7130,ATS,B,19
13,test,1,C,mfborder.png,1,z,Thu Apr 17 2025 17:05:00 GMT-0500 (Central Daylight Time),496838.39999997616,CFD-BF-051-043-A.jpg,1600,dash,O,z,1346,2,1,57164.19999998808,439674.1999999881,7130,ATS,B,20
14,test,1,C,mfborder.png,1,m,Thu Apr 17 2025 17:05:00 GMT-0500 (Central Daylight Time),500170.8000000119,CFD-WM-037-060-A.jpg,2000,dash,O,m,1283,5,1,60496.60000002384,439674.1999999881,7130,ATS,B,21
15,test,1,C,mfborder.png,1,m,Thu Apr 17 2025 17:05:00 GMT-0500 (Central Daylight Time),502603.39999997616,CFD-BM-020-024-HC.jpg,1200,dash,O,m,1173,6,1,62929.19999998808,439674.1999999881,7130,ATS,B,22
16,test,1,C,mfborder.png,1,m,Thu Apr 17 2025 17:05:00 GMT-0500 (Central Daylight Time),504803.0,CFD-WM-012-007-HC.jpg,1000,dash,O,m,1150,4,1,65128.80000001192,439674.1999999881,7130,ATS,B,23
17,test,1,C,mfborder.png,1,m,Thu Apr 17 2025 17:05:00 GMT-0500 (Central Daylight Time),506918.6999999881,CFD-WM-012-007-HC.jpg,1000,dash,O,m,1047,4,1,67244.5,439674.1999999881,7130,ATS,B,24
1,test,2,C,mfborder.png,1,m,Thu Apr 17 2025 17:05:00 GMT-0500 (Central Daylight Time),513982.89999997616,CFD-WM-009-009-A.jpg,1200,dash,O,m,1384,6,1,2649.099999964237,511333.8000000119,7130,ATS,B,1
1,test,2,C,haborder.png,0,z,Thu Apr 17 2025 17:05:00 GMT-0500 (Central Daylight Time),516929.39999997616,CFD-BF-051-043-A.jpg,1400,solid,O,None,1512,7,1,5595.599999964237,511333.8000000119,7130,ATS,B,2
1,test,2,C,mfborder.png,0,z,Thu Apr 17 2025 17:05:00 GMT-0500 (Central Daylight Time),520047.59999996424,CFD-WF-011-006-HC.jpg,1700,dash,O,m,1395,1,1,8713.799999952316,511333.8000000119,7130,ATS,B,3
2,test,2,C,haborder.png,1,m,Thu Apr 17 2025 17:05:00 GMT-0500 (Central Daylight Time),522030.0,CFD-WM-011-006-HC.jpg,1000,solid,O,m,924,12,1,10696.199999988079,511333.8000000119,7130,ATS,B,4
3,test,2,C,haborder.png,1,z,Thu Apr 17 2025 17:05:00 GMT-0500 (Central Daylight Time),524779.5999999642,CFD-BF-051-043-A.jpg,1400,solid,O,z,1307,7,1,13445.799999952316,511333.8000000119,7130,ATS,B,5
4,test,2,C,haborder.png,1,z,Thu Apr 17 2025 17:05:00 GMT-0500 (Central Daylight Time),527629.3999999762,CFD-BF-050-012-A.jpg,1900,solid,O,z,915,8,1,16295.599999964237,511333.8000000119,7130,ATS,B,6
5,test,2,C,haborder.png,1,z,Thu Apr 17 2025 17:05:00 GMT-0500 (Central Daylight Time),530211.0999999642,CFD-WF-026-008-A.jpg,1700,solid,O,z,841,9,1,18877.299999952316,511333.8000000119,7130,ATS,B,7
5,test,2,C,mfborder.png,0,z,Thu Apr 17 2025 17:05:00 GMT-0500 (Central Daylight Time),533193.3999999762,CFD-BF-035-007-HC.jpg,1500,dash,O,m,1436,3,1,21859.599999964237,511333.8000000119,7130,ATS,B,8
5,test,2,C,mfborder.png,0,m,Thu Apr 17 2025 17:05:00 GMT-0500 (Central Daylight Time),535741.6999999881,CFD-BM-015-017-HC.jpg,1000,dash,O,None,1514,4,1,24407.899999976158,511333.8000000119,7130,ATS,B,9
6,test,2,C,haborder.png,1,m,Thu Apr 17 2025 17:05:00 GMT-0500 (Central Daylight Time),538541.5999999642,CFD-BM-020-024-HC.jpg,1600,solid,O,m,1157,10,1,27207.799999952316,511333.8000000119,7130,ATS,B,10
7,test,2,C,haborder.png,1,m,Thu Apr 17 2025 17:05:00 GMT-0500 (Central Daylight Time),540657.5999999642,CFD-WM-011-006-HC.jpg,1000,solid,O,m,1076,12,1,29323.799999952316,511333.8000000119,7130,ATS,B,11
8,test,2,C,mfborder.png,1,m,Thu Apr 17 2025 17:05:00 GMT-0500 (Central Daylight Time),543106.6999999881,CFD-BM-015-017-HC.jpg,1000,dash,O,m,1391,4,1,31772.899999976158,511333.8000000119,7130,ATS,B,12
8,test,2,C,haborder.png,0,z,Thu Apr 17 2025 17:05:00 GMT-0500 (Central Daylight Time),546555.8999999762,CFD-BF-050-012-A.jpg,1900,solid,O,None,1514,8,1,35222.09999996424,511333.8000000119,7130,ATS,B,13
9,test,2,C,haborder.png,1,m,Thu Apr 17 2025 17:05:00 GMT-0500 (Central Daylight Time),549071.5999999642,CFD-WM-011-006-HC.jpg,1500,solid,O,m,971,11,1,37737.799999952316,511333.8000000119,7130,ATS,B,14
10,test,2,C,haborder.png,1,m,Thu Apr 17 2025 17:05:00 GMT-0500 (Central Daylight Time),551604.0,CFD-BM-020-024-HC.jpg,1600,solid,O,m,890,10,1,40270.19999998808,511333.8000000119,7130,ATS,B,15
11,test,2,C,haborder.png,1,z,Thu Apr 17 2025 17:05:00 GMT-0500 (Central Daylight Time),554502.8000000119,CFD-WF-026-008-A.jpg,1700,solid,O,z,1162,9,1,43169.0,511333.8000000119,7130,ATS,B,16
12,test,2,C,mfborder.png,1,z,Thu Apr 17 2025 17:05:00 GMT-0500 (Central Daylight Time),557501.8000000119,CFD-WF-013-015-A.jpg,1600,dash,O,z,1355,2,1,46168.0,511333.8000000119,7130,ATS,B,17
12,test,2,C,mfborder.png,0,m,Thu Apr 17 2025 17:05:00 GMT-0500 (Central Daylight Time),560251.0999999642,CFD-WM-009-009-A.jpg,1200,dash,O,None,1514,6,1,48917.299999952316,511333.8000000119,7130,ATS,B,18
12,test,2,C,mfborder.png,0,z,Thu Apr 17 2025 17:05:00 GMT-0500 (Central Daylight Time),563366.5,CFD-WF-011-006-HC.jpg,1700,dash,O,m,1357,1,1,52032.69999998808,511333.8000000119,7130,ATS,B,19
13,test,2,C,mfborder.png,1,z,Thu Apr 17 2025 17:05:00 GMT-0500 (Central Daylight Time),566199.0999999642,CFD-WF-013-015-A.jpg,1600,dash,O,z,1181,2,1,54865.299999952316,511333.8000000119,7130,ATS,B,20
14,test,2,C,mfborder.png,1,m,Thu Apr 17 2025 17:05:00 GMT-0500 (Central Daylight Time),569515.0999999642,CFD-BM-037-041-A.jpg,2000,dash,O,m,1267,5,1,58181.299999952316,511333.8000000119,7130,ATS,B,21
15,test,2,C,mfborder.png,1,m,Thu Apr 17 2025 17:05:00 GMT-0500 (Central Daylight Time),573030.0,CFD-BM-037-041-A.jpg,2000,dash,O,m,1480,5,1,61696.19999998808,511333.8000000119,7130,ATS,B,22
16,test,2,C,haborder.png,1,m,Thu Apr 17 2025 17:05:00 GMT-0500 (Central Daylight Time),575413.0,CFD-WM-011-006-HC.jpg,1500,solid,O,m,832,11,1,64079.19999998808,511333.8000000119,7130,ATS,B,23
17,test,2,C,mfborder.png,1,z,Thu Apr 17 2025 17:05:00 GMT-0500 (Central Daylight Time),578428.6999999881,CFD-BF-035-007-HC.jpg,1500,dash,O,z,1467,3,1,67094.89999997616,511333.8000000119,7130,ATS,B,24
1,test,3,C,haborder.png,1,m,Thu Apr 17 2025 17:05:00 GMT-0500 (Central Daylight Time),584459.6999999881,CFD-WF-011-006-HC.jpg,1000,solid,O,m,943,12,1,1966.699999988079,582493.0,7130,ATS,B,1
1,test,3,C,haborder.png,0,z,Thu Apr 17 2025 17:05:00 GMT-0500 (Central Daylight Time),587275.8999999762,CFD-BM-037-041-A.jpg,1900,solid,O,m,874,8,1,4782.899999976158,582493.0,7130,ATS,B,2
2,test,3,C,haborder.png,1,m,Thu Apr 17 2025 17:05:00 GMT-0500 (Central Daylight Time),589858.3000000119,CFD-WF-027-007-HC.jpg,1500,solid,O,m,1034,11,1,7365.300000011921,582493.0,7130,ATS,B,3
3,test,3,C,mfborder.png,1,z,Thu Apr 17 2025 17:05:00 GMT-0500 (Central Daylight Time),592840.5,CFD-BF-051-043-A.jpg,1600,dash,O,z,1343,2,1,10347.5,582493.0,7130,ATS,B,4
4,test,3,C,mfborder.png,1,m,Thu Apr 17 2025 17:05:00 GMT-0500 (Central Daylight Time),595323.1999999881,CFD-WM-012-007-HC.jpg,1000,dash,O,m,1442,4,1,12830.199999988079,582493.0,7130,ATS,B,5
5,test,3,C,mfborder.png,1,z,Thu Apr 17 2025 17:05:00 GMT-0500 (Central Daylight Time),597905.8000000119,CFD-WF-026-008-A.jpg,1500,dash,O,z,1019,3,1,15412.800000011921,582493.0,7130,ATS,B,6
5,test,3,C,haborder.png,0,z,Thu Apr 17 2025 17:05:00 GMT-0500 (Central Daylight Time),600854.8000000119,CFD-WM-009-009-A.jpg,1400,solid,O,None,1514,7,1,18361.80000001192,582493.0,7130,ATS,B,7
5,test,3,C,mfborder.png,0,m,Thu Apr 17 2025 17:05:00 GMT-0500 (Central Daylight Time),603286.8999999762,CFD-WM-012-007-HC.jpg,1000,dash,O,z,1367,4,1,20793.899999976158,582493.0,7130,ATS,B,8
6,test,3,C,mfborder.png,1,z,Thu Apr 17 2025 17:05:00 GMT-0500 (Central Daylight Time),605969.5999999642,CFD-BF-051-043-A.jpg,1600,dash,O,z,1045,2,1,23476.599999964237,582493.0,7130,ATS,B,9
7,test,3,C,mfborder.png,1,z,Thu Apr 17 2025 17:05:00 GMT-0500 (Central Daylight Time),608602.0999999642,CFD-WF-026-008-A.jpg,1500,dash,O,z,1065,3,1,26109.099999964237,582493.0,7130,ATS,B,10
7,test,3,C,mfborder.png,0,z,Thu Apr 17 2025 17:05:00 GMT-0500 (Central Daylight Time),611850.8000000119,CFD-BF-027-013-HC.jpg,1700,dash,O,None,1515,1,1,29357.80000001192,582493.0,7130,ATS,B,11
7,test,3,C,haborder.png,0,z,Thu Apr 17 2025 17:05:00 GMT-0500 (Central Daylight Time),615100.1999999881,CFD-BM-041-048-A.jpg,1700,solid,O,None,1515,9,1,32607.19999998808,582493.0,7130,ATS,B,12
8,test,3,C,haborder.png,1,m,Thu Apr 17 2025 17:05:00 GMT-0500 (Central Daylight Time),617998.5999999642,CFD-BF-035-007-HC.jpg,1600,solid,O,m,1262,10,1,35505.59999996424,582493.0,7130,ATS,B,13
9,test,3,C,haborder.png,1,m,Thu Apr 17 2025 17:05:00 GMT-0500 (Central Daylight Time),619831.6999999881,CFD-WF-011-006-HC.jpg,1000,solid,O,m,777,12,1,37338.69999998808,582493.0,7130,ATS,B,14
9,test,3,C,mfborder.png,0,m,Thu Apr 17 2025 17:05:00 GMT-0500 (Central Daylight Time),623313.6999999881,CFD-WM-037-060-A.jpg,2000,dash,O,z,1434,5,1,40820.69999998808,582493.0,7130,ATS,B,15
10,test,3,C,haborder.png,1,m,Thu Apr 17 2025 17:05:00 GMT-0500 (Central Daylight Time),625796.0999999642,CFD-WF-027-007-HC.jpg,1500,solid,O,m,933,11,1,43303.09999996424,582493.0,7130,ATS,B,16
10,test,3,C,haborder.png,0,z,Thu Apr 17 2025 17:05:00 GMT-0500 (Central Daylight Time),628145.5,CFD-WM-009-009-A.jpg,1400,solid,O,m,910,7,1,45652.5,582493.0,7130,ATS,B,17
10,test,3,C,mfborder.png,0,m,Thu Apr 17 2025 17:05:00 GMT-0500 (Central Daylight Time),630910.6999999881,CFD-BM-020-024-HC.jpg,1200,dash,O,None,1514,6,1,48417.69999998808,582493.0,7130,ATS,B,18
11,test,3,C,haborder.png,1,z,Thu Apr 17 2025 17:05:00 GMT-0500 (Central Daylight Time),634143.3999999762,CFD-BM-037-041-A.jpg,1900,solid,O,z,1292,8,1,51650.39999997616,582493.0,7130,ATS,B,19
12,test,3,C,haborder.png,1,z,Thu Apr 17 2025 17:05:00 GMT-0500 (Central Daylight Time),637192.5999999642,CFD-BM-041-048-A.jpg,1700,solid,O,z,1310,9,1,54699.59999996424,582493.0,7130,ATS,B,20
12,test,3,C,mfborder.png,0,m,Thu Apr 17 2025 17:05:00 GMT-0500 (Central Daylight Time),639941.8000000119,CFD-BM-020-024-HC.jpg,1200,dash,O,None,1515,6,1,57448.80000001192,582493.0,7130,ATS,B,21
13,test,3,C,mfborder.png,1,m,Thu Apr 17 2025 17:05:00 GMT-0500 (Central Daylight Time),643473.8000000119,CFD-WM-037-060-A.jpg,2000,dash,O,m,1485,5,1,60980.80000001192,582493.0,7130,ATS,B,22
14,test,3,C,mfborder.png,1,z,Thu Apr 17 2025 17:05:00 GMT-0500 (Central Daylight Time),646390.1999999881,CFD-BF-027-013-HC.jpg,1700,dash,O,z,1181,1,1,63897.19999998808,582493.0,7130,ATS,B,23
15,test,3,C,haborder.png,1,m,Thu Apr 17 2025 17:05:00 GMT-0500 (Central Daylight Time),649288.8000000119,CFD-BF-035-007-HC.jpg,1600,solid,O,m,1254,10,1,66795.80000001192,582493.0,7130,ATS,B,24
0,test,4,C,mfborder.png,0,m,Thu Apr 17 2025 17:05:00 GMT-0500 (Central Daylight Time),654103.8000000119,CFD-WM-009-009-A.jpg,1200,dash,O,z,1400,6,1,2665.800000011921,651438.0,7130,ATS,B,1
0,test,4,C,mfborder.png,0,z,Thu Apr 17 2025 17:05:00 GMT-0500 (Central Daylight Time),657152.5999999642,CFD-BF-035-007-HC.jpg,1500,dash,O,None,1515,3,1,5714.599999964237,651438.0,7130,ATS,B,2
1,test,4,C,haborder.png,1,z,Thu Apr 17 2025 17:05:00 GMT-0500 (Central Daylight Time),659801.8999999762,CFD-BF-051-043-A.jpg,1400,solid,O,z,1210,7,1,8363.899999976158,651438.0,7130,ATS,B,3
1,test,4,C,mfborder.png,0,m,Thu Apr 17 2025 17:05:00 GMT-0500 (Central Daylight Time),662384.3999999762,CFD-WM-009-009-A.jpg,1200,dash,O,z,1337,6,1,10946.399999976158,651438.0,7130,ATS,B,4
1,test,4,C,mfborder.png,0,z,Thu Apr 17 2025 17:05:00 GMT-0500 (Central Daylight Time),665466.3999999762,CFD-WF-011-006-HC.jpg,1700,dash,O,m,1333,1,1,14028.399999976158,651438.0,7130,ATS,B,5
1,test,4,C,mfborder.png,0,m,Thu Apr 17 2025 17:05:00 GMT-0500 (Central Daylight Time),668015.8999999762,CFD-BM-015-017-HC.jpg,1000,dash,O,None,1515,4,1,16577.899999976158,651438.0,7130,ATS,B,6
1,test,4,C,mfborder.png,0,z,Thu Apr 17 2025 17:05:00 GMT-0500 (Central Daylight Time),671148.0999999642,CFD-WF-011-006-HC.jpg,1700,dash,O,m,1391,1,1,19710.099999964237,651438.0,7130,ATS,B,7
2,test,4,C,haborder.png,1,z,Thu Apr 17 2025 17:05:00 GMT-0500 (Central Daylight Time),674280.0999999642,CFD-WF-026-008-A.jpg,1700,solid,O,z,1395,9,1,22842.099999964237,651438.0,7130,ATS,B,8
3,test,4,C,haborder.png,1,m,Thu Apr 17 2025 17:05:00 GMT-0500 (Central Daylight Time),676746.0,CFD-WM-011-006-HC.jpg,1000,solid,O,m,1426,12,1,25308.0,651438.0,7130,ATS,B,9
3,test,4,C,mfborder.png,0,m,Thu Apr 17 2025 17:05:00 GMT-0500 (Central Daylight Time),680211.5,CFD-BM-037-041-A.jpg,2000,dash,O,z,1407,5,1,28773.5,651438.0,7130,ATS,B,10
4,test,4,C,haborder.png,1,z,Thu Apr 17 2025 17:05:00 GMT-0500 (Central Daylight Time),683460.8000000119,CFD-BF-050-012-A.jpg,1900,solid,O,z,1324,8,1,32022.80000001192,651438.0,7130,ATS,B,11
5,test,4,C,haborder.png,1,m,Thu Apr 17 2025 17:05:00 GMT-0500 (Central Daylight Time),685943.0,CFD-WM-011-006-HC.jpg,1500,solid,O,m,946,11,1,34505.0,651438.0,7130,ATS,B,12
5,test,4,C,mfborder.png,0,z,Thu Apr 17 2025 17:05:00 GMT-0500 (Central Daylight Time),688992.3000000119,CFD-BF-035-007-HC.jpg,1500,dash,O,None,1511,3,1,37554.30000001192,651438.0,7130,ATS,B,13
5,test,4,C,mfborder.png,0,m,Thu Apr 17 2025 17:05:00 GMT-0500 (Central Daylight Time),692541.0,CFD-BM-037-041-A.jpg,2000,dash,O,None,1517,5,1,41103.0,651438.0,7130,ATS,B,14
6,test,4,C,mfborder.png,1,m,Thu Apr 17 2025 17:05:00 GMT-0500 (Central Daylight Time),694957.5,CFD-BM-015-017-HC.jpg,1000,dash,O,m,1381,4,1,43519.5,651438.0,7130,ATS,B,15
7,test,4,C,haborder.png,1,z,Thu Apr 17 2025 17:05:00 GMT-0500 (Central Daylight Time),697956.0,CFD-BF-050-012-A.jpg,1900,solid,O,z,1058,8,1,46518.0,651438.0,7130,ATS,B,16
8,test,4,C,haborder.png,1,m,Thu Apr 17 2025 17:05:00 GMT-0500 (Central Daylight Time),700587.3999999762,CFD-BM-020-024-HC.jpg,1600,solid,O,m,997,10,1,49149.39999997616,651438.0,7130,ATS,B,17
9,test,4,C,haborder.png,1,m,Thu Apr 17 2025 17:05:00 GMT-0500 (Central Daylight Time),702471.0,CFD-WM-011-006-HC.jpg,1000,solid,O,m,863,12,1,51033.0,651438.0,7130,ATS,B,18
10,test,4,C,haborder.png,1,z,Thu Apr 17 2025 17:05:00 GMT-0500 (Central Daylight Time),705519.8999999762,CFD-WF-026-008-A.jpg,1700,solid,O,z,1304,9,1,54081.89999997616,651438.0,7130,ATS,B,19
11,test,4,C,haborder.png,1,m,Thu Apr 17 2025 17:05:00 GMT-0500 (Central Daylight Time),707802.8000000119,CFD-WM-011-006-HC.jpg,1500,solid,O,m,743,11,1,56364.80000001192,651438.0,7130,ATS,B,20
12,test,4,C,haborder.png,1,z,Thu Apr 17 2025 17:05:00 GMT-0500 (Central Daylight Time),710502.0999999642,CFD-BF-051-043-A.jpg,1400,solid,O,z,1258,7,1,59064.09999996424,651438.0,7130,ATS,B,21
13,test,4,C,haborder.png,1,m,Thu Apr 17 2025 17:05:00 GMT-0500 (Central Daylight Time),713217.8000000119,CFD-BM-020-024-HC.jpg,1600,solid,O,m,1052,10,1,61779.80000001192,651438.0,7130,ATS,B,22
14,test,4,C,mfborder.png,1,z,Thu Apr 17 2025 17:05:00 GMT-0500 (Central Daylight Time),715949.8999999762,CFD-WF-013-015-A.jpg,1600,dash,O,z,1091,2,1,64511.89999997616,651438.0,7130,ATS,B,23
15,test,4,C,mfborder.png,1,z,Thu Apr 17 2025 17:05:00 GMT-0500 (Central Daylight Time),719015.8000000119,CFD-WF-013-015-A.jpg,1600,dash,O,z,1419,2,1,67577.80000001192,651438.0,7130,ATS,B,24
