acc_sum,block,block_c,change,condition,correct,correct_response,datetime,endtime,face,project,response,response_time,row_sel,session_number,start_end,starttime,subject_id,task,task_vers,trial
0,prac,1,,1-Back,,,Thu Mar 27 2025 13:54:39 GMT-0500 (Central Daylight Time),,050_m_f_n_a.png,O,space,11840,1,1,,,7092,NNB,A,0
1,prac,1,0.0,1-Back,1,m,Thu Mar 27 2025 13:54:39 GMT-0500 (Central Daylight Time),138368.79999995232,063_y_f_n_a.png,O,m,1758,2,1,2591.2999999523163,135777.5,7092,NNB,A,1
2,prac,1,1.0,1-Back,1,z,Thu Mar 27 2025 13:54:39 GMT-0500 (Central Daylight Time),140335.19999998808,063_y_f_n_a.png,O,z,1161,3,1,1941.6000000238419,138393.59999996424,7092,NNB,A,2
2,prac,1,0.0,1-Back,0,m,Thu Mar 27 2025 13:54:39 GMT-0500 (Central Daylight Time),143200.19999998808,053_o_m_n_a.png,O,None,2014,4,1,2829.800000011921,140370.39999997616,7092,NNB,A,3
3,prac,1,0.0,1-Back,1,m,Thu Mar 27 2025 13:54:39 GMT-0500 (Central Daylight Time),144998.89999997616,058_m_m_n_a.png,O,m,910,5,1,1759.1000000238419,143239.79999995232,7092,NNB,A,4
3,prac,1,1.0,1-Back,0,z,Thu Mar 27 2025 13:54:39 GMT-0500 (Central Daylight Time),147782.0,058_m_m_n_a.png,O,None,2005,6,1,2771.300000011921,145010.69999998808,7092,NNB,A,5
4,prac,1,0.0,1-Back,1,m,Thu Mar 27 2025 13:54:39 GMT-0500 (Central Daylight Time),149648.0,047_o_f_n_a.png,O,m,971,7,1,1835.4000000357628,147812.59999996424,7092,NNB,A,6
5,prac,1,0.0,1-Back,1,m,Thu Mar 27 2025 13:54:39 GMT-0500 (Central Daylight Time),151497.59999996424,045_m_m_n_a.png,O,m,958,8,1,1809.300000011921,149688.29999995232,7092,NNB,A,7
6,prac,1,0.0,1-Back,1,m,Thu Mar 27 2025 13:54:39 GMT-0500 (Central Daylight Time),153130.39999997616,050_m_f_n_a.png,O,m,833,9,1,1601.0,151529.39999997616,7092,NNB,A,8
7,prac,1,1.0,1-Back,1,z,Thu Mar 27 2025 13:54:39 GMT-0500 (Central Daylight Time),154780.0,050_m_f_n_a.png,O,z,833,10,1,1611.300000011921,153168.69999998808,7092,NNB,A,9
8,prac,1,0.0,1-Back,1,m,Thu Mar 27 2025 13:54:39 GMT-0500 (Central Daylight Time),157095.79999995232,053_o_m_n_a.png,O,m,1518,11,1,2290.7999999523163,154805.0,7092,NNB,A,10
9,prac,1,0.0,1-Back,1,m,Thu Mar 27 2025 13:54:39 GMT-0500 (Central Daylight Time),158911.79999995232,010_y_f_n_a.png,O,m,914,12,1,1776.7999999523163,157135.0,7092,NNB,A,11
0,test,1,0.0,1-Back,,,Thu Mar 27 2025 13:54:39 GMT-0500 (Central Daylight Time),158911.79999995232,063_y_f_n_a.png,O,space,13878,1,1,1776.7999999523163,157135.0,7092,NNB,A,0
1,test,1,0.0,1-Back,1,m,Thu Mar 27 2025 13:54:39 GMT-0500 (Central Daylight Time),185769.79999995232,043_m_f_n_a.png,O,m,1092,2,1,2106.199999988079,183663.59999996424,7092,NNB,A,1
2,test,1,0.0,1-Back,1,m,Thu Mar 27 2025 13:54:39 GMT-0500 (Central Daylight Time),187853.19999998808,010_y_f_n_a.png,O,m,1048,3,1,2059.699999988079,185793.5,7092,NNB,A,2
3,test,1,1.0,1-Back,1,z,Thu Mar 27 2025 13:54:39 GMT-0500 (Central Daylight Time),189635.0,010_y_f_n_a.png,O,z,717,4,1,1749.4000000357628,187885.59999996424,7092,NNB,A,3
4,test,1,0.0,1-Back,1,m,Thu Mar 27 2025 13:54:39 GMT-0500 (Central Daylight Time),191534.5,043_m_f_n_a.png,O,m,855,5,1,1872.6000000238419,189661.89999997616,7092,NNB,A,4
5,test,1,0.0,1-Back,1,m,Thu Mar 27 2025 13:54:39 GMT-0500 (Central Daylight Time),193800.39999997616,053_o_m_n_a.png,O,m,1203,6,1,2234.399999976158,191566.0,7092,NNB,A,5
6,test,1,1.0,1-Back,1,z,Thu Mar 27 2025 13:54:39 GMT-0500 (Central Daylight Time),195665.5,053_o_m_n_a.png,O,z,815,7,1,1837.4000000357628,193828.09999996424,7092,NNB,A,6
7,test,1,0.0,1-Back,1,m,Thu Mar 27 2025 13:54:39 GMT-0500 (Central Daylight Time),197532.59999996424,058_m_m_n_a.png,O,m,840,8,1,1858.300000011921,195674.29999995232,7092,NNB,A,7
8,test,1,0.0,1-Back,1,m,Thu Mar 27 2025 13:54:39 GMT-0500 (Central Daylight Time),199615.09999996424,047_o_f_n_a.png,O,m,1020,9,1,2050.399999976158,197564.69999998808,7092,NNB,A,8
9,test,1,0.0,1-Back,1,m,Thu Mar 27 2025 13:54:39 GMT-0500 (Central Daylight Time),201497.89999997616,058_m_m_n_a.png,O,m,834,10,1,1852.5,199645.39999997616,7092,NNB,A,9
10,test,1,0.0,1-Back,1,m,Thu Mar 27 2025 13:54:39 GMT-0500 (Central Daylight Time),203597.09999996424,041_y_m_n_a.png,O,m,1047,11,1,2067.300000011921,201529.79999995232,7092,NNB,A,10
11,test,1,1.0,1-Back,1,z,Thu Mar 27 2025 13:54:39 GMT-0500 (Central Daylight Time),205513.19999998808,041_y_m_n_a.png,O,z,852,12,1,1882.199999988079,203631.0,7092,NNB,A,11
12,test,1,0.0,1-Back,1,m,Thu Mar 27 2025 13:54:39 GMT-0500 (Central Daylight Time),207445.5,044_o_f_n_a.png,O,m,881,13,1,1899.800000011921,205545.69999998808,7092,NNB,A,12
13,test,1,1.0,1-Back,1,z,Thu Mar 27 2025 13:54:39 GMT-0500 (Central Daylight Time),209345.5,044_o_f_n_a.png,O,z,854,14,1,1870.4000000357628,207475.09999996424,7092,NNB,A,13
14,test,1,0.0,1-Back,1,m,Thu Mar 27 2025 13:54:39 GMT-0500 (Central Daylight Time),211644.0,008_y_m_n_a.png,O,m,1256,15,1,2272.100000023842,209371.89999997616,7092,NNB,A,14
15,test,1,0.0,1-Back,1,m,Thu Mar 27 2025 13:54:39 GMT-0500 (Central Daylight Time),213461.29999995232,050_m_f_n_a.png,O,m,784,16,1,1797.2999999523163,211664.0,7092,NNB,A,15
16,test,1,0.0,1-Back,1,m,Thu Mar 27 2025 13:54:39 GMT-0500 (Central Daylight Time),215260.0,046_o_m_n_a.png,O,m,757,17,1,1776.6000000238419,213483.39999997616,7092,NNB,A,16
17,test,1,0.0,1-Back,1,m,Thu Mar 27 2025 13:54:39 GMT-0500 (Central Daylight Time),217325.5,050_m_f_n_a.png,O,m,1029,18,1,2041.300000011921,215284.19999998808,7092,NNB,A,17
0,test,2,0.0,1-Back,,,Thu Mar 27 2025 13:54:39 GMT-0500 (Central Daylight Time),217325.5,058_m_m_n_a.png,O,space,2964,1,1,2041.300000011921,215284.19999998808,7092,NNB,A,0
1,test,2,0.0,1-Back,1,m,Thu Mar 27 2025 13:54:39 GMT-0500 (Central Daylight Time),224173.89999997616,043_m_f_n_a.png,O,m,706,2,1,1735.0,222438.89999997616,7092,NNB,A,1
2,test,2,1.0,1-Back,1,z,Thu Mar 27 2025 13:54:39 GMT-0500 (Central Daylight Time),226106.39999997616,043_m_f_n_a.png,O,z,875,3,1,1901.3999999761581,224205.0,7092,NNB,A,2
3,test,2,0.0,1-Back,1,m,Thu Mar 27 2025 13:54:39 GMT-0500 (Central Daylight Time),227872.39999997616,058_m_m_n_a.png,O,m,727,4,1,1737.199999988079,226135.19999998808,7092,NNB,A,3
4,test,2,0.0,1-Back,1,m,Thu Mar 27 2025 13:54:39 GMT-0500 (Central Daylight Time),230255.0,041_y_m_n_a.png,O,m,1328,5,1,2350.7000000476837,227904.29999995232,7092,NNB,A,4
5,test,2,0.0,1-Back,1,m,Thu Mar 27 2025 13:54:39 GMT-0500 (Central Daylight Time),232137.89999997616,063_y_f_n_a.png,O,m,835,6,1,1858.6000000238419,230279.29999995232,7092,NNB,A,5
6,test,2,1.0,1-Back,1,z,Thu Mar 27 2025 13:54:39 GMT-0500 (Central Daylight Time),233837.29999995232,063_y_f_n_a.png,O,z,656,7,1,1671.199999988079,232166.09999996424,7092,NNB,A,6
7,test,2,0.0,1-Back,1,m,Thu Mar 27 2025 13:54:39 GMT-0500 (Central Daylight Time),235820.0,041_y_m_n_a.png,O,m,916,8,1,1946.5,233873.5,7092,NNB,A,7
8,test,2,0.0,1-Back,1,m,Thu Mar 27 2025 13:54:39 GMT-0500 (Central Daylight Time),237619.5,044_o_f_n_a.png,O,m,733,9,1,1766.0,235853.5,7092,NNB,A,8
9,test,2,0.0,1-Back,1,m,Thu Mar 27 2025 13:54:39 GMT-0500 (Central Daylight Time),239435.09999996424,045_m_m_n_a.png,O,m,749,10,1,1780.800000011921,237654.29999995232,7092,NNB,A,9
10,test,2,1.0,1-Back,1,z,Thu Mar 27 2025 13:54:39 GMT-0500 (Central Daylight Time),241401.29999995232,045_m_m_n_a.png,O,z,918,11,1,1941.0999999642372,239460.19999998808,7092,NNB,A,10
11,test,2,0.0,1-Back,1,m,Thu Mar 27 2025 13:54:39 GMT-0500 (Central Daylight Time),243234.29999995232,044_o_f_n_a.png,O,m,767,12,1,1800.8999999761581,241433.39999997616,7092,NNB,A,11
12,test,2,0.0,1-Back,1,m,Thu Mar 27 2025 13:54:39 GMT-0500 (Central Daylight Time),244983.5,047_o_f_n_a.png,O,m,712,13,1,1718.4000000357628,243265.09999996424,7092,NNB,A,12
13,test,2,0.0,1-Back,1,m,Thu Mar 27 2025 13:54:39 GMT-0500 (Central Daylight Time),247049.79999995232,053_o_m_n_a.png,O,m,1017,14,1,2039.8999999761581,245009.89999997616,7092,NNB,A,13
14,test,2,0.0,1-Back,1,m,Thu Mar 27 2025 13:54:39 GMT-0500 (Central Daylight Time),248765.29999995232,046_o_m_n_a.png,O,m,680,15,1,1687.2999999523163,247078.0,7092,NNB,A,14
14,test,2,1.0,1-Back,0,z,Thu Mar 27 2025 13:54:39 GMT-0500 (Central Daylight Time),250814.89999997616,046_o_m_n_a.png,O,m,1012,16,1,2025.3999999761581,248789.5,7092,NNB,A,15
15,test,2,0.0,1-Back,1,m,Thu Mar 27 2025 13:54:39 GMT-0500 (Central Daylight Time),252647.69999998808,008_y_m_n_a.png,O,m,778,17,1,1800.5,250847.19999998808,7092,NNB,A,16
16,test,2,1.0,1-Back,1,z,Thu Mar 27 2025 13:54:39 GMT-0500 (Central Daylight Time),254347.29999995232,008_y_m_n_a.png,O,z,659,18,1,1668.7999999523163,252678.5,7092,NNB,A,17
0,test,3,1.0,1-Back,,,Thu Mar 27 2025 13:54:39 GMT-0500 (Central Daylight Time),254347.29999995232,010_y_f_n_a.png,O,space,2063,1,1,1668.7999999523163,252678.5,7092,NNB,A,0
1,test,3,0.0,1-Back,1,m,Thu Mar 27 2025 13:54:39 GMT-0500 (Central Daylight Time),260294.79999995232,046_o_m_n_a.png,O,m,712,2,1,1732.5,258562.29999995232,7092,NNB,A,1
2,test,3,1.0,1-Back,1,z,Thu Mar 27 2025 13:54:39 GMT-0500 (Central Daylight Time),262377.59999996424,046_o_m_n_a.png,O,z,1018,3,1,2049.699999988079,260327.89999997616,7092,NNB,A,2
3,test,3,0.0,1-Back,1,m,Thu Mar 27 2025 13:54:39 GMT-0500 (Central Daylight Time),264210.59999996424,050_m_f_n_a.png,O,m,784,4,1,1804.199999988079,262406.39999997616,7092,NNB,A,3
4,test,3,1.0,1-Back,1,z,Thu Mar 27 2025 13:54:39 GMT-0500 (Central Daylight Time),266276.59999996424,050_m_f_n_a.png,O,z,1023,5,1,2037.800000011921,264238.7999999523,7092,NNB,A,4
5,test,3,0.0,1-Back,1,m,Thu Mar 27 2025 13:54:39 GMT-0500 (Central Daylight Time),268009.2999999523,044_o_f_n_a.png,O,m,693,6,1,1703.3999999761581,266305.89999997616,7092,NNB,A,5
6,test,3,0.0,1-Back,1,m,Thu Mar 27 2025 13:54:39 GMT-0500 (Central Daylight Time),269825.2999999523,041_y_m_n_a.png,O,m,751,7,1,1783.5999999642372,268041.6999999881,7092,NNB,A,6
7,test,3,0.0,1-Back,1,m,Thu Mar 27 2025 13:54:39 GMT-0500 (Central Daylight Time),271874.89999997616,044_o_f_n_a.png,O,m,1000,8,1,2024.800000011921,269850.09999996424,7092,NNB,A,7
8,test,3,0.0,1-Back,1,m,Thu Mar 27 2025 13:54:39 GMT-0500 (Central Daylight Time),273657.2999999523,008_y_m_n_a.png,O,m,726,9,1,1749.5999999642372,271907.6999999881,7092,NNB,A,8
9,test,3,1.0,1-Back,1,z,Thu Mar 27 2025 13:54:39 GMT-0500 (Central Daylight Time),275390.09999996424,008_y_m_n_a.png,O,z,696,10,1,1704.0,273686.09999996424,7092,NNB,A,9
10,test,3,0.0,1-Back,1,m,Thu Mar 27 2025 13:54:39 GMT-0500 (Central Daylight Time),277156.59999996424,043_m_f_n_a.png,O,m,699,11,1,1732.8999999761581,275423.6999999881,7092,NNB,A,10
11,test,3,0.0,1-Back,1,m,Thu Mar 27 2025 13:54:39 GMT-0500 (Central Daylight Time),279089.0,063_y_f_n_a.png,O,m,876,12,1,1897.4000000357628,277191.59999996424,7092,NNB,A,11
12,test,3,1.0,1-Back,1,z,Thu Mar 27 2025 13:54:39 GMT-0500 (Central Daylight Time),280955.0,063_y_f_n_a.png,O,z,815,13,1,1837.5,279117.5,7092,NNB,A,12
13,test,3,0.0,1-Back,1,m,Thu Mar 27 2025 13:54:39 GMT-0500 (Central Daylight Time),282671.09999996424,043_m_f_n_a.png,O,m,678,14,1,1690.699999988079,280980.39999997616,7092,NNB,A,13
14,test,3,0.0,1-Back,1,m,Thu Mar 27 2025 13:54:39 GMT-0500 (Central Daylight Time),284453.59999996424,058_m_m_n_a.png,O,m,738,15,1,1758.699999988079,282694.89999997616,7092,NNB,A,14
15,test,3,1.0,1-Back,1,z,Thu Mar 27 2025 13:54:39 GMT-0500 (Central Daylight Time),286336.59999996424,058_m_m_n_a.png,O,z,844,16,1,1852.0999999642372,284484.5,7092,NNB,A,15
16,test,3,0.0,1-Back,1,m,Thu Mar 27 2025 13:54:39 GMT-0500 (Central Daylight Time),288136.1999999881,047_o_f_n_a.png,O,m,744,17,1,1764.9000000357628,286371.2999999523,7092,NNB,A,16
17,test,3,1.0,1-Back,1,z,Thu Mar 27 2025 13:54:39 GMT-0500 (Central Daylight Time),290401.89999997616,047_o_f_n_a.png,O,z,1201,18,1,2232.800000011921,288169.09999996424,7092,NNB,A,17
0,test,4,1.0,1-Back,,,Thu Mar 27 2025 13:54:39 GMT-0500 (Central Daylight Time),290401.89999997616,050_m_f_n_a.png,O,space,1576,1,1,2232.800000011921,288169.09999996424,7092,NNB,A,0
1,test,4,0.0,1-Back,1,m,Thu Mar 27 2025 13:54:39 GMT-0500 (Central Daylight Time),296116.7999999523,046_o_m_n_a.png,O,m,999,2,1,2026.3999999761581,294090.39999997616,7092,NNB,A,1
2,test,4,0.0,1-Back,1,m,Thu Mar 27 2025 13:54:39 GMT-0500 (Central Daylight Time),298049.5,050_m_f_n_a.png,O,m,875,3,1,1900.5,296149.0,7092,NNB,A,2
3,test,4,0.0,1-Back,1,m,Thu Mar 27 2025 13:54:39 GMT-0500 (Central Daylight Time),299749.2999999523,044_o_f_n_a.png,O,m,664,4,1,1671.2999999523163,298078.0,7092,NNB,A,3
4,test,4,1.0,1-Back,1,z,Thu Mar 27 2025 13:54:39 GMT-0500 (Central Daylight Time),301715.09999996424,044_o_f_n_a.png,O,z,901,5,1,1932.5,299782.59999996424,7092,NNB,A,4
5,test,4,0.0,1-Back,1,m,Thu Mar 27 2025 13:54:39 GMT-0500 (Central Daylight Time),303397.6999999881,063_y_f_n_a.png,O,m,639,6,1,1657.6000000238419,301740.09999996424,7092,NNB,A,5
6,test,4,0.0,1-Back,1,m,Thu Mar 27 2025 13:54:39 GMT-0500 (Central Daylight Time),305230.09999996424,041_y_m_n_a.png,O,m,788,7,1,1806.3999999761581,303423.6999999881,7092,NNB,A,6
7,test,4,1.0,1-Back,1,z,Thu Mar 27 2025 13:54:39 GMT-0500 (Central Daylight Time),307513.0,041_y_m_n_a.png,O,z,1220,8,1,2249.7000000476837,305263.2999999523,7092,NNB,A,7
8,test,4,0.0,1-Back,1,m,Thu Mar 27 2025 13:54:39 GMT-0500 (Central Daylight Time),309397.59999996424,063_y_f_n_a.png,O,m,832,9,1,1852.300000011921,307545.2999999523,7092,NNB,A,8
9,test,4,0.0,1-Back,1,m,Thu Mar 27 2025 13:54:39 GMT-0500 (Central Daylight Time),311195.2999999523,045_m_m_n_a.png,O,m,758,10,1,1773.2999999523163,309422.0,7092,NNB,A,9
10,test,4,1.0,1-Back,1,z,Thu Mar 27 2025 13:54:39 GMT-0500 (Central Daylight Time),313227.59999996424,045_m_m_n_a.png,O,z,983,11,1,2006.0999999642372,311221.5,7092,NNB,A,10
11,test,4,0.0,1-Back,1,m,Thu Mar 27 2025 13:54:39 GMT-0500 (Central Daylight Time),314960.5,047_o_f_n_a.png,O,m,694,12,1,1703.800000011921,313256.6999999881,7092,NNB,A,11
12,test,4,0.0,1-Back,1,m,Thu Mar 27 2025 13:54:39 GMT-0500 (Central Daylight Time),316676.1999999881,053_o_m_n_a.png,O,m,665,13,1,1681.5,314994.6999999881,7092,NNB,A,12
13,test,4,0.0,1-Back,1,m,Thu Mar 27 2025 13:54:39 GMT-0500 (Central Daylight Time),318592.7999999523,047_o_f_n_a.png,O,m,869,14,1,1895.0,316697.7999999523,7092,NNB,A,13
14,test,4,0.0,1-Back,1,m,Thu Mar 27 2025 13:54:39 GMT-0500 (Central Daylight Time),320458.6999999881,010_y_f_n_a.png,O,m,825,15,1,1834.1000000238419,318624.59999996424,7092,NNB,A,14
15,test,4,1.0,1-Back,1,z,Thu Mar 27 2025 13:54:39 GMT-0500 (Central Daylight Time),322124.39999997616,010_y_f_n_a.png,O,z,630,16,1,1637.3999999761581,320487.0,7092,NNB,A,15
16,test,4,0.0,1-Back,1,m,Thu Mar 27 2025 13:54:39 GMT-0500 (Central Daylight Time),323890.89999997616,043_m_f_n_a.png,O,m,725,17,1,1749.300000011921,322141.59999996424,7092,NNB,A,16
17,test,4,1.0,1-Back,1,z,Thu Mar 27 2025 13:54:39 GMT-0500 (Central Daylight Time),325607.1999999881,043_m_f_n_a.png,O,z,671,18,1,1685.6000000238419,323921.59999996424,7092,NNB,A,17
0,test,5,1.0,1-Back,,,Thu Mar 27 2025 13:54:39 GMT-0500 (Central Daylight Time),325607.1999999881,053_o_m_n_a.png,O,space,1482,1,1,1685.6000000238419,323921.59999996424,7092,NNB,A,0
1,test,5,1.0,1-Back,1,z,Thu Mar 27 2025 13:54:39 GMT-0500 (Central Daylight Time),331375.1999999881,053_o_m_n_a.png,O,z,1133,2,1,2155.800000011921,329219.39999997616,7092,NNB,A,1
1,test,5,0.0,1-Back,0,m,Thu Mar 27 2025 13:54:39 GMT-0500 (Central Daylight Time),334404.2999999523,063_y_f_n_a.png,O,None,2016,3,1,3020.199999988079,331384.09999996424,7092,NNB,A,2
2,test,5,0.0,1-Back,1,m,Thu Mar 27 2025 13:54:39 GMT-0500 (Central Daylight Time),336621.1999999881,041_y_m_n_a.png,O,m,1166,4,1,2184.600000023842,334436.59999996424,7092,NNB,A,3
3,test,5,0.0,1-Back,1,m,Thu Mar 27 2025 13:54:39 GMT-0500 (Central Daylight Time),338786.0,063_y_f_n_a.png,O,m,1109,5,1,2131.800000011921,336654.1999999881,7092,NNB,A,4
4,test,5,0.0,1-Back,1,m,Thu Mar 27 2025 13:54:39 GMT-0500 (Central Daylight Time),340519.0,058_m_m_n_a.png,O,m,688,6,1,1703.5,338815.5,7092,NNB,A,5
5,test,5,1.0,1-Back,1,z,Thu Mar 27 2025 13:54:39 GMT-0500 (Central Daylight Time),342351.39999997616,058_m_m_n_a.png,O,z,771,7,1,1799.3999999761581,340552.0,7092,NNB,A,6
6,test,5,0.0,1-Back,1,m,Thu Mar 27 2025 13:54:39 GMT-0500 (Central Daylight Time),344367.5,010_y_f_n_a.png,O,m,954,8,1,1982.1000000238419,342385.39999997616,7092,NNB,A,7
7,test,5,0.0,1-Back,1,m,Thu Mar 27 2025 13:54:39 GMT-0500 (Central Daylight Time),346500.09999996424,008_y_m_n_a.png,O,m,1082,9,1,2103.699999988079,344396.39999997616,7092,NNB,A,8
8,test,5,0.0,1-Back,1,m,Thu Mar 27 2025 13:54:39 GMT-0500 (Central Daylight Time),348282.89999997616,010_y_f_n_a.png,O,m,742,10,1,1755.1000000238419,346527.7999999523,7092,NNB,A,9
9,test,5,0.0,1-Back,1,m,Thu Mar 27 2025 13:54:39 GMT-0500 (Central Daylight Time),349999.0,047_o_f_n_a.png,O,m,654,11,1,1684.4000000357628,348314.59999996424,7092,NNB,A,10
10,test,5,1.0,1-Back,1,z,Thu Mar 27 2025 13:54:39 GMT-0500 (Central Daylight Time),351714.7999999523,047_o_f_n_a.png,O,z,658,12,1,1684.0,350030.7999999523,7092,NNB,A,11
11,test,5,0.0,1-Back,1,m,Thu Mar 27 2025 13:54:39 GMT-0500 (Central Daylight Time),353448.0,046_o_m_n_a.png,O,m,695,13,1,1702.2000000476837,351745.7999999523,7092,NNB,A,12
12,test,5,0.0,1-Back,1,m,Thu Mar 27 2025 13:54:39 GMT-0500 (Central Daylight Time),355280.59999996424,050_m_f_n_a.png,O,m,769,14,1,1800.800000011921,353479.7999999523,7092,NNB,A,13
13,test,5,1.0,1-Back,1,z,Thu Mar 27 2025 13:54:39 GMT-0500 (Central Daylight Time),357197.0,050_m_f_n_a.png,O,z,865,15,1,1882.6000000238419,355314.39999997616,7092,NNB,A,14
14,test,5,0.0,1-Back,1,m,Thu Mar 27 2025 13:54:39 GMT-0500 (Central Daylight Time),358997.0,046_o_m_n_a.png,O,m,748,16,1,1768.2000000476837,357228.7999999523,7092,NNB,A,15
15,test,5,0.0,1-Back,1,m,Thu Mar 27 2025 13:54:39 GMT-0500 (Central Daylight Time),360712.2999999523,043_m_f_n_a.png,O,m,661,17,1,1682.2999999523163,359030.0,7092,NNB,A,16
16,test,5,0.0,1-Back,1,m,Thu Mar 27 2025 13:54:39 GMT-0500 (Central Daylight Time),362461.89999997616,045_m_m_n_a.png,O,m,694,18,1,1717.300000011921,360744.59999996424,7092,NNB,A,17
0,prac,1,0.0,2-Back,,,Thu Mar 27 2025 13:54:39 GMT-0500 (Central Daylight Time),362461.89999997616,008_y_m_n_a.png,O,space,9636,1,1,1717.300000011921,360744.59999996424,7092,NNB,A,0
0,prac,1,0.0,2-Back,,,Thu Mar 27 2025 13:54:39 GMT-0500 (Central Daylight Time),362461.89999997616,043_m_f_n_a.png,O,space,9636,2,1,1717.300000011921,360744.59999996424,7092,NNB,A,0
1,prac,1,1.0,2-Back,1,m,Thu Mar 27 2025 13:54:39 GMT-0500 (Central Daylight Time),491053.1999999881,046_o_m_n_a.png,O,m,1760,3,1,2588.900000035763,488464.2999999523,7092,NNB,A,1
2,prac,1,0.0,2-Back,1,m,Thu Mar 27 2025 13:54:39 GMT-0500 (Central Daylight Time),493286.6999999881,047_o_f_n_a.png,O,m,1316,4,1,2201.199999988079,491085.5,7092,NNB,A,2
3,prac,1,0.0,2-Back,1,z,Thu Mar 27 2025 13:54:39 GMT-0500 (Central Daylight Time),495001.1999999881,046_o_m_n_a.png,O,z,856,5,1,1680.1000000238419,493321.09999996424,7092,NNB,A,3
4,prac,1,1.0,2-Back,1,z,Thu Mar 27 2025 13:54:39 GMT-0500 (Central Daylight Time),496850.59999996424,047_o_f_n_a.png,O,z,1035,6,1,1818.5999999642372,495032.0,7092,NNB,A,4
5,prac,1,0.0,2-Back,1,m,Thu Mar 27 2025 13:54:39 GMT-0500 (Central Daylight Time),499199.09999996424,045_m_m_n_a.png,O,m,1477,7,1,2310.399999976158,496888.6999999881,7092,NNB,A,5
6,prac,1,0.0,2-Back,1,m,Thu Mar 27 2025 13:54:39 GMT-0500 (Central Daylight Time),501349.1999999881,053_o_m_n_a.png,O,m,1322,8,1,2135.300000011921,499213.89999997616,7092,NNB,A,6
7,prac,1,0.0,2-Back,1,m,Thu Mar 27 2025 13:54:39 GMT-0500 (Central Daylight Time),503398.7999999523,010_y_f_n_a.png,O,m,1149,9,1,2011.3999999761581,501387.39999997616,7092,NNB,A,7
8,prac,1,1.0,2-Back,1,z,Thu Mar 27 2025 13:54:39 GMT-0500 (Central Daylight Time),505114.6999999881,053_o_m_n_a.png,O,z,908,10,1,1683.199999988079,503431.5,7092,NNB,A,8
9,prac,1,0.0,2-Back,1,m,Thu Mar 27 2025 13:54:39 GMT-0500 (Central Daylight Time),507029.89999997616,063_y_f_n_a.png,O,m,1052,11,1,1887.8999999761581,505142.0,7092,NNB,A,9
10,prac,1,0.0,2-Back,1,m,Thu Mar 27 2025 13:54:39 GMT-0500 (Central Daylight Time),509212.59999996424,045_m_m_n_a.png,O,m,1398,12,1,2168.199999988079,507044.39999997616,7092,NNB,A,10
0,test,1,0.0,2-Back,,,Thu Mar 27 2025 13:54:39 GMT-0500 (Central Daylight Time),509212.59999996424,041_y_m_n_a.png,O,space,9874,1,1,2168.199999988079,507044.39999997616,7092,NNB,A,0
0,test,1,0.0,2-Back,,,Thu Mar 27 2025 13:54:39 GMT-0500 (Central Daylight Time),509212.59999996424,041_y_m_n_a.png,O,space,9874,2,1,2168.199999988079,507044.39999997616,7092,NNB,A,0
1,test,1,0.0,2-Back,1,m,Thu Mar 27 2025 13:54:39 GMT-0500 (Central Daylight Time),546979.7999999523,047_o_f_n_a.png,O,m,1526,3,1,2537.599999964237,544442.1999999881,7092,NNB,A,1
2,test,1,0.0,2-Back,1,m,Thu Mar 27 2025 13:54:39 GMT-0500 (Central Daylight Time),549100.7999999523,058_m_m_n_a.png,O,m,1098,4,1,2106.2999999523163,546994.5,7092,NNB,A,2
3,test,1,1.0,2-Back,1,z,Thu Mar 27 2025 13:54:39 GMT-0500 (Central Daylight Time),551016.0999999642,047_o_f_n_a.png,O,z,862,5,1,1882.5,549133.5999999642,7092,NNB,A,3
4,test,1,0.0,2-Back,1,m,Thu Mar 27 2025 13:54:39 GMT-0500 (Central Daylight Time),553765.2999999523,063_y_f_n_a.png,O,m,1713,6,1,2724.599999964237,551040.6999999881,7092,NNB,A,4
5,test,1,0.0,2-Back,1,m,Thu Mar 27 2025 13:54:39 GMT-0500 (Central Daylight Time),556097.7999999523,058_m_m_n_a.png,O,m,1275,7,1,2301.099999964237,553796.6999999881,7092,NNB,A,5
6,test,1,1.0,2-Back,1,z,Thu Mar 27 2025 13:54:39 GMT-0500 (Central Daylight Time),557946.2999999523,063_y_f_n_a.png,O,z,790,8,1,1815.0,556131.2999999523,7092,NNB,A,6
7,test,1,0.0,2-Back,1,m,Thu Mar 27 2025 13:54:39 GMT-0500 (Central Daylight Time),559863.0999999642,008_y_m_n_a.png,O,m,887,9,1,1907.8999999761581,557955.1999999881,7092,NNB,A,7
8,test,1,0.0,2-Back,1,m,Thu Mar 27 2025 13:54:39 GMT-0500 (Central Daylight Time),562012.6999999881,044_o_f_n_a.png,O,m,1106,10,1,2123.900000035763,559888.7999999523,7092,NNB,A,8
9,test,1,1.0,2-Back,1,z,Thu Mar 27 2025 13:54:39 GMT-0500 (Central Daylight Time),564011.2999999523,008_y_m_n_a.png,O,z,931,11,1,1966.8999999761581,562044.3999999762,7092,NNB,A,9
10,test,1,0.0,2-Back,1,m,Thu Mar 27 2025 13:54:39 GMT-0500 (Central Daylight Time),566144.5,043_m_f_n_a.png,O,m,1110,12,1,2120.0,564024.5,7092,NNB,A,10
10,test,1,0.0,2-Back,0,m,Thu Mar 27 2025 13:54:39 GMT-0500 (Central Daylight Time),568777.1999999881,043_m_f_n_a.png,O,z,1576,13,1,2599.5,566177.6999999881,7092,NNB,A,11
11,test,1,0.0,2-Back,1,m,Thu Mar 27 2025 13:54:39 GMT-0500 (Central Daylight Time),571509.5,046_o_m_n_a.png,O,m,1689,14,1,2707.7000000476837,568801.7999999523,7092,NNB,A,12
12,test,1,0.0,2-Back,1,m,Thu Mar 27 2025 13:54:39 GMT-0500 (Central Daylight Time),573658.2999999523,044_o_f_n_a.png,O,m,1100,15,1,2123.699999988079,571534.5999999642,7092,NNB,A,13
13,test,1,1.0,2-Back,1,z,Thu Mar 27 2025 13:54:39 GMT-0500 (Central Daylight Time),575441.3999999762,046_o_m_n_a.png,O,z,743,16,1,1767.1000000238419,573674.2999999523,7092,NNB,A,14
14,test,1,0.0,2-Back,1,m,Thu Mar 27 2025 13:54:39 GMT-0500 (Central Daylight Time),577557.2999999523,050_m_f_n_a.png,O,m,1056,17,1,2081.5,575475.7999999523,7092,NNB,A,15
15,test,1,0.0,2-Back,1,m,Thu Mar 27 2025 13:54:39 GMT-0500 (Central Daylight Time),580023.3999999762,045_m_m_n_a.png,O,m,1428,18,1,2435.100000023842,577588.2999999523,7092,NNB,A,16
0,test,2,0.0,2-Back,,,Thu Mar 27 2025 13:54:39 GMT-0500 (Central Daylight Time),580023.3999999762,045_m_m_n_a.png,O,space,1802,1,1,2435.100000023842,577588.2999999523,7092,NNB,A,0
0,test,2,0.0,2-Back,,,Thu Mar 27 2025 13:54:39 GMT-0500 (Central Daylight Time),580023.3999999762,010_y_f_n_a.png,O,space,1802,2,1,2435.100000023842,577588.2999999523,7092,NNB,A,0
1,test,2,1.0,2-Back,1,z,Thu Mar 27 2025 13:54:39 GMT-0500 (Central Daylight Time),588887.2999999523,045_m_m_n_a.png,O,z,845,3,1,1851.699999988079,587035.5999999642,7092,NNB,A,1
2,test,2,0.0,2-Back,1,m,Thu Mar 27 2025 13:54:39 GMT-0500 (Central Daylight Time),590786.5,050_m_f_n_a.png,O,m,834,4,1,1866.7000000476837,588919.7999999523,7092,NNB,A,2
3,test,2,0.0,2-Back,1,m,Thu Mar 27 2025 13:54:39 GMT-0500 (Central Daylight Time),593169.0999999642,010_y_f_n_a.png,O,m,1335,5,1,2352.800000011921,590816.2999999523,7092,NNB,A,3
4,test,2,0.0,2-Back,1,m,Thu Mar 27 2025 13:54:39 GMT-0500 (Central Daylight Time),595351.3999999762,046_o_m_n_a.png,O,m,1128,6,1,2147.0,593204.3999999762,7092,NNB,A,4
5,test,2,0.0,2-Back,1,m,Thu Mar 27 2025 13:54:39 GMT-0500 (Central Daylight Time),597285.0,063_y_f_n_a.png,O,m,898,7,1,1903.2000000476837,595381.7999999523,7092,NNB,A,5
6,test,2,1.0,2-Back,1,z,Thu Mar 27 2025 13:54:39 GMT-0500 (Central Daylight Time),599400.3999999762,046_o_m_n_a.png,O,z,1061,8,1,2081.300000011921,597319.0999999642,7092,NNB,A,6
7,test,2,0.0,2-Back,1,m,Thu Mar 27 2025 13:54:39 GMT-0500 (Central Daylight Time),601548.7999999523,008_y_m_n_a.png,O,m,1104,9,1,2120.0,599428.7999999523,7092,NNB,A,7
8,test,2,0.0,2-Back,1,m,Thu Mar 27 2025 13:54:39 GMT-0500 (Central Daylight Time),603932.1999999881,008_y_m_n_a.png,O,m,1357,10,1,2372.699999988079,601559.5,7092,NNB,A,8
9,test,2,0.0,2-Back,1,m,Thu Mar 27 2025 13:54:39 GMT-0500 (Central Daylight Time),606431.3999999762,043_m_f_n_a.png,O,m,1461,11,1,2471.199999988079,603960.1999999881,7092,NNB,A,9
10,test,2,0.0,2-Back,1,m,Thu Mar 27 2025 13:54:39 GMT-0500 (Central Daylight Time),608813.5999999642,010_y_f_n_a.png,O,m,1330,12,1,2348.099999964237,606465.5,7092,NNB,A,10
11,test,2,1.0,2-Back,1,z,Thu Mar 27 2025 13:54:39 GMT-0500 (Central Daylight Time),610863.3999999762,043_m_f_n_a.png,O,z,1004,13,1,2018.0,608845.3999999762,7092,NNB,A,11
12,test,2,0.0,2-Back,1,m,Thu Mar 27 2025 13:54:39 GMT-0500 (Central Daylight Time),613129.1999999881,053_o_m_n_a.png,O,m,1227,14,1,2239.600000023842,610889.5999999642,7092,NNB,A,12
13,test,2,0.0,2-Back,1,m,Thu Mar 27 2025 13:54:39 GMT-0500 (Central Daylight Time),615528.5999999642,053_o_m_n_a.png,O,m,1336,15,1,2364.099999964237,613164.5,7092,NNB,A,13
14,test,2,0.0,2-Back,1,m,Thu Mar 27 2025 13:54:39 GMT-0500 (Central Daylight Time),618209.8999999762,044_o_f_n_a.png,O,m,1616,16,1,2647.199999988079,615562.6999999881,7092,NNB,A,14
15,test,2,0.0,2-Back,1,m,Thu Mar 27 2025 13:54:39 GMT-0500 (Central Daylight Time),620493.3999999762,058_m_m_n_a.png,O,m,1255,17,1,2273.199999988079,618220.1999999881,7092,NNB,A,15
15,test,2,1.0,2-Back,0,z,Thu Mar 27 2025 13:54:39 GMT-0500 (Central Daylight Time),622675.0,044_o_f_n_a.png,O,m,1141,18,1,2152.900000035763,620522.0999999642,7092,NNB,A,16
0,test,3,1.0,2-Back,,,Thu Mar 27 2025 13:54:39 GMT-0500 (Central Daylight Time),622675.0,041_y_m_n_a.png,O,space,1352,1,1,2152.900000035763,620522.0999999642,7092,NNB,A,0
0,test,3,1.0,2-Back,,,Thu Mar 27 2025 13:54:39 GMT-0500 (Central Daylight Time),622675.0,041_y_m_n_a.png,O,space,1352,2,1,2152.900000035763,620522.0999999642,7092,NNB,A,0
1,test,3,0.0,2-Back,1,m,Thu Mar 27 2025 13:54:39 GMT-0500 (Central Daylight Time),631040.1999999881,044_o_f_n_a.png,O,m,811,3,1,1821.300000011921,629218.8999999762,7092,NNB,A,1
1,test,3,0.0,2-Back,0,m,Thu Mar 27 2025 13:54:39 GMT-0500 (Central Daylight Time),633189.2999999523,045_m_m_n_a.png,O,z,1098,4,1,2115.0,631074.2999999523,7092,NNB,A,2
1,test,3,1.0,2-Back,0,z,Thu Mar 27 2025 13:54:39 GMT-0500 (Central Daylight Time),636238.2999999523,044_o_f_n_a.png,O,None,2014,5,1,3026.099999964237,633212.1999999881,7092,NNB,A,3
1,test,3,0.0,2-Back,0,m,Thu Mar 27 2025 13:54:39 GMT-0500 (Central Daylight Time),638436.5,008_y_m_n_a.png,O,z,1145,6,1,2165.600000023842,636270.8999999762,7092,NNB,A,4
2,test,3,0.0,2-Back,1,m,Thu Mar 27 2025 13:54:39 GMT-0500 (Central Daylight Time),640586.2999999523,045_m_m_n_a.png,O,m,1116,7,1,2135.599999964237,638450.6999999881,7092,NNB,A,5
3,test,3,1.0,2-Back,1,z,Thu Mar 27 2025 13:54:39 GMT-0500 (Central Daylight Time),643169.1999999881,008_y_m_n_a.png,O,z,1552,8,1,2568.600000023842,640600.5999999642,7092,NNB,A,6
4,test,3,0.0,2-Back,1,m,Thu Mar 27 2025 13:54:39 GMT-0500 (Central Daylight Time),645269.0,010_y_f_n_a.png,O,m,1058,9,1,2069.600000023842,643199.3999999762,7092,NNB,A,7
5,test,3,0.0,2-Back,1,m,Thu Mar 27 2025 13:54:39 GMT-0500 (Central Daylight Time),647984.3999999762,058_m_m_n_a.png,O,m,1679,10,1,2686.399999976158,645298.0,7092,NNB,A,8
5,test,3,1.0,2-Back,0,z,Thu Mar 27 2025 13:54:39 GMT-0500 (Central Daylight Time),650383.2999999523,010_y_f_n_a.png,O,m,1346,11,1,2365.2999999523163,648018.0,7092,NNB,A,9
5,test,3,1.0,2-Back,0,z,Thu Mar 27 2025 13:54:39 GMT-0500 (Central Daylight Time),652632.8999999762,058_m_m_n_a.png,O,m,1185,12,1,2216.300000011921,650416.5999999642,7092,NNB,A,10
6,test,3,0.0,2-Back,1,m,Thu Mar 27 2025 13:54:39 GMT-0500 (Central Daylight Time),655248.5999999642,044_o_f_n_a.png,O,m,1569,13,1,2588.899999976158,652659.6999999881,7092,NNB,A,11
7,test,3,0.0,2-Back,1,m,Thu Mar 27 2025 13:54:39 GMT-0500 (Central Daylight Time),657347.6999999881,050_m_f_n_a.png,O,m,1040,14,1,2062.5,655285.1999999881,7092,NNB,A,12
8,test,3,0.0,2-Back,1,m,Thu Mar 27 2025 13:54:39 GMT-0500 (Central Daylight Time),659280.7999999523,046_o_m_n_a.png,O,m,877,15,1,1897.7999999523163,657383.0,7092,NNB,A,13
8,test,3,1.0,2-Back,0,z,Thu Mar 27 2025 13:54:39 GMT-0500 (Central Daylight Time),662179.6999999881,050_m_f_n_a.png,O,m,1849,16,1,2870.400000035763,659309.2999999523,7092,NNB,A,14
9,test,3,0.0,2-Back,1,m,Thu Mar 27 2025 13:54:39 GMT-0500 (Central Daylight Time),664229.0999999642,047_o_f_n_a.png,O,m,990,17,1,2014.3999999761581,662214.6999999881,7092,NNB,A,15
10,test,3,0.0,2-Back,1,m,Thu Mar 27 2025 13:54:39 GMT-0500 (Central Daylight Time),666678.0,047_o_f_n_a.png,O,m,1413,18,1,2420.100000023842,664257.8999999762,7092,NNB,A,16
0,test,4,0.0,2-Back,,,Thu Mar 27 2025 13:54:39 GMT-0500 (Central Daylight Time),666678.0,053_o_m_n_a.png,O,space,6628,1,1,2420.100000023842,664257.8999999762,7092,NNB,A,0
0,test,4,0.0,2-Back,,,Thu Mar 27 2025 13:54:39 GMT-0500 (Central Daylight Time),666678.0,063_y_f_n_a.png,O,space,6628,2,1,2420.100000023842,664257.8999999762,7092,NNB,A,0
1,test,4,1.0,2-Back,1,z,Thu Mar 27 2025 13:54:39 GMT-0500 (Central Daylight Time),680873.7999999523,053_o_m_n_a.png,O,z,1326,3,1,2340.399999976158,678533.3999999762,7092,NNB,A,1
1,test,4,1.0,2-Back,0,z,Thu Mar 27 2025 13:54:39 GMT-0500 (Central Daylight Time),683256.1999999881,063_y_f_n_a.png,O,m,1327,4,1,2350.600000023842,680905.5999999642,7092,NNB,A,2
2,test,4,0.0,2-Back,1,m,Thu Mar 27 2025 13:54:39 GMT-0500 (Central Daylight Time),685272.0999999642,044_o_f_n_a.png,O,m,970,5,1,1989.8999999761581,683282.1999999881,7092,NNB,A,3
3,test,4,0.0,2-Back,1,m,Thu Mar 27 2025 13:54:39 GMT-0500 (Central Daylight Time),687438.0999999642,044_o_f_n_a.png,O,m,1105,6,1,2132.099999964237,685306.0,7092,NNB,A,4
4,test,4,0.0,2-Back,1,m,Thu Mar 27 2025 13:54:39 GMT-0500 (Central Daylight Time),690087.1999999881,043_m_f_n_a.png,O,m,1587,7,1,2615.199999988079,687472.0,7092,NNB,A,5
5,test,4,0.0,2-Back,1,m,Thu Mar 27 2025 13:54:39 GMT-0500 (Central Daylight Time),692569.8999999762,008_y_m_n_a.png,O,m,1442,8,1,2452.100000023842,690117.7999999523,7092,NNB,A,6
6,test,4,1.0,2-Back,1,z,Thu Mar 27 2025 13:54:39 GMT-0500 (Central Daylight Time),694502.0999999642,043_m_f_n_a.png,O,z,879,9,1,1897.800000011921,692604.2999999523,7092,NNB,A,7
7,test,4,0.0,2-Back,1,m,Thu Mar 27 2025 13:54:39 GMT-0500 (Central Daylight Time),696335.1999999881,058_m_m_n_a.png,O,m,795,10,1,1804.6000000238419,694530.5999999642,7092,NNB,A,8
8,test,4,0.0,2-Back,1,m,Thu Mar 27 2025 13:54:39 GMT-0500 (Central Daylight Time),699101.0,008_y_m_n_a.png,O,m,1723,11,1,2739.7000000476837,696361.2999999523,7092,NNB,A,9
9,test,4,0.0,2-Back,1,m,Thu Mar 27 2025 13:54:39 GMT-0500 (Central Daylight Time),701283.0999999642,047_o_f_n_a.png,O,m,1116,12,1,2146.800000011921,699136.2999999523,7092,NNB,A,10
10,test,4,0.0,2-Back,1,m,Thu Mar 27 2025 13:54:39 GMT-0500 (Central Daylight Time),703299.1999999881,041_y_m_n_a.png,O,m,974,13,1,1986.699999988079,701312.5,7092,NNB,A,11
11,test,4,1.0,2-Back,1,z,Thu Mar 27 2025 13:54:39 GMT-0500 (Central Daylight Time),705182.0999999642,047_o_f_n_a.png,O,z,846,14,1,1856.5,703325.5999999642,7092,NNB,A,12
12,test,4,1.0,2-Back,1,z,Thu Mar 27 2025 13:54:39 GMT-0500 (Central Daylight Time),707314.5,041_y_m_n_a.png,O,z,1084,15,1,2105.100000023842,705209.3999999762,7092,NNB,A,13
13,test,4,0.0,2-Back,1,m,Thu Mar 27 2025 13:54:39 GMT-0500 (Central Daylight Time),709231.0,045_m_m_n_a.png,O,m,871,16,1,1890.5,707340.5,7092,NNB,A,14
14,test,4,0.0,2-Back,1,m,Thu Mar 27 2025 13:54:39 GMT-0500 (Central Daylight Time),711346.8999999762,050_m_f_n_a.png,O,m,1066,17,1,2087.899999976158,709259.0,7092,NNB,A,15
15,test,4,1.0,2-Back,1,z,Thu Mar 27 2025 13:54:39 GMT-0500 (Central Daylight Time),713179.5,045_m_m_n_a.png,O,z,774,18,1,1796.5,711383.0,7092,NNB,A,16
0,test,5,1.0,2-Back,,,Thu Mar 27 2025 13:54:39 GMT-0500 (Central Daylight Time),713179.5,041_y_m_n_a.png,O,space,1449,1,1,1796.5,711383.0,7092,NNB,A,0
0,test,5,1.0,2-Back,,,Thu Mar 27 2025 13:54:39 GMT-0500 (Central Daylight Time),713179.5,050_m_f_n_a.png,O,space,1449,2,1,1796.5,711383.0,7092,NNB,A,0
1,test,5,1.0,2-Back,1,z,Thu Mar 27 2025 13:54:39 GMT-0500 (Central Daylight Time),721810.2999999523,041_y_m_n_a.png,O,z,1001,3,1,2021.5,719788.7999999523,7092,NNB,A,1
2,test,5,1.0,2-Back,1,z,Thu Mar 27 2025 13:54:39 GMT-0500 (Central Daylight Time),724592.3999999762,050_m_f_n_a.png,O,z,1727,4,1,2746.5,721845.8999999762,7092,NNB,A,2
3,test,5,0.0,2-Back,1,m,Thu Mar 27 2025 13:54:39 GMT-0500 (Central Daylight Time),726458.3999999762,047_o_f_n_a.png,O,m,816,5,1,1838.6000000238419,724619.7999999523,7092,NNB,A,3
4,test,5,0.0,2-Back,1,m,Thu Mar 27 2025 13:54:39 GMT-0500 (Central Daylight Time),728707.5999999642,041_y_m_n_a.png,O,m,1190,6,1,2214.199999988079,726493.3999999762,7092,NNB,A,4
5,test,5,0.0,2-Back,1,m,Thu Mar 27 2025 13:54:39 GMT-0500 (Central Daylight Time),731007.0,010_y_f_n_a.png,O,m,1262,7,1,2272.800000011921,728734.1999999881,7092,NNB,A,5
6,test,5,0.0,2-Back,1,m,Thu Mar 27 2025 13:54:39 GMT-0500 (Central Daylight Time),734022.7999999523,047_o_f_n_a.png,O,m,1979,8,1,2985.899999976158,731036.8999999762,7092,NNB,A,6
7,test,5,1.0,2-Back,1,z,Thu Mar 27 2025 13:54:39 GMT-0500 (Central Daylight Time),736305.2999999523,010_y_f_n_a.png,O,z,1226,9,1,2245.599999964237,734059.6999999881,7092,NNB,A,7
8,test,5,0.0,2-Back,1,m,Thu Mar 27 2025 13:54:39 GMT-0500 (Central Daylight Time),738254.6999999881,046_o_m_n_a.png,O,m,888,10,1,1915.4000000357628,736339.2999999523,7092,NNB,A,8
9,test,5,0.0,2-Back,1,m,Thu Mar 27 2025 13:54:39 GMT-0500 (Central Daylight Time),740937.1999999881,043_m_f_n_a.png,O,m,1628,11,1,2644.5,738292.6999999881,7092,NNB,A,9
10,test,5,0.0,2-Back,1,m,Thu Mar 27 2025 13:54:39 GMT-0500 (Central Daylight Time),742786.1999999881,058_m_m_n_a.png,O,m,809,12,1,1818.199999988079,740968.0,7092,NNB,A,10
11,test,5,0.0,2-Back,1,m,Thu Mar 27 2025 13:54:39 GMT-0500 (Central Daylight Time),744635.0,046_o_m_n_a.png,O,m,799,13,1,1826.1000000238419,742808.8999999762,7092,NNB,A,11
11,test,5,1.0,2-Back,0,z,Thu Mar 27 2025 13:54:39 GMT-0500 (Central Daylight Time),746502.0,058_m_m_n_a.png,O,m,838,14,1,1857.9000000357628,744644.0999999642,7092,NNB,A,12
12,test,5,0.0,2-Back,1,m,Thu Mar 27 2025 13:54:39 GMT-0500 (Central Daylight Time),748918.0999999642,063_y_f_n_a.png,O,m,1364,15,1,2381.899999976158,746536.1999999881,7092,NNB,A,13
13,test,5,0.0,2-Back,1,m,Thu Mar 27 2025 13:54:39 GMT-0500 (Central Daylight Time),751433.3999999762,053_o_m_n_a.png,O,m,1476,16,1,2485.5,748947.8999999762,7092,NNB,A,14
14,test,5,0.0,2-Back,1,m,Thu Mar 27 2025 13:54:39 GMT-0500 (Central Daylight Time),753316.8999999762,043_m_f_n_a.png,O,m,831,17,1,1851.699999988079,751465.1999999881,7092,NNB,A,15
15,test,5,1.0,2-Back,1,z,Thu Mar 27 2025 13:54:39 GMT-0500 (Central Daylight Time),755232.0,053_o_m_n_a.png,O,z,861,18,1,1880.300000011921,753351.6999999881,7092,NNB,A,16
