acc_sum,block,block_c,change,condition,correct,correct_response,datetime,endtime,face,project,response,response_time,row_sel,session_number,start_end,starttime,subject_id,task,task_vers,trial
0,prac,1,,1-Back,,,Mon Apr 07 2025 09:28:31 GMT-0500 (Central Daylight Time),,124_o_f_d_a.png,O,space,7222,1,1,,,7118,VNB,A,0
1,prac,1,0.0,1-Back,1,m,Mon Apr 07 2025 09:28:31 GMT-0500 (Central Daylight Time),98585.5,071_y_f_n_a.png,O,m,1321,2,1,2145.899999976158,96439.60000002384,7118,VNB,A,1
2,prac,1,0.0,1-Back,1,m,Mon Apr 07 2025 09:28:31 GMT-0500 (Central Daylight Time),101301.0,165_m_m_h_a.png,O,m,1849,3,1,2677.100000023842,98623.89999997616,7118,VNB,A,2
3,prac,1,0.0,1-Back,1,m,Mon Apr 07 2025 09:28:31 GMT-0500 (Central Daylight Time),103167.39999997616,109_y_m_d_a.png,O,m,1011,4,1,1842.5,101324.89999997616,7118,VNB,A,3
4,prac,1,0.0,1-Back,1,m,Mon Apr 07 2025 09:28:31 GMT-0500 (Central Daylight Time),105699.89999997616,124_o_f_n_a.png,O,m,1632,5,1,2507.399999976158,103192.5,7118,VNB,A,4
4,prac,1,1.0,1-Back,0,z,Mon Apr 07 2025 09:28:31 GMT-0500 (Central Daylight Time),107664.89999997616,109_y_m_n_a.png,O,m,1095,6,1,1928.7999999523163,105736.10000002384,7118,VNB,A,5
5,prac,1,0.0,1-Back,1,m,Mon Apr 07 2025 09:28:31 GMT-0500 (Central Daylight Time),110081.89999997616,039_o_m_h_a.png,O,m,1594,7,1,2404.5999999046326,107677.30000007153,7118,VNB,A,6
6,prac,1,0.0,1-Back,1,m,Mon Apr 07 2025 09:28:31 GMT-0500 (Central Daylight Time),111914.5,139_m_f_d_a.png,O,m,981,8,1,1797.3999999761581,110117.10000002384,7118,VNB,A,7
7,prac,1,1.0,1-Back,1,z,Mon Apr 07 2025 09:28:31 GMT-0500 (Central Daylight Time),113913.60000002384,071_y_f_d_a.png,O,z,1125,9,1,1965.8999999761581,111947.70000004768,7118,VNB,A,8
8,prac,1,0.0,1-Back,1,m,Mon Apr 07 2025 09:28:31 GMT-0500 (Central Daylight Time),115863.20000004768,165_m_m_n_a.png,O,m,1077,10,1,1909.8000000715256,113953.39999997616,7118,VNB,A,9
8,prac,1,0.0,1-Back,0,m,Mon Apr 07 2025 09:28:31 GMT-0500 (Central Daylight Time),118311.89999997616,124_o_f_h_a.png,O,z,1547,11,1,2408.5999999046326,115903.30000007153,7118,VNB,A,10
9,prac,1,0.0,1-Back,1,m,Mon Apr 07 2025 09:28:31 GMT-0500 (Central Daylight Time),120211.80000007153,109_y_m_d_a.png,O,m,1053,12,1,1873.6000000238419,118338.20000004768,7118,VNB,A,11
0,test,1,0.0,1-Back,,,Mon Apr 07 2025 09:28:31 GMT-0500 (Central Daylight Time),120211.80000007153,071_y_f_d_a.png,O,space,2905,1,1,1873.6000000238419,118338.20000004768,7118,VNB,A,0
1,test,1,0.0,1-Back,1,m,Mon Apr 07 2025 09:28:31 GMT-0500 (Central Daylight Time),131458.0,139_m_f_n_a.png,O,m,1151,2,1,2171.6999999284744,129286.30000007153,7118,VNB,A,1
1,test,1,0.0,1-Back,0,m,Mon Apr 07 2025 09:28:31 GMT-0500 (Central Daylight Time),133807.30000007153,039_o_m_h_a.png,O,z,1287,3,1,2317.600000023842,131489.70000004768,7118,VNB,A,2
2,test,1,1.0,1-Back,1,z,Mon Apr 07 2025 09:28:31 GMT-0500 (Central Daylight Time),136289.5,165_m_m_h_a.png,O,z,1433,4,1,2450.0,133839.5,7118,VNB,A,3
3,test,1,0.0,1-Back,1,m,Mon Apr 07 2025 09:28:31 GMT-0500 (Central Daylight Time),138389.0,124_o_f_n_a.png,O,m,1039,5,1,2066.1999999284744,136322.80000007153,7118,VNB,A,4
4,test,1,0.0,1-Back,1,m,Mon Apr 07 2025 09:28:31 GMT-0500 (Central Daylight Time),140420.89999997616,109_y_m_d_a.png,O,m,987,6,1,2006.5,138414.39999997616,7118,VNB,A,5
5,test,1,1.0,1-Back,1,z,Mon Apr 07 2025 09:28:31 GMT-0500 (Central Daylight Time),142604.20000004768,139_m_f_d_a.png,O,z,1157,7,1,2173.8000000715256,140430.39999997616,7118,VNB,A,6
6,test,1,0.0,1-Back,1,m,Mon Apr 07 2025 09:28:31 GMT-0500 (Central Daylight Time),144820.0,071_y_f_h_a.png,O,m,1173,8,1,2186.2999999523163,142633.70000004768,7118,VNB,A,7
7,test,1,0.0,1-Back,1,m,Mon Apr 07 2025 09:28:31 GMT-0500 (Central Daylight Time),147168.5,039_o_m_n_a.png,O,m,1283,9,1,2315.100000023842,144853.39999997616,7118,VNB,A,8
7,test,1,0.0,1-Back,0,m,Mon Apr 07 2025 09:28:31 GMT-0500 (Central Daylight Time),149485.10000002384,109_y_m_h_a.png,O,z,1280,10,1,2297.2999999523163,147187.80000007153,7118,VNB,A,9
8,test,1,0.0,1-Back,1,m,Mon Apr 07 2025 09:28:31 GMT-0500 (Central Daylight Time),151401.30000007153,039_o_m_d_a.png,O,m,878,11,1,1892.7000000476837,149508.60000002384,7118,VNB,A,10
9,test,1,1.0,1-Back,1,z,Mon Apr 07 2025 09:28:31 GMT-0500 (Central Daylight Time),153900.0,124_o_f_d_a.png,O,z,1456,12,1,2471.600000023842,151428.39999997616,7118,VNB,A,11
10,test,1,0.0,1-Back,1,m,Mon Apr 07 2025 09:28:31 GMT-0500 (Central Daylight Time),156283.0,165_m_m_n_a.png,O,m,1341,13,1,2362.399999976158,153920.60000002384,7118,VNB,A,12
11,test,1,1.0,1-Back,1,z,Mon Apr 07 2025 09:28:31 GMT-0500 (Central Daylight Time),158415.80000007153,071_y_f_n_a.png,O,z,1094,14,1,2101.7000000476837,156314.10000002384,7118,VNB,A,13
12,test,1,0.0,1-Back,1,m,Mon Apr 07 2025 09:28:31 GMT-0500 (Central Daylight Time),160481.80000007153,139_m_f_h_a.png,O,m,1018,15,1,2036.2000000476837,158445.60000002384,7118,VNB,A,14
13,test,1,0.0,1-Back,1,m,Mon Apr 07 2025 09:28:31 GMT-0500 (Central Daylight Time),162597.39999997616,165_m_m_d_a.png,O,m,1055,16,1,2083.1999999284744,160514.20000004768,7118,VNB,A,15
14,test,1,0.0,1-Back,1,m,Mon Apr 07 2025 09:28:31 GMT-0500 (Central Daylight Time),164630.80000007153,109_y_m_n_a.png,O,m,988,17,1,2009.1000000238419,162621.70000004768,7118,VNB,A,16
15,test,1,0.0,1-Back,1,m,Mon Apr 07 2025 09:28:31 GMT-0500 (Central Daylight Time),166664.20000004768,124_o_f_h_a.png,O,m,987,18,1,2007.6000000238419,164656.60000002384,7118,VNB,A,17
0,test,2,0.0,1-Back,,,Mon Apr 07 2025 09:28:31 GMT-0500 (Central Daylight Time),166664.20000004768,109_y_m_n_a.png,O,space,1168,1,1,2007.6000000238419,164656.60000002384,7118,VNB,A,0
1,test,2,0.0,1-Back,1,m,Mon Apr 07 2025 09:28:31 GMT-0500 (Central Daylight Time),172261.5,071_y_f_h_a.png,O,m,1339,2,1,2354.5,169907.0,7118,VNB,A,1
2,test,2,1.0,1-Back,1,m,Mon Apr 07 2025 09:28:31 GMT-0500 (Central Daylight Time),174093.70000004768,039_o_m_n_a.png,O,m,796,3,1,1803.2000000476837,172290.5,7118,VNB,A,2
3,test,2,0.0,1-Back,1,m,Mon Apr 07 2025 09:28:31 GMT-0500 (Central Daylight Time),176008.89999997616,139_m_f_d_a.png,O,m,866,4,1,1886.5,174122.39999997616,7118,VNB,A,3
4,test,2,0.0,1-Back,1,z,Mon Apr 07 2025 09:28:31 GMT-0500 (Central Daylight Time),178009.30000007153,165_m_m_d_a.png,O,z,978,5,1,1988.7000000476837,176020.60000002384,7118,VNB,A,4
5,test,2,0.0,1-Back,1,m,Mon Apr 07 2025 09:28:31 GMT-0500 (Central Daylight Time),180291.89999997616,109_y_m_h_a.png,O,m,1224,6,1,2248.5,178043.39999997616,7118,VNB,A,5
5,test,2,1.0,1-Back,0,z,Mon Apr 07 2025 09:28:31 GMT-0500 (Central Daylight Time),182391.30000007153,124_o_f_h_a.png,O,m,1037,7,1,2066.3000000715256,180325.0,7118,VNB,A,6
6,test,2,0.0,1-Back,1,m,Mon Apr 07 2025 09:28:31 GMT-0500 (Central Daylight Time),184690.39999997616,139_m_f_n_a.png,O,m,1242,8,1,2264.5999999046326,182425.80000007153,7118,VNB,A,7
6,test,2,0.0,1-Back,0,m,Mon Apr 07 2025 09:28:31 GMT-0500 (Central Daylight Time),186922.89999997616,071_y_f_d_a.png,O,z,1183,9,1,2205.5999999046326,184717.30000007153,7118,VNB,A,8
7,test,2,0.0,1-Back,1,m,Mon Apr 07 2025 09:28:31 GMT-0500 (Central Daylight Time),189321.30000007153,165_m_m_n_a.png,O,m,1340,10,1,2364.7000000476837,186956.60000002384,7118,VNB,A,9
8,test,2,1.0,1-Back,1,m,Mon Apr 07 2025 09:28:31 GMT-0500 (Central Daylight Time),191788.10000002384,139_m_f_h_a.png,O,m,1440,11,1,2457.399999976158,189330.70000004768,7118,VNB,A,10
9,test,2,0.0,1-Back,1,z,Mon Apr 07 2025 09:28:31 GMT-0500 (Central Daylight Time),193937.30000007153,039_o_m_h_a.png,O,z,1084,12,1,2117.4000000953674,191819.89999997616,7118,VNB,A,11
10,test,2,0.0,1-Back,1,m,Mon Apr 07 2025 09:28:31 GMT-0500 (Central Daylight Time),196020.30000007153,109_y_m_d_a.png,O,m,1023,13,1,2050.100000023842,193970.20000004768,7118,VNB,A,12
11,test,2,0.0,1-Back,1,m,Mon Apr 07 2025 09:28:31 GMT-0500 (Central Daylight Time),198502.30000007153,124_o_f_n_a.png,O,m,1439,14,1,2452.0,196050.30000007153,7118,VNB,A,13
12,test,2,0.0,1-Back,1,z,Mon Apr 07 2025 09:28:31 GMT-0500 (Central Daylight Time),200834.5,071_y_f_n_a.png,O,z,1290,15,1,2308.899999976158,198525.60000002384,7118,VNB,A,14
13,test,2,1.0,1-Back,1,m,Mon Apr 07 2025 09:28:31 GMT-0500 (Central Daylight Time),203067.60000002384,165_m_m_h_a.png,O,m,1190,16,1,2216.2000000476837,200851.39999997616,7118,VNB,A,15
14,test,2,0.0,1-Back,1,m,Mon Apr 07 2025 09:28:31 GMT-0500 (Central Daylight Time),205417.0,124_o_f_d_a.png,O,m,1302,17,1,2318.2999999523163,203098.70000004768,7118,VNB,A,16
15,test,2,1.0,1-Back,1,z,Mon Apr 07 2025 09:28:31 GMT-0500 (Central Daylight Time),207516.10000002384,039_o_m_d_a.png,O,z,1049,18,1,2072.100000023842,205444.0,7118,VNB,A,17
0,test,3,1.0,1-Back,,,Mon Apr 07 2025 09:28:31 GMT-0500 (Central Daylight Time),207516.10000002384,124_o_f_h_a.png,O,space,1181,1,1,2072.100000023842,205444.0,7118,VNB,A,0
1,test,3,0.0,1-Back,1,m,Mon Apr 07 2025 09:28:31 GMT-0500 (Central Daylight Time),213181.10000002384,139_m_f_d_a.png,O,m,1323,2,1,2339.0,210842.10000002384,7118,VNB,A,1
2,test,3,1.0,1-Back,1,m,Mon Apr 07 2025 09:28:31 GMT-0500 (Central Daylight Time),216113.30000007153,165_m_m_n_a.png,O,m,1885,3,1,2901.9000000953674,213211.39999997616,7118,VNB,A,2
3,test,3,0.0,1-Back,1,z,Mon Apr 07 2025 09:28:31 GMT-0500 (Central Daylight Time),218395.80000007153,124_o_f_n_a.png,O,z,1223,4,1,2247.4000000953674,216148.39999997616,7118,VNB,A,3
4,test,3,1.0,1-Back,1,m,Mon Apr 07 2025 09:28:31 GMT-0500 (Central Daylight Time),220445.39999997616,039_o_m_d_a.png,O,m,997,5,1,2014.2999999523163,218431.10000002384,7118,VNB,A,4
5,test,3,0.0,1-Back,1,m,Mon Apr 07 2025 09:28:31 GMT-0500 (Central Daylight Time),222894.39999997616,071_y_f_h_a.png,O,m,1404,6,1,2419.899999976158,220474.5,7118,VNB,A,5
6,test,3,0.0,1-Back,1,z,Mon Apr 07 2025 09:28:31 GMT-0500 (Central Daylight Time),224810.89999997616,109_y_m_h_a.png,O,z,850,7,1,1883.2999999523163,222927.60000002384,7118,VNB,A,6
7,test,3,0.0,1-Back,1,m,Mon Apr 07 2025 09:28:31 GMT-0500 (Central Daylight Time),226926.30000007153,139_m_f_n_a.png,O,m,1062,8,1,2080.7000000476837,224845.60000002384,7118,VNB,A,7
8,test,3,0.0,1-Back,1,m,Mon Apr 07 2025 09:28:31 GMT-0500 (Central Daylight Time),229175.0,071_y_f_d_a.png,O,m,1202,9,1,2222.5,226952.5,7118,VNB,A,8
8,test,3,1.0,1-Back,0,m,Mon Apr 07 2025 09:28:31 GMT-0500 (Central Daylight Time),232208.5,039_o_m_n_a.png,O,None,2014,10,1,3023.6999999284744,229184.80000007153,7118,VNB,A,9
9,test,3,0.0,1-Back,1,m,Mon Apr 07 2025 09:28:31 GMT-0500 (Central Daylight Time),234523.70000004768,165_m_m_h_a.png,O,m,1281,11,1,2288.899999976158,232234.80000007153,7118,VNB,A,10
10,test,3,0.0,1-Back,1,z,Mon Apr 07 2025 09:28:31 GMT-0500 (Central Daylight Time),236723.60000002384,139_m_f_h_a.png,O,z,1149,12,1,2184.100000023842,234539.5,7118,VNB,A,11
11,test,3,1.0,1-Back,1,m,Mon Apr 07 2025 09:28:31 GMT-0500 (Central Daylight Time),238605.80000007153,124_o_f_d_a.png,O,m,830,13,1,1847.6000000238419,236758.20000004768,7118,VNB,A,12
12,test,3,0.0,1-Back,1,z,Mon Apr 07 2025 09:28:31 GMT-0500 (Central Daylight Time),240938.5,165_m_m_d_a.png,O,z,1283,14,1,2309.600000023842,238628.89999997616,7118,VNB,A,13
13,test,3,0.0,1-Back,1,m,Mon Apr 07 2025 09:28:31 GMT-0500 (Central Daylight Time),242971.5,109_y_m_n_a.png,O,m,983,15,1,2005.6000000238419,240965.89999997616,7118,VNB,A,14
14,test,3,1.0,1-Back,1,m,Mon Apr 07 2025 09:28:31 GMT-0500 (Central Daylight Time),245170.60000002384,039_o_m_h_a.png,O,m,1158,16,1,2169.899999976158,243000.70000004768,7118,VNB,A,15
15,test,3,0.0,1-Back,1,m,Mon Apr 07 2025 09:28:31 GMT-0500 (Central Daylight Time),247703.0,109_y_m_d_a.png,O,m,1487,17,1,2507.899999976158,245195.10000002384,7118,VNB,A,16
16,test,3,1.0,1-Back,1,m,Mon Apr 07 2025 09:28:31 GMT-0500 (Central Daylight Time),249802.30000007153,071_y_f_n_a.png,O,m,1042,18,1,2064.7000000476837,247737.60000002384,7118,VNB,A,17
0,test,4,1.0,1-Back,,,Mon Apr 07 2025 09:28:31 GMT-0500 (Central Daylight Time),249802.30000007153,165_m_m_d_a.png,O,space,1071,1,1,2064.7000000476837,247737.60000002384,7118,VNB,A,0
0,test,4,0.0,1-Back,0,z,Mon Apr 07 2025 09:28:31 GMT-0500 (Central Daylight Time),255250.5,039_o_m_d_a.png,O,m,1234,2,1,2256.600000023842,252993.89999997616,7118,VNB,A,1
1,test,4,0.0,1-Back,1,m,Mon Apr 07 2025 09:28:31 GMT-0500 (Central Daylight Time),257500.0,109_y_m_h_a.png,O,m,1201,3,1,2223.5,255276.5,7118,VNB,A,2
2,test,4,0.0,1-Back,1,m,Mon Apr 07 2025 09:28:31 GMT-0500 (Central Daylight Time),259915.60000002384,139_m_f_n_a.png,O,m,1374,4,1,2391.7000000476837,257523.89999997616,7118,VNB,A,3
3,test,4,1.0,1-Back,1,m,Mon Apr 07 2025 09:28:31 GMT-0500 (Central Daylight Time),261848.39999997616,124_o_f_h_a.png,O,m,877,5,1,1899.3999999761581,259949.0,7118,VNB,A,4
4,test,4,0.0,1-Back,1,m,Mon Apr 07 2025 09:28:31 GMT-0500 (Central Daylight Time),263731.39999997616,165_m_m_n_a.png,O,m,833,6,1,1856.8999999761581,261874.5,7118,VNB,A,5
5,test,4,0.0,1-Back,1,m,Mon Apr 07 2025 09:28:31 GMT-0500 (Central Daylight Time),266046.0,109_y_m_d_a.png,O,m,1268,7,1,2285.1999999284744,263760.8000000715,7118,VNB,A,6
6,test,4,1.0,1-Back,1,z,Mon Apr 07 2025 09:28:31 GMT-0500 (Central Daylight Time),268012.8000000715,071_y_f_d_a.png,O,z,949,8,1,1953.2000000476837,266059.60000002384,7118,VNB,A,7
7,test,4,0.0,1-Back,1,m,Mon Apr 07 2025 09:28:31 GMT-0500 (Central Daylight Time),270228.7000000477,139_m_f_h_a.png,O,m,1156,9,1,2182.5,268046.2000000477,7118,VNB,A,8
8,test,4,0.0,1-Back,1,z,Mon Apr 07 2025 09:28:31 GMT-0500 (Central Daylight Time),272544.8000000715,039_o_m_h_a.png,O,z,1276,10,1,2294.3000000715256,270250.5,7118,VNB,A,9
9,test,4,1.0,1-Back,1,m,Mon Apr 07 2025 09:28:31 GMT-0500 (Central Daylight Time),274227.8000000715,124_o_f_n_a.png,O,m,616,11,1,1648.3000000715256,272579.5,7118,VNB,A,10
10,test,4,0.0,1-Back,1,m,Mon Apr 07 2025 09:28:31 GMT-0500 (Central Daylight Time),277143.60000002384,139_m_f_d_a.png,O,m,1863,12,1,2884.100000023842,274259.5,7118,VNB,A,11
11,test,4,0.0,1-Back,1,m,Mon Apr 07 2025 09:28:31 GMT-0500 (Central Daylight Time),279108.5,071_y_f_n_a.png,O,m,929,13,1,1935.6000000238419,277172.89999997616,7118,VNB,A,12
12,test,4,0.0,1-Back,1,m,Mon Apr 07 2025 09:28:31 GMT-0500 (Central Daylight Time),281374.39999997616,124_o_f_d_a.png,O,m,1238,14,1,2256.7999999523163,279117.60000002384,7118,VNB,A,13
13,test,4,0.0,1-Back,1,m,Mon Apr 07 2025 09:28:31 GMT-0500 (Central Daylight Time),283474.5,071_y_f_h_a.png,O,m,1075,15,1,2090.6999999284744,281383.8000000715,7118,VNB,A,14
14,test,4,1.0,1-Back,1,z,Mon Apr 07 2025 09:28:31 GMT-0500 (Central Daylight Time),286157.3000000715,165_m_m_h_a.png,O,z,1639,16,1,2653.3000000715256,283504.0,7118,VNB,A,15
15,test,4,0.0,1-Back,1,m,Mon Apr 07 2025 09:28:31 GMT-0500 (Central Daylight Time),288123.10000002384,039_o_m_n_a.png,O,m,900,17,1,1932.1000000238419,286191.0,7118,VNB,A,16
16,test,4,1.0,1-Back,1,z,Mon Apr 07 2025 09:28:31 GMT-0500 (Central Daylight Time),290672.39999997616,109_y_m_n_a.png,O,z,1502,18,1,2520.5999999046326,288151.8000000715,7118,VNB,A,17
0,test,5,1.0,1-Back,,,Mon Apr 07 2025 09:28:31 GMT-0500 (Central Daylight Time),290672.39999997616,039_o_m_n_a.png,O,space,1361,1,1,2520.5999999046326,288151.8000000715,7118,VNB,A,0
1,test,5,1.0,1-Back,1,m,Mon Apr 07 2025 09:28:31 GMT-0500 (Central Daylight Time),296821.0,124_o_f_h_a.png,O,m,1714,2,1,2724.600000023842,294096.39999997616,7118,VNB,A,1
2,test,5,0.0,1-Back,1,m,Mon Apr 07 2025 09:28:31 GMT-0500 (Central Daylight Time),298853.3000000715,109_y_m_d_a.png,O,m,998,3,1,2002.3000000715256,296851.0,7118,VNB,A,2
3,test,5,0.0,1-Back,1,z,Mon Apr 07 2025 09:28:31 GMT-0500 (Central Daylight Time),301301.8000000715,039_o_m_d_a.png,O,z,1396,4,1,2415.100000023842,298886.7000000477,7118,VNB,A,3
4,test,5,0.0,1-Back,1,m,Mon Apr 07 2025 09:28:31 GMT-0500 (Central Daylight Time),303433.7000000477,139_m_f_h_a.png,O,m,1089,5,1,2108.2000000476837,301325.5,7118,VNB,A,4
5,test,5,0.0,1-Back,1,m,Mon Apr 07 2025 09:28:31 GMT-0500 (Central Daylight Time),305683.89999997616,071_y_f_n_a.png,O,m,1216,6,1,2241.2999999523163,303442.60000002384,7118,VNB,A,5
6,test,5,1.0,1-Back,1,z,Mon Apr 07 2025 09:28:31 GMT-0500 (Central Daylight Time),308216.60000002384,124_o_f_n_a.png,O,z,1469,7,1,2499.399999976158,305717.2000000477,7118,VNB,A,6
7,test,5,0.0,1-Back,1,m,Mon Apr 07 2025 09:28:31 GMT-0500 (Central Daylight Time),310032.89999997616,139_m_f_d_a.png,O,m,762,8,1,1783.8999999761581,308249.0,7118,VNB,A,7
7,test,5,0.0,1-Back,0,m,Mon Apr 07 2025 09:28:31 GMT-0500 (Central Daylight Time),313081.7000000477,109_y_m_h_a.png,O,None,2014,9,1,3023.899999976158,310057.8000000715,7118,VNB,A,8
8,test,5,0.0,1-Back,1,m,Mon Apr 07 2025 09:28:31 GMT-0500 (Central Daylight Time),315380.89999997616,071_y_f_d_a.png,O,m,1264,10,1,2270.0999999046326,313110.8000000715,7118,VNB,A,9
9,test,5,0.0,1-Back,1,m,Mon Apr 07 2025 09:28:31 GMT-0500 (Central Daylight Time),317746.7000000477,165_m_m_n_a.png,O,m,1300,11,1,2331.600000023842,315415.10000002384,7118,VNB,A,10
10,test,5,1.0,1-Back,1,z,Mon Apr 07 2025 09:28:31 GMT-0500 (Central Daylight Time),319896.0,139_m_f_n_a.png,O,z,1087,12,1,2113.0,317783.0,7118,VNB,A,11
11,test,5,0.0,1-Back,1,m,Mon Apr 07 2025 09:28:31 GMT-0500 (Central Daylight Time),321778.89999997616,039_o_m_h_a.png,O,m,842,13,1,1855.1999999284744,319923.7000000477,7118,VNB,A,12
12,test,5,0.0,1-Back,1,z,Mon Apr 07 2025 09:28:31 GMT-0500 (Central Daylight Time),324177.89999997616,165_m_m_h_a.png,O,z,1359,14,1,2368.0,321809.89999997616,7118,VNB,A,13
13,test,5,1.0,1-Back,1,m,Mon Apr 07 2025 09:28:31 GMT-0500 (Central Daylight Time),326393.89999997616,124_o_f_d_a.png,O,m,1175,15,1,2184.5,324209.39999997616,7118,VNB,A,14
14,test,5,0.0,1-Back,1,m,Mon Apr 07 2025 09:28:31 GMT-0500 (Central Daylight Time),328759.8000000715,109_y_m_n_a.png,O,m,1311,16,1,2333.2000000476837,326426.60000002384,7118,VNB,A,15
15,test,5,0.0,1-Back,1,m,Mon Apr 07 2025 09:28:31 GMT-0500 (Central Daylight Time),330825.5,071_y_f_h_a.png,O,m,1001,17,1,2028.1999999284744,328797.3000000715,7118,VNB,A,16
16,test,5,0.0,1-Back,1,m,Mon Apr 07 2025 09:28:31 GMT-0500 (Central Daylight Time),333025.10000002384,165_m_m_d_a.png,O,m,1143,18,1,2166.2999999523163,330858.8000000715,7118,VNB,A,17
0,prac,1,0.0,2-Back,,,Mon Apr 07 2025 09:28:31 GMT-0500 (Central Daylight Time),333025.10000002384,139_m_f_n_a.png,O,space,4637,1,1,2166.2999999523163,330858.8000000715,7118,VNB,A,0
0,prac,1,0.0,2-Back,,,Mon Apr 07 2025 09:28:31 GMT-0500 (Central Daylight Time),333025.10000002384,124_o_f_h_a.png,O,space,4637,2,1,2166.2999999523163,330858.8000000715,7118,VNB,A,0
1,prac,1,0.0,2-Back,1,m,Mon Apr 07 2025 09:28:31 GMT-0500 (Central Daylight Time),425412.3000000715,039_o_m_d_a.png,O,m,1605,3,1,2403.2000000476837,423009.10000002384,7118,VNB,A,1
2,prac,1,1.0,2-Back,1,z,Mon Apr 07 2025 09:28:31 GMT-0500 (Central Daylight Time),427677.89999997616,165_m_m_h_a.png,O,z,1400,4,1,2235.5999999046326,425442.3000000715,7118,VNB,A,2
3,prac,1,0.0,2-Back,1,m,Mon Apr 07 2025 09:28:31 GMT-0500 (Central Daylight Time),430493.10000002384,071_y_f_n_a.png,O,m,1946,5,1,2780.100000023842,427713.0,7118,VNB,A,3
4,prac,1,1.0,2-Back,1,z,Mon Apr 07 2025 09:28:31 GMT-0500 (Central Daylight Time),432576.0,039_o_m_h_a.png,O,z,1226,6,1,2045.2999999523163,430530.7000000477,7118,VNB,A,4
4,prac,1,1.0,2-Back,0,z,Mon Apr 07 2025 09:28:31 GMT-0500 (Central Daylight Time),435441.3000000715,109_y_m_n_a.png,O,None,2013,7,1,2834.5,432606.8000000715,7118,VNB,A,5
5,prac,1,0.0,2-Back,1,m,Mon Apr 07 2025 09:28:31 GMT-0500 (Central Daylight Time),438090.60000002384,139_m_f_d_a.png,O,m,1780,8,1,2609.899999976158,435480.7000000477,7118,VNB,A,6
5,prac,1,0.0,2-Back,0,m,Mon Apr 07 2025 09:28:31 GMT-0500 (Central Daylight Time),440989.5,124_o_f_d_a.png,O,None,2009,9,1,2865.899999976158,438123.60000002384,7118,VNB,A,7
6,prac,1,0.0,2-Back,1,m,Mon Apr 07 2025 09:28:31 GMT-0500 (Central Daylight Time),443489.0,165_m_m_h_a.png,O,m,1628,10,1,2458.899999976158,441030.10000002384,7118,VNB,A,8
7,prac,1,1.0,2-Back,1,z,Mon Apr 07 2025 09:28:31 GMT-0500 (Central Daylight Time),446237.8000000715,071_y_f_d_a.png,O,z,1872,11,1,2714.0,443523.8000000715,7118,VNB,A,9
8,prac,1,0.0,2-Back,1,m,Mon Apr 07 2025 09:28:31 GMT-0500 (Central Daylight Time),448220.5,039_o_m_n_a.png,O,m,1113,12,1,1942.3999999761581,446278.10000002384,7118,VNB,A,10
0,test,1,0.0,2-Back,,,Mon Apr 07 2025 09:28:31 GMT-0500 (Central Daylight Time),448220.5,109_y_m_h_a.png,O,space,2754,1,1,1942.3999999761581,446278.10000002384,7118,VNB,A,0
0,test,1,0.0,2-Back,,,Mon Apr 07 2025 09:28:31 GMT-0500 (Central Daylight Time),448220.5,124_o_f_n_a.png,O,space,2754,2,1,1942.3999999761581,446278.10000002384,7118,VNB,A,0
1,test,1,0.0,2-Back,1,z,Mon Apr 07 2025 09:28:31 GMT-0500 (Central Daylight Time),470430.2000000477,039_o_m_h_a.png,O,z,721,3,1,1737.6000000238419,468692.60000002384,7118,VNB,A,1
2,test,1,0.0,2-Back,1,m,Mon Apr 07 2025 09:28:31 GMT-0500 (Central Daylight Time),473462.2000000477,139_m_f_d_a.png,O,m,1995,4,1,3001.600000023842,470460.60000002384,7118,VNB,A,2
3,test,1,1.0,2-Back,1,m,Mon Apr 07 2025 09:28:31 GMT-0500 (Central Daylight Time),476327.8000000715,109_y_m_n_a.png,O,m,1829,5,1,2836.4000000953674,473491.39999997616,7118,VNB,A,3
4,test,1,0.0,2-Back,1,z,Mon Apr 07 2025 09:28:31 GMT-0500 (Central Daylight Time),478577.3000000715,071_y_f_d_a.png,O,z,1195,6,1,2209.3000000715256,476368.0,7118,VNB,A,4
5,test,1,0.0,2-Back,1,m,Mon Apr 07 2025 09:28:31 GMT-0500 (Central Daylight Time),481009.8000000715,165_m_m_h_a.png,O,m,1369,7,1,2396.600000023842,478613.2000000477,7118,VNB,A,5
6,test,1,1.0,2-Back,1,m,Mon Apr 07 2025 09:28:31 GMT-0500 (Central Daylight Time),483259.0,071_y_f_n_a.png,O,m,1191,8,1,2214.0,481045.0,7118,VNB,A,6
7,test,1,0.0,2-Back,1,z,Mon Apr 07 2025 09:28:31 GMT-0500 (Central Daylight Time),485308.3000000715,124_o_f_h_a.png,O,z,982,9,1,2010.2000000476837,483298.10000002384,7118,VNB,A,7
8,test,1,0.0,2-Back,1,m,Mon Apr 07 2025 09:28:31 GMT-0500 (Central Daylight Time),487624.39999997616,039_o_m_d_a.png,O,m,1278,10,1,2284.6999999284744,485339.7000000477,7118,VNB,A,8
9,test,1,1.0,2-Back,1,m,Mon Apr 07 2025 09:28:31 GMT-0500 (Central Daylight Time),489940.10000002384,165_m_m_d_a.png,O,m,1265,11,1,2285.600000023842,487654.5,7118,VNB,A,9
10,test,1,0.0,2-Back,1,m,Mon Apr 07 2025 09:28:31 GMT-0500 (Central Daylight Time),492606.0,139_m_f_n_a.png,O,m,1622,12,1,2640.6999999284744,489965.3000000715,7118,VNB,A,10
10,test,1,0.0,2-Back,0,m,Mon Apr 07 2025 09:28:31 GMT-0500 (Central Daylight Time),494688.39999997616,071_y_f_h_a.png,O,z,1036,13,1,2055.0999999046326,492633.3000000715,7118,VNB,A,11
11,test,1,0.0,2-Back,1,z,Mon Apr 07 2025 09:28:31 GMT-0500 (Central Daylight Time),497304.5,165_m_m_n_a.png,O,z,1552,14,1,2581.7999999523163,494722.7000000477,7118,VNB,A,12
12,test,1,0.0,2-Back,1,m,Mon Apr 07 2025 09:28:31 GMT-0500 (Central Daylight Time),499437.0,109_y_m_d_a.png,O,m,1073,15,1,2097.6999999284744,497339.3000000715,7118,VNB,A,13
13,test,1,1.0,2-Back,1,m,Mon Apr 07 2025 09:28:31 GMT-0500 (Central Daylight Time),502302.8000000715,139_m_f_h_a.png,O,m,1804,16,1,2833.3000000715256,499469.5,7118,VNB,A,14
13,test,1,0.0,2-Back,0,z,Mon Apr 07 2025 09:28:31 GMT-0500 (Central Daylight Time),505352.10000002384,124_o_f_d_a.png,O,None,2014,17,1,3022.5,502329.60000002384,7118,VNB,A,15
13,test,1,0.0,2-Back,0,m,Mon Apr 07 2025 09:28:31 GMT-0500 (Central Daylight Time),508051.0,039_o_m_n_a.png,O,z,1658,18,1,2669.600000023842,505381.39999997616,7118,VNB,A,16
0,test,2,0.0,2-Back,,,Mon Apr 07 2025 09:28:31 GMT-0500 (Central Daylight Time),508051.0,165_m_m_h_a.png,O,space,1039,1,1,2669.600000023842,505381.39999997616,7118,VNB,A,0
0,test,2,0.0,2-Back,,,Mon Apr 07 2025 09:28:31 GMT-0500 (Central Daylight Time),508051.0,071_y_f_n_a.png,O,space,1039,2,1,2669.600000023842,505381.39999997616,7118,VNB,A,0
1,test,2,1.0,2-Back,1,z,Mon Apr 07 2025 09:28:31 GMT-0500 (Central Daylight Time),517181.8000000715,124_o_f_h_a.png,O,z,1848,3,1,2862.9000000953674,514318.89999997616,7118,VNB,A,1
2,test,2,0.0,2-Back,1,m,Mon Apr 07 2025 09:28:31 GMT-0500 (Central Daylight Time),519547.3000000715,039_o_m_d_a.png,O,m,1317,4,1,2341.100000023842,517206.2000000477,7118,VNB,A,2
3,test,2,0.0,2-Back,1,m,Mon Apr 07 2025 09:28:31 GMT-0500 (Central Daylight Time),521613.10000002384,139_m_f_d_a.png,O,m,1031,5,1,2039.1000000238419,519574.0,7118,VNB,A,3
3,test,2,0.0,2-Back,0,m,Mon Apr 07 2025 09:28:31 GMT-0500 (Central Daylight Time),524662.3000000715,109_y_m_h_a.png,O,None,2015,6,1,3020.3000000715256,521642.0,7118,VNB,A,4
3,test,2,0.0,2-Back,0,m,Mon Apr 07 2025 09:28:31 GMT-0500 (Central Daylight Time),527177.1000000238,124_o_f_n_a.png,O,z,1458,7,1,2478.2999999523163,524698.8000000715,7118,VNB,A,5
3,test,2,1.0,2-Back,0,z,Mon Apr 07 2025 09:28:31 GMT-0500 (Central Daylight Time),530209.3999999762,039_o_m_h_a.png,O,None,2015,8,1,3019.0,527190.3999999762,7118,VNB,A,6
3,test,2,0.0,2-Back,0,m,Mon Apr 07 2025 09:28:31 GMT-0500 (Central Daylight Time),533242.6000000238,071_y_f_d_a.png,O,None,2014,9,1,3023.600000023842,530219.0,7118,VNB,A,7
4,test,2,0.0,2-Back,1,m,Mon Apr 07 2025 09:28:31 GMT-0500 (Central Daylight Time),535741.8000000715,109_y_m_d_a.png,O,m,1446,10,1,2463.7000000476837,533278.1000000238,7118,VNB,A,8
5,test,2,0.0,2-Back,1,m,Mon Apr 07 2025 09:28:31 GMT-0500 (Central Daylight Time),538291.3999999762,165_m_m_n_a.png,O,m,1500,11,1,2519.6999999284744,535771.7000000477,7118,VNB,A,9
6,test,2,0.0,2-Back,1,m,Mon Apr 07 2025 09:28:31 GMT-0500 (Central Daylight Time),540790.2000000477,139_m_f_h_a.png,O,m,1461,12,1,2468.2000000476837,538322.0,7118,VNB,A,10
7,test,2,1.0,2-Back,1,z,Mon Apr 07 2025 09:28:31 GMT-0500 (Central Daylight Time),542938.8000000715,039_o_m_n_a.png,O,z,1107,13,1,2123.2000000476837,540815.6000000238,7118,VNB,A,11
8,test,2,0.0,2-Back,1,m,Mon Apr 07 2025 09:28:31 GMT-0500 (Central Daylight Time),545688.2000000477,124_o_f_d_a.png,O,m,1701,14,1,2730.8000000715256,542957.3999999762,7118,VNB,A,12
8,test,2,0.0,2-Back,0,m,Mon Apr 07 2025 09:28:31 GMT-0500 (Central Daylight Time),547937.5,071_y_f_h_a.png,O,z,1209,15,1,2229.0,545708.5,7118,VNB,A,13
8,test,2,0.0,2-Back,0,z,Mon Apr 07 2025 09:28:31 GMT-0500 (Central Daylight Time),549920.5,165_m_m_d_a.png,O,m,927,16,1,1947.5,547973.0,7118,VNB,A,14
9,test,2,0.0,2-Back,1,m,Mon Apr 07 2025 09:28:31 GMT-0500 (Central Daylight Time),552902.7000000477,109_y_m_n_a.png,O,m,1930,17,1,2947.2000000476837,549955.5,7118,VNB,A,15
9,test,2,1.0,2-Back,0,m,Mon Apr 07 2025 09:28:31 GMT-0500 (Central Daylight Time),555951.1000000238,139_m_f_n_a.png,O,None,2014,18,1,3019.2999999523163,552931.8000000715,7118,VNB,A,16
0,test,3,1.0,2-Back,,,Mon Apr 07 2025 09:28:31 GMT-0500 (Central Daylight Time),555951.1000000238,039_o_m_n_a.png,O,space,1091,1,1,3019.2999999523163,552931.8000000715,7118,VNB,A,0
0,test,3,1.0,2-Back,,,Mon Apr 07 2025 09:28:31 GMT-0500 (Central Daylight Time),555951.1000000238,124_o_f_d_a.png,O,space,1091,2,1,3019.2999999523163,552931.8000000715,7118,VNB,A,0
1,test,3,0.0,2-Back,1,m,Mon Apr 07 2025 09:28:31 GMT-0500 (Central Daylight Time),564749.6000000238,071_y_f_h_a.png,O,m,1448,3,1,2465.2000000476837,562284.3999999762,7118,VNB,A,1
2,test,3,0.0,2-Back,1,z,Mon Apr 07 2025 09:28:31 GMT-0500 (Central Daylight Time),567015.0,139_m_f_d_a.png,O,z,1221,4,1,2234.2999999523163,564780.7000000477,7118,VNB,A,2
2,test,3,1.0,2-Back,0,m,Mon Apr 07 2025 09:28:31 GMT-0500 (Central Daylight Time),569447.3999999762,109_y_m_n_a.png,O,z,1379,5,1,2397.0999999046326,567050.3000000715,7118,VNB,A,3
3,test,3,0.0,2-Back,1,m,Mon Apr 07 2025 09:28:31 GMT-0500 (Central Daylight Time),571996.8999999762,039_o_m_h_a.png,O,m,1482,6,1,2514.0,569482.8999999762,7118,VNB,A,4
3,test,3,0.0,2-Back,0,z,Mon Apr 07 2025 09:28:31 GMT-0500 (Central Daylight Time),574312.7000000477,071_y_f_n_a.png,O,m,1261,7,1,2280.100000023842,572032.6000000238,7118,VNB,A,5
4,test,3,1.0,2-Back,1,m,Mon Apr 07 2025 09:28:31 GMT-0500 (Central Daylight Time),576445.8999999762,165_m_m_d_a.png,O,m,1081,8,1,2097.2999999523163,574348.6000000238,7118,VNB,A,6
5,test,3,0.0,2-Back,1,m,Mon Apr 07 2025 09:28:31 GMT-0500 (Central Daylight Time),579011.1000000238,109_y_m_d_a.png,O,m,1501,9,1,2530.899999976158,576480.2000000477,7118,VNB,A,7
5,test,3,0.0,2-Back,0,m,Mon Apr 07 2025 09:28:31 GMT-0500 (Central Daylight Time),582060.3999999762,124_o_f_h_a.png,O,None,2016,10,1,3024.0,579036.3999999762,7118,VNB,A,8
5,test,3,1.0,2-Back,0,m,Mon Apr 07 2025 09:28:31 GMT-0500 (Central Daylight Time),585125.5,139_m_f_n_a.png,O,None,2014,11,1,3033.0,582092.5,7118,VNB,A,9
6,test,3,1.0,2-Back,1,z,Mon Apr 07 2025 09:28:31 GMT-0500 (Central Daylight Time),587741.5,165_m_m_h_a.png,O,z,1573,12,1,2586.0,585155.5,7118,VNB,A,10
7,test,3,0.0,2-Back,1,m,Mon Apr 07 2025 09:28:31 GMT-0500 (Central Daylight Time),589957.7000000477,071_y_f_d_a.png,O,m,1183,13,1,2189.5,587768.2000000477,7118,VNB,A,11
8,test,3,0.0,2-Back,1,m,Mon Apr 07 2025 09:28:31 GMT-0500 (Central Daylight Time),592423.2000000477,124_o_f_n_a.png,O,m,1421,14,1,2438.899999976158,589984.3000000715,7118,VNB,A,12
9,test,3,0.0,2-Back,1,z,Mon Apr 07 2025 09:28:31 GMT-0500 (Central Daylight Time),594939.2000000477,039_o_m_d_a.png,O,z,1450,15,1,2478.2000000476837,592461.0,7118,VNB,A,13
10,test,3,1.0,2-Back,1,m,Mon Apr 07 2025 09:28:31 GMT-0500 (Central Daylight Time),597887.2000000477,139_m_f_h_a.png,O,m,1902,16,1,2922.7000000476837,594964.5,7118,VNB,A,14
11,test,3,0.0,2-Back,1,m,Mon Apr 07 2025 09:28:31 GMT-0500 (Central Daylight Time),600487.2000000477,165_m_m_n_a.png,O,m,1570,17,1,2590.399999976158,597896.8000000715,7118,VNB,A,15
12,test,3,0.0,2-Back,1,z,Mon Apr 07 2025 09:28:31 GMT-0500 (Central Daylight Time),602686.5,109_y_m_h_a.png,O,z,1154,18,1,2167.6999999284744,600518.8000000715,7118,VNB,A,16
0,test,4,0.0,2-Back,,,Mon Apr 07 2025 09:28:31 GMT-0500 (Central Daylight Time),602686.5,139_m_f_n_a.png,O,space,1170,1,1,2167.6999999284744,600518.8000000715,7118,VNB,A,0
0,test,4,0.0,2-Back,,,Mon Apr 07 2025 09:28:31 GMT-0500 (Central Daylight Time),602686.5,039_o_m_n_a.png,O,space,1170,2,1,2167.6999999284744,600518.8000000715,7118,VNB,A,0
0,test,4,1.0,2-Back,0,m,Mon Apr 07 2025 09:28:31 GMT-0500 (Central Daylight Time),611416.2000000477,109_y_m_h_a.png,O,z,1309,3,1,2327.2000000476837,609089.0,7118,VNB,A,1
1,test,4,1.0,2-Back,1,m,Mon Apr 07 2025 09:28:31 GMT-0500 (Central Daylight Time),613516.6000000238,124_o_f_d_a.png,O,m,1057,4,1,2082.2000000476837,611434.3999999762,7118,VNB,A,2
2,test,4,0.0,2-Back,1,z,Mon Apr 07 2025 09:28:31 GMT-0500 (Central Daylight Time),615682.3000000715,039_o_m_h_a.png,O,z,1119,5,1,2136.9000000953674,613545.3999999762,7118,VNB,A,3
3,test,4,0.0,2-Back,1,m,Mon Apr 07 2025 09:28:31 GMT-0500 (Central Daylight Time),618031.1000000238,165_m_m_n_a.png,O,m,1286,6,1,2311.0,615720.1000000238,7118,VNB,A,4
4,test,4,0.0,2-Back,1,m,Mon Apr 07 2025 09:28:31 GMT-0500 (Central Daylight Time),620180.7000000477,139_m_f_d_a.png,O,m,1108,7,1,2119.899999976158,618060.8000000715,7118,VNB,A,5
5,test,4,0.0,2-Back,1,z,Mon Apr 07 2025 09:28:31 GMT-0500 (Central Daylight Time),622563.3999999762,071_y_f_n_a.png,O,z,1325,8,1,2346.399999976158,620217.0,7118,VNB,A,6
5,test,4,1.0,2-Back,0,m,Mon Apr 07 2025 09:28:31 GMT-0500 (Central Daylight Time),625612.5,124_o_f_h_a.png,O,None,2014,9,1,3019.600000023842,622592.8999999762,7118,VNB,A,7
5,test,4,0.0,2-Back,0,m,Mon Apr 07 2025 09:28:31 GMT-0500 (Central Daylight Time),628228.2000000477,165_m_m_h_a.png,O,z,1557,10,1,2579.100000023842,625649.1000000238,7118,VNB,A,8
6,test,4,0.0,2-Back,1,m,Mon Apr 07 2025 09:28:31 GMT-0500 (Central Daylight Time),630260.8000000715,071_y_f_d_a.png,O,m,973,11,1,2000.0,628260.8000000715,7118,VNB,A,9
7,test,4,0.0,2-Back,1,m,Mon Apr 07 2025 09:28:31 GMT-0500 (Central Daylight Time),632461.0,109_y_m_n_a.png,O,m,1165,12,1,2178.5,630282.5,7118,VNB,A,10
7,test,4,0.0,2-Back,0,z,Mon Apr 07 2025 09:28:31 GMT-0500 (Central Daylight Time),635342.6000000238,039_o_m_d_a.png,O,m,1847,13,1,2851.2000000476837,632491.3999999762,7118,VNB,A,11
8,test,4,1.0,2-Back,1,m,Mon Apr 07 2025 09:28:31 GMT-0500 (Central Daylight Time),637591.7000000477,139_m_f_h_a.png,O,m,1205,14,1,2219.3000000715256,635372.3999999762,7118,VNB,A,12
8,test,4,1.0,2-Back,0,m,Mon Apr 07 2025 09:28:31 GMT-0500 (Central Daylight Time),639924.2000000477,071_y_f_h_a.png,O,z,1290,15,1,2301.8000000715256,637622.3999999762,7118,VNB,A,13
9,test,4,0.0,2-Back,1,m,Mon Apr 07 2025 09:28:31 GMT-0500 (Central Daylight Time),642173.6000000238,124_o_f_n_a.png,O,m,1189,16,1,2213.5,639960.1000000238,7118,VNB,A,14
10,test,4,0.0,2-Back,1,m,Mon Apr 07 2025 09:28:31 GMT-0500 (Central Daylight Time),644856.2000000477,109_y_m_d_a.png,O,m,1627,17,1,2646.0,642210.2000000477,7118,VNB,A,15
11,test,4,1.0,2-Back,1,m,Mon Apr 07 2025 09:28:31 GMT-0500 (Central Daylight Time),647372.2000000477,165_m_m_d_a.png,O,m,1467,18,1,2488.0,644884.2000000477,7118,VNB,A,16
0,test,5,1.0,2-Back,,,Mon Apr 07 2025 09:28:31 GMT-0500 (Central Daylight Time),647372.2000000477,071_y_f_d_a.png,O,space,1254,1,1,2488.0,644884.2000000477,7118,VNB,A,0
0,test,5,1.0,2-Back,,,Mon Apr 07 2025 09:28:31 GMT-0500 (Central Daylight Time),647372.2000000477,124_o_f_h_a.png,O,space,1254,2,1,2488.0,644884.2000000477,7118,VNB,A,0
0,test,5,1.0,2-Back,0,z,Mon Apr 07 2025 09:28:31 GMT-0500 (Central Daylight Time),656535.6000000238,039_o_m_d_a.png,O,m,1620,3,1,2640.100000023842,653895.5,7118,VNB,A,1
1,test,5,1.0,2-Back,1,m,Mon Apr 07 2025 09:28:31 GMT-0500 (Central Daylight Time),659018.3000000715,139_m_f_n_a.png,O,m,1417,4,1,2445.600000023842,656572.7000000477,7118,VNB,A,2
1,test,5,0.0,2-Back,0,m,Mon Apr 07 2025 09:28:31 GMT-0500 (Central Daylight Time),662067.1000000238,165_m_m_h_a.png,O,None,2015,5,1,3021.7999999523163,659045.3000000715,7118,VNB,A,3
1,test,5,0.0,2-Back,0,z,Mon Apr 07 2025 09:28:31 GMT-0500 (Central Daylight Time),664632.2000000477,071_y_f_n_a.png,O,m,1509,6,1,2531.8000000715256,662100.3999999762,7118,VNB,A,4
2,test,5,0.0,2-Back,1,m,Mon Apr 07 2025 09:28:31 GMT-0500 (Central Daylight Time),667182.1000000238,124_o_f_d_a.png,O,m,1521,7,1,2535.7999999523163,664646.3000000715,7118,VNB,A,5
2,test,5,0.0,2-Back,0,m,Mon Apr 07 2025 09:28:31 GMT-0500 (Central Daylight Time),670230.8999999762,039_o_m_h_a.png,O,None,2015,8,1,3020.899999976158,667210.0,7118,VNB,A,6
2,test,5,1.0,2-Back,0,z,Mon Apr 07 2025 09:28:31 GMT-0500 (Central Daylight Time),673279.1000000238,139_m_f_d_a.png,O,None,2014,9,1,3017.399999976158,670261.7000000477,7118,VNB,A,7
3,test,5,0.0,2-Back,1,m,Mon Apr 07 2025 09:28:31 GMT-0500 (Central Daylight Time),675795.8999999762,109_y_m_n_a.png,O,m,1491,10,1,2501.0,673294.8999999762,7118,VNB,A,8
4,test,5,0.0,2-Back,1,m,Mon Apr 07 2025 09:28:31 GMT-0500 (Central Daylight Time),678194.7000000477,165_m_m_n_a.png,O,m,1341,11,1,2358.399999976158,675836.3000000715,7118,VNB,A,9
5,test,5,0.0,2-Back,1,m,Mon Apr 07 2025 09:28:31 GMT-0500 (Central Daylight Time),680561.0,071_y_f_h_a.png,O,m,1327,12,1,2346.100000023842,678214.8999999762,7118,VNB,A,10
6,test,5,0.0,2-Back,1,m,Mon Apr 07 2025 09:28:31 GMT-0500 (Central Daylight Time),682727.2000000477,109_y_m_d_a.png,O,m,1121,13,1,2139.7000000476837,680587.5,7118,VNB,A,11
6,test,5,1.0,2-Back,0,z,Mon Apr 07 2025 09:28:31 GMT-0500 (Central Daylight Time),685226.2000000477,139_m_f_h_a.png,O,m,1434,14,1,2463.2000000476837,682763.0,7118,VNB,A,12
6,test,5,0.0,2-Back,0,m,Mon Apr 07 2025 09:28:31 GMT-0500 (Central Daylight Time),688291.8999999762,039_o_m_n_a.png,O,None,2015,15,1,3031.1999999284744,685260.7000000477,7118,VNB,A,13
7,test,5,0.0,2-Back,1,m,Mon Apr 07 2025 09:28:31 GMT-0500 (Central Daylight Time),691257.6000000238,165_m_m_d_a.png,O,m,1919,16,1,2936.100000023842,688321.5,7118,VNB,A,14
7,test,5,0.0,2-Back,0,z,Mon Apr 07 2025 09:28:31 GMT-0500 (Central Daylight Time),693923.5,124_o_f_n_a.png,O,m,1609,17,1,2634.0,691289.5,7118,VNB,A,15
8,test,5,1.0,2-Back,1,m,Mon Apr 07 2025 09:28:31 GMT-0500 (Central Daylight Time),696672.3999999762,109_y_m_h_a.png,O,m,1686,18,1,2714.1999999284744,693958.2000000477,7118,VNB,A,16
