block_c,block_dur,condition,countdown,datetime,endtime,list,multichar_response,project,response,response_time,session_number,start_end,starttime,subject_id,task,task_vers,trial
,,,,Tue Feb 18 2025 14:35:40 GMT-0500 (Eastern Standard Time),,,,I,space,782,1,,,9009,WL,B,
prac,,0,,Tue Feb 18 2025 14:35:40 GMT-0500 (Eastern Standard Time),,NA,b,I,b,5080,1,,,9009,WL,B,1.0
prac,,0,,Tue Feb 18 2025 14:35:40 GMT-0500 (Eastern Standard Time),,NA,bo,I,o,205,1,,,9009,WL,B,1.0
prac,,0,,Tue Feb 18 2025 14:35:40 GMT-0500 (Eastern Standard Time),,NA,boo,I,o,204,1,,,9009,WL,B,1.0
prac,,0,,Tue Feb 18 2025 14:35:40 GMT-0500 (Eastern Standard Time),,NA,boos,I,s,666,1,,,9009,WL,B,1.0
prac,,0,,Tue Feb 18 2025 14:35:40 GMT-0500 (Eastern Standard Time),,NA,boost,I,t,256,1,,,9009,WL,B,1.0
prac,,0,,Tue Feb 18 2025 14:35:40 GMT-0500 (Eastern Standard Time),,NA,boostenter,I,enter,1529,1,,,9009,WL,B,1.0
1,2.6010000705718994,learn,57398.9999294281,Tue Feb 18 2025 14:35:40 GMT-0500 (Eastern Standard Time),137590.80000001192,A,s,I,s,2581,1,2599.899999976158,134990.90000003576,9009,WL,B,1.0
1,4.2840001583099365,learn,55715.99984169006,Tue Feb 18 2025 14:35:40 GMT-0500 (Eastern Standard Time),139274.60000002384,A,st,I,t,1659,1,4283.699999988079,134990.90000003576,9009,WL,B,1.0
1,4.618000030517578,learn,55381.99996948242,Tue Feb 18 2025 14:35:40 GMT-0500 (Eastern Standard Time),139607.69999998808,A,str,I,r,301,1,4616.799999952316,134990.90000003576,9009,WL,B,1.0
1,4.868000030517578,learn,55131.99996948242,Tue Feb 18 2025 14:35:40 GMT-0500 (Eastern Standard Time),139857.69999998808,A,stre,I,e,233,1,4866.799999952316,134990.90000003576,9009,WL,B,1.0
1,5.150000095367432,learn,54849.99990463257,Tue Feb 18 2025 14:35:40 GMT-0500 (Eastern Standard Time),140140.5,A,stree,I,e,256,1,5149.599999964237,134990.90000003576,9009,WL,B,1.0
1,5.334000110626221,learn,54665.99988937378,Tue Feb 18 2025 14:35:40 GMT-0500 (Eastern Standard Time),140324.10000002384,A,street,I,t,168,1,5333.199999988079,134990.90000003576,9009,WL,B,1.0
1,5.834000110626221,learn,54165.99988937378,Tue Feb 18 2025 14:35:40 GMT-0500 (Eastern Standard Time),140823.80000001192,A,streetenter,I,enter,468,1,5832.899999976158,134990.90000003576,9009,WL,B,1.0
1,6.901000022888184,learn,53098.99997711182,Tue Feb 18 2025 14:35:40 GMT-0500 (Eastern Standard Time),141891.0,A,g,I,g,1052,1,1066.5,140824.5,9009,WL,B,2.0
1,7.16700005531311,learn,52832.99994468689,Tue Feb 18 2025 14:35:40 GMT-0500 (Eastern Standard Time),142157.30000001192,A,gr,I,r,254,1,1332.800000011921,140824.5,9009,WL,B,2.0
1,7.317000150680542,learn,52682.99984931946,Tue Feb 18 2025 14:35:40 GMT-0500 (Eastern Standard Time),142307.60000002384,A,gra,I,a,130,1,1483.1000000238419,140824.5,9009,WL,B,2.0
1,7.551000118255615,learn,52448.999881744385,Tue Feb 18 2025 14:35:40 GMT-0500 (Eastern Standard Time),142540.80000001192,A,gras,I,s,205,1,1716.300000011921,140824.5,9009,WL,B,2.0
1,7.75,learn,52250.0,Tue Feb 18 2025 14:35:40 GMT-0500 (Eastern Standard Time),142740.30000001192,A,grass,I,s,170,1,1915.800000011921,140824.5,9009,WL,B,2.0
1,7.9670000076293945,learn,52032.999992370605,Tue Feb 18 2025 14:35:40 GMT-0500 (Eastern Standard Time),142957.0,A,grassenter,I,enter,205,1,2132.5,140824.5,9009,WL,B,2.0
1,8.384000062942505,learn,51615.999937057495,Tue Feb 18 2025 14:35:40 GMT-0500 (Eastern Standard Time),143374.10000002384,A,a,I,a,407,1,416.60000002384186,142957.5,9009,WL,B,3.0
1,8.83400011062622,learn,51165.99988937378,Tue Feb 18 2025 14:35:40 GMT-0500 (Eastern Standard Time),143824.30000001192,A,ar,I,r,435,1,866.8000000119209,142957.5,9009,WL,B,3.0
1,10.251000165939331,learn,49748.99983406067,Tue Feb 18 2025 14:35:40 GMT-0500 (Eastern Standard Time),145241.0,A,a,I,backspace,1395,1,2283.5,142957.5,9009,WL,B,3.0
1,11.217000007629395,learn,48782.999992370605,Tue Feb 18 2025 14:35:40 GMT-0500 (Eastern Standard Time),146207.60000002384,A,ar,I,r,952,1,3250.100000023842,142957.5,9009,WL,B,3.0
1,11.6010000705719,learn,48398.9999294281,Tue Feb 18 2025 14:35:40 GMT-0500 (Eastern Standard Time),146590.90000003576,A,arm,I,m,371,1,3633.400000035763,142957.5,9009,WL,B,3.0
1,12.0,learn,48000.0,Tue Feb 18 2025 14:35:40 GMT-0500 (Eastern Standard Time),146990.10000002384,A,armenter,I,enter,386,1,4032.600000023842,142957.5,9009,WL,B,3.0
1,12.967000007629395,learn,47032.999992370605,Tue Feb 18 2025 14:35:40 GMT-0500 (Eastern Standard Time),147957.10000002384,A,p,I,p,951,1,966.5,146990.60000002384,9009,WL,B,4.0
1,13.33400011062622,learn,46665.99988937378,Tue Feb 18 2025 14:35:40 GMT-0500 (Eastern Standard Time),148324.10000002384,A,pu,I,u,352,1,1333.5,146990.60000002384,9009,WL,B,4.0
1,13.567000150680542,learn,46432.99984931946,Tue Feb 18 2025 14:35:40 GMT-0500 (Eastern Standard Time),148557.10000002384,A,pup,I,p,220,1,1566.5,146990.60000002384,9009,WL,B,4.0
1,13.91700005531311,learn,46082.99994468689,Tue Feb 18 2025 14:35:40 GMT-0500 (Eastern Standard Time),148907.5,A,pupi,I,i,314,1,1916.8999999761581,146990.60000002384,9009,WL,B,4.0
1,14.368000030517578,learn,45631.99996948242,Tue Feb 18 2025 14:35:40 GMT-0500 (Eastern Standard Time),149358.5,A,pupil,I,l,439,1,2367.899999976158,146990.60000002384,9009,WL,B,4.0
1,15.032999992370605,learn,44967.000007629395,Tue Feb 18 2025 14:35:40 GMT-0500 (Eastern Standard Time),150023.5,A,pupilenter,I,enter,642,1,3032.899999976158,146990.60000002384,9009,WL,B,4.0
1,15.534000158309937,learn,44465.99984169006,Tue Feb 18 2025 14:35:40 GMT-0500 (Eastern Standard Time),150523.69999998808,A,s,I,s,474,1,499.7999999523163,150023.90000003576,9009,WL,B,5.0
1,16.00100016593933,learn,43998.99983406067,Tue Feb 18 2025 14:35:40 GMT-0500 (Eastern Standard Time),150990.90000003576,A,sk,I,k,455,1,967.0,150023.90000003576,9009,WL,B,5.0
1,16.233999967575073,learn,43766.00003242493,Tue Feb 18 2025 14:35:40 GMT-0500 (Eastern Standard Time),151224.30000001192,A,ski,I,i,210,1,1200.3999999761581,150023.90000003576,9009,WL,B,5.0
1,16.41700005531311,learn,43582.99994468689,Tue Feb 18 2025 14:35:40 GMT-0500 (Eastern Standard Time),151407.5,A,skin,I,n,169,1,1383.5999999642372,150023.90000003576,9009,WL,B,5.0
1,16.78500008583069,learn,43214.99991416931,Tue Feb 18 2025 14:35:40 GMT-0500 (Eastern Standard Time),151774.80000001192,A,skinenter,I,enter,353,1,1750.8999999761581,150023.90000003576,9009,WL,B,5.0
1,17.634000062942505,learn,42365.999937057495,Tue Feb 18 2025 14:35:40 GMT-0500 (Eastern Standard Time),152624.0,A,l,I,l,838,1,848.5999999642372,151775.40000003576,9009,WL,B,6.0
1,17.817000150680542,learn,42182.99984931946,Tue Feb 18 2025 14:35:40 GMT-0500 (Eastern Standard Time),152807.69999998808,A,la,I,a,162,1,1032.2999999523163,151775.40000003576,9009,WL,B,6.0
1,18.00100016593933,learn,41998.99983406067,Tue Feb 18 2025 14:35:40 GMT-0500 (Eastern Standard Time),152990.90000003576,A,lak,I,k,169,1,1215.5,151775.40000003576,9009,WL,B,6.0
1,18.233999967575073,learn,41766.00003242493,Tue Feb 18 2025 14:35:40 GMT-0500 (Eastern Standard Time),153224.19999998808,A,lake,I,e,202,1,1448.7999999523163,151775.40000003576,9009,WL,B,6.0
1,18.634000062942505,learn,41365.999937057495,Tue Feb 18 2025 14:35:40 GMT-0500 (Eastern Standard Time),153623.69999998808,A,lakeenter,I,enter,368,1,1848.2999999523163,151775.40000003576,9009,WL,B,6.0
1,19.384000062942505,learn,40615.999937057495,Tue Feb 18 2025 14:35:40 GMT-0500 (Eastern Standard Time),154374.19999998808,A,c,I,c,733,1,750.0999999642372,153624.10000002384,9009,WL,B,7.0
1,19.567000150680542,learn,40432.99984931946,Tue Feb 18 2025 14:35:40 GMT-0500 (Eastern Standard Time),154557.10000002384,A,ca,I,a,172,1,933.0,153624.10000002384,9009,WL,B,7.0
1,19.867000102996826,learn,40132.999897003174,Tue Feb 18 2025 14:35:40 GMT-0500 (Eastern Standard Time),154857.5,A,cab,I,b,279,1,1233.3999999761581,153624.10000002384,9009,WL,B,7.0
1,20.284000158309937,learn,39715.99984169006,Tue Feb 18 2025 14:35:40 GMT-0500 (Eastern Standard Time),155274.19999998808,A,cabi,I,i,393,1,1650.0999999642372,153624.10000002384,9009,WL,B,7.0
1,20.733999967575073,learn,39266.00003242493,Tue Feb 18 2025 14:35:40 GMT-0500 (Eastern Standard Time),155724.0,A,cabin,I,n,423,1,2099.899999976158,153624.10000002384,9009,WL,B,7.0
1,21.817000150680542,learn,38182.99984931946,Tue Feb 18 2025 14:35:40 GMT-0500 (Eastern Standard Time),156807.0,A,cabinenter,I,enter,1062,1,3182.899999976158,153624.10000002384,9009,WL,B,7.0
1,22.401000022888184,learn,37598.99997711182,Tue Feb 18 2025 14:35:40 GMT-0500 (Eastern Standard Time),157390.80000001192,A,s,I,s,573,1,583.3000000119209,156807.5,9009,WL,B,8.0
1,22.634000062942505,learn,37365.999937057495,Tue Feb 18 2025 14:35:40 GMT-0500 (Eastern Standard Time),157624.19999998808,A,st,I,t,202,1,816.6999999880791,156807.5,9009,WL,B,8.0
1,22.867000102996826,learn,37132.999897003174,Tue Feb 18 2025 14:35:40 GMT-0500 (Eastern Standard Time),157857.5,A,sta,I,a,210,1,1050.0,156807.5,9009,WL,B,8.0
1,23.134000062942505,learn,36865.999937057495,Tue Feb 18 2025 14:35:40 GMT-0500 (Eastern Standard Time),158124.19999998808,A,star,I,r,239,1,1316.699999988079,156807.5,9009,WL,B,8.0
1,25.067000150680542,learn,34932.99984931946,Tue Feb 18 2025 14:35:40 GMT-0500 (Eastern Standard Time),160057.10000002384,A,starenter,I,enter,1910,1,3249.600000023842,156807.5,9009,WL,B,8.0
1,30.76699995994568,learn,29233.00004005432,Tue Feb 18 2025 14:35:40 GMT-0500 (Eastern Standard Time),165757.10000002384,A,d,I,d,5690,1,5699.699999988079,160057.40000003576,9009,WL,B,9.0
1,31.284000158309937,learn,28715.999841690063,Tue Feb 18 2025 14:35:40 GMT-0500 (Eastern Standard Time),166274.10000002384,A,do,I,o,501,1,6216.699999988079,160057.40000003576,9009,WL,B,9.0
1,31.5,learn,28500.0,Tue Feb 18 2025 14:35:40 GMT-0500 (Eastern Standard Time),166490.5,A,doo,I,o,191,1,6433.099999964237,160057.40000003576,9009,WL,B,9.0
1,31.733999967575073,learn,28266.000032424927,Tue Feb 18 2025 14:35:40 GMT-0500 (Eastern Standard Time),166724.10000002384,A,door,I,r,219,1,6666.699999988079,160057.40000003576,9009,WL,B,9.0
1,32.049999952316284,learn,27950.000047683716,Tue Feb 18 2025 14:35:40 GMT-0500 (Eastern Standard Time),167040.30000001192,A,doorenter,I,enter,293,1,6982.899999976158,160057.40000003576,9009,WL,B,9.0
1,47.884000062942505,learn,12115.999937057495,Tue Feb 18 2025 14:35:40 GMT-0500 (Eastern Standard Time),182874.19999998808,A,p,I,p,15813,1,15833.5,167040.69999998808,9009,WL,B,10.0
1,48.1010000705719,learn,11898.9999294281,Tue Feb 18 2025 14:35:40 GMT-0500 (Eastern Standard Time),183090.90000003576,A,pe,I,e,200,1,16050.200000047684,167040.69999998808,9009,WL,B,10.0
1,48.23399996757507,learn,11766.000032424927,Tue Feb 18 2025 14:35:40 GMT-0500 (Eastern Standard Time),183224.19999998808,A,per,I,r,103,1,16183.5,167040.69999998808,9009,WL,B,10.0
1,48.41700005531311,learn,11582.99994468689,Tue Feb 18 2025 14:35:40 GMT-0500 (Eastern Standard Time),183407.60000002384,A,pers,I,s,170,1,16366.900000035763,167040.69999998808,9009,WL,B,10.0
1,48.53400015830994,learn,11465.999841690063,Tue Feb 18 2025 14:35:40 GMT-0500 (Eastern Standard Time),183524.60000002384,A,perso,I,o,93,1,16483.900000035763,167040.69999998808,9009,WL,B,10.0
1,48.75,learn,11250.0,Tue Feb 18 2025 14:35:40 GMT-0500 (Eastern Standard Time),183740.40000003576,A,person,I,n,192,1,16699.700000047684,167040.69999998808,9009,WL,B,10.0
1,48.98399996757507,learn,11016.000032424927,Tue Feb 18 2025 14:35:40 GMT-0500 (Eastern Standard Time),183973.69999998808,A,personenter,I,enter,216,1,16933.0,167040.69999998808,9009,WL,B,10.0
1,60.01800012588501,learn,-18.000125885009766,Tue Feb 18 2025 14:35:40 GMT-0500 (Eastern Standard Time),195007.69999998808,A,None,I,None,11027,1,11033.599999964237,183974.10000002384,9009,WL,B,11.0
2,0.9500000476837158,learn,59049.999952316284,Tue Feb 18 2025 14:35:40 GMT-0500 (Eastern Standard Time),263657.0,A,w,I,w,926,1,949.0,262708.0,9009,WL,B,1.0
2,1.1340000629425049,learn,58865.999937057495,Tue Feb 18 2025 14:35:40 GMT-0500 (Eastern Standard Time),263840.6999999881,A,wi,I,i,171,1,1132.699999988079,262708.0,9009,WL,B,1.0
2,1.4660000801086426,learn,58533.99991989136,Tue Feb 18 2025 14:35:40 GMT-0500 (Eastern Standard Time),264173.60000002384,A,wif,I,f,312,1,1465.6000000238419,262708.0,9009,WL,B,1.0
2,1.5,learn,58500.0,Tue Feb 18 2025 14:35:40 GMT-0500 (Eastern Standard Time),264207.1999999881,A,wife,I,e,21,1,1499.199999988079,262708.0,9009,WL,B,1.0
2,1.883000135421753,learn,58116.99986457825,Tue Feb 18 2025 14:35:40 GMT-0500 (Eastern Standard Time),264590.3000000119,A,wifeenter,I,enter,362,1,1882.300000011921,262708.0,9009,WL,B,1.0
2,2.634000062942505,learn,57365.999937057495,Tue Feb 18 2025 14:35:40 GMT-0500 (Eastern Standard Time),265340.90000003576,A,w,I,w,726,1,750.2000000476837,264590.6999999881,9009,WL,B,2.0
2,3.200000047683716,learn,56799.999952316284,Tue Feb 18 2025 14:35:40 GMT-0500 (Eastern Standard Time),265907.3000000119,A,wi,I,i,548,1,1316.6000000238419,264590.6999999881,9009,WL,B,2.0
2,3.4670000076293945,learn,56532.999992370605,Tue Feb 18 2025 14:35:40 GMT-0500 (Eastern Standard Time),266173.90000003576,A,win,I,n,255,1,1583.2000000476837,264590.6999999881,9009,WL,B,2.0
2,3.817000150680542,learn,56182.99984931946,Tue Feb 18 2025 14:35:40 GMT-0500 (Eastern Standard Time),266524.1999999881,A,wind,I,d,322,1,1933.5,264590.6999999881,9009,WL,B,2.0
2,3.9839999675750732,learn,56016.00003242493,Tue Feb 18 2025 14:35:40 GMT-0500 (Eastern Standard Time),266690.6999999881,A,windo,I,o,150,1,2100.0,264590.6999999881,9009,WL,B,2.0
2,4.25,learn,55750.0,Tue Feb 18 2025 14:35:40 GMT-0500 (Eastern Standard Time),266957.10000002384,A,window,I,w,247,1,2366.400000035763,264590.6999999881,9009,WL,B,2.0
2,4.633000135421753,learn,55366.99986457825,Tue Feb 18 2025 14:35:40 GMT-0500 (Eastern Standard Time),267340.3000000119,A,windowenter,I,enter,356,1,2749.600000023842,264590.6999999881,9009,WL,B,2.0
2,5.049999952316284,learn,54950.000047683716,Tue Feb 18 2025 14:35:40 GMT-0500 (Eastern Standard Time),267756.8000000119,A,d,I,d,407,1,416.0,267340.8000000119,9009,WL,B,3.0
2,5.2840001583099365,learn,54715.99984169006,Tue Feb 18 2025 14:35:40 GMT-0500 (Eastern Standard Time),267990.90000003576,A,do,I,o,216,1,650.1000000238419,267340.8000000119,9009,WL,B,3.0
2,5.516999959945679,learn,54483.00004005432,Tue Feb 18 2025 14:35:40 GMT-0500 (Eastern Standard Time),268224.10000002384,A,doo,I,o,210,1,883.3000000119209,267340.8000000119,9009,WL,B,3.0
2,5.799999952316284,learn,54200.000047683716,Tue Feb 18 2025 14:35:40 GMT-0500 (Eastern Standard Time),268507.3000000119,A,door,I,r,258,1,1166.5,267340.8000000119,9009,WL,B,3.0
2,6.615999937057495,learn,53384.000062942505,Tue Feb 18 2025 14:35:40 GMT-0500 (Eastern Standard Time),269323.5,A,doorenter,I,enter,790,1,1982.699999988079,267340.8000000119,9009,WL,B,3.0
2,7.434000015258789,learn,52565.99998474121,Tue Feb 18 2025 14:35:40 GMT-0500 (Eastern Standard Time),270140.60000002384,A,c,I,c,809,1,816.6000000238419,269324.0,9009,WL,B,4.0
2,7.933000087738037,learn,52066.99991226196,Tue Feb 18 2025 14:35:40 GMT-0500 (Eastern Standard Time),270640.60000002384,A,ci,I,i,484,1,1316.6000000238419,269324.0,9009,WL,B,4.0
2,8.233999967575073,learn,51766.00003242493,Tue Feb 18 2025 14:35:40 GMT-0500 (Eastern Standard Time),270940.8000000119,A,cit,I,t,273,1,1616.800000011921,269324.0,9009,WL,B,4.0
2,8.634000062942505,learn,51365.999937057495,Tue Feb 18 2025 14:35:40 GMT-0500 (Eastern Standard Time),271340.6999999881,A,city,I,y,389,1,2016.699999988079,269324.0,9009,WL,B,4.0
2,9.016999959945679,learn,50983.00004005432,Tue Feb 18 2025 14:35:40 GMT-0500 (Eastern Standard Time),271723.6999999881,A,cityenter,I,enter,373,1,2399.699999988079,269324.0,9009,WL,B,4.0
2,9.75,learn,50250.0,Tue Feb 18 2025 14:35:40 GMT-0500 (Eastern Standard Time),272457.3000000119,A,p,I,p,713,1,733.3000000119209,271724.0,9009,WL,B,5.0
2,10.134000062942505,learn,49865.999937057495,Tue Feb 18 2025 14:35:40 GMT-0500 (Eastern Standard Time),272840.6999999881,A,pi,I,i,360,1,1116.699999988079,271724.0,9009,WL,B,5.0
2,10.400000095367432,learn,49599.99990463257,Tue Feb 18 2025 14:35:40 GMT-0500 (Eastern Standard Time),273107.40000003576,A,pip,I,p,248,1,1383.4000000357628,271724.0,9009,WL,B,5.0
2,10.700000047683716,learn,49299.999952316284,Tue Feb 18 2025 14:35:40 GMT-0500 (Eastern Standard Time),273407.3000000119,A,pipe,I,e,287,1,1683.300000011921,271724.0,9009,WL,B,5.0
2,11.100000143051147,learn,48899.99985694885,Tue Feb 18 2025 14:35:40 GMT-0500 (Eastern Standard Time),273806.8000000119,A,pipeenter,I,enter,387,1,2082.800000011921,271724.0,9009,WL,B,5.0
2,11.567000150680542,learn,48432.99984931946,Tue Feb 18 2025 14:35:40 GMT-0500 (Eastern Standard Time),274273.90000003576,A,s,I,s,454,1,466.7000000476837,273807.1999999881,9009,WL,B,6.0
2,11.782999992370605,learn,48217.000007629395,Tue Feb 18 2025 14:35:40 GMT-0500 (Eastern Standard Time),274490.60000002384,A,st,I,t,190,1,683.4000000357628,273807.1999999881,9009,WL,B,6.0
2,12.032999992370605,learn,47967.000007629395,Tue Feb 18 2025 14:35:40 GMT-0500 (Eastern Standard Time),274740.5,A,sta,I,a,227,1,933.3000000119209,273807.1999999881,9009,WL,B,6.0
2,12.282999992370605,learn,47717.000007629395,Tue Feb 18 2025 14:35:40 GMT-0500 (Eastern Standard Time),274990.40000003576,A,star,I,r,238,1,1183.2000000476837,273807.1999999881,9009,WL,B,6.0
2,12.650000095367432,learn,47349.99990463257,Tue Feb 18 2025 14:35:40 GMT-0500 (Eastern Standard Time),275356.6999999881,A,starenter,I,enter,356,1,1549.5,273807.1999999881,9009,WL,B,6.0
2,13.034000158309937,learn,46965.99984169006,Tue Feb 18 2025 14:35:40 GMT-0500 (Eastern Standard Time),275740.6999999881,A,a,I,a,360,1,383.5,275357.1999999881,9009,WL,B,7.0
2,13.16700005531311,learn,46832.99994468689,Tue Feb 18 2025 14:35:40 GMT-0500 (Eastern Standard Time),275874.0,A,ar,I,r,117,1,516.8000000119209,275357.1999999881,9009,WL,B,7.0
2,14.282999992370605,learn,45717.000007629395,Tue Feb 18 2025 14:35:40 GMT-0500 (Eastern Standard Time),276990.5,A,arm,I,m,1097,1,1633.300000011921,275357.1999999881,9009,WL,B,7.0
2,14.683000087738037,learn,45316.99991226196,Tue Feb 18 2025 14:35:40 GMT-0500 (Eastern Standard Time),277390.1999999881,A,armenter,I,enter,386,1,2033.0,275357.1999999881,9009,WL,B,7.0
2,15.549999952316284,learn,44450.000047683716,Tue Feb 18 2025 14:35:40 GMT-0500 (Eastern Standard Time),278257.5,A,l,I,l,855,1,866.8000000119209,277390.6999999881,9009,WL,B,8.0
2,15.733000040054321,learn,44266.99995994568,Tue Feb 18 2025 14:35:40 GMT-0500 (Eastern Standard Time),278440.5,A,la,I,a,154,1,1049.800000011921,277390.6999999881,9009,WL,B,8.0
2,16.034000158309937,learn,43965.99984169006,Tue Feb 18 2025 14:35:40 GMT-0500 (Eastern Standard Time),278740.6999999881,A,lak,I,k,274,1,1350.0,277390.6999999881,9009,WL,B,8.0
2,16.26699995994568,learn,43733.00004005432,Tue Feb 18 2025 14:35:40 GMT-0500 (Eastern Standard Time),278973.90000003576,A,lake,I,e,222,1,1583.2000000476837,277390.6999999881,9009,WL,B,8.0
2,16.532999992370605,learn,43467.000007629395,Tue Feb 18 2025 14:35:40 GMT-0500 (Eastern Standard Time),279240.1999999881,A,lakeenter,I,enter,243,1,1849.5,277390.6999999881,9009,WL,B,8.0
2,17.01699995994568,learn,42983.00004005432,Tue Feb 18 2025 14:35:40 GMT-0500 (Eastern Standard Time),279724.0,A,c,I,c,460,1,483.5,279240.5,9009,WL,B,9.0
2,17.25,learn,42750.0,Tue Feb 18 2025 14:35:40 GMT-0500 (Eastern Standard Time),279957.3000000119,A,ca,I,a,214,1,716.8000000119209,279240.5,9009,WL,B,9.0
2,18.016000032424927,learn,41983.99996757507,Tue Feb 18 2025 14:35:40 GMT-0500 (Eastern Standard Time),280723.5,A,cab,I,b,748,1,1483.0,279240.5,9009,WL,B,9.0
2,18.350000143051147,learn,41649.99985694885,Tue Feb 18 2025 14:35:40 GMT-0500 (Eastern Standard Time),281057.40000003576,A,cabi,I,i,320,1,1816.9000000357628,279240.5,9009,WL,B,9.0
2,18.66700005531311,learn,41332.99994468689,Tue Feb 18 2025 14:35:40 GMT-0500 (Eastern Standard Time),281373.8000000119,A,cabin,I,n,305,1,2133.300000011921,279240.5,9009,WL,B,9.0
2,19.00100016593933,learn,40998.99983406067,Tue Feb 18 2025 14:35:40 GMT-0500 (Eastern Standard Time),281707.8000000119,A,cabinenter,I,enter,307,1,2467.300000011921,279240.5,9009,WL,B,9.0
2,19.467000007629395,learn,40532.999992370605,Tue Feb 18 2025 14:35:40 GMT-0500 (Eastern Standard Time),282173.90000003576,A,s,I,s,456,1,465.7000000476837,281708.1999999881,9009,WL,B,10.0
2,19.68400001525879,learn,40315.99998474121,Tue Feb 18 2025 14:35:40 GMT-0500 (Eastern Standard Time),282390.6999999881,A,st,I,t,196,1,682.5,281708.1999999881,9009,WL,B,10.0
2,20.03500008583069,learn,39964.99991416931,Tue Feb 18 2025 14:35:40 GMT-0500 (Eastern Standard Time),282742.1999999881,A,str,I,r,325,1,1034.0,281708.1999999881,9009,WL,B,10.0
2,20.200000047683716,learn,39799.999952316284,Tue Feb 18 2025 14:35:40 GMT-0500 (Eastern Standard Time),282907.1999999881,A,stre,I,e,144,1,1199.0,281708.1999999881,9009,WL,B,10.0
2,20.51699995994568,learn,39483.00004005432,Tue Feb 18 2025 14:35:40 GMT-0500 (Eastern Standard Time),283224.0,A,stree,I,e,295,1,1515.800000011921,281708.1999999881,9009,WL,B,10.0
2,20.700000047683716,learn,39299.999952316284,Tue Feb 18 2025 14:35:40 GMT-0500 (Eastern Standard Time),283407.1999999881,A,street,I,t,170,1,1699.0,281708.1999999881,9009,WL,B,10.0
2,21.23300004005432,learn,38766.99995994568,Tue Feb 18 2025 14:35:40 GMT-0500 (Eastern Standard Time),283940.10000002384,A,streetenter,I,enter,506,1,2231.900000035763,281708.1999999881,9009,WL,B,10.0
2,21.700000047683716,learn,38299.999952316284,Tue Feb 18 2025 14:35:40 GMT-0500 (Eastern Standard Time),284407.3000000119,A,g,I,g,449,1,466.69999998807907,283940.60000002384,9009,WL,B,11.0
2,22.034000158309937,learn,37965.99984169006,Tue Feb 18 2025 14:35:40 GMT-0500 (Eastern Standard Time),284740.8000000119,A,gr,I,r,307,1,800.1999999880791,283940.60000002384,9009,WL,B,11.0
2,22.18400001525879,learn,37815.99998474121,Tue Feb 18 2025 14:35:40 GMT-0500 (Eastern Standard Time),284890.6999999881,A,gra,I,a,125,1,950.0999999642372,283940.60000002384,9009,WL,B,11.0
2,22.799999952316284,learn,37200.000047683716,Tue Feb 18 2025 14:35:40 GMT-0500 (Eastern Standard Time),285507.40000003576,A,gras,I,s,600,1,1566.800000011921,283940.60000002384,9009,WL,B,11.0
2,23.051000118255615,learn,36948.999881744385,Tue Feb 18 2025 14:35:40 GMT-0500 (Eastern Standard Time),285758.3000000119,A,grass,I,s,239,1,1817.699999988079,283940.60000002384,9009,WL,B,11.0
2,23.532999992370605,learn,36467.000007629395,Tue Feb 18 2025 14:35:40 GMT-0500 (Eastern Standard Time),286240.10000002384,A,grassenter,I,enter,466,1,2299.5,283940.60000002384,9009,WL,B,11.0
2,24.91700005531311,learn,35082.99994468689,Tue Feb 18 2025 14:35:40 GMT-0500 (Eastern Standard Time),287624.0,A,s,I,s,1365,1,1383.3999999761581,286240.60000002384,9009,WL,B,12.0
2,25.766000032424927,learn,34233.99996757507,Tue Feb 18 2025 14:35:40 GMT-0500 (Eastern Standard Time),288473.5,A,st,I,t,825,1,2232.899999976158,286240.60000002384,9009,WL,B,12.0
2,26.100000143051147,learn,33899.99985694885,Tue Feb 18 2025 14:35:40 GMT-0500 (Eastern Standard Time),288807.40000003576,A,sta,I,a,314,1,2566.800000011921,286240.60000002384,9009,WL,B,12.0
2,26.51699995994568,learn,33483.00004005432,Tue Feb 18 2025 14:35:40 GMT-0500 (Eastern Standard Time),289223.8000000119,A,star,I,r,394,1,2983.199999988079,286240.60000002384,9009,WL,B,12.0
2,26.83299994468689,learn,33167.00005531311,Tue Feb 18 2025 14:35:40 GMT-0500 (Eastern Standard Time),289540.0,A,starenter,I,enter,297,1,3299.399999976158,286240.60000002384,9009,WL,B,12.0
2,27.217000007629395,learn,32782.999992370605,Tue Feb 18 2025 14:35:40 GMT-0500 (Eastern Standard Time),289923.90000003576,A,a,I,a,369,1,383.60000002384186,289540.3000000119,9009,WL,B,13.0
2,27.433000087738037,learn,32566.999912261963,Tue Feb 18 2025 14:35:40 GMT-0500 (Eastern Standard Time),290140.5,A,ar,I,r,206,1,600.1999999880791,289540.3000000119,9009,WL,B,13.0
2,28.58400011062622,learn,31415.99988937378,Tue Feb 18 2025 14:35:40 GMT-0500 (Eastern Standard Time),291290.6999999881,A,arm,I,m,1118,1,1750.3999999761581,289540.3000000119,9009,WL,B,13.0
2,28.950999975204468,learn,31049.000024795532,Tue Feb 18 2025 14:35:40 GMT-0500 (Eastern Standard Time),291657.90000003576,A,armenter,I,enter,342,1,2117.600000023842,289540.3000000119,9009,WL,B,13.0
2,37.15000009536743,learn,22849.99990463257,Tue Feb 18 2025 14:35:40 GMT-0500 (Eastern Standard Time),299857.1999999881,A,p,I,p,8187,1,8198.899999976158,291658.3000000119,9009,WL,B,14.0
2,37.74900007247925,learn,22250.999927520752,Tue Feb 18 2025 14:35:40 GMT-0500 (Eastern Standard Time),300456.60000002384,A,pu,I,u,574,1,8798.300000011921,291658.3000000119,9009,WL,B,14.0
2,38.0,learn,22000.0,Tue Feb 18 2025 14:35:40 GMT-0500 (Eastern Standard Time),300707.1999999881,A,pup,I,p,237,1,9048.899999976158,291658.3000000119,9009,WL,B,14.0
2,38.31700015068054,learn,21682.999849319458,Tue Feb 18 2025 14:35:40 GMT-0500 (Eastern Standard Time),301024.0,A,pupi,I,i,303,1,9365.699999988079,291658.3000000119,9009,WL,B,14.0
2,39.43400001525879,learn,20565.99998474121,Tue Feb 18 2025 14:35:40 GMT-0500 (Eastern Standard Time),302140.8000000119,A,pupil,I,l,1106,1,10482.5,291658.3000000119,9009,WL,B,14.0
2,39.96600008010864,learn,20033.999919891357,Tue Feb 18 2025 14:35:40 GMT-0500 (Eastern Standard Time),302673.40000003576,A,pupilenter,I,enter,516,1,11015.100000023842,291658.3000000119,9009,WL,B,14.0
2,42.66700005531311,learn,17332.99994468689,Tue Feb 18 2025 14:35:40 GMT-0500 (Eastern Standard Time),305374.0,A,s,I,s,2691,1,2700.199999988079,302673.8000000119,9009,WL,B,15.0
2,42.78400015830994,learn,17215.999841690063,Tue Feb 18 2025 14:35:40 GMT-0500 (Eastern Standard Time),305490.60000002384,A,sk,I,k,98,1,2816.800000011921,302673.8000000119,9009,WL,B,15.0
2,43.049999952316284,learn,16950.000047683716,Tue Feb 18 2025 14:35:40 GMT-0500 (Eastern Standard Time),305756.90000003576,A,ski,I,i,255,1,3083.100000023842,302673.8000000119,9009,WL,B,15.0
2,43.282999992370605,learn,16717.000007629395,Tue Feb 18 2025 14:35:40 GMT-0500 (Eastern Standard Time),305990.10000002384,A,skin,I,n,215,1,3316.300000011921,302673.8000000119,9009,WL,B,15.0
2,43.93300008773804,learn,16066.999912261963,Tue Feb 18 2025 14:35:40 GMT-0500 (Eastern Standard Time),306640.1999999881,A,skinenter,I,enter,638,1,3966.399999976158,302673.8000000119,9009,WL,B,15.0
3,0.8159999847412109,learn,59184.00001525879,Tue Feb 18 2025 14:35:40 GMT-0500 (Eastern Standard Time),373673.3000000119,A,f,I,f,792,1,815.8999999761581,372857.40000003576,9009,WL,B,1.0
3,1.0329999923706055,learn,58967.000007629395,Tue Feb 18 2025 14:35:40 GMT-0500 (Eastern Standard Time),373890.60000002384,A,fi,I,i,204,1,1033.199999988079,372857.40000003576,9009,WL,B,1.0
3,1.315999984741211,learn,58684.00001525879,Tue Feb 18 2025 14:35:40 GMT-0500 (Eastern Standard Time),374173.40000003576,A,fir,I,r,271,1,1316.0,372857.40000003576,9009,WL,B,1.0
3,1.4830000400543213,learn,58516.99995994568,Tue Feb 18 2025 14:35:40 GMT-0500 (Eastern Standard Time),374340.60000002384,A,fire,I,e,152,1,1483.199999988079,372857.40000003576,9009,WL,B,1.0
3,1.8829998970031738,learn,58117.000102996826,Tue Feb 18 2025 14:35:40 GMT-0500 (Eastern Standard Time),374740.10000002384,A,fireenter,I,enter,380,1,1882.699999988079,372857.40000003576,9009,WL,B,1.0
3,2.3329999446868896,learn,57667.00005531311,Tue Feb 18 2025 14:35:40 GMT-0500 (Eastern Standard Time),375190.10000002384,A,c,I,c,433,1,449.60000002384186,374740.5,9009,WL,B,2.0
3,2.5999999046325684,learn,57400.00009536743,Tue Feb 18 2025 14:35:40 GMT-0500 (Eastern Standard Time),375457.3000000119,A,cl,I,l,255,1,716.8000000119209,374740.5,9009,WL,B,2.0
3,2.7669999599456787,learn,57233.00004005432,Tue Feb 18 2025 14:35:40 GMT-0500 (Eastern Standard Time),375623.6999999881,A,clo,I,o,144,1,883.1999999880791,374740.5,9009,WL,B,2.0
3,2.9830000400543213,learn,57016.99995994568,Tue Feb 18 2025 14:35:40 GMT-0500 (Eastern Standard Time),375840.60000002384,A,cloc,I,c,203,1,1100.1000000238419,374740.5,9009,WL,B,2.0
3,3.2330000400543213,learn,56766.99995994568,Tue Feb 18 2025 14:35:40 GMT-0500 (Eastern Standard Time),376090.60000002384,A,clock,I,k,225,1,1350.1000000238419,374740.5,9009,WL,B,2.0
3,3.5329999923706055,learn,56467.000007629395,Tue Feb 18 2025 14:35:40 GMT-0500 (Eastern Standard Time),376390.0,A,clockenter,I,enter,278,1,1649.5,374740.5,9009,WL,B,2.0
3,4.233000040054321,learn,55766.99995994568,Tue Feb 18 2025 14:35:40 GMT-0500 (Eastern Standard Time),377090.6999999881,A,l,I,l,687,1,700.2999999523163,376390.40000003576,9009,WL,B,3.0
3,4.398999929428101,learn,55601.0000705719,Tue Feb 18 2025 14:35:40 GMT-0500 (Eastern Standard Time),377256.5,A,la,I,a,142,1,866.0999999642372,376390.40000003576,9009,WL,B,3.0
3,4.58299994468689,learn,55417.00005531311,Tue Feb 18 2025 14:35:40 GMT-0500 (Eastern Standard Time),377440.60000002384,A,lak,I,k,173,1,1050.199999988079,376390.40000003576,9009,WL,B,3.0
3,4.816999912261963,learn,55183.00008773804,Tue Feb 18 2025 14:35:40 GMT-0500 (Eastern Standard Time),377673.8000000119,A,lake,I,e,210,1,1283.3999999761581,376390.40000003576,9009,WL,B,3.0
3,5.049999952316284,learn,54950.000047683716,Tue Feb 18 2025 14:35:40 GMT-0500 (Eastern Standard Time),377906.6999999881,A,lakeenter,I,enter,214,1,1516.2999999523163,376390.40000003576,9009,WL,B,3.0
3,5.566999912261963,learn,54433.00008773804,Tue Feb 18 2025 14:35:40 GMT-0500 (Eastern Standard Time),378423.6999999881,A,c,I,c,499,1,516.5999999642372,377907.10000002384,9009,WL,B,4.0
3,5.7829999923706055,learn,54217.000007629395,Tue Feb 18 2025 14:35:40 GMT-0500 (Eastern Standard Time),378640.60000002384,A,ca,I,a,203,1,733.5,377907.10000002384,9009,WL,B,4.0
3,6.0,learn,54000.0,Tue Feb 18 2025 14:35:40 GMT-0500 (Eastern Standard Time),378856.90000003576,A,cab,I,b,193,1,949.8000000119209,377907.10000002384,9009,WL,B,4.0
3,6.266000032424927,learn,53733.99996757507,Tue Feb 18 2025 14:35:40 GMT-0500 (Eastern Standard Time),379123.5,A,cabi,I,i,244,1,1216.3999999761581,377907.10000002384,9009,WL,B,4.0
3,6.516999959945679,learn,53483.00004005432,Tue Feb 18 2025 14:35:40 GMT-0500 (Eastern Standard Time),379373.8000000119,A,cabin,I,n,239,1,1466.699999988079,377907.10000002384,9009,WL,B,4.0
3,6.898999929428101,learn,53101.0000705719,Tue Feb 18 2025 14:35:40 GMT-0500 (Eastern Standard Time),379756.60000002384,A,cabinenter,I,enter,371,1,1849.5,377907.10000002384,9009,WL,B,4.0
3,9.115999937057495,learn,50884.000062942505,Tue Feb 18 2025 14:35:40 GMT-0500 (Eastern Standard Time),381973.6999999881,A,p,I,p,2201,1,2216.699999988079,379757.0,9009,WL,B,5.0
3,9.382999897003174,learn,50617.000102996826,Tue Feb 18 2025 14:35:40 GMT-0500 (Eastern Standard Time),382240.60000002384,A,pu,I,u,252,1,2483.600000023842,379757.0,9009,WL,B,5.0
3,9.632999897003174,learn,50367.000102996826,Tue Feb 18 2025 14:35:40 GMT-0500 (Eastern Standard Time),382490.60000002384,A,pup,I,p,225,1,2733.600000023842,379757.0,9009,WL,B,5.0
3,9.882999897003174,learn,50117.000102996826,Tue Feb 18 2025 14:35:40 GMT-0500 (Eastern Standard Time),382740.5,A,pupi,I,i,231,1,2983.5,379757.0,9009,WL,B,5.0
3,10.25,learn,49750.0,Tue Feb 18 2025 14:35:40 GMT-0500 (Eastern Standard Time),383107.3000000119,A,pupil,I,l,349,1,3350.300000011921,379757.0,9009,WL,B,5.0
3,10.682999849319458,learn,49317.00015068054,Tue Feb 18 2025 14:35:40 GMT-0500 (Eastern Standard Time),383540.0,A,pupilenter,I,enter,414,1,3783.0,379757.0,9009,WL,B,5.0
3,11.432999849319458,learn,48567.00015068054,Tue Feb 18 2025 14:35:40 GMT-0500 (Eastern Standard Time),384290.6999999881,A,s,I,s,736,1,750.2999999523163,383540.40000003576,9009,WL,B,6.0
3,11.66599988937378,learn,48334.00011062622,Tue Feb 18 2025 14:35:40 GMT-0500 (Eastern Standard Time),384523.60000002384,A,sk,I,k,207,1,983.1999999880791,383540.40000003576,9009,WL,B,6.0
3,11.91700005531311,learn,48082.99994468689,Tue Feb 18 2025 14:35:40 GMT-0500 (Eastern Standard Time),384773.90000003576,A,ski,I,i,230,1,1233.5,383540.40000003576,9009,WL,B,6.0
3,12.116999864578247,learn,47883.00013542175,Tue Feb 18 2025 14:35:40 GMT-0500 (Eastern Standard Time),384973.8000000119,A,skin,I,n,187,1,1433.3999999761581,383540.40000003576,9009,WL,B,6.0
3,12.532999992370605,learn,47467.000007629395,Tue Feb 18 2025 14:35:40 GMT-0500 (Eastern Standard Time),385390.0,A,skinenter,I,enter,404,1,1849.5999999642372,383540.40000003576,9009,WL,B,6.0
3,13.549999952316284,learn,46450.000047683716,Tue Feb 18 2025 14:35:40 GMT-0500 (Eastern Standard Time),386407.3000000119,A,l,I,l,999,1,1016.8999999761581,385390.40000003576,9009,WL,B,7.0
3,13.733000040054321,learn,46266.99995994568,Tue Feb 18 2025 14:35:40 GMT-0500 (Eastern Standard Time),386590.1999999881,A,la,I,a,171,1,1199.7999999523163,385390.40000003576,9009,WL,B,7.0
3,13.932999849319458,learn,46067.00015068054,Tue Feb 18 2025 14:35:40 GMT-0500 (Eastern Standard Time),386790.60000002384,A,lak,I,k,179,1,1400.199999988079,385390.40000003576,9009,WL,B,7.0
3,14.115999937057495,learn,45884.000062942505,Tue Feb 18 2025 14:35:40 GMT-0500 (Eastern Standard Time),386973.5,A,lake,I,e,164,1,1583.0999999642372,385390.40000003576,9009,WL,B,7.0
3,14.382999897003174,learn,45617.000102996826,Tue Feb 18 2025 14:35:40 GMT-0500 (Eastern Standard Time),387240.10000002384,A,lakeenter,I,enter,243,1,1849.699999988079,385390.40000003576,9009,WL,B,7.0
3,14.83299994468689,learn,45167.00005531311,Tue Feb 18 2025 14:35:40 GMT-0500 (Eastern Standard Time),387690.60000002384,A,c,I,c,429,1,450.10000002384186,387240.5,9009,WL,B,8.0
3,14.967000007629395,learn,45032.999992370605,Tue Feb 18 2025 14:35:40 GMT-0500 (Eastern Standard Time),387823.90000003576,A,ca,I,a,119,1,583.4000000357628,387240.5,9009,WL,B,8.0
3,15.25,learn,44750.0,Tue Feb 18 2025 14:35:40 GMT-0500 (Eastern Standard Time),388106.90000003576,A,cab,I,b,251,1,866.4000000357628,387240.5,9009,WL,B,8.0
3,15.467000007629395,learn,44532.999992370605,Tue Feb 18 2025 14:35:40 GMT-0500 (Eastern Standard Time),388323.6999999881,A,cabi,I,i,199,1,1083.199999988079,387240.5,9009,WL,B,8.0
3,15.682999849319458,learn,44317.00015068054,Tue Feb 18 2025 14:35:40 GMT-0500 (Eastern Standard Time),388540.60000002384,A,cabin,I,n,184,1,1300.1000000238419,387240.5,9009,WL,B,8.0
3,16.132999897003174,learn,43867.000102996826,Tue Feb 18 2025 14:35:40 GMT-0500 (Eastern Standard Time),388989.90000003576,A,cabinenter,I,enter,437,1,1749.4000000357628,387240.5,9009,WL,B,8.0
3,16.882999897003174,learn,43117.000102996826,Tue Feb 18 2025 14:35:40 GMT-0500 (Eastern Standard Time),389739.90000003576,A,s,I,s,741,1,749.5,388990.40000003576,9009,WL,B,9.0
3,17.049999952316284,learn,42950.000047683716,Tue Feb 18 2025 14:35:40 GMT-0500 (Eastern Standard Time),389907.1999999881,A,st,I,t,149,1,916.7999999523163,388990.40000003576,9009,WL,B,9.0
3,17.300999879837036,learn,42699.000120162964,Tue Feb 18 2025 14:35:40 GMT-0500 (Eastern Standard Time),390158.1999999881,A,str,I,r,239,1,1167.7999999523163,388990.40000003576,9009,WL,B,9.0
3,17.549999952316284,learn,42450.000047683716,Tue Feb 18 2025 14:35:40 GMT-0500 (Eastern Standard Time),390407.1999999881,A,stre,I,e,227,1,1416.7999999523163,388990.40000003576,9009,WL,B,9.0
3,17.700000047683716,learn,42299.999952316284,Tue Feb 18 2025 14:35:40 GMT-0500 (Eastern Standard Time),390556.6999999881,A,stree,I,e,132,1,1566.2999999523163,388990.40000003576,9009,WL,B,9.0
3,17.84999990463257,learn,42150.00009536743,Tue Feb 18 2025 14:35:40 GMT-0500 (Eastern Standard Time),390706.60000002384,A,street,I,t,125,1,1716.199999988079,388990.40000003576,9009,WL,B,9.0
3,18.132999897003174,learn,41867.000102996826,Tue Feb 18 2025 14:35:40 GMT-0500 (Eastern Standard Time),390989.90000003576,A,streetenter,I,enter,274,1,1999.5,388990.40000003576,9009,WL,B,9.0
3,19.399999856948853,learn,40600.00014305115,Tue Feb 18 2025 14:35:40 GMT-0500 (Eastern Standard Time),392256.6999999881,A,g,I,g,1254,1,1266.3999999761581,390990.3000000119,9009,WL,B,10.0
3,19.66700005531311,learn,40332.99994468689,Tue Feb 18 2025 14:35:40 GMT-0500 (Eastern Standard Time),392523.90000003576,A,gr,I,r,245,1,1533.6000000238419,390990.3000000119,9009,WL,B,10.0
3,19.782999992370605,learn,40217.000007629395,Tue Feb 18 2025 14:35:40 GMT-0500 (Eastern Standard Time),392640.60000002384,A,gra,I,a,102,1,1650.300000011921,390990.3000000119,9009,WL,B,10.0
3,20.01699995994568,learn,39983.00004005432,Tue Feb 18 2025 14:35:40 GMT-0500 (Eastern Standard Time),392873.8000000119,A,gras,I,s,210,1,1883.5,390990.3000000119,9009,WL,B,10.0
3,20.283999919891357,learn,39716.00008010864,Tue Feb 18 2025 14:35:40 GMT-0500 (Eastern Standard Time),393140.8000000119,A,grass,I,s,248,1,2150.5,390990.3000000119,9009,WL,B,10.0
3,20.58299994468689,learn,39417.00005531311,Tue Feb 18 2025 14:35:40 GMT-0500 (Eastern Standard Time),393440.10000002384,A,grassenter,I,enter,276,1,2449.800000011921,390990.3000000119,9009,WL,B,10.0
3,21.217000007629395,learn,38782.999992370605,Tue Feb 18 2025 14:35:40 GMT-0500 (Eastern Standard Time),394073.8000000119,A,s,I,s,613,1,633.3999999761581,393440.40000003576,9009,WL,B,11.0
3,21.465999841690063,learn,38534.00015830994,Tue Feb 18 2025 14:35:40 GMT-0500 (Eastern Standard Time),394323.40000003576,A,st,I,t,232,1,883.0,393440.40000003576,9009,WL,B,11.0
3,21.73300004005432,learn,38266.99995994568,Tue Feb 18 2025 14:35:40 GMT-0500 (Eastern Standard Time),394590.60000002384,A,sta,I,a,258,1,1150.199999988079,393440.40000003576,9009,WL,B,11.0
3,22.0,learn,38000.0,Tue Feb 18 2025 14:35:40 GMT-0500 (Eastern Standard Time),394856.6999999881,A,star,I,r,242,1,1416.2999999523163,393440.40000003576,9009,WL,B,11.0
3,22.382999897003174,learn,37617.000102996826,Tue Feb 18 2025 14:35:40 GMT-0500 (Eastern Standard Time),395240.0,A,starenter,I,enter,362,1,1799.5999999642372,393440.40000003576,9009,WL,B,11.0
3,22.865999937057495,learn,37134.000062942505,Tue Feb 18 2025 14:35:40 GMT-0500 (Eastern Standard Time),395723.60000002384,A,a,I,a,461,1,483.19999998807907,395240.40000003576,9009,WL,B,12.0
3,23.049999952316284,learn,36950.000047683716,Tue Feb 18 2025 14:35:40 GMT-0500 (Eastern Standard Time),395906.6999999881,A,ar,I,r,164,1,666.2999999523163,395240.40000003576,9009,WL,B,12.0
3,23.48300004005432,learn,36516.99995994568,Tue Feb 18 2025 14:35:40 GMT-0500 (Eastern Standard Time),396340.60000002384,A,arm,I,m,417,1,1100.199999988079,395240.40000003576,9009,WL,B,12.0
3,24.115999937057495,learn,35884.000062942505,Tue Feb 18 2025 14:35:40 GMT-0500 (Eastern Standard Time),396973.3000000119,A,armenter,I,enter,620,1,1732.8999999761581,395240.40000003576,9009,WL,B,12.0
3,24.799999952316284,learn,35200.000047683716,Tue Feb 18 2025 14:35:40 GMT-0500 (Eastern Standard Time),397657.1999999881,A,c,I,c,664,1,683.5,396973.6999999881,9009,WL,B,13.0
3,25.115999937057495,learn,34884.000062942505,Tue Feb 18 2025 14:35:40 GMT-0500 (Eastern Standard Time),397973.40000003576,A,ci,I,i,296,1,999.7000000476837,396973.6999999881,9009,WL,B,13.0
3,25.382999897003174,learn,34617.000102996826,Tue Feb 18 2025 14:35:40 GMT-0500 (Eastern Standard Time),398240.5,A,cit,I,t,254,1,1266.800000011921,396973.6999999881,9009,WL,B,13.0
3,25.84999990463257,learn,34150.00009536743,Tue Feb 18 2025 14:35:40 GMT-0500 (Eastern Standard Time),398707.1999999881,A,city,I,y,449,1,1733.5,396973.6999999881,9009,WL,B,13.0
3,26.41599988937378,learn,33584.00011062622,Tue Feb 18 2025 14:35:40 GMT-0500 (Eastern Standard Time),399273.40000003576,A,cityenter,I,enter,542,1,2299.7000000476837,396973.6999999881,9009,WL,B,13.0
3,42.31699991226196,learn,17683.000087738037,Tue Feb 18 2025 14:35:40 GMT-0500 (Eastern Standard Time),415174.0,A,c,I,c,15884,1,15900.199999988079,399273.8000000119,9009,WL,B,14.0
3,42.467000007629395,learn,17532.999992370605,Tue Feb 18 2025 14:35:40 GMT-0500 (Eastern Standard Time),415323.6999999881,A,cl,I,l,116,1,16049.899999976158,399273.8000000119,9009,WL,B,14.0
3,42.61699986457825,learn,17383.000135421753,Tue Feb 18 2025 14:35:40 GMT-0500 (Eastern Standard Time),415473.8000000119,A,clo,I,o,126,1,16200.0,399273.8000000119,9009,WL,B,14.0
3,42.799999952316284,learn,17200.000047683716,Tue Feb 18 2025 14:35:40 GMT-0500 (Eastern Standard Time),415657.1999999881,A,cloc,I,c,152,1,16383.399999976158,399273.8000000119,9009,WL,B,14.0
3,42.89999985694885,learn,17100.000143051147,Tue Feb 18 2025 14:35:40 GMT-0500 (Eastern Standard Time),415756.8000000119,A,clock,I,k,88,1,16483.0,399273.8000000119,9009,WL,B,14.0
3,43.23300004005432,learn,16766.99995994568,Tue Feb 18 2025 14:35:40 GMT-0500 (Eastern Standard Time),416090.10000002384,A,clockenter,I,enter,308,1,16816.30000001192,399273.8000000119,9009,WL,B,14.0
3,47.882999897003174,learn,12117.000102996826,Tue Feb 18 2025 14:35:40 GMT-0500 (Eastern Standard Time),420740.5,A,p,I,p,4635,1,4650.099999964237,416090.40000003576,9009,WL,B,15.0
3,48.200000047683716,learn,11799.999952316284,Tue Feb 18 2025 14:35:40 GMT-0500 (Eastern Standard Time),421057.1999999881,A,pu,I,u,301,1,4966.799999952316,416090.40000003576,9009,WL,B,15.0
3,48.382999897003174,learn,11617.000102996826,Tue Feb 18 2025 14:35:40 GMT-0500 (Eastern Standard Time),421240.10000002384,A,pup,I,p,159,1,5149.699999988079,416090.40000003576,9009,WL,B,15.0
3,48.61699986457825,learn,11383.000135421753,Tue Feb 18 2025 14:35:40 GMT-0500 (Eastern Standard Time),421473.90000003576,A,pupi,I,i,216,1,5383.5,416090.40000003576,9009,WL,B,15.0
3,48.865999937057495,learn,11134.000062942505,Tue Feb 18 2025 14:35:40 GMT-0500 (Eastern Standard Time),421723.40000003576,A,pupil,I,l,223,1,5633.0,416090.40000003576,9009,WL,B,15.0
3,49.132999897003174,learn,10867.000102996826,Tue Feb 18 2025 14:35:40 GMT-0500 (Eastern Standard Time),421989.90000003576,A,pupilenter,I,enter,249,1,5899.5,416090.40000003576,9009,WL,B,15.0
4,1.0999999046325684,learn,58900.00009536743,Tue Feb 18 2025 14:35:40 GMT-0500 (Eastern Standard Time),488956.8000000119,A,s,I,s,1089,1,1099.199999988079,487857.60000002384,9009,WL,B,1.0
4,1.3329999446868896,learn,58667.00005531311,Tue Feb 18 2025 14:35:40 GMT-0500 (Eastern Standard Time),489190.3000000119,A,sk,I,k,210,1,1332.699999988079,487857.60000002384,9009,WL,B,1.0
4,1.616999864578247,learn,58383.00013542175,Tue Feb 18 2025 14:35:40 GMT-0500 (Eastern Standard Time),489473.6999999881,A,ski,I,i,268,1,1616.0999999642372,487857.60000002384,9009,WL,B,1.0
4,1.9010000228881836,learn,58098.99997711182,Tue Feb 18 2025 14:35:40 GMT-0500 (Eastern Standard Time),489758.10000002384,A,skin,I,n,273,1,1900.5,487857.60000002384,9009,WL,B,1.0
4,2.365999937057495,learn,57634.000062942505,Tue Feb 18 2025 14:35:40 GMT-0500 (Eastern Standard Time),490223.3000000119,A,skinenter,I,enter,452,1,2365.699999988079,487857.60000002384,9009,WL,B,1.0
4,2.815999984741211,learn,57184.00001525879,Tue Feb 18 2025 14:35:40 GMT-0500 (Eastern Standard Time),490673.60000002384,A,f,I,f,438,1,449.9000000357628,490223.6999999881,9009,WL,B,2.0
4,3.0,learn,57000.0,Tue Feb 18 2025 14:35:40 GMT-0500 (Eastern Standard Time),490857.10000002384,A,fi,I,i,161,1,633.4000000357628,490223.6999999881,9009,WL,B,2.0
4,3.2660000324249268,learn,56733.99996757507,Tue Feb 18 2025 14:35:40 GMT-0500 (Eastern Standard Time),491123.40000003576,A,fir,I,r,247,1,899.7000000476837,490223.6999999881,9009,WL,B,2.0
4,3.4159998893737793,learn,56584.00011062622,Tue Feb 18 2025 14:35:40 GMT-0500 (Eastern Standard Time),491273.6999999881,A,fire,I,e,127,1,1050.0,490223.6999999881,9009,WL,B,2.0
4,3.6659998893737793,learn,56334.00011062622,Tue Feb 18 2025 14:35:40 GMT-0500 (Eastern Standard Time),491523.10000002384,A,fireenter,I,enter,224,1,1299.4000000357628,490223.6999999881,9009,WL,B,2.0
4,4.33299994468689,learn,55667.00005531311,Tue Feb 18 2025 14:35:40 GMT-0500 (Eastern Standard Time),492190.3000000119,A,c,I,c,659,1,667.0,491523.3000000119,9009,WL,B,3.0
4,4.632999897003174,learn,55367.000102996826,Tue Feb 18 2025 14:35:40 GMT-0500 (Eastern Standard Time),492490.40000003576,A,cl,I,l,276,1,967.1000000238419,491523.3000000119,9009,WL,B,3.0
4,4.849999904632568,learn,55150.00009536743,Tue Feb 18 2025 14:35:40 GMT-0500 (Eastern Standard Time),492707.10000002384,A,clo,I,o,200,1,1183.800000011921,491523.3000000119,9009,WL,B,3.0
4,5.08299994468689,learn,54917.00005531311,Tue Feb 18 2025 14:35:40 GMT-0500 (Eastern Standard Time),492940.10000002384,A,cloc,I,c,206,1,1416.800000011921,491523.3000000119,9009,WL,B,3.0
4,5.415999889373779,learn,54584.00011062622,Tue Feb 18 2025 14:35:40 GMT-0500 (Eastern Standard Time),493273.5,A,clock,I,k,310,1,1750.199999988079,491523.3000000119,9009,WL,B,3.0
4,5.815999984741211,learn,54184.00001525879,Tue Feb 18 2025 14:35:40 GMT-0500 (Eastern Standard Time),493673.1999999881,A,clockenter,I,enter,374,1,2149.899999976158,491523.3000000119,9009,WL,B,3.0
4,6.415999889373779,learn,53584.00011062622,Tue Feb 18 2025 14:35:40 GMT-0500 (Eastern Standard Time),494273.60000002384,A,w,I,w,587,1,600.1000000238419,493673.5,9009,WL,B,4.0
4,6.848999977111816,learn,53151.00002288818,Tue Feb 18 2025 14:35:40 GMT-0500 (Eastern Standard Time),494706.5,A,wi,I,i,415,1,1033.0,493673.5,9009,WL,B,4.0
4,7.132999897003174,learn,52867.000102996826,Tue Feb 18 2025 14:35:40 GMT-0500 (Eastern Standard Time),494990.3000000119,A,wif,I,f,275,1,1316.800000011921,493673.5,9009,WL,B,4.0
4,7.2829999923706055,learn,52717.000007629395,Tue Feb 18 2025 14:35:40 GMT-0500 (Eastern Standard Time),495140.3000000119,A,wife,I,e,132,1,1466.800000011921,493673.5,9009,WL,B,4.0
4,7.415999889373779,learn,52584.00011062622,Tue Feb 18 2025 14:35:40 GMT-0500 (Eastern Standard Time),495273.10000002384,A,wifeenter,I,enter,108,1,1599.6000000238419,493673.5,9009,WL,B,4.0
4,8.066999912261963,learn,51933.00008773804,Tue Feb 18 2025 14:35:40 GMT-0500 (Eastern Standard Time),495923.6999999881,A,w,I,w,636,1,650.2999999523163,495273.40000003576,9009,WL,B,5.0
4,8.233000040054321,learn,51766.99995994568,Tue Feb 18 2025 14:35:40 GMT-0500 (Eastern Standard Time),496089.90000003576,A,wi,I,i,141,1,816.5,495273.40000003576,9009,WL,B,5.0
4,8.41599988937378,learn,51584.00011062622,Tue Feb 18 2025 14:35:40 GMT-0500 (Eastern Standard Time),496273.60000002384,A,win,I,n,169,1,1000.1999999880791,495273.40000003576,9009,WL,B,5.0
4,8.616999864578247,learn,51383.00013542175,Tue Feb 18 2025 14:35:40 GMT-0500 (Eastern Standard Time),496473.8000000119,A,wind,I,d,169,1,1200.3999999761581,495273.40000003576,9009,WL,B,5.0
4,8.782999992370605,learn,51217.000007629395,Tue Feb 18 2025 14:35:40 GMT-0500 (Eastern Standard Time),496640.40000003576,A,windo,I,o,153,1,1367.0,495273.40000003576,9009,WL,B,5.0
4,9.065999984741211,learn,50934.00001525879,Tue Feb 18 2025 14:35:40 GMT-0500 (Eastern Standard Time),496923.60000002384,A,window,I,w,250,1,1650.199999988079,495273.40000003576,9009,WL,B,5.0
4,9.365999937057495,learn,50634.000062942505,Tue Feb 18 2025 14:35:40 GMT-0500 (Eastern Standard Time),497223.1999999881,A,windowenter,I,enter,278,1,1949.7999999523163,495273.40000003576,9009,WL,B,5.0
4,10.58299994468689,learn,49417.00005531311,Tue Feb 18 2025 14:35:40 GMT-0500 (Eastern Standard Time),498440.40000003576,A,p,I,p,1198,1,1216.9000000357628,497223.5,9009,WL,B,6.0
4,11.032999992370605,learn,48967.000007629395,Tue Feb 18 2025 14:35:40 GMT-0500 (Eastern Standard Time),498890.40000003576,A,pu,I,u,424,1,1666.9000000357628,497223.5,9009,WL,B,6.0
4,11.450000047683716,learn,48549.999952316284,Tue Feb 18 2025 14:35:40 GMT-0500 (Eastern Standard Time),499306.6999999881,A,pup,I,p,391,1,2083.199999988079,497223.5,9009,WL,B,6.0
4,11.733000040054321,learn,48266.99995994568,Tue Feb 18 2025 14:35:40 GMT-0500 (Eastern Standard Time),499590.40000003576,A,pupi,I,i,264,1,2366.900000035763,497223.5,9009,WL,B,6.0
4,12.032999992370605,learn,47967.000007629395,Tue Feb 18 2025 14:35:40 GMT-0500 (Eastern Standard Time),499889.90000003576,A,pupil,I,l,283,1,2666.400000035763,497223.5,9009,WL,B,6.0
4,12.465999841690063,learn,47534.00015830994,Tue Feb 18 2025 14:35:40 GMT-0500 (Eastern Standard Time),500323.1999999881,A,pupilenter,I,enter,416,1,3099.699999988079,497223.5,9009,WL,B,6.0
4,13.382999897003174,learn,46617.000102996826,Tue Feb 18 2025 14:35:40 GMT-0500 (Eastern Standard Time),501240.60000002384,A,c,I,c,898,1,917.0,500323.60000002384,9009,WL,B,7.0
4,13.516000032424927,learn,46483.99996757507,Tue Feb 18 2025 14:35:40 GMT-0500 (Eastern Standard Time),501373.60000002384,A,ca,I,a,122,1,1050.0,500323.60000002384,9009,WL,B,7.0
4,15.182999849319458,learn,44817.00015068054,Tue Feb 18 2025 14:35:40 GMT-0500 (Eastern Standard Time),503040.3000000119,A,cab,I,b,1652,1,2716.699999988079,500323.60000002384,9009,WL,B,7.0
4,15.399999856948853,learn,44600.00014305115,Tue Feb 18 2025 14:35:40 GMT-0500 (Eastern Standard Time),503257.10000002384,A,cabi,I,i,187,1,2933.5,500323.60000002384,9009,WL,B,7.0
4,15.58299994468689,learn,44417.00005531311,Tue Feb 18 2025 14:35:40 GMT-0500 (Eastern Standard Time),503440.40000003576,A,cabin,I,n,161,1,3116.800000011921,500323.60000002384,9009,WL,B,7.0
4,16.016000032424927,learn,43983.99996757507,Tue Feb 18 2025 14:35:40 GMT-0500 (Eastern Standard Time),503873.10000002384,A,cabinenter,I,enter,417,1,3549.5,500323.60000002384,9009,WL,B,7.0
4,16.632999897003174,learn,43367.000102996826,Tue Feb 18 2025 14:35:40 GMT-0500 (Eastern Standard Time),504490.10000002384,A,l,I,l,596,1,616.6000000238419,503873.5,9009,WL,B,8.0
4,16.816999912261963,learn,43183.00008773804,Tue Feb 18 2025 14:35:40 GMT-0500 (Eastern Standard Time),504673.6999999881,A,la,I,a,167,1,800.1999999880791,503873.5,9009,WL,B,8.0
4,16.967000007629395,learn,43032.999992370605,Tue Feb 18 2025 14:35:40 GMT-0500 (Eastern Standard Time),504823.6999999881,A,lak,I,k,128,1,950.1999999880791,503873.5,9009,WL,B,8.0
4,17.16599988937378,learn,42834.00011062622,Tue Feb 18 2025 14:35:40 GMT-0500 (Eastern Standard Time),505023.1999999881,A,lake,I,e,178,1,1149.699999988079,503873.5,9009,WL,B,8.0
4,17.432999849319458,learn,42567.00015068054,Tue Feb 18 2025 14:35:40 GMT-0500 (Eastern Standard Time),505289.90000003576,A,lakeenter,I,enter,245,1,1416.4000000357628,503873.5,9009,WL,B,8.0
4,18.48300004005432,learn,41516.99995994568,Tue Feb 18 2025 14:35:40 GMT-0500 (Eastern Standard Time),506340.40000003576,A,s,I,s,1036,1,1050.1000000238419,505290.3000000119,9009,WL,B,9.0
4,18.632999897003174,learn,41367.000102996826,Tue Feb 18 2025 14:35:40 GMT-0500 (Eastern Standard Time),506490.40000003576,A,st,I,t,126,1,1200.1000000238419,505290.3000000119,9009,WL,B,9.0
4,18.91700005531311,learn,41082.99994468689,Tue Feb 18 2025 14:35:40 GMT-0500 (Eastern Standard Time),506773.6999999881,A,str,I,r,264,1,1483.3999999761581,505290.3000000119,9009,WL,B,9.0
4,19.016000032424927,learn,40983.99996757507,Tue Feb 18 2025 14:35:40 GMT-0500 (Eastern Standard Time),506873.40000003576,A,stre,I,e,76,1,1583.1000000238419,505290.3000000119,9009,WL,B,9.0
4,19.25,learn,40750.0,Tue Feb 18 2025 14:35:40 GMT-0500 (Eastern Standard Time),507106.6999999881,A,stree,I,e,207,1,1816.3999999761581,505290.3000000119,9009,WL,B,9.0
4,19.384000062942505,learn,40615.999937057495,Tue Feb 18 2025 14:35:40 GMT-0500 (Eastern Standard Time),507240.6999999881,A,street,I,t,113,1,1950.3999999761581,505290.3000000119,9009,WL,B,9.0
4,19.799000024795532,learn,40200.99997520447,Tue Feb 18 2025 14:35:40 GMT-0500 (Eastern Standard Time),507656.5,A,streetenter,I,enter,385,1,2366.199999988079,505290.3000000119,9009,WL,B,9.0
4,20.34999990463257,learn,39650.00009536743,Tue Feb 18 2025 14:35:40 GMT-0500 (Eastern Standard Time),508207.0,A,g,I,g,541,1,550.0999999642372,507656.90000003576,9009,WL,B,10.0
4,20.715999841690063,learn,39284.00015830994,Tue Feb 18 2025 14:35:40 GMT-0500 (Eastern Standard Time),508573.60000002384,A,gr,I,r,355,1,916.6999999880791,507656.90000003576,9009,WL,B,10.0
4,20.81599998474121,learn,39184.00001525879,Tue Feb 18 2025 14:35:40 GMT-0500 (Eastern Standard Time),508673.3000000119,A,gra,I,a,82,1,1016.3999999761581,507656.90000003576,9009,WL,B,10.0
4,21.08299994468689,learn,38917.00005531311,Tue Feb 18 2025 14:35:40 GMT-0500 (Eastern Standard Time),508940.3000000119,A,grad,I,d,240,1,1283.3999999761581,507656.90000003576,9009,WL,B,10.0
4,21.365999937057495,learn,38634.000062942505,Tue Feb 18 2025 14:35:40 GMT-0500 (Eastern Standard Time),509223.5,A,gradd,I,d,263,1,1566.5999999642372,507656.90000003576,9009,WL,B,10.0
4,21.83299994468689,learn,38167.00005531311,Tue Feb 18 2025 14:35:40 GMT-0500 (Eastern Standard Time),509689.90000003576,A,grad,I,backspace,442,1,2033.0,507656.90000003576,9009,WL,B,10.0
4,22.08299994468689,learn,37917.00005531311,Tue Feb 18 2025 14:35:40 GMT-0500 (Eastern Standard Time),509940.5,A,gra,I,backspace,235,1,2283.599999964237,507656.90000003576,9009,WL,B,10.0
4,22.217000007629395,learn,37782.999992370605,Tue Feb 18 2025 14:35:40 GMT-0500 (Eastern Standard Time),510073.8000000119,A,gras,I,s,103,1,2416.899999976158,507656.90000003576,9009,WL,B,10.0
4,22.549999952316284,learn,37450.000047683716,Tue Feb 18 2025 14:35:40 GMT-0500 (Eastern Standard Time),510407.0,A,grass,I,s,311,1,2750.099999964237,507656.90000003576,9009,WL,B,10.0
4,22.715999841690063,learn,37284.00015830994,Tue Feb 18 2025 14:35:40 GMT-0500 (Eastern Standard Time),510573.1999999881,A,grassenter,I,enter,154,1,2916.2999999523163,507656.90000003576,9009,WL,B,10.0
4,23.75,learn,36250.0,Tue Feb 18 2025 14:35:40 GMT-0500 (Eastern Standard Time),511607.0,A,s,I,s,1016,1,1033.5,510573.5,9009,WL,B,11.0
4,23.932999849319458,learn,36067.00015068054,Tue Feb 18 2025 14:35:40 GMT-0500 (Eastern Standard Time),511790.3000000119,A,st,I,t,170,1,1216.800000011921,510573.5,9009,WL,B,11.0
4,24.06599998474121,learn,35934.00001525879,Tue Feb 18 2025 14:35:40 GMT-0500 (Eastern Standard Time),511923.5,A,sta,I,a,115,1,1350.0,510573.5,9009,WL,B,11.0
4,24.299999952316284,learn,35700.000047683716,Tue Feb 18 2025 14:35:40 GMT-0500 (Eastern Standard Time),512156.6999999881,A,star,I,r,215,1,1583.199999988079,510573.5,9009,WL,B,11.0
4,24.66599988937378,learn,35334.00011062622,Tue Feb 18 2025 14:35:40 GMT-0500 (Eastern Standard Time),512523.5,A,starenter,I,enter,357,1,1950.0,510573.5,9009,WL,B,11.0
4,25.132999897003174,learn,34867.000102996826,Tue Feb 18 2025 14:35:40 GMT-0500 (Eastern Standard Time),512990.1999999881,A,a,I,a,457,1,466.2999999523163,512523.90000003576,9009,WL,B,12.0
4,25.366999864578247,learn,34633.00013542175,Tue Feb 18 2025 14:35:40 GMT-0500 (Eastern Standard Time),513223.8000000119,A,ar,I,r,212,1,699.8999999761581,512523.90000003576,9009,WL,B,12.0
4,25.76699995994568,learn,34233.00004005432,Tue Feb 18 2025 14:35:40 GMT-0500 (Eastern Standard Time),513623.6999999881,A,arm,I,m,370,1,1099.7999999523163,512523.90000003576,9009,WL,B,12.0
4,27.348999977111816,learn,32651.000022888184,Tue Feb 18 2025 14:35:40 GMT-0500 (Eastern Standard Time),515206.5,A,armenter,I,enter,1562,1,2682.599999964237,512523.90000003576,9009,WL,B,12.0
4,28.932999849319458,learn,31067.000150680542,Tue Feb 18 2025 14:35:40 GMT-0500 (Eastern Standard Time),516790.5,A,w,I,w,1567,1,1583.5999999642372,515206.90000003576,9009,WL,B,13.0
4,29.049000024795532,learn,30950.999975204468,Tue Feb 18 2025 14:35:40 GMT-0500 (Eastern Standard Time),516906.40000003576,A,wi,I,i,83,1,1699.5,515206.90000003576,9009,WL,B,13.0
4,29.282999992370605,learn,30717.000007629395,Tue Feb 18 2025 14:35:40 GMT-0500 (Eastern Standard Time),517140.5,A,wif,I,f,216,1,1933.5999999642372,515206.90000003576,9009,WL,B,13.0
4,29.399999856948853,learn,30600.000143051147,Tue Feb 18 2025 14:35:40 GMT-0500 (Eastern Standard Time),517257.0,A,wife,I,e,94,1,2050.099999964237,515206.90000003576,9009,WL,B,13.0
4,29.632999897003174,learn,30367.000102996826,Tue Feb 18 2025 14:35:40 GMT-0500 (Eastern Standard Time),517489.8000000119,A,wifeenter,I,enter,212,1,2282.899999976158,515206.90000003576,9009,WL,B,13.0
4,30.149999856948853,learn,29850.000143051147,Tue Feb 18 2025 14:35:40 GMT-0500 (Eastern Standard Time),518006.90000003576,A,w,I,w,498,1,516.7000000476837,517490.1999999881,9009,WL,B,14.0
4,30.33299994468689,learn,29667.00005531311,Tue Feb 18 2025 14:35:40 GMT-0500 (Eastern Standard Time),518190.3000000119,A,wi,I,i,171,1,700.1000000238419,517490.1999999881,9009,WL,B,14.0
4,30.549999952316284,learn,29450.000047683716,Tue Feb 18 2025 14:35:40 GMT-0500 (Eastern Standard Time),518407.0,A,win,I,n,196,1,916.8000000119209,517490.1999999881,9009,WL,B,14.0
4,30.782999992370605,learn,29217.000007629395,Tue Feb 18 2025 14:35:40 GMT-0500 (Eastern Standard Time),518640.40000003576,A,wind,I,d,219,1,1150.2000000476837,517490.1999999881,9009,WL,B,14.0
4,31.049999952316284,learn,28950.000047683716,Tue Feb 18 2025 14:35:40 GMT-0500 (Eastern Standard Time),518906.90000003576,A,windo,I,o,240,1,1416.7000000476837,517490.1999999881,9009,WL,B,14.0
4,31.33299994468689,learn,28667.00005531311,Tue Feb 18 2025 14:35:40 GMT-0500 (Eastern Standard Time),519190.3000000119,A,window,I,w,262,1,1700.1000000238419,517490.1999999881,9009,WL,B,14.0
4,31.83299994468689,learn,28167.00005531311,Tue Feb 18 2025 14:35:40 GMT-0500 (Eastern Standard Time),519689.90000003576,A,windowenter,I,enter,474,1,2199.7000000476837,517490.1999999881,9009,WL,B,14.0
4,35.29900002479553,learn,24700.999975204468,Tue Feb 18 2025 14:35:40 GMT-0500 (Eastern Standard Time),523156.5,A,p,I,p,3451,1,3466.300000011921,519690.1999999881,9009,WL,B,15.0
4,35.58299994468689,learn,24417.00005531311,Tue Feb 18 2025 14:35:40 GMT-0500 (Eastern Standard Time),523440.40000003576,A,pi,I,i,270,1,3750.2000000476837,519690.1999999881,9009,WL,B,15.0
4,35.799999952316284,learn,24200.000047683716,Tue Feb 18 2025 14:35:40 GMT-0500 (Eastern Standard Time),523656.90000003576,A,pip,I,p,193,1,3966.7000000476837,519690.1999999881,9009,WL,B,15.0
4,36.0,learn,24000.0,Tue Feb 18 2025 14:35:40 GMT-0500 (Eastern Standard Time),523857.0,A,pipe,I,e,186,1,4166.800000011921,519690.1999999881,9009,WL,B,15.0
4,36.26600003242493,learn,23733.999967575073,Tue Feb 18 2025 14:35:40 GMT-0500 (Eastern Standard Time),524122.90000003576,A,pipeenter,I,enter,233,1,4432.700000047684,519690.1999999881,9009,WL,B,15.0
5,1.0339999198913574,learn,60000.0,Tue Feb 18 2025 14:35:40 GMT-0500 (Eastern Standard Time),594707.1000000238,A,c,I,c,1017,1,1033.1000000238419,593674.0,9009,WL,B,1.0
5,1.2009999752044678,learn,60000.0,Tue Feb 18 2025 14:35:40 GMT-0500 (Eastern Standard Time),594873.9000000358,A,cl,I,l,143,1,1199.9000000357628,593674.0,9009,WL,B,1.0
5,1.3840000629425049,learn,60000.0,Tue Feb 18 2025 14:35:40 GMT-0500 (Eastern Standard Time),595057.0,A,clo,I,o,167,1,1383.0,593674.0,9009,WL,B,1.0
5,1.5999999046325684,learn,60000.0,Tue Feb 18 2025 14:35:40 GMT-0500 (Eastern Standard Time),595273.6000000238,A,cloc,I,c,186,1,1599.6000000238419,593674.0,9009,WL,B,1.0
5,1.7999999523162842,learn,60000.0,Tue Feb 18 2025 14:35:40 GMT-0500 (Eastern Standard Time),595473.6000000238,A,clock,I,k,185,1,1799.6000000238419,593674.0,9009,WL,B,1.0
5,2.132999897003174,learn,60000.0,Tue Feb 18 2025 14:35:40 GMT-0500 (Eastern Standard Time),595806.3000000119,A,clockenter,I,enter,320,1,2132.300000011921,593674.0,9009,WL,B,1.0
5,2.8329999446868896,learn,60000.0,Tue Feb 18 2025 14:35:40 GMT-0500 (Eastern Standard Time),596506.4000000358,A,f,I,f,677,1,699.7000000476837,595806.6999999881,9009,WL,B,2.0
5,3.0839998722076416,learn,60000.0,Tue Feb 18 2025 14:35:40 GMT-0500 (Eastern Standard Time),596756.9000000358,A,fi,I,i,235,1,950.2000000476837,595806.6999999881,9009,WL,B,2.0
5,3.299999952316284,learn,60000.0,Tue Feb 18 2025 14:35:40 GMT-0500 (Eastern Standard Time),596973.3000000119,A,fir,I,r,203,1,1166.6000000238419,595806.6999999881,9009,WL,B,2.0
5,3.5,learn,60000.0,Tue Feb 18 2025 14:35:40 GMT-0500 (Eastern Standard Time),597173.4000000358,A,fire,I,e,181,1,1366.7000000476837,595806.6999999881,9009,WL,B,2.0
5,3.950000047683716,learn,60000.0,Tue Feb 18 2025 14:35:40 GMT-0500 (Eastern Standard Time),597623.1000000238,A,fireenter,I,enter,423,1,1816.4000000357628,595806.6999999881,9009,WL,B,2.0
5,4.634000062942505,learn,60000.0,Tue Feb 18 2025 14:35:40 GMT-0500 (Eastern Standard Time),598306.9000000358,A,c,I,c,670,1,683.5,597623.4000000358,9009,WL,B,3.0
5,4.800999879837036,learn,60000.0,Tue Feb 18 2025 14:35:40 GMT-0500 (Eastern Standard Time),598473.6999999881,A,ca,I,a,144,1,850.2999999523163,597623.4000000358,9009,WL,B,3.0
5,5.0,learn,60000.0,Tue Feb 18 2025 14:35:40 GMT-0500 (Eastern Standard Time),598673.5,A,cab,I,b,182,1,1050.0999999642372,597623.4000000358,9009,WL,B,3.0
5,5.2850000858306885,learn,60000.0,Tue Feb 18 2025 14:35:40 GMT-0500 (Eastern Standard Time),598957.9000000358,A,cabi,I,i,273,1,1334.5,597623.4000000358,9009,WL,B,3.0
5,5.599999904632568,learn,60000.0,Tue Feb 18 2025 14:35:40 GMT-0500 (Eastern Standard Time),599273.6000000238,A,cabin,I,n,292,1,1650.199999988079,597623.4000000358,9009,WL,B,3.0
5,5.9670000076293945,learn,60000.0,Tue Feb 18 2025 14:35:40 GMT-0500 (Eastern Standard Time),599639.6999999881,A,cabinenter,I,enter,344,1,2016.2999999523163,597623.4000000358,9009,WL,B,3.0
5,6.634000062942505,learn,60000.0,Tue Feb 18 2025 14:35:40 GMT-0500 (Eastern Standard Time),600306.9000000358,A,l,I,l,653,1,666.8000000119209,599640.1000000238,9009,WL,B,4.0
5,6.816999912261963,learn,60000.0,Tue Feb 18 2025 14:35:40 GMT-0500 (Eastern Standard Time),600490.3000000119,A,la,I,a,160,1,850.1999999880791,599640.1000000238,9009,WL,B,4.0
5,7.049999952316284,learn,60000.0,Tue Feb 18 2025 14:35:40 GMT-0500 (Eastern Standard Time),600723.5,A,lak,I,k,215,1,1083.3999999761581,599640.1000000238,9009,WL,B,4.0
5,7.349999904632568,learn,60000.0,Tue Feb 18 2025 14:35:40 GMT-0500 (Eastern Standard Time),601023.6000000238,A,lake,I,e,287,1,1383.5,599640.1000000238,9009,WL,B,4.0
5,7.816999912261963,learn,60000.0,Tue Feb 18 2025 14:35:40 GMT-0500 (Eastern Standard Time),601489.6999999881,A,lakeenter,I,enter,450,1,1849.5999999642372,599640.1000000238,9009,WL,B,4.0
5,8.266999959945679,learn,60000.0,Tue Feb 18 2025 14:35:40 GMT-0500 (Eastern Standard Time),601940.1999999881,A,s,I,s,435,1,450.19999998807907,601490.0,9009,WL,B,5.0
5,8.549999952316284,learn,60000.0,Tue Feb 18 2025 14:35:40 GMT-0500 (Eastern Standard Time),602223.1000000238,A,sk,I,k,268,1,733.1000000238419,601490.0,9009,WL,B,5.0
5,8.866999864578247,learn,60000.0,Tue Feb 18 2025 14:35:40 GMT-0500 (Eastern Standard Time),602540.3000000119,A,ski,I,i,292,1,1050.300000011921,601490.0,9009,WL,B,5.0
5,9.149999856948853,learn,60000.0,Tue Feb 18 2025 14:35:40 GMT-0500 (Eastern Standard Time),602823.5,A,skin,I,n,262,1,1333.5,601490.0,9009,WL,B,5.0
5,9.75,learn,60000.0,Tue Feb 18 2025 14:35:40 GMT-0500 (Eastern Standard Time),603423.1000000238,A,skinenter,I,enter,579,1,1933.1000000238419,601490.0,9009,WL,B,5.0
5,10.516999959945679,learn,60000.0,Tue Feb 18 2025 14:35:40 GMT-0500 (Eastern Standard Time),604190.1999999881,A,p,I,p,758,1,766.7999999523163,603423.4000000358,9009,WL,B,6.0
5,10.849999904632568,learn,60000.0,Tue Feb 18 2025 14:35:40 GMT-0500 (Eastern Standard Time),604523.3000000119,A,pi,I,i,307,1,1099.8999999761581,603423.4000000358,9009,WL,B,6.0
5,11.049999952316284,learn,60000.0,Tue Feb 18 2025 14:35:40 GMT-0500 (Eastern Standard Time),604723.5,A,pip,I,p,182,1,1300.0999999642372,603423.4000000358,9009,WL,B,6.0
5,11.285000085830688,learn,60000.0,Tue Feb 18 2025 14:35:40 GMT-0500 (Eastern Standard Time),604957.8000000119,A,pipe,I,e,220,1,1534.3999999761581,603423.4000000358,9009,WL,B,6.0
5,11.565999984741211,learn,60000.0,Tue Feb 18 2025 14:35:40 GMT-0500 (Eastern Standard Time),605239.5,A,pipeenter,I,enter,259,1,1816.0999999642372,603423.4000000358,9009,WL,B,6.0
5,12.25,learn,60000.0,Tue Feb 18 2025 14:35:40 GMT-0500 (Eastern Standard Time),605923.6000000238,A,p,I,p,669,1,683.6999999880791,605239.9000000358,9009,WL,B,7.0
5,12.634000062942505,learn,60000.0,Tue Feb 18 2025 14:35:40 GMT-0500 (Eastern Standard Time),606307.1999999881,A,pu,I,u,366,1,1067.2999999523163,605239.9000000358,9009,WL,B,7.0
5,12.866999864578247,learn,60000.0,Tue Feb 18 2025 14:35:40 GMT-0500 (Eastern Standard Time),606540.1999999881,A,pup,I,p,210,1,1300.2999999523163,605239.9000000358,9009,WL,B,7.0
5,13.200000047683716,learn,60000.0,Tue Feb 18 2025 14:35:40 GMT-0500 (Eastern Standard Time),606873.1000000238,A,pupi,I,i,309,1,1633.199999988079,605239.9000000358,9009,WL,B,7.0
5,13.566999912261963,learn,60000.0,Tue Feb 18 2025 14:35:40 GMT-0500 (Eastern Standard Time),607240.4000000358,A,pupil,I,l,345,1,2000.5,605239.9000000358,9009,WL,B,7.0
5,13.91599988937378,learn,60000.0,Tue Feb 18 2025 14:35:40 GMT-0500 (Eastern Standard Time),607589.5,A,pupilenter,I,enter,328,1,2349.599999964237,605239.9000000358,9009,WL,B,7.0
5,14.434000015258789,learn,60000.0,Tue Feb 18 2025 14:35:40 GMT-0500 (Eastern Standard Time),608106.9000000358,A,s,I,s,494,1,517.0,607589.9000000358,9009,WL,B,8.0
5,14.66700005531311,learn,60000.0,Tue Feb 18 2025 14:35:40 GMT-0500 (Eastern Standard Time),608340.3000000119,A,st,I,t,213,1,750.3999999761581,607589.9000000358,9009,WL,B,8.0
5,15.116999864578247,learn,60000.0,Tue Feb 18 2025 14:35:40 GMT-0500 (Eastern Standard Time),608790.5,A,str,I,r,429,1,1200.5999999642372,607589.9000000358,9009,WL,B,8.0
5,15.25,learn,60000.0,Tue Feb 18 2025 14:35:40 GMT-0500 (Eastern Standard Time),608923.1999999881,A,stre,I,e,123,1,1333.2999999523163,607589.9000000358,9009,WL,B,8.0
5,15.549999952316284,learn,60000.0,Tue Feb 18 2025 14:35:40 GMT-0500 (Eastern Standard Time),609223.5,A,stree,I,e,281,1,1633.5999999642372,607589.9000000358,9009,WL,B,8.0
5,15.683000087738037,learn,60000.0,Tue Feb 18 2025 14:35:40 GMT-0500 (Eastern Standard Time),609356.3000000119,A,street,I,t,122,1,1766.3999999761581,607589.9000000358,9009,WL,B,8.0
5,15.983000040054321,learn,60000.0,Tue Feb 18 2025 14:35:40 GMT-0500 (Eastern Standard Time),609656.4000000358,A,streetenter,I,enter,278,1,2066.5,607589.9000000358,9009,WL,B,8.0
5,17.134000062942505,learn,60000.0,Tue Feb 18 2025 14:35:40 GMT-0500 (Eastern Standard Time),610806.9000000358,A,g,I,g,1133,1,1150.1000000238419,609656.8000000119,9009,WL,B,9.0
5,17.634000062942505,learn,60000.0,Tue Feb 18 2025 14:35:40 GMT-0500 (Eastern Standard Time),611306.9000000358,A,gr,I,r,474,1,1650.1000000238419,609656.8000000119,9009,WL,B,9.0
5,17.782999992370605,learn,60000.0,Tue Feb 18 2025 14:35:40 GMT-0500 (Eastern Standard Time),611456.5,A,gra,I,a,136,1,1799.699999988079,609656.8000000119,9009,WL,B,9.0
5,17.967000007629395,learn,60000.0,Tue Feb 18 2025 14:35:40 GMT-0500 (Eastern Standard Time),611640.1999999881,A,gras,I,s,164,1,1983.3999999761581,609656.8000000119,9009,WL,B,9.0
5,18.200000047683716,learn,60000.0,Tue Feb 18 2025 14:35:40 GMT-0500 (Eastern Standard Time),611873.6000000238,A,grass,I,s,217,1,2216.800000011921,609656.8000000119,9009,WL,B,9.0
5,18.717000007629395,learn,60000.0,Tue Feb 18 2025 14:35:40 GMT-0500 (Eastern Standard Time),612389.8000000119,A,grassenter,I,enter,493,1,2733.0,609656.8000000119,9009,WL,B,9.0
5,19.01699995994568,learn,60000.0,Tue Feb 18 2025 14:35:40 GMT-0500 (Eastern Standard Time),612690.3000000119,A,a,I,a,287,1,300.30000001192093,612390.0,9009,WL,B,10.0
5,19.26699995994568,learn,60000.0,Tue Feb 18 2025 14:35:40 GMT-0500 (Eastern Standard Time),612940.4000000358,A,ar,I,r,224,1,550.4000000357628,612390.0,9009,WL,B,10.0
5,19.616999864578247,learn,60000.0,Tue Feb 18 2025 14:35:40 GMT-0500 (Eastern Standard Time),613290.3000000119,A,arm,I,m,326,1,900.3000000119209,612390.0,9009,WL,B,10.0
5,20.149999856948853,learn,60000.0,Tue Feb 18 2025 14:35:40 GMT-0500 (Eastern Standard Time),613823.0,A,armenter,I,enter,519,1,1433.0,612390.0,9009,WL,B,10.0
5,21.83399987220764,learn,60000.0,Tue Feb 18 2025 14:35:40 GMT-0500 (Eastern Standard Time),615506.9000000358,A,s,I,s,1670,1,1683.6000000238419,613823.3000000119,9009,WL,B,11.0
5,22.049999952316284,learn,60000.0,Tue Feb 18 2025 14:35:40 GMT-0500 (Eastern Standard Time),615723.4000000358,A,st,I,t,188,1,1900.1000000238419,613823.3000000119,9009,WL,B,11.0
5,22.33399987220764,learn,60000.0,Tue Feb 18 2025 14:35:40 GMT-0500 (Eastern Standard Time),616006.9000000358,A,sta,I,a,256,1,2183.600000023842,613823.3000000119,9009,WL,B,11.0
5,22.783999919891357,learn,60000.0,Tue Feb 18 2025 14:35:40 GMT-0500 (Eastern Standard Time),616456.9000000358,A,star,I,r,427,1,2633.600000023842,613823.3000000119,9009,WL,B,11.0
5,23.58299994468689,learn,60000.0,Tue Feb 18 2025 14:35:40 GMT-0500 (Eastern Standard Time),617256.4000000358,A,starenter,I,enter,777,1,3433.100000023842,613823.3000000119,9009,WL,B,11.0
5,24.384000062942505,learn,60000.0,Tue Feb 18 2025 14:35:40 GMT-0500 (Eastern Standard Time),618057.0,A,w,I,w,780,1,800.1999999880791,617256.8000000119,9009,WL,B,12.0
5,24.717000007629395,learn,60000.0,Tue Feb 18 2025 14:35:40 GMT-0500 (Eastern Standard Time),618389.9000000358,A,wi,I,i,314,1,1133.1000000238419,617256.8000000119,9009,WL,B,12.0
5,24.93400001525879,learn,60000.0,Tue Feb 18 2025 14:35:40 GMT-0500 (Eastern Standard Time),618606.8000000119,A,wif,I,f,204,1,1350.0,617256.8000000119,9009,WL,B,12.0
5,25.049999952316284,learn,60000.0,Tue Feb 18 2025 14:35:40 GMT-0500 (Eastern Standard Time),618723.3000000119,A,wife,I,e,91,1,1466.5,617256.8000000119,9009,WL,B,12.0
5,25.299999952316284,learn,60000.0,Tue Feb 18 2025 14:35:40 GMT-0500 (Eastern Standard Time),618973.0,A,wifeenter,I,enter,236,1,1716.199999988079,617256.8000000119,9009,WL,B,12.0
5,25.733999967575073,learn,60000.0,Tue Feb 18 2025 14:35:40 GMT-0500 (Eastern Standard Time),619407.0,A,w,I,w,424,1,433.69999998807907,618973.3000000119,9009,WL,B,13.0
5,25.91700005531311,learn,60000.0,Tue Feb 18 2025 14:35:40 GMT-0500 (Eastern Standard Time),619590.3000000119,A,wi,I,i,163,1,617.0,618973.3000000119,9009,WL,B,13.0
5,26.116999864578247,learn,60000.0,Tue Feb 18 2025 14:35:40 GMT-0500 (Eastern Standard Time),619789.8000000119,A,win,I,n,187,1,816.5,618973.3000000119,9009,WL,B,13.0
5,26.283999919891357,learn,60000.0,Tue Feb 18 2025 14:35:40 GMT-0500 (Eastern Standard Time),619957.0,A,wind,I,d,144,1,983.6999999880791,618973.3000000119,9009,WL,B,13.0
5,26.566999912261963,learn,60000.0,Tue Feb 18 2025 14:35:40 GMT-0500 (Eastern Standard Time),620239.9000000358,A,windo,I,o,270,1,1266.6000000238419,618973.3000000119,9009,WL,B,13.0
5,27.08399987220764,learn,60000.0,Tue Feb 18 2025 14:35:40 GMT-0500 (Eastern Standard Time),620757.4000000358,A,window,I,w,501,1,1784.1000000238419,618973.3000000119,9009,WL,B,13.0
5,27.76699995994568,learn,60000.0,Tue Feb 18 2025 14:35:40 GMT-0500 (Eastern Standard Time),621439.8000000119,A,windowenter,I,enter,671,1,2466.5,618973.3000000119,9009,WL,B,13.0
5,30.033999919891357,learn,60000.0,Tue Feb 18 2025 14:35:40 GMT-0500 (Eastern Standard Time),623706.9000000358,A,l,I,l,2245,1,2266.800000011921,621440.1000000238,9009,WL,B,14.0
5,30.200000047683716,learn,60000.0,Tue Feb 18 2025 14:35:40 GMT-0500 (Eastern Standard Time),623873.0,A,la,I,a,150,1,2432.899999976158,621440.1000000238,9009,WL,B,14.0
5,30.450000047683716,learn,60000.0,Tue Feb 18 2025 14:35:40 GMT-0500 (Eastern Standard Time),624123.1000000238,A,lak,I,k,227,1,2683.0,621440.1000000238,9009,WL,B,14.0
5,30.649999856948853,learn,60000.0,Tue Feb 18 2025 14:35:40 GMT-0500 (Eastern Standard Time),624323.4000000358,A,lake,I,e,181,1,2883.300000011921,621440.1000000238,9009,WL,B,14.0
5,30.899999856948853,learn,60000.0,Tue Feb 18 2025 14:35:40 GMT-0500 (Eastern Standard Time),624573.0,A,lakeenter,I,enter,238,1,3132.899999976158,621440.1000000238,9009,WL,B,14.0
5,31.717000007629395,learn,60000.0,Tue Feb 18 2025 14:35:40 GMT-0500 (Eastern Standard Time),625389.9000000358,A,c,I,c,808,1,816.6000000238419,624573.3000000119,9009,WL,B,15.0
5,31.967000007629395,learn,60000.0,Tue Feb 18 2025 14:35:40 GMT-0500 (Eastern Standard Time),625640.1999999881,A,ca,I,a,227,1,1066.8999999761581,624573.3000000119,9009,WL,B,15.0
5,32.299999952316284,learn,60000.0,Tue Feb 18 2025 14:35:40 GMT-0500 (Eastern Standard Time),625973.1999999881,A,cab,I,b,313,1,1399.8999999761581,624573.3000000119,9009,WL,B,15.0
5,32.59999990463257,learn,60000.0,Tue Feb 18 2025 14:35:40 GMT-0500 (Eastern Standard Time),626273.5,A,cabi,I,i,286,1,1700.199999988079,624573.3000000119,9009,WL,B,15.0
5,32.83399987220764,learn,60000.0,Tue Feb 18 2025 14:35:40 GMT-0500 (Eastern Standard Time),626506.9000000358,A,cabin,I,n,207,1,1933.6000000238419,624573.3000000119,9009,WL,B,15.0
5,33.23300004005432,learn,60000.0,Tue Feb 18 2025 14:35:40 GMT-0500 (Eastern Standard Time),626906.4000000358,A,cabinenter,I,enter,367,1,2333.100000023842,624573.3000000119,9009,WL,B,15.0
6,1.0340001583099365,distr,58965.99984169006,Tue Feb 18 2025 14:35:40 GMT-0500 (Eastern Standard Time),715056.8000000119,B,c,I,c,1020,1,1033.0,714023.8000000119,9009,WL,B,1.0
6,1.1670000553131104,distr,58832.99994468689,Tue Feb 18 2025 14:35:40 GMT-0500 (Eastern Standard Time),715190.0,B,ce,I,e,112,1,1166.199999988079,714023.8000000119,9009,WL,B,1.0
6,1.4830000400543213,distr,58516.99995994568,Tue Feb 18 2025 14:35:40 GMT-0500 (Eastern Standard Time),715506.6000000238,B,cel,I,l,293,1,1482.800000011921,714023.8000000119,9009,WL,B,1.0
6,1.7170000076293945,distr,58282.999992370605,Tue Feb 18 2025 14:35:40 GMT-0500 (Eastern Standard Time),715739.9000000358,B,cell,I,l,215,1,1716.1000000238419,714023.8000000119,9009,WL,B,1.0
6,2.0329999923706055,distr,57967.000007629395,Tue Feb 18 2025 14:35:40 GMT-0500 (Eastern Standard Time),716056.0,B,cellenter,I,enter,294,1,2032.199999988079,714023.8000000119,9009,WL,B,1.0
6,2.8330001831054688,distr,57166.99981689453,Tue Feb 18 2025 14:35:40 GMT-0500 (Eastern Standard Time),716856.1999999881,B,b,I,b,780,1,799.7999999523163,716056.4000000358,9009,WL,B,2.0
6,3.1000001430511475,distr,56899.99985694885,Tue Feb 18 2025 14:35:40 GMT-0500 (Eastern Standard Time),717123.3000000119,B,ba,I,a,249,1,1066.8999999761581,716056.4000000358,9009,WL,B,2.0
6,3.184000015258789,distr,56815.99998474121,Tue Feb 18 2025 14:35:40 GMT-0500 (Eastern Standard Time),717206.8000000119,B,bab,I,b,62,1,1150.3999999761581,716056.4000000358,9009,WL,B,2.0
6,3.75,distr,56250.0,Tue Feb 18 2025 14:35:40 GMT-0500 (Eastern Standard Time),717773.1000000238,B,baby,I,y,547,1,1716.699999988079,716056.4000000358,9009,WL,B,2.0
6,4.133000135421753,distr,55866.99986457825,Tue Feb 18 2025 14:35:40 GMT-0500 (Eastern Standard Time),718156.1000000238,B,babyenter,I,enter,373,1,2099.699999988079,716056.4000000358,9009,WL,B,2.0
6,4.900000095367432,distr,55099.99990463257,Tue Feb 18 2025 14:35:40 GMT-0500 (Eastern Standard Time),718923.0,B,o,I,o,744,1,766.5,718156.5,9009,WL,B,3.0
6,5.133000135421753,distr,54866.99986457825,Tue Feb 18 2025 14:35:40 GMT-0500 (Eastern Standard Time),719156.6000000238,B,oc,I,c,215,1,1000.1000000238419,718156.5,9009,WL,B,3.0
6,5.317000150680542,distr,54682.99984931946,Tue Feb 18 2025 14:35:40 GMT-0500 (Eastern Standard Time),719340.3000000119,B,oca,I,a,157,1,1183.800000011921,718156.5,9009,WL,B,3.0
6,5.933000087738037,distr,54066.99991226196,Tue Feb 18 2025 14:35:40 GMT-0500 (Eastern Standard Time),719956.4000000358,B,oc,I,backspace,589,1,1799.9000000357628,718156.5,9009,WL,B,3.0
6,6.16700005531311,distr,53832.99994468689,Tue Feb 18 2025 14:35:40 GMT-0500 (Eastern Standard Time),720190.1000000238,B,oce,I,e,222,1,2033.6000000238419,718156.5,9009,WL,B,3.0
6,6.2840001583099365,distr,53715.99984169006,Tue Feb 18 2025 14:35:40 GMT-0500 (Eastern Standard Time),720306.6999999881,B,ocea,I,a,100,1,2150.199999988079,718156.5,9009,WL,B,3.0
6,6.516999959945679,distr,53483.00004005432,Tue Feb 18 2025 14:35:40 GMT-0500 (Eastern Standard Time),720540.1000000238,B,ocean,I,n,199,1,2383.600000023842,718156.5,9009,WL,B,3.0
6,7.0329999923706055,distr,52967.000007629395,Tue Feb 18 2025 14:35:40 GMT-0500 (Eastern Standard Time),721056.1999999881,B,oceanenter,I,enter,501,1,2899.699999988079,718156.5,9009,WL,B,3.0
6,7.66700005531311,distr,52332.99994468689,Tue Feb 18 2025 14:35:40 GMT-0500 (Eastern Standard Time),721689.8000000119,B,p,I,p,612,1,633.1999999880791,721056.6000000238,9009,WL,B,4.0
6,7.934000015258789,distr,52065.99998474121,Tue Feb 18 2025 14:35:40 GMT-0500 (Eastern Standard Time),721956.6999999881,B,pa,I,a,240,1,900.0999999642372,721056.6000000238,9009,WL,B,4.0
6,8.150000095367432,distr,51849.99990463257,Tue Feb 18 2025 14:35:40 GMT-0500 (Eastern Standard Time),722173.3000000119,B,pal,I,l,205,1,1116.699999988079,721056.6000000238,9009,WL,B,4.0
6,8.367000102996826,distr,51632.999897003174,Tue Feb 18 2025 14:35:40 GMT-0500 (Eastern Standard Time),722390.1999999881,B,pala,I,a,189,1,1333.5999999642372,721056.6000000238,9009,WL,B,4.0
6,8.66700005531311,distr,51332.99994468689,Tue Feb 18 2025 14:35:40 GMT-0500 (Eastern Standard Time),722690.1000000238,B,palac,I,c,283,1,1633.5,721056.6000000238,9009,WL,B,4.0
6,8.884000062942505,distr,51115.999937057495,Tue Feb 18 2025 14:35:40 GMT-0500 (Eastern Standard Time),722906.6999999881,B,palace,I,e,191,1,1850.0999999642372,721056.6000000238,9009,WL,B,4.0
6,9.266000032424927,distr,50733.99996757507,Tue Feb 18 2025 14:35:40 GMT-0500 (Eastern Standard Time),723289.5,B,palaceenter,I,enter,359,1,2232.899999976158,721056.6000000238,9009,WL,B,4.0
6,10.717000007629395,distr,49282.999992370605,Tue Feb 18 2025 14:35:40 GMT-0500 (Eastern Standard Time),724740.1000000238,B,r,I,r,1436,1,1450.199999988079,723289.9000000358,9009,WL,B,5.0
6,11.66700005531311,distr,48332.99994468689,Tue Feb 18 2025 14:35:40 GMT-0500 (Eastern Standard Time),725689.8000000119,B,rc,I,c,925,1,2399.899999976158,723289.9000000358,9009,WL,B,5.0
6,11.967000007629395,distr,48032.999992370605,Tue Feb 18 2025 14:35:40 GMT-0500 (Eastern Standard Time),725990.1000000238,B,rck,I,k,279,1,2700.199999988079,723289.9000000358,9009,WL,B,5.0
6,12.450000047683716,distr,47549.999952316284,Tue Feb 18 2025 14:35:40 GMT-0500 (Eastern Standard Time),726473.4000000358,B,rc,I,backspace,460,1,3183.5,723289.9000000358,9009,WL,B,5.0
6,12.766999959945679,distr,47233.00004005432,Tue Feb 18 2025 14:35:40 GMT-0500 (Eastern Standard Time),726790.0,B,r,I,backspace,296,1,3500.099999964237,723289.9000000358,9009,WL,B,5.0
6,13.282999992370605,distr,46717.000007629395,Tue Feb 18 2025 14:35:40 GMT-0500 (Eastern Standard Time),727306.6000000238,B,ro,I,o,489,1,4016.699999988079,723289.9000000358,9009,WL,B,5.0
6,13.434000015258789,distr,46565.99998474121,Tue Feb 18 2025 14:35:40 GMT-0500 (Eastern Standard Time),727456.8000000119,B,roc,I,c,136,1,4166.899999976158,723289.9000000358,9009,WL,B,5.0
6,13.666000127792358,distr,46333.99987220764,Tue Feb 18 2025 14:35:40 GMT-0500 (Eastern Standard Time),727689.6000000238,B,rock,I,k,201,1,4399.699999988079,723289.9000000358,9009,WL,B,5.0
6,13.983000040054321,distr,46016.99995994568,Tue Feb 18 2025 14:35:40 GMT-0500 (Eastern Standard Time),728006.0,B,rockenter,I,enter,299,1,4716.099999964237,723289.9000000358,9009,WL,B,5.0
6,14.716000080108643,distr,45283.99991989136,Tue Feb 18 2025 14:35:40 GMT-0500 (Eastern Standard Time),728739.5,B,b,I,b,718,1,733.1999999880791,728006.3000000119,9009,WL,B,6.0
6,14.817000150680542,distr,45182.99984931946,Tue Feb 18 2025 14:35:40 GMT-0500 (Eastern Standard Time),728840.0,B,ba,I,a,80,1,833.6999999880791,728006.3000000119,9009,WL,B,6.0
6,15.034000158309937,distr,44965.99984169006,Tue Feb 18 2025 14:35:40 GMT-0500 (Eastern Standard Time),729056.8000000119,B,bar,I,r,194,1,1050.5,728006.3000000119,9009,WL,B,6.0
6,15.450000047683716,distr,44549.999952316284,Tue Feb 18 2025 14:35:40 GMT-0500 (Eastern Standard Time),729472.9000000358,B,barenter,I,enter,401,1,1466.6000000238419,728006.3000000119,9009,WL,B,6.0
6,15.933000087738037,distr,44066.99991226196,Tue Feb 18 2025 14:35:40 GMT-0500 (Eastern Standard Time),729956.6000000238,B,s,I,s,469,1,483.4000000357628,729473.1999999881,9009,WL,B,7.0
6,16.117000102996826,distr,43882.999897003174,Tue Feb 18 2025 14:35:40 GMT-0500 (Eastern Standard Time),730140.1000000238,B,st,I,t,155,1,666.9000000357628,729473.1999999881,9009,WL,B,7.0
6,16.284000158309937,distr,43715.99984169006,Tue Feb 18 2025 14:35:40 GMT-0500 (Eastern Standard Time),730306.6999999881,B,ste,I,e,142,1,833.5,729473.1999999881,9009,WL,B,7.0
6,16.43400001525879,distr,43565.99998474121,Tue Feb 18 2025 14:35:40 GMT-0500 (Eastern Standard Time),730456.8000000119,B,stea,I,a,120,1,983.6000000238419,729473.1999999881,9009,WL,B,7.0
6,16.733999967575073,distr,43266.00003242493,Tue Feb 18 2025 14:35:40 GMT-0500 (Eastern Standard Time),730756.6999999881,B,steam,I,m,271,1,1283.5,729473.1999999881,9009,WL,B,7.0
6,17.23300004005432,distr,42766.99995994568,Tue Feb 18 2025 14:35:40 GMT-0500 (Eastern Standard Time),731256.1999999881,B,steamenter,I,enter,477,1,1783.0,729473.1999999881,9009,WL,B,7.0
6,17.73300004005432,distr,42266.99995994568,Tue Feb 18 2025 14:35:40 GMT-0500 (Eastern Standard Time),731756.3000000119,B,s,I,s,492,1,499.69999998807907,731256.6000000238,9009,WL,B,8.0
6,18.183000087738037,distr,41816.99991226196,Tue Feb 18 2025 14:35:40 GMT-0500 (Eastern Standard Time),732206.6000000238,B,st,I,t,438,1,950.0,731256.6000000238,9009,WL,B,8.0
6,18.367000102996826,distr,41632.999897003174,Tue Feb 18 2025 14:35:40 GMT-0500 (Eastern Standard Time),732390.0,B,sto,I,o,164,1,1133.3999999761581,731256.6000000238,9009,WL,B,8.0
6,18.68400001525879,distr,41315.99998474121,Tue Feb 18 2025 14:35:40 GMT-0500 (Eastern Standard Time),732706.8000000119,B,stor,I,r,299,1,1450.199999988079,731256.6000000238,9009,WL,B,8.0
6,19.08300018310547,distr,40916.99981689453,Tue Feb 18 2025 14:35:40 GMT-0500 (Eastern Standard Time),733106.6000000238,B,storm,I,m,383,1,1850.0,731256.6000000238,9009,WL,B,8.0
6,19.766000032424927,distr,40233.99996757507,Tue Feb 18 2025 14:35:40 GMT-0500 (Eastern Standard Time),733789.5,B,stormenter,I,enter,671,1,2532.899999976158,731256.6000000238,9009,WL,B,8.0
6,20.65000009536743,distr,39349.99990463257,Tue Feb 18 2025 14:35:40 GMT-0500 (Eastern Standard Time),734673.4000000358,B,a,I,a,872,1,883.6000000238419,733789.8000000119,9009,WL,B,9.0
6,20.867000102996826,distr,39132.999897003174,Tue Feb 18 2025 14:35:40 GMT-0500 (Eastern Standard Time),734890.0,B,ar,I,r,193,1,1100.199999988079,733789.8000000119,9009,WL,B,9.0
6,21.049999952316284,distr,38950.000047683716,Tue Feb 18 2025 14:35:40 GMT-0500 (Eastern Standard Time),735073.3000000119,B,arm,I,m,167,1,1283.5,733789.8000000119,9009,WL,B,9.0
6,21.433000087738037,distr,38566.99991226196,Tue Feb 18 2025 14:35:40 GMT-0500 (Eastern Standard Time),735456.3000000119,B,army,I,y,368,1,1666.5,733789.8000000119,9009,WL,B,9.0
6,21.966000080108643,distr,38033.99991989136,Tue Feb 18 2025 14:35:40 GMT-0500 (Eastern Standard Time),735989.5,B,armyenter,I,enter,515,1,2199.699999988079,733789.8000000119,9009,WL,B,9.0
6,22.75,distr,37250.0,Tue Feb 18 2025 14:35:40 GMT-0500 (Eastern Standard Time),736773.4000000358,B,v,I,v,767,1,783.5,735989.9000000358,9009,WL,B,10.0
6,23.217000007629395,distr,36782.999992370605,Tue Feb 18 2025 14:35:40 GMT-0500 (Eastern Standard Time),737240.1000000238,B,vi,I,i,444,1,1250.199999988079,735989.9000000358,9009,WL,B,10.0
6,23.40000009536743,distr,36599.99990463257,Tue Feb 18 2025 14:35:40 GMT-0500 (Eastern Standard Time),737423.3000000119,B,vil,I,l,169,1,1433.3999999761581,735989.9000000358,9009,WL,B,10.0
6,23.634000062942505,distr,36365.999937057495,Tue Feb 18 2025 14:35:40 GMT-0500 (Eastern Standard Time),737656.6999999881,B,vill,I,l,202,1,1666.7999999523163,735989.9000000358,9009,WL,B,10.0
6,23.83300018310547,distr,36166.99981689453,Tue Feb 18 2025 14:35:40 GMT-0500 (Eastern Standard Time),737856.4000000358,B,villa,I,a,183,1,1866.5,735989.9000000358,9009,WL,B,10.0
6,25.0,distr,35000.0,Tue Feb 18 2025 14:35:40 GMT-0500 (Eastern Standard Time),739023.0,B,villag,I,g,1153,1,3033.099999964237,735989.9000000358,9009,WL,B,10.0
6,25.217000007629395,distr,34782.999992370605,Tue Feb 18 2025 14:35:40 GMT-0500 (Eastern Standard Time),739240.1000000238,B,village,I,e,196,1,3250.199999988079,735989.9000000358,9009,WL,B,10.0
6,25.56599998474121,distr,34434.00001525879,Tue Feb 18 2025 14:35:40 GMT-0500 (Eastern Standard Time),739589.5,B,villageenter,I,enter,322,1,3599.599999964237,735989.9000000358,9009,WL,B,10.0
6,29.93400001525879,distr,30065.99998474121,Tue Feb 18 2025 14:35:40 GMT-0500 (Eastern Standard Time),743956.6999999881,B,d,I,d,4351,1,4366.799999952316,739589.9000000358,9009,WL,B,11.0
6,30.249000072479248,distr,29750.999927520752,Tue Feb 18 2025 14:35:40 GMT-0500 (Eastern Standard Time),744272.6000000238,B,dr,I,r,301,1,4682.699999988079,739589.9000000358,9009,WL,B,11.0
6,30.384000062942505,distr,29615.999937057495,Tue Feb 18 2025 14:35:40 GMT-0500 (Eastern Standard Time),744406.6999999881,B,dre,I,e,116,1,4816.799999952316,739589.9000000358,9009,WL,B,11.0
6,30.516000032424927,distr,29483.999967575073,Tue Feb 18 2025 14:35:40 GMT-0500 (Eastern Standard Time),744539.5,B,dres,I,s,116,1,4949.599999964237,739589.9000000358,9009,WL,B,11.0
6,30.76699995994568,distr,29233.00004005432,Tue Feb 18 2025 14:35:40 GMT-0500 (Eastern Standard Time),744789.8000000119,B,dress,I,s,231,1,5199.899999976158,739589.9000000358,9009,WL,B,11.0
6,31.15000009536743,distr,28849.99990463257,Tue Feb 18 2025 14:35:40 GMT-0500 (Eastern Standard Time),745172.9000000358,B,dressenter,I,enter,364,1,5583.0,739589.9000000358,9009,WL,B,11.0
6,33.200000047683716,distr,26799.999952316284,Tue Feb 18 2025 14:35:40 GMT-0500 (Eastern Standard Time),747223.3000000119,B,f,I,f,2032,1,2050.100000023842,745173.1999999881,9009,WL,B,12.0
6,33.48300004005432,distr,26516.99995994568,Tue Feb 18 2025 14:35:40 GMT-0500 (Eastern Standard Time),747506.1000000238,B,fr,I,r,264,1,2332.900000035763,745173.1999999881,9009,WL,B,12.0
6,33.65000009536743,distr,26349.99990463257,Tue Feb 18 2025 14:35:40 GMT-0500 (Eastern Standard Time),747673.1000000238,B,fri,I,i,146,1,2499.900000035763,745173.1999999881,9009,WL,B,12.0
6,33.76600003242493,distr,26233.999967575073,Tue Feb 18 2025 14:35:40 GMT-0500 (Eastern Standard Time),747789.5,B,frie,I,e,97,1,2616.300000011921,745173.1999999881,9009,WL,B,12.0
6,34.01699995994568,distr,25983.00004005432,Tue Feb 18 2025 14:35:40 GMT-0500 (Eastern Standard Time),748040.0,B,frien,I,n,230,1,2866.800000011921,745173.1999999881,9009,WL,B,12.0
6,34.200000047683716,distr,25799.999952316284,Tue Feb 18 2025 14:35:40 GMT-0500 (Eastern Standard Time),748223.3000000119,B,friend,I,d,170,1,3050.100000023842,745173.1999999881,9009,WL,B,12.0
6,34.532999992370605,distr,25467.000007629395,Tue Feb 18 2025 14:35:40 GMT-0500 (Eastern Standard Time),748556.1999999881,B,friendenter,I,enter,316,1,3383.0,745173.1999999881,9009,WL,B,12.0
6,47.90000009536743,distr,12099.999904632568,Tue Feb 18 2025 14:35:40 GMT-0500 (Eastern Standard Time),761923.4000000358,B,c,I,c,13353,1,13366.900000035763,748556.5,9009,WL,B,13.0
6,48.282999992370605,distr,11717.000007629395,Tue Feb 18 2025 14:35:40 GMT-0500 (Eastern Standard Time),762306.3000000119,B,co,I,o,366,1,13749.800000011921,748556.5,9009,WL,B,13.0
6,48.58300018310547,distr,11416.999816894531,Tue Feb 18 2025 14:35:40 GMT-0500 (Eastern Standard Time),762606.5,B,coa,I,a,289,1,14050.0,748556.5,9009,WL,B,13.0
6,48.799999952316284,distr,11200.000047683716,Tue Feb 18 2025 14:35:40 GMT-0500 (Eastern Standard Time),762822.9000000358,B,coai,I,i,196,1,14266.400000035763,748556.5,9009,WL,B,13.0
6,48.91700005531311,distr,11082.99994468689,Tue Feb 18 2025 14:35:40 GMT-0500 (Eastern Standard Time),762940.0,B,coain,I,n,92,1,14383.5,748556.5,9009,WL,B,13.0
6,49.299999952316284,distr,10700.000047683716,Tue Feb 18 2025 14:35:40 GMT-0500 (Eastern Standard Time),763322.9000000358,B,coai,I,backspace,357,1,14766.400000035763,748556.5,9009,WL,B,13.0
6,49.53400015830994,distr,10465.999841690063,Tue Feb 18 2025 14:35:40 GMT-0500 (Eastern Standard Time),763556.6000000238,B,coa,I,backspace,216,1,15000.100000023842,748556.5,9009,WL,B,13.0
6,49.867000102996826,distr,10132.999897003174,Tue Feb 18 2025 14:35:40 GMT-0500 (Eastern Standard Time),763890.0,B,co,I,backspace,309,1,15333.5,748556.5,9009,WL,B,13.0
6,50.532999992370605,distr,9467.000007629395,Tue Feb 18 2025 14:35:40 GMT-0500 (Eastern Standard Time),764556.1000000238,B,coi,I,i,648,1,15999.600000023842,748556.5,9009,WL,B,13.0
6,50.782999992370605,distr,9217.000007629395,Tue Feb 18 2025 14:35:40 GMT-0500 (Eastern Standard Time),764806.6000000238,B,coin,I,n,228,1,16250.100000023842,748556.5,9009,WL,B,13.0
6,51.08300018310547,distr,8916.999816894531,Tue Feb 18 2025 14:35:40 GMT-0500 (Eastern Standard Time),765106.1999999881,B,coinenter,I,enter,283,1,16549.69999998808,748556.5,9009,WL,B,13.0
6,60.01699995994568,distr,-16.99995994567871,Tue Feb 18 2025 14:35:40 GMT-0500 (Eastern Standard Time),774039.9000000358,B,None,I,None,8926,1,8933.300000011921,765106.6000000238,9009,WL,B,14.0
7,0.5,immed,59500.0,Tue Feb 18 2025 14:35:40 GMT-0500 (Eastern Standard Time),793040.0,A,s,I,s,486,1,499.19999998807907,792540.8000000119,9009,WL,B,1.0
7,1.3660001754760742,immed,58633.999824523926,Tue Feb 18 2025 14:35:40 GMT-0500 (Eastern Standard Time),793906.5,A,st,I,t,849,1,1365.699999988079,792540.8000000119,9009,WL,B,1.0
7,1.7330000400543213,immed,58266.99995994568,Tue Feb 18 2025 14:35:40 GMT-0500 (Eastern Standard Time),794273.3000000119,A,str,I,r,343,1,1732.5,792540.8000000119,9009,WL,B,1.0
7,1.9670000076293945,immed,58032.999992370605,Tue Feb 18 2025 14:35:40 GMT-0500 (Eastern Standard Time),794506.6999999881,A,stre,I,e,208,1,1965.8999999761581,792540.8000000119,9009,WL,B,1.0
7,2.1660001277923584,immed,57833.99987220764,Tue Feb 18 2025 14:35:40 GMT-0500 (Eastern Standard Time),794706.6000000238,A,stree,I,e,182,1,2165.800000011921,792540.8000000119,9009,WL,B,1.0
7,2.383000135421753,immed,57616.99986457825,Tue Feb 18 2025 14:35:40 GMT-0500 (Eastern Standard Time),794923.0,A,street,I,t,182,1,2382.199999988079,792540.8000000119,9009,WL,B,1.0
7,2.7660000324249268,immed,57233.99996757507,Tue Feb 18 2025 14:35:40 GMT-0500 (Eastern Standard Time),795306.0,A,streetenter,I,enter,358,1,2765.199999988079,792540.8000000119,9009,WL,B,1.0
7,3.5329999923706055,immed,56467.000007629395,Tue Feb 18 2025 14:35:40 GMT-0500 (Eastern Standard Time),796073.3000000119,A,g,I,g,745,1,766.8000000119209,795306.5,9009,WL,B,2.0
7,3.81600022315979,immed,56183.99977684021,Tue Feb 18 2025 14:35:40 GMT-0500 (Eastern Standard Time),796356.6000000238,A,gr,I,r,264,1,1050.1000000238419,795306.5,9009,WL,B,2.0
7,3.9660000801086426,immed,56033.99991989136,Tue Feb 18 2025 14:35:40 GMT-0500 (Eastern Standard Time),796506.4000000358,A,gra,I,a,125,1,1199.9000000357628,795306.5,9009,WL,B,2.0
7,4.200000047683716,immed,55799.999952316284,Tue Feb 18 2025 14:35:40 GMT-0500 (Eastern Standard Time),796739.9000000358,A,gras,I,s,215,1,1433.4000000357628,795306.5,9009,WL,B,2.0
7,4.66700005531311,immed,55332.99994468689,Tue Feb 18 2025 14:35:40 GMT-0500 (Eastern Standard Time),797206.6999999881,A,grass,I,s,438,1,1900.199999988079,795306.5,9009,WL,B,2.0
7,5.083000183105469,immed,54916.99981689453,Tue Feb 18 2025 14:35:40 GMT-0500 (Eastern Standard Time),797622.6000000238,A,grassenter,I,enter,396,1,2316.100000023842,795306.5,9009,WL,B,2.0
7,6.266000032424927,immed,53733.99996757507,Tue Feb 18 2025 14:35:40 GMT-0500 (Eastern Standard Time),798806.5,A,w,I,w,1166,1,1183.5,797623.0,9009,WL,B,3.0
7,6.800000190734863,immed,53199.99980926514,Tue Feb 18 2025 14:35:40 GMT-0500 (Eastern Standard Time),799340.1000000238,A,wi,I,i,522,1,1717.1000000238419,797623.0,9009,WL,B,3.0
7,7.1000001430511475,immed,52899.99985694885,Tue Feb 18 2025 14:35:40 GMT-0500 (Eastern Standard Time),799639.9000000358,A,wif,I,f,278,1,2016.9000000357628,797623.0,9009,WL,B,3.0
7,7.216000080108643,immed,52783.99991989136,Tue Feb 18 2025 14:35:40 GMT-0500 (Eastern Standard Time),799756.1999999881,A,wife,I,e,105,1,2133.199999988079,797623.0,9009,WL,B,3.0
7,7.583000183105469,immed,52416.99981689453,Tue Feb 18 2025 14:35:40 GMT-0500 (Eastern Standard Time),800122.8000000119,A,wifeenter,I,enter,334,1,2499.800000011921,797623.0,9009,WL,B,3.0
7,8.016000032424927,immed,51983.99996757507,Tue Feb 18 2025 14:35:40 GMT-0500 (Eastern Standard Time),800555.9000000358,A,a,I,a,425,1,432.80000001192093,800123.1000000238,9009,WL,B,4.0
7,8.266000032424927,immed,51733.99996757507,Tue Feb 18 2025 14:35:40 GMT-0500 (Eastern Standard Time),800806.4000000358,A,ar,I,r,233,1,683.3000000119209,800123.1000000238,9009,WL,B,4.0
7,8.782999992370605,immed,51217.000007629395,Tue Feb 18 2025 14:35:40 GMT-0500 (Eastern Standard Time),801323.1999999881,A,arm,I,m,490,1,1200.0999999642372,800123.1000000238,9009,WL,B,4.0
7,9.166000127792358,immed,50833.99987220764,Tue Feb 18 2025 14:35:40 GMT-0500 (Eastern Standard Time),801706.0,A,armenter,I,enter,358,1,1582.8999999761581,800123.1000000238,9009,WL,B,4.0
7,9.599000215530396,immed,50400.999784469604,Tue Feb 18 2025 14:35:40 GMT-0500 (Eastern Standard Time),802139.5,A,d,I,d,409,1,433.0,801706.5,9009,WL,B,5.0
7,9.983000040054321,immed,50016.99995994568,Tue Feb 18 2025 14:35:40 GMT-0500 (Eastern Standard Time),802523.3000000119,A,do,I,o,356,1,816.8000000119209,801706.5,9009,WL,B,5.0
7,10.216000080108643,immed,49783.99991989136,Tue Feb 18 2025 14:35:40 GMT-0500 (Eastern Standard Time),802756.6000000238,A,doo,I,o,215,1,1050.1000000238419,801706.5,9009,WL,B,5.0
7,10.5,immed,49500.0,Tue Feb 18 2025 14:35:40 GMT-0500 (Eastern Standard Time),803040.0,A,door,I,r,261,1,1333.5,801706.5,9009,WL,B,5.0
7,10.866000175476074,immed,49133.999824523926,Tue Feb 18 2025 14:35:40 GMT-0500 (Eastern Standard Time),803406.0,A,doorenter,I,enter,351,1,1699.5,801706.5,9009,WL,B,5.0
7,11.483000040054321,immed,48516.99995994568,Tue Feb 18 2025 14:35:40 GMT-0500 (Eastern Standard Time),804023.1999999881,A,s,I,s,598,1,616.7999999523163,803406.4000000358,9009,WL,B,6.0
7,11.666000127792358,immed,48333.99987220764,Tue Feb 18 2025 14:35:40 GMT-0500 (Eastern Standard Time),804206.4000000358,A,st,I,t,170,1,800.0,803406.4000000358,9009,WL,B,6.0
7,11.867000102996826,immed,48132.999897003174,Tue Feb 18 2025 14:35:40 GMT-0500 (Eastern Standard Time),804406.9000000358,A,sta,I,a,179,1,1000.5,803406.4000000358,9009,WL,B,6.0
7,12.14900016784668,immed,47850.99983215332,Tue Feb 18 2025 14:35:40 GMT-0500 (Eastern Standard Time),804689.5,A,star,I,r,270,1,1283.0999999642372,803406.4000000358,9009,WL,B,6.0
7,12.733000040054321,immed,47266.99995994568,Tue Feb 18 2025 14:35:40 GMT-0500 (Eastern Standard Time),805272.6999999881,A,starenter,I,enter,562,1,1866.2999999523163,803406.4000000358,9009,WL,B,6.0
7,13.233000040054321,immed,46766.99995994568,Tue Feb 18 2025 14:35:40 GMT-0500 (Eastern Standard Time),805773.1000000238,A,w,I,w,492,1,500.0,805273.1000000238,9009,WL,B,7.0
7,13.56600022315979,immed,46433.99977684021,Tue Feb 18 2025 14:35:40 GMT-0500 (Eastern Standard Time),806106.6000000238,A,wi,I,i,308,1,833.5,805273.1000000238,9009,WL,B,7.0
7,14.39900016784668,immed,45600.99983215332,Tue Feb 18 2025 14:35:40 GMT-0500 (Eastern Standard Time),806939.4000000358,A,win,I,n,822,1,1666.300000011921,805273.1000000238,9009,WL,B,7.0
7,14.699000120162964,immed,45300.999879837036,Tue Feb 18 2025 14:35:40 GMT-0500 (Eastern Standard Time),807239.6000000238,A,wind,I,d,278,1,1966.5,805273.1000000238,9009,WL,B,7.0
7,14.933000087738037,immed,45066.99991226196,Tue Feb 18 2025 14:35:40 GMT-0500 (Eastern Standard Time),807473.3000000119,A,windo,I,o,220,1,2200.199999988079,805273.1000000238,9009,WL,B,7.0
7,15.266000032424927,immed,44733.99996757507,Tue Feb 18 2025 14:35:40 GMT-0500 (Eastern Standard Time),807806.3000000119,A,window,I,w,312,1,2533.199999988079,805273.1000000238,9009,WL,B,7.0
7,15.683000087738037,immed,44316.99991226196,Tue Feb 18 2025 14:35:40 GMT-0500 (Eastern Standard Time),808222.8000000119,A,windowenter,I,enter,402,1,2949.699999988079,805273.1000000238,9009,WL,B,7.0
7,16.33300018310547,immed,43666.99981689453,Tue Feb 18 2025 14:35:40 GMT-0500 (Eastern Standard Time),808873.3000000119,A,l,I,l,630,1,650.3000000119209,808223.0,9009,WL,B,8.0
7,16.48300004005432,immed,43516.99995994568,Tue Feb 18 2025 14:35:40 GMT-0500 (Eastern Standard Time),809023.3000000119,A,la,I,a,136,1,800.3000000119209,808223.0,9009,WL,B,8.0
7,16.717000007629395,immed,43282.999992370605,Tue Feb 18 2025 14:35:40 GMT-0500 (Eastern Standard Time),809256.6999999881,A,lak,I,k,210,1,1033.699999988079,808223.0,9009,WL,B,8.0
7,16.98300004005432,immed,43016.99995994568,Tue Feb 18 2025 14:35:40 GMT-0500 (Eastern Standard Time),809523.3000000119,A,lake,I,e,249,1,1300.300000011921,808223.0,9009,WL,B,8.0
7,17.41600012779236,immed,42583.99987220764,Tue Feb 18 2025 14:35:40 GMT-0500 (Eastern Standard Time),809956.1000000238,A,lakeenter,I,enter,412,1,1733.1000000238419,808223.0,9009,WL,B,8.0
7,18.133000135421753,immed,41866.99986457825,Tue Feb 18 2025 14:35:40 GMT-0500 (Eastern Standard Time),810673.1999999881,A,c,I,c,704,1,716.7999999523163,809956.4000000358,9009,WL,B,9.0
7,18.31600022315979,immed,41683.99977684021,Tue Feb 18 2025 14:35:40 GMT-0500 (Eastern Standard Time),810856.4000000358,A,ca,I,a,160,1,900.0,809956.4000000358,9009,WL,B,9.0
7,18.5,immed,41500.0,Tue Feb 18 2025 14:35:40 GMT-0500 (Eastern Standard Time),811039.9000000358,A,cab,I,b,168,1,1083.5,809956.4000000358,9009,WL,B,9.0
7,18.98300004005432,immed,41016.99995994568,Tue Feb 18 2025 14:35:40 GMT-0500 (Eastern Standard Time),811523.3000000119,A,cabi,I,i,466,1,1566.8999999761581,809956.4000000358,9009,WL,B,9.0
7,19.350000143051147,immed,40649.99985694885,Tue Feb 18 2025 14:35:40 GMT-0500 (Eastern Standard Time),811890.1999999881,A,cabin,I,n,350,1,1933.7999999523163,809956.4000000358,9009,WL,B,9.0
7,21.032999992370605,immed,38967.000007629395,Tue Feb 18 2025 14:35:40 GMT-0500 (Eastern Standard Time),813572.6999999881,A,cabinenter,I,enter,1666,1,3616.2999999523163,809956.4000000358,9009,WL,B,9.0
7,21.866000175476074,immed,38133.999824523926,Tue Feb 18 2025 14:35:40 GMT-0500 (Eastern Standard Time),814406.6000000238,A,p,I,p,815,1,833.6999999880791,813572.9000000358,9009,WL,B,10.0
7,22.23300004005432,immed,37766.99995994568,Tue Feb 18 2025 14:35:40 GMT-0500 (Eastern Standard Time),814773.3000000119,A,pu,I,u,347,1,1200.3999999761581,813572.9000000358,9009,WL,B,10.0
7,22.466000080108643,immed,37533.99991989136,Tue Feb 18 2025 14:35:40 GMT-0500 (Eastern Standard Time),815006.1000000238,A,pup,I,p,220,1,1433.199999988079,813572.9000000358,9009,WL,B,10.0
7,22.73300004005432,immed,37266.99995994568,Tue Feb 18 2025 14:35:40 GMT-0500 (Eastern Standard Time),815273.3000000119,A,pupi,I,i,247,1,1700.3999999761581,813572.9000000358,9009,WL,B,10.0
7,23.050000190734863,immed,36949.99980926514,Tue Feb 18 2025 14:35:40 GMT-0500 (Eastern Standard Time),815589.9000000358,A,pupil,I,l,295,1,2017.0,813572.9000000358,9009,WL,B,10.0
7,23.466000080108643,immed,36533.99991989136,Tue Feb 18 2025 14:35:40 GMT-0500 (Eastern Standard Time),816006.1000000238,A,pupilenter,I,enter,396,1,2433.199999988079,813572.9000000358,9009,WL,B,10.0
7,24.282999992370605,immed,35717.000007629395,Tue Feb 18 2025 14:35:40 GMT-0500 (Eastern Standard Time),816822.9000000358,A,p,I,p,798,1,816.4000000357628,816006.5,9009,WL,B,11.0
7,24.616000175476074,immed,35383.999824523926,Tue Feb 18 2025 14:35:40 GMT-0500 (Eastern Standard Time),817156.6000000238,A,pi,I,i,317,1,1150.1000000238419,816006.5,9009,WL,B,11.0
7,24.950000047683716,immed,35049.999952316284,Tue Feb 18 2025 14:35:40 GMT-0500 (Eastern Standard Time),817490.0,A,pip,I,p,316,1,1483.5,816006.5,9009,WL,B,11.0
7,25.5,immed,34500.0,Tue Feb 18 2025 14:35:40 GMT-0500 (Eastern Standard Time),818039.9000000358,A,pipe,I,e,527,1,2033.4000000357628,816006.5,9009,WL,B,11.0
7,26.049000024795532,immed,33950.99997520447,Tue Feb 18 2025 14:35:40 GMT-0500 (Eastern Standard Time),818589.4000000358,A,pipeenter,I,enter,537,1,2582.900000035763,816006.5,9009,WL,B,11.0
7,26.66600012779236,immed,33333.99987220764,Tue Feb 18 2025 14:35:40 GMT-0500 (Eastern Standard Time),819206.1999999881,A,c,I,c,599,1,616.3999999761581,818589.8000000119,9009,WL,B,12.0
7,26.933000087738037,immed,33066.99991226196,Tue Feb 18 2025 14:35:40 GMT-0500 (Eastern Standard Time),819473.3000000119,A,ci,I,i,253,1,883.5,818589.8000000119,9009,WL,B,12.0
7,27.300000190734863,immed,32699.999809265137,Tue Feb 18 2025 14:35:40 GMT-0500 (Eastern Standard Time),819840.0,A,cit,I,t,352,1,1250.199999988079,818589.8000000119,9009,WL,B,12.0
7,28.866000175476074,immed,31133.999824523926,Tue Feb 18 2025 14:35:40 GMT-0500 (Eastern Standard Time),821406.1000000238,A,city,I,y,1553,1,2816.300000011921,818589.8000000119,9009,WL,B,12.0
7,29.433000087738037,immed,30566.999912261963,Tue Feb 18 2025 14:35:40 GMT-0500 (Eastern Standard Time),821972.8000000119,A,cityenter,I,enter,549,1,3383.0,818589.8000000119,9009,WL,B,12.0
