acc_sum,block,block_c,change,condition,correct,correct_response,datetime,endtime,face,project,response,response_time,row_sel,session_number,start_end,starttime,subject_id,task,task_vers,trial
0,prac,1,,1-Back,,,Thu Feb 06 2025 18:34:54 GMT-0600 (Central Standard Time),,012_o_f_d_a.png,O,space,7342,1,1,,,7044,VNB,C,0
1,prac,1,0.0,1-Back,1,m,Thu Feb 06 2025 18:34:54 GMT-0600 (Central Standard Time),139060.80000001192,022_y_f_n_a.png,O,m,1931,2,1,2849.400000035763,136211.39999997616,7044,VNB,C,1
1,prac,1,0.0,1-Back,0,m,Thu Feb 06 2025 18:34:54 GMT-0600 (Central Standard Time),142008.89999997616,014_m_m_h_a.png,O,None,2011,3,1,2909.300000011921,139099.59999996424,7044,VNB,C,2
2,prac,1,0.0,1-Back,1,m,Thu Feb 06 2025 18:34:54 GMT-0600 (Central Standard Time),144807.80000001192,025_y_m_d_a.png,O,m,1883,4,1,2785.400000035763,142022.39999997616,7044,VNB,C,3
2,prac,1,0.0,1-Back,0,m,Thu Feb 06 2025 18:34:54 GMT-0600 (Central Standard Time),146825.69999998808,012_o_f_n_a.png,O,z,1088,5,1,2009.3999999761581,144816.30000001192,7044,VNB,C,4
3,prac,1,1.0,1-Back,1,z,Thu Feb 06 2025 18:34:54 GMT-0600 (Central Standard Time),149090.69999998808,025_y_m_n_a.png,O,z,1324,6,1,2231.899999976158,146858.80000001192,7044,VNB,C,5
4,prac,1,0.0,1-Back,1,m,Thu Feb 06 2025 18:34:54 GMT-0600 (Central Standard Time),151356.59999996424,015_o_m_h_a.png,O,m,1297,7,1,2231.199999988079,149125.39999997616,7044,VNB,C,6
5,prac,1,0.0,1-Back,1,m,Thu Feb 06 2025 18:34:54 GMT-0600 (Central Standard Time),153555.89999997616,019_m_f_d_a.png,O,m,1177,8,1,2087.899999976158,151468.0,7044,VNB,C,7
5,prac,1,1.0,1-Back,0,z,Thu Feb 06 2025 18:34:54 GMT-0600 (Central Standard Time),155771.5,022_y_f_d_a.png,O,m,1205,9,1,2114.400000035763,153657.09999996424,7044,VNB,C,8
6,prac,1,0.0,1-Back,1,m,Thu Feb 06 2025 18:34:54 GMT-0600 (Central Standard Time),158187.69999998808,014_m_m_n_a.png,O,m,1484,10,1,2385.300000011921,155802.39999997616,7044,VNB,C,9
7,prac,1,0.0,1-Back,1,m,Thu Feb 06 2025 18:34:54 GMT-0600 (Central Standard Time),160403.19999998808,012_o_f_h_a.png,O,m,1224,11,1,2125.899999976158,158277.30000001192,7044,VNB,C,10
7,prac,1,0.0,1-Back,0,m,Thu Feb 06 2025 18:34:54 GMT-0600 (Central Standard Time),162319.89999997616,025_y_m_d_a.png,O,z,995,12,1,1895.800000011921,160424.09999996424,7044,VNB,C,11
0,prac,2,0.0,1-Back,,,Thu Feb 06 2025 18:34:54 GMT-0600 (Central Standard Time),162319.89999997616,012_o_f_d_a.png,O,a,9208,1,1,1895.800000011921,160424.09999996424,7044,VNB,C,0
1,prac,2,0.0,1-Back,1,m,Thu Feb 06 2025 18:34:54 GMT-0600 (Central Standard Time),176764.89999997616,022_y_f_n_a.png,O,m,1182,2,1,2112.699999988079,174652.19999998808,7044,VNB,C,1
2,prac,2,0.0,1-Back,1,m,Thu Feb 06 2025 18:34:54 GMT-0600 (Central Standard Time),178564.19999998808,014_m_m_h_a.png,O,m,846,3,1,1756.6000000238419,176807.59999996424,7044,VNB,C,2
2,prac,2,0.0,1-Back,0,m,Thu Feb 06 2025 18:34:54 GMT-0600 (Central Standard Time),180346.89999997616,025_y_m_d_a.png,O,z,907,4,1,1675.5999999642372,178671.30000001192,7044,VNB,C,3
3,prac,2,0.0,1-Back,1,m,Thu Feb 06 2025 18:34:54 GMT-0600 (Central Standard Time),182796.30000001192,012_o_f_n_a.png,O,m,1451,5,1,2353.600000023842,180442.69999998808,7044,VNB,C,4
3,prac,2,1.0,1-Back,0,z,Thu Feb 06 2025 18:34:54 GMT-0600 (Central Standard Time),184462.30000001192,025_y_m_n_a.png,O,m,711,6,1,1625.5,182836.80000001192,7044,VNB,C,5
4,prac,2,0.0,1-Back,1,m,Thu Feb 06 2025 18:34:54 GMT-0600 (Central Standard Time),187444.69999998808,015_o_m_h_a.png,O,m,1938,7,1,2857.600000023842,184587.09999996424,7044,VNB,C,6
5,prac,2,0.0,1-Back,1,m,Thu Feb 06 2025 18:34:54 GMT-0600 (Central Standard Time),189610.80000001192,019_m_f_d_a.png,O,m,1136,8,1,2059.600000023842,187551.19999998808,7044,VNB,C,7
5,prac,2,1.0,1-Back,0,z,Thu Feb 06 2025 18:34:54 GMT-0600 (Central Standard Time),191743.19999998808,022_y_f_d_a.png,O,m,1161,9,1,2093.5,189649.69999998808,7044,VNB,C,8
5,prac,2,0.0,1-Back,0,m,Thu Feb 06 2025 18:34:54 GMT-0600 (Central Standard Time),193776.0,014_m_m_n_a.png,O,z,1083,10,1,1994.199999988079,191781.80000001192,7044,VNB,C,9
6,prac,2,0.0,1-Back,1,m,Thu Feb 06 2025 18:34:54 GMT-0600 (Central Standard Time),195658.80000001192,012_o_f_h_a.png,O,m,862,11,1,1779.5,193879.30000001192,7044,VNB,C,10
6,prac,2,0.0,1-Back,0,m,Thu Feb 06 2025 18:34:54 GMT-0600 (Central Standard Time),197958.0,025_y_m_d_a.png,O,z,1368,12,1,2271.600000023842,195686.39999997616,7044,VNB,C,11
0,test,1,0.0,1-Back,,,Thu Feb 06 2025 18:34:54 GMT-0600 (Central Standard Time),197958.0,022_y_f_d_a.png,O,space,8780,1,1,2271.600000023842,195686.39999997616,7044,VNB,C,0
1,test,1,0.0,1-Back,1,m,Thu Feb 06 2025 18:34:54 GMT-0600 (Central Standard Time),216518.39999997616,019_m_f_n_a.png,O,m,779,2,1,1852.5999999642372,214665.80000001192,7044,VNB,C,1
1,test,1,0.0,1-Back,0,m,Thu Feb 06 2025 18:34:54 GMT-0600 (Central Standard Time),219634.39999997616,015_o_m_h_a.png,O,None,2011,3,1,3084.5,216549.89999997616,7044,VNB,C,2
1,test,1,1.0,1-Back,0,z,Thu Feb 06 2025 18:34:54 GMT-0600 (Central Standard Time),222449.69999998808,014_m_m_h_a.png,O,m,1706,4,1,2791.899999976158,219657.80000001192,7044,VNB,C,3
1,test,1,0.0,1-Back,0,m,Thu Feb 06 2025 18:34:54 GMT-0600 (Central Standard Time),225565.5,012_o_f_n_a.png,O,None,2010,5,1,3022.199999988079,222543.30000001192,7044,VNB,C,4
2,test,1,0.0,1-Back,1,m,Thu Feb 06 2025 18:34:54 GMT-0600 (Central Standard Time),227864.59999996424,025_y_m_d_a.png,O,m,1191,6,1,2270.599999964237,225594.0,7044,VNB,C,5
2,test,1,1.0,1-Back,0,z,Thu Feb 06 2025 18:34:54 GMT-0600 (Central Standard Time),230980.39999997616,019_m_f_d_a.png,O,None,2011,7,1,3081.899999976158,227898.5,7044,VNB,C,6
3,test,1,0.0,1-Back,1,m,Thu Feb 06 2025 18:34:54 GMT-0600 (Central Standard Time),233179.69999998808,022_y_f_h_a.png,O,m,1145,8,1,2177.899999976158,231001.80000001192,7044,VNB,C,7
3,test,1,0.0,1-Back,0,m,Thu Feb 06 2025 18:34:54 GMT-0600 (Central Standard Time),236295.30000001192,015_o_m_n_a.png,O,None,2011,9,1,3085.900000035763,233209.39999997616,7044,VNB,C,8
4,test,1,0.0,1-Back,1,m,Thu Feb 06 2025 18:34:54 GMT-0600 (Central Standard Time),238344.39999997616,025_y_m_h_a.png,O,m,950,10,1,2030.0999999642372,236314.30000001192,7044,VNB,C,9
4,test,1,0.0,1-Back,0,m,Thu Feb 06 2025 18:34:54 GMT-0600 (Central Standard Time),241460.30000001192,015_o_m_d_a.png,O,None,2010,11,1,3029.0,238431.30000001192,7044,VNB,C,10
4,test,1,1.0,1-Back,0,z,Thu Feb 06 2025 18:34:54 GMT-0600 (Central Standard Time),243659.80000001192,012_o_f_d_a.png,O,m,1071,12,1,2099.900000035763,241559.89999997616,7044,VNB,C,11
4,test,1,0.0,1-Back,0,m,Thu Feb 06 2025 18:34:54 GMT-0600 (Central Standard Time),246775.39999997616,014_m_m_n_a.png,O,None,2011,13,1,3091.099999964237,243684.30000001192,7044,VNB,C,12
5,test,1,1.0,1-Back,1,z,Thu Feb 06 2025 18:34:54 GMT-0600 (Central Standard Time),249357.89999997616,022_y_f_n_a.png,O,z,1478,14,1,2554.800000011921,246803.09999996424,7044,VNB,C,13
5,test,1,0.0,1-Back,0,m,Thu Feb 06 2025 18:34:54 GMT-0600 (Central Standard Time),252473.39999997616,019_m_f_h_a.png,O,None,2011,15,1,3091.899999976158,249381.5,7044,VNB,C,14
6,test,1,0.0,1-Back,1,m,Thu Feb 06 2025 18:34:54 GMT-0600 (Central Standard Time),254522.59999996424,014_m_m_d_a.png,O,m,930,16,1,2021.0,252501.59999996424,7044,VNB,C,15
6,test,1,0.0,1-Back,0,m,Thu Feb 06 2025 18:34:54 GMT-0600 (Central Standard Time),257671.80000001192,025_y_m_n_a.png,O,None,2011,17,1,3125.900000035763,254545.89999997616,7044,VNB,C,16
7,test,1,0.0,1-Back,1,m,Thu Feb 06 2025 18:34:54 GMT-0600 (Central Standard Time),259820.09999996424,012_o_f_h_a.png,O,m,1056,18,1,2126.199999988079,257693.89999997616,7044,VNB,C,17
0,test,2,0.0,1-Back,,,Thu Feb 06 2025 18:34:54 GMT-0600 (Central Standard Time),259820.09999996424,025_y_m_n_a.png,O,space,1206,1,1,2126.199999988079,257693.89999997616,7044,VNB,C,0
1,test,2,0.0,1-Back,1,m,Thu Feb 06 2025 18:34:54 GMT-0600 (Central Standard Time),265069.89999997616,022_y_f_h_a.png,O,m,961,2,1,1982.199999988079,263087.6999999881,7044,VNB,C,1
1,test,2,1.0,1-Back,0,m,Thu Feb 06 2025 18:34:54 GMT-0600 (Central Standard Time),268117.6999999881,015_o_m_n_a.png,O,None,2011,3,1,3019.699999988079,265098.0,7044,VNB,C,2
2,test,2,0.0,1-Back,1,m,Thu Feb 06 2025 18:34:54 GMT-0600 (Central Standard Time),270050.89999997616,019_m_f_d_a.png,O,m,839,4,1,1915.5,268135.39999997616,7044,VNB,C,3
2,test,2,0.0,1-Back,0,z,Thu Feb 06 2025 18:34:54 GMT-0600 (Central Standard Time),273100.0,014_m_m_d_a.png,O,None,2011,5,1,3030.699999988079,270069.3000000119,7044,VNB,C,4
3,test,2,0.0,1-Back,1,m,Thu Feb 06 2025 18:34:54 GMT-0600 (Central Standard Time),275115.89999997616,025_y_m_h_a.png,O,m,879,6,1,1916.3999999761581,273199.5,7044,VNB,C,5
3,test,2,1.0,1-Back,0,z,Thu Feb 06 2025 18:34:54 GMT-0600 (Central Standard Time),278231.59999996424,012_o_f_h_a.png,O,None,2011,7,1,3020.399999976158,275211.1999999881,7044,VNB,C,6
4,test,2,0.0,1-Back,1,m,Thu Feb 06 2025 18:34:54 GMT-0600 (Central Standard Time),280397.89999997616,019_m_f_n_a.png,O,m,1062,8,1,2136.300000011921,278261.59999996424,7044,VNB,C,7
4,test,2,0.0,1-Back,0,m,Thu Feb 06 2025 18:34:54 GMT-0600 (Central Standard Time),283513.39999997616,022_y_f_d_a.png,O,None,2011,9,1,3021.0,280492.39999997616,7044,VNB,C,8
5,test,2,0.0,1-Back,1,m,Thu Feb 06 2025 18:34:54 GMT-0600 (Central Standard Time),285679.3000000119,014_m_m_n_a.png,O,m,1043,10,1,2136.7000000476837,283542.59999996424,7044,VNB,C,9
5,test,2,1.0,1-Back,0,m,Thu Feb 06 2025 18:34:54 GMT-0600 (Central Standard Time),288728.1999999881,019_m_f_h_a.png,O,None,2011,11,1,3022.699999988079,285705.5,7044,VNB,C,10
5,test,2,0.0,1-Back,0,z,Thu Feb 06 2025 18:34:54 GMT-0600 (Central Standard Time),290610.8000000119,015_o_m_h_a.png,O,m,756,12,1,1781.7000000476837,288829.09999996424,7044,VNB,C,11
5,test,2,0.0,1-Back,0,m,Thu Feb 06 2025 18:34:54 GMT-0600 (Central Standard Time),293726.5,025_y_m_d_a.png,O,None,2010,13,1,3091.5,290635.0,7044,VNB,C,12
5,test,2,0.0,1-Back,0,m,Thu Feb 06 2025 18:34:54 GMT-0600 (Central Standard Time),296225.6999999881,012_o_f_n_a.png,O,z,1382,14,1,2473.899999976158,293751.8000000119,7044,VNB,C,13
5,test,2,0.0,1-Back,0,z,Thu Feb 06 2025 18:34:54 GMT-0600 (Central Standard Time),299358.0,022_y_f_n_a.png,O,None,2011,15,1,3029.900000035763,296328.09999996424,7044,VNB,C,14
6,test,2,1.0,1-Back,1,m,Thu Feb 06 2025 18:34:54 GMT-0600 (Central Standard Time),301240.6999999881,014_m_m_h_a.png,O,m,766,16,1,1853.5,299387.1999999881,7044,VNB,C,15
6,test,2,0.0,1-Back,0,m,Thu Feb 06 2025 18:34:54 GMT-0600 (Central Standard Time),304356.5,012_o_f_d_a.png,O,None,2012,17,1,3085.0,301271.5,7044,VNB,C,16
7,test,2,1.0,1-Back,1,z,Thu Feb 06 2025 18:34:54 GMT-0600 (Central Standard Time),306355.6999999881,015_o_m_d_a.png,O,z,881,18,1,1977.1000000238419,304378.59999996424,7044,VNB,C,17
0,test,3,1.0,1-Back,,,Thu Feb 06 2025 18:34:54 GMT-0600 (Central Standard Time),306355.6999999881,012_o_f_h_a.png,O,space,1069,1,1,1977.1000000238419,304378.59999996424,7044,VNB,C,0
1,test,3,0.0,1-Back,1,m,Thu Feb 06 2025 18:34:54 GMT-0600 (Central Standard Time),311787.1999999881,019_m_f_d_a.png,O,m,1047,2,1,2075.0,309712.1999999881,7044,VNB,C,1
1,test,3,1.0,1-Back,0,m,Thu Feb 06 2025 18:34:54 GMT-0600 (Central Standard Time),314903.09999996424,014_m_m_n_a.png,O,None,2011,3,1,3087.899999976158,311815.1999999881,7044,VNB,C,2
2,test,3,0.0,1-Back,1,z,Thu Feb 06 2025 18:34:54 GMT-0600 (Central Standard Time),316852.3000000119,012_o_f_n_a.png,O,z,837,4,1,1921.1000000238419,314931.1999999881,7044,VNB,C,3
2,test,3,1.0,1-Back,0,m,Thu Feb 06 2025 18:34:54 GMT-0600 (Central Standard Time),319968.0,015_o_m_d_a.png,O,None,2011,5,1,3023.800000011921,316944.1999999881,7044,VNB,C,4
3,test,3,0.0,1-Back,1,m,Thu Feb 06 2025 18:34:54 GMT-0600 (Central Standard Time),322233.8000000119,022_y_f_h_a.png,O,m,1148,6,1,2235.2000000476837,319998.59999996424,7044,VNB,C,5
3,test,3,0.0,1-Back,0,z,Thu Feb 06 2025 18:34:54 GMT-0600 (Central Standard Time),325282.8000000119,025_y_m_h_a.png,O,None,2011,7,1,3026.400000035763,322256.39999997616,7044,VNB,C,6
3,test,3,0.0,1-Back,0,m,Thu Feb 06 2025 18:34:54 GMT-0600 (Central Standard Time),327464.89999997616,019_m_f_n_a.png,O,z,1069,8,1,2154.800000011921,325310.09999996424,7044,VNB,C,7
3,test,3,0.0,1-Back,0,m,Thu Feb 06 2025 18:34:54 GMT-0600 (Central Standard Time),330564.5,022_y_f_d_a.png,O,None,2012,9,1,3087.0,327477.5,7044,VNB,C,8
4,test,3,1.0,1-Back,1,m,Thu Feb 06 2025 18:34:54 GMT-0600 (Central Standard Time),332513.5,015_o_m_n_a.png,O,m,839,10,1,1862.5,330651.0,7044,VNB,C,9
4,test,3,0.0,1-Back,0,m,Thu Feb 06 2025 18:34:54 GMT-0600 (Central Standard Time),335629.39999997616,014_m_m_h_a.png,O,None,2010,11,1,3086.099999964237,332543.3000000119,7044,VNB,C,10
5,test,3,0.0,1-Back,1,z,Thu Feb 06 2025 18:34:54 GMT-0600 (Central Standard Time),337395.5,019_m_f_h_a.png,O,z,655,12,1,1733.4000000357628,335662.09999996424,7044,VNB,C,11
5,test,3,1.0,1-Back,0,m,Thu Feb 06 2025 18:34:54 GMT-0600 (Central Standard Time),340511.1999999881,012_o_f_d_a.png,O,None,2011,13,1,3087.800000011921,337423.39999997616,7044,VNB,C,12
6,test,3,0.0,1-Back,1,z,Thu Feb 06 2025 18:34:54 GMT-0600 (Central Standard Time),342677.3000000119,014_m_m_d_a.png,O,z,1053,14,1,2136.300000011921,340541.0,7044,VNB,C,13
6,test,3,0.0,1-Back,0,m,Thu Feb 06 2025 18:34:54 GMT-0600 (Central Standard Time),345793.0,025_y_m_n_a.png,O,None,2011,15,1,3086.400000035763,342706.59999996424,7044,VNB,C,14
7,test,3,1.0,1-Back,1,m,Thu Feb 06 2025 18:34:54 GMT-0600 (Central Standard Time),347575.5,015_o_m_h_a.png,O,m,668,16,1,1686.6000000238419,345888.89999997616,7044,VNB,C,15
7,test,3,0.0,1-Back,0,m,Thu Feb 06 2025 18:34:54 GMT-0600 (Central Standard Time),350624.59999996424,025_y_m_d_a.png,O,None,2011,17,1,3024.899999976158,347599.6999999881,7044,VNB,C,16
7,test,3,1.0,1-Back,0,m,Thu Feb 06 2025 18:34:54 GMT-0600 (Central Standard Time),352556.59999996424,022_y_f_n_a.png,O,z,886,18,1,1904.5,350652.09999996424,7044,VNB,C,17
0,test,4,1.0,1-Back,,,Thu Feb 06 2025 18:34:54 GMT-0600 (Central Standard Time),352556.59999996424,014_m_m_d_a.png,O,space,1175,1,1,1904.5,350652.09999996424,7044,VNB,C,0
1,test,4,0.0,1-Back,1,z,Thu Feb 06 2025 18:34:54 GMT-0600 (Central Standard Time),358288.6999999881,015_o_m_d_a.png,O,z,1275,2,1,2288.800000011921,355999.89999997616,7044,VNB,C,1
1,test,4,0.0,1-Back,0,m,Thu Feb 06 2025 18:34:54 GMT-0600 (Central Standard Time),361404.5,025_y_m_h_a.png,O,None,2011,3,1,3024.100000023842,358380.39999997616,7044,VNB,C,2
1,test,4,0.0,1-Back,0,m,Thu Feb 06 2025 18:34:54 GMT-0600 (Central Standard Time),363320.3000000119,019_m_f_n_a.png,O,z,875,4,1,1892.7000000476837,361427.59999996424,7044,VNB,C,3
1,test,4,1.0,1-Back,0,m,Thu Feb 06 2025 18:34:54 GMT-0600 (Central Standard Time),366436.09999996424,012_o_f_h_a.png,O,None,2011,5,1,3085.399999976158,363350.6999999881,7044,VNB,C,4
2,test,4,0.0,1-Back,1,m,Thu Feb 06 2025 18:34:54 GMT-0600 (Central Standard Time),368485.39999997616,014_m_m_n_a.png,O,m,928,6,1,1955.8999999761581,366529.5,7044,VNB,C,5
2,test,4,0.0,1-Back,0,m,Thu Feb 06 2025 18:34:54 GMT-0600 (Central Standard Time),371601.59999996424,025_y_m_d_a.png,O,None,2012,7,1,3091.599999964237,368510.0,7044,VNB,C,6
3,test,4,1.0,1-Back,1,z,Thu Feb 06 2025 18:34:54 GMT-0600 (Central Standard Time),373833.59999996424,022_y_f_d_a.png,O,z,1141,8,1,2220.2999999523163,371613.3000000119,7044,VNB,C,7
3,test,4,0.0,1-Back,0,m,Thu Feb 06 2025 18:34:54 GMT-0600 (Central Standard Time),376882.59999996424,019_m_f_h_a.png,O,None,2010,9,1,3023.199999988079,373859.39999997616,7044,VNB,C,8
3,test,4,0.0,1-Back,0,z,Thu Feb 06 2025 18:34:54 GMT-0600 (Central Standard Time),378665.5,015_o_m_h_a.png,O,m,674,10,1,1756.5,376909.0,7044,VNB,C,9
3,test,4,1.0,1-Back,0,m,Thu Feb 06 2025 18:34:54 GMT-0600 (Central Standard Time),381797.6999999881,012_o_f_n_a.png,O,None,2010,11,1,3104.600000023842,378693.09999996424,7044,VNB,C,10
4,test,4,0.0,1-Back,1,m,Thu Feb 06 2025 18:34:54 GMT-0600 (Central Standard Time),383863.59999996424,019_m_f_d_a.png,O,m,959,12,1,1973.5999999642372,381890.0,7044,VNB,C,11
4,test,4,0.0,1-Back,0,m,Thu Feb 06 2025 18:34:54 GMT-0600 (Central Standard Time),386979.3000000119,022_y_f_n_a.png,O,None,2011,13,1,3090.100000023842,383889.1999999881,7044,VNB,C,12
5,test,4,0.0,1-Back,1,m,Thu Feb 06 2025 18:34:54 GMT-0600 (Central Standard Time),389028.5,012_o_f_d_a.png,O,m,925,14,1,2018.1000000238419,387010.39999997616,7044,VNB,C,13
5,test,4,0.0,1-Back,0,m,Thu Feb 06 2025 18:34:54 GMT-0600 (Central Standard Time),392144.39999997616,022_y_f_h_a.png,O,None,2011,15,1,3084.899999976158,389059.5,7044,VNB,C,14
6,test,4,1.0,1-Back,1,z,Thu Feb 06 2025 18:34:54 GMT-0600 (Central Standard Time),394443.3000000119,014_m_m_h_a.png,O,z,1180,16,1,2203.900000035763,392239.39999997616,7044,VNB,C,15
6,test,4,0.0,1-Back,0,m,Thu Feb 06 2025 18:34:54 GMT-0600 (Central Standard Time),397492.59999996424,015_o_m_n_a.png,O,None,2010,17,1,3028.199999988079,394464.39999997616,7044,VNB,C,16
7,test,4,1.0,1-Back,1,z,Thu Feb 06 2025 18:34:54 GMT-0600 (Central Standard Time),399641.89999997616,025_y_m_n_a.png,O,z,1040,18,1,2058.899999976158,397583.0,7044,VNB,C,17
0,test,5,1.0,1-Back,,,Thu Feb 06 2025 18:34:54 GMT-0600 (Central Standard Time),399641.89999997616,015_o_m_n_a.png,O,space,1032,1,1,2058.899999976158,397583.0,7044,VNB,C,0
1,test,5,1.0,1-Back,1,m,Thu Feb 06 2025 18:34:54 GMT-0600 (Central Standard Time),404706.8000000119,012_o_f_h_a.png,O,m,948,2,1,1975.5,402731.3000000119,7044,VNB,C,1
1,test,5,0.0,1-Back,0,m,Thu Feb 06 2025 18:34:54 GMT-0600 (Central Standard Time),407754.89999997616,025_y_m_d_a.png,O,None,2010,3,1,3020.800000011921,404734.09999996424,7044,VNB,C,2
2,test,5,0.0,1-Back,1,z,Thu Feb 06 2025 18:34:54 GMT-0600 (Central Standard Time),410005.1999999881,015_o_m_d_a.png,O,z,1214,4,1,2245.199999988079,407760.0,7044,VNB,C,3
2,test,5,0.0,1-Back,0,m,Thu Feb 06 2025 18:34:54 GMT-0600 (Central Standard Time),413154.1999999881,019_m_f_h_a.png,O,None,2011,5,1,3117.199999988079,410037.0,7044,VNB,C,4
3,test,5,0.0,1-Back,1,m,Thu Feb 06 2025 18:34:54 GMT-0600 (Central Standard Time),415054.09999996424,022_y_f_n_a.png,O,m,794,6,1,1869.3999999761581,413184.6999999881,7044,VNB,C,5
3,test,5,1.0,1-Back,0,z,Thu Feb 06 2025 18:34:54 GMT-0600 (Central Standard Time),418152.59999996424,012_o_f_n_a.png,O,None,2011,7,1,3077.599999964237,415075.0,7044,VNB,C,6
4,test,5,0.0,1-Back,1,m,Thu Feb 06 2025 18:34:54 GMT-0600 (Central Standard Time),420201.8000000119,019_m_f_d_a.png,O,m,940,8,1,1951.1000000238419,418250.6999999881,7044,VNB,C,7
4,test,5,0.0,1-Back,0,m,Thu Feb 06 2025 18:34:54 GMT-0600 (Central Standard Time),423317.39999997616,025_y_m_h_a.png,O,None,2011,9,1,3087.0,420230.39999997616,7044,VNB,C,8
5,test,5,0.0,1-Back,1,m,Thu Feb 06 2025 18:34:54 GMT-0600 (Central Standard Time),425482.8000000119,022_y_f_d_a.png,O,m,1046,10,1,2133.900000035763,423348.89999997616,7044,VNB,C,9
5,test,5,0.0,1-Back,0,m,Thu Feb 06 2025 18:34:54 GMT-0600 (Central Standard Time),428599.0,014_m_m_n_a.png,O,None,2011,11,1,3023.5,425575.5,7044,VNB,C,10
6,test,5,1.0,1-Back,1,z,Thu Feb 06 2025 18:34:54 GMT-0600 (Central Standard Time),430365.0,019_m_f_n_a.png,O,z,654,12,1,1736.4000000357628,428628.59999996424,7044,VNB,C,11
6,test,5,0.0,1-Back,0,m,Thu Feb 06 2025 18:34:54 GMT-0600 (Central Standard Time),433480.0,015_o_m_h_a.png,O,None,2011,13,1,3020.199999988079,430459.8000000119,7044,VNB,C,12
7,test,5,0.0,1-Back,1,z,Thu Feb 06 2025 18:34:54 GMT-0600 (Central Standard Time),435479.3000000119,014_m_m_h_a.png,O,z,978,14,1,1993.800000011921,433485.5,7044,VNB,C,13
7,test,5,1.0,1-Back,0,m,Thu Feb 06 2025 18:34:54 GMT-0600 (Central Standard Time),438512.5,012_o_f_d_a.png,O,None,2014,15,1,3026.300000011921,435486.1999999881,7044,VNB,C,14
8,test,5,0.0,1-Back,1,m,Thu Feb 06 2025 18:34:54 GMT-0600 (Central Standard Time),440561.5,025_y_m_n_a.png,O,m,940,16,1,2026.1000000238419,438535.39999997616,7044,VNB,C,15
8,test,5,0.0,1-Back,0,m,Thu Feb 06 2025 18:34:54 GMT-0600 (Central Standard Time),443660.3000000119,022_y_f_h_a.png,O,None,2010,17,1,3019.2000000476837,440641.09999996424,7044,VNB,C,16
9,test,5,0.0,1-Back,1,m,Thu Feb 06 2025 18:34:54 GMT-0600 (Central Standard Time),445460.3000000119,014_m_m_d_a.png,O,m,771,18,1,1788.6000000238419,443671.6999999881,7044,VNB,C,17
0,prac,1,0.0,2-Back,,,Thu Feb 06 2025 18:34:54 GMT-0600 (Central Standard Time),445460.3000000119,019_m_f_n_a.png,O,space,6764,1,1,1788.6000000238419,443671.6999999881,7044,VNB,C,0
0,prac,1,0.0,2-Back,,,Thu Feb 06 2025 18:34:54 GMT-0600 (Central Standard Time),445460.3000000119,012_o_f_h_a.png,O,space,6764,2,1,1788.6000000238419,443671.6999999881,7044,VNB,C,0
1,prac,1,0.0,2-Back,1,m,Thu Feb 06 2025 18:34:54 GMT-0600 (Central Standard Time),539196.8999999762,015_o_m_d_a.png,O,m,1163,3,1,2136.099999964237,537060.8000000119,7044,VNB,C,1
1,prac,1,1.0,2-Back,0,z,Thu Feb 06 2025 18:34:54 GMT-0600 (Central Standard Time),542228.5,014_m_m_h_a.png,O,None,2008,4,1,2924.5,539304.0,7044,VNB,C,2
2,prac,1,0.0,2-Back,1,m,Thu Feb 06 2025 18:34:54 GMT-0600 (Central Standard Time),544677.1999999881,022_y_f_n_a.png,O,m,1465,5,1,2405.199999988079,542272.0,7044,VNB,C,3
3,prac,1,1.0,2-Back,1,z,Thu Feb 06 2025 18:34:54 GMT-0600 (Central Standard Time),546827.1999999881,015_o_m_h_a.png,O,z,1178,6,1,2129.100000023842,544698.0999999642,7044,VNB,C,4
3,prac,1,1.0,2-Back,0,z,Thu Feb 06 2025 18:34:54 GMT-0600 (Central Standard Time),548609.6999999881,025_y_m_n_a.png,O,m,839,7,1,1745.699999988079,546864.0,7044,VNB,C,5
3,prac,1,0.0,2-Back,0,m,Thu Feb 06 2025 18:34:54 GMT-0600 (Central Standard Time),550609.3999999762,019_m_f_d_a.png,O,z,1019,8,1,1971.800000011921,548637.5999999642,7044,VNB,C,6
4,prac,1,0.0,2-Back,1,m,Thu Feb 06 2025 18:34:54 GMT-0600 (Central Standard Time),552708.5,012_o_f_d_a.png,O,m,1070,9,1,1999.199999988079,550709.3000000119,7044,VNB,C,7
5,prac,1,0.0,2-Back,1,m,Thu Feb 06 2025 18:34:54 GMT-0600 (Central Standard Time),555291.0999999642,014_m_m_h_a.png,O,m,1585,10,1,2485.599999964237,552805.5,7044,VNB,C,8
6,prac,1,1.0,2-Back,1,z,Thu Feb 06 2025 18:34:54 GMT-0600 (Central Standard Time),557440.3999999762,022_y_f_d_a.png,O,z,1110,11,1,2051.199999988079,555389.1999999881,7044,VNB,C,9
7,prac,1,0.0,2-Back,1,m,Thu Feb 06 2025 18:34:54 GMT-0600 (Central Standard Time),559722.8999999762,015_o_m_n_a.png,O,m,1229,12,1,2180.099999964237,557542.8000000119,7044,VNB,C,10
0,test,1,0.0,2-Back,,,Thu Feb 06 2025 18:34:54 GMT-0600 (Central Standard Time),559722.8999999762,025_y_m_h_a.png,O,space,5891,1,1,2180.099999964237,557542.8000000119,7044,VNB,C,0
0,test,1,0.0,2-Back,,,Thu Feb 06 2025 18:34:54 GMT-0600 (Central Standard Time),559722.8999999762,012_o_f_n_a.png,O,space,5891,2,1,2180.099999964237,557542.8000000119,7044,VNB,C,0
1,test,1,0.0,2-Back,1,z,Thu Feb 06 2025 18:34:54 GMT-0600 (Central Standard Time),579566.3999999762,015_o_m_h_a.png,O,z,1585,3,1,2614.199999988079,576952.1999999881,7044,VNB,C,1
2,test,1,0.0,2-Back,1,m,Thu Feb 06 2025 18:34:54 GMT-0600 (Central Standard Time),581665.8999999762,019_m_f_d_a.png,O,m,1057,4,1,2075.199999988079,579590.6999999881,7044,VNB,C,2
2,test,1,1.0,2-Back,0,m,Thu Feb 06 2025 18:34:54 GMT-0600 (Central Standard Time),583881.6999999881,025_y_m_n_a.png,O,z,1095,5,1,2127.100000023842,581754.5999999642,7044,VNB,C,3
2,test,1,0.0,2-Back,0,z,Thu Feb 06 2025 18:34:54 GMT-0600 (Central Standard Time),585863.3000000119,022_y_f_d_a.png,O,m,874,6,1,1890.7000000476837,583972.5999999642,7044,VNB,C,4
2,test,1,0.0,2-Back,0,m,Thu Feb 06 2025 18:34:54 GMT-0600 (Central Standard Time),587997.0999999642,014_m_m_h_a.png,O,z,1096,7,1,2127.7999999523163,585869.3000000119,7044,VNB,C,5
3,test,1,1.0,2-Back,1,m,Thu Feb 06 2025 18:34:54 GMT-0600 (Central Standard Time),590062.0,022_y_f_n_a.png,O,m,937,8,1,2035.6000000238419,588026.3999999762,7044,VNB,C,6
4,test,1,0.0,2-Back,1,z,Thu Feb 06 2025 18:34:54 GMT-0600 (Central Standard Time),591762.3000000119,012_o_f_h_a.png,O,z,677,9,1,1695.800000011921,590066.5,7044,VNB,C,7
5,test,1,0.0,2-Back,1,m,Thu Feb 06 2025 18:34:54 GMT-0600 (Central Standard Time),593794.8000000119,015_o_m_d_a.png,O,m,983,10,1,2002.9000000357628,591791.8999999762,7044,VNB,C,8
6,test,1,1.0,2-Back,1,m,Thu Feb 06 2025 18:34:54 GMT-0600 (Central Standard Time),595727.6999999881,014_m_m_d_a.png,O,m,801,11,1,1903.1000000238419,593824.5999999642,7044,VNB,C,9
7,test,1,0.0,2-Back,1,m,Thu Feb 06 2025 18:34:54 GMT-0600 (Central Standard Time),597627.3000000119,019_m_f_n_a.png,O,m,781,12,1,1803.6000000238419,595823.6999999881,7044,VNB,C,10
7,test,1,0.0,2-Back,0,m,Thu Feb 06 2025 18:34:54 GMT-0600 (Central Standard Time),599409.6999999881,022_y_f_h_a.png,O,z,666,13,1,1754.8999999761581,597654.8000000119,7044,VNB,C,11
7,test,1,0.0,2-Back,0,z,Thu Feb 06 2025 18:34:54 GMT-0600 (Central Standard Time),601142.5,014_m_m_n_a.png,O,m,686,14,1,1704.800000011921,599437.6999999881,7044,VNB,C,12
8,test,1,0.0,2-Back,1,m,Thu Feb 06 2025 18:34:54 GMT-0600 (Central Standard Time),603191.8999999762,025_y_m_d_a.png,O,m,1005,15,1,2022.5,601169.3999999762,7044,VNB,C,13
8,test,1,1.0,2-Back,0,m,Thu Feb 06 2025 18:34:54 GMT-0600 (Central Standard Time),605124.5,019_m_f_h_a.png,O,z,796,16,1,1834.199999988079,603290.3000000119,7044,VNB,C,14
8,test,1,0.0,2-Back,0,z,Thu Feb 06 2025 18:34:54 GMT-0600 (Central Standard Time),607074.0,012_o_f_d_a.png,O,m,831,17,1,1860.800000011921,605213.1999999881,7044,VNB,C,15
9,test,1,0.0,2-Back,1,m,Thu Feb 06 2025 18:34:54 GMT-0600 (Central Standard Time),609139.5,015_o_m_n_a.png,O,m,955,18,1,1974.300000011921,607165.1999999881,7044,VNB,C,16
0,test,2,0.0,2-Back,,,Thu Feb 06 2025 18:34:54 GMT-0600 (Central Standard Time),609139.5,014_m_m_h_a.png,O,space,1063,1,1,1974.300000011921,607165.1999999881,7044,VNB,C,0
0,test,2,0.0,2-Back,,,Thu Feb 06 2025 18:34:54 GMT-0600 (Central Standard Time),609139.5,022_y_f_n_a.png,O,space,1063,2,1,1974.300000011921,607165.1999999881,7044,VNB,C,0
1,test,2,1.0,2-Back,1,z,Thu Feb 06 2025 18:34:54 GMT-0600 (Central Standard Time),617820.5999999642,012_o_f_h_a.png,O,z,1145,3,1,2168.899999976158,615651.6999999881,7044,VNB,C,1
2,test,2,0.0,2-Back,1,m,Thu Feb 06 2025 18:34:54 GMT-0600 (Central Standard Time),619852.3000000119,015_o_m_d_a.png,O,m,911,4,1,2003.1000000238419,617849.1999999881,7044,VNB,C,2
3,test,2,0.0,2-Back,1,m,Thu Feb 06 2025 18:34:54 GMT-0600 (Central Standard Time),621819.0999999642,019_m_f_d_a.png,O,m,931,5,1,1956.0999999642372,619863.0,7044,VNB,C,3
3,test,2,0.0,2-Back,0,m,Thu Feb 06 2025 18:34:54 GMT-0600 (Central Standard Time),623851.6999999881,025_y_m_h_a.png,O,z,897,6,1,1919.3999999761581,621932.3000000119,7044,VNB,C,4
4,test,2,0.0,2-Back,1,m,Thu Feb 06 2025 18:34:54 GMT-0600 (Central Standard Time),625667.8000000119,012_o_f_n_a.png,O,m,705,7,1,1792.4000000357628,623875.3999999762,7044,VNB,C,5
5,test,2,1.0,2-Back,1,z,Thu Feb 06 2025 18:34:54 GMT-0600 (Central Standard Time),627483.0999999642,015_o_m_h_a.png,O,z,700,8,1,1722.199999988079,625760.8999999762,7044,VNB,C,6
6,test,2,0.0,2-Back,1,m,Thu Feb 06 2025 18:34:54 GMT-0600 (Central Standard Time),629232.5,022_y_f_d_a.png,O,m,715,9,1,1744.9000000357628,627487.5999999642,7044,VNB,C,7
7,test,2,0.0,2-Back,1,m,Thu Feb 06 2025 18:34:54 GMT-0600 (Central Standard Time),631065.3000000119,025_y_m_d_a.png,O,m,797,10,1,1828.5,629236.8000000119,7044,VNB,C,8
8,test,2,0.0,2-Back,1,m,Thu Feb 06 2025 18:34:54 GMT-0600 (Central Standard Time),632949.0999999642,014_m_m_n_a.png,O,m,854,11,1,1872.0,631077.0999999642,7044,VNB,C,9
8,test,2,0.0,2-Back,0,m,Thu Feb 06 2025 18:34:54 GMT-0600 (Central Standard Time),634781.8999999762,019_m_f_h_a.png,O,z,711,12,1,1731.5999999642372,633050.3000000119,7044,VNB,C,10
8,test,2,1.0,2-Back,0,z,Thu Feb 06 2025 18:34:54 GMT-0600 (Central Standard Time),636564.1999999881,015_o_m_n_a.png,O,m,674,13,1,1752.5,634811.6999999881,7044,VNB,C,11
9,test,2,0.0,2-Back,1,m,Thu Feb 06 2025 18:34:54 GMT-0600 (Central Standard Time),638330.5,012_o_f_d_a.png,O,m,656,14,1,1673.699999988079,636656.8000000119,7044,VNB,C,12
9,test,2,0.0,2-Back,0,m,Thu Feb 06 2025 18:34:54 GMT-0600 (Central Standard Time),640196.5,022_y_f_h_a.png,O,z,747,15,1,1835.300000011921,638361.1999999881,7044,VNB,C,13
9,test,2,0.0,2-Back,0,z,Thu Feb 06 2025 18:34:54 GMT-0600 (Central Standard Time),642028.3000000119,014_m_m_d_a.png,O,m,715,16,1,1743.7000000476837,640284.5999999642,7044,VNB,C,14
10,test,2,0.0,2-Back,1,m,Thu Feb 06 2025 18:34:54 GMT-0600 (Central Standard Time),644044.1999999881,025_y_m_n_a.png,O,m,994,17,1,2008.699999988079,642035.5,7044,VNB,C,15
11,test,2,1.0,2-Back,1,m,Thu Feb 06 2025 18:34:54 GMT-0600 (Central Standard Time),645994.5999999642,019_m_f_n_a.png,O,m,915,18,1,1945.8999999761581,644048.6999999881,7044,VNB,C,16
0,test,3,1.0,2-Back,,,Thu Feb 06 2025 18:34:54 GMT-0600 (Central Standard Time),645994.5999999642,015_o_m_n_a.png,O,space,1125,1,1,1945.8999999761581,644048.6999999881,7044,VNB,C,0
0,test,3,1.0,2-Back,,,Thu Feb 06 2025 18:34:54 GMT-0600 (Central Standard Time),645994.5999999642,012_o_f_d_a.png,O,space,1125,2,1,1945.8999999761581,644048.6999999881,7044,VNB,C,0
1,test,3,0.0,2-Back,1,m,Thu Feb 06 2025 18:34:54 GMT-0600 (Central Standard Time),654525.0,022_y_f_h_a.png,O,m,1063,3,1,2152.300000011921,652372.6999999881,7044,VNB,C,1
1,test,3,0.0,2-Back,0,z,Thu Feb 06 2025 18:34:54 GMT-0600 (Central Standard Time),656557.6999999881,019_m_f_d_a.png,O,m,912,4,1,1933.6000000238419,654624.0999999642,7044,VNB,C,2
1,test,3,1.0,2-Back,0,m,Thu Feb 06 2025 18:34:54 GMT-0600 (Central Standard Time),658440.3000000119,025_y_m_n_a.png,O,z,753,5,1,1850.300000011921,656590.0,7044,VNB,C,3
2,test,3,0.0,2-Back,1,m,Thu Feb 06 2025 18:34:54 GMT-0600 (Central Standard Time),660373.0999999642,015_o_m_h_a.png,O,m,812,6,1,1845.2999999523163,658527.8000000119,7044,VNB,C,4
3,test,3,0.0,2-Back,1,z,Thu Feb 06 2025 18:34:54 GMT-0600 (Central Standard Time),662106.0,022_y_f_n_a.png,O,z,690,7,1,1708.300000011921,660397.6999999881,7044,VNB,C,5
4,test,3,1.0,2-Back,1,m,Thu Feb 06 2025 18:34:54 GMT-0600 (Central Standard Time),663905.3999999762,014_m_m_d_a.png,O,m,757,8,1,1770.199999988079,662135.1999999881,7044,VNB,C,6
5,test,3,0.0,2-Back,1,m,Thu Feb 06 2025 18:34:54 GMT-0600 (Central Standard Time),665688.0,025_y_m_d_a.png,O,m,735,9,1,1754.699999988079,663933.3000000119,7044,VNB,C,7
6,test,3,0.0,2-Back,1,m,Thu Feb 06 2025 18:34:54 GMT-0600 (Central Standard Time),667454.0999999642,012_o_f_h_a.png,O,m,661,10,1,1671.0999999642372,665783.0,7044,VNB,C,8
6,test,3,1.0,2-Back,0,m,Thu Feb 06 2025 18:34:54 GMT-0600 (Central Standard Time),669270.0,019_m_f_n_a.png,O,z,777,11,1,1791.4000000357628,667478.5999999642,7044,VNB,C,9
6,test,3,1.0,2-Back,0,z,Thu Feb 06 2025 18:34:54 GMT-0600 (Central Standard Time),671003.0,014_m_m_h_a.png,O,m,685,12,1,1708.9000000357628,669294.0999999642,7044,VNB,C,10
7,test,3,0.0,2-Back,1,m,Thu Feb 06 2025 18:34:54 GMT-0600 (Central Standard Time),672785.8999999762,022_y_f_d_a.png,O,m,666,13,1,1754.8999999761581,671031.0,7044,VNB,C,11
7,test,3,0.0,2-Back,0,m,Thu Feb 06 2025 18:34:54 GMT-0600 (Central Standard Time),674785.1999999881,012_o_f_n_a.png,O,z,866,14,1,1970.5,672814.6999999881,7044,VNB,C,12
7,test,3,0.0,2-Back,0,z,Thu Feb 06 2025 18:34:54 GMT-0600 (Central Standard Time),676484.5,015_o_m_d_a.png,O,m,646,15,1,1673.800000011921,674810.6999999881,7044,VNB,C,13
8,test,3,1.0,2-Back,1,m,Thu Feb 06 2025 18:34:54 GMT-0600 (Central Standard Time),678150.8999999762,019_m_f_h_a.png,O,m,618,16,1,1637.199999988079,676513.6999999881,7044,VNB,C,14
8,test,3,0.0,2-Back,0,m,Thu Feb 06 2025 18:34:54 GMT-0600 (Central Standard Time),679950.1999999881,014_m_m_n_a.png,O,z,690,17,1,1773.699999988079,678176.5,7044,VNB,C,15
8,test,3,0.0,2-Back,0,z,Thu Feb 06 2025 18:34:54 GMT-0600 (Central Standard Time),681632.8999999762,025_y_m_h_a.png,O,m,633,18,1,1656.5,679976.3999999762,7044,VNB,C,16
0,test,4,0.0,2-Back,,,Thu Feb 06 2025 18:34:54 GMT-0600 (Central Standard Time),681632.8999999762,019_m_f_n_a.png,O,space,1104,1,1,1656.5,679976.3999999762,7044,VNB,C,0
0,test,4,0.0,2-Back,,,Thu Feb 06 2025 18:34:54 GMT-0600 (Central Standard Time),681632.8999999762,015_o_m_n_a.png,O,space,1104,2,1,1656.5,679976.3999999762,7044,VNB,C,0
1,test,4,1.0,2-Back,1,m,Thu Feb 06 2025 18:34:54 GMT-0600 (Central Standard Time),690182.5,025_y_m_h_a.png,O,m,977,3,1,2010.800000011921,688171.6999999881,7044,VNB,C,1
2,test,4,1.0,2-Back,1,m,Thu Feb 06 2025 18:34:54 GMT-0600 (Central Standard Time),692396.1999999881,012_o_f_d_a.png,O,m,1165,4,1,2190.300000011921,690205.8999999762,7044,VNB,C,2
2,test,4,0.0,2-Back,0,z,Thu Feb 06 2025 18:34:54 GMT-0600 (Central Standard Time),694195.3999999762,015_o_m_h_a.png,O,m,688,5,1,1706.199999988079,692489.1999999881,7044,VNB,C,3
2,test,4,0.0,2-Back,0,m,Thu Feb 06 2025 18:34:54 GMT-0600 (Central Standard Time),695878.1999999881,014_m_m_n_a.png,O,z,628,6,1,1655.6000000238419,694222.5999999642,7044,VNB,C,4
3,test,4,0.0,2-Back,1,m,Thu Feb 06 2025 18:34:54 GMT-0600 (Central Standard Time),697777.8999999762,019_m_f_d_a.png,O,m,757,7,1,1870.199999988079,695907.6999999881,7044,VNB,C,5
4,test,4,0.0,2-Back,1,z,Thu Feb 06 2025 18:34:54 GMT-0600 (Central Standard Time),699477.0999999642,022_y_f_n_a.png,O,z,570,8,1,1598.0999999642372,697879.0,7044,VNB,C,6
5,test,4,1.0,2-Back,1,m,Thu Feb 06 2025 18:34:54 GMT-0600 (Central Standard Time),701243.0999999642,012_o_f_h_a.png,O,m,659,9,1,1677.5,699565.5999999642,7044,VNB,C,7
6,test,4,0.0,2-Back,1,m,Thu Feb 06 2025 18:34:54 GMT-0600 (Central Standard Time),702975.8999999762,014_m_m_h_a.png,O,m,684,10,1,1709.8999999761581,701266.0,7044,VNB,C,8
7,test,4,0.0,2-Back,1,m,Thu Feb 06 2025 18:34:54 GMT-0600 (Central Standard Time),704808.6999999881,022_y_f_d_a.png,O,m,708,11,1,1799.0,703009.6999999881,7044,VNB,C,9
7,test,4,0.0,2-Back,0,m,Thu Feb 06 2025 18:34:54 GMT-0600 (Central Standard Time),706458.0,025_y_m_n_a.png,O,z,532,12,1,1619.199999988079,704838.8000000119,7044,VNB,C,10
7,test,4,0.0,2-Back,0,z,Thu Feb 06 2025 18:34:54 GMT-0600 (Central Standard Time),708189.8999999762,015_o_m_d_a.png,O,m,618,13,1,1700.0,706489.8999999762,7044,VNB,C,11
8,test,4,1.0,2-Back,1,m,Thu Feb 06 2025 18:34:54 GMT-0600 (Central Standard Time),709856.3999999762,019_m_f_h_a.png,O,m,635,14,1,1661.5,708194.8999999762,7044,VNB,C,12
9,test,4,1.0,2-Back,1,m,Thu Feb 06 2025 18:34:54 GMT-0600 (Central Standard Time),711639.8999999762,022_y_f_h_a.png,O,m,702,15,1,1772.199999988079,709867.6999999881,7044,VNB,C,13
9,test,4,0.0,2-Back,0,m,Thu Feb 06 2025 18:34:54 GMT-0600 (Central Standard Time),713455.8999999762,012_o_f_n_a.png,O,z,684,16,1,1716.0,711739.8999999762,7044,VNB,C,14
10,test,4,0.0,2-Back,1,m,Thu Feb 06 2025 18:34:54 GMT-0600 (Central Standard Time),715355.0999999642,025_y_m_d_a.png,O,m,781,17,1,1872.5999999642372,713482.5,7044,VNB,C,15
11,test,4,1.0,2-Back,1,m,Thu Feb 06 2025 18:34:54 GMT-0600 (Central Standard Time),717138.0,014_m_m_d_a.png,O,m,657,18,1,1678.800000011921,715459.1999999881,7044,VNB,C,16
0,test,5,1.0,2-Back,,,Thu Feb 06 2025 18:34:54 GMT-0600 (Central Standard Time),717138.0,022_y_f_d_a.png,O,space,1168,1,1,1678.800000011921,715459.1999999881,7044,VNB,C,0
0,test,5,1.0,2-Back,,,Thu Feb 06 2025 18:34:54 GMT-0600 (Central Standard Time),717138.0,012_o_f_h_a.png,O,space,1168,2,1,1678.800000011921,715459.1999999881,7044,VNB,C,0
1,test,5,1.0,2-Back,1,z,Thu Feb 06 2025 18:34:54 GMT-0600 (Central Standard Time),726501.5,015_o_m_d_a.png,O,z,1737,3,1,2767.600000023842,723733.8999999762,7044,VNB,C,1
2,test,5,1.0,2-Back,1,m,Thu Feb 06 2025 18:34:54 GMT-0600 (Central Standard Time),728251.0,019_m_f_n_a.png,O,m,705,4,1,1720.4000000357628,726530.5999999642,7044,VNB,C,2
3,test,5,0.0,2-Back,1,m,Thu Feb 06 2025 18:34:54 GMT-0600 (Central Standard Time),730250.3000000119,014_m_m_h_a.png,O,m,886,5,1,1973.5,728276.8000000119,7044,VNB,C,3
3,test,5,0.0,2-Back,0,z,Thu Feb 06 2025 18:34:54 GMT-0600 (Central Standard Time),732016.3999999762,022_y_f_n_a.png,O,m,656,6,1,1735.800000011921,730280.5999999642,7044,VNB,C,4
3,test,5,0.0,2-Back,0,m,Thu Feb 06 2025 18:34:54 GMT-0600 (Central Standard Time),733799.0,012_o_f_d_a.png,O,z,676,7,1,1749.9000000357628,732049.0999999642,7044,VNB,C,5
4,test,5,0.0,2-Back,1,m,Thu Feb 06 2025 18:34:54 GMT-0600 (Central Standard Time),735582.1999999881,015_o_m_h_a.png,O,m,679,8,1,1692.6000000238419,733889.5999999642,7044,VNB,C,6
5,test,5,1.0,2-Back,1,z,Thu Feb 06 2025 18:34:54 GMT-0600 (Central Standard Time),737398.3999999762,019_m_f_d_a.png,O,z,712,9,1,1781.800000011921,735616.5999999642,7044,VNB,C,7
6,test,5,0.0,2-Back,1,m,Thu Feb 06 2025 18:34:54 GMT-0600 (Central Standard Time),739214.0999999642,025_y_m_n_a.png,O,m,710,10,1,1790.0999999642372,737424.0,7044,VNB,C,8
7,test,5,0.0,2-Back,1,m,Thu Feb 06 2025 18:34:54 GMT-0600 (Central Standard Time),741014.0,014_m_m_n_a.png,O,m,694,11,1,1769.5,739244.5,7044,VNB,C,9
8,test,5,0.0,2-Back,1,m,Thu Feb 06 2025 18:34:54 GMT-0600 (Central Standard Time),742830.0999999642,022_y_f_h_a.png,O,m,694,12,1,1717.0,741113.0999999642,7044,VNB,C,10
8,test,5,0.0,2-Back,0,m,Thu Feb 06 2025 18:34:54 GMT-0600 (Central Standard Time),744678.0999999642,025_y_m_d_a.png,O,z,742,13,1,1818.199999988079,742859.8999999762,7044,VNB,C,11
8,test,5,1.0,2-Back,0,z,Thu Feb 06 2025 18:34:54 GMT-0600 (Central Standard Time),746378.5,019_m_f_h_a.png,O,m,665,14,1,1695.9000000357628,744682.5999999642,7044,VNB,C,12
9,test,5,0.0,2-Back,1,m,Thu Feb 06 2025 18:34:54 GMT-0600 (Central Standard Time),748077.0,015_o_m_n_a.png,O,m,652,15,1,1669.0,746408.0,7044,VNB,C,13
9,test,5,0.0,2-Back,0,m,Thu Feb 06 2025 18:34:54 GMT-0600 (Central Standard Time),749909.6999999881,014_m_m_d_a.png,O,z,801,16,1,1827.199999988079,748082.5,7044,VNB,C,14
9,test,5,0.0,2-Back,0,z,Thu Feb 06 2025 18:34:54 GMT-0600 (Central Standard Time),751643.1999999881,012_o_f_n_a.png,O,m,647,17,1,1725.3999999761581,749917.8000000119,7044,VNB,C,15
10,test,5,1.0,2-Back,1,m,Thu Feb 06 2025 18:34:54 GMT-0600 (Central Standard Time),753359.3000000119,025_y_m_h_a.png,O,m,609,18,1,1623.2000000476837,751736.0999999642,7044,VNB,C,16
