acc_sum,block,block_c,change,condition,correct,correct_response,datetime,endtime,face,project,response,response_time,row_sel,session_number,start_end,starttime,subject_id,task,task_vers,trial
0,prac,1,,1-Back,,,Wed Apr 02 2025 16:29:28 GMT-0400 (Eastern Daylight Time),,093_m_f_n_a.png,I,space,10067,1,1,,,9010,NNB,C,0
1,prac,1,0.0,1-Back,1,m,Wed Apr 02 2025 16:29:28 GMT-0400 (Eastern Daylight Time),124355.09999990463,098_y_f_n_a.png,I,m,869,2,1,1783.4000000953674,122571.69999980927,9010,NNB,C,1
2,prac,1,1.0,1-Back,1,z,Wed Apr 02 2025 16:29:28 GMT-0400 (Eastern Daylight Time),126138.59999990463,098_y_f_n_a.png,I,z,1001,3,1,1770.5999999046326,124368.0,9010,NNB,C,2
3,prac,1,0.0,1-Back,1,m,Wed Apr 02 2025 16:29:28 GMT-0400 (Eastern Daylight Time),128171.7999997139,059_o_m_n_a.png,I,m,1098,4,1,2020.1999998092651,126151.59999990463,9010,NNB,C,3
3,prac,1,0.0,1-Back,0,m,Wed Apr 02 2025 16:29:28 GMT-0400 (Eastern Daylight Time),129988.40000009537,092_m_m_n_a.png,I,z,878,5,1,1803.5,128184.90000009537,9010,NNB,C,4
4,prac,1,1.0,1-Back,1,z,Wed Apr 02 2025 16:29:28 GMT-0400 (Eastern Daylight Time),132105.09999990463,092_m_m_n_a.png,I,z,1322,6,1,2104.800000190735,130000.2999997139,9010,NNB,C,5
5,prac,1,0.0,1-Back,1,m,Wed Apr 02 2025 16:29:28 GMT-0400 (Eastern Daylight Time),134004.90000009537,130_o_f_n_a.png,I,m,930,7,1,1886.9000000953674,132118.0,9010,NNB,C,6
5,prac,1,0.0,1-Back,0,m,Wed Apr 02 2025 16:29:28 GMT-0400 (Eastern Daylight Time),135888.09999990463,082_m_m_n_a.png,I,z,946,8,1,1867.5,134020.59999990463,9010,NNB,C,7
5,prac,1,0.0,1-Back,0,m,Wed Apr 02 2025 16:29:28 GMT-0400 (Eastern Daylight Time),138671.40000009537,093_m_f_n_a.png,I,None,2004,9,1,2771.2000002861023,135900.19999980927,9010,NNB,C,8
5,prac,1,1.0,1-Back,0,z,Wed Apr 02 2025 16:29:28 GMT-0400 (Eastern Daylight Time),141004.7999997139,093_m_f_n_a.png,I,m,1550,10,1,2321.2999997138977,138683.5,9010,NNB,C,9
5,prac,1,0.0,1-Back,0,m,Wed Apr 02 2025 16:29:28 GMT-0400 (Eastern Daylight Time),143788.09999990463,059_o_m_n_a.png,I,None,2003,11,1,2770.800000190735,141017.2999997139,9010,NNB,C,10
5,prac,1,0.0,1-Back,0,m,Wed Apr 02 2025 16:29:28 GMT-0400 (Eastern Daylight Time),145638.2999997139,028_y_f_n_a.png,I,z,891,12,1,1815.5999999046326,143822.69999980927,9010,NNB,C,11
0,prac,2,0.0,1-Back,,,Wed Apr 02 2025 16:29:28 GMT-0400 (Eastern Daylight Time),145638.2999997139,093_m_f_n_a.png,I,a,5762,1,1,1815.5999999046326,143822.69999980927,9010,NNB,C,0
1,prac,2,0.0,1-Back,1,m,Wed Apr 02 2025 16:29:28 GMT-0400 (Eastern Daylight Time),156221.59999990463,098_y_f_n_a.png,I,m,846,2,1,1754.6999998092651,154466.90000009537,9010,NNB,C,1
2,prac,2,1.0,1-Back,1,z,Wed Apr 02 2025 16:29:28 GMT-0400 (Eastern Daylight Time),158121.59999990463,098_y_f_n_a.png,I,z,1119,3,1,1887.5999999046326,156234.0,9010,NNB,C,2
3,prac,2,0.0,1-Back,1,m,Wed Apr 02 2025 16:29:28 GMT-0400 (Eastern Daylight Time),160171.5,059_o_m_n_a.png,I,m,1267,4,1,2037.5999999046326,158133.90000009537,9010,NNB,C,3
4,prac,2,0.0,1-Back,1,m,Wed Apr 02 2025 16:29:28 GMT-0400 (Eastern Daylight Time),162154.7999997139,092_m_m_n_a.png,I,m,1056,5,1,1971.1999998092651,160183.59999990463,9010,NNB,C,4
5,prac,2,1.0,1-Back,1,z,Wed Apr 02 2025 16:29:28 GMT-0400 (Eastern Daylight Time),163920.7999997139,092_m_m_n_a.png,I,z,980,6,1,1755.1999998092651,162165.59999990463,9010,NNB,C,5
6,prac,2,0.0,1-Back,1,m,Wed Apr 02 2025 16:29:28 GMT-0400 (Eastern Daylight Time),165921.40000009537,130_o_f_n_a.png,I,m,1037,7,1,1989.2000002861023,163932.19999980927,9010,NNB,C,6
7,prac,2,0.0,1-Back,1,m,Wed Apr 02 2025 16:29:28 GMT-0400 (Eastern Daylight Time),168121.40000009537,082_m_m_n_a.png,I,m,1257,8,1,2187.1000003814697,165934.2999997139,9010,NNB,C,7
8,prac,2,0.0,1-Back,1,m,Wed Apr 02 2025 16:29:28 GMT-0400 (Eastern Daylight Time),170888.19999980927,093_m_f_n_a.png,I,m,1972,9,1,2755.0999999046326,168133.09999990463,9010,NNB,C,8
9,prac,2,1.0,1-Back,1,z,Wed Apr 02 2025 16:29:28 GMT-0400 (Eastern Daylight Time),172488.09999990463,093_m_f_n_a.png,I,z,796,10,1,1578.5999999046326,170909.5,9010,NNB,C,9
10,prac,2,0.0,1-Back,1,m,Wed Apr 02 2025 16:29:28 GMT-0400 (Eastern Daylight Time),174171.09999990463,059_o_m_n_a.png,I,m,900,11,1,1671.3000001907349,172499.7999997139,9010,NNB,C,10
11,prac,2,0.0,1-Back,1,m,Wed Apr 02 2025 16:29:28 GMT-0400 (Eastern Daylight Time),176154.69999980927,028_y_f_n_a.png,I,m,1058,12,1,1974.9000000953674,174179.7999997139,9010,NNB,C,11
0,test,1,0.0,1-Back,,,Wed Apr 02 2025 16:29:28 GMT-0400 (Eastern Daylight Time),176154.69999980927,098_y_f_n_a.png,I,space,13714,1,1,1974.9000000953674,174179.7999997139,9010,NNB,C,0
1,test,1,0.0,1-Back,1,m,Wed Apr 02 2025 16:29:28 GMT-0400 (Eastern Daylight Time),204187.90000009537,006_m_f_n_a.png,I,m,1030,2,1,2041.1000003814697,202146.7999997139,9010,NNB,C,1
2,test,1,0.0,1-Back,1,m,Wed Apr 02 2025 16:29:28 GMT-0400 (Eastern Daylight Time),206721.5,028_y_f_n_a.png,I,m,1508,3,1,2525.4000000953674,204196.09999990463,9010,NNB,C,2
3,test,1,1.0,1-Back,1,z,Wed Apr 02 2025 16:29:28 GMT-0400 (Eastern Daylight Time),208554.59999990463,028_y_f_n_a.png,I,z,799,4,1,1823.9000000953674,206730.69999980927,9010,NNB,C,3
4,test,1,0.0,1-Back,1,m,Wed Apr 02 2025 16:29:28 GMT-0400 (Eastern Daylight Time),210388.09999990463,006_m_f_n_a.png,I,m,806,5,1,1823.6999998092651,208564.40000009537,9010,NNB,C,4
5,test,1,0.0,1-Back,1,m,Wed Apr 02 2025 16:29:28 GMT-0400 (Eastern Daylight Time),212554.5,059_o_m_n_a.png,I,m,1132,6,1,2156.800000190735,210397.69999980927,9010,NNB,C,5
6,test,1,1.0,1-Back,1,z,Wed Apr 02 2025 16:29:28 GMT-0400 (Eastern Daylight Time),214488.0,059_o_m_n_a.png,I,z,902,7,1,1924.0,212564.0,9010,NNB,C,6
7,test,1,0.0,1-Back,1,m,Wed Apr 02 2025 16:29:28 GMT-0400 (Eastern Daylight Time),216504.5,092_m_m_n_a.png,I,m,984,8,1,2008.2000002861023,214496.2999997139,9010,NNB,C,7
8,test,1,0.0,1-Back,1,m,Wed Apr 02 2025 16:29:28 GMT-0400 (Eastern Daylight Time),218604.59999990463,130_o_f_n_a.png,I,m,1080,9,1,2090.5999999046326,216514.0,9010,NNB,C,8
9,test,1,0.0,1-Back,1,m,Wed Apr 02 2025 16:29:28 GMT-0400 (Eastern Daylight Time),220454.5,092_m_m_n_a.png,I,m,820,10,1,1840.5999999046326,218613.90000009537,9010,NNB,C,9
10,test,1,0.0,1-Back,1,m,Wed Apr 02 2025 16:29:28 GMT-0400 (Eastern Daylight Time),222304.69999980927,057_y_m_n_a.png,I,m,825,11,1,1841.4000000953674,220463.2999997139,9010,NNB,C,10
11,test,1,1.0,1-Back,1,z,Wed Apr 02 2025 16:29:28 GMT-0400 (Eastern Daylight Time),224071.40000009537,057_y_m_n_a.png,I,z,735,12,1,1757.6000003814697,222313.7999997139,9010,NNB,C,11
12,test,1,0.0,1-Back,1,m,Wed Apr 02 2025 16:29:28 GMT-0400 (Eastern Daylight Time),226004.69999980927,030_o_f_n_a.png,I,m,905,13,1,1924.5,224080.19999980927,9010,NNB,C,12
13,test,1,1.0,1-Back,1,z,Wed Apr 02 2025 16:29:28 GMT-0400 (Eastern Daylight Time),227938.19999980927,030_o_f_n_a.png,I,z,908,14,1,1921.6999998092651,226016.5,9010,NNB,C,13
14,test,1,0.0,1-Back,1,m,Wed Apr 02 2025 16:29:28 GMT-0400 (Eastern Daylight Time),229804.5,031_y_m_n_a.png,I,m,830,15,1,1853.0,227951.5,9010,NNB,C,14
15,test,1,0.0,1-Back,1,m,Wed Apr 02 2025 16:29:28 GMT-0400 (Eastern Daylight Time),232071.2999997139,093_m_f_n_a.png,I,m,1237,16,1,2255.3999996185303,229815.90000009537,9010,NNB,C,15
16,test,1,0.0,1-Back,1,m,Wed Apr 02 2025 16:29:28 GMT-0400 (Eastern Daylight Time),234104.69999980927,146_o_m_n_a.png,I,m,984,17,1,2013.6999998092651,232091.0,9010,NNB,C,16
17,test,1,0.0,1-Back,1,m,Wed Apr 02 2025 16:29:28 GMT-0400 (Eastern Daylight Time),235721.2999997139,093_m_f_n_a.png,I,m,584,18,1,1603.3999996185303,234117.90000009537,9010,NNB,C,17
0,test,2,0.0,1-Back,,,Wed Apr 02 2025 16:29:28 GMT-0400 (Eastern Daylight Time),235721.2999997139,092_m_m_n_a.png,I,space,2303,1,1,1603.3999996185303,234117.90000009537,9010,NNB,C,0
1,test,2,0.0,1-Back,1,m,Wed Apr 02 2025 16:29:28 GMT-0400 (Eastern Daylight Time),242071.19999980927,006_m_f_n_a.png,I,m,985,2,1,2006.7999997138977,240064.40000009537,9010,NNB,C,1
2,test,2,1.0,1-Back,1,z,Wed Apr 02 2025 16:29:28 GMT-0400 (Eastern Daylight Time),244004.5,006_m_f_n_a.png,I,z,906,3,1,1925.0999999046326,242079.40000009537,9010,NNB,C,2
3,test,2,0.0,1-Back,1,m,Wed Apr 02 2025 16:29:28 GMT-0400 (Eastern Daylight Time),245787.90000009537,092_m_m_n_a.png,I,m,764,4,1,1775.9000000953674,244012.0,9010,NNB,C,3
4,test,2,0.0,1-Back,1,m,Wed Apr 02 2025 16:29:28 GMT-0400 (Eastern Daylight Time),247971.2999997139,057_y_m_n_a.png,I,m,1156,5,1,2173.699999809265,245797.59999990463,9010,NNB,C,4
5,test,2,0.0,1-Back,1,m,Wed Apr 02 2025 16:29:28 GMT-0400 (Eastern Daylight Time),249787.7999997139,098_y_f_n_a.png,I,m,797,6,1,1807.7999997138977,247980.0,9010,NNB,C,5
6,test,2,1.0,1-Back,1,z,Wed Apr 02 2025 16:29:28 GMT-0400 (Eastern Daylight Time),251621.19999980927,098_y_f_n_a.png,I,z,804,7,1,1824.7999997138977,249796.40000009537,9010,NNB,C,6
7,test,2,0.0,1-Back,1,m,Wed Apr 02 2025 16:29:28 GMT-0400 (Eastern Daylight Time),253371.0,057_y_m_n_a.png,I,m,731,8,1,1741.4000000953674,251629.59999990463,9010,NNB,C,7
8,test,2,0.0,1-Back,1,m,Wed Apr 02 2025 16:29:28 GMT-0400 (Eastern Daylight Time),255355.0,030_o_f_n_a.png,I,m,965,9,1,1972.3000001907349,253382.69999980927,9010,NNB,C,8
9,test,2,0.0,1-Back,1,m,Wed Apr 02 2025 16:29:28 GMT-0400 (Eastern Daylight Time),257104.59999990463,082_m_m_n_a.png,I,m,725,10,1,1738.0,255366.59999990463,9010,NNB,C,9
10,test,2,1.0,1-Back,1,z,Wed Apr 02 2025 16:29:28 GMT-0400 (Eastern Daylight Time),260071.19999980927,082_m_m_n_a.png,I,z,1935,11,1,2957.2999997138977,257113.90000009537,9010,NNB,C,10
11,test,2,0.0,1-Back,1,m,Wed Apr 02 2025 16:29:28 GMT-0400 (Eastern Daylight Time),261804.5,030_o_f_n_a.png,I,m,713,12,1,1723.4000000953674,260081.09999990463,9010,NNB,C,11
12,test,2,0.0,1-Back,1,m,Wed Apr 02 2025 16:29:28 GMT-0400 (Eastern Daylight Time),263721.2999997139,130_o_f_n_a.png,I,m,884,13,1,1908.2999997138977,261813.0,9010,NNB,C,12
13,test,2,0.0,1-Back,1,m,Wed Apr 02 2025 16:29:28 GMT-0400 (Eastern Daylight Time),265521.2999997139,059_o_m_n_a.png,I,m,775,14,1,1791.0999999046326,263730.19999980927,9010,NNB,C,13
14,test,2,0.0,1-Back,1,m,Wed Apr 02 2025 16:29:28 GMT-0400 (Eastern Daylight Time),267421.19999980927,146_o_m_n_a.png,I,m,879,15,1,1891.6999998092651,265529.5,9010,NNB,C,14
15,test,2,1.0,1-Back,1,z,Wed Apr 02 2025 16:29:28 GMT-0400 (Eastern Daylight Time),269204.5,146_o_m_n_a.png,I,z,755,16,1,1774.3000001907349,267430.19999980927,9010,NNB,C,15
16,test,2,0.0,1-Back,1,m,Wed Apr 02 2025 16:29:28 GMT-0400 (Eastern Daylight Time),270921.09999990463,031_y_m_n_a.png,I,m,684,17,1,1707.4000000953674,269213.69999980927,9010,NNB,C,16
17,test,2,1.0,1-Back,1,z,Wed Apr 02 2025 16:29:28 GMT-0400 (Eastern Daylight Time),273037.90000009537,031_y_m_n_a.png,I,z,1095,18,1,2108.5,270929.40000009537,9010,NNB,C,17
0,test,3,1.0,1-Back,,,Wed Apr 02 2025 16:29:28 GMT-0400 (Eastern Daylight Time),273037.90000009537,028_y_f_n_a.png,I,space,1354,1,1,2108.5,270929.40000009537,9010,NNB,C,0
1,test,3,0.0,1-Back,1,m,Wed Apr 02 2025 16:29:28 GMT-0400 (Eastern Daylight Time),278354.59999990463,146_o_m_n_a.png,I,m,776,1,1,1790.3000001907349,276564.2999997139,9010,NNB,C,1
2,test,3,1.0,1-Back,1,z,Wed Apr 02 2025 16:29:28 GMT-0400 (Eastern Daylight Time),280604.40000009537,146_o_m_n_a.png,I,z,1214,1,1,2232.4000000953674,278372.0,9010,NNB,C,2
3,test,3,0.0,1-Back,1,m,Wed Apr 02 2025 16:29:28 GMT-0400 (Eastern Daylight Time),283004.40000009537,093_m_f_n_a.png,I,m,1380,1,1,2394.4000000953674,280610.0,9010,NNB,C,3
4,test,3,1.0,1-Back,1,z,Wed Apr 02 2025 16:29:28 GMT-0400 (Eastern Daylight Time),284770.5,093_m_f_n_a.png,I,z,740,1,1,1757.2000002861023,283013.2999997139,9010,NNB,C,4
5,test,3,0.0,1-Back,1,m,Wed Apr 02 2025 16:29:28 GMT-0400 (Eastern Daylight Time),286471.19999980927,030_o_f_n_a.png,I,m,669,1,1,1696.1999998092651,284775.0,9010,NNB,C,5
6,test,3,0.0,1-Back,1,m,Wed Apr 02 2025 16:29:28 GMT-0400 (Eastern Daylight Time),288204.5,057_y_m_n_a.png,I,m,714,1,1,1724.4000000953674,286480.09999990463,9010,NNB,C,6
7,test,3,0.0,1-Back,1,m,Wed Apr 02 2025 16:29:28 GMT-0400 (Eastern Daylight Time),290321.2999997139,030_o_f_n_a.png,I,m,1093,1,1,2107.7999997138977,288213.5,9010,NNB,C,7
8,test,3,0.0,1-Back,1,m,Wed Apr 02 2025 16:29:28 GMT-0400 (Eastern Daylight Time),291987.90000009537,031_y_m_n_a.png,I,m,639,1,1,1657.8000001907349,290330.09999990463,9010,NNB,C,8
9,test,3,1.0,1-Back,1,z,Wed Apr 02 2025 16:29:28 GMT-0400 (Eastern Daylight Time),293754.59999990463,031_y_m_n_a.png,I,z,732,1,1,1756.3000001907349,291998.2999997139,9010,NNB,C,9
10,test,3,0.0,1-Back,1,m,Wed Apr 02 2025 16:29:28 GMT-0400 (Eastern Daylight Time),295504.5,006_m_f_n_a.png,I,m,726,1,1,1741.3000001907349,293763.19999980927,9010,NNB,C,10
11,test,3,0.0,1-Back,1,m,Wed Apr 02 2025 16:29:28 GMT-0400 (Eastern Daylight Time),297271.2999997139,098_y_f_n_a.png,I,m,735,1,1,1756.8999996185303,295514.40000009537,9010,NNB,C,11
12,test,3,1.0,1-Back,1,z,Wed Apr 02 2025 16:29:28 GMT-0400 (Eastern Daylight Time),299021.09999990463,098_y_f_n_a.png,I,z,729,1,1,1741.3000001907349,297279.7999997139,9010,NNB,C,12
13,test,3,0.0,1-Back,1,m,Wed Apr 02 2025 16:29:28 GMT-0400 (Eastern Daylight Time),300670.7999997139,006_m_f_n_a.png,I,m,626,1,1,1641.5,299029.2999997139,9010,NNB,C,13
14,test,3,0.0,1-Back,1,m,Wed Apr 02 2025 16:29:28 GMT-0400 (Eastern Daylight Time),302621.0,092_m_m_n_a.png,I,m,929,1,1,1945.5,300675.5,9010,NNB,C,14
15,test,3,1.0,1-Back,1,z,Wed Apr 02 2025 16:29:28 GMT-0400 (Eastern Daylight Time),304471.19999980927,092_m_m_n_a.png,I,z,819,1,1,1842.4000000953674,302628.7999997139,9010,NNB,C,15
16,test,3,0.0,1-Back,1,m,Wed Apr 02 2025 16:29:28 GMT-0400 (Eastern Daylight Time),306204.59999990463,130_o_f_n_a.png,I,m,713,1,1,1725.6999998092651,304478.90000009537,9010,NNB,C,16
17,test,3,1.0,1-Back,1,z,Wed Apr 02 2025 16:29:28 GMT-0400 (Eastern Daylight Time),308004.5,130_o_f_n_a.png,I,z,772,1,1,1791.3000001907349,306213.19999980927,9010,NNB,C,17
0,test,4,1.0,1-Back,,,Wed Apr 02 2025 16:29:28 GMT-0400 (Eastern Daylight Time),308004.5,093_m_f_n_a.png,I,space,1156,1,1,1791.3000001907349,306213.19999980927,9010,NNB,C,0
1,test,4,0.0,1-Back,1,m,Wed Apr 02 2025 16:29:28 GMT-0400 (Eastern Daylight Time),313187.69999980927,146_o_m_n_a.png,I,m,840,2,1,1856.9000000953674,311330.7999997139,9010,NNB,C,1
2,test,4,0.0,1-Back,1,m,Wed Apr 02 2025 16:29:28 GMT-0400 (Eastern Daylight Time),315137.7999997139,093_m_f_n_a.png,I,m,924,3,1,1941.3999996185303,313196.40000009537,9010,NNB,C,2
3,test,4,0.0,1-Back,1,m,Wed Apr 02 2025 16:29:28 GMT-0400 (Eastern Daylight Time),316904.5,030_o_f_n_a.png,I,m,734,4,1,1758.0,315146.5,9010,NNB,C,3
4,test,4,1.0,1-Back,1,z,Wed Apr 02 2025 16:29:28 GMT-0400 (Eastern Daylight Time),318587.59999990463,030_o_f_n_a.png,I,z,664,5,1,1674.5,316913.09999990463,9010,NNB,C,4
5,test,4,0.0,1-Back,1,m,Wed Apr 02 2025 16:29:28 GMT-0400 (Eastern Daylight Time),320321.2999997139,098_y_f_n_a.png,I,m,708,6,1,1725.6999998092651,318595.59999990463,9010,NNB,C,5
6,test,4,0.0,1-Back,1,m,Wed Apr 02 2025 16:29:28 GMT-0400 (Eastern Daylight Time),322204.5,057_y_m_n_a.png,I,m,863,7,1,1873.8000001907349,320330.69999980927,9010,NNB,C,6
7,test,4,1.0,1-Back,1,z,Wed Apr 02 2025 16:29:28 GMT-0400 (Eastern Daylight Time),323854.40000009537,057_y_m_n_a.png,I,z,628,8,1,1638.9000000953674,322215.5,9010,NNB,C,7
8,test,4,0.0,1-Back,1,m,Wed Apr 02 2025 16:29:28 GMT-0400 (Eastern Daylight Time),325521.09999990463,098_y_f_n_a.png,I,m,625,9,1,1649.1999998092651,323871.90000009537,9010,NNB,C,8
9,test,4,0.0,1-Back,1,m,Wed Apr 02 2025 16:29:28 GMT-0400 (Eastern Daylight Time),327387.69999980927,082_m_m_n_a.png,I,m,847,10,1,1859.0999999046326,325528.59999990463,9010,NNB,C,9
10,test,4,1.0,1-Back,1,z,Wed Apr 02 2025 16:29:28 GMT-0400 (Eastern Daylight Time),329287.7999997139,082_m_m_n_a.png,I,z,868,11,1,1890.5999999046326,327397.19999980927,9010,NNB,C,10
11,test,4,0.0,1-Back,1,m,Wed Apr 02 2025 16:29:28 GMT-0400 (Eastern Daylight Time),330904.59999990463,130_o_f_n_a.png,I,m,585,12,1,1607.1999998092651,329297.40000009537,9010,NNB,C,11
12,test,4,0.0,1-Back,1,m,Wed Apr 02 2025 16:29:28 GMT-0400 (Eastern Daylight Time),332837.7999997139,059_o_m_n_a.png,I,m,904,13,1,1925.0,330912.7999997139,9010,NNB,C,12
13,test,4,0.0,1-Back,1,m,Wed Apr 02 2025 16:29:28 GMT-0400 (Eastern Daylight Time),334555.0,130_o_f_n_a.png,I,m,699,14,1,1708.0,332847.0,9010,NNB,C,13
14,test,4,0.0,1-Back,1,m,Wed Apr 02 2025 16:29:28 GMT-0400 (Eastern Daylight Time),336271.19999980927,028_y_f_n_a.png,I,m,694,15,1,1709.0,334562.19999980927,9010,NNB,C,14
15,test,4,1.0,1-Back,1,z,Wed Apr 02 2025 16:29:28 GMT-0400 (Eastern Daylight Time),337970.90000009537,028_y_f_n_a.png,I,z,673,16,1,1690.2000002861023,336280.69999980927,9010,NNB,C,15
16,test,4,0.0,1-Back,1,m,Wed Apr 02 2025 16:29:28 GMT-0400 (Eastern Daylight Time),339737.0,006_m_f_n_a.png,I,m,732,17,1,1754.2000002861023,337982.7999997139,9010,NNB,C,16
17,test,4,1.0,1-Back,1,z,Wed Apr 02 2025 16:29:28 GMT-0400 (Eastern Daylight Time),341571.40000009537,006_m_f_n_a.png,I,z,806,18,1,1825.9000000953674,339745.5,9010,NNB,C,17
0,test,5,1.0,1-Back,,,Wed Apr 02 2025 16:29:28 GMT-0400 (Eastern Daylight Time),341571.40000009537,059_o_m_n_a.png,I,space,1141,1,1,1825.9000000953674,339745.5,9010,NNB,C,0
1,test,5,1.0,1-Back,1,z,Wed Apr 02 2025 16:29:28 GMT-0400 (Eastern Daylight Time),346687.7999997139,059_o_m_n_a.png,I,z,926,2,1,1940.7999997138977,344747.0,9010,NNB,C,1
2,test,5,0.0,1-Back,1,m,Wed Apr 02 2025 16:29:28 GMT-0400 (Eastern Daylight Time),348371.19999980927,098_y_f_n_a.png,I,m,658,3,1,1673.9000000953674,346697.2999997139,9010,NNB,C,2
3,test,5,0.0,1-Back,1,m,Wed Apr 02 2025 16:29:28 GMT-0400 (Eastern Daylight Time),350238.0,057_y_m_n_a.png,I,m,845,4,1,1858.4000000953674,348379.59999990463,9010,NNB,C,3
4,test,5,0.0,1-Back,1,m,Wed Apr 02 2025 16:29:28 GMT-0400 (Eastern Daylight Time),352087.7999997139,098_y_f_n_a.png,I,m,819,5,1,1841.8999996185303,350245.90000009537,9010,NNB,C,4
5,test,5,0.0,1-Back,1,m,Wed Apr 02 2025 16:29:28 GMT-0400 (Eastern Daylight Time),353754.90000009537,092_m_m_n_a.png,I,m,648,6,1,1658.5,352096.40000009537,9010,NNB,C,5
6,test,5,1.0,1-Back,1,z,Wed Apr 02 2025 16:29:28 GMT-0400 (Eastern Daylight Time),355404.40000009537,092_m_m_n_a.png,I,z,630,7,1,1640.3000001907349,353764.09999990463,9010,NNB,C,6
7,test,5,0.0,1-Back,1,m,Wed Apr 02 2025 16:29:28 GMT-0400 (Eastern Daylight Time),357337.69999980927,028_y_f_n_a.png,I,m,900,8,1,1921.0999999046326,355416.59999990463,9010,NNB,C,7
8,test,5,0.0,1-Back,1,m,Wed Apr 02 2025 16:29:28 GMT-0400 (Eastern Daylight Time),358970.69999980927,031_y_m_n_a.png,I,m,615,9,1,1621.0,357349.69999980927,9010,NNB,C,8
9,test,5,0.0,1-Back,1,m,Wed Apr 02 2025 16:29:28 GMT-0400 (Eastern Daylight Time),360721.0,028_y_f_n_a.png,I,m,725,10,1,1742.2000002861023,358978.7999997139,9010,NNB,C,9
10,test,5,0.0,1-Back,1,m,Wed Apr 02 2025 16:29:28 GMT-0400 (Eastern Daylight Time),362554.2999997139,130_o_f_n_a.png,I,m,799,11,1,1824.8999996185303,360729.40000009537,9010,NNB,C,10
11,test,5,1.0,1-Back,1,z,Wed Apr 02 2025 16:29:28 GMT-0400 (Eastern Daylight Time),364154.90000009537,130_o_f_n_a.png,I,z,582,12,1,1592.5,362562.40000009537,9010,NNB,C,11
12,test,5,0.0,1-Back,1,m,Wed Apr 02 2025 16:29:28 GMT-0400 (Eastern Daylight Time),366820.90000009537,146_o_m_n_a.png,I,m,1638,13,1,2657.5,364163.40000009537,9010,NNB,C,12
13,test,5,0.0,1-Back,1,m,Wed Apr 02 2025 16:29:28 GMT-0400 (Eastern Daylight Time),368437.5,093_m_f_n_a.png,I,m,587,14,1,1608.3000001907349,366829.19999980927,9010,NNB,C,13
14,test,5,1.0,1-Back,1,z,Wed Apr 02 2025 16:29:28 GMT-0400 (Eastern Daylight Time),369987.7999997139,093_m_f_n_a.png,I,z,523,15,1,1542.0999999046326,368445.69999980927,9010,NNB,C,14
15,test,5,0.0,1-Back,1,m,Wed Apr 02 2025 16:29:28 GMT-0400 (Eastern Daylight Time),371804.2999997139,146_o_m_n_a.png,I,m,797,16,1,1807.3999996185303,369996.90000009537,9010,NNB,C,15
16,test,5,0.0,1-Back,1,m,Wed Apr 02 2025 16:29:28 GMT-0400 (Eastern Daylight Time),373571.0,006_m_f_n_a.png,I,m,740,17,1,1758.0999999046326,371812.90000009537,9010,NNB,C,16
17,test,5,0.0,1-Back,1,m,Wed Apr 02 2025 16:29:28 GMT-0400 (Eastern Daylight Time),375170.69999980927,082_m_m_n_a.png,I,m,572,18,1,1592.0,373578.69999980927,9010,NNB,C,17
0,prac,1,0.0,2-Back,,,Wed Apr 02 2025 16:29:28 GMT-0400 (Eastern Daylight Time),375170.69999980927,031_y_m_n_a.png,I,space,18079,1,1,1592.0,373578.69999980927,9010,NNB,C,0
0,prac,1,0.0,2-Back,,,Wed Apr 02 2025 16:29:28 GMT-0400 (Eastern Daylight Time),375170.69999980927,006_m_f_n_a.png,I,space,18079,2,1,1592.0,373578.69999980927,9010,NNB,C,0
1,prac,1,1.0,2-Back,1,m,Wed Apr 02 2025 16:29:28 GMT-0400 (Eastern Daylight Time),505654.0,146_o_m_n_a.png,I,m,1346,3,1,2408.0,503246.0,9010,NNB,C,1
2,prac,1,0.0,2-Back,1,m,Wed Apr 02 2025 16:29:28 GMT-0400 (Eastern Daylight Time),507654.40000009537,130_o_f_n_a.png,I,m,825,4,1,1988.0,505666.40000009537,9010,NNB,C,2
2,prac,1,0.0,2-Back,0,z,Wed Apr 02 2025 16:29:28 GMT-0400 (Eastern Daylight Time),510437.40000009537,146_o_m_n_a.png,I,None,2001,5,1,2769.800000190735,507667.59999990463,9010,NNB,C,3
2,prac,1,1.0,2-Back,0,z,Wed Apr 02 2025 16:29:28 GMT-0400 (Eastern Daylight Time),512637.69999980927,130_o_f_n_a.png,I,m,1416,6,1,2188.7999997138977,510448.90000009537,9010,NNB,C,4
3,prac,1,0.0,2-Back,1,m,Wed Apr 02 2025 16:29:28 GMT-0400 (Eastern Daylight Time),515204.2999997139,082_m_m_n_a.png,I,m,1502,7,1,2554.0999999046326,512650.19999980927,9010,NNB,C,5
3,prac,1,0.0,2-Back,0,m,Wed Apr 02 2025 16:29:28 GMT-0400 (Eastern Daylight Time),517854.2999997139,059_o_m_n_a.png,I,z,1572,8,1,2635.2999997138977,515219.0,9010,NNB,C,6
3,prac,1,0.0,2-Back,0,m,Wed Apr 02 2025 16:29:28 GMT-0400 (Eastern Daylight Time),520904.59999990463,028_y_f_n_a.png,I,None,2012,9,1,3039.0,517865.59999990463,9010,NNB,C,7
3,prac,1,1.0,2-Back,0,z,Wed Apr 02 2025 16:29:28 GMT-0400 (Eastern Daylight Time),522770.59999990463,059_o_m_n_a.png,I,m,1077,10,1,1853.8000001907349,520916.7999997139,9010,NNB,C,8
4,prac,1,0.0,2-Back,1,m,Wed Apr 02 2025 16:29:28 GMT-0400 (Eastern Daylight Time),527037.5999999046,098_y_f_n_a.png,I,m,1327,11,1,4255.800000190735,522781.7999997139,9010,NNB,C,9
4,prac,1,0.0,2-Back,0,m,Wed Apr 02 2025 16:29:28 GMT-0400 (Eastern Daylight Time),529137.5999999046,082_m_m_n_a.png,I,z,1152,12,1,2087.800000190735,527049.7999997139,9010,NNB,C,10
0,prac,2,0.0,2-Back,,,Wed Apr 02 2025 16:29:28 GMT-0400 (Eastern Daylight Time),529137.5999999046,031_y_m_n_a.png,I,a,11607,1,1,2087.800000190735,527049.7999997139,9010,NNB,C,0
0,prac,2,0.0,2-Back,,,Wed Apr 02 2025 16:29:28 GMT-0400 (Eastern Daylight Time),529137.5999999046,006_m_f_n_a.png,I,a,11607,2,1,2087.800000190735,527049.7999997139,9010,NNB,C,0
1,prac,2,1.0,2-Back,1,m,Wed Apr 02 2025 16:29:28 GMT-0400 (Eastern Daylight Time),548404.2999997139,146_o_m_n_a.png,I,m,890,3,1,1955.6999998092651,546448.5999999046,9010,NNB,C,1
2,prac,2,0.0,2-Back,1,m,Wed Apr 02 2025 16:29:28 GMT-0400 (Eastern Daylight Time),550454.2999997139,130_o_f_n_a.png,I,m,925,4,1,2038.3999996185303,548415.9000000954,9010,NNB,C,2
2,prac,2,0.0,2-Back,0,z,Wed Apr 02 2025 16:29:28 GMT-0400 (Eastern Daylight Time),553237.5999999046,146_o_m_n_a.png,I,None,2002,5,1,2769.5999999046326,550468.0,9010,NNB,C,3
3,prac,2,1.0,2-Back,1,z,Wed Apr 02 2025 16:29:28 GMT-0400 (Eastern Daylight Time),555720.9000000954,130_o_f_n_a.png,I,z,1523,6,1,2470.800000190735,553250.0999999046,9010,NNB,C,4
4,prac,2,0.0,2-Back,1,m,Wed Apr 02 2025 16:29:28 GMT-0400 (Eastern Daylight Time),557821.1999998093,082_m_m_n_a.png,I,m,1169,7,1,2089.4000000953674,555731.7999997139,9010,NNB,C,5
4,prac,2,0.0,2-Back,0,m,Wed Apr 02 2025 16:29:28 GMT-0400 (Eastern Daylight Time),559954.2999997139,059_o_m_n_a.png,I,z,1175,8,1,2121.699999809265,557832.5999999046,9010,NNB,C,6
5,prac,2,0.0,2-Back,1,m,Wed Apr 02 2025 16:29:28 GMT-0400 (Eastern Daylight Time),562554.2999997139,028_y_f_n_a.png,I,m,1672,9,1,2588.5,559965.7999997139,9010,NNB,C,7
6,prac,2,1.0,2-Back,1,z,Wed Apr 02 2025 16:29:28 GMT-0400 (Eastern Daylight Time),564470.9000000954,059_o_m_n_a.png,I,z,1120,10,1,1901.3000001907349,562569.5999999046,9010,NNB,C,8
7,prac,2,0.0,2-Back,1,m,Wed Apr 02 2025 16:29:28 GMT-0400 (Eastern Daylight Time),566704.2999997139,098_y_f_n_a.png,I,m,1309,11,1,2222.0,564482.2999997139,9010,NNB,C,9
7,prac,2,0.0,2-Back,0,m,Wed Apr 02 2025 16:29:28 GMT-0400 (Eastern Daylight Time),568704.0,082_m_m_n_a.png,I,z,1064,12,1,1985.5999999046326,566718.4000000954,9010,NNB,C,10
0,test,1,0.0,2-Back,,,Wed Apr 02 2025 16:29:28 GMT-0400 (Eastern Daylight Time),568704.0,057_y_m_n_a.png,I,space,17530,1,1,1985.5999999046326,566718.4000000954,9010,NNB,C,0
0,test,1,0.0,2-Back,,,Wed Apr 02 2025 16:29:28 GMT-0400 (Eastern Daylight Time),568704.0,057_y_m_n_a.png,I,space,17530,2,1,1985.5999999046326,566718.4000000954,9010,NNB,C,0
1,test,1,0.0,2-Back,1,m,Wed Apr 02 2025 16:29:28 GMT-0400 (Eastern Daylight Time),609870.7999997139,130_o_f_n_a.png,I,m,861,3,1,1876.0,607994.7999997139,9010,NNB,C,1
2,test,1,0.0,2-Back,1,m,Wed Apr 02 2025 16:29:28 GMT-0400 (Eastern Daylight Time),611687.2999997139,092_m_m_n_a.png,I,m,785,4,1,1808.8999996185303,609878.4000000954,9010,NNB,C,2
3,test,1,1.0,2-Back,1,z,Wed Apr 02 2025 16:29:28 GMT-0400 (Eastern Daylight Time),613487.4000000954,130_o_f_n_a.png,I,z,777,5,1,1791.8000001907349,611695.5999999046,9010,NNB,C,3
4,test,1,0.0,2-Back,1,m,Wed Apr 02 2025 16:29:28 GMT-0400 (Eastern Daylight Time),615670.2999997139,098_y_f_n_a.png,I,m,1153,6,1,2173.7999997138977,613496.5,9010,NNB,C,4
4,test,1,0.0,2-Back,0,m,Wed Apr 02 2025 16:29:28 GMT-0400 (Eastern Daylight Time),617503.6999998093,092_m_m_n_a.png,I,z,809,7,1,1828.7999997138977,615674.9000000954,9010,NNB,C,5
4,test,1,1.0,2-Back,0,z,Wed Apr 02 2025 16:29:28 GMT-0400 (Eastern Daylight Time),620104.0999999046,098_y_f_n_a.png,I,m,1568,8,1,2593.199999809265,617510.9000000954,9010,NNB,C,6
5,test,1,0.0,2-Back,1,m,Wed Apr 02 2025 16:29:28 GMT-0400 (Eastern Daylight Time),622237.4000000954,031_y_m_n_a.png,I,m,1112,9,1,2124.4000000953674,620113.0,9010,NNB,C,7
5,test,1,0.0,2-Back,0,m,Wed Apr 02 2025 16:29:28 GMT-0400 (Eastern Daylight Time),624337.4000000954,030_o_f_n_a.png,I,z,1075,10,1,2090.0,622247.4000000954,9010,NNB,C,8
6,test,1,1.0,2-Back,1,z,Wed Apr 02 2025 16:29:28 GMT-0400 (Eastern Daylight Time),626720.6999998093,031_y_m_n_a.png,I,z,1359,11,1,2374.7999997138977,624345.9000000954,9010,NNB,C,9
7,test,1,0.0,2-Back,1,m,Wed Apr 02 2025 16:29:28 GMT-0400 (Eastern Daylight Time),628437.2999997139,006_m_f_n_a.png,I,m,687,12,1,1708.0,626729.2999997139,9010,NNB,C,10
7,test,1,0.0,2-Back,0,m,Wed Apr 02 2025 16:29:28 GMT-0400 (Eastern Daylight Time),631470.7999997139,006_m_f_n_a.png,I,None,2016,13,1,3024.5999999046326,628446.1999998093,9010,NNB,C,11
8,test,1,0.0,2-Back,1,m,Wed Apr 02 2025 16:29:28 GMT-0400 (Eastern Daylight Time),633554.0,146_o_m_n_a.png,I,m,1058,14,1,2074.5999999046326,631479.4000000954,9010,NNB,C,12
8,test,1,0.0,2-Back,0,m,Wed Apr 02 2025 16:29:28 GMT-0400 (Eastern Daylight Time),635687.4000000954,030_o_f_n_a.png,I,z,1102,15,1,2125.1000003814697,633562.2999997139,9010,NNB,C,13
8,test,1,1.0,2-Back,0,z,Wed Apr 02 2025 16:29:28 GMT-0400 (Eastern Daylight Time),637636.7999997139,146_o_m_n_a.png,I,m,920,16,1,1940.5,635696.2999997139,9010,NNB,C,14
9,test,1,0.0,2-Back,1,m,Wed Apr 02 2025 16:29:28 GMT-0400 (Eastern Daylight Time),639803.9000000954,093_m_f_n_a.png,I,m,1147,17,1,2159.4000000953674,637644.5,9010,NNB,C,15
10,test,1,0.0,2-Back,1,m,Wed Apr 02 2025 16:29:28 GMT-0400 (Eastern Daylight Time),641870.5999999046,082_m_m_n_a.png,I,m,1044,18,1,2056.800000190735,639813.7999997139,9010,NNB,C,16
0,test,2,0.0,2-Back,,,Wed Apr 02 2025 16:29:28 GMT-0400 (Eastern Daylight Time),641870.5999999046,082_m_m_n_a.png,I,space,2362,1,1,2056.800000190735,639813.7999997139,9010,NNB,C,0
0,test,2,0.0,2-Back,,,Wed Apr 02 2025 16:29:28 GMT-0400 (Eastern Daylight Time),641870.5999999046,028_y_f_n_a.png,I,space,2362,2,1,2056.800000190735,639813.7999997139,9010,NNB,C,0
0,test,2,1.0,2-Back,0,z,Wed Apr 02 2025 16:29:28 GMT-0400 (Eastern Daylight Time),652471.0,082_m_m_n_a.png,I,None,2016,3,1,3025.4000000953674,649445.5999999046,9010,NNB,C,1
1,test,2,0.0,2-Back,1,m,Wed Apr 02 2025 16:29:28 GMT-0400 (Eastern Daylight Time),654854.4000000954,093_m_f_n_a.png,I,m,1353,4,1,2375.6000003814697,652478.7999997139,9010,NNB,C,2
1,test,2,0.0,2-Back,0,m,Wed Apr 02 2025 16:29:28 GMT-0400 (Eastern Daylight Time),656886.7999997139,028_y_f_n_a.png,I,z,1001,5,1,2021.0,654865.7999997139,9010,NNB,C,3
2,test,2,0.0,2-Back,1,m,Wed Apr 02 2025 16:29:28 GMT-0400 (Eastern Daylight Time),658954.1999998093,146_o_m_n_a.png,I,m,1032,6,1,2047.7999997138977,656906.4000000954,9010,NNB,C,4
3,test,2,0.0,2-Back,1,m,Wed Apr 02 2025 16:29:28 GMT-0400 (Eastern Daylight Time),661120.7999997139,098_y_f_n_a.png,I,m,1142,7,1,2158.0999999046326,658962.6999998093,9010,NNB,C,5
4,test,2,1.0,2-Back,1,z,Wed Apr 02 2025 16:29:28 GMT-0400 (Eastern Daylight Time),662803.9000000954,146_o_m_n_a.png,I,z,656,8,1,1674.5,661129.4000000954,9010,NNB,C,6
5,test,2,0.0,2-Back,1,m,Wed Apr 02 2025 16:29:28 GMT-0400 (Eastern Daylight Time),664720.7999997139,031_y_m_n_a.png,I,m,892,9,1,1908.0999999046326,662812.6999998093,9010,NNB,C,7
6,test,2,0.0,2-Back,1,m,Wed Apr 02 2025 16:29:28 GMT-0400 (Eastern Daylight Time),666954.4000000954,031_y_m_n_a.png,I,m,1216,10,1,2223.6000003814697,664730.7999997139,9010,NNB,C,8
6,test,2,0.0,2-Back,0,m,Wed Apr 02 2025 16:29:28 GMT-0400 (Eastern Daylight Time),668620.5,006_m_f_n_a.png,I,z,646,11,1,1657.5,666963.0,9010,NNB,C,9
7,test,2,0.0,2-Back,1,m,Wed Apr 02 2025 16:29:28 GMT-0400 (Eastern Daylight Time),670403.9000000954,028_y_f_n_a.png,I,m,755,12,1,1774.4000000953674,668629.5,9010,NNB,C,10
8,test,2,1.0,2-Back,1,z,Wed Apr 02 2025 16:29:28 GMT-0400 (Eastern Daylight Time),672254.0999999046,006_m_f_n_a.png,I,z,828,13,1,1841.9000000953674,670412.1999998093,9010,NNB,C,11
9,test,2,0.0,2-Back,1,m,Wed Apr 02 2025 16:29:28 GMT-0400 (Eastern Daylight Time),674154.4000000954,059_o_m_n_a.png,I,m,882,14,1,1891.5,672262.9000000954,9010,NNB,C,12
10,test,2,0.0,2-Back,1,m,Wed Apr 02 2025 16:29:28 GMT-0400 (Eastern Daylight Time),676287.2999997139,059_o_m_n_a.png,I,m,1112,15,1,2125.699999809265,674161.5999999046,9010,NNB,C,13
10,test,2,0.0,2-Back,0,m,Wed Apr 02 2025 16:29:28 GMT-0400 (Eastern Daylight Time),678003.5999999046,030_o_f_n_a.png,I,z,688,16,1,1707.9000000953674,676295.6999998093,9010,NNB,C,14
11,test,2,0.0,2-Back,1,m,Wed Apr 02 2025 16:29:28 GMT-0400 (Eastern Daylight Time),680053.5999999046,092_m_m_n_a.png,I,m,1019,17,1,2044.3000001907349,678009.2999997139,9010,NNB,C,15
12,test,2,1.0,2-Back,1,z,Wed Apr 02 2025 16:29:28 GMT-0400 (Eastern Daylight Time),681837.2999997139,030_o_f_n_a.png,I,z,762,18,1,1779.5999999046326,680057.6999998093,9010,NNB,C,16
0,test,3,1.0,2-Back,,,Wed Apr 02 2025 16:29:28 GMT-0400 (Eastern Daylight Time),681837.2999997139,057_y_m_n_a.png,I,space,1451,1,1,1779.5999999046326,680057.6999998093,9010,NNB,C,0
0,test,3,1.0,2-Back,,,Wed Apr 02 2025 16:29:28 GMT-0400 (Eastern Daylight Time),681837.2999997139,057_y_m_n_a.png,I,space,1451,2,1,1779.5999999046326,680057.6999998093,9010,NNB,C,0
1,test,3,0.0,2-Back,1,m,Wed Apr 02 2025 16:29:28 GMT-0400 (Eastern Daylight Time),690237.4000000954,030_o_f_n_a.png,I,m,696,3,1,1707.9000000953674,688529.5,9010,NNB,C,1
2,test,3,0.0,2-Back,1,m,Wed Apr 02 2025 16:29:28 GMT-0400 (Eastern Daylight Time),692553.5999999046,082_m_m_n_a.png,I,m,1282,4,1,2307.800000190735,690245.7999997139,9010,NNB,C,2
3,test,3,1.0,2-Back,1,z,Wed Apr 02 2025 16:29:28 GMT-0400 (Eastern Daylight Time),694637.1999998093,030_o_f_n_a.png,I,z,1062,5,1,2076.0999999046326,692561.0999999046,9010,NNB,C,3
4,test,3,0.0,2-Back,1,m,Wed Apr 02 2025 16:29:28 GMT-0400 (Eastern Daylight Time),696437.2999997139,031_y_m_n_a.png,I,m,771,6,1,1791.1999998092651,694646.0999999046,9010,NNB,C,4
4,test,3,0.0,2-Back,0,m,Wed Apr 02 2025 16:29:28 GMT-0400 (Eastern Daylight Time),699037.2999997139,082_m_m_n_a.png,I,z,1579,7,1,2591.5,696445.7999997139,9010,NNB,C,5
4,test,3,1.0,2-Back,0,z,Wed Apr 02 2025 16:29:28 GMT-0400 (Eastern Daylight Time),701020.5999999046,031_y_m_n_a.png,I,m,963,8,1,1974.0,699046.5999999046,9010,NNB,C,6
5,test,3,0.0,2-Back,1,m,Wed Apr 02 2025 16:29:28 GMT-0400 (Eastern Daylight Time),703253.9000000954,028_y_f_n_a.png,I,m,1204,9,1,2225.2000002861023,701028.6999998093,9010,NNB,C,7
6,test,3,0.0,2-Back,1,m,Wed Apr 02 2025 16:29:28 GMT-0400 (Eastern Daylight Time),705470.5,092_m_m_n_a.png,I,m,1195,10,1,2206.5,703264.0,9010,NNB,C,8
7,test,3,1.0,2-Back,1,z,Wed Apr 02 2025 16:29:28 GMT-0400 (Eastern Daylight Time),707303.9000000954,028_y_f_n_a.png,I,z,802,11,1,1824.7000002861023,705479.1999998093,9010,NNB,C,9
8,test,3,1.0,2-Back,1,z,Wed Apr 02 2025 16:29:28 GMT-0400 (Eastern Daylight Time),709637.0,092_m_m_n_a.png,I,z,1303,12,1,2323.9000000953674,707313.0999999046,9010,NNB,C,10
9,test,3,0.0,2-Back,1,m,Wed Apr 02 2025 16:29:28 GMT-0400 (Eastern Daylight Time),711587.1999998093,030_o_f_n_a.png,I,m,923,13,1,1943.2999997138977,709643.9000000954,9010,NNB,C,11
10,test,3,0.0,2-Back,1,m,Wed Apr 02 2025 16:29:28 GMT-0400 (Eastern Daylight Time),713653.6999998093,093_m_f_n_a.png,I,m,1036,14,1,2056.7999997138977,711596.9000000954,9010,NNB,C,12
10,test,3,0.0,2-Back,0,m,Wed Apr 02 2025 16:29:28 GMT-0400 (Eastern Daylight Time),715203.7999997139,146_o_m_n_a.png,I,z,522,15,1,1542.0,713661.7999997139,9010,NNB,C,13
11,test,3,1.0,2-Back,1,z,Wed Apr 02 2025 16:29:28 GMT-0400 (Eastern Daylight Time),717153.2999997139,093_m_f_n_a.png,I,z,923,16,1,1941.1999998092651,715212.0999999046,9010,NNB,C,14
12,test,3,0.0,2-Back,1,m,Wed Apr 02 2025 16:29:28 GMT-0400 (Eastern Daylight Time),719803.1999998093,130_o_f_n_a.png,I,m,1630,17,1,2641.2999997138977,717161.9000000954,9010,NNB,C,15
13,test,3,0.0,2-Back,1,m,Wed Apr 02 2025 16:29:28 GMT-0400 (Eastern Daylight Time),722120.2999997139,130_o_f_n_a.png,I,m,1285,18,1,2308.699999809265,719811.5999999046,9010,NNB,C,16
0,test,4,0.0,2-Back,,,Wed Apr 02 2025 16:29:28 GMT-0400 (Eastern Daylight Time),722120.2999997139,059_o_m_n_a.png,I,space,1552,1,1,2308.699999809265,719811.5999999046,9010,NNB,C,0
0,test,4,0.0,2-Back,,,Wed Apr 02 2025 16:29:28 GMT-0400 (Eastern Daylight Time),722120.2999997139,098_y_f_n_a.png,I,space,1552,2,1,2308.699999809265,719811.5999999046,9010,NNB,C,0
1,test,4,1.0,2-Back,1,z,Wed Apr 02 2025 16:29:28 GMT-0400 (Eastern Daylight Time),731220.6999998093,059_o_m_n_a.png,I,z,1055,3,1,2074.7999997138977,729145.9000000954,9010,NNB,C,1
1,test,4,1.0,2-Back,0,z,Wed Apr 02 2025 16:29:28 GMT-0400 (Eastern Daylight Time),733120.5999999046,098_y_f_n_a.png,I,m,876,4,1,1890.3000001907349,731230.2999997139,9010,NNB,C,2
2,test,4,0.0,2-Back,1,m,Wed Apr 02 2025 16:29:28 GMT-0400 (Eastern Daylight Time),735937.2999997139,030_o_f_n_a.png,I,m,1792,5,1,2808.0,733129.2999997139,9010,NNB,C,3
3,test,4,0.0,2-Back,1,m,Wed Apr 02 2025 16:29:28 GMT-0400 (Eastern Daylight Time),737970.5999999046,030_o_f_n_a.png,I,m,1007,6,1,2023.9000000953674,735946.6999998093,9010,NNB,C,4
4,test,4,0.0,2-Back,1,m,Wed Apr 02 2025 16:29:28 GMT-0400 (Eastern Daylight Time),740237.2999997139,006_m_f_n_a.png,I,m,1246,7,1,2258.5,737978.7999997139,9010,NNB,C,5
5,test,4,0.0,2-Back,1,m,Wed Apr 02 2025 16:29:28 GMT-0400 (Eastern Daylight Time),742170.2999997139,031_y_m_n_a.png,I,m,915,8,1,1924.5,740245.7999997139,9010,NNB,C,6
6,test,4,1.0,2-Back,1,z,Wed Apr 02 2025 16:29:28 GMT-0400 (Eastern Daylight Time),744153.7999997139,006_m_f_n_a.png,I,z,950,9,1,1975.6999998092651,742178.0999999046,9010,NNB,C,7
7,test,4,0.0,2-Back,1,m,Wed Apr 02 2025 16:29:28 GMT-0400 (Eastern Daylight Time),745987.1999998093,092_m_m_n_a.png,I,m,806,10,1,1825.5999999046326,744161.5999999046,9010,NNB,C,8
8,test,4,0.0,2-Back,1,m,Wed Apr 02 2025 16:29:28 GMT-0400 (Eastern Daylight Time),748237.1999998093,031_y_m_n_a.png,I,m,1229,11,1,2241.2999997138977,745995.9000000954,9010,NNB,C,9
9,test,4,0.0,2-Back,1,m,Wed Apr 02 2025 16:29:28 GMT-0400 (Eastern Daylight Time),750437.0999999046,130_o_f_n_a.png,I,m,1171,12,1,2191.0,748246.0999999046,9010,NNB,C,10
9,test,4,0.0,2-Back,0,m,Wed Apr 02 2025 16:29:28 GMT-0400 (Eastern Daylight Time),752404.0,057_y_m_n_a.png,I,z,939,13,1,1958.9000000953674,750445.0999999046,9010,NNB,C,11
10,test,4,1.0,2-Back,1,z,Wed Apr 02 2025 16:29:28 GMT-0400 (Eastern Daylight Time),754620.4000000954,130_o_f_n_a.png,I,z,1196,14,1,2207.7000002861023,752412.6999998093,9010,NNB,C,12
11,test,4,1.0,2-Back,1,z,Wed Apr 02 2025 16:29:28 GMT-0400 (Eastern Daylight Time),757237.2999997139,057_y_m_n_a.png,I,z,1588,15,1,2605.199999809265,754632.0999999046,9010,NNB,C,13
12,test,4,0.0,2-Back,1,m,Wed Apr 02 2025 16:29:28 GMT-0400 (Eastern Daylight Time),759203.7999997139,082_m_m_n_a.png,I,m,939,16,1,1954.0,757249.7999997139,9010,NNB,C,14
13,test,4,0.0,2-Back,1,m,Wed Apr 02 2025 16:29:28 GMT-0400 (Eastern Daylight Time),761553.9000000954,093_m_f_n_a.png,I,m,1324,17,1,2340.2000002861023,759213.6999998093,9010,NNB,C,15
14,test,4,1.0,2-Back,1,z,Wed Apr 02 2025 16:29:28 GMT-0400 (Eastern Daylight Time),763253.6999998093,082_m_m_n_a.png,I,z,670,18,1,1690.0999999046326,761563.5999999046,9010,NNB,C,16
0,test,5,1.0,2-Back,,,Wed Apr 02 2025 16:29:28 GMT-0400 (Eastern Daylight Time),763253.6999998093,057_y_m_n_a.png,I,space,2707,1,1,1690.0999999046326,761563.5999999046,9010,NNB,C,0
0,test,5,1.0,2-Back,,,Wed Apr 02 2025 16:29:28 GMT-0400 (Eastern Daylight Time),763253.6999998093,093_m_f_n_a.png,I,space,2707,2,1,1690.0999999046326,761563.5999999046,9010,NNB,C,0
1,test,5,1.0,2-Back,1,z,Wed Apr 02 2025 16:29:28 GMT-0400 (Eastern Daylight Time),773270.5999999046,057_y_m_n_a.png,I,z,1086,3,1,2106.699999809265,771163.9000000954,9010,NNB,C,1
2,test,5,1.0,2-Back,1,z,Wed Apr 02 2025 16:29:28 GMT-0400 (Eastern Daylight Time),775203.7999997139,093_m_f_n_a.png,I,z,906,4,1,1925.2999997138977,773278.5,9010,NNB,C,2
3,test,5,0.0,2-Back,1,m,Wed Apr 02 2025 16:29:28 GMT-0400 (Eastern Daylight Time),777220.4000000954,130_o_f_n_a.png,I,m,988,5,1,2007.1000003814697,775213.2999997139,9010,NNB,C,3
3,test,5,0.0,2-Back,0,m,Wed Apr 02 2025 16:29:28 GMT-0400 (Eastern Daylight Time),779020.5,057_y_m_n_a.png,I,z,780,6,1,1791.0999999046326,777229.4000000954,9010,NNB,C,4
4,test,5,0.0,2-Back,1,m,Wed Apr 02 2025 16:29:28 GMT-0400 (Eastern Daylight Time),781087.1999998093,028_y_f_n_a.png,I,m,1044,7,1,2058.699999809265,779028.5,9010,NNB,C,5
5,test,5,0.0,2-Back,1,m,Wed Apr 02 2025 16:29:28 GMT-0400 (Eastern Daylight Time),783837.1999998093,130_o_f_n_a.png,I,m,1729,8,1,2741.199999809265,781096.0,9010,NNB,C,6
6,test,5,1.0,2-Back,1,z,Wed Apr 02 2025 16:29:28 GMT-0400 (Eastern Daylight Time),785470.5,028_y_f_n_a.png,I,z,611,9,1,1618.5999999046326,783851.9000000954,9010,NNB,C,7
7,test,5,0.0,2-Back,1,m,Wed Apr 02 2025 16:29:28 GMT-0400 (Eastern Daylight Time),787437.0999999046,146_o_m_n_a.png,I,m,946,10,1,1952.3000001907349,785484.7999997139,9010,NNB,C,8
8,test,5,0.0,2-Back,1,m,Wed Apr 02 2025 16:29:28 GMT-0400 (Eastern Daylight Time),790154.0999999046,006_m_f_n_a.png,I,m,1698,11,1,2707.9000000953674,787446.1999998093,9010,NNB,C,9
8,test,5,0.0,2-Back,0,m,Wed Apr 02 2025 16:29:28 GMT-0400 (Eastern Daylight Time),792203.9000000954,092_m_m_n_a.png,I,z,1029,12,1,2038.7000002861023,790165.1999998093,9010,NNB,C,10
9,test,5,0.0,2-Back,1,m,Wed Apr 02 2025 16:29:28 GMT-0400 (Eastern Daylight Time),794287.0999999046,146_o_m_n_a.png,I,m,1044,13,1,2066.800000190735,792220.2999997139,9010,NNB,C,11
10,test,5,1.0,2-Back,1,z,Wed Apr 02 2025 16:29:28 GMT-0400 (Eastern Daylight Time),796220.4000000954,092_m_m_n_a.png,I,z,912,14,1,1921.0,794299.4000000954,9010,NNB,C,12
11,test,5,0.0,2-Back,1,m,Wed Apr 02 2025 16:29:28 GMT-0400 (Eastern Daylight Time),798437.0,098_y_f_n_a.png,I,m,1187,15,1,2206.0999999046326,796230.9000000954,9010,NNB,C,13
12,test,5,0.0,2-Back,1,m,Wed Apr 02 2025 16:29:28 GMT-0400 (Eastern Daylight Time),800453.2999997139,059_o_m_n_a.png,I,m,986,16,1,2006.3999996185303,798446.9000000954,9010,NNB,C,14
13,test,5,0.0,2-Back,1,m,Wed Apr 02 2025 16:29:28 GMT-0400 (Eastern Daylight Time),802220.4000000954,006_m_f_n_a.png,I,m,746,17,1,1760.7000002861023,800459.6999998093,9010,NNB,C,15
14,test,5,1.0,2-Back,1,z,Wed Apr 02 2025 16:29:28 GMT-0400 (Eastern Daylight Time),804172.2999997139,059_o_m_n_a.png,I,z,934,18,1,1943.6999998092651,802228.5999999046,9010,NNB,C,16
