block_c,block_dur,condition,countdown,datetime,endtime,list,multichar_response,project,response,response_time,session_number,start_end,starttime,subject_id,task,task_vers,trial
,,,,Fri Apr 11 2025 10:25:47 GMT-0500 (Central Daylight Time),,,,O,space,139,1,,,7123,WL,B,
prac,,0,,Fri Apr 11 2025 10:25:47 GMT-0500 (Central Daylight Time),,NA,b,O,b,2543,1,,,7123,WL,B,1.0
prac,,0,,Fri Apr 11 2025 10:25:47 GMT-0500 (Central Daylight Time),,NA,bo,O,o,264,1,,,7123,WL,B,1.0
prac,,0,,Fri Apr 11 2025 10:25:47 GMT-0500 (Central Daylight Time),,NA,boo,O,o,160,1,,,7123,WL,B,1.0
prac,,0,,Fri Apr 11 2025 10:25:47 GMT-0500 (Central Daylight Time),,NA,boos,O,s,220,1,,,7123,WL,B,1.0
prac,,0,,Fri Apr 11 2025 10:25:47 GMT-0500 (Central Daylight Time),,NA,boost,O,t,122,1,,,7123,WL,B,1.0
prac,,0,,Fri Apr 11 2025 10:25:47 GMT-0500 (Central Daylight Time),,NA,boostenter,O,enter,846,1,,,7123,WL,B,1.0
1,1.6660001277923584,learn,58333.99987220764,Fri Apr 11 2025 10:25:47 GMT-0500 (Central Daylight Time),132071.5,A,c,O,c,1649,1,1665.1000000014901,130406.39999999851,7123,WL,B,1.0
1,2.0490000247955322,learn,57950.99997520447,Fri Apr 11 2025 10:25:47 GMT-0500 (Central Daylight Time),132454.29999999702,A,ca,O,a,368,1,2047.8999999985099,130406.39999999851,7123,WL,B,1.0
1,2.2660000324249268,learn,57733.99996757507,Fri Apr 11 2025 10:25:47 GMT-0500 (Central Daylight Time),132671.8999999985,A,cab,O,b,203,1,2265.5,130406.39999999851,7123,WL,B,1.0
1,2.4830000400543213,learn,57516.99995994568,Fri Apr 11 2025 10:25:47 GMT-0500 (Central Daylight Time),132888.0,A,cabi,O,i,200,1,2481.60000000149,130406.39999999851,7123,WL,B,1.0
1,2.632000207901001,learn,57367.999792099,Fri Apr 11 2025 10:25:47 GMT-0500 (Central Daylight Time),133037.79999999702,A,cabin,O,n,135,1,2631.39999999851,130406.39999999851,7123,WL,B,1.0
1,2.883000135421753,learn,57116.99986457825,Fri Apr 11 2025 10:25:47 GMT-0500 (Central Daylight Time),133288.29999999702,A,cabinenter,O,enter,233,1,2881.89999999851,130406.39999999851,7123,WL,B,1.0
1,3.265000104904175,learn,56734.999895095825,Fri Apr 11 2025 10:25:47 GMT-0500 (Central Daylight Time),133670.3999999985,A,f,O,f,368,1,381.70000000298023,133288.69999999553,7123,WL,B,2.0
1,3.4150002002716064,learn,56584.99979972839,Fri Apr 11 2025 10:25:47 GMT-0500 (Central Daylight Time),133820.0,A,fi,O,i,137,1,531.3000000044703,133288.69999999553,7123,WL,B,2.0
1,3.6000001430511475,learn,56399.99985694885,Fri Apr 11 2025 10:25:47 GMT-0500 (Central Daylight Time),134005.1000000015,A,fir,O,r,164,1,716.4000000059605,133288.69999999553,7123,WL,B,2.0
1,3.7320001125335693,learn,56267.99988746643,Fri Apr 11 2025 10:25:47 GMT-0500 (Central Daylight Time),134137.79999999702,A,fire,O,e,115,1,849.1000000014901,133288.69999999553,7123,WL,B,2.0
1,3.948000192642212,learn,56051.99980735779,Fri Apr 11 2025 10:25:47 GMT-0500 (Central Daylight Time),134353.69999999553,A,fireenter,O,enter,196,1,1065.0,133288.69999999553,7123,WL,B,2.0
1,4.449000120162964,learn,55550.999879837036,Fri Apr 11 2025 10:25:47 GMT-0500 (Central Daylight Time),134854.29999999702,A,c,O,c,494,1,500.29999999701977,134354.0,7123,WL,B,3.0
1,4.583000183105469,learn,55416.99981689453,Fri Apr 11 2025 10:25:47 GMT-0500 (Central Daylight Time),134988.19999999553,A,cl,O,l,113,1,634.1999999955297,134354.0,7123,WL,B,3.0
1,4.832000017166138,learn,55167.99998283386,Fri Apr 11 2025 10:25:47 GMT-0500 (Central Daylight Time),135237.0,A,clo,O,o,236,1,883.0,134354.0,7123,WL,B,3.0
1,5.247000217437744,learn,54752.999782562256,Fri Apr 11 2025 10:25:47 GMT-0500 (Central Daylight Time),135652.3999999985,A,cloc,O,c,394,1,1298.3999999985099,134354.0,7123,WL,B,3.0
1,5.363000154495239,learn,54636.99984550476,Fri Apr 11 2025 10:25:47 GMT-0500 (Central Daylight Time),135768.79999999702,A,clock,O,k,108,1,1414.7999999970198,134354.0,7123,WL,B,3.0
1,5.63100004196167,learn,54368.99995803833,Fri Apr 11 2025 10:25:47 GMT-0500 (Central Daylight Time),136036.0,A,clockenter,O,enter,253,1,1682.0,134354.0,7123,WL,B,3.0
1,5.865000009536743,learn,54134.99999046326,Fri Apr 11 2025 10:25:47 GMT-0500 (Central Daylight Time),136270.69999999553,A,w,O,w,228,1,234.29999999701977,136036.3999999985,7123,WL,B,4.0
1,6.081000089645386,learn,53918.999910354614,Fri Apr 11 2025 10:25:47 GMT-0500 (Central Daylight Time),136486.5,A,wi,O,i,199,1,450.1000000014901,136036.3999999985,7123,WL,B,4.0
1,6.231000185012817,learn,53768.99981498718,Fri Apr 11 2025 10:25:47 GMT-0500 (Central Daylight Time),136636.6000000015,A,wif,O,f,137,1,600.2000000029802,136036.3999999985,7123,WL,B,4.0
1,6.430000066757202,learn,53569.9999332428,Fri Apr 11 2025 10:25:47 GMT-0500 (Central Daylight Time),136835.8999999985,A,wife,O,e,179,1,799.5,136036.3999999985,7123,WL,B,4.0
1,6.799000024795532,learn,53200.99997520447,Fri Apr 11 2025 10:25:47 GMT-0500 (Central Daylight Time),137204.19999999553,A,wifeenter,O,enter,355,1,1167.7999999970198,136036.3999999985,7123,WL,B,4.0
1,7.498000144958496,learn,52501.999855041504,Fri Apr 11 2025 10:25:47 GMT-0500 (Central Daylight Time),137903.19999999553,A,a,O,a,693,1,698.6999999955297,137204.5,7123,WL,B,5.0
1,7.630000114440918,learn,52369.99988555908,Fri Apr 11 2025 10:25:47 GMT-0500 (Central Daylight Time),138035.29999999702,A,ar,O,r,113,1,830.7999999970198,137204.5,7123,WL,B,5.0
1,7.863000154495239,learn,52136.99984550476,Fri Apr 11 2025 10:25:47 GMT-0500 (Central Daylight Time),138268.8999999985,A,arm,O,m,208,1,1064.3999999985099,137204.5,7123,WL,B,5.0
1,8.098000049591064,learn,51901.999950408936,Fri Apr 11 2025 10:25:47 GMT-0500 (Central Daylight Time),138503.6000000015,A,armenter,O,enter,228,1,1299.1000000014901,137204.5,7123,WL,B,5.0
1,8.263000011444092,learn,51736.99998855591,Fri Apr 11 2025 10:25:47 GMT-0500 (Central Daylight Time),138668.69999999553,A,d,O,d,152,1,164.79999999701977,138503.8999999985,7123,WL,B,6.0
1,8.46500015258789,learn,51534.99984741211,Fri Apr 11 2025 10:25:47 GMT-0500 (Central Daylight Time),138870.19999999553,A,do,O,o,196,1,366.29999999701977,138503.8999999985,7123,WL,B,6.0
1,8.88100004196167,learn,51118.99995803833,Fri Apr 11 2025 10:25:47 GMT-0500 (Central Daylight Time),139286.69999999553,A,doo,O,o,409,1,782.7999999970198,138503.8999999985,7123,WL,B,6.0
1,9.064000129699707,learn,50935.99987030029,Fri Apr 11 2025 10:25:47 GMT-0500 (Central Daylight Time),139469.19999999553,A,door,O,r,169,1,965.2999999970198,138503.8999999985,7123,WL,B,6.0
1,9.279000043869019,learn,50720.99995613098,Fri Apr 11 2025 10:25:47 GMT-0500 (Central Daylight Time),139684.8999999985,A,doorenter,O,enter,204,1,1181.0,138503.8999999985,7123,WL,B,6.0
1,9.563000202178955,learn,50436.999797821045,Fri Apr 11 2025 10:25:47 GMT-0500 (Central Daylight Time),139968.79999999702,A,g,O,g,269,1,283.6000000014901,139685.19999999553,7123,WL,B,7.0
1,9.797000169754028,learn,50202.99983024597,Fri Apr 11 2025 10:25:47 GMT-0500 (Central Daylight Time),140202.3999999985,A,gr,O,r,215,1,517.2000000029802,139685.19999999553,7123,WL,B,7.0
1,10.230000019073486,learn,49769.999980926514,Fri Apr 11 2025 10:25:47 GMT-0500 (Central Daylight Time),140635.79999999702,A,gra,O,a,414,1,950.6000000014901,139685.19999999553,7123,WL,B,7.0
1,10.680999994277954,learn,49319.000005722046,Fri Apr 11 2025 10:25:47 GMT-0500 (Central Daylight Time),141086.5,A,gras,O,s,444,1,1401.3000000044703,139685.19999999553,7123,WL,B,7.0
1,10.847000122070312,learn,49152.99987792969,Fri Apr 11 2025 10:25:47 GMT-0500 (Central Daylight Time),141252.6000000015,A,grass,O,s,147,1,1567.4000000059605,139685.19999999553,7123,WL,B,7.0
1,10.981000185012817,learn,49018.99981498718,Fri Apr 11 2025 10:25:47 GMT-0500 (Central Daylight Time),141386.5,A,grassenter,O,enter,123,1,1701.3000000044703,139685.19999999553,7123,WL,B,7.0
1,11.412000179290771,learn,48587.99982070923,Fri Apr 11 2025 10:25:47 GMT-0500 (Central Daylight Time),141816.8999999985,A,c,O,c,422,1,430.1000000014901,141386.79999999702,7123,WL,B,8.0
1,11.763000011444092,learn,48236.99998855591,Fri Apr 11 2025 10:25:47 GMT-0500 (Central Daylight Time),142168.8999999985,A,ci,O,i,345,1,782.1000000014901,141386.79999999702,7123,WL,B,8.0
1,12.414000034332275,learn,47585.999965667725,Fri Apr 11 2025 10:25:47 GMT-0500 (Central Daylight Time),142818.8999999985,A,cit,O,t,630,1,1432.1000000014901,141386.79999999702,7123,WL,B,8.0
1,13.646000146865845,learn,46353.999853134155,Fri Apr 11 2025 10:25:47 GMT-0500 (Central Daylight Time),144051.79999999702,A,city,O,y,1214,1,2665.0,141386.79999999702,7123,WL,B,8.0
1,14.379000186920166,learn,45620.999813079834,Fri Apr 11 2025 10:25:47 GMT-0500 (Central Daylight Time),144784.19999999553,A,cityenter,O,enter,716,1,3397.39999999851,141386.79999999702,7123,WL,B,8.0
1,14.629000186920166,learn,45370.999813079834,Fri Apr 11 2025 10:25:47 GMT-0500 (Central Daylight Time),145034.0,A,s,O,s,232,1,249.5,144784.5,7123,WL,B,9.0
1,14.746000051498413,learn,45253.99994850159,Fri Apr 11 2025 10:25:47 GMT-0500 (Central Daylight Time),145151.1000000015,A,st,O,t,103,1,366.6000000014901,144784.5,7123,WL,B,9.0
1,15.01200008392334,learn,44987.99991607666,Fri Apr 11 2025 10:25:47 GMT-0500 (Central Daylight Time),145417.79999999702,A,str,O,r,259,1,633.2999999970198,144784.5,7123,WL,B,9.0
1,15.129000186920166,learn,44870.999813079834,Fri Apr 11 2025 10:25:47 GMT-0500 (Central Daylight Time),145534.6000000015,A,stre,O,e,103,1,750.1000000014901,144784.5,7123,WL,B,9.0
1,15.362000226974487,learn,44637.99977302551,Fri Apr 11 2025 10:25:47 GMT-0500 (Central Daylight Time),145767.3999999985,A,stree,O,e,217,1,982.8999999985099,144784.5,7123,WL,B,9.0
1,16.16200017929077,learn,43837.99982070923,Fri Apr 11 2025 10:25:47 GMT-0500 (Central Daylight Time),146567.8999999985,A,street,O,t,794,1,1783.3999999985099,144784.5,7123,WL,B,9.0
1,17.07800006866455,learn,42921.99993133545,Fri Apr 11 2025 10:25:47 GMT-0500 (Central Daylight Time),147483.3999999985,A,streetenter,O,enter,903,1,2698.89999999851,144784.5,7123,WL,B,9.0
1,18.81000018119812,learn,41189.99981880188,Fri Apr 11 2025 10:25:47 GMT-0500 (Central Daylight Time),149215.0,A,l,O,l,1710,1,1731.3000000044703,147483.69999999553,7123,WL,B,10.0
1,18.993000030517578,learn,41006.99996948242,Fri Apr 11 2025 10:25:47 GMT-0500 (Central Daylight Time),149398.1000000015,A,la,O,a,167,1,1914.4000000059605,147483.69999999553,7123,WL,B,10.0
1,19.243000030517578,learn,40756.99996948242,Fri Apr 11 2025 10:25:47 GMT-0500 (Central Daylight Time),149648.6000000015,A,lak,O,k,246,1,2164.9000000059605,147483.69999999553,7123,WL,B,10.0
1,19.39400005340576,learn,40605.99994659424,Fri Apr 11 2025 10:25:47 GMT-0500 (Central Daylight Time),149799.69999999553,A,lake,O,e,144,1,2316.0,147483.69999999553,7123,WL,B,10.0
1,19.561000108718872,learn,40438.99989128113,Fri Apr 11 2025 10:25:47 GMT-0500 (Central Daylight Time),149966.5,A,lakeenter,O,enter,161,1,2482.8000000044703,147483.69999999553,7123,WL,B,10.0
1,22.892000198364258,learn,37107.99980163574,Fri Apr 11 2025 10:25:47 GMT-0500 (Central Daylight Time),153297.5,A,w,O,w,3323,1,3330.7000000029802,149966.79999999702,7123,WL,B,11.0
1,23.058000087738037,learn,36941.99991226196,Fri Apr 11 2025 10:25:47 GMT-0500 (Central Daylight Time),153463.8999999985,A,wi,O,i,149,1,3497.10000000149,149966.79999999702,7123,WL,B,11.0
1,23.210000038146973,learn,36789.99996185303,Fri Apr 11 2025 10:25:47 GMT-0500 (Central Daylight Time),153615.0,A,win,O,n,136,1,3648.2000000029802,149966.79999999702,7123,WL,B,11.0
1,23.359000205993652,learn,36640.99979400635,Fri Apr 11 2025 10:25:47 GMT-0500 (Central Daylight Time),153764.69999999553,A,wind,O,d,136,1,3797.89999999851,149966.79999999702,7123,WL,B,11.0
1,23.575000047683716,learn,36424.999952316284,Fri Apr 11 2025 10:25:47 GMT-0500 (Central Daylight Time),153980.8999999985,A,windo,O,o,203,1,4014.10000000149,149966.79999999702,7123,WL,B,11.0
1,23.843000173568726,learn,36156.999826431274,Fri Apr 11 2025 10:25:47 GMT-0500 (Central Daylight Time),154248.29999999702,A,window,O,w,249,1,4281.5,149966.79999999702,7123,WL,B,11.0
1,24.2260000705719,learn,35773.9999294281,Fri Apr 11 2025 10:25:47 GMT-0500 (Central Daylight Time),154631.29999999702,A,windowenter,O,enter,368,1,4664.5,149966.79999999702,7123,WL,B,11.0
1,34.206000089645386,learn,25793.999910354614,Fri Apr 11 2025 10:25:47 GMT-0500 (Central Daylight Time),164611.29999999702,A,d,O,d,9961,1,9979.60000000149,154631.69999999553,7123,WL,B,12.0
1,35.85600018501282,learn,24143.999814987183,Fri Apr 11 2025 10:25:47 GMT-0500 (Central Daylight Time),166261.0,A,,O,backspace,1636,1,11629.30000000447,154631.69999999553,7123,WL,B,12.0
1,37.521000146865845,learn,22478.999853134155,Fri Apr 11 2025 10:25:47 GMT-0500 (Central Daylight Time),167926.69999999553,A,d,O,d,1650,1,13295.0,154631.69999999553,7123,WL,B,12.0
1,39.97000002861023,learn,20029.99997138977,Fri Apr 11 2025 10:25:47 GMT-0500 (Central Daylight Time),170375.5,A,,O,backspace,2444,1,15743.80000000447,154631.69999999553,7123,WL,B,12.0
1,41.937000036239624,learn,18062.999963760376,Fri Apr 11 2025 10:25:47 GMT-0500 (Central Daylight Time),172342.69999999553,A,d,O,d,1946,1,17711.0,154631.69999999553,7123,WL,B,12.0
1,42.10300016403198,learn,17896.999835968018,Fri Apr 11 2025 10:25:47 GMT-0500 (Central Daylight Time),172508.8999999985,A,do,O,o,152,1,17877.20000000298,154631.69999999553,7123,WL,B,12.0
1,42.420000076293945,learn,17579.999923706055,Fri Apr 11 2025 10:25:47 GMT-0500 (Central Daylight Time),172825.5,A,doo,O,o,299,1,18193.80000000447,154631.69999999553,7123,WL,B,12.0
1,43.21900010108948,learn,16780.999898910522,Fri Apr 11 2025 10:25:47 GMT-0500 (Central Daylight Time),173624.79999999702,A,door,O,r,792,1,18993.10000000149,154631.69999999553,7123,WL,B,12.0
1,43.652000188827515,learn,16347.999811172485,Fri Apr 11 2025 10:25:47 GMT-0500 (Central Daylight Time),174057.19999999553,A,doorenter,O,enter,412,1,19425.5,154631.69999999553,7123,WL,B,12.0
1,44.003000020980835,learn,15996.999979019165,Fri Apr 11 2025 10:25:47 GMT-0500 (Central Daylight Time),174408.69999999553,A,a,O,a,346,1,351.19999999552965,174057.5,7123,WL,B,13.0
1,44.13600015640259,learn,15863.999843597412,Fri Apr 11 2025 10:25:47 GMT-0500 (Central Daylight Time),174541.79999999702,A,ar,O,r,119,1,484.29999999701977,174057.5,7123,WL,B,13.0
1,44.37100005149841,learn,15628.999948501587,Fri Apr 11 2025 10:25:47 GMT-0500 (Central Daylight Time),174776.6000000015,A,arm,O,m,228,1,719.1000000014901,174057.5,7123,WL,B,13.0
1,45.735000133514404,learn,14264.999866485596,Fri Apr 11 2025 10:25:47 GMT-0500 (Central Daylight Time),176139.8999999985,A,armenter,O,enter,1351,1,2082.39999999851,174057.5,7123,WL,B,13.0
1,60.015000104904175,learn,-15.000104904174805,Fri Apr 11 2025 10:25:47 GMT-0500 (Central Daylight Time),190420.6000000015,A,None,O,None,14275,1,14280.40000000596,176140.19999999553,7123,WL,B,14.0
2,0.684999942779541,learn,59315.00005722046,Fri Apr 11 2025 10:25:47 GMT-0500 (Central Daylight Time),277510.19999999553,A,c,O,c,681,1,684.7999999970198,276825.3999999985,7123,WL,B,1.0
2,1.1319999694824219,learn,58868.00003051758,Fri Apr 11 2025 10:25:47 GMT-0500 (Central Daylight Time),277957.6000000015,A,cl,O,l,434,1,1132.2000000029802,276825.3999999985,7123,WL,B,1.0
2,1.3510000705718994,learn,58648.9999294281,Fri Apr 11 2025 10:25:47 GMT-0500 (Central Daylight Time),278176.6000000015,A,clo,O,o,213,1,1351.2000000029802,276825.3999999985,7123,WL,B,1.0
2,1.5339999198913574,learn,58466.00008010864,Fri Apr 11 2025 10:25:47 GMT-0500 (Central Daylight Time),278359.0,A,cloc,O,c,161,1,1533.6000000014901,276825.3999999985,7123,WL,B,1.0
2,1.6489999294281006,learn,58351.0000705719,Fri Apr 11 2025 10:25:47 GMT-0500 (Central Daylight Time),278474.69999999553,A,clock,O,k,105,1,1649.2999999970198,276825.3999999985,7123,WL,B,1.0
2,1.9649999141693115,learn,58035.00008583069,Fri Apr 11 2025 10:25:47 GMT-0500 (Central Daylight Time),278790.8999999985,A,clockf,O,f,301,1,1965.5,276825.3999999985,7123,WL,B,1.0
2,2.865000009536743,learn,57134.99999046326,Fri Apr 11 2025 10:25:47 GMT-0500 (Central Daylight Time),279690.1000000015,A,clock,O,backspace,890,1,2864.7000000029802,276825.3999999985,7123,WL,B,1.0
2,3.2820000648498535,learn,56717.99993515015,Fri Apr 11 2025 10:25:47 GMT-0500 (Central Daylight Time),280107.6000000015,A,clockenter,O,enter,408,1,3282.2000000029802,276825.3999999985,7123,WL,B,1.0
2,3.6649999618530273,learn,56335.00003814697,Fri Apr 11 2025 10:25:47 GMT-0500 (Central Daylight Time),280490.5,A,f,O,f,375,1,382.6000000014901,280107.8999999985,7123,WL,B,2.0
2,3.7829999923706055,learn,56217.000007629395,Fri Apr 11 2025 10:25:47 GMT-0500 (Central Daylight Time),280608.299999997,A,fi,O,i,112,1,500.3999999985099,280107.8999999985,7123,WL,B,2.0
2,3.9659998416900635,learn,56034.00015830994,Fri Apr 11 2025 10:25:47 GMT-0500 (Central Daylight Time),280791.299999997,A,fir,O,r,176,1,683.3999999985099,280107.8999999985,7123,WL,B,2.0
2,4.115999937057495,learn,55884.000062942505,Fri Apr 11 2025 10:25:47 GMT-0500 (Central Daylight Time),280941.3999999985,A,fire,O,e,128,1,833.5,280107.8999999985,7123,WL,B,2.0
2,4.263999938964844,learn,55736.000061035156,Fri Apr 11 2025 10:25:47 GMT-0500 (Central Daylight Time),281089.19999999553,A,fireenter,O,enter,139,1,981.2999999970198,280107.8999999985,7123,WL,B,2.0
2,4.5329999923706055,learn,55467.000007629395,Fri Apr 11 2025 10:25:47 GMT-0500 (Central Daylight Time),281358.0,A,c,O,c,248,1,268.6000000014901,281089.3999999985,7123,WL,B,3.0
2,4.7179999351501465,learn,55282.00006484985,Fri Apr 11 2025 10:25:47 GMT-0500 (Central Daylight Time),281543.299999997,A,ca,O,a,180,1,453.8999999985099,281089.3999999985,7123,WL,B,3.0
2,4.983000040054321,learn,55016.99995994568,Fri Apr 11 2025 10:25:47 GMT-0500 (Central Daylight Time),281808.5,A,cab,O,b,259,1,719.1000000014901,281089.3999999985,7123,WL,B,3.0
2,5.148000001907349,learn,54851.99999809265,Fri Apr 11 2025 10:25:47 GMT-0500 (Central Daylight Time),281973.5,A,cabi,O,i,151,1,884.1000000014901,281089.3999999985,7123,WL,B,3.0
2,5.2820000648498535,learn,54717.99993515015,Fri Apr 11 2025 10:25:47 GMT-0500 (Central Daylight Time),282107.0,A,cabin,O,n,114,1,1017.6000000014901,281089.3999999985,7123,WL,B,3.0
2,5.648999929428101,learn,54351.0000705719,Fri Apr 11 2025 10:25:47 GMT-0500 (Central Daylight Time),282474.0,A,cabinenter,O,enter,344,1,1384.6000000014901,281089.3999999985,7123,WL,B,3.0
2,6.132999897003174,learn,53867.000102996826,Fri Apr 11 2025 10:25:47 GMT-0500 (Central Daylight Time),282957.799999997,A,p,O,p,462,1,483.3999999985099,282474.3999999985,7123,WL,B,4.0
2,6.398000001907349,learn,53601.99999809265,Fri Apr 11 2025 10:25:47 GMT-0500 (Central Daylight Time),283223.19999999553,A,pu,O,u,250,1,748.7999999970198,282474.3999999985,7123,WL,B,4.0
2,7.0309998989105225,learn,52969.00010108948,Fri Apr 11 2025 10:25:47 GMT-0500 (Central Daylight Time),283856.1000000015,A,pup,O,p,625,1,1381.7000000029802,282474.3999999985,7123,WL,B,4.0
2,7.664999961853027,learn,52335.00003814697,Fri Apr 11 2025 10:25:47 GMT-0500 (Central Daylight Time),284489.8999999985,A,pupi,O,i,609,1,2015.5,282474.3999999985,7123,WL,B,4.0
2,8.062999963760376,learn,51937.000036239624,Fri Apr 11 2025 10:25:47 GMT-0500 (Central Daylight Time),284888.69999999553,A,pupil,O,l,381,1,2414.2999999970198,282474.3999999985,7123,WL,B,4.0
2,8.38100004196167,learn,51618.99995803833,Fri Apr 11 2025 10:25:47 GMT-0500 (Central Daylight Time),285206.6000000015,A,pupilenter,O,enter,304,1,2732.2000000029802,282474.3999999985,7123,WL,B,4.0
2,8.69700002670288,learn,51302.99997329712,Fri Apr 11 2025 10:25:47 GMT-0500 (Central Daylight Time),285522.6000000015,A,s,O,s,308,1,315.80000000447035,285206.799999997,7123,WL,B,5.0
2,8.86299991607666,learn,51137.00008392334,Fri Apr 11 2025 10:25:47 GMT-0500 (Central Daylight Time),285688.0,A,st,O,t,150,1,481.20000000298023,285206.799999997,7123,WL,B,5.0
2,9.04699993133545,learn,50953.00006866455,Fri Apr 11 2025 10:25:47 GMT-0500 (Central Daylight Time),285872.5,A,sta,O,a,179,1,665.7000000029802,285206.799999997,7123,WL,B,5.0
2,9.647000074386597,learn,50352.9999256134,Fri Apr 11 2025 10:25:47 GMT-0500 (Central Daylight Time),286471.8999999985,A,star,O,r,583,1,1265.1000000014901,285206.799999997,7123,WL,B,5.0
2,9.846999883651733,learn,50153.00011634827,Fri Apr 11 2025 10:25:47 GMT-0500 (Central Daylight Time),286671.799999997,A,starenter,O,enter,194,1,1465.0,285206.799999997,7123,WL,B,5.0
2,10.144999980926514,learn,49855.000019073486,Fri Apr 11 2025 10:25:47 GMT-0500 (Central Daylight Time),286970.5,A,w,O,w,289,1,298.3999999985099,286672.1000000015,7123,WL,B,6.0
2,10.329999923706055,learn,49670.000076293945,Fri Apr 11 2025 10:25:47 GMT-0500 (Central Daylight Time),287155.299999997,A,wi,O,i,164,1,483.19999999552965,286672.1000000015,7123,WL,B,6.0
2,10.52999997138977,learn,49470.00002861023,Fri Apr 11 2025 10:25:47 GMT-0500 (Central Daylight Time),287354.8999999985,A,wif,O,f,179,1,682.7999999970198,286672.1000000015,7123,WL,B,6.0
2,10.69700002670288,learn,49302.99997329712,Fri Apr 11 2025 10:25:47 GMT-0500 (Central Daylight Time),287522.69999999553,A,wife,O,e,149,1,850.5999999940395,286672.1000000015,7123,WL,B,6.0
2,11.361999988555908,learn,48638.00001144409,Fri Apr 11 2025 10:25:47 GMT-0500 (Central Daylight Time),288187.1000000015,A,wifeenter,O,enter,645,1,1515.0,286672.1000000015,7123,WL,B,6.0
2,11.861999988555908,learn,48138.00001144409,Fri Apr 11 2025 10:25:47 GMT-0500 (Central Daylight Time),288687.799999997,A,s,O,s,485,1,500.3999999985099,288187.3999999985,7123,WL,B,7.0
2,11.980000019073486,learn,48019.999980926514,Fri Apr 11 2025 10:25:47 GMT-0500 (Central Daylight Time),288805.6000000015,A,sk,O,k,112,1,618.2000000029802,288187.3999999985,7123,WL,B,7.0
2,12.16700005531311,learn,47832.99994468689,Fri Apr 11 2025 10:25:47 GMT-0500 (Central Daylight Time),288991.799999997,A,ski,O,i,170,1,804.3999999985099,288187.3999999985,7123,WL,B,7.0
2,12.315000057220459,learn,47684.99994277954,Fri Apr 11 2025 10:25:47 GMT-0500 (Central Daylight Time),289139.799999997,A,skin,O,n,138,1,952.3999999985099,288187.3999999985,7123,WL,B,7.0
2,12.86299991607666,learn,47137.00008392334,Fri Apr 11 2025 10:25:47 GMT-0500 (Central Daylight Time),289688.299999997,A,skinenter,O,enter,534,1,1500.8999999985099,288187.3999999985,7123,WL,B,7.0
2,13.611999988555908,learn,46388.00001144409,Fri Apr 11 2025 10:25:47 GMT-0500 (Central Daylight Time),290437.299999997,A,s,O,s,737,1,748.6999999955297,289688.6000000015,7123,WL,B,8.0
2,13.779000043869019,learn,46220.99995613098,Fri Apr 11 2025 10:25:47 GMT-0500 (Central Daylight Time),290604.6000000015,A,st,O,t,155,1,916.0,289688.6000000015,7123,WL,B,8.0
2,14.062999963760376,learn,45937.000036239624,Fri Apr 11 2025 10:25:47 GMT-0500 (Central Daylight Time),290887.8999999985,A,str,O,r,277,1,1199.2999999970198,289688.6000000015,7123,WL,B,8.0
2,14.19599986076355,learn,45804.00013923645,Fri Apr 11 2025 10:25:47 GMT-0500 (Central Daylight Time),291021.5,A,stre,O,e,111,1,1332.8999999985099,289688.6000000015,7123,WL,B,8.0
2,14.846999883651733,learn,45153.00011634827,Fri Apr 11 2025 10:25:47 GMT-0500 (Central Daylight Time),291672.6000000015,A,stree,O,e,644,1,1984.0,289688.6000000015,7123,WL,B,8.0
2,14.961999893188477,learn,45038.00010681152,Fri Apr 11 2025 10:25:47 GMT-0500 (Central Daylight Time),291786.799999997,A,street,O,t,102,1,2098.1999999955297,289688.6000000015,7123,WL,B,8.0
2,15.128999948501587,learn,44871.00005149841,Fri Apr 11 2025 10:25:47 GMT-0500 (Central Daylight Time),291954.3999999985,A,streetenter,O,enter,158,1,2265.7999999970198,289688.6000000015,7123,WL,B,8.0
2,15.41100001335144,learn,44588.99998664856,Fri Apr 11 2025 10:25:47 GMT-0500 (Central Daylight Time),292236.6000000015,A,g,O,g,271,1,281.90000000596046,291954.69999999553,7123,WL,B,9.0
2,15.645999908447266,learn,44354.000091552734,Fri Apr 11 2025 10:25:47 GMT-0500 (Central Daylight Time),292471.6000000015,A,gr,O,r,230,1,516.9000000059605,291954.69999999553,7123,WL,B,9.0
2,15.777999877929688,learn,44222.00012207031,Fri Apr 11 2025 10:25:47 GMT-0500 (Central Daylight Time),292603.3999999985,A,gre,O,e,119,1,648.7000000029802,291954.69999999553,7123,WL,B,9.0
2,16.128000020980835,learn,43871.999979019165,Fri Apr 11 2025 10:25:47 GMT-0500 (Central Daylight Time),292953.6000000015,A,gr,O,backspace,344,1,998.9000000059605,291954.69999999553,7123,WL,B,9.0
2,16.277999877929688,learn,43722.00012207031,Fri Apr 11 2025 10:25:47 GMT-0500 (Central Daylight Time),293103.6000000015,A,gra,O,a,136,1,1148.9000000059605,291954.69999999553,7123,WL,B,9.0
2,16.861000061035156,learn,43138.999938964844,Fri Apr 11 2025 10:25:47 GMT-0500 (Central Daylight Time),293686.69999999553,A,gras,O,s,568,1,1732.0,291954.69999999553,7123,WL,B,9.0
2,16.994999885559082,learn,43005.00011444092,Fri Apr 11 2025 10:25:47 GMT-0500 (Central Daylight Time),293819.799999997,A,grass,O,s,122,1,1865.1000000014901,291954.69999999553,7123,WL,B,9.0
2,17.109999895095825,learn,42890.000104904175,Fri Apr 11 2025 10:25:47 GMT-0500 (Central Daylight Time),293935.69999999553,A,grassenter,O,enter,100,1,1981.0,291954.69999999553,7123,WL,B,9.0
2,17.41100001335144,learn,42588.99998664856,Fri Apr 11 2025 10:25:47 GMT-0500 (Central Daylight Time),294236.5,A,a,O,a,282,1,300.5,293936.0,7123,WL,B,10.0
2,17.57800006866455,learn,42421.99993133545,Fri Apr 11 2025 10:25:47 GMT-0500 (Central Daylight Time),294402.799999997,A,ar,O,r,147,1,466.79999999701977,293936.0,7123,WL,B,10.0
2,17.694000005722046,learn,42305.999994277954,Fri Apr 11 2025 10:25:47 GMT-0500 (Central Daylight Time),294519.69999999553,A,are,O,e,102,1,583.6999999955297,293936.0,7123,WL,B,10.0
2,18.16100001335144,learn,41838.99998664856,Fri Apr 11 2025 10:25:47 GMT-0500 (Central Daylight Time),294985.8999999985,A,ar,O,backspace,448,1,1049.8999999985099,293936.0,7123,WL,B,10.0
2,18.39299988746643,learn,41607.00011253357,Fri Apr 11 2025 10:25:47 GMT-0500 (Central Daylight Time),295218.19999999553,A,arm,O,m,222,1,1282.1999999955297,293936.0,7123,WL,B,10.0
2,18.67899990081787,learn,41321.00009918213,Fri Apr 11 2025 10:25:47 GMT-0500 (Central Daylight Time),295504.6000000015,A,armenter,O,enter,280,1,1568.6000000014901,293936.0,7123,WL,B,10.0
2,19.193000078201294,learn,40806.999921798706,Fri Apr 11 2025 10:25:47 GMT-0500 (Central Daylight Time),296018.3999999985,A,d,O,d,497,1,513.6000000014901,295504.799999997,7123,WL,B,11.0
2,19.3439998626709,learn,40656.0001373291,Fri Apr 11 2025 10:25:47 GMT-0500 (Central Daylight Time),296169.1000000015,A,do,O,o,133,1,664.3000000044703,295504.799999997,7123,WL,B,11.0
2,19.713000059127808,learn,40286.99994087219,Fri Apr 11 2025 10:25:47 GMT-0500 (Central Daylight Time),296538.0,A,doo,O,o,351,1,1033.2000000029802,295504.799999997,7123,WL,B,11.0
2,20.55999994277954,learn,39440.00005722046,Fri Apr 11 2025 10:25:47 GMT-0500 (Central Daylight Time),297385.299999997,A,door,O,r,843,1,1880.5,295504.799999997,7123,WL,B,11.0
2,22.425999879837036,learn,37574.000120162964,Fri Apr 11 2025 10:25:47 GMT-0500 (Central Daylight Time),299251.6000000015,A,doorenter,O,enter,1847,1,3746.8000000044703,295504.799999997,7123,WL,B,11.0
2,22.927000045776367,learn,37072.99995422363,Fri Apr 11 2025 10:25:47 GMT-0500 (Central Daylight Time),299752.0,A,l,O,l,486,1,500.0,299252.0,7123,WL,B,12.0
2,23.05900001525879,learn,36940.99998474121,Fri Apr 11 2025 10:25:47 GMT-0500 (Central Daylight Time),299884.1000000015,A,la,O,a,121,1,632.1000000014901,299252.0,7123,WL,B,12.0
2,23.174999952316284,learn,36825.000047683716,Fri Apr 11 2025 10:25:47 GMT-0500 (Central Daylight Time),300000.69999999553,A,lak,O,k,108,1,748.6999999955297,299252.0,7123,WL,B,12.0
2,23.325999975204468,learn,36674.00002479553,Fri Apr 11 2025 10:25:47 GMT-0500 (Central Daylight Time),300151.3999999985,A,lake,O,e,144,1,899.3999999985099,299252.0,7123,WL,B,12.0
2,25.741999864578247,learn,34258.00013542175,Fri Apr 11 2025 10:25:47 GMT-0500 (Central Daylight Time),302567.5,A,lakeenter,O,enter,2400,1,3315.5,299252.0,7123,WL,B,12.0
2,31.871999979019165,learn,28128.000020980835,Fri Apr 11 2025 10:25:47 GMT-0500 (Central Daylight Time),308697.8999999985,A,c,O,c,6122,1,6130.20000000298,302567.69999999553,7123,WL,B,13.0
2,31.990000009536743,learn,28009.999990463257,Fri Apr 11 2025 10:25:47 GMT-0500 (Central Daylight Time),308815.19999999553,A,ci,O,i,99,1,6247.5,302567.69999999553,7123,WL,B,13.0
2,32.35699987411499,learn,27643.00012588501,Fri Apr 11 2025 10:25:47 GMT-0500 (Central Daylight Time),309182.5,A,cit,O,t,353,1,6614.80000000447,302567.69999999553,7123,WL,B,13.0
2,32.48899984359741,learn,27511.000156402588,Fri Apr 11 2025 10:25:47 GMT-0500 (Central Daylight Time),309315.1000000015,A,city,O,y,118,1,6747.4000000059605,302567.69999999553,7123,WL,B,13.0
2,34.65499997138977,learn,25345.00002861023,Fri Apr 11 2025 10:25:47 GMT-0500 (Central Daylight Time),311480.1000000015,A,cityenter,O,enter,2148,1,8912.40000000596,302567.69999999553,7123,WL,B,13.0
2,34.9210000038147,learn,25078.999996185303,Fri Apr 11 2025 10:25:47 GMT-0500 (Central Daylight Time),311746.799999997,A,s,O,s,248,1,266.5,311480.299999997,7123,WL,B,14.0
2,35.0220000743866,learn,24977.999925613403,Fri Apr 11 2025 10:25:47 GMT-0500 (Central Daylight Time),311847.19999999553,A,st,O,t,92,1,366.8999999985099,311480.299999997,7123,WL,B,14.0
2,35.35599994659424,learn,24644.00005340576,Fri Apr 11 2025 10:25:47 GMT-0500 (Central Daylight Time),312181.5,A,str,O,r,318,1,701.2000000029802,311480.299999997,7123,WL,B,14.0
2,36.28699994087219,learn,23713.000059127808,Fri Apr 11 2025 10:25:47 GMT-0500 (Central Daylight Time),313112.6000000015,A,st,O,backspace,919,1,1632.3000000044703,311480.299999997,7123,WL,B,14.0
2,36.621999979019165,learn,23378.000020980835,Fri Apr 11 2025 10:25:47 GMT-0500 (Central Daylight Time),313447.69999999553,A,s,O,backspace,325,1,1967.3999999985099,311480.299999997,7123,WL,B,14.0
2,38.020999908447266,learn,21979.000091552734,Fri Apr 11 2025 10:25:47 GMT-0500 (Central Daylight Time),314846.299999997,A,,O,backspace,1393,1,3366.0,311480.299999997,7123,WL,B,14.0
2,39.67199993133545,learn,20328.00006866455,Fri Apr 11 2025 10:25:47 GMT-0500 (Central Daylight Time),316497.5,A,w,O,w,1643,1,5017.20000000298,311480.299999997,7123,WL,B,14.0
2,39.8050000667572,learn,20194.999933242798,Fri Apr 11 2025 10:25:47 GMT-0500 (Central Daylight Time),316630.299999997,A,wi,O,i,110,1,5150.0,311480.299999997,7123,WL,B,14.0
2,39.920000076293945,learn,20079.999923706055,Fri Apr 11 2025 10:25:47 GMT-0500 (Central Daylight Time),316745.19999999553,A,win,O,n,98,1,5264.89999999851,311480.299999997,7123,WL,B,14.0
2,40.1029999256134,learn,19897.000074386597,Fri Apr 11 2025 10:25:47 GMT-0500 (Central Daylight Time),316928.3999999985,A,wind,O,d,170,1,5448.10000000149,311480.299999997,7123,WL,B,14.0
2,40.28699994087219,learn,19713.000059127808,Fri Apr 11 2025 10:25:47 GMT-0500 (Central Daylight Time),317113.0,A,windo,O,o,174,1,5632.70000000298,311480.299999997,7123,WL,B,14.0
2,41.3199999332428,learn,18680.000066757202,Fri Apr 11 2025 10:25:47 GMT-0500 (Central Daylight Time),318145.6000000015,A,window,O,w,1007,1,6665.30000000447,311480.299999997,7123,WL,B,14.0
2,41.486000061035156,learn,18513.999938964844,Fri Apr 11 2025 10:25:47 GMT-0500 (Central Daylight Time),318312.0,A,windowenter,O,enter,150,1,6831.70000000298,311480.299999997,7123,WL,B,14.0
2,41.80299997329712,learn,18197.00002670288,Fri Apr 11 2025 10:25:47 GMT-0500 (Central Daylight Time),318629.0,A,p,O,p,305,1,316.80000000447035,318312.19999999553,7123,WL,B,15.0
2,42.01900005340576,learn,17980.99994659424,Fri Apr 11 2025 10:25:47 GMT-0500 (Central Daylight Time),318845.0,A,pi,O,i,203,1,532.8000000044703,318312.19999999553,7123,WL,B,15.0
2,42.187000036239624,learn,17812.999963760376,Fri Apr 11 2025 10:25:47 GMT-0500 (Central Daylight Time),319012.19999999553,A,pip,O,p,154,1,700.0,318312.19999999553,7123,WL,B,15.0
2,42.53499984741211,learn,17465.00015258789,Fri Apr 11 2025 10:25:47 GMT-0500 (Central Daylight Time),319360.8999999985,A,pipe,O,e,341,1,1048.7000000029802,318312.19999999553,7123,WL,B,15.0
2,42.70199990272522,learn,17298.00009727478,Fri Apr 11 2025 10:25:47 GMT-0500 (Central Daylight Time),319527.299999997,A,pipeenter,O,enter,159,1,1215.1000000014901,318312.19999999553,7123,WL,B,15.0
3,0.5,learn,59500.0,Fri Apr 11 2025 10:25:47 GMT-0500 (Central Daylight Time),390222.799999997,A,s,O,s,487,1,499.69999999552965,389723.1000000015,7123,WL,B,1.0
3,1.0829999446868896,learn,58917.00005531311,Fri Apr 11 2025 10:25:47 GMT-0500 (Central Daylight Time),390806.3999999985,A,st,O,t,577,1,1083.2999999970198,389723.1000000015,7123,WL,B,1.0
3,1.316999912261963,learn,58683.00008773804,Fri Apr 11 2025 10:25:47 GMT-0500 (Central Daylight Time),391039.8999999985,A,str,O,r,226,1,1316.7999999970198,389723.1000000015,7123,WL,B,1.0
3,1.5839998722076416,learn,58416.00012779236,Fri Apr 11 2025 10:25:47 GMT-0500 (Central Daylight Time),391306.6000000015,A,stre,O,e,246,1,1583.5,389723.1000000015,7123,WL,B,1.0
3,1.75,learn,58250.0,Fri Apr 11 2025 10:25:47 GMT-0500 (Central Daylight Time),391472.6000000015,A,stree,O,e,151,1,1749.5,389723.1000000015,7123,WL,B,1.0
3,1.997999906539917,learn,58002.00009346008,Fri Apr 11 2025 10:25:47 GMT-0500 (Central Daylight Time),391721.3999999985,A,streeenter,O,enter,231,1,1998.2999999970198,389723.1000000015,7123,WL,B,1.0
3,3.131999969482422,learn,56868.00003051758,Fri Apr 11 2025 10:25:47 GMT-0500 (Central Daylight Time),392855.299999997,A,g,O,g,1120,1,1133.6000000014901,391721.69999999553,7123,WL,B,2.0
3,3.447999954223633,learn,56552.00004577637,Fri Apr 11 2025 10:25:47 GMT-0500 (Central Daylight Time),393171.299999997,A,gr,O,r,298,1,1449.6000000014901,391721.69999999553,7123,WL,B,2.0
3,3.7659997940063477,learn,56234.00020599365,Fri Apr 11 2025 10:25:47 GMT-0500 (Central Daylight Time),393488.799999997,A,gra,O,a,310,1,1767.1000000014901,391721.69999999553,7123,WL,B,2.0
3,4.331999778747559,learn,55668.00022125244,Fri Apr 11 2025 10:25:47 GMT-0500 (Central Daylight Time),394054.6000000015,A,gras,O,s,558,1,2332.9000000059605,391721.69999999553,7123,WL,B,2.0
3,4.747999906539917,learn,55252.00009346008,Fri Apr 11 2025 10:25:47 GMT-0500 (Central Daylight Time),394470.799999997,A,grass,O,s,401,1,2749.10000000149,391721.69999999553,7123,WL,B,2.0
3,5.948999881744385,learn,54051.000118255615,Fri Apr 11 2025 10:25:47 GMT-0500 (Central Daylight Time),395671.5,A,grassenter,O,enter,1186,1,3949.8000000044703,391721.69999999553,7123,WL,B,2.0
3,6.98199987411499,learn,53018.00012588501,Fri Apr 11 2025 10:25:47 GMT-0500 (Central Daylight Time),396705.299999997,A,w,O,w,1018,1,1033.6000000014901,395671.69999999553,7123,WL,B,3.0
3,7.062999963760376,learn,52937.000036239624,Fri Apr 11 2025 10:25:47 GMT-0500 (Central Daylight Time),396785.8999999985,A,wi,O,i,70,1,1114.2000000029802,395671.69999999553,7123,WL,B,3.0
3,7.164999961853027,learn,52835.00003814697,Fri Apr 11 2025 10:25:47 GMT-0500 (Central Daylight Time),396888.299999997,A,win,O,n,96,1,1216.6000000014901,395671.69999999553,7123,WL,B,3.0
3,7.864999771118164,learn,52135.000228881836,Fri Apr 11 2025 10:25:47 GMT-0500 (Central Daylight Time),397587.5,A,wi,O,backspace,688,1,1915.8000000044703,395671.69999999553,7123,WL,B,3.0
3,8.080999851226807,learn,51919.00014877319,Fri Apr 11 2025 10:25:47 GMT-0500 (Central Daylight Time),397803.6000000015,A,w,O,backspace,205,1,2131.9000000059605,395671.69999999553,7123,WL,B,3.0
3,8.46399998664856,learn,51536.00001335144,Fri Apr 11 2025 10:25:47 GMT-0500 (Central Daylight Time),398186.799999997,A,,O,backspace,366,1,2515.10000000149,395671.69999999553,7123,WL,B,3.0
3,8.71399998664856,learn,51286.00001335144,Fri Apr 11 2025 10:25:47 GMT-0500 (Central Daylight Time),398436.799999997,A,d,O,d,236,1,2765.10000000149,395671.69999999553,7123,WL,B,3.0
3,8.845999956130981,learn,51154.00004386902,Fri Apr 11 2025 10:25:47 GMT-0500 (Central Daylight Time),398569.5,A,do,O,o,124,1,2897.8000000044703,395671.69999999553,7123,WL,B,3.0
3,9.145999908447266,learn,50854.000091552734,Fri Apr 11 2025 10:25:47 GMT-0500 (Central Daylight Time),398869.299999997,A,doo,O,o,279,1,3197.60000000149,395671.69999999553,7123,WL,B,3.0
3,9.346999883651733,learn,50653.00011634827,Fri Apr 11 2025 10:25:47 GMT-0500 (Central Daylight Time),399070.299999997,A,door,O,r,178,1,3398.60000000149,395671.69999999553,7123,WL,B,3.0
3,9.531999826431274,learn,50468.000173568726,Fri Apr 11 2025 10:25:47 GMT-0500 (Central Daylight Time),399254.5,A,doorenter,O,enter,162,1,3582.8000000044703,395671.69999999553,7123,WL,B,3.0
3,9.878999948501587,learn,50121.00005149841,Fri Apr 11 2025 10:25:47 GMT-0500 (Central Daylight Time),399601.8999999985,A,a,O,a,331,1,347.1000000014901,399254.799999997,7123,WL,B,4.0
3,9.995999813079834,learn,50004.000186920166,Fri Apr 11 2025 10:25:47 GMT-0500 (Central Daylight Time),399719.299999997,A,ar,O,r,102,1,464.5,399254.799999997,7123,WL,B,4.0
3,10.246999979019165,learn,49753.000020980835,Fri Apr 11 2025 10:25:47 GMT-0500 (Central Daylight Time),399969.799999997,A,arm,O,m,232,1,715.0,399254.799999997,7123,WL,B,4.0
3,10.71399998664856,learn,49286.00001335144,Fri Apr 11 2025 10:25:47 GMT-0500 (Central Daylight Time),400436.5,A,armenter,O,enter,454,1,1181.7000000029802,399254.799999997,7123,WL,B,4.0
3,11.095999956130981,learn,48904.00004386902,Fri Apr 11 2025 10:25:47 GMT-0500 (Central Daylight Time),400819.19999999553,A,w,O,w,372,1,382.5,400436.69999999553,7123,WL,B,5.0
3,11.228999853134155,learn,48771.000146865845,Fri Apr 11 2025 10:25:47 GMT-0500 (Central Daylight Time),400952.19999999553,A,wi,O,i,125,1,515.5,400436.69999999553,7123,WL,B,5.0
3,11.379999876022339,learn,48620.00012397766,Fri Apr 11 2025 10:25:47 GMT-0500 (Central Daylight Time),401103.1000000015,A,wif,O,f,127,1,666.4000000059605,400436.69999999553,7123,WL,B,5.0
3,11.52899980545044,learn,48471.00019454956,Fri Apr 11 2025 10:25:47 GMT-0500 (Central Daylight Time),401252.0,A,wife,O,e,138,1,815.3000000044703,400436.69999999553,7123,WL,B,5.0
3,11.811999797821045,learn,48188.000202178955,Fri Apr 11 2025 10:25:47 GMT-0500 (Central Daylight Time),401535.1000000015,A,wifeenter,O,enter,269,1,1098.4000000059605,400436.69999999553,7123,WL,B,5.0
3,12.046000003814697,learn,47953.9999961853,Fri Apr 11 2025 10:25:47 GMT-0500 (Central Daylight Time),401768.6000000015,A,w,O,w,218,1,233.20000000298023,401535.3999999985,7123,WL,B,6.0
3,12.228999853134155,learn,47771.000146865845,Fri Apr 11 2025 10:25:47 GMT-0500 (Central Daylight Time),401951.8999999985,A,wi,O,i,177,1,416.5,401535.3999999985,7123,WL,B,6.0
3,12.345999956130981,learn,47654.00004386902,Fri Apr 11 2025 10:25:47 GMT-0500 (Central Daylight Time),402069.1000000015,A,win,O,n,96,1,533.7000000029802,401535.3999999985,7123,WL,B,6.0
3,13.611999988555908,learn,46388.00001144409,Fri Apr 11 2025 10:25:47 GMT-0500 (Central Daylight Time),403335.1000000015,A,wind,O,d,1250,1,1799.7000000029802,401535.3999999985,7123,WL,B,6.0
3,13.978999853134155,learn,46021.000146865845,Fri Apr 11 2025 10:25:47 GMT-0500 (Central Daylight Time),403702.299999997,A,windo,O,o,362,1,2166.89999999851,401535.3999999985,7123,WL,B,6.0
3,14.395999908447266,learn,45604.000091552734,Fri Apr 11 2025 10:25:47 GMT-0500 (Central Daylight Time),404119.19999999553,A,window,O,w,411,1,2583.7999999970198,401535.3999999985,7123,WL,B,6.0
3,14.59499979019165,learn,45405.00020980835,Fri Apr 11 2025 10:25:47 GMT-0500 (Central Daylight Time),404317.799999997,A,windowenter,O,enter,185,1,2782.39999999851,401535.3999999985,7123,WL,B,6.0
3,14.828999996185303,learn,45171.0000038147,Fri Apr 11 2025 10:25:47 GMT-0500 (Central Daylight Time),404551.6000000015,A,s,O,s,228,1,233.60000000149012,404318.0,7123,WL,B,7.0
3,15.360999822616577,learn,44639.00017738342,Fri Apr 11 2025 10:25:47 GMT-0500 (Central Daylight Time),405084.19999999553,A,st,O,t,518,1,766.1999999955297,404318.0,7123,WL,B,7.0
3,15.727999925613403,learn,44272.0000743866,Fri Apr 11 2025 10:25:47 GMT-0500 (Central Daylight Time),405450.799999997,A,sta,O,a,357,1,1132.7999999970198,404318.0,7123,WL,B,7.0
3,15.860999822616577,learn,44139.00017738342,Fri Apr 11 2025 10:25:47 GMT-0500 (Central Daylight Time),405584.19999999553,A,star,O,r,118,1,1266.1999999955297,404318.0,7123,WL,B,7.0
3,16.777999877929688,learn,43222.00012207031,Fri Apr 11 2025 10:25:47 GMT-0500 (Central Daylight Time),406501.1000000015,A,starenter,O,enter,897,1,2183.10000000149,404318.0,7123,WL,B,7.0
3,18.24399995803833,learn,41756.00004196167,Fri Apr 11 2025 10:25:47 GMT-0500 (Central Daylight Time),407967.1000000015,A,p,O,p,1461,1,1465.8000000044703,406501.299999997,7123,WL,B,8.0
3,18.5939998626709,learn,41406.0001373291,Fri Apr 11 2025 10:25:47 GMT-0500 (Central Daylight Time),408316.69999999553,A,pi,O,i,338,1,1815.3999999985099,406501.299999997,7123,WL,B,8.0
3,18.894999980926514,learn,41105.000019073486,Fri Apr 11 2025 10:25:47 GMT-0500 (Central Daylight Time),408617.6000000015,A,pip,O,p,294,1,2116.3000000044703,406501.299999997,7123,WL,B,8.0
3,19.126999855041504,learn,40873.000144958496,Fri Apr 11 2025 10:25:47 GMT-0500 (Central Daylight Time),408850.19999999553,A,pipe,O,e,213,1,2348.89999999851,406501.299999997,7123,WL,B,8.0
3,19.30899977684021,learn,40691.00022315979,Fri Apr 11 2025 10:25:47 GMT-0500 (Central Daylight Time),409032.0,A,pipeenter,O,enter,173,1,2530.7000000029802,406501.299999997,7123,WL,B,8.0
3,20.508999824523926,learn,39491.000175476074,Fri Apr 11 2025 10:25:47 GMT-0500 (Central Daylight Time),410232.0,A,p,O,p,1185,1,1199.7000000029802,409032.299999997,7123,WL,B,9.0
3,20.79199981689453,learn,39208.00018310547,Fri Apr 11 2025 10:25:47 GMT-0500 (Central Daylight Time),410514.6000000015,A,pu,O,u,263,1,1482.3000000044703,409032.299999997,7123,WL,B,9.0
3,21.30999994277954,learn,38690.00005722046,Fri Apr 11 2025 10:25:47 GMT-0500 (Central Daylight Time),411032.69999999553,A,pup,O,p,500,1,2000.3999999985099,409032.299999997,7123,WL,B,9.0
3,21.775999784469604,learn,38224.000215530396,Fri Apr 11 2025 10:25:47 GMT-0500 (Central Daylight Time),411499.299999997,A,pupi,O,i,456,1,2467.0,409032.299999997,7123,WL,B,9.0
3,22.592999935150146,learn,37407.00006484985,Fri Apr 11 2025 10:25:47 GMT-0500 (Central Daylight Time),412315.69999999553,A,pupil,O,l,797,1,3283.39999999851,409032.299999997,7123,WL,B,9.0
3,23.774999856948853,learn,36225.00014305115,Fri Apr 11 2025 10:25:47 GMT-0500 (Central Daylight Time),413497.8999999985,A,pupilenter,O,enter,1172,1,4465.60000000149,409032.299999997,7123,WL,B,9.0
3,24.442999839782715,learn,35557.000160217285,Fri Apr 11 2025 10:25:47 GMT-0500 (Central Daylight Time),414165.5,A,f,O,f,648,1,667.3999999985099,413498.1000000015,7123,WL,B,10.0
3,24.575999975204468,learn,35424.00002479553,Fri Apr 11 2025 10:25:47 GMT-0500 (Central Daylight Time),414298.8999999985,A,fi,O,i,115,1,800.7999999970198,413498.1000000015,7123,WL,B,10.0
3,24.70899987220764,learn,35291.00012779236,Fri Apr 11 2025 10:25:47 GMT-0500 (Central Daylight Time),414432.0,A,fir,O,r,128,1,933.8999999985099,413498.1000000015,7123,WL,B,10.0
3,24.806999921798706,learn,35193.000078201294,Fri Apr 11 2025 10:25:47 GMT-0500 (Central Daylight Time),414530.3999999985,A,fire,O,e,79,1,1032.2999999970198,413498.1000000015,7123,WL,B,10.0
3,25.08999991416931,learn,34910.00008583069,Fri Apr 11 2025 10:25:47 GMT-0500 (Central Daylight Time),414813.3999999985,A,fireenter,O,enter,268,1,1315.2999999970198,413498.1000000015,7123,WL,B,10.0
3,25.375,learn,34625.0,Fri Apr 11 2025 10:25:47 GMT-0500 (Central Daylight Time),415097.799999997,A,c,O,c,267,1,284.19999999552965,414813.6000000015,7123,WL,B,11.0
3,25.556999921798706,learn,34443.000078201294,Fri Apr 11 2025 10:25:47 GMT-0500 (Central Daylight Time),415280.0,A,cl,O,l,160,1,466.3999999985099,414813.6000000015,7123,WL,B,11.0
3,25.774999856948853,learn,34225.00014305115,Fri Apr 11 2025 10:25:47 GMT-0500 (Central Daylight Time),415497.799999997,A,clo,O,o,199,1,684.1999999955297,414813.6000000015,7123,WL,B,11.0
3,26.20799994468689,learn,33792.00005531311,Fri Apr 11 2025 10:25:47 GMT-0500 (Central Daylight Time),415930.69999999553,A,cloc,O,c,423,1,1117.0999999940395,414813.6000000015,7123,WL,B,11.0
3,26.357999801635742,learn,33642.00019836426,Fri Apr 11 2025 10:25:47 GMT-0500 (Central Daylight Time),416080.6000000015,A,clock,O,k,135,1,1267.0,414813.6000000015,7123,WL,B,11.0
3,26.58999991416931,learn,33410.00008583069,Fri Apr 11 2025 10:25:47 GMT-0500 (Central Daylight Time),416313.1000000015,A,clockenter,O,enter,224,1,1499.5,414813.6000000015,7123,WL,B,11.0
3,26.840999841690063,learn,33159.00015830994,Fri Apr 11 2025 10:25:47 GMT-0500 (Central Daylight Time),416564.3999999985,A,c,O,c,240,1,251.10000000149012,416313.299999997,7123,WL,B,12.0
3,27.072999954223633,learn,32927.00004577637,Fri Apr 11 2025 10:25:47 GMT-0500 (Central Daylight Time),416796.1000000015,A,ca,O,a,211,1,482.80000000447035,416313.299999997,7123,WL,B,12.0
3,27.307999849319458,learn,32692.000150680542,Fri Apr 11 2025 10:25:47 GMT-0500 (Central Daylight Time),417031.0,A,cab,O,b,220,1,717.7000000029802,416313.299999997,7123,WL,B,12.0
3,27.473999977111816,learn,32526.000022888184,Fri Apr 11 2025 10:25:47 GMT-0500 (Central Daylight Time),417197.3999999985,A,cabi,O,i,152,1,884.1000000014901,416313.299999997,7123,WL,B,12.0
3,27.607999801635742,learn,32392.000198364258,Fri Apr 11 2025 10:25:47 GMT-0500 (Central Daylight Time),417330.5,A,cabin,O,n,113,1,1017.2000000029802,416313.299999997,7123,WL,B,12.0
3,28.072999954223633,learn,31927.000045776367,Fri Apr 11 2025 10:25:47 GMT-0500 (Central Daylight Time),417796.299999997,A,cabinl,O,l,454,1,1483.0,416313.299999997,7123,WL,B,12.0
3,28.2739999294281,learn,31726.0000705719,Fri Apr 11 2025 10:25:47 GMT-0500 (Central Daylight Time),417997.1000000015,A,cabinla,O,a,190,1,1683.8000000044703,416313.299999997,7123,WL,B,12.0
3,28.44099998474121,learn,31559.00001525879,Fri Apr 11 2025 10:25:47 GMT-0500 (Central Daylight Time),418163.8999999985,A,cabinlak,O,k,156,1,1850.6000000014901,416313.299999997,7123,WL,B,12.0
3,28.923999786376953,learn,31076.000213623047,Fri Apr 11 2025 10:25:47 GMT-0500 (Central Daylight Time),418647.19999999553,A,cabinla,O,backspace,467,1,2333.89999999851,416313.299999997,7123,WL,B,12.0
3,29.139999866485596,learn,30860.000133514404,Fri Apr 11 2025 10:25:47 GMT-0500 (Central Daylight Time),418863.5,A,cabinl,O,backspace,201,1,2550.2000000029802,416313.299999997,7123,WL,B,12.0
3,29.342999935150146,learn,30657.000064849854,Fri Apr 11 2025 10:25:47 GMT-0500 (Central Daylight Time),419066.1000000015,A,cabin,O,backspace,197,1,2752.8000000044703,416313.299999997,7123,WL,B,12.0
3,29.83799982070923,learn,30162.00017929077,Fri Apr 11 2025 10:25:47 GMT-0500 (Central Daylight Time),419560.8999999985,A,cabinenter,O,enter,477,1,3247.60000000149,416313.299999997,7123,WL,B,12.0
3,31.072999954223633,learn,28927.000045776367,Fri Apr 11 2025 10:25:47 GMT-0500 (Central Daylight Time),420795.799999997,A,l,O,l,1224,1,1234.5,419561.299999997,7123,WL,B,13.0
3,31.33999991416931,learn,28660.00008583069,Fri Apr 11 2025 10:25:47 GMT-0500 (Central Daylight Time),421063.5,A,la,O,a,262,1,1502.2000000029802,419561.299999997,7123,WL,B,13.0
3,31.539999961853027,learn,28460.000038146973,Fri Apr 11 2025 10:25:47 GMT-0500 (Central Daylight Time),421263.299999997,A,lak,O,k,184,1,1702.0,419561.299999997,7123,WL,B,13.0
3,31.73799991607666,learn,28262.00008392334,Fri Apr 11 2025 10:25:47 GMT-0500 (Central Daylight Time),421461.69999999553,A,lake,O,e,186,1,1900.3999999985099,419561.299999997,7123,WL,B,13.0
3,34.30499982833862,learn,25695.000171661377,Fri Apr 11 2025 10:25:47 GMT-0500 (Central Daylight Time),424028.69999999553,A,lakes,O,s,2553,1,4467.39999999851,419561.299999997,7123,WL,B,13.0
3,34.954999923706055,learn,25045.000076293945,Fri Apr 11 2025 10:25:47 GMT-0500 (Central Daylight Time),424677.8999999985,A,lake,O,backspace,636,1,5116.60000000149,419561.299999997,7123,WL,B,13.0
3,35.58699989318848,learn,24413.000106811523,Fri Apr 11 2025 10:25:47 GMT-0500 (Central Daylight Time),425310.6000000015,A,lakeenter,O,enter,625,1,5749.30000000447,419561.299999997,7123,WL,B,13.0
3,36.287999868392944,learn,23712.000131607056,Fri Apr 11 2025 10:25:47 GMT-0500 (Central Daylight Time),426011.1000000015,A,s,O,s,683,1,700.2000000029802,425310.8999999985,7123,WL,B,14.0
3,36.47099995613098,learn,23529.00004386902,Fri Apr 11 2025 10:25:47 GMT-0500 (Central Daylight Time),426194.5,A,sk,O,k,163,1,883.6000000014901,425310.8999999985,7123,WL,B,14.0
3,36.853999853134155,learn,23146.000146865845,Fri Apr 11 2025 10:25:47 GMT-0500 (Central Daylight Time),426577.299999997,A,ski,O,i,365,1,1266.3999999985099,425310.8999999985,7123,WL,B,14.0
3,37.436999797821045,learn,22563.000202178955,Fri Apr 11 2025 10:25:47 GMT-0500 (Central Daylight Time),427160.0,A,skin,O,n,568,1,1849.1000000014901,425310.8999999985,7123,WL,B,14.0
3,40.11899995803833,learn,19881.00004196167,Fri Apr 11 2025 10:25:47 GMT-0500 (Central Daylight Time),429842.799999997,A,skinenter,O,enter,2662,1,4531.89999999851,425310.8999999985,7123,WL,B,14.0
3,48.867999792099,learn,11132.000207901001,Fri Apr 11 2025 10:25:47 GMT-0500 (Central Daylight Time),438591.6000000015,A,c,O,c,8729,1,8748.70000000298,429842.8999999985,7123,WL,B,15.0
3,49.050999879837036,learn,10949.000120162964,Fri Apr 11 2025 10:25:47 GMT-0500 (Central Daylight Time),438774.5,A,ca,O,a,166,1,8931.60000000149,429842.8999999985,7123,WL,B,15.0
3,49.28499984741211,learn,10715.00015258789,Fri Apr 11 2025 10:25:47 GMT-0500 (Central Daylight Time),439008.1000000015,A,cab,O,b,227,1,9165.20000000298,429842.8999999985,7123,WL,B,15.0
3,49.39999985694885,learn,10600.000143051147,Fri Apr 11 2025 10:25:47 GMT-0500 (Central Daylight Time),439123.299999997,A,cabi,O,i,95,1,9280.39999999851,429842.8999999985,7123,WL,B,15.0
3,49.50099992752075,learn,10499.000072479248,Fri Apr 11 2025 10:25:47 GMT-0500 (Central Daylight Time),439223.799999997,A,cabin,O,n,85,1,9380.89999999851,429842.8999999985,7123,WL,B,15.0
3,49.782999992370605,learn,10217.000007629395,Fri Apr 11 2025 10:25:47 GMT-0500 (Central Daylight Time),439506.5,A,cabinenter,O,enter,273,1,9663.60000000149,429842.8999999985,7123,WL,B,15.0
4,0.817000150680542,learn,59182.99984931946,Fri Apr 11 2025 10:25:47 GMT-0500 (Central Daylight Time),512450.3999999985,A,s,O,s,800,1,816.6000000014901,511633.799999997,7123,WL,B,1.0
4,1.2330000400543213,learn,58766.99995994568,Fri Apr 11 2025 10:25:47 GMT-0500 (Central Daylight Time),512866.6000000015,A,st,O,t,405,1,1232.8000000044703,511633.799999997,7123,WL,B,1.0
4,1.565999984741211,learn,58434.00001525879,Fri Apr 11 2025 10:25:47 GMT-0500 (Central Daylight Time),513199.299999997,A,str,O,r,318,1,1565.5,511633.799999997,7123,WL,B,1.0
4,1.8989999294281006,learn,58101.0000705719,Fri Apr 11 2025 10:25:47 GMT-0500 (Central Daylight Time),513532.799999997,A,stre,O,e,313,1,1899.0,511633.799999997,7123,WL,B,1.0
4,2.0829999446868896,learn,57917.00005531311,Fri Apr 11 2025 10:25:47 GMT-0500 (Central Daylight Time),513716.299999997,A,stree,O,e,169,1,2082.5,511633.799999997,7123,WL,B,1.0
4,2.249000072479248,learn,57750.99992752075,Fri Apr 11 2025 10:25:47 GMT-0500 (Central Daylight Time),513883.0,A,street,O,t,146,1,2249.2000000029802,511633.799999997,7123,WL,B,1.0
4,2.933000087738037,learn,57066.99991226196,Fri Apr 11 2025 10:25:47 GMT-0500 (Central Daylight Time),514566.799999997,A,streetenter,O,enter,677,1,2933.0,511633.799999997,7123,WL,B,1.0
4,3.447999954223633,learn,56552.00004577637,Fri Apr 11 2025 10:25:47 GMT-0500 (Central Daylight Time),515082.19999999553,A,g,O,g,498,1,515.0,514567.19999999553,7123,WL,B,2.0
4,3.7179999351501465,learn,56282.00006484985,Fri Apr 11 2025 10:25:47 GMT-0500 (Central Daylight Time),515351.19999999553,A,gr,O,r,262,1,784.0,514567.19999999553,7123,WL,B,2.0
4,3.9160001277923584,learn,56083.99987220764,Fri Apr 11 2025 10:25:47 GMT-0500 (Central Daylight Time),515549.6000000015,A,gra,O,a,175,1,982.4000000059605,514567.19999999553,7123,WL,B,2.0
4,4.183000087738037,learn,55816.99991226196,Fri Apr 11 2025 10:25:47 GMT-0500 (Central Daylight Time),515816.6000000015,A,gras,O,s,243,1,1249.4000000059605,514567.19999999553,7123,WL,B,2.0
4,4.348999977111816,learn,55651.00002288818,Fri Apr 11 2025 10:25:47 GMT-0500 (Central Daylight Time),515982.69999999553,A,grass,O,s,153,1,1415.5,514567.19999999553,7123,WL,B,2.0
4,4.733000040054321,learn,55266.99995994568,Fri Apr 11 2025 10:25:47 GMT-0500 (Central Daylight Time),516366.8999999985,A,grassenter,O,enter,369,1,1799.7000000029802,514567.19999999553,7123,WL,B,2.0
4,5.815000057220459,learn,54184.99994277954,Fri Apr 11 2025 10:25:47 GMT-0500 (Central Daylight Time),517448.8999999985,A,d,O,d,1066,1,1081.7000000029802,516367.19999999553,7123,WL,B,3.0
4,5.965000152587891,learn,54034.99984741211,Fri Apr 11 2025 10:25:47 GMT-0500 (Central Daylight Time),517598.6000000015,A,do,O,o,127,1,1231.4000000059605,516367.19999999553,7123,WL,B,3.0
4,6.197999954223633,learn,53802.00004577637,Fri Apr 11 2025 10:25:47 GMT-0500 (Central Daylight Time),517831.69999999553,A,doo,O,o,216,1,1464.5,516367.19999999553,7123,WL,B,3.0
4,6.465000152587891,learn,53534.99984741211,Fri Apr 11 2025 10:25:47 GMT-0500 (Central Daylight Time),518098.299999997,A,door,O,r,261,1,1731.1000000014901,516367.19999999553,7123,WL,B,3.0
4,6.647000074386597,learn,53352.9999256134,Fri Apr 11 2025 10:25:47 GMT-0500 (Central Daylight Time),518280.799999997,A,doorenter,O,enter,165,1,1913.6000000014901,516367.19999999553,7123,WL,B,3.0
4,6.998000144958496,learn,53001.999855041504,Fri Apr 11 2025 10:25:47 GMT-0500 (Central Daylight Time),518632.0,A,a,O,a,336,1,350.8999999985099,518281.1000000015,7123,WL,B,4.0
4,7.148999929428101,learn,52851.0000705719,Fri Apr 11 2025 10:25:47 GMT-0500 (Central Daylight Time),518782.69999999553,A,ar,O,r,127,1,501.59999999403954,518281.1000000015,7123,WL,B,4.0
4,7.381999969482422,learn,52618.00003051758,Fri Apr 11 2025 10:25:47 GMT-0500 (Central Daylight Time),519015.799999997,A,arm,O,m,226,1,734.6999999955297,518281.1000000015,7123,WL,B,4.0
4,7.946000099182129,learn,52053.99990081787,Fri Apr 11 2025 10:25:47 GMT-0500 (Central Daylight Time),519580.1000000015,A,armenter,O,enter,542,1,1299.0,518281.1000000015,7123,WL,B,4.0
4,8.880000114440918,learn,51119.99988555908,Fri Apr 11 2025 10:25:47 GMT-0500 (Central Daylight Time),520513.299999997,A,w,O,w,926,1,933.0,519580.299999997,7123,WL,B,5.0
4,9.164999961853027,learn,50835.00003814697,Fri Apr 11 2025 10:25:47 GMT-0500 (Central Daylight Time),520798.69999999553,A,wi,O,i,262,1,1218.3999999985099,519580.299999997,7123,WL,B,5.0
4,9.314000129699707,learn,50685.99987030029,Fri Apr 11 2025 10:25:47 GMT-0500 (Central Daylight Time),520947.69999999553,A,wif,O,f,129,1,1367.3999999985099,519580.299999997,7123,WL,B,5.0
4,9.46399998664856,learn,50536.00001335144,Fri Apr 11 2025 10:25:47 GMT-0500 (Central Daylight Time),521097.6000000015,A,wife,O,e,127,1,1517.3000000044703,519580.299999997,7123,WL,B,5.0
4,9.92900013923645,learn,50070.99986076355,Fri Apr 11 2025 10:25:47 GMT-0500 (Central Daylight Time),521563.0,A,wifeenter,O,enter,445,1,1982.7000000029802,519580.299999997,7123,WL,B,5.0
4,10.416000127792358,learn,49583.99987220764,Fri Apr 11 2025 10:25:47 GMT-0500 (Central Daylight Time),522049.5,A,w,O,w,481,1,486.30000000447035,521563.19999999553,7123,WL,B,6.0
4,10.546000003814697,learn,49453.9999961853,Fri Apr 11 2025 10:25:47 GMT-0500 (Central Daylight Time),522180.1000000015,A,wi,O,i,120,1,616.9000000059605,521563.19999999553,7123,WL,B,6.0
4,10.729000091552734,learn,49270.999908447266,Fri Apr 11 2025 10:25:47 GMT-0500 (Central Daylight Time),522362.69999999553,A,win,O,n,163,1,799.5,521563.19999999553,7123,WL,B,6.0
4,11.430000066757202,learn,48569.9999332428,Fri Apr 11 2025 10:25:47 GMT-0500 (Central Daylight Time),523063.799999997,A,wind,O,d,693,1,1500.6000000014901,521563.19999999553,7123,WL,B,6.0
4,11.562999963760376,learn,48437.000036239624,Fri Apr 11 2025 10:25:47 GMT-0500 (Central Daylight Time),523197.0,A,windo,O,o,121,1,1633.8000000044703,521563.19999999553,7123,WL,B,6.0
4,11.914000034332275,learn,48085.999965667725,Fri Apr 11 2025 10:25:47 GMT-0500 (Central Daylight Time),523548.0,A,window,O,w,340,1,1984.8000000044703,521563.19999999553,7123,WL,B,6.0
4,12.299000024795532,learn,47700.99997520447,Fri Apr 11 2025 10:25:47 GMT-0500 (Central Daylight Time),523932.8999999985,A,windowenter,O,enter,370,1,2369.7000000029802,521563.19999999553,7123,WL,B,6.0
4,12.630000114440918,learn,47369.99988555908,Fri Apr 11 2025 10:25:47 GMT-0500 (Central Daylight Time),524263.799999997,A,c,O,c,326,1,330.1000000014901,523933.69999999553,7123,WL,B,7.0
4,12.829999923706055,learn,47170.000076293945,Fri Apr 11 2025 10:25:47 GMT-0500 (Central Daylight Time),524463.1999999955,A,ci,O,i,185,1,529.5,523933.69999999553,7123,WL,B,7.0
4,13.128999948501587,learn,46871.00005149841,Fri Apr 11 2025 10:25:47 GMT-0500 (Central Daylight Time),524762.8999999985,A,cit,O,t,289,1,829.2000000029802,523933.69999999553,7123,WL,B,7.0
4,13.911999940872192,learn,46088.00005912781,Fri Apr 11 2025 10:25:47 GMT-0500 (Central Daylight Time),525545.3999999985,A,city,O,y,761,1,1611.7000000029802,523933.69999999553,7123,WL,B,7.0
4,14.311000108718872,learn,45688.99989128113,Fri Apr 11 2025 10:25:47 GMT-0500 (Central Daylight Time),525945.1999999955,A,cityenter,O,enter,391,1,2011.5,523933.69999999553,7123,WL,B,7.0
4,14.628000020980835,learn,45371.999979019165,Fri Apr 11 2025 10:25:47 GMT-0500 (Central Daylight Time),526261.5,A,s,O,s,304,1,316.20000000298023,525945.299999997,7123,WL,B,8.0
4,14.845999956130981,learn,45154.00004386902,Fri Apr 11 2025 10:25:47 GMT-0500 (Central Daylight Time),526479.5,A,st,O,t,203,1,534.2000000029802,525945.299999997,7123,WL,B,8.0
4,15.311000108718872,learn,44688.99989128113,Fri Apr 11 2025 10:25:47 GMT-0500 (Central Daylight Time),526945.0,A,sta,O,a,457,1,999.7000000029802,525945.299999997,7123,WL,B,8.0
4,15.661999940872192,learn,44338.00005912781,Fri Apr 11 2025 10:25:47 GMT-0500 (Central Daylight Time),527295.799999997,A,star,O,r,333,1,1350.5,525945.299999997,7123,WL,B,8.0
4,17.026999950408936,learn,42973.000049591064,Fri Apr 11 2025 10:25:47 GMT-0500 (Central Daylight Time),528660.3999999985,A,starenter,O,enter,1343,1,2715.10000000149,525945.299999997,7123,WL,B,8.0
4,19.74399995803833,learn,40256.00004196167,Fri Apr 11 2025 10:25:47 GMT-0500 (Central Daylight Time),531377.3999999985,A,p,O,p,2701,1,2716.7000000029802,528660.6999999955,7123,WL,B,9.0
4,20.026999950408936,learn,39973.000049591064,Fri Apr 11 2025 10:25:47 GMT-0500 (Central Daylight Time),531660.6000000015,A,pu,O,u,270,1,2999.9000000059605,528660.6999999955,7123,WL,B,9.0
4,21.176000118255615,learn,38823.999881744385,Fri Apr 11 2025 10:25:47 GMT-0500 (Central Daylight Time),532810.1000000015,A,pup,O,p,1131,1,4149.4000000059605,528660.6999999955,7123,WL,B,9.0
4,21.960000038146973,learn,38039.99996185303,Fri Apr 11 2025 10:25:47 GMT-0500 (Central Daylight Time),533593.6000000015,A,pupi,O,i,776,1,4932.9000000059605,528660.6999999955,7123,WL,B,9.0
4,22.294000148773193,learn,37705.99985122681,Fri Apr 11 2025 10:25:47 GMT-0500 (Central Daylight Time),533927.6000000015,A,pupil,O,l,329,1,5266.9000000059605,528660.6999999955,7123,WL,B,9.0
4,23.993000030517578,learn,36006.99996948242,Fri Apr 11 2025 10:25:47 GMT-0500 (Central Daylight Time),535626.1999999955,A,pupilenter,O,enter,1677,1,6965.5,528660.6999999955,7123,WL,B,9.0
4,27.10700011253357,learn,32892.99988746643,Fri Apr 11 2025 10:25:47 GMT-0500 (Central Daylight Time),538741.1000000015,A,c,O,c,3094,1,3114.60000000149,535626.5,7123,WL,B,10.0
4,27.358999967575073,learn,32641.000032424927,Fri Apr 11 2025 10:25:47 GMT-0500 (Central Daylight Time),538993.1000000015,A,ca,O,a,243,1,3366.60000000149,535626.5,7123,WL,B,10.0
4,27.60800004005432,learn,32391.99995994568,Fri Apr 11 2025 10:25:47 GMT-0500 (Central Daylight Time),539241.5,A,cab,O,b,238,1,3615.0,535626.5,7123,WL,B,10.0
4,27.808000087738037,learn,32191.999912261963,Fri Apr 11 2025 10:25:47 GMT-0500 (Central Daylight Time),539441.799999997,A,cabi,O,i,184,1,3815.2999999970198,535626.5,7123,WL,B,10.0
4,28.058000087738037,learn,31941.999912261963,Fri Apr 11 2025 10:25:47 GMT-0500 (Central Daylight Time),539691.6999999955,A,cabin,O,n,230,1,4065.1999999955297,535626.5,7123,WL,B,10.0
4,28.59000015258789,learn,31409.99984741211,Fri Apr 11 2025 10:25:47 GMT-0500 (Central Daylight Time),540224.0,A,cabinenter,O,enter,526,1,4597.5,535626.5,7123,WL,B,10.0
4,29.108999967575073,learn,30891.000032424927,Fri Apr 11 2025 10:25:47 GMT-0500 (Central Daylight Time),540742.6999999955,A,l,O,l,513,1,518.3999999985099,540224.299999997,7123,WL,B,11.0
4,29.35700011253357,learn,30642.99988746643,Fri Apr 11 2025 10:25:47 GMT-0500 (Central Daylight Time),540991.1000000015,A,la,O,a,232,1,766.8000000044703,540224.299999997,7123,WL,B,11.0
4,29.55900001525879,learn,30440.99998474121,Fri Apr 11 2025 10:25:47 GMT-0500 (Central Daylight Time),541192.6000000015,A,lak,O,k,194,1,968.3000000044703,540224.299999997,7123,WL,B,11.0
4,30.074000120162964,learn,29925.999879837036,Fri Apr 11 2025 10:25:47 GMT-0500 (Central Daylight Time),541707.6999999955,A,lake,O,e,503,1,1483.3999999985099,540224.299999997,7123,WL,B,11.0
4,31.123000144958496,learn,28876.999855041504,Fri Apr 11 2025 10:25:47 GMT-0500 (Central Daylight Time),542757.299999997,A,lakeenter,O,enter,1035,1,2533.0,540224.299999997,7123,WL,B,11.0
4,31.805999994277954,learn,28194.000005722046,Fri Apr 11 2025 10:25:47 GMT-0500 (Central Daylight Time),543440.1999999955,A,p,O,p,677,1,682.6999999955297,542757.5,7123,WL,B,12.0
4,32.03999996185303,learn,27960.000038146973,Fri Apr 11 2025 10:25:47 GMT-0500 (Central Daylight Time),543673.799999997,A,pi,O,i,224,1,916.2999999970198,542757.5,7123,WL,B,12.0
4,32.27500009536743,learn,27724.99990463257,Fri Apr 11 2025 10:25:47 GMT-0500 (Central Daylight Time),543909.3999999985,A,pip,O,p,215,1,1151.8999999985099,542757.5,7123,WL,B,12.0
4,32.5550000667572,learn,27444.999933242798,Fri Apr 11 2025 10:25:47 GMT-0500 (Central Daylight Time),544189.3999999985,A,pipe,O,e,265,1,1431.8999999985099,542757.5,7123,WL,B,12.0
4,32.771000146865845,learn,27228.999853134155,Fri Apr 11 2025 10:25:47 GMT-0500 (Central Daylight Time),544405.3999999985,A,pipeenter,O,enter,200,1,1647.8999999985099,542757.5,7123,WL,B,12.0
4,33.28800010681152,learn,26711.999893188477,Fri Apr 11 2025 10:25:47 GMT-0500 (Central Daylight Time),544922.3999999985,A,s,O,s,508,1,516.7000000029802,544405.6999999955,7123,WL,B,13.0
4,33.50600004196167,learn,26493.99995803833,Fri Apr 11 2025 10:25:47 GMT-0500 (Central Daylight Time),545140.5,A,sk,O,k,197,1,734.8000000044703,544405.6999999955,7123,WL,B,13.0
4,33.78999996185303,learn,26210.000038146973,Fri Apr 11 2025 10:25:47 GMT-0500 (Central Daylight Time),545423.6999999955,A,ski,O,i,261,1,1018.0,544405.6999999955,7123,WL,B,13.0
4,34.14100003242493,learn,25858.999967575073,Fri Apr 11 2025 10:25:47 GMT-0500 (Central Daylight Time),545774.6000000015,A,skin,O,n,332,1,1368.9000000059605,544405.6999999955,7123,WL,B,13.0
4,35.105000019073486,learn,24894.999980926514,Fri Apr 11 2025 10:25:47 GMT-0500 (Central Daylight Time),546739.5,A,skinenter,O,enter,954,1,2333.8000000044703,544405.6999999955,7123,WL,B,13.0
4,35.82599997520447,learn,24174.000024795532,Fri Apr 11 2025 10:25:47 GMT-0500 (Central Daylight Time),547460.0,A,f,O,f,709,1,720.2000000029802,546739.799999997,7123,WL,B,14.0
4,36.00999999046326,learn,23990.000009536743,Fri Apr 11 2025 10:25:47 GMT-0500 (Central Daylight Time),547644.1000000015,A,fi,O,i,166,1,904.3000000044703,546739.799999997,7123,WL,B,14.0
4,36.22099995613098,learn,23779.00004386902,Fri Apr 11 2025 10:25:47 GMT-0500 (Central Daylight Time),547855.1000000015,A,fir,O,r,191,1,1115.3000000044703,546739.799999997,7123,WL,B,14.0
4,36.88700008392334,learn,23112.99991607666,Fri Apr 11 2025 10:25:47 GMT-0500 (Central Daylight Time),548520.8999999985,A,fire,O,e,660,1,1781.1000000014901,546739.799999997,7123,WL,B,14.0
4,39.1710000038147,learn,20828.999996185303,Fri Apr 11 2025 10:25:47 GMT-0500 (Central Daylight Time),550805.3999999985,A,fireenter,O,enter,2271,1,4065.60000000149,546739.799999997,7123,WL,B,14.0
4,39.50399994850159,learn,20496.000051498413,Fri Apr 11 2025 10:25:47 GMT-0500 (Central Daylight Time),551138.0,A,c,O,c,328,1,332.20000000298023,550805.799999997,7123,WL,B,15.0
4,40.187000036239624,learn,19812.999963760376,Fri Apr 11 2025 10:25:47 GMT-0500 (Central Daylight Time),551820.8999999985,A,cl,O,l,660,1,1015.1000000014901,550805.799999997,7123,WL,B,15.0
4,40.503000020980835,learn,19496.999979019165,Fri Apr 11 2025 10:25:47 GMT-0500 (Central Daylight Time),552136.6999999955,A,clo,O,o,308,1,1330.8999999985099,550805.799999997,7123,WL,B,15.0
4,40.8199999332428,learn,19180.000066757202,Fri Apr 11 2025 10:25:47 GMT-0500 (Central Daylight Time),552454.299999997,A,cloc,O,c,295,1,1648.5,550805.799999997,7123,WL,B,15.0
4,40.9539999961853,learn,19046.000003814697,Fri Apr 11 2025 10:25:47 GMT-0500 (Central Daylight Time),552587.6000000015,A,clock,O,k,112,1,1781.8000000044703,550805.799999997,7123,WL,B,15.0
4,41.36899995803833,learn,18631.00004196167,Fri Apr 11 2025 10:25:47 GMT-0500 (Central Daylight Time),553003.5,A,clockenter,O,enter,405,1,2197.7000000029802,550805.799999997,7123,WL,B,15.0
5,0.6670000553131104,learn,60000.0,Fri Apr 11 2025 10:25:47 GMT-0500 (Central Daylight Time),625232.0,A,s,O,s,659,1,666.6000000014901,624565.3999999985,7123,WL,B,1.0
5,1.1170001029968262,learn,60000.0,Fri Apr 11 2025 10:25:47 GMT-0500 (Central Daylight Time),625681.8999999985,A,st,O,t,432,1,1116.5,624565.3999999985,7123,WL,B,1.0
5,1.4500000476837158,learn,60000.0,Fri Apr 11 2025 10:25:47 GMT-0500 (Central Daylight Time),626015.0,A,str,O,r,309,1,1449.6000000014901,624565.3999999985,7123,WL,B,1.0
5,1.7820000648498535,learn,60000.0,Fri Apr 11 2025 10:25:47 GMT-0500 (Central Daylight Time),626347.1000000015,A,stre,O,e,322,1,1781.7000000029802,624565.3999999985,7123,WL,B,1.0
5,1.9809999465942383,learn,60000.0,Fri Apr 11 2025 10:25:47 GMT-0500 (Central Daylight Time),626546.299999997,A,stree,O,e,190,1,1980.8999999985099,624565.3999999985,7123,WL,B,1.0
5,2.1480000019073486,learn,60000.0,Fri Apr 11 2025 10:25:47 GMT-0500 (Central Daylight Time),626713.1000000015,A,street,O,t,161,1,2147.7000000029802,624565.3999999985,7123,WL,B,1.0
5,2.546999931335449,learn,60000.0,Fri Apr 11 2025 10:25:47 GMT-0500 (Central Daylight Time),627112.5,A,streetenter,O,enter,383,1,2547.10000000149,624565.3999999985,7123,WL,B,1.0
5,3.046999931335449,learn,60000.0,Fri Apr 11 2025 10:25:47 GMT-0500 (Central Daylight Time),627612.299999997,A,g,O,g,489,1,499.5,627112.799999997,7123,WL,B,2.0
5,3.3480000495910645,learn,60000.0,Fri Apr 11 2025 10:25:47 GMT-0500 (Central Daylight Time),627913.1999999955,A,gr,O,r,284,1,800.3999999985099,627112.799999997,7123,WL,B,2.0
5,3.7150001525878906,learn,60000.0,Fri Apr 11 2025 10:25:47 GMT-0500 (Central Daylight Time),628280.299999997,A,gra,O,a,362,1,1167.5,627112.799999997,7123,WL,B,2.0
5,4.031000137329102,learn,60000.0,Fri Apr 11 2025 10:25:47 GMT-0500 (Central Daylight Time),628596.1999999955,A,gras,O,s,295,1,1483.3999999985099,627112.799999997,7123,WL,B,2.0
5,4.21399998664856,learn,60000.0,Fri Apr 11 2025 10:25:47 GMT-0500 (Central Daylight Time),628779.0,A,grass,O,s,162,1,1666.2000000029802,627112.799999997,7123,WL,B,2.0
5,4.930000066757202,learn,60000.0,Fri Apr 11 2025 10:25:47 GMT-0500 (Central Daylight Time),629495.799999997,A,grassenter,O,enter,711,1,2383.0,627112.799999997,7123,WL,B,2.0
5,5.76200008392334,learn,60000.0,Fri Apr 11 2025 10:25:47 GMT-0500 (Central Daylight Time),630328.0,A,d,O,d,825,1,832.0,629496.0,7123,WL,B,3.0
5,5.914999961853027,learn,60000.0,Fri Apr 11 2025 10:25:47 GMT-0500 (Central Daylight Time),630480.1000000015,A,do,O,o,146,1,984.1000000014901,629496.0,7123,WL,B,3.0
5,6.115999937057495,learn,60000.0,Fri Apr 11 2025 10:25:47 GMT-0500 (Central Daylight Time),630680.8999999985,A,doo,O,o,196,1,1184.8999999985099,629496.0,7123,WL,B,3.0
5,6.312999963760376,learn,60000.0,Fri Apr 11 2025 10:25:47 GMT-0500 (Central Daylight Time),630878.5,A,door,O,r,184,1,1382.5,629496.0,7123,WL,B,3.0
5,6.546999931335449,learn,60000.0,Fri Apr 11 2025 10:25:47 GMT-0500 (Central Daylight Time),631112.5,A,doorenter,O,enter,217,1,1616.5,629496.0,7123,WL,B,3.0
5,6.898000001907349,learn,60000.0,Fri Apr 11 2025 10:25:47 GMT-0500 (Central Daylight Time),631463.5,A,a,O,a,346,1,350.70000000298023,631112.799999997,7123,WL,B,4.0
5,7.0980000495910645,learn,60000.0,Fri Apr 11 2025 10:25:47 GMT-0500 (Central Daylight Time),631663.5,A,ar,O,r,192,1,550.7000000029802,631112.799999997,7123,WL,B,4.0
5,7.380000114440918,learn,60000.0,Fri Apr 11 2025 10:25:47 GMT-0500 (Central Daylight Time),631945.3999999985,A,arm,O,m,272,1,832.6000000014901,631112.799999997,7123,WL,B,4.0
5,7.697999954223633,learn,60000.0,Fri Apr 11 2025 10:25:47 GMT-0500 (Central Daylight Time),632263.3999999985,A,armenter,O,enter,304,1,1150.6000000014901,631112.799999997,7123,WL,B,4.0
5,8.01200008392334,learn,60000.0,Fri Apr 11 2025 10:25:47 GMT-0500 (Central Daylight Time),632577.8999999985,A,s,O,s,298,1,314.29999999701977,632263.6000000015,7123,WL,B,5.0
5,8.27999997138977,learn,60000.0,Fri Apr 11 2025 10:25:47 GMT-0500 (Central Daylight Time),632845.6000000015,A,st,O,t,255,1,582.0,632263.6000000015,7123,WL,B,5.0
5,8.496000051498413,learn,60000.0,Fri Apr 11 2025 10:25:47 GMT-0500 (Central Daylight Time),633061.5,A,sta,O,a,203,1,797.8999999985099,632263.6000000015,7123,WL,B,5.0
5,8.630000114440918,learn,60000.0,Fri Apr 11 2025 10:25:47 GMT-0500 (Central Daylight Time),633195.0,A,star,O,r,114,1,931.3999999985099,632263.6000000015,7123,WL,B,5.0
5,9.046000003814697,learn,60000.0,Fri Apr 11 2025 10:25:47 GMT-0500 (Central Daylight Time),633611.0,A,starenter,O,enter,395,1,1347.3999999985099,632263.6000000015,7123,WL,B,5.0
5,10.01200008392334,learn,60000.0,Fri Apr 11 2025 10:25:47 GMT-0500 (Central Daylight Time),634577.3999999985,A,w,O,w,958,1,966.2000000029802,633611.1999999955,7123,WL,B,6.0
5,10.147000074386597,learn,60000.0,Fri Apr 11 2025 10:25:47 GMT-0500 (Central Daylight Time),634712.6999999955,A,wi,O,i,129,1,1101.5,633611.1999999955,7123,WL,B,6.0
5,10.462000131607056,learn,60000.0,Fri Apr 11 2025 10:25:47 GMT-0500 (Central Daylight Time),635027.1000000015,A,wif,O,f,303,1,1415.9000000059605,633611.1999999955,7123,WL,B,6.0
5,10.896000146865845,learn,60000.0,Fri Apr 11 2025 10:25:47 GMT-0500 (Central Daylight Time),635460.8999999985,A,wife,O,e,423,1,1849.7000000029802,633611.1999999955,7123,WL,B,6.0
5,11.296000003814697,learn,60000.0,Fri Apr 11 2025 10:25:47 GMT-0500 (Central Daylight Time),635861.1999999955,A,wifeenter,O,enter,380,1,2250.0,633611.1999999955,7123,WL,B,6.0
5,11.513999938964844,learn,60000.0,Fri Apr 11 2025 10:25:47 GMT-0500 (Central Daylight Time),636079.3999999985,A,w,O,w,213,1,218.0,635861.3999999985,7123,WL,B,7.0
5,11.67900013923645,learn,60000.0,Fri Apr 11 2025 10:25:47 GMT-0500 (Central Daylight Time),636244.5,A,wi,O,i,153,1,383.1000000014901,635861.3999999985,7123,WL,B,7.0
5,11.82800006866455,learn,60000.0,Fri Apr 11 2025 10:25:47 GMT-0500 (Central Daylight Time),636393.6999999955,A,win,O,n,143,1,532.2999999970198,635861.3999999985,7123,WL,B,7.0
5,12.210999965667725,learn,60000.0,Fri Apr 11 2025 10:25:47 GMT-0500 (Central Daylight Time),636776.299999997,A,wind,O,d,375,1,914.8999999985099,635861.3999999985,7123,WL,B,7.0
5,12.411999940872192,learn,60000.0,Fri Apr 11 2025 10:25:47 GMT-0500 (Central Daylight Time),636977.1999999955,A,windo,O,o,183,1,1115.7999999970198,635861.3999999985,7123,WL,B,7.0
5,13.01200008392334,learn,60000.0,Fri Apr 11 2025 10:25:47 GMT-0500 (Central Daylight Time),637577.299999997,A,window,O,w,579,1,1715.8999999985099,635861.3999999985,7123,WL,B,7.0
5,13.394999980926514,learn,60000.0,Fri Apr 11 2025 10:25:47 GMT-0500 (Central Daylight Time),637960.0,A,windowenter,O,enter,365,1,2098.60000000149,635861.3999999985,7123,WL,B,7.0
5,13.661999940872192,learn,60000.0,Fri Apr 11 2025 10:25:47 GMT-0500 (Central Daylight Time),638226.8999999985,A,c,O,c,248,1,266.5,637960.3999999985,7123,WL,B,8.0
5,13.827000141143799,learn,60000.0,Fri Apr 11 2025 10:25:47 GMT-0500 (Central Daylight Time),638392.5,A,ci,O,i,157,1,432.1000000014901,637960.3999999985,7123,WL,B,8.0
5,14.078999996185303,learn,60000.0,Fri Apr 11 2025 10:25:47 GMT-0500 (Central Daylight Time),638644.3999999985,A,cit,O,t,239,1,684.0,637960.3999999985,7123,WL,B,8.0
5,14.294000148773193,learn,60000.0,Fri Apr 11 2025 10:25:47 GMT-0500 (Central Daylight Time),638859.1000000015,A,city,O,y,196,1,898.7000000029802,637960.3999999985,7123,WL,B,8.0
5,15.094000101089478,learn,60000.0,Fri Apr 11 2025 10:25:47 GMT-0500 (Central Daylight Time),639659.6000000015,A,cityenter,O,enter,788,1,1699.2000000029802,637960.3999999985,7123,WL,B,8.0
5,15.927000045776367,learn,60000.0,Fri Apr 11 2025 10:25:47 GMT-0500 (Central Daylight Time),640492.1999999955,A,p,O,p,822,1,832.3999999985099,639659.799999997,7123,WL,B,9.0
5,16.294000148773193,learn,60000.0,Fri Apr 11 2025 10:25:47 GMT-0500 (Central Daylight Time),640859.3999999985,A,pu,O,u,348,1,1199.6000000014901,639659.799999997,7123,WL,B,9.0
5,17.427000045776367,learn,60000.0,Fri Apr 11 2025 10:25:47 GMT-0500 (Central Daylight Time),641992.6000000015,A,pup,O,p,1127,1,2332.8000000044703,639659.799999997,7123,WL,B,9.0
5,17.761000156402588,learn,60000.0,Fri Apr 11 2025 10:25:47 GMT-0500 (Central Daylight Time),642326.299999997,A,pupi,O,i,311,1,2666.5,639659.799999997,7123,WL,B,9.0
5,18.41000008583069,learn,60000.0,Fri Apr 11 2025 10:25:47 GMT-0500 (Central Daylight Time),642975.8999999985,A,pupil,O,l,633,1,3316.10000000149,639659.799999997,7123,WL,B,9.0
5,19.04200005531311,learn,60000.0,Fri Apr 11 2025 10:25:47 GMT-0500 (Central Daylight Time),643607.799999997,A,pupilenter,O,enter,610,1,3948.0,639659.799999997,7123,WL,B,9.0
5,20.04200005531311,learn,60000.0,Fri Apr 11 2025 10:25:47 GMT-0500 (Central Daylight Time),644607.799999997,A,c,O,c,985,1,999.6999999955297,643608.1000000015,7123,WL,B,10.0
5,21.176000118255615,learn,60000.0,Fri Apr 11 2025 10:25:47 GMT-0500 (Central Daylight Time),645741.1999999955,A,ca,O,a,1120,1,2133.0999999940395,643608.1000000015,7123,WL,B,10.0
5,21.492000102996826,learn,60000.0,Fri Apr 11 2025 10:25:47 GMT-0500 (Central Daylight Time),646057.1000000015,A,cab,O,b,296,1,2449.0,643608.1000000015,7123,WL,B,10.0
5,21.693000078201294,learn,60000.0,Fri Apr 11 2025 10:25:47 GMT-0500 (Central Daylight Time),646258.6999999955,A,cabi,O,i,194,1,2650.5999999940395,643608.1000000015,7123,WL,B,10.0
5,22.35800004005432,learn,60000.0,Fri Apr 11 2025 10:25:47 GMT-0500 (Central Daylight Time),646923.799999997,A,cabin,O,n,644,1,3315.6999999955297,643608.1000000015,7123,WL,B,10.0
5,22.69099998474121,learn,60000.0,Fri Apr 11 2025 10:25:47 GMT-0500 (Central Daylight Time),647256.6000000015,A,cabinenter,O,enter,327,1,3648.5,643608.1000000015,7123,WL,B,10.0
5,23.27500009536743,learn,60000.0,Fri Apr 11 2025 10:25:47 GMT-0500 (Central Daylight Time),647840.0,A,l,O,l,569,1,583.2000000029802,647256.799999997,7123,WL,B,11.0
5,23.692000150680542,learn,60000.0,Fri Apr 11 2025 10:25:47 GMT-0500 (Central Daylight Time),648256.8999999985,A,la,O,a,400,1,1000.1000000014901,647256.799999997,7123,WL,B,11.0
5,23.841000080108643,learn,60000.0,Fri Apr 11 2025 10:25:47 GMT-0500 (Central Daylight Time),648406.1000000015,A,lak,O,k,136,1,1149.3000000044703,647256.799999997,7123,WL,B,11.0
5,24.008000135421753,learn,60000.0,Fri Apr 11 2025 10:25:47 GMT-0500 (Central Daylight Time),648573.6999999955,A,lake,O,e,147,1,1316.8999999985099,647256.799999997,7123,WL,B,11.0
5,24.20900011062622,learn,60000.0,Fri Apr 11 2025 10:25:47 GMT-0500 (Central Daylight Time),648774.299999997,A,lakeenter,O,enter,194,1,1517.5,647256.799999997,7123,WL,B,11.0
5,25.45799994468689,learn,60000.0,Fri Apr 11 2025 10:25:47 GMT-0500 (Central Daylight Time),650023.6999999955,A,p,O,p,1244,1,1249.1999999955297,648774.5,7123,WL,B,12.0
5,25.993000030517578,learn,60000.0,Fri Apr 11 2025 10:25:47 GMT-0500 (Central Daylight Time),650558.1000000015,A,pi,O,i,527,1,1783.6000000014901,648774.5,7123,WL,B,12.0
5,26.223999977111816,learn,60000.0,Fri Apr 11 2025 10:25:47 GMT-0500 (Central Daylight Time),650789.6000000015,A,pip,O,p,219,1,2015.1000000014901,648774.5,7123,WL,B,12.0
5,26.50600004196167,learn,60000.0,Fri Apr 11 2025 10:25:47 GMT-0500 (Central Daylight Time),651071.3999999985,A,pipe,O,e,267,1,2296.89999999851,648774.5,7123,WL,B,12.0
5,26.674000024795532,learn,60000.0,Fri Apr 11 2025 10:25:47 GMT-0500 (Central Daylight Time),651239.0,A,pipeenter,O,enter,162,1,2464.5,648774.5,7123,WL,B,12.0
5,27.123000144958496,learn,60000.0,Fri Apr 11 2025 10:25:47 GMT-0500 (Central Daylight Time),651688.299999997,A,s,O,s,434,1,449.1000000014901,651239.1999999955,7123,WL,B,13.0
5,27.374000072479248,learn,60000.0,Fri Apr 11 2025 10:25:47 GMT-0500 (Central Daylight Time),651939.0,A,sk,O,k,232,1,699.8000000044703,651239.1999999955,7123,WL,B,13.0
5,27.657000064849854,learn,60000.0,Fri Apr 11 2025 10:25:47 GMT-0500 (Central Daylight Time),652222.1999999955,A,ski,O,i,269,1,983.0,651239.1999999955,7123,WL,B,13.0
5,28.10700011253357,learn,60000.0,Fri Apr 11 2025 10:25:47 GMT-0500 (Central Daylight Time),652672.5,A,skin,O,n,435,1,1433.3000000044703,651239.1999999955,7123,WL,B,13.0
5,28.77300000190735,learn,60000.0,Fri Apr 11 2025 10:25:47 GMT-0500 (Central Daylight Time),653338.5,A,skinenter,O,enter,649,1,2099.3000000044703,651239.1999999955,7123,WL,B,13.0
5,29.1560001373291,learn,60000.0,Fri Apr 11 2025 10:25:47 GMT-0500 (Central Daylight Time),653721.1000000015,A,f,O,f,366,1,382.30000000447035,653338.799999997,7123,WL,B,14.0
5,29.338000059127808,learn,60000.0,Fri Apr 11 2025 10:25:47 GMT-0500 (Central Daylight Time),653903.6999999955,A,fi,O,i,168,1,564.8999999985099,653338.799999997,7123,WL,B,14.0
5,29.57200002670288,learn,60000.0,Fri Apr 11 2025 10:25:47 GMT-0500 (Central Daylight Time),654137.3999999985,A,fir,O,r,216,1,798.6000000014901,653338.799999997,7123,WL,B,14.0
5,29.69099998474121,learn,60000.0,Fri Apr 11 2025 10:25:47 GMT-0500 (Central Daylight Time),654256.1000000015,A,fire,O,e,113,1,917.3000000044703,653338.799999997,7123,WL,B,14.0
5,29.890000104904175,learn,60000.0,Fri Apr 11 2025 10:25:47 GMT-0500 (Central Daylight Time),654455.1000000015,A,fireenter,O,enter,192,1,1116.3000000044703,653338.799999997,7123,WL,B,14.0
5,30.19000005722046,learn,60000.0,Fri Apr 11 2025 10:25:47 GMT-0500 (Central Daylight Time),654755.0,A,c,O,c,291,1,299.70000000298023,654455.299999997,7123,WL,B,15.0
5,30.305999994277954,learn,60000.0,Fri Apr 11 2025 10:25:47 GMT-0500 (Central Daylight Time),654871.6000000015,A,cl,O,l,102,1,416.30000000447035,654455.299999997,7123,WL,B,15.0
5,30.52300000190735,learn,60000.0,Fri Apr 11 2025 10:25:47 GMT-0500 (Central Daylight Time),655088.5,A,clo,O,o,212,1,633.2000000029802,654455.299999997,7123,WL,B,15.0
5,30.705000162124634,learn,60000.0,Fri Apr 11 2025 10:25:47 GMT-0500 (Central Daylight Time),655270.3999999985,A,cloc,O,c,166,1,815.1000000014901,654455.299999997,7123,WL,B,15.0
5,30.82200002670288,learn,60000.0,Fri Apr 11 2025 10:25:47 GMT-0500 (Central Daylight Time),655387.1999999955,A,clock,O,k,107,1,931.8999999985099,654455.299999997,7123,WL,B,15.0
5,31.09000015258789,learn,60000.0,Fri Apr 11 2025 10:25:47 GMT-0500 (Central Daylight Time),655655.1000000015,A,clockenter,O,enter,252,1,1199.8000000044703,654455.299999997,7123,WL,B,15.0
6,0.5149998664855957,distr,59485.000133514404,Fri Apr 11 2025 10:25:47 GMT-0500 (Central Daylight Time),744042.799999997,B,b,O,b,504,1,514.8999999985099,743527.8999999985,7123,WL,B,1.0
6,0.6809999942779541,distr,59319.000005722046,Fri Apr 11 2025 10:25:47 GMT-0500 (Central Daylight Time),744209.3999999985,B,ba,O,a,159,1,681.5,743527.8999999985,7123,WL,B,1.0
6,0.8320000171661377,distr,59167.99998283386,Fri Apr 11 2025 10:25:47 GMT-0500 (Central Daylight Time),744360.1999999955,B,bab,O,b,144,1,832.2999999970198,743527.8999999985,7123,WL,B,1.0
6,1.0809998512268066,distr,58919.00014877319,Fri Apr 11 2025 10:25:47 GMT-0500 (Central Daylight Time),744608.6000000015,B,baby,O,y,233,1,1080.7000000029802,743527.8999999985,7123,WL,B,1.0
6,1.4809999465942383,distr,58519.00005340576,Fri Apr 11 2025 10:25:47 GMT-0500 (Central Daylight Time),745009.299999997,B,babyenter,O,enter,393,1,1481.3999999985099,743527.8999999985,7123,WL,B,1.0
6,2.497999906539917,distr,57502.00009346008,Fri Apr 11 2025 10:25:47 GMT-0500 (Central Daylight Time),746026.0,B,o,O,o,1000,1,1016.5,745009.5,7123,WL,B,2.0
6,2.747999906539917,distr,57252.00009346008,Fri Apr 11 2025 10:25:47 GMT-0500 (Central Daylight Time),746275.6000000015,B,oc,O,c,239,1,1266.1000000014901,745009.5,7123,WL,B,2.0
6,3.5299999713897705,distr,56470.00002861023,Fri Apr 11 2025 10:25:47 GMT-0500 (Central Daylight Time),747058.1000000015,B,oce,O,e,772,1,2048.60000000149,745009.5,7123,WL,B,2.0
6,4.480000019073486,distr,55519.999980926514,Fri Apr 11 2025 10:25:47 GMT-0500 (Central Daylight Time),748008.1999999955,B,ocea,O,a,935,1,2998.6999999955297,745009.5,7123,WL,B,2.0
6,4.880999803543091,distr,55119.00019645691,Fri Apr 11 2025 10:25:47 GMT-0500 (Central Daylight Time),748408.799999997,B,ocean,O,n,394,1,3399.2999999970198,745009.5,7123,WL,B,2.0
6,5.246999979019165,distr,54753.000020980835,Fri Apr 11 2025 10:25:47 GMT-0500 (Central Daylight Time),748775.1000000015,B,oceanenter,O,enter,359,1,3765.60000000149,745009.5,7123,WL,B,2.0
6,5.730000019073486,distr,54269.999980926514,Fri Apr 11 2025 10:25:47 GMT-0500 (Central Daylight Time),749258.1999999955,B,p,O,p,477,1,482.79999999701977,748775.3999999985,7123,WL,B,3.0
6,6.164999961853027,distr,53835.00003814697,Fri Apr 11 2025 10:25:47 GMT-0500 (Central Daylight Time),749692.5,B,pa,O,a,421,1,917.1000000014901,748775.3999999985,7123,WL,B,3.0
6,6.378999948501587,distr,53621.00005149841,Fri Apr 11 2025 10:25:47 GMT-0500 (Central Daylight Time),749906.799999997,B,pal,O,l,197,1,1131.3999999985099,748775.3999999985,7123,WL,B,3.0
6,6.5950000286102295,distr,53404.99997138977,Fri Apr 11 2025 10:25:47 GMT-0500 (Central Daylight Time),750123.5,B,pala,O,a,204,1,1348.1000000014901,748775.3999999985,7123,WL,B,3.0
6,6.812999963760376,distr,53187.000036239624,Fri Apr 11 2025 10:25:47 GMT-0500 (Central Daylight Time),750341.1999999955,B,palac,O,c,198,1,1565.7999999970198,748775.3999999985,7123,WL,B,3.0
6,7.046000003814697,distr,52953.9999961853,Fri Apr 11 2025 10:25:47 GMT-0500 (Central Daylight Time),750573.6000000015,B,palace,O,e,219,1,1798.2000000029802,748775.3999999985,7123,WL,B,3.0
6,7.245999813079834,distr,52754.000186920166,Fri Apr 11 2025 10:25:47 GMT-0500 (Central Daylight Time),750773.6000000015,B,palaceenter,O,enter,187,1,1998.2000000029802,748775.3999999985,7123,WL,B,3.0
6,8.44599986076355,distr,51554.00013923645,Fri Apr 11 2025 10:25:47 GMT-0500 (Central Daylight Time),751973.8999999985,B,l,O,l,1188,1,1200.0,750773.8999999985,7123,WL,B,4.0
6,8.595999956130981,distr,51404.00004386902,Fri Apr 11 2025 10:25:47 GMT-0500 (Central Daylight Time),752124.3999999985,B,li,O,i,139,1,1350.5,750773.8999999985,7123,WL,B,4.0
6,8.830999851226807,distr,51169.00014877319,Fri Apr 11 2025 10:25:47 GMT-0500 (Central Daylight Time),752359.0,B,lip,O,p,212,1,1585.1000000014901,750773.8999999985,7123,WL,B,4.0
6,9.09500002861023,distr,50904.99997138977,Fri Apr 11 2025 10:25:47 GMT-0500 (Central Daylight Time),752622.8999999985,B,lipenter,O,enter,250,1,1849.0,750773.8999999985,7123,WL,B,4.0
6,9.395999908447266,distr,50604.000091552734,Fri Apr 11 2025 10:25:47 GMT-0500 (Central Daylight Time),752924.0,B,b,O,b,282,1,300.80000000447035,752623.1999999955,7123,WL,B,5.0
6,9.646999835968018,distr,50353.00016403198,Fri Apr 11 2025 10:25:47 GMT-0500 (Central Daylight Time),753174.6999999955,B,ba,O,a,245,1,551.5,752623.1999999955,7123,WL,B,5.0
6,9.763999938964844,distr,50236.000061035156,Fri Apr 11 2025 10:25:47 GMT-0500 (Central Daylight Time),753291.6000000015,B,bar,O,r,98,1,668.4000000059605,752623.1999999955,7123,WL,B,5.0
6,10.060999870300293,distr,49939.00012969971,Fri Apr 11 2025 10:25:47 GMT-0500 (Central Daylight Time),753589.3999999985,B,barenter,O,enter,278,1,966.2000000029802,752623.1999999955,7123,WL,B,5.0
6,10.478999853134155,distr,49521.000146865845,Fri Apr 11 2025 10:25:47 GMT-0500 (Central Daylight Time),754007.1000000015,B,d,O,d,397,1,417.40000000596046,753589.6999999955,7123,WL,B,6.0
6,10.744999885559082,distr,49255.00011444092,Fri Apr 11 2025 10:25:47 GMT-0500 (Central Daylight Time),754273.299999997,B,dr,O,r,249,1,683.6000000014901,753589.6999999955,7123,WL,B,6.0
6,10.860999822616577,distr,49139.00017738342,Fri Apr 11 2025 10:25:47 GMT-0500 (Central Daylight Time),754389.0,B,dre,O,e,103,1,799.3000000044703,753589.6999999955,7123,WL,B,6.0
6,11.178999900817871,distr,48821.00009918213,Fri Apr 11 2025 10:25:47 GMT-0500 (Central Daylight Time),754706.799999997,B,dres,O,s,299,1,1117.1000000014901,753589.6999999955,7123,WL,B,6.0
6,11.327999830245972,distr,48672.00016975403,Fri Apr 11 2025 10:25:47 GMT-0500 (Central Daylight Time),754856.3999999985,B,dress,O,s,133,1,1266.7000000029802,753589.6999999955,7123,WL,B,6.0
6,11.444000005722046,distr,48555.999994277954,Fri Apr 11 2025 10:25:47 GMT-0500 (Central Daylight Time),754972.1000000015,B,dressenter,O,enter,104,1,1382.4000000059605,753589.6999999955,7123,WL,B,6.0
6,12.694999933242798,distr,47305.0000667572,Fri Apr 11 2025 10:25:47 GMT-0500 (Central Daylight Time),756222.5,B,s,O,s,1237,1,1250.0,754972.5,7123,WL,B,7.0
6,12.878999948501587,distr,47121.00005149841,Fri Apr 11 2025 10:25:47 GMT-0500 (Central Daylight Time),756406.8999999985,B,st,O,t,163,1,1434.3999999985099,754972.5,7123,WL,B,7.0
6,13.060999870300293,distr,46939.00012969971,Fri Apr 11 2025 10:25:47 GMT-0500 (Central Daylight Time),756588.8999999985,B,ste,O,e,172,1,1616.3999999985099,754972.5,7123,WL,B,7.0
6,13.194999933242798,distr,46805.0000667572,Fri Apr 11 2025 10:25:47 GMT-0500 (Central Daylight Time),756723.3999999985,B,stea,O,a,124,1,1750.8999999985099,754972.5,7123,WL,B,7.0
6,13.359999895095825,distr,46640.000104904175,Fri Apr 11 2025 10:25:47 GMT-0500 (Central Daylight Time),756888.299999997,B,steam,O,m,159,1,1915.7999999970198,754972.5,7123,WL,B,7.0
6,14.143999814987183,distr,45856.00018501282,Fri Apr 11 2025 10:25:47 GMT-0500 (Central Daylight Time),757672.3999999985,B,steamenter,O,enter,760,1,2699.89999999851,754972.5,7123,WL,B,7.0
6,14.41100001335144,distr,45588.99998664856,Fri Apr 11 2025 10:25:47 GMT-0500 (Central Daylight Time),757938.6000000015,B,a,O,a,248,1,265.90000000596046,757672.6999999955,7123,WL,B,8.0
6,14.543999910354614,distr,45456.000089645386,Fri Apr 11 2025 10:25:47 GMT-0500 (Central Daylight Time),758072.299999997,B,ar,O,r,118,1,399.6000000014901,757672.6999999955,7123,WL,B,8.0
6,15.248999834060669,distr,44751.00016593933,Fri Apr 11 2025 10:25:47 GMT-0500 (Central Daylight Time),758776.799999997,B,arm,O,m,695,1,1104.1000000014901,757672.6999999955,7123,WL,B,8.0
6,15.727999925613403,distr,44272.0000743866,Fri Apr 11 2025 10:25:47 GMT-0500 (Central Daylight Time),759256.0,B,army,O,y,476,1,1583.3000000044703,757672.6999999955,7123,WL,B,8.0
6,17.092999935150146,distr,42907.00006484985,Fri Apr 11 2025 10:25:47 GMT-0500 (Central Daylight Time),760620.6999999955,B,armyenter,O,enter,1353,1,2948.0,757672.6999999955,7123,WL,B,8.0
6,17.64299988746643,distr,42357.00011253357,Fri Apr 11 2025 10:25:47 GMT-0500 (Central Daylight Time),761171.1000000015,B,b,O,b,532,1,550.2000000029802,760620.8999999985,7123,WL,B,9.0
6,17.76099991798401,distr,42239.00008201599,Fri Apr 11 2025 10:25:47 GMT-0500 (Central Daylight Time),761288.5,B,bu,O,u,112,1,667.6000000014901,760620.8999999985,7123,WL,B,9.0
6,17.959999799728394,distr,42040.00020027161,Fri Apr 11 2025 10:25:47 GMT-0500 (Central Daylight Time),761488.3999999985,B,bui,O,i,193,1,867.5,760620.8999999985,7123,WL,B,9.0
6,18.408999919891357,distr,41591.00008010864,Fri Apr 11 2025 10:25:47 GMT-0500 (Central Daylight Time),761936.8999999985,B,buil,O,l,431,1,1316.0,760620.8999999985,7123,WL,B,9.0
6,18.709999799728394,distr,41290.00020027161,Fri Apr 11 2025 10:25:47 GMT-0500 (Central Daylight Time),762237.6000000015,B,build,O,d,282,1,1616.7000000029802,760620.8999999985,7123,WL,B,9.0
6,18.842000007629395,distr,41157.999992370605,Fri Apr 11 2025 10:25:47 GMT-0500 (Central Daylight Time),762370.299999997,B,buildi,O,i,113,1,1749.3999999985099,760620.8999999985,7123,WL,B,9.0
6,18.924999952316284,distr,41075.000047683716,Fri Apr 11 2025 10:25:47 GMT-0500 (Central Daylight Time),762452.8999999985,B,buildin,O,n,60,1,1832.0,760620.8999999985,7123,WL,B,9.0
6,19.194000005722046,distr,40805.999994277954,Fri Apr 11 2025 10:25:47 GMT-0500 (Central Daylight Time),762721.8999999985,B,building,O,g,259,1,2101.0,760620.8999999985,7123,WL,B,9.0
6,21.092000007629395,distr,38907.999992370605,Fri Apr 11 2025 10:25:47 GMT-0500 (Central Daylight Time),764620.1999999955,B,buildingenter,O,enter,1886,1,3999.2999999970198,760620.8999999985,7123,WL,B,9.0
6,21.991999864578247,distr,38008.00013542175,Fri Apr 11 2025 10:25:47 GMT-0500 (Central Daylight Time),765520.1999999955,B,s,O,s,896,1,899.6999999955297,764620.5,7123,WL,B,10.0
6,22.274999856948853,distr,37725.00014305115,Fri Apr 11 2025 10:25:47 GMT-0500 (Central Daylight Time),765803.1000000015,B,st,O,t,264,1,1182.6000000014901,764620.5,7123,WL,B,10.0
6,22.524999856948853,distr,37475.00014305115,Fri Apr 11 2025 10:25:47 GMT-0500 (Central Daylight Time),766052.8999999985,B,sto,O,o,238,1,1432.3999999985099,764620.5,7123,WL,B,10.0
6,22.709999799728394,distr,37290.00020027161,Fri Apr 11 2025 10:25:47 GMT-0500 (Central Daylight Time),766237.799999997,B,stor,O,r,179,1,1617.2999999970198,764620.5,7123,WL,B,10.0
6,22.95899987220764,distr,37041.00012779236,Fri Apr 11 2025 10:25:47 GMT-0500 (Central Daylight Time),766487.3999999985,B,storm,O,m,244,1,1866.8999999985099,764620.5,7123,WL,B,10.0
6,23.207000017166138,distr,36792.99998283386,Fri Apr 11 2025 10:25:47 GMT-0500 (Central Daylight Time),766735.3999999985,B,stormenter,O,enter,242,1,2114.89999999851,764620.5,7123,WL,B,10.0
6,23.506999969482422,distr,36493.00003051758,Fri Apr 11 2025 10:25:47 GMT-0500 (Central Daylight Time),767035.1000000015,B,v,O,v,290,1,299.40000000596046,766735.6999999955,7123,WL,B,11.0
6,23.62399983406067,distr,36376.00016593933,Fri Apr 11 2025 10:25:47 GMT-0500 (Central Daylight Time),767151.5,B,vi,O,i,108,1,415.80000000447035,766735.6999999955,7123,WL,B,11.0
6,24.191999912261963,distr,35808.00008773804,Fri Apr 11 2025 10:25:47 GMT-0500 (Central Daylight Time),767720.1999999955,B,vil,O,l,564,1,984.5,766735.6999999955,7123,WL,B,11.0
6,24.375,distr,35625.0,Fri Apr 11 2025 10:25:47 GMT-0500 (Central Daylight Time),767902.6999999955,B,vill,O,l,168,1,1167.0,766735.6999999955,7123,WL,B,11.0
6,24.5239999294281,distr,35476.0000705719,Fri Apr 11 2025 10:25:47 GMT-0500 (Central Daylight Time),768052.299999997,B,villa,O,a,136,1,1316.6000000014901,766735.6999999955,7123,WL,B,11.0
6,24.674000024795532,distr,35325.99997520447,Fri Apr 11 2025 10:25:47 GMT-0500 (Central Daylight Time),768202.1999999955,B,villag,O,g,134,1,1466.5,766735.6999999955,7123,WL,B,11.0
6,25.27300000190735,distr,34726.99999809265,Fri Apr 11 2025 10:25:47 GMT-0500 (Central Daylight Time),768801.299999997,B,village,O,e,582,1,2065.60000000149,766735.6999999955,7123,WL,B,11.0
6,25.524999856948853,distr,34475.00014305115,Fri Apr 11 2025 10:25:47 GMT-0500 (Central Daylight Time),769053.299999997,B,villageenter,O,enter,239,1,2317.60000000149,766735.6999999955,7123,WL,B,11.0
6,26.024999856948853,distr,33975.00014305115,Fri Apr 11 2025 10:25:47 GMT-0500 (Central Daylight Time),769553.3999999985,B,c,O,c,484,1,499.79999999701977,769053.6000000015,7123,WL,B,12.0
6,26.85599994659424,distr,33144.00005340576,Fri Apr 11 2025 10:25:47 GMT-0500 (Central Daylight Time),770384.5,B,ce,O,e,825,1,1330.8999999985099,769053.6000000015,7123,WL,B,12.0
6,28.457000017166138,distr,31542.999982833862,Fri Apr 11 2025 10:25:47 GMT-0500 (Central Daylight Time),771984.6999999955,B,cel,O,l,1582,1,2931.0999999940395,769053.6000000015,7123,WL,B,12.0
6,28.79199981689453,distr,31208.00018310547,Fri Apr 11 2025 10:25:47 GMT-0500 (Central Daylight Time),772319.6000000015,B,cell,O,l,329,1,3266.0,769053.6000000015,7123,WL,B,12.0
6,31.620999813079834,distr,28379.000186920166,Fri Apr 11 2025 10:25:47 GMT-0500 (Central Daylight Time),775149.1999999955,B,cellenter,O,enter,2809,1,6095.5999999940395,769053.6000000015,7123,WL,B,12.0
6,48.16699981689453,distr,11833.000183105469,Fri Apr 11 2025 10:25:47 GMT-0500 (Central Daylight Time),791695.1000000015,B,c,O,c,16527,1,16545.70000000298,775149.3999999985,7123,WL,B,13.0
6,48.24799990653992,distr,11752.000093460083,Fri Apr 11 2025 10:25:47 GMT-0500 (Central Daylight Time),791776.6999999955,B,co,O,o,74,1,16627.29999999702,775149.3999999985,7123,WL,B,13.0
6,48.567999839782715,distr,11432.000160217285,Fri Apr 11 2025 10:25:47 GMT-0500 (Central Daylight Time),792096.1999999955,B,coi,O,i,310,1,16946.79999999702,775149.3999999985,7123,WL,B,13.0
6,48.71799993515015,distr,11282.000064849854,Fri Apr 11 2025 10:25:47 GMT-0500 (Central Daylight Time),792246.299999997,B,coin,O,n,137,1,17096.89999999851,775149.3999999985,7123,WL,B,13.0
6,49.46499991416931,distr,10535.000085830688,Fri Apr 11 2025 10:25:47 GMT-0500 (Central Daylight Time),792993.299999997,B,coinenter,O,enter,737,1,17843.89999999851,775149.3999999985,7123,WL,B,13.0
6,54.33099985122681,distr,5669.000148773193,Fri Apr 11 2025 10:25:47 GMT-0500 (Central Daylight Time),797859.6000000015,B,r,O,r,4856,1,4866.10000000149,792993.5,7123,WL,B,14.0
6,54.513999938964844,distr,5486.000061035156,Fri Apr 11 2025 10:25:47 GMT-0500 (Central Daylight Time),798042.6000000015,B,ro,O,o,166,1,5049.10000000149,792993.5,7123,WL,B,14.0
6,54.69700002670288,distr,5302.999973297119,Fri Apr 11 2025 10:25:47 GMT-0500 (Central Daylight Time),798225.6000000015,B,roc,O,c,173,1,5232.10000000149,792993.5,7123,WL,B,14.0
6,54.89699983596802,distr,5103.000164031982,Fri Apr 11 2025 10:25:47 GMT-0500 (Central Daylight Time),798425.1999999955,B,rock,O,k,183,1,5431.69999999553,792993.5,7123,WL,B,14.0
6,55.61500000953674,distr,4384.999990463257,Fri Apr 11 2025 10:25:47 GMT-0500 (Central Daylight Time),799143.1000000015,B,rockenter,O,enter,708,1,6149.60000000149,792993.5,7123,WL,B,14.0
6,60.013999938964844,distr,-13.99993896484375,Fri Apr 11 2025 10:25:47 GMT-0500 (Central Daylight Time),803541.8999999985,B,None,O,None,4392,1,4398.39999999851,799143.5,7123,WL,B,15.0
7,0.8999998569488525,immed,59100.00014305115,Fri Apr 11 2025 10:25:47 GMT-0500 (Central Daylight Time),819086.0,A,s,O,s,888,1,899.7000000029802,818186.299999997,7123,WL,B,1.0
7,1.2319998741149902,immed,58768.00012588501,Fri Apr 11 2025 10:25:47 GMT-0500 (Central Daylight Time),819418.1999999955,A,st,O,t,316,1,1231.8999999985099,818186.299999997,7123,WL,B,1.0
7,1.5509998798370361,immed,58449.000120162964,Fri Apr 11 2025 10:25:47 GMT-0500 (Central Daylight Time),819737.1000000015,A,str,O,r,314,1,1550.8000000044703,818186.299999997,7123,WL,B,1.0
7,1.7149999141693115,immed,58285.00008583069,Fri Apr 11 2025 10:25:47 GMT-0500 (Central Daylight Time),819901.299999997,A,stre,O,e,151,1,1715.0,818186.299999997,7123,WL,B,1.0
7,1.931999921798706,immed,58068.000078201294,Fri Apr 11 2025 10:25:47 GMT-0500 (Central Daylight Time),820118.0,A,stree,O,e,195,1,1931.7000000029802,818186.299999997,7123,WL,B,1.0
7,2.248999834060669,immed,57751.00016593933,Fri Apr 11 2025 10:25:47 GMT-0500 (Central Daylight Time),820434.8999999985,A,streeenter,O,enter,295,1,2248.60000000149,818186.299999997,7123,WL,B,1.0
7,3.380999803543091,immed,56619.00019645691,Fri Apr 11 2025 10:25:47 GMT-0500 (Central Daylight Time),821567.6999999955,A,g,O,g,1127,1,1132.5999999940395,820435.1000000015,7123,WL,B,2.0
7,3.6489999294281006,immed,56351.0000705719,Fri Apr 11 2025 10:25:47 GMT-0500 (Central Daylight Time),821835.1000000015,A,gr,O,r,257,1,1400.0,820435.1000000015,7123,WL,B,2.0
7,3.7990000247955322,immed,56200.99997520447,Fri Apr 11 2025 10:25:47 GMT-0500 (Central Daylight Time),821985.299999997,A,gra,O,a,145,1,1550.1999999955297,820435.1000000015,7123,WL,B,2.0
7,4.06499981880188,immed,55935.00018119812,Fri Apr 11 2025 10:25:47 GMT-0500 (Central Daylight Time),822251.799999997,A,gras,O,s,256,1,1816.6999999955297,820435.1000000015,7123,WL,B,2.0
7,4.247999906539917,immed,55752.00009346008,Fri Apr 11 2025 10:25:47 GMT-0500 (Central Daylight Time),822434.1999999955,A,grass,O,s,166,1,1999.0999999940395,820435.1000000015,7123,WL,B,2.0
7,5.31499981880188,immed,54685.00018119812,Fri Apr 11 2025 10:25:47 GMT-0500 (Central Daylight Time),823501.1999999955,A,grassenter,O,enter,1047,1,3066.0999999940395,820435.1000000015,7123,WL,B,2.0
7,7.580999851226807,immed,52419.00014877319,Fri Apr 11 2025 10:25:47 GMT-0500 (Central Daylight Time),825766.8999999985,A,d,O,d,2252,1,2265.39999999851,823501.5,7123,WL,B,3.0
7,7.730999946594238,immed,52269.00005340576,Fri Apr 11 2025 10:25:47 GMT-0500 (Central Daylight Time),825916.799999997,A,do,O,o,140,1,2415.2999999970198,823501.5,7123,WL,B,3.0
7,7.947999954223633,immed,52052.00004577637,Fri Apr 11 2025 10:25:47 GMT-0500 (Central Daylight Time),826134.1000000015,A,doo,O,o,197,1,2632.60000000149,823501.5,7123,WL,B,3.0
7,8.19700002670288,immed,51802.99997329712,Fri Apr 11 2025 10:25:47 GMT-0500 (Central Daylight Time),826383.3999999985,A,door,O,r,235,1,2881.89999999851,823501.5,7123,WL,B,3.0
7,8.531999826431274,immed,51468.000173568726,Fri Apr 11 2025 10:25:47 GMT-0500 (Central Daylight Time),826718.3999999985,A,doorenter,O,enter,311,1,3216.89999999851,823501.5,7123,WL,B,3.0
7,8.96399998664856,immed,51036.00001335144,Fri Apr 11 2025 10:25:47 GMT-0500 (Central Daylight Time),827150.3999999985,A,a,O,a,411,1,431.8999999985099,826718.5,7123,WL,B,4.0
7,9.179999828338623,immed,50820.00017166138,Fri Apr 11 2025 10:25:47 GMT-0500 (Central Daylight Time),827366.0,A,ar,O,r,195,1,647.5,826718.5,7123,WL,B,4.0
7,9.414000034332275,immed,50585.999965667725,Fri Apr 11 2025 10:25:47 GMT-0500 (Central Daylight Time),827600.299999997,A,arm,O,m,227,1,881.7999999970198,826718.5,7123,WL,B,4.0
7,9.846999883651733,immed,50153.00011634827,Fri Apr 11 2025 10:25:47 GMT-0500 (Central Daylight Time),828033.0,A,armenter,O,enter,425,1,1314.5,826718.5,7123,WL,B,4.0
7,11.027999877929688,immed,48972.00012207031,Fri Apr 11 2025 10:25:47 GMT-0500 (Central Daylight Time),829213.8999999985,A,s,O,s,1176,1,1180.7000000029802,828033.1999999955,7123,WL,B,5.0
7,11.250999927520752,immed,48749.00007247925,Fri Apr 11 2025 10:25:47 GMT-0500 (Central Daylight Time),829437.3999999985,A,st,O,t,204,1,1404.2000000029802,828033.1999999955,7123,WL,B,5.0
7,11.412999868392944,immed,48587.000131607056,Fri Apr 11 2025 10:25:47 GMT-0500 (Central Daylight Time),829599.6000000015,A,sta,O,a,149,1,1566.4000000059605,828033.1999999955,7123,WL,B,5.0
7,11.496999979019165,immed,48503.000020980835,Fri Apr 11 2025 10:25:47 GMT-0500 (Central Daylight Time),829683.6000000015,A,star,O,r,72,1,1650.4000000059605,828033.1999999955,7123,WL,B,5.0
7,12.128999948501587,immed,47871.00005149841,Fri Apr 11 2025 10:25:47 GMT-0500 (Central Daylight Time),830314.799999997,A,starenter,O,enter,621,1,2281.60000000149,828033.1999999955,7123,WL,B,5.0
7,12.796000003814697,immed,47203.9999961853,Fri Apr 11 2025 10:25:47 GMT-0500 (Central Daylight Time),830982.6000000015,A,w,O,w,646,1,667.6000000014901,830315.0,7123,WL,B,6.0
7,12.978999853134155,immed,47021.000146865845,Fri Apr 11 2025 10:25:47 GMT-0500 (Central Daylight Time),831165.0,A,wi,O,i,161,1,850.0,830315.0,7123,WL,B,6.0
7,13.161999940872192,immed,46838.00005912781,Fri Apr 11 2025 10:25:47 GMT-0500 (Central Daylight Time),831348.5,A,wif,O,f,171,1,1033.5,830315.0,7123,WL,B,6.0
7,13.294999837875366,immed,46705.000162124634,Fri Apr 11 2025 10:25:47 GMT-0500 (Central Daylight Time),831481.299999997,A,wife,O,e,119,1,1166.2999999970198,830315.0,7123,WL,B,6.0
7,13.494999885559082,immed,46505.00011444092,Fri Apr 11 2025 10:25:47 GMT-0500 (Central Daylight Time),831681.299999997,A,wifeenter,O,enter,183,1,1366.2999999970198,830315.0,7123,WL,B,6.0
7,13.694999933242798,immed,46305.0000667572,Fri Apr 11 2025 10:25:47 GMT-0500 (Central Daylight Time),831881.6999999955,A,w,O,w,195,1,200.19999999552965,831681.5,7123,WL,B,7.0
7,13.860999822616577,immed,46139.00017738342,Fri Apr 11 2025 10:25:47 GMT-0500 (Central Daylight Time),832047.6999999955,A,wi,O,i,150,1,366.19999999552965,831681.5,7123,WL,B,7.0
