acc_sum,block,block_c,condition,correct,correct_response,datetime,endtime,flanker,jitter,project,response,response_test_buffer_response,response_test_target_response,response_time,response_time_test_buffer_response,response_time_test_target_response,row_sel,session_number,start_end,starttime,subject_id,target,task,task_vers,time_test_buffer,time_test_buffer_response,time_test_constants,time_test_flanker,time_test_jitter,time_test_logger,time_test_target,time_test_target_response,time_test_variables,trial
1,prac,1,con,1,m,Thu Mar 27 2025 10:38:02 GMT-0500 (Central Daylight Time),96367.5,bell,1000,O,m,,,1175,,,3,1,3480.800000011921,92886.69999998808,7106,bell,AF,A,,,,,,,,,,1
2,prac,1,con,1,z,Thu Mar 27 2025 10:38:02 GMT-0500 (Central Daylight Time),99283.30000001192,rage,1000,O,z,,,589,,,15,1,2888.5,96394.80000001192,7106,rage,AF,A,,,,,,,,,,2
3,prac,1,con,1,m,Thu Mar 27 2025 10:38:02 GMT-0500 (Central Daylight Time),101932.0,jacket,800,O,m,,,529,,,5,1,2626.599999964237,99305.40000003576,7106,jacket,AF,A,,,,,,,,,,3
3,prac,1,inc,0,z,Thu Mar 27 2025 10:38:02 GMT-0500 (Central Daylight Time),105347.60000002384,napkin,1100,O,m,,,998,,,12,1,3389.600000023842,101958.0,7106,friend,AF,A,,,,,,,,,,4
4,prac,1,inc,1,m,Thu Mar 27 2025 10:38:02 GMT-0500 (Central Daylight Time),108263.30000001192,elated,900,O,m,,,693,,,6,1,2896.399999976158,105366.90000003576,7106,napkin,AF,A,,,,,,,,,,5
5,prac,1,con,1,m,Thu Mar 27 2025 10:38:02 GMT-0500 (Central Daylight Time),111129.30000001192,remote,1000,O,m,,,533,,,7,1,2842.699999988079,108286.60000002384,7106,remote,AF,A,,,,,,,,,,6
6,prac,1,inc,1,m,Thu Mar 27 2025 10:38:02 GMT-0500 (Central Daylight Time),114227.90000003576,hate,1100,O,m,,,672,,,4,1,3074.7000000476837,111153.19999998808,7106,film,AF,A,,,,,,,,,,7
7,prac,1,inc,1,z,Thu Mar 27 2025 10:38:02 GMT-0500 (Central Daylight Time),117243.90000003576,window,1100,O,z,,,589,,,16,1,2998.100000023842,114245.80000001192,7106,temper,AF,A,,,,,,,,,,8
8,prac,1,con,1,m,Thu Mar 27 2025 10:38:02 GMT-0500 (Central Daylight Time),120059.40000003576,step,800,O,m,,,697,,,1,1,2791.600000023842,117267.80000001192,7106,step,AF,A,,,,,,,,,,9
9,prac,1,inc,1,z,Thu Mar 27 2025 10:38:02 GMT-0500 (Central Daylight Time),123141.69999998808,rock,900,O,z,,,861,,,10,1,3057.599999964237,120084.10000002384,7106,kind,AF,A,,,,,,,,,,10
9,prac,1,con,0,z,Thu Mar 27 2025 10:38:02 GMT-0500 (Central Daylight Time),125957.40000003576,brutal,800,O,m,,,694,,,13,1,2789.800000011921,123167.60000002384,7106,brutal,AF,A,,,,,,,,,,11
10,prac,1,inc,1,z,Thu Mar 27 2025 10:38:02 GMT-0500 (Central Daylight Time),129105.60000002384,film,900,O,z,,,915,,,14,1,3129.699999988079,125975.90000003576,7106,hate,AF,A,,,,,,,,,,12
11,prac,1,inc,1,m,Thu Mar 27 2025 10:38:02 GMT-0500 (Central Daylight Time),132255.19999998808,brutal,1100,O,m,,,743,,,8,1,3139.5,129115.69999998808,7106,window,AF,A,,,,,,,,,,13
12,prac,1,con,1,z,Thu Mar 27 2025 10:38:02 GMT-0500 (Central Daylight Time),135087.60000002384,love,1000,O,z,,,500,,,11,1,2812.199999988079,132275.40000003576,7106,love,AF,A,,,,,,,,,,14
13,prac,1,con,1,z,Thu Mar 27 2025 10:38:02 GMT-0500 (Central Daylight Time),137720.19999998808,elated,800,O,z,,,509,,,9,1,2608.7999999523163,135111.40000003576,7106,elated,AF,A,,,,,,,,,,15
14,prac,1,inc,1,m,Thu Mar 27 2025 10:38:02 GMT-0500 (Central Daylight Time),140619.10000002384,kind,900,O,m,,,671,,,2,1,2876.900000035763,137742.19999998808,7106,rock,AF,A,,,,,,,,,,16
1,test,1,con,1,m,Thu Mar 27 2025 10:38:02 GMT-0500 (Central Daylight Time),154081.60000002384,window,800,O,m,m,None,826,627.0,199.0,121,1,2160.5,151921.10000002384,7106,window,AF,A,147517,147517,145989,146801,145991,148150,147317,147317,148149,1
2,test,1,con,1,z,Thu Mar 27 2025 10:38:02 GMT-0500 (Central Daylight Time),156280.80000001192,kind,1100,O,z,z,None,543,344.0,199.0,12,1,2175.0,154105.80000001192,7106,kind,AF,A,150000,150000,148174,149283,148176,150349,149800,149800,150349,2
3,test,1,inc,1,z,Thu Mar 27 2025 10:38:02 GMT-0500 (Central Daylight Time),158463.19999998808,rock,900,O,z,z,None,720,521.0,199.0,46,1,2158.7999999523163,156304.40000003576,7106,hate,AF,A,151999,151999,150372,151283,150375,152531,151799,151799,152531,3
4,test,1,con,1,z,Thu Mar 27 2025 10:38:02 GMT-0500 (Central Daylight Time),160579.19999998808,rage,1000,O,z,z,None,551,351.0,200.0,51,1,2093.699999988079,158485.5,7106,rage,AF,A,154281,154281,152554,153566,152555,154647,154080,154080,154647,4
5,test,1,inc,1,z,Thu Mar 27 2025 10:38:02 GMT-0500 (Central Daylight Time),162579.0,napkin,900,O,z,z,None,533,334.0,199.0,6,1,1976.5999999642372,160602.40000003576,7106,elated,AF,A,156297,156298,154670,155581,154672,156647,156098,156098,156647,5
6,test,1,con,1,m,Thu Mar 27 2025 10:38:02 GMT-0500 (Central Daylight Time),164829.0,film,1000,O,m,m,None,698,499.0,199.0,91,1,2227.199999988079,162601.80000001192,7106,film,AF,A,158397,158397,156670,157679,156671,158897,158197,158197,158897,6
7,test,1,con,1,m,Thu Mar 27 2025 10:38:02 GMT-0500 (Central Daylight Time),166993.90000003576,bell,1000,O,m,m,None,600,385.0,215.0,83,1,2142.800000011921,164851.10000002384,7106,bell,AF,A,160663,160663,158919,159929,158921,161062,160447,160447,161062,7
8,test,1,inc,1,z,Thu Mar 27 2025 10:38:02 GMT-0500 (Central Daylight Time),168976.5,step,800,O,z,z,None,618,403.0,215.0,53,1,1962.800000011921,167013.69999998808,7106,rage,AF,A,162629,162629,161082,161896,161083,163045,162413,162413,163044,8
9,test,1,inc,1,m,Thu Mar 27 2025 10:38:02 GMT-0500 (Central Daylight Time),171042.30000001192,elated,800,O,m,m,None,708,509.0,199.0,101,1,2042.3999999761581,168999.90000003576,7106,jacket,AF,A,164594,164595,163068,163877,163070,165111,164395,164395,165110,9
10,test,1,inc,1,z,Thu Mar 27 2025 10:38:02 GMT-0500 (Central Daylight Time),173058.60000002384,step,800,O,z,z,None,658,459.0,199.0,45,1,1994.199999988079,171064.40000003576,7106,hate,AF,A,166661,166661,165132,165944,165133,167127,166461,166461,167127,10
11,test,1,con,1,m,Thu Mar 27 2025 10:38:02 GMT-0500 (Central Daylight Time),175190.69999998808,bell,800,O,m,m,None,778,579.0,199.0,81,1,2109.5,173081.19999998808,7106,bell,AF,A,168677,168677,167149,167961,167151,169259,168477,168477,169259,11
12,test,1,inc,1,m,Thu Mar 27 2025 10:38:02 GMT-0500 (Central Daylight Time),177240.40000003576,rage,800,O,m,m,None,693,478.0,215.0,85,1,2027.800000011921,175212.60000002384,7106,bell,AF,A,170826,170826,169281,170093,169282,171309,170610,170610,171308,12
13,test,1,inc,1,m,Thu Mar 27 2025 10:38:02 GMT-0500 (Central Daylight Time),179889.60000002384,brutal,900,O,m,m,None,1192,993.0,199.0,118,1,2626.5,177263.10000002384,7106,remote,AF,A,172959,172959,171331,172242,171333,173958,172759,172759,173958,13
14,test,1,inc,1,z,Thu Mar 27 2025 10:38:02 GMT-0500 (Central Daylight Time),181838.80000001192,step,800,O,z,z,None,595,396.0,199.0,21,1,1927.800000011921,179911.0,7106,love,AF,A,175508,175508,173979,174792,173981,175907,175308,175308,175907,14
15,test,1,inc,1,m,Thu Mar 27 2025 10:38:02 GMT-0500 (Central Daylight Time),184171.60000002384,love,1000,O,m,m,None,766,567.0,199.0,87,1,2309.400000035763,181862.19999998808,7106,bell,AF,A,177657,177657,175930,176941,175931,178240,177457,177457,178239,15
16,test,1,con,1,z,Thu Mar 27 2025 10:38:02 GMT-0500 (Central Daylight Time),186387.5,elated,1000,O,z,z,None,658,459.0,199.0,3,1,2193.899999976158,184193.60000002384,7106,elated,AF,A,179989,179989,178262,179272,178263,180456,179788,179789,180455,16
17,test,1,con,1,z,Thu Mar 27 2025 10:38:02 GMT-0500 (Central Daylight Time),188602.60000002384,brutal,800,O,z,z,None,846,632.0,214.0,33,1,2192.300000011921,186410.30000001192,7106,brutal,AF,A,182022,182022,180478,181289,180480,182671,181807,181807,182671,17
18,test,1,con,1,z,Thu Mar 27 2025 10:38:02 GMT-0500 (Central Daylight Time),190669.19999998808,love,1000,O,z,z,None,521,306.0,215.0,19,1,2061.399999976158,188607.80000001192,7106,love,AF,A,184421,184422,182676,183688,182676,184737,184206,184206,184737,18
19,test,1,con,1,m,Thu Mar 27 2025 10:38:02 GMT-0500 (Central Daylight Time),193135.0,remote,1100,O,m,m,None,811,596.0,215.0,116,1,2444.5,190690.5,7106,remote,AF,A,186604,186604,184759,185871,184760,187203,186388,186388,187203,19
20,test,1,con,1,z,Thu Mar 27 2025 10:38:02 GMT-0500 (Central Daylight Time),195184.69999998808,hate,800,O,z,z,None,685,470.0,215.0,41,1,2028.5,193156.19999998808,7106,hate,AF,A,188770,188770,187224,188037,187226,189253,188554,188554,189253,20
21,test,1,con,1,z,Thu Mar 27 2025 10:38:02 GMT-0500 (Central Daylight Time),197100.90000003576,love,900,O,z,z,None,464,265.0,199.0,18,1,1891.9000000357628,195209.0,7106,love,AF,A,190903,190903,189277,190187,189279,191169,190703,190703,191169,21
22,test,1,con,1,m,Thu Mar 27 2025 10:38:02 GMT-0500 (Central Daylight Time),199116.60000002384,window,900,O,m,m,None,556,357.0,199.0,122,1,1988.5,197128.10000002384,7106,window,AF,A,192819,192819,191196,192102,191198,193185,192619,192619,193185,22
23,test,1,con,1,z,Thu Mar 27 2025 10:38:02 GMT-0500 (Central Daylight Time),201099.40000003576,hate,900,O,z,z,None,524,325.0,199.0,42,1,1961.0,199138.40000003576,7106,hate,AF,A,194835,194835,193206,194119,193208,195168,194635,194635,195167,23
24,test,1,con,1,z,Thu Mar 27 2025 10:38:02 GMT-0500 (Central Daylight Time),203198.60000002384,kind,1000,O,z,z,None,545,330.0,215.0,11,1,2077.5,201121.10000002384,7106,kind,AF,A,196934,196934,195189,196201,195191,197267,196718,196718,197267,24
25,test,1,con,1,m,Thu Mar 27 2025 10:38:02 GMT-0500 (Central Daylight Time),205264.69999998808,rock,1000,O,m,m,None,510,311.0,199.0,75,1,2044.0,203220.69999998808,7106,rock,AF,A,199017,199017,197289,198301,197290,199333,198817,198817,199333,25
26,test,1,con,1,z,Thu Mar 27 2025 10:38:02 GMT-0500 (Central Daylight Time),207363.90000003576,hate,1100,O,z,z,None,432,233.0,199.0,44,1,2077.5,205286.40000003576,7106,hate,AF,A,201182,201183,199354,200466,199356,201432,200983,200983,201432,26
27,test,1,con,1,m,Thu Mar 27 2025 10:38:02 GMT-0500 (Central Daylight Time),209529.80000001192,bell,1100,O,m,m,None,499,285.0,214.0,84,1,2145.5,207384.30000001192,7106,bell,AF,A,203299,203299,201452,202566,201454,203598,203084,203084,203598,27
28,test,1,con,1,z,Thu Mar 27 2025 10:38:02 GMT-0500 (Central Daylight Time),211679.19999998808,rage,1100,O,z,z,None,495,280.0,215.0,52,1,2127.2999999523163,209551.90000003576,7106,rage,AF,A,205464,205464,203620,204732,203621,205747,205249,205249,205747,28
29,test,1,inc,1,z,Thu Mar 27 2025 10:38:02 GMT-0500 (Central Daylight Time),213994.19999998808,film,1100,O,z,z,None,656,441.0,215.0,16,1,2293.7999999523163,211700.40000003576,7106,kind,AF,A,207614,207614,205768,206881,205770,208062,207398,207398,208062,29
30,test,1,con,1,m,Thu Mar 27 2025 10:38:02 GMT-0500 (Central Daylight Time),216094.5,napkin,900,O,m,m,None,655,456.0,199.0,106,1,2095.0,213999.5,7106,napkin,AF,A,209696,209696,208068,208980,208068,210163,209496,209496,210162,30
31,test,1,inc,1,z,Thu Mar 27 2025 10:38:02 GMT-0500 (Central Daylight Time),218460.19999998808,window,1100,O,z,z,None,706,507.0,199.0,32,1,2344.2999999523163,216115.90000003576,7106,friend,AF,A,212012,212013,210184,211296,210186,212528,211813,211813,212528,31
32,test,1,con,1,z,Thu Mar 27 2025 10:38:02 GMT-0500 (Central Daylight Time),220709.5,friend,1100,O,z,z,None,588,374.0,214.0,28,1,2227.099999964237,218482.40000003576,7106,friend,AF,A,214394,214394,212550,213662,212552,214778,214179,214179,214778,32
33,test,1,con,1,z,Thu Mar 27 2025 10:38:02 GMT-0500 (Central Daylight Time),222575.40000003576,rage,800,O,z,z,None,520,321.0,199.0,49,1,1853.7000000476837,220721.69999998808,7106,rage,AF,A,216311,216311,214790,215594,214791,216644,216111,216111,216643,33
34,test,1,con,1,m,Thu Mar 27 2025 10:38:02 GMT-0500 (Central Daylight Time),224725.10000002384,bell,900,O,m,m,None,697,498.0,199.0,82,1,2129.699999988079,222595.40000003576,7106,bell,AF,A,218294,218294,216663,217578,216665,218793,218094,218094,218793,34
35,test,1,con,1,z,Thu Mar 27 2025 10:38:02 GMT-0500 (Central Daylight Time),226640.69999998808,friend,800,O,z,z,None,551,336.0,215.0,25,1,1894.699999988079,224746.0,7106,friend,AF,A,220360,220360,218814,219627,218816,220709,220144,220144,220709,35
36,test,1,con,1,z,Thu Mar 27 2025 10:38:02 GMT-0500 (Central Daylight Time),228756.80000001192,elated,1100,O,z,z,None,456,241.0,215.0,4,1,2094.399999976158,226662.40000003576,7106,elated,AF,A,222575,222575,220730,221843,220732,222825,222360,222360,222825,36
37,test,1,inc,1,z,Thu Mar 27 2025 10:38:02 GMT-0500 (Central Daylight Time),230972.69999998808,film,1100,O,z,z,None,556,357.0,199.0,24,1,2195.199999988079,228777.5,7106,love,AF,A,224675,224675,222846,223959,222847,225041,224475,224475,225041,37
38,test,1,con,1,z,Thu Mar 27 2025 10:38:02 GMT-0500 (Central Daylight Time),233022.0,brutal,900,O,z,z,None,596,397.0,199.0,34,1,2029.300000011921,230992.69999998808,7106,brutal,AF,A,226691,226691,225061,225975,225062,227090,226491,226491,227090,38
39,test,1,con,1,z,Thu Mar 27 2025 10:38:02 GMT-0500 (Central Daylight Time),235121.30000001192,hate,1000,O,z,z,None,542,327.0,215.0,43,1,2079.300000011921,233042.0,7106,hate,AF,A,228857,228857,227110,228124,227111,229189,228640,228641,229189,39
40,test,1,con,1,m,Thu Mar 27 2025 10:38:02 GMT-0500 (Central Daylight Time),237187.40000003576,napkin,1000,O,m,m,None,507,308.0,199.0,107,1,2044.5,235142.90000003576,7106,napkin,AF,A,230940,230940,229211,230223,229212,231256,230740,230740,231255,40
41,test,1,inc,1,z,Thu Mar 27 2025 10:38:02 GMT-0500 (Central Daylight Time),239386.60000002384,bell,1000,O,z,z,None,641,442.0,199.0,23,1,2178.900000035763,237207.69999998808,7106,love,AF,A,233006,233006,231276,232290,231277,233455,232806,232806,233455,41
42,test,1,inc,1,m,Thu Mar 27 2025 10:38:02 GMT-0500 (Central Daylight Time),241652.5,kind,900,O,m,m,None,806,607.0,199.0,86,1,2243.800000011921,239408.69999998808,7106,bell,AF,A,235105,235105,233477,234388,233478,235721,234905,234905,235721,42
43,test,1,inc,1,z,Thu Mar 27 2025 10:38:02 GMT-0500 (Central Daylight Time),243834.19999998808,remote,1000,O,z,z,None,622,423.0,199.0,39,1,2160.899999976158,241673.30000001192,7106,brutal,AF,A,237471,237471,235741,236755,235743,237902,237271,237271,237902,43
44,test,1,inc,1,m,Thu Mar 27 2025 10:38:02 GMT-0500 (Central Daylight Time),245867.80000001192,elated,800,O,m,m,None,690,491.0,199.0,109,1,2028.199999988079,243839.60000002384,7106,napkin,AF,A,239437,239437,237908,238720,237908,239936,239237,239237,239936,44
45,test,1,inc,1,z,Thu Mar 27 2025 10:38:02 GMT-0500 (Central Daylight Time),248067.19999998808,remote,1000,O,z,z,None,641,442.0,199.0,31,1,2181.2999999523163,245885.90000003576,7106,friend,AF,A,241686,241686,239954,240970,239955,242135,241486,241486,242135,45
46,test,1,inc,1,z,Thu Mar 27 2025 10:38:02 GMT-0500 (Central Daylight Time),250349.69999998808,remote,1000,O,z,z,None,721,506.0,215.0,63,1,2261.0,248088.69999998808,7106,temper,AF,A,243902,243902,242157,243169,242159,244418,243686,243686,244418,46
47,test,1,con,1,z,Thu Mar 27 2025 10:38:02 GMT-0500 (Central Daylight Time),252515.69999998808,kind,900,O,z,z,None,707,508.0,199.0,10,1,2144.899999976158,250370.80000001192,7106,kind,AF,A,246067,246068,244439,245351,244440,246584,245868,245868,246584,47
48,test,1,inc,1,z,Thu Mar 27 2025 10:38:02 GMT-0500 (Central Daylight Time),254848.40000003576,jacket,800,O,z,z,None,969,770.0,199.0,29,1,2312.900000035763,252535.5,7106,friend,AF,A,248134,248134,246604,247417,246605,248917,247934,247934,248916,48
49,test,1,inc,1,z,Thu Mar 27 2025 10:38:02 GMT-0500 (Central Daylight Time),256864.0,napkin,900,O,z,z,None,553,354.0,199.0,30,1,1994.800000011921,254869.19999998808,7106,friend,AF,A,250566,250566,248937,249850,248939,250932,250366,250367,250932,49
50,test,1,inc,1,m,Thu Mar 27 2025 10:38:02 GMT-0500 (Central Daylight Time),259180.10000002384,friend,1100,O,m,m,None,649,450.0,199.0,104,1,2293.699999988079,256886.40000003576,7106,jacket,AF,A,252782,252782,250954,252066,250956,253248,252583,252583,253248,50
51,test,1,con,1,m,Thu Mar 27 2025 10:38:02 GMT-0500 (Central Daylight Time),261562.5,rock,900,O,m,m,None,916,717.0,199.0,74,1,2361.800000011921,259200.69999998808,7106,rock,AF,A,254899,254899,253269,254182,253270,255631,254699,254699,255631,51
52,test,1,con,1,m,Thu Mar 27 2025 10:38:02 GMT-0500 (Central Daylight Time),263811.90000003576,rock,1100,O,m,m,None,590,391.0,199.0,76,1,2228.2000000476837,261583.69999998808,7106,rock,AF,A,257481,257481,255652,256765,255653,257880,257281,257281,257880,52
53,test,1,inc,1,m,Thu Mar 27 2025 10:38:02 GMT-0500 (Central Daylight Time),266161.10000002384,friend,1100,O,m,m,None,685,486.0,199.0,120,1,2327.699999988079,263833.40000003576,7106,remote,AF,A,259730,259730,257901,259014,257903,260229,259530,259530,260229,53
54,test,1,inc,1,m,Thu Mar 27 2025 10:38:02 GMT-0500 (Central Daylight Time),268610.0,friend,1100,O,m,m,None,791,576.0,215.0,128,1,2427.800000011921,266182.1999999881,7106,window,AF,A,262096,262096,260250,261363,260252,262678,261880,261880,262678,54
55,test,1,con,1,z,Thu Mar 27 2025 10:38:02 GMT-0500 (Central Daylight Time),270909.5,friend,1000,O,z,z,None,738,523.0,215.0,27,1,2279.099999964237,268630.40000003576,7106,friend,AF,A,264445,264445,262698,263712,262700,264978,264229,264229,264977,55
56,test,1,con,1,m,Thu Mar 27 2025 10:38:02 GMT-0500 (Central Daylight Time),272992.10000002384,remote,800,O,m,m,None,719,520.0,199.0,113,1,2062.199999988079,270929.90000003576,7106,remote,AF,A,266528,266528,264998,265812,264999,267060,266328,266328,267060,56
57,test,1,con,1,m,Thu Mar 27 2025 10:38:02 GMT-0500 (Central Daylight Time),275141.60000002384,napkin,1100,O,m,m,None,488,273.0,215.0,108,1,2127.699999988079,273013.90000003576,7106,napkin,AF,A,268927,268927,267082,268194,267083,269210,268711,268711,269210,57
58,test,1,inc,1,z,Thu Mar 27 2025 10:38:02 GMT-0500 (Central Daylight Time),277640.8000000119,window,1100,O,z,z,None,843,644.0,199.0,64,1,2479.699999988079,275161.10000002384,7106,temper,AF,A,271060,271060,269229,270343,269231,271709,270860,270860,271709,58
59,test,1,con,1,z,Thu Mar 27 2025 10:38:02 GMT-0500 (Central Daylight Time),279923.3000000119,brutal,1100,O,z,z,None,616,417.0,199.0,36,1,2260.899999976158,277662.40000003576,7106,brutal,AF,A,273559,273559,271730,272842,271732,273991,273359,273359,273991,59
60,test,1,con,1,z,Thu Mar 27 2025 10:38:02 GMT-0500 (Central Daylight Time),281856.0,kind,800,O,z,z,None,570,371.0,199.0,9,1,1911.300000011921,279944.6999999881,7106,kind,AF,A,275541,275541,274013,274824,274015,275924,275342,275342,275924,60
61,test,1,con,1,m,Thu Mar 27 2025 10:38:02 GMT-0500 (Central Daylight Time),283838.8000000119,jacket,900,O,m,m,None,520,305.0,215.0,98,1,1961.800000011921,281877.0,7106,jacket,AF,A,277591,277591,275945,276858,275947,277907,277375,277375,277907,61
62,test,1,inc,1,m,Thu Mar 27 2025 10:38:02 GMT-0500 (Central Daylight Time),286304.5,hate,1100,O,m,m,None,810,611.0,199.0,80,1,2444.5,283860.0,7106,rock,AF,A,279756,279757,277928,279040,277930,280373,279557,279557,280373,62
63,test,1,con,1,z,Thu Mar 27 2025 10:38:02 GMT-0500 (Central Daylight Time),288403.1999999881,temper,1100,O,z,z,None,447,248.0,199.0,60,1,2076.0,286327.1999999881,7106,temper,AF,A,282223,282223,280395,281506,280397,282471,282023,282023,282471,63
64,test,1,inc,1,z,Thu Mar 27 2025 10:38:02 GMT-0500 (Central Daylight Time),290569.1999999881,bell,1000,O,z,z,None,616,402.0,214.0,47,1,2158.199999988079,288411.0,7106,hate,AF,A,284221,284221,282479,283489,282480,284637,284006,284006,284637,64
65,test,1,con,1,z,Thu Mar 27 2025 10:38:02 GMT-0500 (Central Daylight Time),292952.40000003576,temper,900,O,z,z,None,936,737.0,199.0,58,1,2377.900000035763,290574.5,7106,temper,AF,A,286271,286271,284643,285555,284643,287021,286072,286072,287020,65
66,test,1,con,1,z,Thu Mar 27 2025 10:38:02 GMT-0500 (Central Daylight Time),295101.8000000119,friend,900,O,z,z,None,688,489.0,199.0,26,1,2128.699999988079,292973.10000002384,7106,friend,AF,A,288670,288671,287041,287954,287043,289170,288471,288471,289170,66
67,test,1,inc,1,m,Thu Mar 27 2025 10:38:02 GMT-0500 (Central Daylight Time),297384.3000000119,love,1000,O,m,m,None,727,528.0,199.0,71,1,2260.0,295124.3000000119,7106,step,AF,A,290920,290920,289192,290203,289194,291452,290720,290720,291452,67
68,test,1,inc,1,m,Thu Mar 27 2025 10:38:02 GMT-0500 (Central Daylight Time),299900.6999999881,love,1000,O,m,m,None,964,765.0,199.0,95,1,2496.599999964237,297404.10000002384,7106,film,AF,A,293202,293203,291472,292486,291474,293969,293003,293003,293969,68
69,test,1,con,1,z,Thu Mar 27 2025 10:38:02 GMT-0500 (Central Daylight Time),301732.8000000119,love,800,O,z,z,None,473,274.0,199.0,17,1,1812.199999988079,299920.60000002384,7106,love,AF,A,295518,295518,293989,294802,293990,295801,295318,295318,295801,69
70,test,1,con,1,z,Thu Mar 27 2025 10:38:02 GMT-0500 (Central Daylight Time),303764.6999999881,brutal,1000,O,z,z,None,470,271.0,199.0,35,1,2012.199999988079,301752.5,7106,brutal,AF,A,297551,297551,295821,296835,295822,297833,297351,297351,297833,70
71,test,1,inc,1,z,Thu Mar 27 2025 10:38:02 GMT-0500 (Central Daylight Time),305914.8000000119,napkin,900,O,z,z,None,700,501.0,199.0,38,1,2144.0,303770.8000000119,7106,brutal,AF,A,299467,299467,297839,298750,297839,299983,299267,299267,299983,71
72,test,1,inc,1,z,Thu Mar 27 2025 10:38:02 GMT-0500 (Central Daylight Time),308164.10000002384,bell,1000,O,z,z,None,683,484.0,199.0,15,1,2229.0,305935.10000002384,7106,kind,AF,A,301732,301732,300003,301016,300005,302232,301533,301533,302232,72
73,test,1,inc,1,z,Thu Mar 27 2025 10:38:02 GMT-0500 (Central Daylight Time),310130.0,rock,900,O,z,z,None,508,293.0,215.0,22,1,1945.5,308184.5,7106,love,AF,A,303899,303899,302252,303166,302254,304198,303683,303683,304198,73
74,test,1,con,1,m,Thu Mar 27 2025 10:38:02 GMT-0500 (Central Daylight Time),312362.8000000119,window,1000,O,m,m,None,667,468.0,199.0,123,1,2211.5,310151.3000000119,7106,window,AF,A,305948,305948,304219,305231,304221,306431,305749,305749,306431,74
75,test,1,inc,1,m,Thu Mar 27 2025 10:38:02 GMT-0500 (Central Daylight Time),314561.90000003576,rage,800,O,m,m,None,842,643.0,199.0,77,1,2179.2000000476837,312382.6999999881,7106,rock,AF,A,307981,307981,306451,307265,306452,308630,307781,307781,308630,75
76,test,1,inc,1,m,Thu Mar 27 2025 10:38:02 GMT-0500 (Central Daylight Time),316961.10000002384,friend,1100,O,m,m,None,743,544.0,199.0,112,1,2379.300000011921,314581.8000000119,7106,napkin,AF,A,310480,310480,308650,309764,308651,311029,310280,310280,311029,76
77,test,1,con,1,m,Thu Mar 27 2025 10:38:02 GMT-0500 (Central Daylight Time),319160.40000003576,step,800,O,m,m,None,835,620.0,215.0,65,1,2179.5,316980.90000003576,7106,step,AF,A,312596,312596,311049,311863,311051,313229,312380,312380,313228,77
78,test,1,inc,1,z,Thu Mar 27 2025 10:38:02 GMT-0500 (Central Daylight Time),321159.6999999881,jacket,800,O,z,z,None,644,445.0,199.0,5,1,1980.7999999523163,319178.90000003576,7106,elated,AF,A,314779,314779,313247,314062,313248,315228,314579,314579,315228,78
79,test,1,con,1,m,Thu Mar 27 2025 10:38:02 GMT-0500 (Central Daylight Time),323409.0,jacket,1000,O,m,m,None,692,477.0,215.0,99,1,2226.599999964237,321182.40000003576,7106,jacket,AF,A,316995,316995,315250,316262,315251,317477,316779,316779,317477,79
80,test,1,inc,1,z,Thu Mar 27 2025 10:38:02 GMT-0500 (Central Daylight Time),325341.8000000119,jacket,800,O,z,z,None,571,356.0,215.0,61,1,1912.5,323429.3000000119,7106,temper,AF,A,319044,319044,317497,318311,317499,319410,318828,318828,319410,80
81,test,1,inc,1,m,Thu Mar 27 2025 10:38:02 GMT-0500 (Central Daylight Time),327641.0,rage,800,O,m,m,None,934,719.0,215.0,69,1,2279.5,325361.5,7106,step,AF,A,320977,320977,319430,320244,319431,321709,320761,320761,321709,81
82,test,1,inc,1,z,Thu Mar 27 2025 10:38:02 GMT-0500 (Central Daylight Time),329906.8000000119,film,1100,O,z,z,None,606,392.0,214.0,48,1,2244.600000023842,327662.1999999881,7106,hate,AF,A,323576,323576,321730,322844,321731,323975,323361,323361,323975,82
83,test,1,inc,1,z,Thu Mar 27 2025 10:38:02 GMT-0500 (Central Daylight Time),332056.3000000119,rock,900,O,z,z,None,686,487.0,199.0,54,1,2128.899999976158,329927.40000003576,7106,rage,AF,A,325625,325625,323995,324909,323997,326124,325425,325425,326124,83
84,test,1,con,1,m,Thu Mar 27 2025 10:38:02 GMT-0500 (Central Daylight Time),334188.90000003576,napkin,800,O,m,m,None,772,557.0,215.0,105,1,2111.800000011921,332077.10000002384,7106,napkin,AF,A,327691,327691,326145,326958,326147,328257,327475,327475,328257,84
85,test,1,con,1,z,Thu Mar 27 2025 10:38:02 GMT-0500 (Central Daylight Time),336354.8000000119,love,1100,O,z,z,None,508,309.0,199.0,20,1,2144.699999988079,334210.10000002384,7106,love,AF,A,330107,330107,328278,329391,328280,330423,329907,329907,330423,85
86,test,1,con,1,z,Thu Mar 27 2025 10:38:02 GMT-0500 (Central Daylight Time),338404.5,temper,1000,O,z,z,None,498,299.0,199.0,59,1,2028.699999988079,336375.8000000119,7106,temper,AF,A,332173,332173,330444,331456,330445,332473,331973,331973,332473,86
87,test,1,inc,1,m,Thu Mar 27 2025 10:38:02 GMT-0500 (Central Daylight Time),340603.3000000119,temper,1000,O,m,m,None,640,425.0,215.0,111,1,2178.600000023842,338424.6999999881,7106,napkin,AF,A,334239,334239,332493,333506,332494,334671,334023,334023,334671,87
88,test,1,inc,1,m,Thu Mar 27 2025 10:38:02 GMT-0500 (Central Daylight Time),342836.10000002384,brutal,900,O,m,m,None,774,559.0,215.0,102,1,2213.300000011921,340622.8000000119,7106,jacket,AF,A,336337,336337,334691,335605,334692,336904,336122,336122,336904,88
89,test,1,inc,1,m,Thu Mar 27 2025 10:38:02 GMT-0500 (Central Daylight Time),344818.8000000119,elated,800,O,m,m,None,616,417.0,199.0,117,1,1962.699999988079,342856.10000002384,7106,remote,AF,A,338455,338455,336924,337738,336926,338887,338254,338255,338887,89
90,test,1,inc,1,z,Thu Mar 27 2025 10:38:02 GMT-0500 (Central Daylight Time),346934.40000003576,jacket,800,O,z,z,None,762,563.0,199.0,37,1,2095.100000023842,344839.3000000119,7106,brutal,AF,A,340437,340437,338907,339721,338909,341002,340237,340237,341002,90
91,test,1,con,1,m,Thu Mar 27 2025 10:38:02 GMT-0500 (Central Daylight Time),349134.0,remote,1000,O,m,m,None,638,439.0,199.0,115,1,2181.0,346953.0,7106,remote,AF,A,342753,342753,341021,342037,341022,343202,342553,342553,343202,91
92,test,1,inc,1,z,Thu Mar 27 2025 10:38:02 GMT-0500 (Central Daylight Time),351483.0,window,1100,O,z,z,None,692,492.0,200.0,40,1,2328.899999976158,349154.10000002384,7106,brutal,AF,A,345052,345052,343222,344334,343224,345551,344851,344851,345551,92
93,test,1,inc,1,z,Thu Mar 27 2025 10:38:02 GMT-0500 (Central Daylight Time),353732.40000003576,remote,1000,O,z,z,None,689,474.0,215.0,7,1,2229.2000000476837,351503.1999999881,7106,elated,AF,A,347318,347318,345571,346585,345573,347801,347102,347102,347800,93
94,test,1,inc,1,m,Thu Mar 27 2025 10:38:02 GMT-0500 (Central Daylight Time),356048.3000000119,kind,900,O,m,m,None,852,653.0,199.0,94,1,2295.800000011921,353752.5,7106,film,AF,A,349450,349451,347821,348734,347822,350116,349251,349251,350116,94
95,test,1,inc,1,m,Thu Mar 27 2025 10:38:02 GMT-0500 (Central Daylight Time),359130.6999999881,hate,1100,O,m,m,None,1416,1201.0,215.0,88,1,3063.0,356067.6999999881,7106,bell,AF,A,351983,351983,350136,351250,350137,353199,351767,351767,353199,95
96,test,1,inc,1,m,Thu Mar 27 2025 10:38:02 GMT-0500 (Central Daylight Time),361096.40000003576,elated,800,O,m,m,None,610,411.0,199.0,125,1,1945.800000011921,359150.60000002384,7106,window,AF,A,354749,354749,353219,354032,353220,355165,354549,354549,355164,96
97,test,1,con,1,z,Thu Mar 27 2025 10:38:02 GMT-0500 (Central Daylight Time),363196.60000002384,rage,900,O,z,z,None,648,449.0,199.0,50,1,2082.300000011921,361114.3000000119,7106,rage,AF,A,356815,356815,355182,356099,355183,357265,356615,356615,357265,97
98,test,1,con,1,z,Thu Mar 27 2025 10:38:02 GMT-0500 (Central Daylight Time),365344.90000003576,elated,900,O,z,z,None,693,494.0,199.0,2,1,2131.100000023842,363213.8000000119,7106,elated,AF,A,358914,358914,357282,358198,357283,359413,358714,358714,359413,98
99,test,1,inc,1,m,Thu Mar 27 2025 10:38:02 GMT-0500 (Central Daylight Time),367344.5,kind,900,O,m,m,None,559,360.0,199.0,70,1,1986.5,365358.0,7106,step,AF,A,361048,361048,359426,360331,359427,361413,360847,360847,361413,99
100,test,1,inc,1,m,Thu Mar 27 2025 10:38:02 GMT-0500 (Central Daylight Time),369293.5,rage,800,O,m,m,None,596,381.0,215.0,93,1,1929.0,367364.5,7106,film,AF,A,362979,362979,361433,362247,361434,363362,362764,362764,363361,100
101,test,1,con,1,m,Thu Mar 27 2025 10:38:02 GMT-0500 (Central Daylight Time),371526.5,step,1000,O,m,m,None,679,480.0,199.0,67,1,2212.099999964237,369314.40000003576,7106,step,AF,A,365112,365112,363382,364396,363384,365595,364912,364912,365594,101
102,test,1,inc,1,m,Thu Mar 27 2025 10:38:02 GMT-0500 (Central Daylight Time),373575.90000003576,brutal,900,O,m,m,None,586,387.0,199.0,110,1,2029.4000000357628,371546.5,7106,napkin,AF,A,367245,367245,365615,366528,365616,367644,367045,367045,367644,102
103,test,1,inc,1,z,Thu Mar 27 2025 10:38:02 GMT-0500 (Central Daylight Time),375741.60000002384,napkin,900,O,z,z,None,713,514.0,199.0,62,1,2145.0,373596.60000002384,7106,temper,AF,A,369294,369294,367665,368578,367666,369810,369094,369094,369810,103
104,test,1,inc,1,m,Thu Mar 27 2025 10:38:02 GMT-0500 (Central Daylight Time),377924.40000003576,temper,1000,O,m,m,None,631,417.0,214.0,119,1,2163.100000023842,375761.3000000119,7106,remote,AF,A,371575,371575,369829,370843,369831,371992,371361,371361,371992,104
105,test,1,inc,1,m,Thu Mar 27 2025 10:38:02 GMT-0500 (Central Daylight Time),380223.5,hate,1100,O,m,m,None,645,446.0,199.0,72,1,2282.599999964237,377940.90000003576,7106,step,AF,A,373842,373842,372009,373126,372010,374292,373643,373643,374291,105
106,test,1,inc,1,m,Thu Mar 27 2025 10:38:02 GMT-0500 (Central Daylight Time),382206.60000002384,brutal,900,O,m,m,None,522,323.0,199.0,126,1,1962.5,380244.10000002384,7106,window,AF,A,375941,375941,374312,375225,374314,376275,375742,375742,376275,106
107,test,1,inc,1,z,Thu Mar 27 2025 10:38:02 GMT-0500 (Central Daylight Time),384355.60000002384,bell,1000,O,z,z,None,583,384.0,199.0,55,1,2129.0,382226.60000002384,7106,rage,AF,A,378024,378024,376295,377308,376296,378424,377825,377825,378424,107
108,test,1,inc,1,z,Thu Mar 27 2025 10:38:02 GMT-0500 (Central Daylight Time),386587.40000003576,film,1100,O,z,z,None,572,373.0,199.0,56,1,2212.0,384375.40000003576,7106,rage,AF,A,380274,380274,378443,379557,378445,380656,380074,380074,380655,108
109,test,1,con,1,z,Thu Mar 27 2025 10:38:02 GMT-0500 (Central Daylight Time),388720.90000003576,elated,800,O,z,z,None,785,586.0,199.0,1,1,2126.2000000476837,386594.6999999881,7106,elated,AF,A,382190,382190,380663,381473,380663,382789,381990,381990,382789,109
110,test,1,inc,1,z,Thu Mar 27 2025 10:38:02 GMT-0500 (Central Daylight Time),390903.5,window,1100,O,z,z,None,529,329.0,200.0,8,1,2162.399999976158,388741.10000002384,7106,elated,AF,A,384639,384639,382809,383923,382811,384972,384439,384439,384971,110
111,test,1,con,1,m,Thu Mar 27 2025 10:38:02 GMT-0500 (Central Daylight Time),393186.10000002384,step,1100,O,m,m,None,625,425.0,200.0,68,1,2262.199999988079,390923.90000003576,7106,step,AF,A,386823,386823,384992,386107,384994,387254,386622,386622,387254,111
112,test,1,con,1,m,Thu Mar 27 2025 10:38:02 GMT-0500 (Central Daylight Time),395302.10000002384,remote,900,O,m,m,None,656,456.0,200.0,114,1,2095.900000035763,393206.1999999881,7106,remote,AF,A,388904,388904,387274,388188,387276,389370,388704,388704,389370,112
113,test,1,inc,1,m,Thu Mar 27 2025 10:38:02 GMT-0500 (Central Daylight Time),397784.60000002384,hate,1100,O,m,m,None,819,620.0,199.0,96,1,2462.300000011921,395322.3000000119,7106,film,AF,A,391220,391220,389390,390504,389392,391853,391020,391020,391853,113
114,test,1,con,1,m,Thu Mar 27 2025 10:38:02 GMT-0500 (Central Daylight Time),400066.90000003576,window,1100,O,m,m,None,625,426.0,199.0,124,1,2262.0,397804.90000003576,7106,window,AF,A,393702,393702,391873,392986,391874,394135,393503,393503,394135,114
115,test,1,con,1,m,Thu Mar 27 2025 10:38:02 GMT-0500 (Central Daylight Time),401966.40000003576,film,800,O,m,m,None,548,347.0,201.0,89,1,1881.1000000238419,400085.3000000119,7106,film,AF,A,395685,395685,394153,394969,394154,396035,395484,395484,396034,115
116,test,1,con,1,m,Thu Mar 27 2025 10:38:02 GMT-0500 (Central Daylight Time),403865.90000003576,jacket,800,O,m,m,None,542,343.0,199.0,97,1,1879.2000000476837,401986.6999999881,7106,jacket,AF,A,397585,397585,396055,396867,396056,397934,397385,397385,397934,116
116,test,1,con,0,z,Thu Mar 27 2025 10:38:02 GMT-0500 (Central Daylight Time),405748.5,temper,800,O,m,m,None,523,324.0,199.0,57,1,1863.0,403885.5,7106,temper,AF,A,399484,399484,397954,398769,397955,399817,399284,399284,399817,117
117,test,1,inc,1,m,Thu Mar 27 2025 10:38:02 GMT-0500 (Central Daylight Time),407965.0,love,1000,O,m,m,None,664,465.0,199.0,79,1,2197.199999988079,405767.8000000119,7106,rock,AF,A,401567,401567,399836,400850,399837,402033,401367,401367,402033,118
118,test,1,con,1,m,Thu Mar 27 2025 10:38:02 GMT-0500 (Central Daylight Time),410147.1999999881,step,900,O,m,m,None,724,525.0,199.0,66,1,2161.199999988079,407986.0,7106,step,AF,A,403682,403683,402054,402966,402056,404215,403483,403483,404215,119
119,test,1,con,1,m,Thu Mar 27 2025 10:38:02 GMT-0500 (Central Daylight Time),412229.90000003576,film,900,O,m,m,None,622,423.0,199.0,90,1,2065.0,410164.90000003576,7106,film,AF,A,405865,405865,404233,405149,404234,406298,405666,405666,406298,120
120,test,1,con,1,m,Thu Mar 27 2025 10:38:02 GMT-0500 (Central Daylight Time),414412.5,film,1100,O,m,m,None,515,316.0,199.0,92,1,2163.300000011921,412249.1999999881,7106,film,AF,A,408148,408148,406317,407431,406319,408481,407948,407948,408480,121
121,test,1,con,1,m,Thu Mar 27 2025 10:38:02 GMT-0500 (Central Daylight Time),416345.1999999881,rock,800,O,m,m,None,568,369.0,199.0,73,1,1912.3999999761581,414432.8000000119,7106,rock,AF,A,410031,410031,408501,409315,408502,410413,409831,409831,410413,122
122,test,1,con,1,m,Thu Mar 27 2025 10:38:02 GMT-0500 (Central Daylight Time),418511.3000000119,jacket,1100,O,m,m,None,511,296.0,215.0,100,1,2145.600000023842,416365.6999999881,7106,jacket,AF,A,412280,412280,410434,411547,410435,412579,412064,412064,412579,123
123,test,1,inc,1,m,Thu Mar 27 2025 10:38:02 GMT-0500 (Central Daylight Time),420710.40000003576,temper,1000,O,m,m,None,646,447.0,199.0,127,1,2179.300000011921,418531.10000002384,7106,window,AF,A,414329,414329,412599,413613,412601,414778,414129,414129,414778,124
124,test,1,inc,1,z,Thu Mar 27 2025 10:38:02 GMT-0500 (Central Daylight Time),422808.90000003576,step,800,O,z,z,None,741,542.0,199.0,13,1,2081.0,420727.90000003576,7106,kind,AF,A,416328,416329,414796,415612,414797,416877,416129,416129,416877,125
125,test,1,inc,1,z,Thu Mar 27 2025 10:38:02 GMT-0500 (Central Daylight Time),424841.60000002384,rock,900,O,z,z,None,585,385.0,200.0,14,1,2026.5,422815.10000002384,7106,kind,AF,A,418510,418510,416883,417793,416884,418910,418310,418310,418910,126
126,test,1,inc,1,m,Thu Mar 27 2025 10:38:02 GMT-0500 (Central Daylight Time),426858.10000002384,kind,900,O,m,m,None,575,376.0,199.0,78,1,2010.6000000238419,424847.5,7106,rock,AF,A,420544,420544,418916,419826,418916,420926,420344,420344,420926,127
127,test,1,inc,1,m,Thu Mar 27 2025 10:38:02 GMT-0500 (Central Daylight Time),428974.40000003576,temper,1000,O,m,m,None,563,364.0,199.0,103,1,2098.800000011921,426875.60000002384,7106,jacket,AF,A,422676,422676,420944,421960,420945,423042,422477,422477,423042,128
