acc_sum,block,block_c,change,condition,correct,correct_response,datetime,endtime,face,project,response,response_time,row_sel,session_number,start_end,starttime,subject_id,task,task_vers,trial
0,prac,1,,1-Back,,,Thu Nov 14 2024 16:56:51 GMT-0600 (Central Standard Time),,012_o_f_d_a.png,O,space,22236,1,1,,,7034,VNB,C,0
1,prac,1,0.0,1-Back,1,m,Thu Nov 14 2024 16:56:51 GMT-0600 (Central Standard Time),193314.2999999998,022_y_f_n_a.png,O,m,1510,2,1,2405.0,190909.2999999998,7034,VNB,C,1
1,prac,1,0.0,1-Back,0,m,Thu Nov 14 2024 16:56:51 GMT-0600 (Central Standard Time),196196.59999999963,014_m_m_h_a.png,O,None,2014,3,1,2876.899999999441,193319.7000000002,7034,VNB,C,2
2,prac,1,0.0,1-Back,1,m,Thu Nov 14 2024 16:56:51 GMT-0600 (Central Standard Time),198962.39999999944,025_y_m_d_a.png,O,m,1899,4,1,2759.699999999255,196202.7000000002,7034,VNB,C,3
3,prac,1,0.0,1-Back,1,m,Thu Nov 14 2024 16:56:51 GMT-0600 (Central Standard Time),201395.2000000002,012_o_f_n_a.png,O,m,1548,5,1,2427.2000000001863,198968.0,7034,VNB,C,4
3,prac,1,1.0,1-Back,0,z,Thu Nov 14 2024 16:56:51 GMT-0600 (Central Standard Time),202961.2999999998,025_y_m_n_a.png,O,m,703,6,1,1560.5999999996275,201400.7000000002,7034,VNB,C,5
4,prac,1,0.0,1-Back,1,m,Thu Nov 14 2024 16:56:51 GMT-0600 (Central Standard Time),205010.7000000002,015_o_m_h_a.png,O,m,1144,7,1,2042.7000000001863,202968.0,7034,VNB,C,6
4,prac,1,0.0,1-Back,0,m,Thu Nov 14 2024 16:56:51 GMT-0600 (Central Standard Time),206626.5,019_m_f_d_a.png,O,z,725,8,1,1610.0,205016.5,7034,VNB,C,7
4,prac,1,1.0,1-Back,0,z,Thu Nov 14 2024 16:56:51 GMT-0600 (Central Standard Time),208875.89999999944,022_y_f_d_a.png,O,m,1351,9,1,2244.2999999998137,206631.59999999963,7034,VNB,C,8
4,prac,1,0.0,1-Back,0,m,Thu Nov 14 2024 16:56:51 GMT-0600 (Central Standard Time),211758.39999999944,014_m_m_n_a.png,O,None,2017,10,1,2876.699999999255,208881.7000000002,7034,VNB,C,9
4,prac,1,0.0,1-Back,0,m,Thu Nov 14 2024 16:56:51 GMT-0600 (Central Standard Time),214657.59999999963,012_o_f_h_a.png,O,None,2017,11,1,2893.399999999441,211764.2000000002,7034,VNB,C,10
4,prac,1,0.0,1-Back,0,m,Thu Nov 14 2024 16:56:51 GMT-0600 (Central Standard Time),217523.2000000002,025_y_m_d_a.png,O,None,2002,12,1,2860.0,214663.2000000002,7034,VNB,C,11
0,prac,2,0.0,1-Back,,,Thu Nov 14 2024 16:56:51 GMT-0600 (Central Standard Time),217523.2000000002,012_o_f_d_a.png,O,a,4355,1,1,2860.0,214663.2000000002,7034,VNB,C,0
1,prac,2,0.0,1-Back,1,m,Thu Nov 14 2024 16:56:51 GMT-0600 (Central Standard Time),227536.7000000002,022_y_f_n_a.png,O,m,1719,2,1,2609.600000000559,224927.09999999963,7034,VNB,C,1
2,prac,2,0.0,1-Back,1,m,Thu Nov 14 2024 16:56:51 GMT-0600 (Central Standard Time),229602.89999999944,014_m_m_h_a.png,O,m,1189,3,1,2060.699999999255,227542.2000000002,7034,VNB,C,2
3,prac,2,0.0,1-Back,1,m,Thu Nov 14 2024 16:56:51 GMT-0600 (Central Standard Time),231619.0,025_y_m_d_a.png,O,m,1241,4,1,2010.2000000001863,229608.7999999998,7034,VNB,C,3
4,prac,2,0.0,1-Back,1,m,Thu Nov 14 2024 16:56:51 GMT-0600 (Central Standard Time),233768.2000000002,012_o_f_n_a.png,O,m,1261,5,1,2144.0,231624.2000000002,7034,VNB,C,4
5,prac,2,1.0,1-Back,1,z,Thu Nov 14 2024 16:56:51 GMT-0600 (Central Standard Time),235700.7999999998,025_y_m_n_a.png,O,z,1056,6,1,1927.2000000001863,233773.59999999963,7034,VNB,C,5
6,prac,2,0.0,1-Back,1,m,Thu Nov 14 2024 16:56:51 GMT-0600 (Central Standard Time),237350.39999999944,015_o_m_h_a.png,O,m,750,7,1,1643.0,235707.39999999944,7034,VNB,C,6
6,prac,2,0.0,1-Back,0,m,Thu Nov 14 2024 16:56:51 GMT-0600 (Central Standard Time),238933.2999999998,019_m_f_d_a.png,O,z,685,8,1,1576.5999999996275,237356.7000000002,7034,VNB,C,7
7,prac,2,1.0,1-Back,1,z,Thu Nov 14 2024 16:56:51 GMT-0600 (Central Standard Time),241765.7000000002,022_y_f_d_a.png,O,z,1931,9,1,2827.300000000745,238938.39999999944,7034,VNB,C,8
8,prac,2,0.0,1-Back,1,m,Thu Nov 14 2024 16:56:51 GMT-0600 (Central Standard Time),243765.2000000002,014_m_m_n_a.png,O,m,987,10,1,1994.300000000745,241770.89999999944,7034,VNB,C,9
9,prac,2,0.0,1-Back,1,m,Thu Nov 14 2024 16:56:51 GMT-0600 (Central Standard Time),245631.39999999944,012_o_f_h_a.png,O,m,969,11,1,1861.0999999996275,243770.2999999998,7034,VNB,C,10
10,prac,2,0.0,1-Back,1,m,Thu Nov 14 2024 16:56:51 GMT-0600 (Central Standard Time),247597.09999999963,025_y_m_d_a.png,O,m,1097,12,1,1960.7999999998137,245636.2999999998,7034,VNB,C,11
0,test,1,0.0,1-Back,,,Thu Nov 14 2024 16:56:51 GMT-0600 (Central Standard Time),247597.09999999963,022_y_f_d_a.png,O,space,17459,1,1,1960.7999999998137,245636.2999999998,7034,VNB,C,0
1,test,1,0.0,1-Back,1,m,Thu Nov 14 2024 16:56:51 GMT-0600 (Central Standard Time),277537.7000000002,019_m_f_n_a.png,O,m,824,2,1,1845.1000000005588,275692.5999999996,7034,VNB,C,1
2,test,1,0.0,1-Back,1,m,Thu Nov 14 2024 16:56:51 GMT-0600 (Central Standard Time),279420.5,015_o_m_h_a.png,O,m,814,3,1,1879.0,277541.5,7034,VNB,C,2
3,test,1,1.0,1-Back,1,z,Thu Nov 14 2024 16:56:51 GMT-0600 (Central Standard Time),281403.2000000002,014_m_m_h_a.png,O,z,924,4,1,1979.0,279424.2000000002,7034,VNB,C,3
4,test,1,0.0,1-Back,1,m,Thu Nov 14 2024 16:56:51 GMT-0600 (Central Standard Time),283302.5,012_o_f_n_a.png,O,m,804,5,1,1895.5,281407.0,7034,VNB,C,4
5,test,1,0.0,1-Back,1,m,Thu Nov 14 2024 16:56:51 GMT-0600 (Central Standard Time),285351.89999999944,025_y_m_d_a.png,O,m,969,6,1,2045.5,283306.39999999944,7034,VNB,C,5
6,test,1,1.0,1-Back,1,z,Thu Nov 14 2024 16:56:51 GMT-0600 (Central Standard Time),286984.7000000002,019_m_f_d_a.png,O,z,577,7,1,1628.800000000745,285355.89999999944,7034,VNB,C,6
7,test,1,0.0,1-Back,1,m,Thu Nov 14 2024 16:56:51 GMT-0600 (Central Standard Time),288717.39999999944,022_y_f_h_a.png,O,m,638,8,1,1728.8999999994412,286988.5,7034,VNB,C,7
8,test,1,0.0,1-Back,1,m,Thu Nov 14 2024 16:56:51 GMT-0600 (Central Standard Time),290650.2999999998,015_o_m_n_a.png,O,m,850,9,1,1928.7000000001863,288721.5999999996,7034,VNB,C,8
9,test,1,0.0,1-Back,1,m,Thu Nov 14 2024 16:56:51 GMT-0600 (Central Standard Time),292333.2000000002,025_y_m_h_a.png,O,m,622,10,1,1679.2000000001863,290654.0,7034,VNB,C,9
10,test,1,0.0,1-Back,1,m,Thu Nov 14 2024 16:56:51 GMT-0600 (Central Standard Time),294182.5,015_o_m_d_a.png,O,m,795,11,1,1845.7000000001863,292336.7999999998,7034,VNB,C,10
11,test,1,1.0,1-Back,1,z,Thu Nov 14 2024 16:56:51 GMT-0600 (Central Standard Time),295981.89999999944,012_o_f_d_a.png,O,z,746,12,1,1795.7999999998137,294186.0999999996,7034,VNB,C,11
12,test,1,0.0,1-Back,1,m,Thu Nov 14 2024 16:56:51 GMT-0600 (Central Standard Time),297698.2000000002,014_m_m_n_a.png,O,m,633,13,1,1711.9000000003725,295986.2999999998,7034,VNB,C,12
13,test,1,1.0,1-Back,1,z,Thu Nov 14 2024 16:56:51 GMT-0600 (Central Standard Time),299697.5,022_y_f_n_a.png,O,z,917,14,1,1994.9000000003725,297702.5999999996,7034,VNB,C,13
14,test,1,0.0,1-Back,1,m,Thu Nov 14 2024 16:56:51 GMT-0600 (Central Standard Time),301446.89999999944,019_m_f_h_a.png,O,m,687,15,1,1745.5999999996275,299701.2999999998,7034,VNB,C,14
15,test,1,0.0,1-Back,1,m,Thu Nov 14 2024 16:56:51 GMT-0600 (Central Standard Time),303379.5999999996,014_m_m_d_a.png,O,m,873,16,1,1928.2000000001863,301451.39999999944,7034,VNB,C,15
16,test,1,0.0,1-Back,1,m,Thu Nov 14 2024 16:56:51 GMT-0600 (Central Standard Time),305145.7000000002,025_y_m_n_a.png,O,m,700,17,1,1762.2000000001863,303383.5,7034,VNB,C,16
17,test,1,0.0,1-Back,1,m,Thu Nov 14 2024 16:56:51 GMT-0600 (Central Standard Time),306928.39999999944,012_o_f_h_a.png,O,m,725,18,1,1779.199999999255,305149.2000000002,7034,VNB,C,17
0,test,2,0.0,1-Back,,,Thu Nov 14 2024 16:56:51 GMT-0600 (Central Standard Time),306928.39999999944,025_y_m_n_a.png,O,space,1601,1,1,1779.199999999255,305149.2000000002,7034,VNB,C,0
1,test,2,0.0,1-Back,1,m,Thu Nov 14 2024 16:56:51 GMT-0600 (Central Standard Time),312226.5999999996,022_y_f_h_a.png,O,m,632,2,1,1662.0999999996275,310564.5,7034,VNB,C,1
2,test,2,1.0,1-Back,1,m,Thu Nov 14 2024 16:56:51 GMT-0600 (Central Standard Time),314292.7999999998,015_o_m_n_a.png,O,m,1038,3,1,2062.0,312230.7999999998,7034,VNB,C,2
3,test,2,0.0,1-Back,1,m,Thu Nov 14 2024 16:56:51 GMT-0600 (Central Standard Time),316225.5999999996,019_m_f_d_a.png,O,m,909,4,1,1929.0,314296.5999999996,7034,VNB,C,3
4,test,2,0.0,1-Back,1,z,Thu Nov 14 2024 16:56:51 GMT-0600 (Central Standard Time),317858.39999999944,014_m_m_d_a.png,O,z,616,5,1,1628.8999999994412,316229.5,7034,VNB,C,4
5,test,2,0.0,1-Back,1,m,Thu Nov 14 2024 16:56:51 GMT-0600 (Central Standard Time),319407.89999999944,025_y_m_h_a.png,O,m,519,6,1,1545.5,317862.39999999944,7034,VNB,C,5
6,test,2,1.0,1-Back,1,z,Thu Nov 14 2024 16:56:51 GMT-0600 (Central Standard Time),321157.89999999944,012_o_f_h_a.png,O,z,722,7,1,1746.5999999996275,319411.2999999998,7034,VNB,C,6
7,test,2,0.0,1-Back,1,m,Thu Nov 14 2024 16:56:51 GMT-0600 (Central Standard Time),322756.7999999998,019_m_f_n_a.png,O,m,580,8,1,1594.9000000003725,321161.89999999944,7034,VNB,C,7
8,test,2,0.0,1-Back,1,m,Thu Nov 14 2024 16:56:51 GMT-0600 (Central Standard Time),324306.39999999944,022_y_f_d_a.png,O,m,525,9,1,1545.0999999996275,322761.2999999998,7034,VNB,C,8
9,test,2,0.0,1-Back,1,m,Thu Nov 14 2024 16:56:51 GMT-0600 (Central Standard Time),325889.39999999944,014_m_m_n_a.png,O,m,559,10,1,1579.0999999996275,324310.2999999998,7034,VNB,C,9
10,test,2,1.0,1-Back,1,m,Thu Nov 14 2024 16:56:51 GMT-0600 (Central Standard Time),327705.2000000002,019_m_f_h_a.png,O,m,792,11,1,1812.2000000001863,325893.0,7034,VNB,C,10
11,test,2,0.0,1-Back,1,z,Thu Nov 14 2024 16:56:51 GMT-0600 (Central Standard Time),329604.7999999998,015_o_m_h_a.png,O,z,872,12,1,1895.7000000001863,327709.0999999996,7034,VNB,C,11
12,test,2,0.0,1-Back,1,m,Thu Nov 14 2024 16:56:51 GMT-0600 (Central Standard Time),331254.2999999998,025_y_m_d_a.png,O,m,629,13,1,1646.2999999998137,329608.0,7034,VNB,C,12
12,test,2,0.0,1-Back,0,m,Thu Nov 14 2024 16:56:51 GMT-0600 (Central Standard Time),332970.0999999996,012_o_f_n_a.png,O,z,683,14,1,1711.8999999994412,331258.2000000002,7034,VNB,C,13
12,test,2,0.0,1-Back,0,z,Thu Nov 14 2024 16:56:51 GMT-0600 (Central Standard Time),334653.0999999996,022_y_f_n_a.png,O,m,663,15,1,1679.0999999996275,332974.0,7034,VNB,C,14
13,test,2,1.0,1-Back,1,m,Thu Nov 14 2024 16:56:51 GMT-0600 (Central Standard Time),336819.0,014_m_m_h_a.png,O,m,1140,16,1,2161.600000000559,334657.39999999944,7034,VNB,C,15
14,test,2,0.0,1-Back,1,m,Thu Nov 14 2024 16:56:51 GMT-0600 (Central Standard Time),338618.7000000002,012_o_f_d_a.png,O,m,734,17,1,1795.7000000001863,336823.0,7034,VNB,C,16
15,test,2,1.0,1-Back,1,z,Thu Nov 14 2024 16:56:51 GMT-0600 (Central Standard Time),340518.0,015_o_m_d_a.png,O,z,821,18,1,1894.9000000003725,338623.0999999996,7034,VNB,C,17
0,test,3,1.0,1-Back,,,Thu Nov 14 2024 16:56:51 GMT-0600 (Central Standard Time),340518.0,012_o_f_h_a.png,O,space,1291,1,1,1894.9000000003725,338623.0999999996,7034,VNB,C,0
1,test,3,0.0,1-Back,1,m,Thu Nov 14 2024 16:56:51 GMT-0600 (Central Standard Time),345633.2000000002,019_m_f_d_a.png,O,m,626,2,1,1695.9000000003725,343937.2999999998,7034,VNB,C,1
2,test,3,1.0,1-Back,1,m,Thu Nov 14 2024 16:56:51 GMT-0600 (Central Standard Time),347932.39999999944,014_m_m_n_a.png,O,m,1230,3,1,2295.0,345637.39999999944,7034,VNB,C,2
3,test,3,0.0,1-Back,1,z,Thu Nov 14 2024 16:56:51 GMT-0600 (Central Standard Time),350114.7999999998,012_o_f_n_a.png,O,z,1133,4,1,2178.7000000001863,347936.0999999996,7034,VNB,C,3
4,test,3,1.0,1-Back,1,m,Thu Nov 14 2024 16:56:51 GMT-0600 (Central Standard Time),351981.0999999996,015_o_m_d_a.png,O,m,813,5,1,1862.5999999996275,350118.5,7034,VNB,C,4
5,test,3,0.0,1-Back,1,m,Thu Nov 14 2024 16:56:51 GMT-0600 (Central Standard Time),353698.2999999998,022_y_f_h_a.png,O,m,659,6,1,1712.7999999998137,351985.5,7034,VNB,C,5
6,test,3,0.0,1-Back,1,z,Thu Nov 14 2024 16:56:51 GMT-0600 (Central Standard Time),355629.7999999998,025_y_m_h_a.png,O,z,854,7,1,1925.7999999998137,353704.0,7034,VNB,C,6
7,test,3,0.0,1-Back,1,m,Thu Nov 14 2024 16:56:51 GMT-0600 (Central Standard Time),357279.5999999996,019_m_f_n_a.png,O,m,594,8,1,1645.8999999994412,355633.7000000002,7034,VNB,C,7
8,test,3,0.0,1-Back,1,m,Thu Nov 14 2024 16:56:51 GMT-0600 (Central Standard Time),359045.5999999996,022_y_f_d_a.png,O,m,705,9,1,1762.2000000001863,357283.39999999944,7034,VNB,C,8
9,test,3,1.0,1-Back,1,m,Thu Nov 14 2024 16:56:51 GMT-0600 (Central Standard Time),360961.5,015_o_m_n_a.png,O,m,858,10,1,1912.2999999998137,359049.2000000002,7034,VNB,C,9
10,test,3,0.0,1-Back,1,m,Thu Nov 14 2024 16:56:51 GMT-0600 (Central Standard Time),362711.7000000002,014_m_m_h_a.png,O,m,678,11,1,1746.5,360965.2000000002,7034,VNB,C,10
11,test,3,0.0,1-Back,1,z,Thu Nov 14 2024 16:56:51 GMT-0600 (Central Standard Time),364310.5999999996,019_m_f_h_a.png,O,z,520,12,1,1594.7999999998137,362715.7999999998,7034,VNB,C,11
12,test,3,1.0,1-Back,1,m,Thu Nov 14 2024 16:56:51 GMT-0600 (Central Standard Time),365993.5,012_o_f_d_a.png,O,m,601,13,1,1678.9000000003725,364314.5999999996,7034,VNB,C,12
12,test,3,0.0,1-Back,0,z,Thu Nov 14 2024 16:56:51 GMT-0600 (Central Standard Time),368792.39999999944,014_m_m_d_a.png,O,m,1768,14,1,2795.699999999255,365996.7000000002,7034,VNB,C,13
13,test,3,0.0,1-Back,1,m,Thu Nov 14 2024 16:56:51 GMT-0600 (Central Standard Time),370492.0,025_y_m_n_a.png,O,m,631,15,1,1695.6000000005588,368796.39999999944,7034,VNB,C,14
14,test,3,1.0,1-Back,1,m,Thu Nov 14 2024 16:56:51 GMT-0600 (Central Standard Time),372357.89999999944,015_o_m_h_a.png,O,m,787,16,1,1862.3999999994412,370495.5,7034,VNB,C,15
15,test,3,0.0,1-Back,1,m,Thu Nov 14 2024 16:56:51 GMT-0600 (Central Standard Time),374057.5999999996,025_y_m_d_a.png,O,m,625,17,1,1695.8999999994412,372361.7000000002,7034,VNB,C,16
16,test,3,1.0,1-Back,1,m,Thu Nov 14 2024 16:56:51 GMT-0600 (Central Standard Time),376006.89999999944,022_y_f_n_a.png,O,m,886,18,1,1945.3999999994412,374061.5,7034,VNB,C,17
0,test,4,1.0,1-Back,,,Thu Nov 14 2024 16:56:51 GMT-0600 (Central Standard Time),376006.89999999944,014_m_m_d_a.png,O,space,1275,1,1,1945.3999999994412,374061.5,7034,VNB,C,0
1,test,4,0.0,1-Back,1,z,Thu Nov 14 2024 16:56:51 GMT-0600 (Central Standard Time),381588.39999999944,015_o_m_d_a.png,O,z,1172,2,1,2195.0999999996275,379393.2999999998,7034,VNB,C,1
2,test,4,0.0,1-Back,1,m,Thu Nov 14 2024 16:56:51 GMT-0600 (Central Standard Time),383221.2999999998,025_y_m_h_a.png,O,m,605,3,1,1628.7000000001863,381592.5999999996,7034,VNB,C,2
3,test,4,0.0,1-Back,1,m,Thu Nov 14 2024 16:56:51 GMT-0600 (Central Standard Time),384854.0999999996,019_m_f_n_a.png,O,m,602,4,1,1628.8999999994412,383225.2000000002,7034,VNB,C,3
4,test,4,1.0,1-Back,1,m,Thu Nov 14 2024 16:56:51 GMT-0600 (Central Standard Time),386603.5999999996,012_o_f_h_a.png,O,m,723,5,1,1745.3999999994412,384858.2000000002,7034,VNB,C,4
5,test,4,0.0,1-Back,1,m,Thu Nov 14 2024 16:56:51 GMT-0600 (Central Standard Time),388286.2999999998,014_m_m_n_a.png,O,m,654,6,1,1678.7999999998137,386607.5,7034,VNB,C,5
6,test,4,0.0,1-Back,1,m,Thu Nov 14 2024 16:56:51 GMT-0600 (Central Standard Time),390319.2000000002,025_y_m_d_a.png,O,m,1011,7,1,2029.6000000005588,388289.5999999996,7034,VNB,C,6
7,test,4,1.0,1-Back,1,z,Thu Nov 14 2024 16:56:51 GMT-0600 (Central Standard Time),392185.2000000002,022_y_f_d_a.png,O,z,834,8,1,1862.2000000001863,390323.0,7034,VNB,C,7
8,test,4,0.0,1-Back,1,m,Thu Nov 14 2024 16:56:51 GMT-0600 (Central Standard Time),393851.0999999996,019_m_f_h_a.png,O,m,648,9,1,1662.5,392188.5999999996,7034,VNB,C,8
9,test,4,0.0,1-Back,1,z,Thu Nov 14 2024 16:56:51 GMT-0600 (Central Standard Time),395468.5,015_o_m_h_a.png,O,z,598,10,1,1613.4000000003725,393855.0999999996,7034,VNB,C,9
10,test,4,1.0,1-Back,1,m,Thu Nov 14 2024 16:56:51 GMT-0600 (Central Standard Time),397050.39999999944,012_o_f_n_a.png,O,m,516,11,1,1577.8999999994412,395472.5,7034,VNB,C,10
11,test,4,0.0,1-Back,1,m,Thu Nov 14 2024 16:56:51 GMT-0600 (Central Standard Time),398933.0,019_m_f_d_a.png,O,m,822,12,1,1879.1000000005588,397053.89999999944,7034,VNB,C,11
12,test,4,0.0,1-Back,1,m,Thu Nov 14 2024 16:56:51 GMT-0600 (Central Standard Time),400999.0999999996,022_y_f_n_a.png,O,m,1003,13,1,2062.7000000001863,398936.39999999944,7034,VNB,C,12
13,test,4,0.0,1-Back,1,m,Thu Nov 14 2024 16:56:51 GMT-0600 (Central Standard Time),402698.5999999996,012_o_f_d_a.png,O,m,617,14,1,1695.5999999996275,401003.0,7034,VNB,C,13
14,test,4,0.0,1-Back,1,m,Thu Nov 14 2024 16:56:51 GMT-0600 (Central Standard Time),404431.2000000002,022_y_f_h_a.png,O,m,677,15,1,1729.0,402702.2000000002,7034,VNB,C,14
15,test,4,1.0,1-Back,1,z,Thu Nov 14 2024 16:56:51 GMT-0600 (Central Standard Time),406114.0,014_m_m_h_a.png,O,z,617,16,1,1678.7999999998137,404435.2000000002,7034,VNB,C,15
16,test,4,0.0,1-Back,1,m,Thu Nov 14 2024 16:56:51 GMT-0600 (Central Standard Time),407846.5,015_o_m_n_a.png,O,m,678,17,1,1728.9000000003725,406117.5999999996,7034,VNB,C,16
17,test,4,1.0,1-Back,1,z,Thu Nov 14 2024 16:56:51 GMT-0600 (Central Standard Time),409814.0999999996,025_y_m_n_a.png,O,z,855,18,1,1963.0999999996275,407851.0,7034,VNB,C,17
0,test,5,1.0,1-Back,,,Thu Nov 14 2024 16:56:51 GMT-0600 (Central Standard Time),409814.0999999996,015_o_m_n_a.png,O,space,1211,1,1,1963.0999999996275,407851.0,7034,VNB,C,0
1,test,5,1.0,1-Back,1,m,Thu Nov 14 2024 16:56:51 GMT-0600 (Central Standard Time),414612.5999999996,012_o_f_h_a.png,O,m,548,2,1,1563.5,413049.0999999996,7034,VNB,C,1
2,test,5,0.0,1-Back,1,m,Thu Nov 14 2024 16:56:51 GMT-0600 (Central Standard Time),416344.2000000002,025_y_m_d_a.png,O,m,702,3,1,1727.6000000005588,414616.5999999996,7034,VNB,C,2
3,test,5,0.0,1-Back,1,z,Thu Nov 14 2024 16:56:51 GMT-0600 (Central Standard Time),417877.39999999944,015_o_m_d_a.png,O,z,505,4,1,1529.2999999998137,416348.0999999996,7034,VNB,C,3
4,test,5,0.0,1-Back,1,m,Thu Nov 14 2024 16:56:51 GMT-0600 (Central Standard Time),419393.39999999944,019_m_f_h_a.png,O,m,493,5,1,1512.3999999994412,417881.0,7034,VNB,C,4
5,test,5,0.0,1-Back,1,m,Thu Nov 14 2024 16:56:51 GMT-0600 (Central Standard Time),421059.5999999996,022_y_f_n_a.png,O,m,640,6,1,1662.0,419397.5999999996,7034,VNB,C,5
6,test,5,1.0,1-Back,1,z,Thu Nov 14 2024 16:56:51 GMT-0600 (Central Standard Time),422808.89999999944,012_o_f_n_a.png,O,z,718,7,1,1746.2999999998137,421062.5999999996,7034,VNB,C,6
7,test,5,0.0,1-Back,1,m,Thu Nov 14 2024 16:56:51 GMT-0600 (Central Standard Time),424375.0999999996,019_m_f_d_a.png,O,m,546,8,1,1562.3999999994412,422812.7000000002,7034,VNB,C,7
8,test,5,0.0,1-Back,1,m,Thu Nov 14 2024 16:56:51 GMT-0600 (Central Standard Time),425924.39999999944,025_y_m_h_a.png,O,m,530,9,1,1545.5999999996275,424378.7999999998,7034,VNB,C,8
9,test,5,0.0,1-Back,1,m,Thu Nov 14 2024 16:56:51 GMT-0600 (Central Standard Time),427490.7000000002,022_y_f_d_a.png,O,m,549,10,1,1562.7000000001863,425928.0,7034,VNB,C,9
10,test,5,0.0,1-Back,1,m,Thu Nov 14 2024 16:56:51 GMT-0600 (Central Standard Time),429073.7000000002,014_m_m_n_a.png,O,m,558,11,1,1579.2000000001863,427494.5,7034,VNB,C,10
11,test,5,1.0,1-Back,1,z,Thu Nov 14 2024 16:56:51 GMT-0600 (Central Standard Time),430606.39999999944,019_m_f_n_a.png,O,z,512,12,1,1528.699999999255,429077.7000000002,7034,VNB,C,11
12,test,5,0.0,1-Back,1,m,Thu Nov 14 2024 16:56:51 GMT-0600 (Central Standard Time),432156.0999999996,015_o_m_h_a.png,O,m,531,13,1,1545.5999999996275,430610.5,7034,VNB,C,12
13,test,5,0.0,1-Back,1,z,Thu Nov 14 2024 16:56:51 GMT-0600 (Central Standard Time),433805.39999999944,014_m_m_h_a.png,O,z,621,14,1,1646.0999999996275,432159.2999999998,7034,VNB,C,13
14,test,5,1.0,1-Back,1,m,Thu Nov 14 2024 16:56:51 GMT-0600 (Central Standard Time),435388.2000000002,012_o_f_d_a.png,O,m,565,15,1,1578.6000000005588,433809.5999999996,7034,VNB,C,14
15,test,5,0.0,1-Back,1,m,Thu Nov 14 2024 16:56:51 GMT-0600 (Central Standard Time),436971.0999999996,025_y_m_n_a.png,O,m,558,16,1,1580.0999999996275,435391.0,7034,VNB,C,15
16,test,5,0.0,1-Back,1,m,Thu Nov 14 2024 16:56:51 GMT-0600 (Central Standard Time),438604.0999999996,022_y_f_h_a.png,O,m,613,17,1,1629.2999999998137,436974.7999999998,7034,VNB,C,16
17,test,5,0.0,1-Back,1,m,Thu Nov 14 2024 16:56:51 GMT-0600 (Central Standard Time),440453.39999999944,014_m_m_d_a.png,O,m,829,18,1,1845.3999999994412,438608.0,7034,VNB,C,17
0,prac,1,0.0,2-Back,,,Thu Nov 14 2024 16:56:51 GMT-0600 (Central Standard Time),440453.39999999944,019_m_f_n_a.png,O,space,11329,1,1,1845.3999999994412,438608.0,7034,VNB,C,0
0,prac,1,0.0,2-Back,,,Thu Nov 14 2024 16:56:51 GMT-0600 (Central Standard Time),440453.39999999944,012_o_f_h_a.png,O,space,11329,2,1,1845.3999999994412,438608.0,7034,VNB,C,0
1,prac,1,0.0,2-Back,1,m,Thu Nov 14 2024 16:56:51 GMT-0600 (Central Standard Time),550752.2999999998,015_o_m_d_a.png,O,m,1378,3,1,2266.0999999996275,548486.2000000002,7034,VNB,C,1
2,prac,1,1.0,2-Back,1,z,Thu Nov 14 2024 16:56:51 GMT-0600 (Central Standard Time),552901.7999999998,014_m_m_h_a.png,O,z,1267,4,1,2144.2999999998137,550757.5,7034,VNB,C,2
3,prac,1,0.0,2-Back,1,m,Thu Nov 14 2024 16:56:51 GMT-0600 (Central Standard Time),554484.5,022_y_f_n_a.png,O,m,681,5,1,1577.4000000003725,552907.0999999996,7034,VNB,C,3
3,prac,1,1.0,2-Back,0,z,Thu Nov 14 2024 16:56:51 GMT-0600 (Central Standard Time),556583.7999999998,015_o_m_h_a.png,O,m,1195,6,1,2094.7000000001863,554489.0999999996,7034,VNB,C,4
3,prac,1,1.0,2-Back,0,z,Thu Nov 14 2024 16:56:51 GMT-0600 (Central Standard Time),558366.5,025_y_m_n_a.png,O,m,914,7,1,1777.1000000005588,556589.3999999994,7034,VNB,C,5
4,prac,1,0.0,2-Back,1,m,Thu Nov 14 2024 16:56:51 GMT-0600 (Central Standard Time),561015.7999999998,019_m_f_d_a.png,O,m,1745,8,1,2644.0999999996275,558371.7000000002,7034,VNB,C,6
4,prac,1,0.0,2-Back,0,m,Thu Nov 14 2024 16:56:51 GMT-0600 (Central Standard Time),563914.5,012_o_f_d_a.png,O,None,2011,9,1,2893.2999999998137,561021.2000000002,7034,VNB,C,7
5,prac,1,0.0,2-Back,1,m,Thu Nov 14 2024 16:56:51 GMT-0600 (Central Standard Time),565697.3999999994,014_m_m_h_a.png,O,m,995,10,1,1777.3999999994412,563920.0,7034,VNB,C,8
5,prac,1,1.0,2-Back,0,z,Thu Nov 14 2024 16:56:51 GMT-0600 (Central Standard Time),567663.3999999994,022_y_f_d_a.png,O,m,1071,11,1,1960.699999999255,565702.7000000002,7034,VNB,C,9
6,prac,1,0.0,2-Back,1,m,Thu Nov 14 2024 16:56:51 GMT-0600 (Central Standard Time),569546.3999999994,015_o_m_n_a.png,O,m,980,12,1,1876.5999999996275,567669.7999999998,7034,VNB,C,10
0,prac,2,0.0,2-Back,,,Thu Nov 14 2024 16:56:51 GMT-0600 (Central Standard Time),569546.3999999994,019_m_f_n_a.png,O,a,4869,1,1,1876.5999999996275,567669.7999999998,7034,VNB,C,0
0,prac,2,0.0,2-Back,,,Thu Nov 14 2024 16:56:51 GMT-0600 (Central Standard Time),569546.3999999994,012_o_f_h_a.png,O,a,4869,2,1,1876.5999999996275,567669.7999999998,7034,VNB,C,0
0,prac,2,0.0,2-Back,0,m,Thu Nov 14 2024 16:56:51 GMT-0600 (Central Standard Time),582592.0999999996,015_o_m_d_a.png,O,None,2011,3,1,2893.5999999996275,579698.5,7034,VNB,C,1
0,prac,2,1.0,2-Back,0,z,Thu Nov 14 2024 16:56:51 GMT-0600 (Central Standard Time),585141.2999999998,014_m_m_h_a.png,O,m,1765,4,1,2544.2999999998137,582597.0,7034,VNB,C,2
0,prac,2,0.0,2-Back,0,m,Thu Nov 14 2024 16:56:51 GMT-0600 (Central Standard Time),587258.5,022_y_f_n_a.png,O,z,1225,5,1,2111.2999999998137,585147.2000000002,7034,VNB,C,3
0,prac,2,1.0,2-Back,0,z,Thu Nov 14 2024 16:56:51 GMT-0600 (Central Standard Time),589641.2000000002,015_o_m_h_a.png,O,m,1473,6,1,2377.100000000559,587264.0999999996,7034,VNB,C,4
1,prac,2,1.0,2-Back,1,z,Thu Nov 14 2024 16:56:51 GMT-0600 (Central Standard Time),591806.2000000002,025_y_m_n_a.png,O,z,1289,7,1,2159.800000000745,589646.3999999994,7034,VNB,C,5
2,prac,2,0.0,2-Back,1,m,Thu Nov 14 2024 16:56:51 GMT-0600 (Central Standard Time),593605.7000000002,019_m_f_d_a.png,O,m,896,8,1,1793.9000000003725,591811.7999999998,7034,VNB,C,6
2,prac,2,0.0,2-Back,0,m,Thu Nov 14 2024 16:56:51 GMT-0600 (Central Standard Time),595934.5,012_o_f_d_a.png,O,z,1312,9,1,2323.600000000559,593610.8999999994,7034,VNB,C,7
3,prac,2,0.0,2-Back,1,m,Thu Nov 14 2024 16:56:51 GMT-0600 (Central Standard Time),597554.2000000002,014_m_m_h_a.png,O,m,839,10,1,1614.0,595940.2000000002,7034,VNB,C,8
3,prac,2,1.0,2-Back,0,z,Thu Nov 14 2024 16:56:51 GMT-0600 (Central Standard Time),599753.5,022_y_f_d_a.png,O,m,1303,11,1,2194.100000000559,597559.3999999994,7034,VNB,C,9
3,prac,2,0.0,2-Back,0,m,Thu Nov 14 2024 16:56:51 GMT-0600 (Central Standard Time),602002.7000000002,015_o_m_n_a.png,O,z,1351,12,1,2244.0,599758.7000000002,7034,VNB,C,10
0,test,1,0.0,2-Back,,,Thu Nov 14 2024 16:56:51 GMT-0600 (Central Standard Time),602002.7000000002,025_y_m_h_a.png,O,space,16205,1,1,2244.0,599758.7000000002,7034,VNB,C,0
0,test,1,0.0,2-Back,,,Thu Nov 14 2024 16:56:51 GMT-0600 (Central Standard Time),602002.7000000002,012_o_f_n_a.png,O,space,16205,2,1,2244.0,599758.7000000002,7034,VNB,C,0
1,test,1,0.0,2-Back,1,z,Thu Nov 14 2024 16:56:51 GMT-0600 (Central Standard Time),652253.5999999996,015_o_m_h_a.png,O,z,922,3,1,1945.5999999996275,650308.0,7034,VNB,C,1
2,test,1,0.0,2-Back,1,m,Thu Nov 14 2024 16:56:51 GMT-0600 (Central Standard Time),654620.7999999998,019_m_f_d_a.png,O,m,1348,4,1,2363.2999999998137,652257.5,7034,VNB,C,2
3,test,1,1.0,2-Back,1,m,Thu Nov 14 2024 16:56:51 GMT-0600 (Central Standard Time),656485.7999999998,025_y_m_n_a.png,O,m,804,5,1,1861.0999999996275,654624.7000000002,7034,VNB,C,3
3,test,1,0.0,2-Back,0,z,Thu Nov 14 2024 16:56:51 GMT-0600 (Central Standard Time),658301.7000000002,022_y_f_d_a.png,O,m,788,6,1,1812.300000000745,656489.3999999994,7034,VNB,C,4
3,test,1,0.0,2-Back,0,m,Thu Nov 14 2024 16:56:51 GMT-0600 (Central Standard Time),659884.5,014_m_m_h_a.png,O,z,530,7,1,1579.2999999998137,658305.2000000002,7034,VNB,C,5
4,test,1,1.0,2-Back,1,m,Thu Nov 14 2024 16:56:51 GMT-0600 (Central Standard Time),662150.7000000002,022_y_f_n_a.png,O,m,1212,8,1,2262.5,659888.2000000002,7034,VNB,C,6
5,test,1,0.0,2-Back,1,z,Thu Nov 14 2024 16:56:51 GMT-0600 (Central Standard Time),664166.2999999998,012_o_f_h_a.png,O,z,961,9,1,2012.0,662154.2999999998,7034,VNB,C,7
6,test,1,0.0,2-Back,1,m,Thu Nov 14 2024 16:56:51 GMT-0600 (Central Standard Time),666265.8999999994,015_o_m_d_a.png,O,m,1042,10,1,2096.0999999996275,664169.7999999998,7034,VNB,C,8
7,test,1,1.0,2-Back,1,m,Thu Nov 14 2024 16:56:51 GMT-0600 (Central Standard Time),667965.5999999996,014_m_m_d_a.png,O,m,647,11,1,1696.0,666269.5999999996,7034,VNB,C,9
7,test,1,0.0,2-Back,0,m,Thu Nov 14 2024 16:56:51 GMT-0600 (Central Standard Time),669631.5999999996,019_m_f_n_a.png,O,z,603,12,1,1662.3999999994412,667969.2000000002,7034,VNB,C,10
7,test,1,0.0,2-Back,0,m,Thu Nov 14 2024 16:56:51 GMT-0600 (Central Standard Time),671714.2999999998,022_y_f_h_a.png,O,z,1016,13,1,2079.4000000003725,669634.8999999994,7034,VNB,C,11
8,test,1,0.0,2-Back,1,z,Thu Nov 14 2024 16:56:51 GMT-0600 (Central Standard Time),673530.0999999996,014_m_m_n_a.png,O,z,733,14,1,1811.8999999994412,671718.2000000002,7034,VNB,C,12
9,test,1,0.0,2-Back,1,m,Thu Nov 14 2024 16:56:51 GMT-0600 (Central Standard Time),675363.0,025_y_m_d_a.png,O,m,766,15,1,1829.1000000005588,673533.8999999994,7034,VNB,C,13
9,test,1,1.0,2-Back,0,m,Thu Nov 14 2024 16:56:51 GMT-0600 (Central Standard Time),677212.5999999996,019_m_f_h_a.png,O,z,773,16,1,1846.0999999996275,675366.5,7034,VNB,C,14
10,test,1,0.0,2-Back,1,z,Thu Nov 14 2024 16:56:51 GMT-0600 (Central Standard Time),679213.0999999996,012_o_f_d_a.png,O,z,915,17,1,1996.8999999994412,677216.2000000002,7034,VNB,C,15
11,test,1,0.0,2-Back,1,m,Thu Nov 14 2024 16:56:51 GMT-0600 (Central Standard Time),681044.8999999994,015_o_m_n_a.png,O,m,805,18,1,1828.0,679216.8999999994,7034,VNB,C,16
0,test,2,0.0,2-Back,,,Thu Nov 14 2024 16:56:51 GMT-0600 (Central Standard Time),681044.8999999994,014_m_m_h_a.png,O,space,1533,1,1,1828.0,679216.8999999994,7034,VNB,C,0
0,test,2,0.0,2-Back,,,Thu Nov 14 2024 16:56:51 GMT-0600 (Central Standard Time),681044.8999999994,022_y_f_n_a.png,O,space,1533,2,1,1828.0,679216.8999999994,7034,VNB,C,0
1,test,2,1.0,2-Back,1,z,Thu Nov 14 2024 16:56:51 GMT-0600 (Central Standard Time),689575.5,012_o_f_h_a.png,O,z,704,3,1,1728.2999999998137,687847.2000000002,7034,VNB,C,1
2,test,2,0.0,2-Back,1,m,Thu Nov 14 2024 16:56:51 GMT-0600 (Central Standard Time),691492.5999999996,015_o_m_d_a.png,O,m,865,4,1,1913.7999999998137,689578.7999999998,7034,VNB,C,2
3,test,2,0.0,2-Back,1,m,Thu Nov 14 2024 16:56:51 GMT-0600 (Central Standard Time),693640.5999999996,019_m_f_d_a.png,O,m,1084,5,1,2144.5,691496.0999999996,7034,VNB,C,3
3,test,2,0.0,2-Back,0,m,Thu Nov 14 2024 16:56:51 GMT-0600 (Central Standard Time),695390.2000000002,025_y_m_h_a.png,O,z,696,6,1,1746.0,693644.2000000002,7034,VNB,C,4
3,test,2,0.0,2-Back,0,m,Thu Nov 14 2024 16:56:51 GMT-0600 (Central Standard Time),697322.7999999998,012_o_f_n_a.png,O,z,900,7,1,1929.0999999996275,695393.7000000002,7034,VNB,C,5
4,test,2,1.0,2-Back,1,z,Thu Nov 14 2024 16:56:51 GMT-0600 (Central Standard Time),699039.0999999996,015_o_m_h_a.png,O,z,653,8,1,1712.7000000001863,697326.3999999994,7034,VNB,C,6
5,test,2,0.0,2-Back,1,m,Thu Nov 14 2024 16:56:51 GMT-0600 (Central Standard Time),700605.2000000002,022_y_f_d_a.png,O,m,506,9,1,1562.5,699042.7000000002,7034,VNB,C,7
6,test,2,0.0,2-Back,1,m,Thu Nov 14 2024 16:56:51 GMT-0600 (Central Standard Time),702338.2000000002,025_y_m_d_a.png,O,m,667,10,1,1729.300000000745,700608.8999999994,7034,VNB,C,8
6,test,2,0.0,2-Back,0,m,Thu Nov 14 2024 16:56:51 GMT-0600 (Central Standard Time),704170.5999999996,014_m_m_n_a.png,O,z,767,11,1,1828.5999999996275,702342.0,7034,VNB,C,9
6,test,2,0.0,2-Back,0,m,Thu Nov 14 2024 16:56:51 GMT-0600 (Central Standard Time),705720.2000000002,019_m_f_h_a.png,O,z,527,12,1,1546.1000000005588,704174.0999999996,7034,VNB,C,10
7,test,2,1.0,2-Back,1,z,Thu Nov 14 2024 16:56:51 GMT-0600 (Central Standard Time),707702.7999999998,015_o_m_n_a.png,O,z,929,13,1,1979.0999999996275,705723.7000000002,7034,VNB,C,11
8,test,2,0.0,2-Back,1,m,Thu Nov 14 2024 16:56:51 GMT-0600 (Central Standard Time),709335.7000000002,012_o_f_d_a.png,O,m,561,14,1,1628.9000000003725,707706.7999999998,7034,VNB,C,12
8,test,2,0.0,2-Back,0,m,Thu Nov 14 2024 16:56:51 GMT-0600 (Central Standard Time),711001.8999999994,022_y_f_h_a.png,O,z,600,15,1,1662.2999999998137,709339.5999999996,7034,VNB,C,13
8,test,2,0.0,2-Back,0,z,Thu Nov 14 2024 16:56:51 GMT-0600 (Central Standard Time),712668.2000000002,014_m_m_d_a.png,O,m,615,16,1,1662.6000000005588,711005.5999999996,7034,VNB,C,14
8,test,2,0.0,2-Back,0,m,Thu Nov 14 2024 16:56:51 GMT-0600 (Central Standard Time),714367.7000000002,025_y_m_n_a.png,O,z,629,17,1,1696.300000000745,712671.3999999994,7034,VNB,C,15
8,test,2,1.0,2-Back,0,m,Thu Nov 14 2024 16:56:51 GMT-0600 (Central Standard Time),716183.5,019_m_f_n_a.png,O,z,761,18,1,1811.7000000001863,714371.7999999998,7034,VNB,C,16
0,test,3,1.0,2-Back,,,Thu Nov 14 2024 16:56:51 GMT-0600 (Central Standard Time),716183.5,015_o_m_n_a.png,O,space,1283,1,1,1811.7000000001863,714371.7999999998,7034,VNB,C,0
0,test,3,1.0,2-Back,,,Thu Nov 14 2024 16:56:51 GMT-0600 (Central Standard Time),716183.5,012_o_f_d_a.png,O,space,1283,2,1,1811.7000000001863,714371.7999999998,7034,VNB,C,0
1,test,3,0.0,2-Back,1,m,Thu Nov 14 2024 16:56:51 GMT-0600 (Central Standard Time),724747.5,022_y_f_h_a.png,O,m,1214,3,1,2228.2999999998137,722519.2000000002,7034,VNB,C,1
2,test,3,0.0,2-Back,1,z,Thu Nov 14 2024 16:56:51 GMT-0600 (Central Standard Time),726563.8999999994,019_m_f_d_a.png,O,z,789,4,1,1812.699999999255,724751.2000000002,7034,VNB,C,2
3,test,3,1.0,2-Back,1,m,Thu Nov 14 2024 16:56:51 GMT-0600 (Central Standard Time),728813.0,025_y_m_n_a.png,O,m,1222,5,1,2245.5,726567.5,7034,VNB,C,3
3,test,3,0.0,2-Back,0,m,Thu Nov 14 2024 16:56:51 GMT-0600 (Central Standard Time),730645.7999999998,015_o_m_h_a.png,O,z,803,6,1,1829.2000000001863,728816.5999999996,7034,VNB,C,4
3,test,3,0.0,2-Back,0,z,Thu Nov 14 2024 16:56:51 GMT-0600 (Central Standard Time),732445.2999999998,022_y_f_n_a.png,O,m,773,7,1,1795.9000000003725,730649.3999999994,7034,VNB,C,5
3,test,3,1.0,2-Back,0,m,Thu Nov 14 2024 16:56:51 GMT-0600 (Central Standard Time),734212.5,014_m_m_d_a.png,O,z,748,8,1,1764.1000000005588,732448.3999999994,7034,VNB,C,6
3,test,3,0.0,2-Back,0,m,Thu Nov 14 2024 16:56:51 GMT-0600 (Central Standard Time),735877.5999999996,025_y_m_d_a.png,O,z,647,9,1,1661.7000000001863,734215.8999999994,7034,VNB,C,7
3,test,3,0.0,2-Back,0,m,Thu Nov 14 2024 16:56:51 GMT-0600 (Central Standard Time),737743.5,012_o_f_h_a.png,O,z,836,10,1,1862.2000000001863,735881.2999999998,7034,VNB,C,8
4,test,3,1.0,2-Back,1,m,Thu Nov 14 2024 16:56:51 GMT-0600 (Central Standard Time),739576.5,019_m_f_n_a.png,O,m,811,11,1,1829.6000000005588,737746.8999999994,7034,VNB,C,9
5,test,3,1.0,2-Back,1,z,Thu Nov 14 2024 16:56:51 GMT-0600 (Central Standard Time),741142.3999999994,014_m_m_h_a.png,O,z,537,12,1,1562.699999999255,739579.7000000002,7034,VNB,C,10
5,test,3,0.0,2-Back,0,m,Thu Nov 14 2024 16:56:51 GMT-0600 (Central Standard Time),742908.5999999996,022_y_f_d_a.png,O,z,747,13,1,1762.5,741146.0999999996,7034,VNB,C,11
6,test,3,0.0,2-Back,1,m,Thu Nov 14 2024 16:56:51 GMT-0600 (Central Standard Time),744524.7999999998,012_o_f_n_a.png,O,m,598,14,1,1612.7000000001863,742912.0999999996,7034,VNB,C,12
7,test,3,0.0,2-Back,1,z,Thu Nov 14 2024 16:56:51 GMT-0600 (Central Standard Time),746524.0,015_o_m_d_a.png,O,z,974,15,1,1995.9000000003725,744528.0999999996,7034,VNB,C,13
7,test,3,1.0,2-Back,0,m,Thu Nov 14 2024 16:56:51 GMT-0600 (Central Standard Time),748023.3999999994,019_m_f_h_a.png,O,z,478,16,1,1495.5999999996275,746527.7999999998,7034,VNB,C,14
8,test,3,0.0,2-Back,1,m,Thu Nov 14 2024 16:56:51 GMT-0600 (Central Standard Time),749806.3999999994,014_m_m_n_a.png,O,m,754,17,1,1779.8999999994412,748026.5,7034,VNB,C,15
9,test,3,0.0,2-Back,1,z,Thu Nov 14 2024 16:56:51 GMT-0600 (Central Standard Time),751572.5999999996,025_y_m_h_a.png,O,z,748,18,1,1762.2999999998137,749810.2999999998,7034,VNB,C,16
0,test,4,0.0,2-Back,,,Thu Nov 14 2024 16:56:51 GMT-0600 (Central Standard Time),751572.5999999996,019_m_f_n_a.png,O,space,1214,1,1,1762.2999999998137,749810.2999999998,7034,VNB,C,0
0,test,4,0.0,2-Back,,,Thu Nov 14 2024 16:56:51 GMT-0600 (Central Standard Time),751572.5999999996,015_o_m_n_a.png,O,space,1214,2,1,1762.2999999998137,749810.2999999998,7034,VNB,C,0
0,test,4,1.0,2-Back,0,m,Thu Nov 14 2024 16:56:51 GMT-0600 (Central Standard Time),759653.5999999996,025_y_m_h_a.png,O,z,522,3,1,1578.8999999994412,758074.7000000002,7034,VNB,C,1
1,test,4,1.0,2-Back,1,m,Thu Nov 14 2024 16:56:51 GMT-0600 (Central Standard Time),761469.5999999996,012_o_f_d_a.png,O,m,636,4,1,1812.2000000001863,759657.3999999994,7034,VNB,C,2
2,test,4,0.0,2-Back,1,z,Thu Nov 14 2024 16:56:51 GMT-0600 (Central Standard Time),763085.5999999996,015_o_m_h_a.png,O,z,596,5,1,1613.0,761472.5999999996,7034,VNB,C,3
2,test,4,0.0,2-Back,0,m,Thu Nov 14 2024 16:56:51 GMT-0600 (Central Standard Time),764901.7000000002,014_m_m_n_a.png,O,z,762,6,1,1812.7000000001863,763089.0,7034,VNB,C,4
3,test,4,0.0,2-Back,1,m,Thu Nov 14 2024 16:56:51 GMT-0600 (Central Standard Time),766601.2000000002,019_m_f_d_a.png,O,m,667,7,1,1696.300000000745,764904.8999999994,7034,VNB,C,5
4,test,4,0.0,2-Back,1,z,Thu Nov 14 2024 16:56:51 GMT-0600 (Central Standard Time),768317.3999999994,022_y_f_n_a.png,O,z,688,8,1,1712.8999999994412,766604.5,7034,VNB,C,6
4,test,4,1.0,2-Back,0,m,Thu Nov 14 2024 16:56:51 GMT-0600 (Central Standard Time),769983.7000000002,012_o_f_h_a.png,O,z,636,9,1,1662.7000000001863,768321.0,7034,VNB,C,7
4,test,4,0.0,2-Back,0,m,Thu Nov 14 2024 16:56:51 GMT-0600 (Central Standard Time),771799.7999999998,014_m_m_h_a.png,O,z,795,10,1,1812.9000000003725,769986.8999999994,7034,VNB,C,8
5,test,4,0.0,2-Back,1,m,Thu Nov 14 2024 16:56:51 GMT-0600 (Central Standard Time),773298.8999999994,022_y_f_d_a.png,O,m,467,11,1,1495.2999999998137,771803.5999999996,7034,VNB,C,9
5,test,4,0.0,2-Back,0,m,Thu Nov 14 2024 16:56:51 GMT-0600 (Central Standard Time),774781.7999999998,025_y_m_n_a.png,O,z,462,12,1,1478.9000000003725,773302.8999999994,7034,VNB,C,10
5,test,4,0.0,2-Back,0,z,Thu Nov 14 2024 16:56:51 GMT-0600 (Central Standard Time),776514.7999999998,015_o_m_d_a.png,O,m,716,13,1,1729.4000000003725,774785.3999999994,7034,VNB,C,11
5,test,4,1.0,2-Back,0,m,Thu Nov 14 2024 16:56:51 GMT-0600 (Central Standard Time),778064.2999999998,019_m_f_h_a.png,O,z,527,14,1,1545.5,776518.7999999998,7034,VNB,C,12
5,test,4,1.0,2-Back,0,m,Thu Nov 14 2024 16:56:51 GMT-0600 (Central Standard Time),779697.0,022_y_f_h_a.png,O,z,602,15,1,1629.6000000005588,778067.3999999994,7034,VNB,C,13
5,test,4,0.0,2-Back,0,m,Thu Nov 14 2024 16:56:51 GMT-0600 (Central Standard Time),781529.7999999998,012_o_f_n_a.png,O,z,800,16,1,1829.0999999996275,779700.7000000002,7034,VNB,C,14
6,test,4,0.0,2-Back,1,m,Thu Nov 14 2024 16:56:51 GMT-0600 (Central Standard Time),783045.8999999994,025_y_m_d_a.png,O,m,497,17,1,1512.2999999998137,781533.5999999996,7034,VNB,C,15
7,test,4,1.0,2-Back,1,m,Thu Nov 14 2024 16:56:51 GMT-0600 (Central Standard Time),784728.7999999998,014_m_m_d_a.png,O,m,659,18,1,1679.7000000001863,783049.0999999996,7034,VNB,C,16
0,test,5,1.0,2-Back,,,Thu Nov 14 2024 16:56:51 GMT-0600 (Central Standard Time),784728.7999999998,022_y_f_d_a.png,O,space,1330,1,1,1679.7000000001863,783049.0999999996,7034,VNB,C,0
0,test,5,1.0,2-Back,,,Thu Nov 14 2024 16:56:51 GMT-0600 (Central Standard Time),784728.7999999998,012_o_f_h_a.png,O,space,1330,2,1,1679.7000000001863,783049.0999999996,7034,VNB,C,0
1,test,5,1.0,2-Back,1,z,Thu Nov 14 2024 16:56:51 GMT-0600 (Central Standard Time),793726.0999999996,015_o_m_d_a.png,O,z,1379,3,1,2395.2999999998137,791330.7999999998,7034,VNB,C,1
2,test,5,1.0,2-Back,1,m,Thu Nov 14 2024 16:56:51 GMT-0600 (Central Standard Time),795358.7999999998,019_m_f_n_a.png,O,m,604,4,1,1629.7000000001863,793729.0999999996,7034,VNB,C,2
2,test,5,0.0,2-Back,0,m,Thu Nov 14 2024 16:56:51 GMT-0600 (Central Standard Time),796941.7000000002,014_m_m_h_a.png,O,z,556,5,1,1579.6000000005588,795362.0999999996,7034,VNB,C,3
2,test,5,0.0,2-Back,0,z,Thu Nov 14 2024 16:56:51 GMT-0600 (Central Standard Time),799057.5999999996,022_y_f_n_a.png,O,m,1092,6,1,2112.399999999441,796945.2000000002,7034,VNB,C,4
2,test,5,0.0,2-Back,0,m,Thu Nov 14 2024 16:56:51 GMT-0600 (Central Standard Time),800790.5999999996,012_o_f_d_a.png,O,z,712,7,1,1729.2999999998137,799061.2999999998,7034,VNB,C,5
2,test,5,0.0,2-Back,0,m,Thu Nov 14 2024 16:56:51 GMT-0600 (Central Standard Time),802356.8999999994,015_o_m_h_a.png,O,z,540,8,1,1563.0999999996275,800793.7999999998,7034,VNB,C,6
3,test,5,1.0,2-Back,1,z,Thu Nov 14 2024 16:56:51 GMT-0600 (Central Standard Time),805089.2000000002,019_m_f_d_a.png,O,z,1710,9,1,2728.4000000003725,802360.7999999998,7034,VNB,C,7
4,test,5,0.0,2-Back,1,m,Thu Nov 14 2024 16:56:51 GMT-0600 (Central Standard Time),806905.3999999994,025_y_m_n_a.png,O,m,785,10,1,1813.199999999255,805092.2000000002,7034,VNB,C,8
5,test,5,0.0,2-Back,1,m,Thu Nov 14 2024 16:56:51 GMT-0600 (Central Standard Time),809204.5999999996,014_m_m_n_a.png,O,m,1261,11,1,2295.7000000001863,806908.8999999994,7034,VNB,C,9
5,test,5,0.0,2-Back,0,m,Thu Nov 14 2024 16:56:51 GMT-0600 (Central Standard Time),810804.0,022_y_f_h_a.png,O,z,574,12,1,1595.7000000001863,809208.2999999998,7034,VNB,C,10
5,test,5,0.0,2-Back,0,m,Thu Nov 14 2024 16:56:51 GMT-0600 (Central Standard Time),812869.8999999994,025_y_m_d_a.png,O,z,1046,13,1,2062.5,810807.3999999994,7034,VNB,C,11
6,test,5,1.0,2-Back,1,z,Thu Nov 14 2024 16:56:51 GMT-0600 (Central Standard Time),814353.0999999996,019_m_f_h_a.png,O,z,460,14,1,1479.2999999998137,812873.7999999998,7034,VNB,C,12
7,test,5,0.0,2-Back,1,m,Thu Nov 14 2024 16:56:51 GMT-0600 (Central Standard Time),816185.7999999998,015_o_m_n_a.png,O,m,809,15,1,1829.0,814356.7999999998,7034,VNB,C,13
7,test,5,0.0,2-Back,0,m,Thu Nov 14 2024 16:56:51 GMT-0600 (Central Standard Time),817668.7000000002,014_m_m_d_a.png,O,z,457,16,1,1479.4000000003725,816189.2999999998,7034,VNB,C,14
7,test,5,0.0,2-Back,0,z,Thu Nov 14 2024 16:56:51 GMT-0600 (Central Standard Time),819301.5999999996,012_o_f_n_a.png,O,m,613,17,1,1628.5,817673.0999999996,7034,VNB,C,15
7,test,5,1.0,2-Back,0,m,Thu Nov 14 2024 16:56:51 GMT-0600 (Central Standard Time),820767.3999999994,025_y_m_h_a.png,O,z,445,18,1,1462.0,819305.3999999994,7034,VNB,C,16
