block_c,block_dur,condition,countdown,datetime,endtime,list,multichar_response,project,response,response_time,session_number,start_end,starttime,subject_id,task,task_vers,trial
,,,,Fri Feb 21 2025 10:09:22 GMT-0600 (Central Standard Time),,,,I,space,438,1,,,8031,WL,A,
prac,,0,,Fri Feb 21 2025 10:09:22 GMT-0600 (Central Standard Time),,NA,b,I,b,12273,1,,,8031,WL,A,1.0
prac,,0,,Fri Feb 21 2025 10:09:22 GMT-0600 (Central Standard Time),,NA,bo,I,o,306,1,,,8031,WL,A,1.0
prac,,0,,Fri Feb 21 2025 10:09:22 GMT-0600 (Central Standard Time),,NA,boo,I,o,163,1,,,8031,WL,A,1.0
prac,,0,,Fri Feb 21 2025 10:09:22 GMT-0600 (Central Standard Time),,NA,boos,I,s,62,1,,,8031,WL,A,1.0
prac,,0,,Fri Feb 21 2025 10:09:22 GMT-0600 (Central Standard Time),,NA,boost,I,t,42,1,,,8031,WL,A,1.0
prac,,0,,Fri Feb 21 2025 10:09:22 GMT-0600 (Central Standard Time),,NA,boostenter,I,enter,1378,1,,,8031,WL,A,1.0
1,0.6680002212524414,learn,59331.99977874756,Fri Feb 21 2025 10:09:22 GMT-0600 (Central Standard Time),131824.5,A,b,I,b,650,1,667.6000000014901,131156.8999999985,8031,WL,A,1.0
1,0.7670001983642578,learn,59232.99980163574,Fri Feb 21 2025 10:09:22 GMT-0600 (Central Standard Time),131923.69999999553,A,bu,I,u,74,1,766.7999999970198,131156.8999999985,8031,WL,A,1.0
1,0.9210000038146973,learn,59078.9999961853,Fri Feb 21 2025 10:09:22 GMT-0600 (Central Standard Time),132078.19999999553,A,but,I,t,147,1,921.2999999970198,131156.8999999985,8031,WL,A,1.0
1,1.0860002040863037,learn,58913.999795913696,Fri Feb 21 2025 10:09:22 GMT-0600 (Central Standard Time),132243.0,A,butt,I,t,155,1,1086.1000000014901,131156.8999999985,8031,WL,A,1.0
1,1.184000015258789,learn,58815.99998474121,Fri Feb 21 2025 10:09:22 GMT-0600 (Central Standard Time),132341.19999999553,A,butto,I,o,78,1,1184.2999999970198,131156.8999999985,8031,WL,A,1.0
1,1.25,learn,58750.0,Fri Feb 21 2025 10:09:22 GMT-0600 (Central Standard Time),132406.8999999985,A,button,I,n,56,1,1250.0,131156.8999999985,8031,WL,A,1.0
1,1.6170001029968262,learn,58382.999897003174,Fri Feb 21 2025 10:09:22 GMT-0600 (Central Standard Time),132773.59999999404,A,buttonenter,I,enter,360,1,1616.6999999955297,131156.8999999985,8031,WL,A,1.0
1,2.2160000801086426,learn,57783.99991989136,Fri Feb 21 2025 10:09:22 GMT-0600 (Central Standard Time),133373.29999999702,A,l,I,l,593,1,599.2999999970198,132774.0,8031,WL,A,2.0
1,2.4180002212524414,learn,57581.99977874756,Fri Feb 21 2025 10:09:22 GMT-0600 (Central Standard Time),133574.69999999553,A,lo,I,o,194,1,800.6999999955297,132774.0,8031,WL,A,2.0
1,2.5330002307891846,learn,57466.999769210815,Fri Feb 21 2025 10:09:22 GMT-0600 (Central Standard Time),133689.3999999985,A,log,I,g,96,1,915.3999999985099,132774.0,8031,WL,A,2.0
1,2.699000120162964,learn,57300.999879837036,Fri Feb 21 2025 10:09:22 GMT-0600 (Central Standard Time),133855.59999999404,A,logenter,I,enter,153,1,1081.5999999940395,132774.0,8031,WL,A,2.0
1,3.1000001430511475,learn,56899.99985694885,Fri Feb 21 2025 10:09:22 GMT-0600 (Central Standard Time),134256.79999999702,A,k,I,k,384,1,400.8999999985099,133855.8999999985,8031,WL,A,3.0
1,3.2340002059936523,learn,56765.99979400635,Fri Feb 21 2025 10:09:22 GMT-0600 (Central Standard Time),134390.3999999985,A,ke,I,e,108,1,534.5,133855.8999999985,8031,WL,A,3.0
1,3.7150001525878906,learn,56284.99984741211,Fri Feb 21 2025 10:09:22 GMT-0600 (Central Standard Time),134872.29999999702,A,key,I,y,472,1,1016.3999999985099,133855.8999999985,8031,WL,A,3.0
1,4.017000198364258,learn,55982.99980163574,Fri Feb 21 2025 10:09:22 GMT-0600 (Central Standard Time),135174.09999999404,A,keyenter,I,enter,296,1,1318.1999999955297,133855.8999999985,8031,WL,A,3.0
1,4.866000175476074,learn,55133.999824523926,Fri Feb 21 2025 10:09:22 GMT-0600 (Central Standard Time),136022.3999999985,A,g,I,g,842,1,848.0,135174.3999999985,8031,WL,A,4.0
1,4.966000080108643,learn,55033.99991989136,Fri Feb 21 2025 10:09:22 GMT-0600 (Central Standard Time),136122.3999999985,A,go,I,o,91,1,948.0,135174.3999999985,8031,WL,A,4.0
1,5.166000127792358,learn,54833.99987220764,Fri Feb 21 2025 10:09:22 GMT-0600 (Central Standard Time),136323.29999999702,A,gol,I,l,175,1,1148.8999999985099,135174.3999999985,8031,WL,A,4.0
1,5.265000104904175,learn,54734.999895095825,Fri Feb 21 2025 10:09:22 GMT-0600 (Central Standard Time),136421.69999999553,A,gold,I,d,75,1,1247.2999999970198,135174.3999999985,8031,WL,A,4.0
1,6.249000072479248,learn,53750.99992752075,Fri Feb 21 2025 10:09:22 GMT-0600 (Central Standard Time),137406.0,A,goldenter,I,enter,976,1,2231.60000000149,135174.3999999985,8031,WL,A,4.0
1,7.083000183105469,learn,52916.99981689453,Fri Feb 21 2025 10:09:22 GMT-0600 (Central Standard Time),138239.5,A,s,I,s,827,1,833.2000000029802,137406.29999999702,8031,WL,A,5.0
1,7.182000160217285,learn,52817.999839782715,Fri Feb 21 2025 10:09:22 GMT-0600 (Central Standard Time),138338.3999999985,A,sa,I,a,87,1,932.1000000014901,137406.29999999702,8031,WL,A,5.0
1,7.213000059127808,learn,52786.99994087219,Fri Feb 21 2025 10:09:22 GMT-0600 (Central Standard Time),138369.69999999553,A,sal,I,l,9,1,963.3999999985099,137406.29999999702,8031,WL,A,5.0
1,7.398000001907349,learn,52601.99999809265,Fri Feb 21 2025 10:09:22 GMT-0600 (Central Standard Time),138555.0,A,salt,I,t,176,1,1148.7000000029802,137406.29999999702,8031,WL,A,5.0
1,7.565000057220459,learn,52434.99994277954,Fri Feb 21 2025 10:09:22 GMT-0600 (Central Standard Time),138721.8999999985,A,saltenter,I,enter,146,1,1315.6000000014901,137406.29999999702,8031,WL,A,5.0
1,9.531000137329102,learn,50468.9998626709,Fri Feb 21 2025 10:09:22 GMT-0600 (Central Standard Time),140687.5,A,f,I,f,1957,1,1965.2000000029802,138722.29999999702,8031,WL,A,6.0
1,9.648000001907349,learn,50351.99999809265,Fri Feb 21 2025 10:09:22 GMT-0600 (Central Standard Time),140804.3999999985,A,fl,I,l,94,1,2082.10000000149,138722.29999999702,8031,WL,A,6.0
1,9.847000122070312,learn,50152.99987792969,Fri Feb 21 2025 10:09:22 GMT-0600 (Central Standard Time),141003.3999999985,A,flo,I,o,184,1,2281.10000000149,138722.29999999702,8031,WL,A,6.0
1,9.914000034332275,learn,50085.999965667725,Fri Feb 21 2025 10:09:22 GMT-0600 (Central Standard Time),141070.69999999553,A,flow,I,w,59,1,2348.39999999851,138722.29999999702,8031,WL,A,6.0
1,9.945000171661377,learn,50054.99982833862,Fri Feb 21 2025 10:09:22 GMT-0600 (Central Standard Time),141101.3999999985,A,flowe,I,e,19,1,2379.10000000149,138722.29999999702,8031,WL,A,6.0
1,10.063000202178955,learn,49936.999797821045,Fri Feb 21 2025 10:09:22 GMT-0600 (Central Standard Time),141220.19999999553,A,flower,I,r,109,1,2497.89999999851,138722.29999999702,8031,WL,A,6.0
1,10.180000066757202,learn,49819.9999332428,Fri Feb 21 2025 10:09:22 GMT-0600 (Central Standard Time),141337.0,A,flowerenter,I,enter,99,1,2614.7000000029802,138722.29999999702,8031,WL,A,6.0
1,11.630000114440918,learn,48369.99988555908,Fri Feb 21 2025 10:09:22 GMT-0600 (Central Standard Time),142786.3999999985,A,t,I,t,1438,1,1449.0,141337.3999999985,8031,WL,A,7.0
1,11.814000129699707,learn,48185.99987030029,Fri Feb 21 2025 10:09:22 GMT-0600 (Central Standard Time),142970.8999999985,A,tr,I,r,164,1,1633.5,141337.3999999985,8031,WL,A,7.0
1,11.861000061035156,learn,48138.999938964844,Fri Feb 21 2025 10:09:22 GMT-0600 (Central Standard Time),143017.69999999553,A,tra,I,a,34,1,1680.2999999970198,141337.3999999985,8031,WL,A,7.0
1,11.91100001335144,learn,48088.99998664856,Fri Feb 21 2025 10:09:22 GMT-0600 (Central Standard Time),143067.8999999985,A,trai,I,i,38,1,1730.5,141337.3999999985,8031,WL,A,7.0
1,11.978000164031982,learn,48021.99983596802,Fri Feb 21 2025 10:09:22 GMT-0600 (Central Standard Time),143134.8999999985,A,train,I,n,50,1,1797.5,141337.3999999985,8031,WL,A,7.0
1,12.195000171661377,learn,47804.99982833862,Fri Feb 21 2025 10:09:22 GMT-0600 (Central Standard Time),143352.09999999404,A,trainenter,I,enter,198,1,2014.6999999955297,141337.3999999985,8031,WL,A,7.0
1,12.847000122070312,learn,47152.99987792969,Fri Feb 21 2025 10:09:22 GMT-0600 (Central Standard Time),144003.69999999553,A,r,I,r,631,1,651.2999999970198,143352.3999999985,8031,WL,A,8.0
1,12.945000171661377,learn,47054.99982833862,Fri Feb 21 2025 10:09:22 GMT-0600 (Central Standard Time),144101.79999999702,A,ru,I,u,82,1,749.3999999985099,143352.3999999985,8031,WL,A,8.0
1,13.031000137329102,learn,46968.9998626709,Fri Feb 21 2025 10:09:22 GMT-0600 (Central Standard Time),144188.0,A,rug,I,g,73,1,835.6000000014901,143352.3999999985,8031,WL,A,8.0
1,13.180000066757202,learn,46819.9999332428,Fri Feb 21 2025 10:09:22 GMT-0600 (Central Standard Time),144336.5,A,rugenter,I,enter,129,1,984.1000000014901,143352.3999999985,8031,WL,A,8.0
1,18.711000204086304,learn,41288.999795913696,Fri Feb 21 2025 10:09:22 GMT-0600 (Central Standard Time),149868.09999999404,A,h,I,h,5519,1,5531.19999999553,144336.8999999985,8031,WL,A,9.0
1,18.8270001411438,learn,41172.9998588562,Fri Feb 21 2025 10:09:22 GMT-0600 (Central Standard Time),149983.8999999985,A,ha,I,a,100,1,5647.0,144336.8999999985,8031,WL,A,9.0
1,18.877000093460083,learn,41122.99990653992,Fri Feb 21 2025 10:09:22 GMT-0600 (Central Standard Time),150033.3999999985,A,har,I,r,30,1,5696.5,144336.8999999985,8031,WL,A,9.0
1,18.944000005722046,learn,41055.999994277954,Fri Feb 21 2025 10:09:22 GMT-0600 (Central Standard Time),150100.79999999702,A,harp,I,p,46,1,5763.89999999851,144336.8999999985,8031,WL,A,9.0
1,19.16100001335144,learn,40838.99998664856,Fri Feb 21 2025 10:09:22 GMT-0600 (Central Standard Time),150317.5,A,harpenter,I,enter,210,1,5980.60000000149,144336.8999999985,8031,WL,A,9.0
1,25.2260000705719,learn,34773.9999294281,Fri Feb 21 2025 10:09:22 GMT-0600 (Central Standard Time),156383.29999999702,A,enter,I,enter,6060,1,6065.5,150317.79999999702,8031,WL,A,10.0
1,25.592000007629395,learn,34407.999992370605,Fri Feb 21 2025 10:09:22 GMT-0600 (Central Standard Time),156748.8999999985,A,enter,I,enter,360,1,365.30000000447035,156383.59999999404,8031,WL,A,11.0
1,25.892000198364258,learn,34107.99980163574,Fri Feb 21 2025 10:09:22 GMT-0600 (Central Standard Time),157049.19999999553,A,enter,I,enter,291,1,300.0,156749.19999999553,8031,WL,A,12.0
1,26.192000150680542,learn,33807.99984931946,Fri Feb 21 2025 10:09:22 GMT-0600 (Central Standard Time),157348.59999999404,A,enter,I,enter,286,1,299.09999999403954,157049.5,8031,WL,A,13.0
1,26.52500009536743,learn,33474.99990463257,Fri Feb 21 2025 10:09:22 GMT-0600 (Central Standard Time),157682.3999999985,A,enter,I,enter,315,1,333.5,157348.8999999985,8031,WL,A,14.0
1,27.10800004005432,learn,32891.99995994568,Fri Feb 21 2025 10:09:22 GMT-0600 (Central Standard Time),158264.29999999702,A,enter,I,enter,573,1,581.7000000029802,157682.59999999404,8031,WL,A,15.0
2,0.5339999198913574,learn,59466.00008010864,Fri Feb 21 2025 10:09:22 GMT-0600 (Central Standard Time),225445.59999999404,A,b,I,b,526,1,533.5999999940395,224912.0,8031,WL,A,1.0
2,0.6310000419616699,learn,59368.99995803833,Fri Feb 21 2025 10:09:22 GMT-0600 (Central Standard Time),225542.59999999404,A,bu,I,u,90,1,630.5999999940395,224912.0,8031,WL,A,1.0
2,0.7660000324249268,learn,59233.99996757507,Fri Feb 21 2025 10:09:22 GMT-0600 (Central Standard Time),225677.29999999702,A,but,I,t,121,1,765.2999999970198,224912.0,8031,WL,A,1.0
2,0.8999998569488525,learn,59100.00014305115,Fri Feb 21 2025 10:09:22 GMT-0600 (Central Standard Time),225811.3999999985,A,butt,I,t,113,1,899.3999999985099,224912.0,8031,WL,A,1.0
2,0.9629998207092285,learn,59037.00017929077,Fri Feb 21 2025 10:09:22 GMT-0600 (Central Standard Time),225874.69999999553,A,butto,I,o,41,1,962.6999999955297,224912.0,8031,WL,A,1.0
2,1.0339999198913574,learn,58966.00008010864,Fri Feb 21 2025 10:09:22 GMT-0600 (Central Standard Time),225945.29999999702,A,button,I,n,54,1,1033.2999999970198,224912.0,8031,WL,A,1.0
2,1.253000020980835,learn,58746.999979019165,Fri Feb 21 2025 10:09:22 GMT-0600 (Central Standard Time),226164.3999999985,A,buttonenter,I,enter,198,1,1252.3999999985099,224912.0,8031,WL,A,1.0
2,1.5160000324249268,learn,58483.99996757507,Fri Feb 21 2025 10:09:22 GMT-0600 (Central Standard Time),226427.79999999702,A,l,I,l,245,1,262.5,226165.29999999702,8031,WL,A,2.0
2,1.6649999618530273,learn,58335.00003814697,Fri Feb 21 2025 10:09:22 GMT-0600 (Central Standard Time),226576.8999999985,A,lo,I,o,130,1,411.6000000014901,226165.29999999702,8031,WL,A,2.0
2,1.7649998664855957,learn,58235.000133514404,Fri Feb 21 2025 10:09:22 GMT-0600 (Central Standard Time),226677.0,A,log,I,g,86,1,511.70000000298023,226165.29999999702,8031,WL,A,2.0
2,1.9140000343322754,learn,58085.999965667725,Fri Feb 21 2025 10:09:22 GMT-0600 (Central Standard Time),226825.59999999404,A,logenter,I,enter,129,1,660.2999999970198,226165.29999999702,8031,WL,A,2.0
2,2.247999906539917,learn,57752.00009346008,Fri Feb 21 2025 10:09:22 GMT-0600 (Central Standard Time),227159.8999999985,A,k,I,k,328,1,334.0,226825.8999999985,8031,WL,A,3.0
2,2.3479998111724854,learn,57652.000188827515,Fri Feb 21 2025 10:09:22 GMT-0600 (Central Standard Time),227260.0,A,ke,I,e,79,1,434.1000000014901,226825.8999999985,8031,WL,A,3.0
2,2.4649999141693115,learn,57535.00008583069,Fri Feb 21 2025 10:09:22 GMT-0600 (Central Standard Time),227376.69999999553,A,key,I,y,100,1,550.7999999970198,226825.8999999985,8031,WL,A,3.0
2,3.0319998264312744,learn,56968.000173568726,Fri Feb 21 2025 10:09:22 GMT-0600 (Central Standard Time),227943.69999999553,A,keyenter,I,enter,549,1,1117.7999999970198,226825.8999999985,8031,WL,A,3.0
2,3.245999813079834,learn,56754.000186920166,Fri Feb 21 2025 10:09:22 GMT-0600 (Central Standard Time),228157.69999999553,A,r,I,r,208,1,213.60000000149012,227944.09999999404,8031,WL,A,4.0
2,3.3469998836517334,learn,56653.00011634827,Fri Feb 21 2025 10:09:22 GMT-0600 (Central Standard Time),228258.09999999404,A,ra,I,a,92,1,314.0,227944.09999999404,8031,WL,A,4.0
2,3.4789998531341553,learn,56521.000146865845,Fri Feb 21 2025 10:09:22 GMT-0600 (Central Standard Time),228390.8999999985,A,rat,I,t,118,1,446.80000000447035,227944.09999999404,8031,WL,A,4.0
2,3.615000009536743,learn,56384.99999046326,Fri Feb 21 2025 10:09:22 GMT-0600 (Central Standard Time),228526.3999999985,A,ratt,I,t,118,1,582.3000000044703,227944.09999999404,8031,WL,A,4.0
2,3.697999954223633,learn,56302.00004577637,Fri Feb 21 2025 10:09:22 GMT-0600 (Central Standard Time),228609.19999999553,A,rattl,I,l,72,1,665.1000000014901,227944.09999999404,8031,WL,A,4.0
2,3.7809998989105225,learn,56219.00010108948,Fri Feb 21 2025 10:09:22 GMT-0600 (Central Standard Time),228692.8999999985,A,rattle,I,e,61,1,748.8000000044703,227944.09999999404,8031,WL,A,4.0
2,3.8959999084472656,learn,56104.000091552734,Fri Feb 21 2025 10:09:22 GMT-0600 (Central Standard Time),228807.3999999985,A,rattleenter,I,enter,105,1,863.3000000044703,227944.09999999404,8031,WL,A,4.0
2,4.246999979019165,learn,55753.000020980835,Fri Feb 21 2025 10:09:22 GMT-0600 (Central Standard Time),229158.69999999553,A,g,I,g,336,1,351.1000000014901,228807.59999999404,8031,WL,A,5.0
2,4.31499981880188,learn,55685.00018119812,Fri Feb 21 2025 10:09:22 GMT-0600 (Central Standard Time),229226.19999999553,A,go,I,o,47,1,418.6000000014901,228807.59999999404,8031,WL,A,5.0
2,4.5299999713897705,learn,55470.00002861023,Fri Feb 21 2025 10:09:22 GMT-0600 (Central Standard Time),229441.79999999702,A,gol,I,l,206,1,634.2000000029802,228807.59999999404,8031,WL,A,5.0
2,4.664999961853027,learn,55335.00003814697,Fri Feb 21 2025 10:09:22 GMT-0600 (Central Standard Time),229576.59999999404,A,gold,I,d,129,1,769.0,228807.59999999404,8031,WL,A,5.0
2,4.797999858856201,learn,55202.0001411438,Fri Feb 21 2025 10:09:22 GMT-0600 (Central Standard Time),229709.3999999985,A,goldenter,I,enter,118,1,901.8000000044703,228807.59999999404,8031,WL,A,5.0
2,5.547999858856201,learn,54452.0001411438,Fri Feb 21 2025 10:09:22 GMT-0600 (Central Standard Time),230460.09999999404,A,h,I,h,730,1,750.3999999985099,229709.69999999553,8031,WL,A,6.0
2,5.613999843597412,learn,54386.00015640259,Fri Feb 21 2025 10:09:22 GMT-0600 (Central Standard Time),230525.79999999702,A,ha,I,a,59,1,816.1000000014901,229709.69999999553,8031,WL,A,6.0
2,5.697999954223633,learn,54302.00004577637,Fri Feb 21 2025 10:09:22 GMT-0600 (Central Standard Time),230609.0,A,har,I,r,66,1,899.3000000044703,229709.69999999553,8031,WL,A,6.0
2,5.797999858856201,learn,54202.0001411438,Fri Feb 21 2025 10:09:22 GMT-0600 (Central Standard Time),230709.79999999702,A,harp,I,p,93,1,1000.1000000014901,229709.69999999553,8031,WL,A,6.0
2,6.046999931335449,learn,53953.00006866455,Fri Feb 21 2025 10:09:22 GMT-0600 (Central Standard Time),230958.69999999553,A,harpenter,I,enter,240,1,1249.0,229709.69999999553,8031,WL,A,6.0
2,6.980000019073486,learn,53019.999980926514,Fri Feb 21 2025 10:09:22 GMT-0600 (Central Standard Time),231891.59999999404,A,s,I,s,912,1,932.6999999955297,230958.8999999985,8031,WL,A,7.0
2,7.113999843597412,learn,52886.00015640259,Fri Feb 21 2025 10:09:22 GMT-0600 (Central Standard Time),232025.59999999404,A,sa,I,a,127,1,1066.6999999955297,230958.8999999985,8031,WL,A,7.0
2,7.261999845504761,learn,52738.00015449524,Fri Feb 21 2025 10:09:22 GMT-0600 (Central Standard Time),232173.59999999404,A,sat,I,t,133,1,1214.6999999955297,230958.8999999985,8031,WL,A,7.0
2,7.3450000286102295,learn,52654.99997138977,Fri Feb 21 2025 10:09:22 GMT-0600 (Central Standard Time),232256.59999999404,A,satenter,I,enter,72,1,1297.6999999955297,230958.8999999985,8031,WL,A,7.0
2,8.711999893188477,learn,51288.00010681152,Fri Feb 21 2025 10:09:22 GMT-0600 (Central Standard Time),233623.8999999985,A,f,I,f,1359,1,1367.1000000014901,232256.79999999702,8031,WL,A,8.0
2,8.812999963760376,learn,51187.000036239624,Fri Feb 21 2025 10:09:22 GMT-0600 (Central Standard Time),233724.29999999702,A,fi,I,i,87,1,1467.5,232256.79999999702,8031,WL,A,8.0
2,8.878999948501587,learn,51121.00005149841,Fri Feb 21 2025 10:09:22 GMT-0600 (Central Standard Time),233790.19999999553,A,fin,I,n,50,1,1533.3999999985099,232256.79999999702,8031,WL,A,8.0
2,8.980000019073486,learn,51019.999980926514,Fri Feb 21 2025 10:09:22 GMT-0600 (Central Standard Time),233891.3999999985,A,fing,I,g,89,1,1634.6000000014901,232256.79999999702,8031,WL,A,8.0
2,9.178999900817871,learn,50821.00009918213,Fri Feb 21 2025 10:09:22 GMT-0600 (Central Standard Time),234090.8999999985,A,finge,I,e,180,1,1834.1000000014901,232256.79999999702,8031,WL,A,8.0
2,9.210000038146973,learn,50789.99996185303,Fri Feb 21 2025 10:09:22 GMT-0600 (Central Standard Time),234122.0,A,finger,I,r,17,1,1865.2000000029802,232256.79999999702,8031,WL,A,8.0
2,9.544999837875366,learn,50455.000162124634,Fri Feb 21 2025 10:09:22 GMT-0600 (Central Standard Time),234456.8999999985,A,fingerenter,I,enter,327,1,2200.10000000149,232256.79999999702,8031,WL,A,8.0
2,15.143999814987183,learn,44856.00018501282,Fri Feb 21 2025 10:09:22 GMT-0600 (Central Standard Time),240055.8999999985,A,r,I,r,5592,1,5598.70000000298,234457.19999999553,8031,WL,A,9.0
2,15.279000043869019,learn,44720.99995613098,Fri Feb 21 2025 10:09:22 GMT-0600 (Central Standard Time),240191.3999999985,A,ru,I,u,125,1,5734.20000000298,234457.19999999553,8031,WL,A,9.0
2,15.40999984741211,learn,44590.00015258789,Fri Feb 21 2025 10:09:22 GMT-0600 (Central Standard Time),240322.79999999702,A,rug,I,g,121,1,5865.60000000149,234457.19999999553,8031,WL,A,9.0
2,15.575999975204468,learn,44424.00002479553,Fri Feb 21 2025 10:09:22 GMT-0600 (Central Standard Time),240488.3999999985,A,rugenter,I,enter,155,1,6031.20000000298,234457.19999999553,8031,WL,A,9.0
2,17.009999990463257,learn,42990.00000953674,Fri Feb 21 2025 10:09:22 GMT-0600 (Central Standard Time),241922.59999999404,A,f,I,f,1414,1,1433.8999999985099,240488.69999999553,8031,WL,A,10.0
2,17.07699990272522,learn,42923.00009727478,Fri Feb 21 2025 10:09:22 GMT-0600 (Central Standard Time),241989.59999999404,A,fl,I,l,52,1,1500.8999999985099,240488.69999999553,8031,WL,A,10.0
2,17.241999864578247,learn,42758.00013542175,Fri Feb 21 2025 10:09:22 GMT-0600 (Central Standard Time),242154.69999999553,A,flo,I,o,153,1,1666.0,240488.69999999553,8031,WL,A,10.0
2,17.342999935150146,learn,42657.00006484985,Fri Feb 21 2025 10:09:22 GMT-0600 (Central Standard Time),242254.79999999702,A,flow,I,w,84,1,1766.1000000014901,240488.69999999553,8031,WL,A,10.0
2,17.39199995994568,learn,42608.00004005432,Fri Feb 21 2025 10:09:22 GMT-0600 (Central Standard Time),242303.8999999985,A,flowe,I,e,32,1,1815.2000000029802,240488.69999999553,8031,WL,A,10.0
2,17.477999925613403,learn,42522.0000743866,Fri Feb 21 2025 10:09:22 GMT-0600 (Central Standard Time),242390.29999999702,A,flower,I,r,61,1,1901.6000000014901,240488.69999999553,8031,WL,A,10.0
2,17.609999895095825,learn,42390.000104904175,Fri Feb 21 2025 10:09:22 GMT-0600 (Central Standard Time),242522.09999999404,A,flowerenter,I,enter,121,1,2033.3999999985099,240488.69999999553,8031,WL,A,10.0
2,18.0939998626709,learn,41906.0001373291,Fri Feb 21 2025 10:09:22 GMT-0600 (Central Standard Time),243006.59999999404,A,t,I,t,479,1,484.29999999701977,242522.29999999702,8031,WL,A,11.0
2,18.259999990463257,learn,41740.00000953674,Fri Feb 21 2025 10:09:22 GMT-0600 (Central Standard Time),243172.69999999553,A,tr,I,r,144,1,650.3999999985099,242522.29999999702,8031,WL,A,11.0
2,18.359999895095825,learn,41640.000104904175,Fri Feb 21 2025 10:09:22 GMT-0600 (Central Standard Time),243272.59999999404,A,tra,I,a,78,1,750.2999999970198,242522.29999999702,8031,WL,A,11.0
2,18.406999826431274,learn,41593.000173568726,Fri Feb 21 2025 10:09:22 GMT-0600 (Central Standard Time),243319.09999999404,A,tran,I,n,29,1,796.7999999970198,242522.29999999702,8031,WL,A,11.0
2,18.592000007629395,learn,41407.999992370605,Fri Feb 21 2025 10:09:22 GMT-0600 (Central Standard Time),243504.5,A,tranenter,I,enter,164,1,982.2000000029802,242522.29999999702,8031,WL,A,11.0
2,19.759999990463257,learn,40240.00000953674,Fri Feb 21 2025 10:09:22 GMT-0600 (Central Standard Time),244672.0,A,b,I,b,1152,1,1167.2000000029802,243504.79999999702,8031,WL,A,12.0
2,19.825999975204468,learn,40174.00002479553,Fri Feb 21 2025 10:09:22 GMT-0600 (Central Standard Time),244738.29999999702,A,bo,I,o,53,1,1233.5,243504.79999999702,8031,WL,A,12.0
2,20.024999856948853,learn,39975.00014305115,Fri Feb 21 2025 10:09:22 GMT-0600 (Central Standard Time),244937.5,A,boo,I,o,178,1,1432.7000000029802,243504.79999999702,8031,WL,A,12.0
2,20.092000007629395,learn,39907.999992370605,Fri Feb 21 2025 10:09:22 GMT-0600 (Central Standard Time),245004.0,A,book,I,k,53,1,1499.2000000029802,243504.79999999702,8031,WL,A,12.0
2,20.359999895095825,learn,39640.000104904175,Fri Feb 21 2025 10:09:22 GMT-0600 (Central Standard Time),245271.79999999702,A,bookenter,I,enter,263,1,1767.0,243504.79999999702,8031,WL,A,12.0
2,24.08999991416931,learn,35910.00008583069,Fri Feb 21 2025 10:09:22 GMT-0600 (Central Standard Time),249002.69999999553,A,h,I,h,3720,1,3730.60000000149,245272.09999999404,8031,WL,A,13.0
2,24.240000009536743,learn,35759.99999046326,Fri Feb 21 2025 10:09:22 GMT-0600 (Central Standard Time),249152.0,A,ha,I,a,139,1,3879.9000000059605,245272.09999999404,8031,WL,A,13.0
2,24.305999994277954,learn,35694.000005722046,Fri Feb 21 2025 10:09:22 GMT-0600 (Central Standard Time),249217.8999999985,A,har,I,r,53,1,3945.8000000044703,245272.09999999404,8031,WL,A,13.0
2,24.441999912261963,learn,35558.00008773804,Fri Feb 21 2025 10:09:22 GMT-0600 (Central Standard Time),249354.29999999702,A,harp,I,p,113,1,4082.2000000029802,245272.09999999404,8031,WL,A,13.0
2,24.794999837875366,learn,35205.000162124634,Fri Feb 21 2025 10:09:22 GMT-0600 (Central Standard Time),249707.3999999985,A,harpenter,I,enter,330,1,4435.30000000447,245272.09999999404,8031,WL,A,13.0
2,37.36999988555908,learn,22630.000114440918,Fri Feb 21 2025 10:09:22 GMT-0600 (Central Standard Time),262281.8999999985,A,r,I,r,12567,1,12574.30000000447,249707.59999999404,8031,WL,A,14.0
2,37.48599982261658,learn,22514.000177383423,Fri Feb 21 2025 10:09:22 GMT-0600 (Central Standard Time),262398.59999999404,A,ru,I,u,101,1,12691.0,249707.59999999404,8031,WL,A,14.0
2,37.585999965667725,learn,22414.000034332275,Fri Feb 21 2025 10:09:22 GMT-0600 (Central Standard Time),262498.5,A,rug,I,g,87,1,12790.90000000596,249707.59999999404,8031,WL,A,14.0
2,37.80199980735779,learn,22198.000192642212,Fri Feb 21 2025 10:09:22 GMT-0600 (Central Standard Time),262714.5,A,rugenter,I,enter,197,1,13006.90000000596,249707.59999999404,8031,WL,A,14.0
2,39.53499984741211,learn,20465.00015258789,Fri Feb 21 2025 10:09:22 GMT-0600 (Central Standard Time),264447.59999999404,A,enter,I,enter,1716,1,1732.7999999970198,262714.799999997,8031,WL,A,15.0
3,0.932999849319458,learn,59067.00015068054,Fri Feb 21 2025 10:09:22 GMT-0600 (Central Standard Time),335190.8999999985,A,l,I,l,919,1,932.8000000044703,334258.09999999404,8031,WL,A,1.0
3,1.2159998416900635,learn,58784.00015830994,Fri Feb 21 2025 10:09:22 GMT-0600 (Central Standard Time),335474.0,A,lo,I,o,273,1,1215.9000000059605,334258.09999999404,8031,WL,A,1.0
3,1.5159997940063477,learn,58484.00020599365,Fri Feb 21 2025 10:09:22 GMT-0600 (Central Standard Time),335773.799999997,A,log,I,g,286,1,1515.7000000029802,334258.09999999404,8031,WL,A,1.0
3,1.7649998664855957,learn,58235.000133514404,Fri Feb 21 2025 10:09:22 GMT-0600 (Central Standard Time),336023.0,A,logenter,I,enter,242,1,1764.9000000059605,334258.09999999404,8031,WL,A,1.0
3,2.1489999294281006,learn,57851.0000705719,Fri Feb 21 2025 10:09:22 GMT-0600 (Central Standard Time),336407.0,A,k,I,k,370,1,383.90000000596046,336023.09999999404,8031,WL,A,2.0
3,2.31499981880188,learn,57685.00018119812,Fri Feb 21 2025 10:09:22 GMT-0600 (Central Standard Time),336572.799999997,A,ke,I,e,161,1,549.7000000029802,336023.09999999404,8031,WL,A,2.0
3,2.5149998664855957,learn,57485.000133514404,Fri Feb 21 2025 10:09:22 GMT-0600 (Central Standard Time),336773.3999999985,A,key,I,y,188,1,750.3000000044703,336023.09999999404,8031,WL,A,2.0
3,2.8319997787475586,learn,57168.00022125244,Fri Feb 21 2025 10:09:22 GMT-0600 (Central Standard Time),337089.5,A,keyenter,I,enter,307,1,1066.4000000059605,336023.09999999404,8031,WL,A,2.0
3,3.0839998722076416,learn,56916.00012779236,Fri Feb 21 2025 10:09:22 GMT-0600 (Central Standard Time),337341.8999999985,A,r,I,r,245,1,252.10000000149012,337089.799999997,8031,WL,A,3.0
3,3.2139999866485596,learn,56786.00001335144,Fri Feb 21 2025 10:09:22 GMT-0600 (Central Standard Time),337472.3999999985,A,ra,I,a,123,1,382.6000000014901,337089.799999997,8031,WL,A,3.0
3,3.3329999446868896,learn,56667.00005531311,Fri Feb 21 2025 10:09:22 GMT-0600 (Central Standard Time),337590.799999997,A,rat,I,t,112,1,501.0,337089.799999997,8031,WL,A,3.0
3,3.497999906539917,learn,56502.00009346008,Fri Feb 21 2025 10:09:22 GMT-0600 (Central Standard Time),337756.3999999985,A,ratt,I,t,162,1,666.6000000014901,337089.799999997,8031,WL,A,3.0
3,3.630999803543091,learn,56369.00019645691,Fri Feb 21 2025 10:09:22 GMT-0600 (Central Standard Time),337889.0,A,rattl,I,l,115,1,799.2000000029802,337089.799999997,8031,WL,A,3.0
3,3.7149999141693115,learn,56285.00008583069,Fri Feb 21 2025 10:09:22 GMT-0600 (Central Standard Time),337973.299999997,A,rattle,I,e,64,1,883.5,337089.799999997,8031,WL,A,3.0
3,3.8989999294281006,learn,56101.0000705719,Fri Feb 21 2025 10:09:22 GMT-0600 (Central Standard Time),338157.0,A,rattleenter,I,enter,163,1,1067.2000000029802,337089.799999997,8031,WL,A,3.0
3,4.2149999141693115,learn,55785.00008583069,Fri Feb 21 2025 10:09:22 GMT-0600 (Central Standard Time),338473.0,A,g,I,g,308,1,315.80000000447035,338157.19999999553,8031,WL,A,4.0
3,4.331999778747559,learn,55668.00022125244,Fri Feb 21 2025 10:09:22 GMT-0600 (Central Standard Time),338589.8999999985,A,go,I,o,98,1,432.70000000298023,338157.19999999553,8031,WL,A,4.0
3,4.5329999923706055,learn,55467.000007629395,Fri Feb 21 2025 10:09:22 GMT-0600 (Central Standard Time),338791.299999997,A,gol,I,l,187,1,634.1000000014901,338157.19999999553,8031,WL,A,4.0
3,4.632999897003174,learn,55367.000102996826,Fri Feb 21 2025 10:09:22 GMT-0600 (Central Standard Time),338891.3999999985,A,gold,I,d,87,1,734.2000000029802,338157.19999999553,8031,WL,A,4.0
3,4.781999826431274,learn,55218.000173568726,Fri Feb 21 2025 10:09:22 GMT-0600 (Central Standard Time),339040.3999999985,A,goldenter,I,enter,130,1,883.2000000029802,338157.19999999553,8031,WL,A,4.0
3,7.949999809265137,learn,52050.00019073486,Fri Feb 21 2025 10:09:22 GMT-0600 (Central Standard Time),342208.09999999404,A,c,I,c,3163,1,3167.5,339040.59999999404,8031,WL,A,5.0
3,8.080999851226807,learn,51919.00014877319,Fri Feb 21 2025 10:09:22 GMT-0600 (Central Standard Time),342339.299999997,A,ch,I,h,118,1,3298.7000000029802,339040.59999999404,8031,WL,A,5.0
3,8.164999961853027,learn,51835.00003814697,Fri Feb 21 2025 10:09:22 GMT-0600 (Central Standard Time),342422.69999999553,A,chi,I,i,68,1,3382.10000000149,339040.59999999404,8031,WL,A,5.0
3,8.365000009536743,learn,51634.99999046326,Fri Feb 21 2025 10:09:22 GMT-0600 (Central Standard Time),342623.3999999985,A,chim,I,m,184,1,3582.8000000044703,339040.59999999404,8031,WL,A,5.0
3,8.75,learn,51250.0,Fri Feb 21 2025 10:09:22 GMT-0600 (Central Standard Time),343008.09999999404,A,chimn,I,n,378,1,3967.5,339040.59999999404,8031,WL,A,5.0
3,8.88099980354309,learn,51119.00019645691,Fri Feb 21 2025 10:09:22 GMT-0600 (Central Standard Time),343138.59999999404,A,chimne,I,e,117,1,4098.0,339040.59999999404,8031,WL,A,5.0
3,9.030999898910522,learn,50969.00010108948,Fri Feb 21 2025 10:09:22 GMT-0600 (Central Standard Time),343289.3999999985,A,chimney,I,y,130,1,4248.80000000447,339040.59999999404,8031,WL,A,5.0
3,9.898000001907349,learn,50101.99999809265,Fri Feb 21 2025 10:09:22 GMT-0600 (Central Standard Time),344156.3999999985,A,chimneyenter,I,enter,856,1,5115.80000000447,339040.59999999404,8031,WL,A,5.0
3,10.23199987411499,learn,49768.00012588501,Fri Feb 21 2025 10:09:22 GMT-0600 (Central Standard Time),344489.8999999985,A,m,I,m,324,1,333.20000000298023,344156.69999999553,8031,WL,A,6.0
3,10.331999778747559,learn,49668.00022125244,Fri Feb 21 2025 10:09:22 GMT-0600 (Central Standard Time),344590.299999997,A,me,I,e,94,1,433.6000000014901,344156.69999999553,8031,WL,A,6.0
3,10.430999994277954,learn,49569.000005722046,Fri Feb 21 2025 10:09:22 GMT-0600 (Central Standard Time),344688.5,A,mea,I,a,88,1,531.8000000044703,344156.69999999553,8031,WL,A,6.0
3,10.515999794006348,learn,49484.00020599365,Fri Feb 21 2025 10:09:22 GMT-0600 (Central Standard Time),344774.19999999553,A,mead,I,d,80,1,617.5,344156.69999999553,8031,WL,A,6.0
3,10.629999876022339,learn,49370.00012397766,Fri Feb 21 2025 10:09:22 GMT-0600 (Central Standard Time),344888.299999997,A,meado,I,o,106,1,731.6000000014901,344156.69999999553,8031,WL,A,6.0
3,10.71399998664856,learn,49286.00001335144,Fri Feb 21 2025 10:09:22 GMT-0600 (Central Standard Time),344972.09999999404,A,meadow,I,w,62,1,815.3999999985099,344156.69999999553,8031,WL,A,6.0
3,10.88099980354309,learn,49119.00019645691,Fri Feb 21 2025 10:09:22 GMT-0600 (Central Standard Time),345139.3999999985,A,meadowenter,I,enter,147,1,982.7000000029802,344156.69999999553,8031,WL,A,6.0
3,12.997999906539917,learn,47002.00009346008,Fri Feb 21 2025 10:09:22 GMT-0600 (Central Standard Time),347256.09999999404,A,h,I,h,2101,1,2116.5,345139.59999999404,8031,WL,A,7.0
3,13.148000001907349,learn,46851.99999809265,Fri Feb 21 2025 10:09:22 GMT-0600 (Central Standard Time),347405.799999997,A,he,I,e,144,1,2266.2000000029802,345139.59999999404,8031,WL,A,7.0
3,13.19599986076355,learn,46804.00013923645,Fri Feb 21 2025 10:09:22 GMT-0600 (Central Standard Time),347453.799999997,A,hea,I,a,39,1,2314.2000000029802,345139.59999999404,8031,WL,A,7.0
3,13.263000011444092,learn,46736.99998855591,Fri Feb 21 2025 10:09:22 GMT-0600 (Central Standard Time),347521.0,A,hear,I,r,58,1,2381.4000000059605,345139.59999999404,8031,WL,A,7.0
3,13.547999858856201,learn,46452.0001411438,Fri Feb 21 2025 10:09:22 GMT-0600 (Central Standard Time),347806.3999999985,A,heart,I,t,279,1,2666.8000000044703,345139.59999999404,8031,WL,A,7.0
3,14.228999853134155,learn,45771.000146865845,Fri Feb 21 2025 10:09:22 GMT-0600 (Central Standard Time),348487.19999999553,A,heartenter,I,enter,672,1,3347.60000000149,345139.59999999404,8031,WL,A,7.0
3,14.561999797821045,learn,45438.000202178955,Fri Feb 21 2025 10:09:22 GMT-0600 (Central Standard Time),348819.799999997,A,s,I,s,319,1,332.3999999985099,348487.3999999985,8031,WL,A,8.0
3,14.66100001335144,learn,45338.99998664856,Fri Feb 21 2025 10:09:22 GMT-0600 (Central Standard Time),348919.299999997,A,sa,I,a,85,1,431.8999999985099,348487.3999999985,8031,WL,A,8.0
3,14.76199984550476,learn,45238.00015449524,Fri Feb 21 2025 10:09:22 GMT-0600 (Central Standard Time),349019.59999999404,A,sal,I,l,81,1,532.1999999955297,348487.3999999985,8031,WL,A,8.0
3,14.979999780654907,learn,45020.00021934509,Fri Feb 21 2025 10:09:22 GMT-0600 (Central Standard Time),349237.799999997,A,salt,I,t,206,1,750.3999999985099,348487.3999999985,8031,WL,A,8.0
3,15.212999820709229,learn,44787.00017929077,Fri Feb 21 2025 10:09:22 GMT-0600 (Central Standard Time),349471.19999999553,A,saltenter,I,enter,210,1,983.7999999970198,348487.3999999985,8031,WL,A,8.0
3,15.662999868392944,learn,44337.000131607056,Fri Feb 21 2025 10:09:22 GMT-0600 (Central Standard Time),349920.8999999985,A,f,I,f,433,1,449.5,349471.3999999985,8031,WL,A,9.0
3,15.77999997138977,learn,44220.00002861023,Fri Feb 21 2025 10:09:22 GMT-0600 (Central Standard Time),350038.299999997,A,fi,I,i,111,1,566.8999999985099,349471.3999999985,8031,WL,A,9.0
3,15.84499979019165,learn,44155.00020980835,Fri Feb 21 2025 10:09:22 GMT-0600 (Central Standard Time),350102.799999997,A,fin,I,n,53,1,631.3999999985099,349471.3999999985,8031,WL,A,9.0
3,15.96399998664856,learn,44036.00001335144,Fri Feb 21 2025 10:09:22 GMT-0600 (Central Standard Time),350222.19999999553,A,fing,I,g,115,1,750.7999999970198,349471.3999999985,8031,WL,A,9.0
3,16.162999868392944,learn,43837.000131607056,Fri Feb 21 2025 10:09:22 GMT-0600 (Central Standard Time),350421.19999999553,A,finge,I,e,176,1,949.7999999970198,349471.3999999985,8031,WL,A,9.0
3,16.210999965667725,learn,43789.000034332275,Fri Feb 21 2025 10:09:22 GMT-0600 (Central Standard Time),350468.69999999553,A,finger,I,r,31,1,997.2999999970198,349471.3999999985,8031,WL,A,9.0
3,16.429999828338623,learn,43570.00017166138,Fri Feb 21 2025 10:09:22 GMT-0600 (Central Standard Time),350687.59999999404,A,fingerenter,I,enter,203,1,1216.1999999955297,349471.3999999985,8031,WL,A,9.0
3,19.21299982070923,learn,40787.00017929077,Fri Feb 21 2025 10:09:22 GMT-0600 (Central Standard Time),353470.8999999985,A,b,I,b,2778,1,2783.0,350687.8999999985,8031,WL,A,10.0
3,19.311999797821045,learn,40688.000202178955,Fri Feb 21 2025 10:09:22 GMT-0600 (Central Standard Time),353569.8999999985,A,bo,I,o,78,1,2882.0,350687.8999999985,8031,WL,A,10.0
3,19.57799983024597,learn,40422.00016975403,Fri Feb 21 2025 10:09:22 GMT-0600 (Central Standard Time),353835.799999997,A,boo,I,o,252,1,3147.89999999851,350687.8999999985,8031,WL,A,10.0
3,19.643999814987183,learn,40356.00018501282,Fri Feb 21 2025 10:09:22 GMT-0600 (Central Standard Time),353902.0,A,book,I,k,49,1,3214.10000000149,350687.8999999985,8031,WL,A,10.0
3,20.57799983024597,learn,39422.00016975403,Fri Feb 21 2025 10:09:22 GMT-0600 (Central Standard Time),354835.69999999553,A,bookenter,I,enter,912,1,4147.79999999702,350687.8999999985,8031,WL,A,10.0
3,21.211999893188477,learn,38788.00010681152,Fri Feb 21 2025 10:09:22 GMT-0600 (Central Standard Time),355470.3999999985,A,t,I,t,630,1,634.3999999985099,354836.0,8031,WL,A,11.0
3,21.39199995994568,learn,38608.00004005432,Fri Feb 21 2025 10:09:22 GMT-0600 (Central Standard Time),355650.19999999553,A,tr,I,r,159,1,814.1999999955297,354836.0,8031,WL,A,11.0
3,21.47599983215332,learn,38524.00016784668,Fri Feb 21 2025 10:09:22 GMT-0600 (Central Standard Time),355733.8999999985,A,tra,I,a,78,1,897.8999999985099,354836.0,8031,WL,A,11.0
3,21.51099991798401,learn,38489.00008201599,Fri Feb 21 2025 10:09:22 GMT-0600 (Central Standard Time),355768.5,A,trai,I,i,18,1,932.5,354836.0,8031,WL,A,11.0
3,21.592999935150146,learn,38407.00006484985,Fri Feb 21 2025 10:09:22 GMT-0600 (Central Standard Time),355850.59999999404,A,train,I,n,64,1,1014.5999999940395,354836.0,8031,WL,A,11.0
3,21.824999809265137,learn,38175.00019073486,Fri Feb 21 2025 10:09:22 GMT-0600 (Central Standard Time),356083.299999997,A,trainenter,I,enter,214,1,1247.2999999970198,354836.0,8031,WL,A,11.0
3,22.143999814987183,learn,37856.00018501282,Fri Feb 21 2025 10:09:22 GMT-0600 (Central Standard Time),356401.799999997,A,r,I,r,310,1,318.20000000298023,356083.59999999404,8031,WL,A,12.0
3,22.30999994277954,learn,37690.00005722046,Fri Feb 21 2025 10:09:22 GMT-0600 (Central Standard Time),356568.19999999553,A,ru,I,u,145,1,484.6000000014901,356083.59999999404,8031,WL,A,12.0
3,22.393999814987183,learn,37606.00018501282,Fri Feb 21 2025 10:09:22 GMT-0600 (Central Standard Time),356652.3999999985,A,rug,I,g,61,1,568.8000000044703,356083.59999999404,8031,WL,A,12.0
3,25.924999952316284,learn,34075.000047683716,Fri Feb 21 2025 10:09:22 GMT-0600 (Central Standard Time),360183.3999999985,A,rugenter,I,enter,3524,1,4099.80000000447,356083.59999999404,8031,WL,A,12.0
3,26.426999807357788,learn,33573.00019264221,Fri Feb 21 2025 10:09:22 GMT-0600 (Central Standard Time),360685.299999997,A,f,I,f,481,1,501.70000000298023,360183.59999999404,8031,WL,A,13.0
3,26.507999897003174,learn,33492.000102996826,Fri Feb 21 2025 10:09:22 GMT-0600 (Central Standard Time),360767.0,A,fl,I,l,72,1,583.4000000059605,360183.59999999404,8031,WL,A,13.0
3,26.723999977111816,learn,33276.00002288818,Fri Feb 21 2025 10:09:22 GMT-0600 (Central Standard Time),360983.0,A,flo,I,o,198,1,799.4000000059605,360183.59999999404,8031,WL,A,13.0
3,26.824999809265137,learn,33175.00019073486,Fri Feb 21 2025 10:09:22 GMT-0600 (Central Standard Time),361083.299999997,A,flow,I,w,85,1,899.7000000029802,360183.59999999404,8031,WL,A,13.0
3,26.890999794006348,learn,33109.00020599365,Fri Feb 21 2025 10:09:22 GMT-0600 (Central Standard Time),361149.09999999404,A,flowe,I,e,44,1,965.5,360183.59999999404,8031,WL,A,13.0
3,27.008999824523926,learn,32991.000175476074,Fri Feb 21 2025 10:09:22 GMT-0600 (Central Standard Time),361267.3999999985,A,flower,I,r,96,1,1083.8000000044703,360183.59999999404,8031,WL,A,13.0
3,27.19099998474121,learn,32809.00001525879,Fri Feb 21 2025 10:09:22 GMT-0600 (Central Standard Time),361450.09999999404,A,flowerenter,I,enter,169,1,1266.5,360183.59999999404,8031,WL,A,13.0
3,32.788999795913696,learn,27211.000204086304,Fri Feb 21 2025 10:09:22 GMT-0600 (Central Standard Time),367047.8999999985,A,b,I,b,5590,1,5597.5,361450.3999999985,8031,WL,A,14.0
3,32.888999938964844,learn,27111.000061035156,Fri Feb 21 2025 10:09:22 GMT-0600 (Central Standard Time),367147.69999999553,A,bu,I,u,77,1,5697.29999999702,361450.3999999985,8031,WL,A,14.0
3,33.0239999294281,learn,26976.0000705719,Fri Feb 21 2025 10:09:22 GMT-0600 (Central Standard Time),367282.3999999985,A,but,I,t,114,1,5832.0,361450.3999999985,8031,WL,A,14.0
3,33.156999826431274,learn,26843.000173568726,Fri Feb 21 2025 10:09:22 GMT-0600 (Central Standard Time),367416.0,A,butt,I,t,125,1,5965.60000000149,361450.3999999985,8031,WL,A,14.0
3,33.204999923706055,learn,26795.000076293945,Fri Feb 21 2025 10:09:22 GMT-0600 (Central Standard Time),367463.19999999553,A,butto,I,o,34,1,6012.79999999702,361450.3999999985,8031,WL,A,14.0
3,33.29099988937378,learn,26709.00011062622,Fri Feb 21 2025 10:09:22 GMT-0600 (Central Standard Time),367549.5,A,button,I,n,73,1,6099.10000000149,361450.3999999985,8031,WL,A,14.0
3,33.50699996948242,learn,26493.000030517578,Fri Feb 21 2025 10:09:22 GMT-0600 (Central Standard Time),367765.69999999553,A,buttonenter,I,enter,205,1,6315.29999999702,361450.3999999985,8031,WL,A,14.0
3,34.65599989891052,learn,25344.000101089478,Fri Feb 21 2025 10:09:22 GMT-0600 (Central Standard Time),368914.09999999404,A,enter,I,enter,1129,1,1148.0999999940395,367766.0,8031,WL,A,15.0
4,0.5829999446868896,learn,59417.00005531311,Fri Feb 21 2025 10:09:22 GMT-0600 (Central Standard Time),435877.799999997,A,b,I,b,574,1,582.5,435295.299999997,8031,WL,A,1.0
4,0.7319998741149902,learn,59268.00012588501,Fri Feb 21 2025 10:09:22 GMT-0600 (Central Standard Time),436027.09999999404,A,bu,I,u,130,1,731.7999999970198,435295.299999997,8031,WL,A,1.0
4,0.8809998035430908,learn,59119.00019645691,Fri Feb 21 2025 10:09:22 GMT-0600 (Central Standard Time),436176.59999999404,A,but,I,t,139,1,881.2999999970198,435295.299999997,8031,WL,A,1.0
4,1.0649998188018799,learn,58935.00018119812,Fri Feb 21 2025 10:09:22 GMT-0600 (Central Standard Time),436359.8999999985,A,butt,I,t,167,1,1064.6000000014901,435295.299999997,8031,WL,A,1.0
4,1.2149999141693115,learn,58785.00008583069,Fri Feb 21 2025 10:09:22 GMT-0600 (Central Standard Time),436510.299999997,A,butto,I,o,145,1,1215.0,435295.299999997,8031,WL,A,1.0
4,1.3469998836517334,learn,58653.00011634827,Fri Feb 21 2025 10:09:22 GMT-0600 (Central Standard Time),436642.59999999404,A,button,I,n,120,1,1347.2999999970198,435295.299999997,8031,WL,A,1.0
4,1.8149998188018799,learn,58185.00018119812,Fri Feb 21 2025 10:09:22 GMT-0600 (Central Standard Time),437110.3999999985,A,butto,I,backspace,450,1,1815.1000000014901,435295.299999997,8031,WL,A,1.0
4,1.9839999675750732,learn,58016.00003242493,Fri Feb 21 2025 10:09:22 GMT-0600 (Central Standard Time),437278.799999997,A,butt,I,backspace,163,1,1983.5,435295.299999997,8031,WL,A,1.0
4,2.178999900817871,learn,57821.00009918213,Fri Feb 21 2025 10:09:22 GMT-0600 (Central Standard Time),437473.8999999985,A,but,I,backspace,178,1,2178.60000000149,435295.299999997,8031,WL,A,1.0
4,2.3479998111724854,learn,57652.000188827515,Fri Feb 21 2025 10:09:22 GMT-0600 (Central Standard Time),437643.299999997,A,bu,I,backspace,152,1,2348.0,435295.299999997,8031,WL,A,1.0
4,2.5139999389648438,learn,57486.000061035156,Fri Feb 21 2025 10:09:22 GMT-0600 (Central Standard Time),437809.59999999404,A,b,I,backspace,148,1,2514.2999999970198,435295.299999997,8031,WL,A,1.0
4,2.6639997959136963,learn,57336.000204086304,Fri Feb 21 2025 10:09:22 GMT-0600 (Central Standard Time),437959.299999997,A,,I,backspace,133,1,2664.0,435295.299999997,8031,WL,A,1.0
4,5.412999868392944,learn,54587.000131607056,Fri Feb 21 2025 10:09:22 GMT-0600 (Central Standard Time),440708.69999999553,A,b,I,b,2736,1,5413.39999999851,435295.299999997,8031,WL,A,1.0
4,5.613999843597412,learn,54386.00015640259,Fri Feb 21 2025 10:09:22 GMT-0600 (Central Standard Time),440909.19999999553,A,bu,I,u,188,1,5613.89999999851,435295.299999997,8031,WL,A,1.0
4,5.796999931335449,learn,54203.00006866455,Fri Feb 21 2025 10:09:22 GMT-0600 (Central Standard Time),441091.8999999985,A,but,I,t,170,1,5796.60000000149,435295.299999997,8031,WL,A,1.0
4,5.930999994277954,learn,54069.000005722046,Fri Feb 21 2025 10:09:22 GMT-0600 (Central Standard Time),441226.299999997,A,butt,I,t,127,1,5931.0,435295.299999997,8031,WL,A,1.0
4,6.031999826431274,learn,53968.000173568726,Fri Feb 21 2025 10:09:22 GMT-0600 (Central Standard Time),441326.799999997,A,butto,I,o,94,1,6031.5,435295.299999997,8031,WL,A,1.0
4,6.130999803543091,learn,53869.00019645691,Fri Feb 21 2025 10:09:22 GMT-0600 (Central Standard Time),441425.799999997,A,button,I,n,79,1,6130.5,435295.299999997,8031,WL,A,1.0
4,6.546999931335449,learn,53453.00006866455,Fri Feb 21 2025 10:09:22 GMT-0600 (Central Standard Time),441841.799999997,A,buttonenter,I,enter,403,1,6546.5,435295.299999997,8031,WL,A,1.0
4,7.761999845504761,learn,52238.00015449524,Fri Feb 21 2025 10:09:22 GMT-0600 (Central Standard Time),443057.09999999404,A,k,I,k,1206,1,1215.0,441842.09999999404,8031,WL,A,2.0
4,7.96399998664856,learn,52036.00001335144,Fri Feb 21 2025 10:09:22 GMT-0600 (Central Standard Time),443258.8999999985,A,ke,I,e,182,1,1416.8000000044703,441842.09999999404,8031,WL,A,2.0
4,8.178999900817871,learn,51821.00009918213,Fri Feb 21 2025 10:09:22 GMT-0600 (Central Standard Time),443474.5,A,key,I,y,196,1,1632.4000000059605,441842.09999999404,8031,WL,A,2.0
4,8.628999948501587,learn,51371.00005149841,Fri Feb 21 2025 10:09:22 GMT-0600 (Central Standard Time),443924.19999999553,A,keyenter,I,enter,427,1,2082.10000000149,441842.09999999404,8031,WL,A,2.0
4,9.04699993133545,learn,50953.00006866455,Fri Feb 21 2025 10:09:22 GMT-0600 (Central Standard Time),444342.69999999553,A,l,I,l,396,1,418.29999999701977,443924.3999999985,8031,WL,A,3.0
4,9.377999782562256,learn,50622.000217437744,Fri Feb 21 2025 10:09:22 GMT-0600 (Central Standard Time),444673.0,A,lo,I,o,313,1,748.6000000014901,443924.3999999985,8031,WL,A,3.0
4,9.562999963760376,learn,50437.000036239624,Fri Feb 21 2025 10:09:22 GMT-0600 (Central Standard Time),444858.299999997,A,log,I,g,166,1,933.8999999985099,443924.3999999985,8031,WL,A,3.0
4,9.794999837875366,learn,50205.000162124634,Fri Feb 21 2025 10:09:22 GMT-0600 (Central Standard Time),445090.299999997,A,logenter,I,enter,220,1,1165.8999999985099,443924.3999999985,8031,WL,A,3.0
4,10.128999948501587,learn,49871.00005149841,Fri Feb 21 2025 10:09:22 GMT-0600 (Central Standard Time),445423.799999997,A,r,I,r,318,1,333.29999999701977,445090.5,8031,WL,A,4.0
4,10.262999773025513,learn,49737.00022697449,Fri Feb 21 2025 10:09:22 GMT-0600 (Central Standard Time),445558.5,A,ra,I,a,128,1,468.0,445090.5,8031,WL,A,4.0
4,10.377999782562256,learn,49622.000217437744,Fri Feb 21 2025 10:09:22 GMT-0600 (Central Standard Time),445672.799999997,A,rat,I,t,97,1,582.2999999970198,445090.5,8031,WL,A,4.0
4,10.52899980545044,learn,49471.00019454956,Fri Feb 21 2025 10:09:22 GMT-0600 (Central Standard Time),445824.3999999985,A,ratt,I,t,128,1,733.8999999985099,445090.5,8031,WL,A,4.0
4,10.59499979019165,learn,49405.00020980835,Fri Feb 21 2025 10:09:22 GMT-0600 (Central Standard Time),445889.69999999553,A,rattl,I,l,54,1,799.1999999955297,445090.5,8031,WL,A,4.0
4,10.694999933242798,learn,49305.0000667572,Fri Feb 21 2025 10:09:22 GMT-0600 (Central Standard Time),445990.19999999553,A,rattle,I,e,85,1,899.6999999955297,445090.5,8031,WL,A,4.0
4,10.845999956130981,learn,49154.00004386902,Fri Feb 21 2025 10:09:22 GMT-0600 (Central Standard Time),446141.09999999404,A,rattleenter,I,enter,129,1,1050.5999999940395,445090.5,8031,WL,A,4.0
4,11.161999940872192,learn,48838.00005912781,Fri Feb 21 2025 10:09:22 GMT-0600 (Central Standard Time),446457.0,A,g,I,g,299,1,315.6000000014901,446141.3999999985,8031,WL,A,5.0
4,11.260999917984009,learn,48739.00008201599,Fri Feb 21 2025 10:09:22 GMT-0600 (Central Standard Time),446556.5,A,go,I,o,77,1,415.1000000014901,446141.3999999985,8031,WL,A,5.0
4,11.443999767303467,learn,48556.00023269653,Fri Feb 21 2025 10:09:22 GMT-0600 (Central Standard Time),446738.799999997,A,gol,I,l,161,1,597.3999999985099,446141.3999999985,8031,WL,A,5.0
4,11.543999910354614,learn,48456.000089645386,Fri Feb 21 2025 10:09:22 GMT-0600 (Central Standard Time),446839.0,A,gold,I,d,79,1,697.6000000014901,446141.3999999985,8031,WL,A,5.0
4,11.678999900817871,learn,48321.00009918213,Fri Feb 21 2025 10:09:22 GMT-0600 (Central Standard Time),446974.299999997,A,goldenter,I,enter,127,1,832.8999999985099,446141.3999999985,8031,WL,A,5.0
4,13.26199984550476,learn,46738.00015449524,Fri Feb 21 2025 10:09:22 GMT-0600 (Central Standard Time),448557.59999999404,A,h,I,h,1570,1,1582.8999999985099,446974.69999999553,8031,WL,A,6.0
4,13.393999814987183,learn,46606.00018501282,Fri Feb 21 2025 10:09:22 GMT-0600 (Central Standard Time),448689.299999997,A,ha,I,a,122,1,1714.6000000014901,446974.69999999553,8031,WL,A,6.0
4,13.559999942779541,learn,46440.00005722046,Fri Feb 21 2025 10:09:22 GMT-0600 (Central Standard Time),448855.5,A,har,I,r,149,1,1880.8000000044703,446974.69999999553,8031,WL,A,6.0
4,13.776999950408936,learn,46223.000049591064,Fri Feb 21 2025 10:09:22 GMT-0600 (Central Standard Time),449072.0,A,harp,I,p,206,1,2097.3000000044703,446974.69999999553,8031,WL,A,6.0
4,14.15999984741211,learn,45840.00015258789,Fri Feb 21 2025 10:09:22 GMT-0600 (Central Standard Time),449455.299999997,A,harpenter,I,enter,366,1,2480.60000000149,446974.69999999553,8031,WL,A,6.0
4,14.343999862670898,learn,45656.0001373291,Fri Feb 21 2025 10:09:22 GMT-0600 (Central Standard Time),449639.299999997,A,s,I,s,169,1,183.70000000298023,449455.59999999404,8031,WL,A,7.0
4,14.459999799728394,learn,45540.00020027161,Fri Feb 21 2025 10:09:22 GMT-0600 (Central Standard Time),449755.59999999404,A,sa,I,a,96,1,300.0,449455.59999999404,8031,WL,A,7.0
4,14.542999982833862,learn,45457.00001716614,Fri Feb 21 2025 10:09:22 GMT-0600 (Central Standard Time),449838.0,A,sal,I,l,65,1,382.40000000596046,449455.59999999404,8031,WL,A,7.0
4,14.727999925613403,learn,45272.0000743866,Fri Feb 21 2025 10:09:22 GMT-0600 (Central Standard Time),450022.799999997,A,salt,I,t,169,1,567.2000000029802,449455.59999999404,8031,WL,A,7.0
4,14.876999855041504,learn,45123.000144958496,Fri Feb 21 2025 10:09:22 GMT-0600 (Central Standard Time),450171.8999999985,A,saltenter,I,enter,127,1,716.3000000044703,449455.59999999404,8031,WL,A,7.0
4,15.226999998092651,learn,44773.00000190735,Fri Feb 21 2025 10:09:22 GMT-0600 (Central Standard Time),450521.69999999553,A,f,I,f,331,1,349.6000000014901,450172.09999999404,8031,WL,A,8.0
4,15.327999830245972,learn,44672.00016975403,Fri Feb 21 2025 10:09:22 GMT-0600 (Central Standard Time),450623.299999997,A,fi,I,i,80,1,451.20000000298023,450172.09999999404,8031,WL,A,8.0
4,15.375,learn,44625.0,Fri Feb 21 2025 10:09:22 GMT-0600 (Central Standard Time),450670.19999999553,A,fin,I,n,37,1,498.1000000014901,450172.09999999404,8031,WL,A,8.0
4,15.474999904632568,learn,44525.00009536743,Fri Feb 21 2025 10:09:22 GMT-0600 (Central Standard Time),450770.5,A,fing,I,g,82,1,598.4000000059605,450172.09999999404,8031,WL,A,8.0
4,15.64299988746643,learn,44357.00011253357,Fri Feb 21 2025 10:09:22 GMT-0600 (Central Standard Time),450938.0,A,finge,I,e,156,1,765.9000000059605,450172.09999999404,8031,WL,A,8.0
4,15.726999998092651,learn,44273.00000190735,Fri Feb 21 2025 10:09:22 GMT-0600 (Central Standard Time),451022.19999999553,A,finger,I,r,61,1,850.1000000014901,450172.09999999404,8031,WL,A,8.0
4,15.910999774932861,learn,44089.00022506714,Fri Feb 21 2025 10:09:22 GMT-0600 (Central Standard Time),451206.299999997,A,fingerenter,I,enter,176,1,1034.2000000029802,450172.09999999404,8031,WL,A,8.0
4,18.911999940872192,learn,41088.00005912781,Fri Feb 21 2025 10:09:22 GMT-0600 (Central Standard Time),454206.799999997,A,a,I,a,2979,1,3000.2999999970198,451206.5,8031,WL,A,9.0
4,18.990999937057495,learn,41009.000062942505,Fri Feb 21 2025 10:09:22 GMT-0600 (Central Standard Time),454286.19999999553,A,ap,I,p,63,1,3079.6999999955297,451206.5,8031,WL,A,9.0
4,19.193999767303467,learn,40806.00023269653,Fri Feb 21 2025 10:09:22 GMT-0600 (Central Standard Time),454489.09999999404,A,app,I,p,192,1,3282.5999999940395,451206.5,8031,WL,A,9.0
4,19.39199995994568,learn,40608.00004005432,Fri Feb 21 2025 10:09:22 GMT-0600 (Central Standard Time),454687.299999997,A,appl,I,l,181,1,3480.7999999970198,451206.5,8031,WL,A,9.0
4,19.524999856948853,learn,40475.00014305115,Fri Feb 21 2025 10:09:22 GMT-0600 (Central Standard Time),454820.299999997,A,apple,I,e,119,1,3613.7999999970198,451206.5,8031,WL,A,9.0
4,19.657999992370605,learn,40342.000007629395,Fri Feb 21 2025 10:09:22 GMT-0600 (Central Standard Time),454953.0,A,appleenter,I,enter,115,1,3746.5,451206.5,8031,WL,A,9.0
4,20.241999864578247,learn,39758.00013542175,Fri Feb 21 2025 10:09:22 GMT-0600 (Central Standard Time),455537.5,A,c,I,c,567,1,584.3000000044703,454953.19999999553,8031,WL,A,10.0
4,20.324999809265137,learn,39675.00019073486,Fri Feb 21 2025 10:09:22 GMT-0600 (Central Standard Time),455620.59999999404,A,ch,I,h,68,1,667.3999999985099,454953.19999999553,8031,WL,A,10.0
4,20.425999879837036,learn,39574.000120162964,Fri Feb 21 2025 10:09:22 GMT-0600 (Central Standard Time),455720.8999999985,A,chi,I,i,82,1,767.7000000029802,454953.19999999553,8031,WL,A,10.0
4,20.524999856948853,learn,39475.00014305115,Fri Feb 21 2025 10:09:22 GMT-0600 (Central Standard Time),455820.5,A,chim,I,m,77,1,867.3000000044703,454953.19999999553,8031,WL,A,10.0
4,20.80899977684021,learn,39191.00022315979,Fri Feb 21 2025 10:09:22 GMT-0600 (Central Standard Time),456104.59999999404,A,chimn,I,n,266,1,1151.3999999985099,454953.19999999553,8031,WL,A,10.0
4,20.991999864578247,learn,39008.00013542175,Fri Feb 21 2025 10:09:22 GMT-0600 (Central Standard Time),456287.5,A,chimne,I,e,166,1,1334.3000000044703,454953.19999999553,8031,WL,A,10.0
4,21.056999921798706,learn,38943.000078201294,Fri Feb 21 2025 10:09:22 GMT-0600 (Central Standard Time),456352.299999997,A,chimney,I,y,47,1,1399.1000000014901,454953.19999999553,8031,WL,A,10.0
4,22.157999992370605,learn,37842.000007629395,Fri Feb 21 2025 10:09:22 GMT-0600 (Central Standard Time),457453.5,A,chimneyenter,I,enter,1085,1,2500.3000000044703,454953.19999999553,8031,WL,A,10.0
4,24.006999969482422,learn,35993.00003051758,Fri Feb 21 2025 10:09:22 GMT-0600 (Central Standard Time),459302.69999999553,A,k,I,k,1835,1,1848.8999999985099,457453.799999997,8031,WL,A,11.0
4,24.58799982070923,learn,35412.00017929077,Fri Feb 21 2025 10:09:22 GMT-0600 (Central Standard Time),459883.69999999553,A,,I,backspace,567,1,2429.89999999851,457453.799999997,8031,WL,A,11.0
4,26.29099988937378,learn,33709.00011062622,Fri Feb 21 2025 10:09:22 GMT-0600 (Central Standard Time),461585.799999997,A,b,I,b,1694,1,4132.0,457453.799999997,8031,WL,A,11.0
4,26.37399983406067,learn,33626.00016593933,Fri Feb 21 2025 10:09:22 GMT-0600 (Central Standard Time),461668.799999997,A,bo,I,o,61,1,4215.0,457453.799999997,8031,WL,A,11.0
4,26.557999849319458,learn,33442.00015068054,Fri Feb 21 2025 10:09:22 GMT-0600 (Central Standard Time),461853.5,A,boo,I,o,177,1,4399.70000000298,457453.799999997,8031,WL,A,11.0
4,26.673999786376953,learn,33326.00021362305,Fri Feb 21 2025 10:09:22 GMT-0600 (Central Standard Time),461969.09999999404,A,book,I,k,97,1,4515.29999999702,457453.799999997,8031,WL,A,11.0
4,26.989999771118164,learn,33010.000228881836,Fri Feb 21 2025 10:09:22 GMT-0600 (Central Standard Time),462285.299999997,A,bookenter,I,enter,301,1,4831.5,457453.799999997,8031,WL,A,11.0
4,27.807999849319458,learn,32192.000150680542,Fri Feb 21 2025 10:09:22 GMT-0600 (Central Standard Time),463103.5,A,t,I,t,812,1,817.9000000059605,462285.59999999404,8031,WL,A,12.0
4,28.056999921798706,learn,31943.000078201294,Fri Feb 21 2025 10:09:22 GMT-0600 (Central Standard Time),463352.0,A,tr,I,r,241,1,1066.4000000059605,462285.59999999404,8031,WL,A,12.0
4,28.19099998474121,learn,31809.00001525879,Fri Feb 21 2025 10:09:22 GMT-0600 (Central Standard Time),463486.09999999404,A,tra,I,a,127,1,1200.5,462285.59999999404,8031,WL,A,12.0
4,28.288999795913696,learn,31711.000204086304,Fri Feb 21 2025 10:09:22 GMT-0600 (Central Standard Time),463584.299999997,A,trai,I,i,81,1,1298.7000000029802,462285.59999999404,8031,WL,A,12.0
4,28.35599994659424,learn,31644.00005340576,Fri Feb 21 2025 10:09:22 GMT-0600 (Central Standard Time),463651.0,A,train,I,n,46,1,1365.4000000059605,462285.59999999404,8031,WL,A,12.0
4,28.538999795913696,learn,31461.000204086304,Fri Feb 21 2025 10:09:22 GMT-0600 (Central Standard Time),463834.299999997,A,trainenter,I,enter,172,1,1548.7000000029802,462285.59999999404,8031,WL,A,12.0
4,29.0239999294281,learn,30976.0000705719,Fri Feb 21 2025 10:09:22 GMT-0600 (Central Standard Time),464319.19999999553,A,r,I,r,480,1,484.69999999552965,463834.5,8031,WL,A,13.0
4,29.20699977874756,learn,30793.00022125244,Fri Feb 21 2025 10:09:22 GMT-0600 (Central Standard Time),464502.09999999404,A,ru,I,u,159,1,667.5999999940395,463834.5,8031,WL,A,13.0
4,29.388999938964844,learn,30611.000061035156,Fri Feb 21 2025 10:09:22 GMT-0600 (Central Standard Time),464684.09999999404,A,rug,I,g,160,1,849.5999999940395,463834.5,8031,WL,A,13.0
4,30.42199993133545,learn,29578.00006866455,Fri Feb 21 2025 10:09:22 GMT-0600 (Central Standard Time),465717.19999999553,A,rugenter,I,enter,1026,1,1882.6999999955297,463834.5,8031,WL,A,13.0
4,31.10599994659424,learn,28894.00005340576,Fri Feb 21 2025 10:09:22 GMT-0600 (Central Standard Time),466400.799999997,A,m,I,m,667,1,683.3999999985099,465717.3999999985,8031,WL,A,14.0
4,31.17199993133545,learn,28828.00006866455,Fri Feb 21 2025 10:09:22 GMT-0600 (Central Standard Time),466466.8999999985,A,me,I,e,54,1,749.5,465717.3999999985,8031,WL,A,14.0
4,31.270999908447266,learn,28729.000091552734,Fri Feb 21 2025 10:09:22 GMT-0600 (Central Standard Time),466565.8999999985,A,mea,I,a,84,1,848.5,465717.3999999985,8031,WL,A,14.0
4,31.371999979019165,learn,28628.000020980835,Fri Feb 21 2025 10:09:22 GMT-0600 (Central Standard Time),466667.5,A,mead,I,d,79,1,950.1000000014901,465717.3999999985,8031,WL,A,14.0
4,31.50599980354309,learn,28494.00019645691,Fri Feb 21 2025 10:09:22 GMT-0600 (Central Standard Time),466800.799999997,A,meado,I,o,124,1,1083.3999999985099,465717.3999999985,8031,WL,A,14.0
4,31.57099986076355,learn,28429.00013923645,Fri Feb 21 2025 10:09:22 GMT-0600 (Central Standard Time),466866.5,A,meadow,I,w,45,1,1149.1000000014901,465717.3999999985,8031,WL,A,14.0
4,34.45299983024597,learn,25547.00016975403,Fri Feb 21 2025 10:09:22 GMT-0600 (Central Standard Time),469748.59999999404,A,meadowenter,I,enter,2868,1,4031.1999999955297,465717.3999999985,8031,WL,A,14.0
4,55.46399998664856,learn,4536.00001335144,Fri Feb 21 2025 10:09:22 GMT-0600 (Central Standard Time),490760.09999999404,A,k,I,k,21007,1,21011.19999999553,469748.8999999985,8031,WL,A,15.0
4,55.59699988365173,learn,4403.000116348267,Fri Feb 21 2025 10:09:22 GMT-0600 (Central Standard Time),490893.0,A,ke,I,e,118,1,21144.10000000149,469748.8999999985,8031,WL,A,15.0
4,55.73099994659424,learn,4269.000053405762,Fri Feb 21 2025 10:09:22 GMT-0600 (Central Standard Time),491026.69999999553,A,key,I,y,119,1,21277.79999999702,469748.8999999985,8031,WL,A,15.0
4,55.96499991416931,learn,4035.0000858306885,Fri Feb 21 2025 10:09:22 GMT-0600 (Central Standard Time),491261.09999999404,A,keyenter,I,enter,227,1,21512.19999999553,469748.8999999985,8031,WL,A,15.0
5,0.4509999752044678,learn,60000.0,Fri Feb 21 2025 10:09:22 GMT-0600 (Central Standard Time),558138.799999997,A,b,I,b,440,1,450.70000000298023,557688.099999994,8031,WL,A,1.0
5,0.752000093460083,learn,60000.0,Fri Feb 21 2025 10:09:22 GMT-0600 (Central Standard Time),558439.5,A,bo,I,o,294,1,751.4000000059605,557688.099999994,8031,WL,A,1.0
5,1.1010000705718994,learn,60000.0,Fri Feb 21 2025 10:09:22 GMT-0600 (Central Standard Time),558788.299999997,A,boo,I,o,336,1,1100.2000000029802,557688.099999994,8031,WL,A,1.0
5,1.2000000476837158,learn,60000.0,Fri Feb 21 2025 10:09:22 GMT-0600 (Central Standard Time),558887.6999999955,A,book,I,k,83,1,1199.6000000014901,557688.099999994,8031,WL,A,1.0
5,1.883000135421753,learn,60000.0,Fri Feb 21 2025 10:09:22 GMT-0600 (Central Standard Time),559570.099999994,A,bookenter,I,enter,670,1,1882.0,557688.099999994,8031,WL,A,1.0
5,4.166000127792358,learn,60000.0,Fri Feb 21 2025 10:09:22 GMT-0600 (Central Standard Time),561853.1999999955,A,f,I,f,2270,1,2282.89999999851,559570.299999997,8031,WL,A,2.0
5,4.266000032424927,learn,60000.0,Fri Feb 21 2025 10:09:22 GMT-0600 (Central Standard Time),561953.3999999985,A,fl,I,l,83,1,2383.10000000149,559570.299999997,8031,WL,A,2.0
5,4.482000112533569,learn,60000.0,Fri Feb 21 2025 10:09:22 GMT-0600 (Central Standard Time),562169.599999994,A,flo,I,o,196,1,2599.2999999970198,559570.299999997,8031,WL,A,2.0
5,4.584000110626221,learn,60000.0,Fri Feb 21 2025 10:09:22 GMT-0600 (Central Standard Time),562271.299999997,A,flow,I,w,96,1,2701.0,559570.299999997,8031,WL,A,2.0
5,4.648000001907349,learn,60000.0,Fri Feb 21 2025 10:09:22 GMT-0600 (Central Standard Time),562335.799999997,A,flowe,I,e,45,1,2765.5,559570.299999997,8031,WL,A,2.0
5,4.749000072479248,learn,60000.0,Fri Feb 21 2025 10:09:22 GMT-0600 (Central Standard Time),562437.0,A,flower,I,r,88,1,2866.7000000029802,559570.299999997,8031,WL,A,2.0
5,6.281000137329102,learn,60000.0,Fri Feb 21 2025 10:09:22 GMT-0600 (Central Standard Time),563968.8999999985,A,flowerenter,I,enter,1512,1,4398.60000000149,559570.299999997,8031,WL,A,2.0
5,6.815999984741211,learn,60000.0,Fri Feb 21 2025 10:09:22 GMT-0600 (Central Standard Time),564503.1999999955,A,t,I,t,519,1,534.0,563969.1999999955,8031,WL,A,3.0
5,7.016000032424927,learn,60000.0,Fri Feb 21 2025 10:09:22 GMT-0600 (Central Standard Time),564703.299999997,A,tr,I,r,194,1,734.1000000014901,563969.1999999955,8031,WL,A,3.0
5,7.115000009536743,learn,60000.0,Fri Feb 21 2025 10:09:22 GMT-0600 (Central Standard Time),564802.299999997,A,tra,I,a,88,1,833.1000000014901,563969.1999999955,8031,WL,A,3.0
5,7.180999994277954,learn,60000.0,Fri Feb 21 2025 10:09:22 GMT-0600 (Central Standard Time),564868.5,A,trai,I,i,59,1,899.3000000044703,563969.1999999955,8031,WL,A,3.0
5,7.2799999713897705,learn,60000.0,Fri Feb 21 2025 10:09:22 GMT-0600 (Central Standard Time),564967.6999999955,A,train,I,n,91,1,998.5,563969.1999999955,8031,WL,A,3.0
5,7.698000192642212,learn,60000.0,Fri Feb 21 2025 10:09:22 GMT-0600 (Central Standard Time),565385.3999999985,A,trainenter,I,enter,406,1,1416.2000000029802,563969.1999999955,8031,WL,A,3.0
5,9.098000049591064,learn,60000.0,Fri Feb 21 2025 10:09:22 GMT-0600 (Central Standard Time),566785.8999999985,A,r,I,r,1391,1,1400.2000000029802,565385.6999999955,8031,WL,A,4.0
5,9.246999979019165,learn,60000.0,Fri Feb 21 2025 10:09:22 GMT-0600 (Central Standard Time),566934.5,A,ru,I,u,142,1,1548.8000000044703,565385.6999999955,8031,WL,A,4.0
5,9.364000082015991,learn,60000.0,Fri Feb 21 2025 10:09:22 GMT-0600 (Central Standard Time),567052.0,A,rug,I,g,103,1,1666.3000000044703,565385.6999999955,8031,WL,A,4.0
5,9.71399998664856,learn,60000.0,Fri Feb 21 2025 10:09:22 GMT-0600 (Central Standard Time),567401.599999994,A,rugenter,I,enter,339,1,2015.8999999985099,565385.6999999955,8031,WL,A,4.0
5,10.54800009727478,learn,60000.0,Fri Feb 21 2025 10:09:22 GMT-0600 (Central Standard Time),568235.8999999985,A,m,I,m,814,1,833.8999999985099,567402.0,8031,WL,A,5.0
5,10.69700002670288,learn,60000.0,Fri Feb 21 2025 10:09:22 GMT-0600 (Central Standard Time),568384.5,A,me,I,e,138,1,982.5,567402.0,8031,WL,A,5.0
5,10.79800009727478,learn,60000.0,Fri Feb 21 2025 10:09:22 GMT-0600 (Central Standard Time),568485.299999997,A,mea,I,a,79,1,1083.2999999970198,567402.0,8031,WL,A,5.0
5,10.913000106811523,learn,60000.0,Fri Feb 21 2025 10:09:22 GMT-0600 (Central Standard Time),568600.1999999955,A,mead,I,d,96,1,1198.1999999955297,567402.0,8031,WL,A,5.0
5,11.047000169754028,learn,60000.0,Fri Feb 21 2025 10:09:22 GMT-0600 (Central Standard Time),568734.799999997,A,meado,I,o,126,1,1332.7999999970198,567402.0,8031,WL,A,5.0
5,11.130000114440918,learn,60000.0,Fri Feb 21 2025 10:09:22 GMT-0600 (Central Standard Time),568817.3999999985,A,meadow,I,w,64,1,1415.3999999985099,567402.0,8031,WL,A,5.0
5,11.564000129699707,learn,60000.0,Fri Feb 21 2025 10:09:22 GMT-0600 (Central Standard Time),569251.0,A,meadowenter,I,enter,412,1,1849.0,567402.0,8031,WL,A,5.0
5,12.680999994277954,learn,60000.0,Fri Feb 21 2025 10:09:22 GMT-0600 (Central Standard Time),570368.5,A,h,I,h,1112,1,1117.2000000029802,569251.299999997,8031,WL,A,6.0
5,12.796000003814697,learn,60000.0,Fri Feb 21 2025 10:09:22 GMT-0600 (Central Standard Time),570483.8999999985,A,he,I,e,101,1,1232.6000000014901,569251.299999997,8031,WL,A,6.0
5,12.84500002861023,learn,60000.0,Fri Feb 21 2025 10:09:22 GMT-0600 (Central Standard Time),570532.6999999955,A,hea,I,a,34,1,1281.3999999985099,569251.299999997,8031,WL,A,6.0
5,12.894999980926514,learn,60000.0,Fri Feb 21 2025 10:09:22 GMT-0600 (Central Standard Time),570582.1999999955,A,hear,I,r,41,1,1330.8999999985099,569251.299999997,8031,WL,A,6.0
5,13.080000162124634,learn,60000.0,Fri Feb 21 2025 10:09:22 GMT-0600 (Central Standard Time),570767.299999997,A,heart,I,t,169,1,1516.0,569251.299999997,8031,WL,A,6.0
5,13.21500015258789,learn,60000.0,Fri Feb 21 2025 10:09:22 GMT-0600 (Central Standard Time),570902.599999994,A,heartenter,I,enter,119,1,1651.2999999970198,569251.299999997,8031,WL,A,6.0
5,13.479000091552734,learn,60000.0,Fri Feb 21 2025 10:09:22 GMT-0600 (Central Standard Time),571166.6999999955,A,s,I,s,249,1,263.79999999701977,570902.8999999985,8031,WL,A,7.0
5,13.578999996185303,learn,60000.0,Fri Feb 21 2025 10:09:22 GMT-0600 (Central Standard Time),571266.1999999955,A,sa,I,a,79,1,363.29999999701977,570902.8999999985,8031,WL,A,7.0
5,13.664000034332275,learn,60000.0,Fri Feb 21 2025 10:09:22 GMT-0600 (Central Standard Time),571351.3999999985,A,sal,I,l,67,1,448.5,570902.8999999985,8031,WL,A,7.0
5,13.814000129699707,learn,60000.0,Fri Feb 21 2025 10:09:22 GMT-0600 (Central Standard Time),571501.8999999985,A,salt,I,t,127,1,599.0,570902.8999999985,8031,WL,A,7.0
5,13.945000171661377,learn,60000.0,Fri Feb 21 2025 10:09:22 GMT-0600 (Central Standard Time),571632.8999999985,A,saltenter,I,enter,112,1,730.0,570902.8999999985,8031,WL,A,7.0
5,14.21500015258789,learn,60000.0,Fri Feb 21 2025 10:09:22 GMT-0600 (Central Standard Time),571902.099999994,A,a,I,a,264,1,268.79999999701977,571633.299999997,8031,WL,A,8.0
5,14.313000202178955,learn,60000.0,Fri Feb 21 2025 10:09:22 GMT-0600 (Central Standard Time),572000.8999999985,A,ap,I,p,80,1,367.6000000014901,571633.299999997,8031,WL,A,8.0
5,14.513000011444092,learn,60000.0,Fri Feb 21 2025 10:09:22 GMT-0600 (Central Standard Time),572200.3999999985,A,app,I,p,180,1,567.1000000014901,571633.299999997,8031,WL,A,8.0
5,14.69700002670288,learn,60000.0,Fri Feb 21 2025 10:09:22 GMT-0600 (Central Standard Time),572384.1999999955,A,appl,I,l,168,1,750.8999999985099,571633.299999997,8031,WL,A,8.0
5,14.813000202178955,learn,60000.0,Fri Feb 21 2025 10:09:22 GMT-0600 (Central Standard Time),572500.1999999955,A,apple,I,e,94,1,866.8999999985099,571633.299999997,8031,WL,A,8.0
5,14.91100001335144,learn,60000.0,Fri Feb 21 2025 10:09:22 GMT-0600 (Central Standard Time),572598.8999999985,A,appleenter,I,enter,88,1,965.6000000014901,571633.299999997,8031,WL,A,8.0
5,15.746000051498413,learn,60000.0,Fri Feb 21 2025 10:09:22 GMT-0600 (Central Standard Time),573433.099999994,A,f,I,f,825,1,833.8999999985099,572599.1999999955,8031,WL,A,9.0
5,15.86300015449524,learn,60000.0,Fri Feb 21 2025 10:09:22 GMT-0600 (Central Standard Time),573550.799999997,A,fi,I,i,112,1,951.6000000014901,572599.1999999955,8031,WL,A,9.0
5,15.945000171661377,learn,60000.0,Fri Feb 21 2025 10:09:22 GMT-0600 (Central Standard Time),573632.299999997,A,fin,I,n,64,1,1033.1000000014901,572599.1999999955,8031,WL,A,9.0
5,16.01200008392334,learn,60000.0,Fri Feb 21 2025 10:09:22 GMT-0600 (Central Standard Time),573699.1999999955,A,fing,I,g,47,1,1100.0,572599.1999999955,8031,WL,A,9.0
5,16.16200017929077,learn,60000.0,Fri Feb 21 2025 10:09:22 GMT-0600 (Central Standard Time),573849.299999997,A,finge,I,e,140,1,1250.1000000014901,572599.1999999955,8031,WL,A,9.0
5,16.228000164031982,learn,60000.0,Fri Feb 21 2025 10:09:22 GMT-0600 (Central Standard Time),573915.599999994,A,finger,I,r,53,1,1316.3999999985099,572599.1999999955,8031,WL,A,9.0
5,16.276000022888184,learn,60000.0,Fri Feb 21 2025 10:09:22 GMT-0600 (Central Standard Time),573963.8999999985,A,fingerenter,I,enter,33,1,1364.7000000029802,572599.1999999955,8031,WL,A,9.0
5,16.578999996185303,learn,60000.0,Fri Feb 21 2025 10:09:22 GMT-0600 (Central Standard Time),574266.099999994,A,c,I,c,293,1,302.0,573964.099999994,8031,WL,A,10.0
5,16.663000106811523,learn,60000.0,Fri Feb 21 2025 10:09:22 GMT-0600 (Central Standard Time),574350.1999999955,A,ch,I,h,60,1,386.1000000014901,573964.099999994,8031,WL,A,10.0
5,16.710000038146973,learn,60000.0,Fri Feb 21 2025 10:09:22 GMT-0600 (Central Standard Time),574397.599999994,A,chi,I,i,32,1,433.5,573964.099999994,8031,WL,A,10.0
5,16.84500002861023,learn,60000.0,Fri Feb 21 2025 10:09:22 GMT-0600 (Central Standard Time),574532.799999997,A,chim,I,m,121,1,568.7000000029802,573964.099999994,8031,WL,A,10.0
5,17.34500002861023,learn,60000.0,Fri Feb 21 2025 10:09:22 GMT-0600 (Central Standard Time),575033.099999994,A,chimn,I,n,477,1,1069.0,573964.099999994,8031,WL,A,10.0
5,17.41000008583069,learn,60000.0,Fri Feb 21 2025 10:09:22 GMT-0600 (Central Standard Time),575097.799999997,A,chimne,I,e,45,1,1133.7000000029802,573964.099999994,8031,WL,A,10.0
5,17.545000076293945,learn,60000.0,Fri Feb 21 2025 10:09:22 GMT-0600 (Central Standard Time),575232.3999999985,A,chimney,I,y,115,1,1268.3000000044703,573964.099999994,8031,WL,A,10.0
5,17.795000076293945,learn,60000.0,Fri Feb 21 2025 10:09:22 GMT-0600 (Central Standard Time),575482.5,A,chimneyenter,I,enter,229,1,1518.4000000059605,573964.099999994,8031,WL,A,10.0
5,19.028000116348267,learn,60000.0,Fri Feb 21 2025 10:09:22 GMT-0600 (Central Standard Time),576715.099999994,A,b,I,b,1222,1,1232.2999999970198,575482.799999997,8031,WL,A,11.0
5,19.128000020980835,learn,60000.0,Fri Feb 21 2025 10:09:22 GMT-0600 (Central Standard Time),576815.3999999985,A,bu,I,u,85,1,1332.6000000014901,575482.799999997,8031,WL,A,11.0
5,19.261000156402588,learn,60000.0,Fri Feb 21 2025 10:09:22 GMT-0600 (Central Standard Time),576948.799999997,A,but,I,t,119,1,1466.0,575482.799999997,8031,WL,A,11.0
5,19.41200017929077,learn,60000.0,Fri Feb 21 2025 10:09:22 GMT-0600 (Central Standard Time),577099.799999997,A,butt,I,t,139,1,1617.0,575482.799999997,8031,WL,A,11.0
5,19.49400019645691,learn,60000.0,Fri Feb 21 2025 10:09:22 GMT-0600 (Central Standard Time),577181.6999999955,A,butto,I,o,77,1,1698.8999999985099,575482.799999997,8031,WL,A,11.0
5,19.56000018119812,learn,60000.0,Fri Feb 21 2025 10:09:22 GMT-0600 (Central Standard Time),577247.3999999985,A,button,I,n,48,1,1764.6000000014901,575482.799999997,8031,WL,A,11.0
5,21.2260000705719,learn,60000.0,Fri Feb 21 2025 10:09:22 GMT-0600 (Central Standard Time),578913.6999999955,A,buttonenter,I,enter,1654,1,3430.89999999851,575482.799999997,8031,WL,A,11.0
5,21.527000188827515,learn,60000.0,Fri Feb 21 2025 10:09:22 GMT-0600 (Central Standard Time),579214.599999994,A,l,I,l,286,1,300.59999999403954,578914.0,8031,WL,A,12.0
5,21.695000171661377,learn,60000.0,Fri Feb 21 2025 10:09:22 GMT-0600 (Central Standard Time),579382.5,A,lo,I,o,162,1,468.5,578914.0,8031,WL,A,12.0
5,21.794000148773193,learn,60000.0,Fri Feb 21 2025 10:09:22 GMT-0600 (Central Standard Time),579481.1999999955,A,log,I,g,86,1,567.1999999955297,578914.0,8031,WL,A,12.0
5,21.960000038146973,learn,60000.0,Fri Feb 21 2025 10:09:22 GMT-0600 (Central Standard Time),579647.0,A,logenter,I,enter,150,1,733.0,578914.0,8031,WL,A,12.0
5,22.694000005722046,learn,60000.0,Fri Feb 21 2025 10:09:22 GMT-0600 (Central Standard Time),580381.299999997,A,k,I,k,721,1,734.1000000014901,579647.1999999955,8031,WL,A,13.0
5,22.843000173568726,learn,60000.0,Fri Feb 21 2025 10:09:22 GMT-0600 (Central Standard Time),580530.8999999985,A,ke,I,e,138,1,883.7000000029802,579647.1999999955,8031,WL,A,13.0
5,22.9760000705719,learn,60000.0,Fri Feb 21 2025 10:09:22 GMT-0600 (Central Standard Time),580663.6999999955,A,key,I,y,113,1,1016.5,579647.1999999955,8031,WL,A,13.0
5,27.193000078201294,learn,60000.0,Fri Feb 21 2025 10:09:22 GMT-0600 (Central Standard Time),584880.0,A,keyenter,I,enter,4199,1,5232.80000000447,579647.1999999955,8031,WL,A,13.0
5,53.43300008773804,learn,60000.0,Fri Feb 21 2025 10:09:22 GMT-0600 (Central Standard Time),611121.1999999955,A,m,I,m,26232,1,26240.89999999851,584880.299999997,8031,WL,A,14.0
5,54.08200001716614,learn,60000.0,Fri Feb 21 2025 10:09:22 GMT-0600 (Central Standard Time),611770.299999997,A,me,I,e,637,1,26890.0,584880.299999997,8031,WL,A,14.0
5,54.46600008010864,learn,60000.0,Fri Feb 21 2025 10:09:22 GMT-0600 (Central Standard Time),612153.599999994,A,meenter,I,enter,371,1,27273.29999999702,584880.299999997,8031,WL,A,14.0
5,55.08300018310547,learn,60000.0,Fri Feb 21 2025 10:09:22 GMT-0600 (Central Standard Time),612770.599999994,A,enter,I,enter,607,1,616.6999999955297,612153.8999999985,8031,WL,A,15.0
6,0.48399996757507324,distr,59516.00003242493,Fri Feb 21 2025 10:09:22 GMT-0600 (Central Standard Time),681832.1999999955,B,b,I,b,467,1,483.69999999552965,681348.5,8031,WL,A,1.0
6,0.6830000877380371,distr,59316.99991226196,Fri Feb 21 2025 10:09:22 GMT-0600 (Central Standard Time),682032.0,B,bo,I,o,183,1,683.5,681348.5,8031,WL,A,1.0
6,0.8510000705718994,distr,59148.9999294281,Fri Feb 21 2025 10:09:22 GMT-0600 (Central Standard Time),682200.0,B,bow,I,w,161,1,851.5,681348.5,8031,WL,A,1.0
6,1.0829999446868896,distr,58917.00005531311,Fri Feb 21 2025 10:09:22 GMT-0600 (Central Standard Time),682431.799999997,B,bowl,I,l,216,1,1083.2999999970198,681348.5,8031,WL,A,1.0
6,1.4509999752044678,distr,58549.00002479553,Fri Feb 21 2025 10:09:22 GMT-0600 (Central Standard Time),682799.3999999985,B,bowlenter,I,enter,361,1,1450.8999999985099,681348.5,8031,WL,A,1.0
6,1.7660000324249268,distr,58233.99996757507,Fri Feb 21 2025 10:09:22 GMT-0600 (Central Standard Time),683114.599999994,B,d,I,d,304,1,315.0,682799.599999994,8031,WL,A,2.0
6,1.9149999618530273,distr,58085.00003814697,Fri Feb 21 2025 10:09:22 GMT-0600 (Central Standard Time),683264.0,B,da,I,a,139,1,464.40000000596046,682799.599999994,8031,WL,A,2.0
6,2.0989999771118164,distr,57901.00002288818,Fri Feb 21 2025 10:09:22 GMT-0600 (Central Standard Time),683447.1999999955,B,daw,I,w,167,1,647.6000000014901,682799.599999994,8031,WL,A,2.0
6,2.249000072479248,distr,57750.99992752075,Fri Feb 21 2025 10:09:22 GMT-0600 (Central Standard Time),683597.3999999985,B,dawn,I,n,136,1,797.8000000044703,682799.599999994,8031,WL,A,2.0
6,3.115000009536743,distr,56884.99999046326,Fri Feb 21 2025 10:09:22 GMT-0600 (Central Standard Time),684464.0,B,dawnenter,I,enter,850,1,1664.4000000059605,682799.599999994,8031,WL,A,2.0
6,4.115000009536743,distr,55884.99999046326,Fri Feb 21 2025 10:09:22 GMT-0600 (Central Standard Time),685463.3999999985,B,j,I,j,980,1,999.1000000014901,684464.299999997,8031,WL,A,3.0
6,5.398999929428101,distr,54601.0000705719,Fri Feb 21 2025 10:09:22 GMT-0600 (Central Standard Time),686747.1999999955,B,ju,I,u,1271,1,2282.89999999851,684464.299999997,8031,WL,A,3.0
6,5.54800009727478,distr,54451.99990272522,Fri Feb 21 2025 10:09:22 GMT-0600 (Central Standard Time),686896.799999997,B,jud,I,d,132,1,2432.5,684464.299999997,8031,WL,A,3.0
6,5.730999946594238,distr,54269.00005340576,Fri Feb 21 2025 10:09:22 GMT-0600 (Central Standard Time),687080.099999994,B,judg,I,g,173,1,2615.7999999970198,684464.299999997,8031,WL,A,3.0
6,5.882999897003174,distr,54117.000102996826,Fri Feb 21 2025 10:09:22 GMT-0600 (Central Standard Time),687232.0,B,judge,I,e,143,1,2767.7000000029802,684464.299999997,8031,WL,A,3.0
6,6.63100004196167,distr,53368.99995803833,Fri Feb 21 2025 10:09:22 GMT-0600 (Central Standard Time),687980.0,B,judgeenter,I,enter,725,1,3515.7000000029802,684464.299999997,8031,WL,A,3.0
6,7.450000047683716,distr,52549.999952316284,Fri Feb 21 2025 10:09:22 GMT-0600 (Central Standard Time),688798.1999999955,B,g,I,g,804,1,817.8999999985099,687980.299999997,8031,WL,A,4.0
6,7.681999921798706,distr,52318.000078201294,Fri Feb 21 2025 10:09:22 GMT-0600 (Central Standard Time),689030.5,B,gr,I,r,218,1,1050.2000000029802,687980.299999997,8031,WL,A,4.0
6,7.83299994468689,distr,52167.00005531311,Fri Feb 21 2025 10:09:22 GMT-0600 (Central Standard Time),689181.1999999955,B,gra,I,a,138,1,1200.8999999985099,687980.299999997,8031,WL,A,4.0
6,8.032999992370605,distr,51967.000007629395,Fri Feb 21 2025 10:09:22 GMT-0600 (Central Standard Time),689381.3999999985,B,gran,I,n,179,1,1401.1000000014901,687980.299999997,8031,WL,A,4.0
6,8.21399998664856,distr,51786.00001335144,Fri Feb 21 2025 10:09:22 GMT-0600 (Central Standard Time),689562.3999999985,B,grant,I,t,170,1,1582.1000000014901,687980.299999997,8031,WL,A,4.0
6,10.996999979019165,distr,49003.000020980835,Fri Feb 21 2025 10:09:22 GMT-0600 (Central Standard Time),692345.599999994,B,grantenter,I,enter,2773,1,4365.29999999702,687980.299999997,8031,WL,A,4.0
6,14.513000011444092,distr,45486.99998855591,Fri Feb 21 2025 10:09:22 GMT-0600 (Central Standard Time),695861.799999997,B,p,I,p,3510,1,3515.89999999851,692345.8999999985,8031,WL,A,5.0
6,14.828999996185303,distr,45171.0000038147,Fri Feb 21 2025 10:09:22 GMT-0600 (Central Standard Time),696177.1999999955,B,pl,I,l,309,1,3831.2999999970198,692345.8999999985,8031,WL,A,5.0
6,14.979000091552734,distr,45020.999908447266,Fri Feb 21 2025 10:09:22 GMT-0600 (Central Standard Time),696327.1999999955,B,pla,I,a,145,1,3981.2999999970198,692345.8999999985,8031,WL,A,5.0
6,15.09500002861023,distr,44904.99997138977,Fri Feb 21 2025 10:09:22 GMT-0600 (Central Standard Time),696443.5,B,plan,I,n,96,1,4097.60000000149,692345.8999999985,8031,WL,A,5.0
6,15.229000091552734,distr,44770.999908447266,Fri Feb 21 2025 10:09:22 GMT-0600 (Central Standard Time),696577.1999999955,B,plane,I,e,115,1,4231.29999999702,692345.8999999985,8031,WL,A,5.0
6,15.561000108718872,distr,44438.99989128113,Fri Feb 21 2025 10:09:22 GMT-0600 (Central Standard Time),696909.8999999985,B,planeenter,I,enter,318,1,4564.0,692345.8999999985,8031,WL,A,5.0
6,15.979000091552734,distr,44020.999908447266,Fri Feb 21 2025 10:09:22 GMT-0600 (Central Standard Time),697327.5,B,c,I,c,402,1,417.30000000447035,696910.1999999955,8031,WL,A,6.0
6,16.094000101089478,distr,43905.99989891052,Fri Feb 21 2025 10:09:22 GMT-0600 (Central Standard Time),697442.799999997,B,co,I,o,94,1,532.6000000014901,696910.1999999955,8031,WL,A,6.0
6,16.125999927520752,distr,43874.00007247925,Fri Feb 21 2025 10:09:22 GMT-0600 (Central Standard Time),697474.5,B,cou,I,u,18,1,564.3000000044703,696910.1999999955,8031,WL,A,6.0
6,16.34599995613098,distr,43654.00004386902,Fri Feb 21 2025 10:09:22 GMT-0600 (Central Standard Time),697694.1999999955,B,coun,I,n,200,1,784.0,696910.1999999955,8031,WL,A,6.0
6,16.444999933242798,distr,43555.0000667572,Fri Feb 21 2025 10:09:22 GMT-0600 (Central Standard Time),697793.5,B,count,I,t,88,1,883.3000000044703,696910.1999999955,8031,WL,A,6.0
6,16.628999948501587,distr,43371.00005149841,Fri Feb 21 2025 10:09:22 GMT-0600 (Central Standard Time),697977.599999994,B,countr,I,r,165,1,1067.3999999985099,696910.1999999955,8031,WL,A,6.0
6,16.727999925613403,distr,43272.0000743866,Fri Feb 21 2025 10:09:22 GMT-0600 (Central Standard Time),698076.799999997,B,country,I,y,86,1,1166.6000000014901,696910.1999999955,8031,WL,A,6.0
6,17.061000108718872,distr,42938.99989128113,Fri Feb 21 2025 10:09:22 GMT-0600 (Central Standard Time),698409.5,B,countryenter,I,enter,314,1,1499.3000000044703,696910.1999999955,8031,WL,A,6.0
6,18.16100001335144,distr,41838.99998664856,Fri Feb 21 2025 10:09:22 GMT-0600 (Central Standard Time),699509.599999994,B,s,I,s,1086,1,1099.7999999970198,698409.799999997,8031,WL,A,7.0
6,18.24399995803833,distr,41756.00004196167,Fri Feb 21 2025 10:09:22 GMT-0600 (Central Standard Time),699592.3999999985,B,sh,I,h,65,1,1182.6000000014901,698409.799999997,8031,WL,A,7.0
6,18.361000061035156,distr,41638.999938964844,Fri Feb 21 2025 10:09:22 GMT-0600 (Central Standard Time),699709.599999994,B,she,I,e,103,1,1299.7999999970198,698409.799999997,8031,WL,A,7.0
6,18.543999910354614,distr,41456.000089645386,Fri Feb 21 2025 10:09:22 GMT-0600 (Central Standard Time),699892.099999994,B,shee,I,e,167,1,1482.2999999970198,698409.799999997,8031,WL,A,7.0
6,18.64400005340576,distr,41355.99994659424,Fri Feb 21 2025 10:09:22 GMT-0600 (Central Standard Time),699992.3999999985,B,sheep,I,p,83,1,1582.6000000014901,698409.799999997,8031,WL,A,7.0
6,20.694000005722046,distr,39305.999994277954,Fri Feb 21 2025 10:09:22 GMT-0600 (Central Standard Time),702042.5,B,sheepenter,I,enter,2030,1,3632.7000000029802,698409.799999997,8031,WL,A,7.0
6,21.094000101089478,distr,38905.99989891052,Fri Feb 21 2025 10:09:22 GMT-0600 (Central Standard Time),702442.5,B,p,I,p,389,1,399.70000000298023,702042.799999997,8031,WL,A,8.0
6,21.210999965667725,distr,38789.000034332275,Fri Feb 21 2025 10:09:22 GMT-0600 (Central Standard Time),702559.3999999985,B,po,I,o,101,1,516.6000000014901,702042.799999997,8031,WL,A,8.0
6,21.378000020980835,distr,38621.999979019165,Fri Feb 21 2025 10:09:22 GMT-0600 (Central Standard Time),702726.5,B,poo,I,o,160,1,683.7000000029802,702042.799999997,8031,WL,A,8.0
6,21.611000061035156,distr,38388.999938964844,Fri Feb 21 2025 10:09:22 GMT-0600 (Central Standard Time),702959.8999999985,B,pool,I,l,227,1,917.1000000014901,702042.799999997,8031,WL,A,8.0
6,21.842999935150146,distr,38157.00006484985,Fri Feb 21 2025 10:09:22 GMT-0600 (Central Standard Time),703191.299999997,B,poolenter,I,enter,209,1,1148.5,702042.799999997,8031,WL,A,8.0
6,22.176000118255615,distr,37823.999881744385,Fri Feb 21 2025 10:09:22 GMT-0600 (Central Standard Time),703524.1999999955,B,s,I,s,312,1,332.6000000014901,703191.599999994,8031,WL,A,9.0
6,22.223999977111816,distr,37776.00002288818,Fri Feb 21 2025 10:09:22 GMT-0600 (Central Standard Time),703573.099999994,B,se,I,e,34,1,381.5,703191.599999994,8031,WL,A,9.0
6,22.42799997329712,distr,37572.00002670288,Fri Feb 21 2025 10:09:22 GMT-0600 (Central Standard Time),703776.599999994,B,see,I,e,198,1,585.0,703191.599999994,8031,WL,A,9.0
6,22.59500002861023,distr,37404.99997138977,Fri Feb 21 2025 10:09:22 GMT-0600 (Central Standard Time),703943.1999999955,B,seed,I,d,159,1,751.6000000014901,703191.599999994,8031,WL,A,9.0
6,22.727999925613403,distr,37272.0000743866,Fri Feb 21 2025 10:09:22 GMT-0600 (Central Standard Time),704076.3999999985,B,seedenter,I,enter,119,1,884.8000000044703,703191.599999994,8031,WL,A,9.0
6,24.259000062942505,distr,35740.999937057495,Fri Feb 21 2025 10:09:22 GMT-0600 (Central Standard Time),705607.3999999985,B,p,I,p,1516,1,1530.7000000029802,704076.6999999955,8031,WL,A,10.0
6,24.341000080108643,distr,35658.99991989136,Fri Feb 21 2025 10:09:22 GMT-0600 (Central Standard Time),705689.6999999955,B,pe,I,e,63,1,1613.0,704076.6999999955,8031,WL,A,10.0
6,24.427000045776367,distr,35572.99995422363,Fri Feb 21 2025 10:09:22 GMT-0600 (Central Standard Time),705775.1999999955,B,pea,I,a,79,1,1698.5,704076.6999999955,8031,WL,A,10.0
6,24.526000022888184,distr,35473.99997711182,Fri Feb 21 2025 10:09:22 GMT-0600 (Central Standard Time),705874.299999997,B,peac,I,c,79,1,1797.6000000014901,704076.6999999955,8031,WL,A,10.0
6,24.608999967575073,distr,35391.00003242493,Fri Feb 21 2025 10:09:22 GMT-0600 (Central Standard Time),705957.799999997,B,peach,I,h,68,1,1881.1000000014901,704076.6999999955,8031,WL,A,10.0
6,24.89199995994568,distr,35108.00004005432,Fri Feb 21 2025 10:09:22 GMT-0600 (Central Standard Time),706240.8999999985,B,peachenter,I,enter,273,1,2164.2000000029802,704076.6999999955,8031,WL,A,10.0
6,25.092000007629395,distr,34907.999992370605,Fri Feb 21 2025 10:09:22 GMT-0600 (Central Standard Time),706441.0,B,g,I,g,195,1,199.90000000596046,706241.099999994,8031,WL,A,11.0
6,25.22499990463257,distr,34775.00009536743,Fri Feb 21 2025 10:09:22 GMT-0600 (Central Standard Time),706573.599999994,B,gl,I,l,125,1,332.5,706241.099999994,8031,WL,A,11.0
6,25.27300000190735,distr,34726.99999809265,Fri Feb 21 2025 10:09:22 GMT-0600 (Central Standard Time),706621.6999999955,B,gla,I,a,39,1,380.6000000014901,706241.099999994,8031,WL,A,11.0
6,25.39199995994568,distr,34608.00004005432,Fri Feb 21 2025 10:09:22 GMT-0600 (Central Standard Time),706741.099999994,B,glas,I,s,108,1,500.0,706241.099999994,8031,WL,A,11.0
6,25.558000087738037,distr,34441.99991226196,Fri Feb 21 2025 10:09:22 GMT-0600 (Central Standard Time),706907.0,B,glass,I,s,146,1,665.9000000059605,706241.099999994,8031,WL,A,11.0
6,25.69099998474121,distr,34309.00001525879,Fri Feb 21 2025 10:09:22 GMT-0600 (Central Standard Time),707040.0,B,glassenter,I,enter,115,1,798.9000000059605,706241.099999994,8031,WL,A,11.0
6,26.658999919891357,distr,33341.00008010864,Fri Feb 21 2025 10:09:22 GMT-0600 (Central Standard Time),708007.3999999985,B,m,I,m,953,1,967.2000000029802,707040.1999999955,8031,WL,A,12.0
6,26.723000049591064,distr,33276.999950408936,Fri Feb 21 2025 10:09:22 GMT-0600 (Central Standard Time),708072.099999994,B,me,I,e,54,1,1031.8999999985099,707040.1999999955,8031,WL,A,12.0
6,26.842000007629395,distr,33157.999992370605,Fri Feb 21 2025 10:09:22 GMT-0600 (Central Standard Time),708190.799999997,B,mea,I,a,103,1,1150.6000000014901,707040.1999999955,8031,WL,A,12.0
6,26.941999912261963,distr,33058.00008773804,Fri Feb 21 2025 10:09:22 GMT-0600 (Central Standard Time),708291.0,B,meal,I,l,79,1,1250.8000000044703,707040.1999999955,8031,WL,A,12.0
6,27.125,distr,32875.0,Fri Feb 21 2025 10:09:22 GMT-0600 (Central Standard Time),708473.099999994,B,mealenter,I,enter,163,1,1432.8999999985099,707040.1999999955,8031,WL,A,12.0
6,29.67300009727478,distr,30326.99990272522,Fri Feb 21 2025 10:09:22 GMT-0600 (Central Standard Time),711021.3999999985,B,enter,I,enter,2544,1,2548.0,708473.3999999985,8031,WL,A,13.0
6,29.94099998474121,distr,30059.00001525879,Fri Feb 21 2025 10:09:22 GMT-0600 (Central Standard Time),711289.099999994,B,enter,I,enter,251,1,267.3999999985099,711021.6999999955,8031,WL,A,14.0
6,30.374000072479248,distr,29625.999927520752,Fri Feb 21 2025 10:09:22 GMT-0600 (Central Standard Time),711722.799999997,B,enter,I,enter,414,1,433.29999999701977,711289.5,8031,WL,A,15.0
7,11.861999988555908,immed,48138.00001144409,Fri Feb 21 2025 10:09:22 GMT-0600 (Central Standard Time),725118.5,A,enter,I,enter,11845,1,11862.80000000447,713255.6999999955,8031,WL,A,1.0
7,15.878000020980835,immed,44121.999979019165,Fri Feb 21 2025 10:09:22 GMT-0600 (Central Standard Time),729134.5,A,b,I,b,4001,1,4015.7000000029802,725118.799999997,8031,WL,A,2.0
7,15.977999925613403,immed,44022.0000743866,Fri Feb 21 2025 10:09:22 GMT-0600 (Central Standard Time),729234.0,A,bu,I,u,80,1,4115.20000000298,725118.799999997,8031,WL,A,2.0
7,16.144999980926514,immed,43855.000019073486,Fri Feb 21 2025 10:09:22 GMT-0600 (Central Standard Time),729401.3999999985,A,bug,I,g,142,1,4282.60000000149,725118.799999997,8031,WL,A,2.0
7,17.625999927520752,immed,42374.00007247925,Fri Feb 21 2025 10:09:22 GMT-0600 (Central Standard Time),730882.3999999985,A,bu,I,backspace,1458,1,5763.60000000149,725118.799999997,8031,WL,A,2.0
7,17.793999910354614,immed,42206.000089645386,Fri Feb 21 2025 10:09:22 GMT-0600 (Central Standard Time),731050.3999999985,A,b,I,backspace,153,1,5931.60000000149,725118.799999997,8031,WL,A,2.0
7,17.944000005722046,immed,42055.999994277954,Fri Feb 21 2025 10:09:22 GMT-0600 (Central Standard Time),731200.0,A,,I,backspace,143,1,6081.20000000298,725118.799999997,8031,WL,A,2.0
7,18.40999984741211,immed,41590.00015258789,Fri Feb 21 2025 10:09:22 GMT-0600 (Central Standard Time),731666.099999994,A,b,I,b,449,1,6547.29999999702,725118.799999997,8031,WL,A,2.0
7,18.45799994468689,immed,41542.00005531311,Fri Feb 21 2025 10:09:22 GMT-0600 (Central Standard Time),731714.0,A,bo,I,o,37,1,6595.20000000298,725118.799999997,8031,WL,A,2.0
7,18.64400005340576,immed,41355.99994659424,Fri Feb 21 2025 10:09:22 GMT-0600 (Central Standard Time),731900.0,A,boo,I,o,166,1,6781.20000000298,725118.799999997,8031,WL,A,2.0
7,18.70799994468689,immed,41292.00005531311,Fri Feb 21 2025 10:09:22 GMT-0600 (Central Standard Time),731964.5,A,book,I,k,53,1,6845.70000000298,725118.799999997,8031,WL,A,2.0
7,18.990999937057495,immed,41009.000062942505,Fri Feb 21 2025 10:09:22 GMT-0600 (Central Standard Time),732247.599999994,A,bookenter,I,enter,274,1,7128.79999999702,725118.799999997,8031,WL,A,2.0
7,19.30999994277954,immed,40690.00005722046,Fri Feb 21 2025 10:09:22 GMT-0600 (Central Standard Time),732566.3999999985,A,t,I,t,298,1,318.6000000014901,732247.799999997,8031,WL,A,3.0
7,19.444999933242798,immed,40555.0000667572,Fri Feb 21 2025 10:09:22 GMT-0600 (Central Standard Time),732700.799999997,A,tr,I,r,109,1,453.0,732247.799999997,8031,WL,A,3.0
7,19.55999994277954,immed,40440.00005722046,Fri Feb 21 2025 10:09:22 GMT-0600 (Central Standard Time),732815.799999997,A,tra,I,a,97,1,568.0,732247.799999997,8031,WL,A,3.0
7,19.645999908447266,immed,40354.000091552734,Fri Feb 21 2025 10:09:22 GMT-0600 (Central Standard Time),732901.8999999985,A,trai,I,i,78,1,654.1000000014901,732247.799999997,8031,WL,A,3.0
7,19.72599983215332,immed,40274.00016784668,Fri Feb 21 2025 10:09:22 GMT-0600 (Central Standard Time),732982.299999997,A,train,I,n,67,1,734.5,732247.799999997,8031,WL,A,3.0
7,20.057999849319458,immed,39942.00015068054,Fri Feb 21 2025 10:09:22 GMT-0600 (Central Standard Time),733314.5,A,trainenter,I,enter,320,1,1066.7000000029802,732247.799999997,8031,WL,A,3.0
7,21.658999919891357,immed,38341.00008010864,Fri Feb 21 2025 10:09:22 GMT-0600 (Central Standard Time),734915.3999999985,A,k,I,k,1581,1,1600.6000000014901,733314.799999997,8031,WL,A,4.0
7,21.80900001525879,immed,38190.99998474121,Fri Feb 21 2025 10:09:22 GMT-0600 (Central Standard Time),735064.8999999985,A,ke,I,e,124,1,1750.1000000014901,733314.799999997,8031,WL,A,4.0
7,21.907999992370605,immed,38092.000007629395,Fri Feb 21 2025 10:09:22 GMT-0600 (Central Standard Time),735164.1999999955,A,key,I,y,83,1,1849.3999999985099,733314.799999997,8031,WL,A,4.0
7,22.157999992370605,immed,37842.000007629395,Fri Feb 21 2025 10:09:22 GMT-0600 (Central Standard Time),735413.8999999985,A,keyenter,I,enter,233,1,2099.10000000149,733314.799999997,8031,WL,A,4.0
7,22.54200005531311,immed,37457.99994468689,Fri Feb 21 2025 10:09:22 GMT-0600 (Central Standard Time),735798.099999994,A,l,I,l,378,1,383.8999999985099,735414.1999999955,8031,WL,A,5.0
7,22.743000030517578,immed,37256.99996948242,Fri Feb 21 2025 10:09:22 GMT-0600 (Central Standard Time),735999.5,A,lo,I,o,191,1,585.3000000044703,735414.1999999955,8031,WL,A,5.0
7,22.89299988746643,immed,37107.00011253357,Fri Feb 21 2025 10:09:22 GMT-0600 (Central Standard Time),736149.299999997,A,log,I,g,135,1,735.1000000014901,735414.1999999955,8031,WL,A,5.0
7,23.325000047683716,immed,36674.999952316284,Fri Feb 21 2025 10:09:22 GMT-0600 (Central Standard Time),736581.5,A,logenter,I,enter,419,1,1167.3000000044703,735414.1999999955,8031,WL,A,5.0
7,25.323999881744385,immed,34676.000118255615,Fri Feb 21 2025 10:09:22 GMT-0600 (Central Standard Time),738579.799999997,A,b,I,b,1979,1,1998.0,736581.799999997,8031,WL,A,6.0
7,25.44000005722046,immed,34559.99994277954,Fri Feb 21 2025 10:09:22 GMT-0600 (Central Standard Time),738696.5,A,bu,I,u,106,1,2114.7000000029802,736581.799999997,8031,WL,A,6.0
7,25.62399983406067,immed,34376.00016593933,Fri Feb 21 2025 10:09:22 GMT-0600 (Central Standard Time),738880.3999999985,A,but,I,t,163,1,2298.60000000149,736581.799999997,8031,WL,A,6.0
7,25.7739999294281,immed,34226.0000705719,Fri Feb 21 2025 10:09:22 GMT-0600 (Central Standard Time),739030.5,A,butt,I,t,143,1,2448.7000000029802,736581.799999997,8031,WL,A,6.0
7,25.823999881744385,immed,34176.000118255615,Fri Feb 21 2025 10:09:22 GMT-0600 (Central Standard Time),739080.0,A,butto,I,o,39,1,2498.2000000029802,736581.799999997,8031,WL,A,6.0
7,25.908999919891357,immed,34091.00008010864,Fri Feb 21 2025 10:09:22 GMT-0600 (Central Standard Time),739164.6999999955,A,button,I,n,75,1,2582.89999999851,736581.799999997,8031,WL,A,6.0
7,26.174000024795532,immed,33825.99997520447,Fri Feb 21 2025 10:09:22 GMT-0600 (Central Standard Time),739429.6999999955,A,buttonenter,I,enter,249,1,2847.89999999851,736581.799999997,8031,WL,A,6.0
7,26.575999975204468,immed,33424.00002479553,Fri Feb 21 2025 10:09:22 GMT-0600 (Central Standard Time),739831.8999999985,A,s,I,s,396,1,402.0,739429.8999999985,8031,WL,A,7.0
7,26.70799994468689,immed,33292.00005531311,Fri Feb 21 2025 10:09:22 GMT-0600 (Central Standard Time),739964.599999994,A,sa,I,a,105,1,534.6999999955297,739429.8999999985,8031,WL,A,7.0
7,26.77300000190735,immed,33226.99999809265,Fri Feb 21 2025 10:09:22 GMT-0600 (Central Standard Time),740029.1999999955,A,sal,I,l,34,1,599.2999999970198,739429.8999999985,8031,WL,A,7.0
7,26.924999952316284,immed,33075.000047683716,Fri Feb 21 2025 10:09:22 GMT-0600 (Central Standard Time),740180.6999999955,A,salt,I,t,144,1,750.7999999970198,739429.8999999985,8031,WL,A,7.0
7,27.039999961853027,immed,32960.00003814697,Fri Feb 21 2025 10:09:22 GMT-0600 (Central Standard Time),740296.0,A,saltenter,I,enter,103,1,866.1000000014901,739429.8999999985,8031,WL,A,7.0
7,27.19000005722046,immed,32809.99994277954,Fri Feb 21 2025 10:09:22 GMT-0600 (Central Standard Time),740446.3999999985,A,f,I,f,136,1,150.20000000298023,740296.1999999955,8031,WL,A,8.0
7,27.29099988937378,immed,32709.00011062622,Fri Feb 21 2025 10:09:22 GMT-0600 (Central Standard Time),740546.8999999985,A,fi,I,i,84,1,250.70000000298023,740296.1999999955,8031,WL,A,8.0
7,27.33899998664856,immed,32661.00001335144,Fri Feb 21 2025 10:09:22 GMT-0600 (Central Standard Time),740595.5,A,fin,I,n,34,1,299.30000000447035,740296.1999999955,8031,WL,A,8.0
7,27.406999826431274,immed,32593.000173568726,Fri Feb 21 2025 10:09:22 GMT-0600 (Central Standard Time),740662.6999999955,A,fing,I,g,50,1,366.5,740296.1999999955,8031,WL,A,8.0
7,27.54099988937378,immed,32459.00011062622,Fri Feb 21 2025 10:09:22 GMT-0600 (Central Standard Time),740797.0,A,finge,I,e,119,1,500.80000000447035,740296.1999999955,8031,WL,A,8.0
7,27.622999906539917,immed,32377.000093460083,Fri Feb 21 2025 10:09:22 GMT-0600 (Central Standard Time),740879.5,A,finger,I,r,62,1,583.3000000044703,740296.1999999955,8031,WL,A,8.0
7,27.723000049591064,immed,32276.999950408936,Fri Feb 21 2025 10:09:22 GMT-0600 (Central Standard Time),740978.6999999955,A,fingerenter,I,enter,78,1,682.5,740296.1999999955,8031,WL,A,8.0
7,28.87399983406067,immed,31126.00016593933,Fri Feb 21 2025 10:09:22 GMT-0600 (Central Standard Time),742130.299999997,A,h,I,h,1134,1,1151.2999999970198,740979.0,8031,WL,A,9.0
7,28.97499990463257,immed,31025.00009536743,Fri Feb 21 2025 10:09:22 GMT-0600 (Central Standard Time),742231.3999999985,A,he,I,e,81,1,1252.3999999985099,740979.0,8031,WL,A,9.0
7,29.021999835968018,immed,30978.000164031982,Fri Feb 21 2025 10:09:22 GMT-0600 (Central Standard Time),742277.799999997,A,hea,I,a,25,1,1298.7999999970198,740979.0,8031,WL,A,9.0
7,29.10800004005432,immed,30891.99995994568,Fri Feb 21 2025 10:09:22 GMT-0600 (Central Standard Time),742364.6999999955,A,hear,I,r,65,1,1385.6999999955297,740979.0,8031,WL,A,9.0
7,29.276000022888184,immed,30723.999977111816,Fri Feb 21 2025 10:09:22 GMT-0600 (Central Standard Time),742531.799999997,A,heart,I,t,142,1,1552.7999999970198,740979.0,8031,WL,A,9.0
7,30.19000005722046,immed,29809.99994277954,Fri Feb 21 2025 10:09:22 GMT-0600 (Central Standard Time),743446.299999997,A,heartenter,I,enter,901,1,2467.2999999970198,740979.0,8031,WL,A,9.0
7,32.15499997138977,immed,27845.00002861023,Fri Feb 21 2025 10:09:22 GMT-0600 (Central Standard Time),745411.599999994,A,f,I,f,1946,1,1965.0999999940395,743446.5,8031,WL,A,10.0
7,32.25600004196167,immed,27743.99995803833,Fri Feb 21 2025 10:09:22 GMT-0600 (Central Standard Time),745512.099999994,A,fl,I,l,77,1,2065.5999999940395,743446.5,8031,WL,A,10.0
7,32.454999923706055,immed,27545.000076293945,Fri Feb 21 2025 10:09:22 GMT-0600 (Central Standard Time),745711.099999994,A,flo,I,o,182,1,2264.5999999940395,743446.5,8031,WL,A,10.0
7,32.555999994277954,immed,27444.000005722046,Fri Feb 21 2025 10:09:22 GMT-0600 (Central Standard Time),745812.3999999985,A,flow,I,w,85,1,2365.89999999851,743446.5,8031,WL,A,10.0
7,32.6029999256134,immed,27397.000074386597,Fri Feb 21 2025 10:09:22 GMT-0600 (Central Standard Time),745859.5,A,flowe,I,e,29,1,2413.0,743446.5,8031,WL,A,10.0
7,32.72199988365173,immed,27278.000116348267,Fri Feb 21 2025 10:09:22 GMT-0600 (Central Standard Time),745978.0,A,flower,I,r,102,1,2531.5,743446.5,8031,WL,A,10.0
7,33.389999866485596,immed,26610.000133514404,Fri Feb 21 2025 10:09:22 GMT-0600 (Central Standard Time),746646.099999994,A,flowerenter,I,enter,662,1,3199.5999999940395,743446.5,8031,WL,A,10.0
7,35.40499997138977,immed,24595.00002861023,Fri Feb 21 2025 10:09:22 GMT-0600 (Central Standard Time),748661.799999997,A,m,I,m,2002,1,2015.3999999985099,746646.3999999985,8031,WL,A,11.0
7,35.48699998855591,immed,24513.00001144409,Fri Feb 21 2025 10:09:22 GMT-0600 (Central Standard Time),748743.3999999985,A,me,I,e,72,1,2097.0,746646.3999999985,8031,WL,A,11.0
7,35.58699989318848,immed,24413.000106811523,Fri Feb 21 2025 10:09:22 GMT-0600 (Central Standard Time),748843.3999999985,A,mea,I,a,87,1,2197.0,746646.3999999985,8031,WL,A,11.0
7,35.67199993133545,immed,24328.00006866455,Fri Feb 21 2025 10:09:22 GMT-0600 (Central Standard Time),748928.1999999955,A,mead,I,d,79,1,2281.7999999970198,746646.3999999985,8031,WL,A,11.0
7,35.80499982833862,immed,24195.000171661377,Fri Feb 21 2025 10:09:22 GMT-0600 (Central Standard Time),749061.3999999985,A,meado,I,o,110,1,2415.0,746646.3999999985,8031,WL,A,11.0
7,35.86999988555908,immed,24130.000114440918,Fri Feb 21 2025 10:09:22 GMT-0600 (Central Standard Time),749126.5,A,meadow,I,w,40,1,2480.10000000149,746646.3999999985,8031,WL,A,11.0
7,36.020999908447266,immed,23979.000091552734,Fri Feb 21 2025 10:09:22 GMT-0600 (Central Standard Time),749277.5,A,meadowenter,I,enter,144,1,2631.10000000149,746646.3999999985,8031,WL,A,11.0
7,36.38800001144409,immed,23611.99998855591,Fri Feb 21 2025 10:09:22 GMT-0600 (Central Standard Time),749644.3999999985,A,c,I,c,347,1,366.6000000014901,749277.799999997,8031,WL,A,12.0
7,36.47000002861023,immed,23529.99997138977,Fri Feb 21 2025 10:09:22 GMT-0600 (Central Standard Time),749726.1999999955,A,ch,I,h,66,1,448.3999999985099,749277.799999997,8031,WL,A,12.0
7,36.5699999332428,immed,23430.000066757202,Fri Feb 21 2025 10:09:22 GMT-0600 (Central Standard Time),749826.299999997,A,chi,I,i,89,1,548.5,749277.799999997,8031,WL,A,12.0
7,36.704999923706055,immed,23295.000076293945,Fri Feb 21 2025 10:09:22 GMT-0600 (Central Standard Time),749960.8999999985,A,chim,I,m,117,1,683.1000000014901,749277.799999997,8031,WL,A,12.0
7,37.05399990081787,immed,22946.00009918213,Fri Feb 21 2025 10:09:22 GMT-0600 (Central Standard Time),750310.599999994,A,chimn,I,n,334,1,1032.7999999970198,749277.799999997,8031,WL,A,12.0
7,37.204999923706055,immed,22795.000076293945,Fri Feb 21 2025 10:09:22 GMT-0600 (Central Standard Time),750461.599999994,A,chimne,I,e,145,1,1183.7999999970198,749277.799999997,8031,WL,A,12.0
7,37.30399990081787,immed,22696.00009918213,Fri Feb 21 2025 10:09:22 GMT-0600 (Central Standard Time),750559.799999997,A,chimney,I,y,87,1,1282.0,749277.799999997,8031,WL,A,12.0
7,37.585999965667725,immed,22414.000034332275,Fri Feb 21 2025 10:09:22 GMT-0600 (Central Standard Time),750842.1999999955,A,chimneyenter,I,enter,271,1,1564.3999999985099,749277.799999997,8031,WL,A,12.0
7,48.76699995994568,immed,11233.000040054321,Fri Feb 21 2025 10:09:22 GMT-0600 (Central Standard Time),762022.6999999955,A,t,I,t,11175,1,11180.19999999553,750842.5,8031,WL,A,13.0
7,48.93400001525879,immed,11065.999984741211,Fri Feb 21 2025 10:09:22 GMT-0600 (Central Standard Time),762190.1999999955,A,tr,I,r,153,1,11347.69999999553,750842.5,8031,WL,A,13.0
7,49.049999952316284,immed,10950.000047683716,Fri Feb 21 2025 10:09:22 GMT-0600 (Central Standard Time),762306.3999999985,A,tra,I,a,95,1,11463.89999999851,750842.5,8031,WL,A,13.0
7,49.115999937057495,immed,10884.000062942505,Fri Feb 21 2025 10:09:22 GMT-0600 (Central Standard Time),762372.1999999955,A,tran,I,n,52,1,11529.69999999553,750842.5,8031,WL,A,13.0
7,49.31699991226196,immed,10683.000087738037,Fri Feb 21 2025 10:09:22 GMT-0600 (Central Standard Time),762572.8999999985,A,tranenter,I,enter,180,1,11730.39999999851,750842.5,8031,WL,A,13.0
7,53.549999952316284,immed,6450.000047683716,Fri Feb 21 2025 10:09:22 GMT-0600 (Central Standard Time),766806.0,A,b,I,b,4219,1,4232.80000000447,762573.1999999955,8031,WL,A,14.0
7,53.66499996185303,immed,6335.000038146973,Fri Feb 21 2025 10:09:22 GMT-0600 (Central Standard Time),766921.5,A,bu,I,u,108,1,4348.30000000447,762573.1999999955,8031,WL,A,14.0
7,53.83200001716614,immed,6167.999982833862,Fri Feb 21 2025 10:09:22 GMT-0600 (Central Standard Time),767088.1999999955,A,but,I,t,149,1,4515.0,762573.1999999955,8031,WL,A,14.0
7,53.967000007629395,immed,6032.9999923706055,Fri Feb 21 2025 10:09:22 GMT-0600 (Central Standard Time),767223.099999994,A,butt,I,t,128,1,4649.89999999851,762573.1999999955,8031,WL,A,14.0
7,54.06500005722046,immed,5934.999942779541,Fri Feb 21 2025 10:09:22 GMT-0600 (Central Standard Time),767321.299999997,A,butto,I,o,88,1,4748.10000000149,762573.1999999955,8031,WL,A,14.0
7,54.1489999294281,immed,5851.000070571899,Fri Feb 21 2025 10:09:22 GMT-0600 (Central Standard Time),767405.599999994,A,button,I,n,63,1,4832.39999999851,762573.1999999955,8031,WL,A,14.0
