block_c,block_dur,condition,countdown,datetime,endtime,list,multichar_response,project,response,response_time,session_number,start_end,starttime,subject_id,task,task_vers,trial
,,,,Tue Apr 22 2025 10:06:36 GMT-0500 (Central Daylight Time),,,,I,space,355,2,,,8031,WL,B,
prac,,0,,Tue Apr 22 2025 10:06:36 GMT-0500 (Central Daylight Time),,NA,b,I,b,4856,2,,,8031,WL,B,1.0
prac,,0,,Tue Apr 22 2025 10:06:36 GMT-0500 (Central Daylight Time),,NA,bo,I,o,183,2,,,8031,WL,B,1.0
prac,,0,,Tue Apr 22 2025 10:06:36 GMT-0500 (Central Daylight Time),,NA,boo,I,o,167,2,,,8031,WL,B,1.0
prac,,0,,Tue Apr 22 2025 10:06:36 GMT-0500 (Central Daylight Time),,NA,boos,I,s,163,2,,,8031,WL,B,1.0
prac,,0,,Tue Apr 22 2025 10:06:36 GMT-0500 (Central Daylight Time),,NA,boost,I,t,76,2,,,8031,WL,B,1.0
prac,,0,,Tue Apr 22 2025 10:06:36 GMT-0500 (Central Daylight Time),,NA,boostenter,I,enter,977,2,,,8031,WL,B,1.0
1,0.8340001106262207,learn,59165.99988937378,Tue Apr 22 2025 10:06:36 GMT-0500 (Central Daylight Time),110575.20000000298,A,s,I,s,822,2,832.4000000059605,109742.79999999702,8031,WL,B,1.0
1,0.9839999675750732,learn,59016.00003242493,Tue Apr 22 2025 10:06:36 GMT-0500 (Central Daylight Time),110725.29999999702,A,st,I,t,133,2,982.5,109742.79999999702,8031,WL,B,1.0
1,1.2170000076293945,learn,58782.999992370605,Tue Apr 22 2025 10:06:36 GMT-0500 (Central Daylight Time),110958.79999999702,A,str,I,r,223,2,1216.0,109742.79999999702,8031,WL,B,1.0
1,1.3000001907348633,learn,58699.99980926514,Tue Apr 22 2025 10:06:36 GMT-0500 (Central Daylight Time),111041.70000000298,A,stre,I,e,62,2,1298.9000000059605,109742.79999999702,8031,WL,B,1.0
1,1.5,learn,58500.0,Tue Apr 22 2025 10:06:36 GMT-0500 (Central Daylight Time),111241.59999999404,A,stree,I,e,185,2,1498.7999999970198,109742.79999999702,8031,WL,B,1.0
1,1.5830001831054688,learn,58416.99981689453,Tue Apr 22 2025 10:06:36 GMT-0500 (Central Daylight Time),111324.89999999106,A,street,I,t,74,2,1582.0999999940395,109742.79999999702,8031,WL,B,1.0
1,2.4670000076293945,learn,57532.999992370605,Tue Apr 22 2025 10:06:36 GMT-0500 (Central Daylight Time),112208.39999999106,A,streetenter,I,enter,872,2,2465.5999999940395,109742.79999999702,8031,WL,B,1.0
1,3.683000087738037,learn,56316.99991226196,Tue Apr 22 2025 10:06:36 GMT-0500 (Central Daylight Time),113424.29999999702,A,g,I,g,1195,2,1215.2000000029802,112209.09999999404,8031,WL,B,2.0
1,3.8500001430511475,learn,56149.99985694885,Tue Apr 22 2025 10:06:36 GMT-0500 (Central Daylight Time),113591.20000000298,A,gr,I,r,148,2,1382.1000000089407,112209.09999999404,8031,WL,B,2.0
1,3.9160001277923584,learn,56083.99987220764,Tue Apr 22 2025 10:06:36 GMT-0500 (Central Daylight Time),113657.89999999106,A,gra,I,a,46,2,1448.7999999970198,112209.09999999404,8031,WL,B,2.0
1,4.0329999923706055,learn,55967.000007629395,Tue Apr 22 2025 10:06:36 GMT-0500 (Central Daylight Time),113774.5,A,gras,I,s,106,2,1565.4000000059605,112209.09999999404,8031,WL,B,2.0
1,4.233000040054321,learn,55766.99995994568,Tue Apr 22 2025 10:06:36 GMT-0500 (Central Daylight Time),113974.29999999702,A,grass,I,s,190,2,1765.2000000029802,112209.09999999404,8031,WL,B,2.0
1,4.432000160217285,learn,55567.999839782715,Tue Apr 22 2025 10:06:36 GMT-0500 (Central Daylight Time),114174.09999999404,A,grassenter,I,enter,191,2,1965.0,112209.09999999404,8031,WL,B,2.0
1,4.982000112533569,learn,55017.99988746643,Tue Apr 22 2025 10:06:36 GMT-0500 (Central Daylight Time),114723.70000000298,A,d,I,d,534,2,549.0,114174.70000000298,8031,WL,B,3.0
1,5.166000127792358,learn,54833.99987220764,Tue Apr 22 2025 10:06:36 GMT-0500 (Central Daylight Time),114907.39999999106,A,do,I,o,169,2,732.6999999880791,114174.70000000298,8031,WL,B,3.0
1,5.366000175476074,learn,54633.999824523926,Tue Apr 22 2025 10:06:36 GMT-0500 (Central Daylight Time),115107.5,A,doo,I,o,185,2,932.7999999970198,114174.70000000298,8031,WL,B,3.0
1,5.449000120162964,learn,54550.999879837036,Tue Apr 22 2025 10:06:36 GMT-0500 (Central Daylight Time),115190.70000000298,A,door,I,r,74,2,1016.0,114174.70000000298,8031,WL,B,3.0
1,5.631999969482422,learn,54368.00003051758,Tue Apr 22 2025 10:06:36 GMT-0500 (Central Daylight Time),115374.0,A,doorenter,I,enter,166,2,1199.2999999970198,114174.70000000298,8031,WL,B,3.0
1,6.1650002002716064,learn,53834.99979972839,Tue Apr 22 2025 10:06:36 GMT-0500 (Central Daylight Time),115907.09999999404,A,a,I,a,519,2,532.7000000029802,115374.39999999106,8031,WL,B,4.0
1,6.249000072479248,learn,53750.99992752075,Tue Apr 22 2025 10:06:36 GMT-0500 (Central Daylight Time),115990.5,A,ar,I,r,74,2,616.1000000089407,115374.39999999106,8031,WL,B,4.0
1,6.348999977111816,learn,53651.00002288818,Tue Apr 22 2025 10:06:36 GMT-0500 (Central Daylight Time),116090.20000000298,A,arm,I,m,86,2,715.8000000119209,115374.39999999106,8031,WL,B,4.0
1,6.549000024795532,learn,53450.99997520447,Tue Apr 22 2025 10:06:36 GMT-0500 (Central Daylight Time),116290.39999999106,A,armenter,I,enter,187,2,916.0,115374.39999999106,8031,WL,B,4.0
1,6.848999977111816,learn,53151.00002288818,Tue Apr 22 2025 10:06:36 GMT-0500 (Central Daylight Time),116590.20000000298,A,w,I,w,282,2,299.30000001192093,116290.89999999106,8031,WL,B,5.0
1,6.932000160217285,learn,53067.999839782715,Tue Apr 22 2025 10:06:36 GMT-0500 (Central Daylight Time),116673.89999999106,A,wi,I,i,63,2,383.0,116290.89999999106,8031,WL,B,5.0
1,7.04800009727478,learn,52951.99990272522,Tue Apr 22 2025 10:06:36 GMT-0500 (Central Daylight Time),116790.0,A,wif,I,f,99,2,499.1000000089407,116290.89999999106,8031,WL,B,5.0
1,7.2799999713897705,learn,52720.00002861023,Tue Apr 22 2025 10:06:36 GMT-0500 (Central Daylight Time),117021.39999999106,A,wife,I,e,226,2,730.5,116290.89999999106,8031,WL,B,5.0
1,7.2870001792907715,learn,52712.99982070923,Tue Apr 22 2025 10:06:36 GMT-0500 (Central Daylight Time),117028.5,A,wifeenter,I,enter,1,2,737.6000000089407,116290.89999999106,8031,WL,B,5.0
1,8.481000185012817,learn,51518.99981498718,Tue Apr 22 2025 10:06:36 GMT-0500 (Central Daylight Time),118223.0,A,p,I,p,1185,2,1194.2000000029802,117028.79999999702,8031,WL,B,6.0
1,8.581000089645386,learn,51418.999910354614,Tue Apr 22 2025 10:06:36 GMT-0500 (Central Daylight Time),118322.89999999106,A,pu,I,u,94,2,1294.0999999940395,117028.79999999702,8031,WL,B,6.0
1,8.748000144958496,learn,51251.999855041504,Tue Apr 22 2025 10:06:36 GMT-0500 (Central Daylight Time),118489.39999999106,A,pup,I,p,146,2,1460.5999999940395,117028.79999999702,8031,WL,B,6.0
1,8.914000034332275,learn,51085.999965667725,Tue Apr 22 2025 10:06:36 GMT-0500 (Central Daylight Time),118656.09999999404,A,pupi,I,i,156,2,1627.2999999970198,117028.79999999702,8031,WL,B,6.0
1,9.04800009727478,learn,50951.99990272522,Tue Apr 22 2025 10:06:36 GMT-0500 (Central Daylight Time),118789.59999999404,A,pupil,I,l,117,2,1760.7999999970198,117028.79999999702,8031,WL,B,6.0
1,9.281000137329102,learn,50718.9998626709,Tue Apr 22 2025 10:06:36 GMT-0500 (Central Daylight Time),119022.70000000298,A,pupilenter,I,enter,223,2,1993.9000000059605,117028.79999999702,8031,WL,B,6.0
1,9.664000034332275,learn,50335.999965667725,Tue Apr 22 2025 10:06:36 GMT-0500 (Central Daylight Time),119406.09999999404,A,s,I,s,366,2,383.0,119023.09999999404,8031,WL,B,7.0
1,9.746999979019165,learn,50253.000020980835,Tue Apr 22 2025 10:06:36 GMT-0500 (Central Daylight Time),119489.09999999404,A,st,I,t,62,2,466.0,119023.09999999404,8031,WL,B,7.0
1,9.847000122070312,learn,50152.99987792969,Tue Apr 22 2025 10:06:36 GMT-0500 (Central Daylight Time),119589.20000000298,A,sta,I,a,91,2,566.1000000089407,119023.09999999404,8031,WL,B,7.0
1,9.94700002670288,learn,50052.99997329712,Tue Apr 22 2025 10:06:36 GMT-0500 (Central Daylight Time),119689.09999999404,A,star,I,r,88,2,666.0,119023.09999999404,8031,WL,B,7.0
1,10.248000144958496,learn,49751.999855041504,Tue Apr 22 2025 10:06:36 GMT-0500 (Central Daylight Time),119989.20000000298,A,starenter,I,enter,284,2,966.1000000089407,119023.09999999404,8031,WL,B,7.0
1,10.647000074386597,learn,49352.9999256134,Tue Apr 22 2025 10:06:36 GMT-0500 (Central Daylight Time),120389.09999999404,A,c,I,c,392,2,399.5,119989.59999999404,8031,WL,B,8.0
1,10.71399998664856,learn,49286.00001335144,Tue Apr 22 2025 10:06:36 GMT-0500 (Central Daylight Time),120455.89999999106,A,ca,I,a,56,2,466.29999999701977,119989.59999999404,8031,WL,B,8.0
1,10.88100004196167,learn,49118.99995803833,Tue Apr 22 2025 10:06:36 GMT-0500 (Central Daylight Time),120622.20000000298,A,cab,I,b,149,2,632.6000000089407,119989.59999999404,8031,WL,B,8.0
1,10.96399998664856,learn,49036.00001335144,Tue Apr 22 2025 10:06:36 GMT-0500 (Central Daylight Time),120705.70000000298,A,cabi,I,i,63,2,716.1000000089407,119989.59999999404,8031,WL,B,8.0
1,10.996999979019165,learn,49003.000020980835,Tue Apr 22 2025 10:06:36 GMT-0500 (Central Daylight Time),120738.5,A,cabin,I,n,20,2,748.9000000059605,119989.59999999404,8031,WL,B,8.0
1,11.246999979019165,learn,48753.000020980835,Tue Apr 22 2025 10:06:36 GMT-0500 (Central Daylight Time),120988.79999999702,A,cabinenter,I,enter,235,2,999.2000000029802,119989.59999999404,8031,WL,B,8.0
1,11.614000082015991,learn,48385.99991798401,Tue Apr 22 2025 10:06:36 GMT-0500 (Central Daylight Time),121355.29999999702,A,l,I,l,352,2,366.09999999403954,120989.20000000298,8031,WL,B,9.0
1,11.730000019073486,learn,48269.999980926514,Tue Apr 22 2025 10:06:36 GMT-0500 (Central Daylight Time),121472.0,A,la,I,a,98,2,482.79999999701977,120989.20000000298,8031,WL,B,9.0
1,11.830000162124634,learn,48169.999837875366,Tue Apr 22 2025 10:06:36 GMT-0500 (Central Daylight Time),121571.89999999106,A,lak,I,k,85,2,582.6999999880791,120989.20000000298,8031,WL,B,9.0
1,11.930000066757202,learn,48069.9999332428,Tue Apr 22 2025 10:06:36 GMT-0500 (Central Daylight Time),121671.89999999106,A,lake,I,e,89,2,682.6999999880791,120989.20000000298,8031,WL,B,9.0
1,12.265000104904175,learn,47734.999895095825,Tue Apr 22 2025 10:06:36 GMT-0500 (Central Daylight Time),122006.29999999702,A,lakeenter,I,enter,317,2,1017.0999999940395,120989.20000000298,8031,WL,B,9.0
1,12.730000019073486,learn,47269.999980926514,Tue Apr 22 2025 10:06:36 GMT-0500 (Central Daylight Time),122471.70000000298,A,f,I,f,455,2,465.20000000298023,122006.5,8031,WL,B,10.0
1,12.84600019454956,learn,47153.99980545044,Tue Apr 22 2025 10:06:36 GMT-0500 (Central Daylight Time),122587.89999999106,A,fi,I,i,110,2,581.3999999910593,122006.5,8031,WL,B,10.0
1,12.94700002670288,learn,47052.99997329712,Tue Apr 22 2025 10:06:36 GMT-0500 (Central Daylight Time),122688.29999999702,A,fir,I,r,81,2,681.7999999970198,122006.5,8031,WL,B,10.0
1,13.013000011444092,learn,46986.99998855591,Tue Apr 22 2025 10:06:36 GMT-0500 (Central Daylight Time),122755.09999999404,A,fire,I,e,53,2,748.5999999940395,122006.5,8031,WL,B,10.0
1,13.147000074386597,learn,46852.9999256134,Tue Apr 22 2025 10:06:36 GMT-0500 (Central Daylight Time),122888.5,A,fireenter,I,enter,122,2,882.0,122006.5,8031,WL,B,10.0
1,14.763000011444092,learn,45236.99998855591,Tue Apr 22 2025 10:06:36 GMT-0500 (Central Daylight Time),124504.20000000298,A,w,I,w,1605,2,1615.4000000059605,122888.79999999702,8031,WL,B,11.0
1,14.84600019454956,learn,45153.99980545044,Tue Apr 22 2025 10:06:36 GMT-0500 (Central Daylight Time),124587.39999999106,A,wi,I,i,78,2,1698.5999999940395,122888.79999999702,8031,WL,B,11.0
1,14.896000146865845,learn,45103.999853134155,Tue Apr 22 2025 10:06:36 GMT-0500 (Central Daylight Time),124637.59999999404,A,win,I,n,34,2,1748.7999999970198,122888.79999999702,8031,WL,B,11.0
1,14.996000051498413,learn,45003.99994850159,Tue Apr 22 2025 10:06:36 GMT-0500 (Central Daylight Time),124737.70000000298,A,wind,I,d,80,2,1848.9000000059605,122888.79999999702,8031,WL,B,11.0
1,15.063000202178955,learn,44936.999797821045,Tue Apr 22 2025 10:06:36 GMT-0500 (Central Daylight Time),124804.5,A,windo,I,o,52,2,1915.7000000029802,122888.79999999702,8031,WL,B,11.0
1,15.163000106811523,learn,44836.99989318848,Tue Apr 22 2025 10:06:36 GMT-0500 (Central Daylight Time),124904.20000000298,A,window,I,w,81,2,2015.4000000059605,122888.79999999702,8031,WL,B,11.0
1,15.313000202178955,learn,44686.999797821045,Tue Apr 22 2025 10:06:36 GMT-0500 (Central Daylight Time),125054.20000000298,A,windowenter,I,enter,141,2,2165.4000000059605,122888.79999999702,8031,WL,B,11.0
1,15.828999996185303,learn,44171.0000038147,Tue Apr 22 2025 10:06:36 GMT-0500 (Central Daylight Time),125570.59999999404,A,d,I,d,503,2,516.0,125054.59999999404,8031,WL,B,12.0
1,16.27900004386902,learn,43720.99995613098,Tue Apr 22 2025 10:06:36 GMT-0500 (Central Daylight Time),126020.29999999702,A,do,I,o,443,2,965.7000000029802,125054.59999999404,8031,WL,B,12.0
1,16.42900013923645,learn,43570.99986076355,Tue Apr 22 2025 10:06:36 GMT-0500 (Central Daylight Time),126170.79999999702,A,doo,I,o,130,2,1116.2000000029802,125054.59999999404,8031,WL,B,12.0
1,16.52900004386902,learn,43470.99995613098,Tue Apr 22 2025 10:06:36 GMT-0500 (Central Daylight Time),126270.29999999702,A,door,I,r,90,2,1215.7000000029802,125054.59999999404,8031,WL,B,12.0
1,16.611999988555908,learn,43388.00001144409,Tue Apr 22 2025 10:06:36 GMT-0500 (Central Daylight Time),126353.70000000298,A,doorenter,I,enter,63,2,1299.1000000089407,125054.59999999404,8031,WL,B,12.0
1,17.34500002861023,learn,42654.99997138977,Tue Apr 22 2025 10:06:36 GMT-0500 (Central Daylight Time),127086.79999999702,A,h,I,h,716,2,732.7000000029802,126354.09999999404,8031,WL,B,13.0
1,17.49500012397766,learn,42504.99987602234,Tue Apr 22 2025 10:06:36 GMT-0500 (Central Daylight Time),127236.79999999702,A,ho,I,o,135,2,882.7000000029802,126354.09999999404,8031,WL,B,13.0
1,17.578999996185303,learn,42421.0000038147,Tue Apr 22 2025 10:06:36 GMT-0500 (Central Daylight Time),127320.5,A,hou,I,u,72,2,966.4000000059605,126354.09999999404,8031,WL,B,13.0
1,17.66200017929077,learn,42337.99982070923,Tue Apr 22 2025 10:06:36 GMT-0500 (Central Daylight Time),127403.79999999702,A,hous,I,s,69,2,1049.7000000029802,126354.09999999404,8031,WL,B,13.0
1,17.710999965667725,learn,42289.000034332275,Tue Apr 22 2025 10:06:36 GMT-0500 (Central Daylight Time),127453.09999999404,A,house,I,e,42,2,1099.0,126354.09999999404,8031,WL,B,13.0
1,17.795000076293945,learn,42204.999923706055,Tue Apr 22 2025 10:06:36 GMT-0500 (Central Daylight Time),127536.59999999404,A,houseenter,I,enter,64,2,1182.5,126354.09999999404,8031,WL,B,13.0
1,23.09500002861023,learn,36904.99997138977,Tue Apr 22 2025 10:06:36 GMT-0500 (Central Daylight Time),132836.20000000298,A,c,I,c,5293,2,5299.20000000298,127537.0,8031,WL,B,14.0
1,23.22699999809265,learn,36773.00000190735,Tue Apr 22 2025 10:06:36 GMT-0500 (Central Daylight Time),132968.29999999702,A,ca,I,a,120,2,5431.29999999702,127537.0,8031,WL,B,14.0
1,23.443000078201294,learn,36556.999921798706,Tue Apr 22 2025 10:06:36 GMT-0500 (Central Daylight Time),133184.89999999106,A,cab,I,b,205,2,5647.899999991059,127537.0,8031,WL,B,14.0
1,23.527000188827515,learn,36472.999811172485,Tue Apr 22 2025 10:06:36 GMT-0500 (Central Daylight Time),133268.29999999702,A,cabi,I,i,68,2,5731.29999999702,127537.0,8031,WL,B,14.0
1,23.5770001411438,learn,36422.9998588562,Tue Apr 22 2025 10:06:36 GMT-0500 (Central Daylight Time),133318.5,A,cabin,I,n,33,2,5781.5,127537.0,8031,WL,B,14.0
1,23.7260000705719,learn,36273.9999294281,Tue Apr 22 2025 10:06:36 GMT-0500 (Central Daylight Time),133468.09999999404,A,cabinenter,I,enter,143,2,5931.0999999940395,127537.0,8031,WL,B,14.0
1,26.909000158309937,learn,33090.99984169006,Tue Apr 22 2025 10:06:36 GMT-0500 (Central Daylight Time),136650.70000000298,A,f,I,f,3161,2,3182.300000011921,133468.39999999106,8031,WL,B,15.0
1,26.992000102996826,learn,33007.999897003174,Tue Apr 22 2025 10:06:36 GMT-0500 (Central Daylight Time),136733.89999999106,A,fi,I,i,67,2,3265.5,133468.39999999106,8031,WL,B,15.0
1,27.092000007629395,learn,32907.999992370605,Tue Apr 22 2025 10:06:36 GMT-0500 (Central Daylight Time),136833.70000000298,A,fir,I,r,80,2,3365.300000011921,133468.39999999106,8031,WL,B,15.0
1,27.159000158309937,learn,32840.99984169006,Tue Apr 22 2025 10:06:36 GMT-0500 (Central Daylight Time),136900.39999999106,A,fire,I,e,59,2,3432.0,133468.39999999106,8031,WL,B,15.0
1,27.259000062942505,learn,32740.999937057495,Tue Apr 22 2025 10:06:36 GMT-0500 (Central Daylight Time),137000.29999999702,A,fireenter,I,enter,81,2,3531.9000000059605,133468.39999999106,8031,WL,B,15.0
2,1.315999984741211,learn,58684.00001525879,Tue Apr 22 2025 10:06:36 GMT-0500 (Central Daylight Time),207145.20000000298,A,c,I,c,1305,2,1316.300000011921,205828.89999999106,8031,WL,B,1.0
2,1.3999998569488525,learn,58600.00014305115,Tue Apr 22 2025 10:06:36 GMT-0500 (Central Daylight Time),207228.5,A,cl,I,l,76,2,1399.6000000089407,205828.89999999106,8031,WL,B,1.0
2,1.5499999523162842,learn,58450.000047683716,Tue Apr 22 2025 10:06:36 GMT-0500 (Central Daylight Time),207378.5,A,clo,I,o,145,2,1549.6000000089407,205828.89999999106,8031,WL,B,1.0
2,1.682999849319458,learn,58317.00015068054,Tue Apr 22 2025 10:06:36 GMT-0500 (Central Daylight Time),207511.59999999404,A,cloc,I,c,123,2,1682.7000000029802,205828.89999999106,8031,WL,B,1.0
2,1.75,learn,58250.0,Tue Apr 22 2025 10:06:36 GMT-0500 (Central Daylight Time),207578.59999999404,A,clock,I,k,62,2,1749.7000000029802,205828.89999999106,8031,WL,B,1.0
2,2.299999952316284,learn,57700.000047683716,Tue Apr 22 2025 10:06:36 GMT-0500 (Central Daylight Time),208128.20000000298,A,clockenter,I,enter,531,2,2299.300000011921,205828.89999999106,8031,WL,B,1.0
2,3.7820000648498535,learn,56217.99993515015,Tue Apr 22 2025 10:06:36 GMT-0500 (Central Daylight Time),209611.0,A,s,I,s,1469,2,1482.4000000059605,208128.59999999404,8031,WL,B,2.0
2,3.865999937057495,learn,56134.000062942505,Tue Apr 22 2025 10:06:36 GMT-0500 (Central Daylight Time),209694.20000000298,A,sk,I,k,66,2,1565.6000000089407,208128.59999999404,8031,WL,B,2.0
2,4.065999984741211,learn,55934.00001525879,Tue Apr 22 2025 10:06:36 GMT-0500 (Central Daylight Time),209894.5,A,ski,I,i,183,2,1765.9000000059605,208128.59999999404,8031,WL,B,2.0
2,4.098999977111816,learn,55901.00002288818,Tue Apr 22 2025 10:06:36 GMT-0500 (Central Daylight Time),209927.5,A,skin,I,n,15,2,1798.9000000059605,208128.59999999404,8031,WL,B,2.0
2,4.2820000648498535,learn,55717.99993515015,Tue Apr 22 2025 10:06:36 GMT-0500 (Central Daylight Time),210110.89999999106,A,skinenter,I,enter,174,2,1982.2999999970198,208128.59999999404,8031,WL,B,2.0
2,5.379999876022339,learn,54620.00012397766,Tue Apr 22 2025 10:06:36 GMT-0500 (Central Daylight Time),211208.39999999106,A,r,I,r,1092,2,1097.199999988079,210111.20000000298,8031,WL,B,3.0
2,5.5269999504089355,learn,54473.000049591064,Tue Apr 22 2025 10:06:36 GMT-0500 (Central Daylight Time),211355.29999999702,A,rm,I,m,142,2,1244.0999999940395,210111.20000000298,8031,WL,B,3.0
2,5.582000017166138,learn,54417.99998283386,Tue Apr 22 2025 10:06:36 GMT-0500 (Central Daylight Time),211410.79999999702,A,rmenter,I,enter,43,2,1299.5999999940395,210111.20000000298,8031,WL,B,3.0
2,7.2149999141693115,learn,52785.00008583069,Tue Apr 22 2025 10:06:36 GMT-0500 (Central Daylight Time),213043.20000000298,A,s,I,s,1616,2,1632.1000000089407,211411.09999999404,8031,WL,B,4.0
2,7.365999937057495,learn,52634.000062942505,Tue Apr 22 2025 10:06:36 GMT-0500 (Central Daylight Time),213194.5,A,st,I,t,130,2,1783.4000000059605,211411.09999999404,8031,WL,B,4.0
2,7.547999858856201,learn,52452.0001411438,Tue Apr 22 2025 10:06:36 GMT-0500 (Central Daylight Time),213376.5,A,str,I,r,171,2,1965.4000000059605,211411.09999999404,8031,WL,B,4.0
2,7.615000009536743,learn,52384.99999046326,Tue Apr 22 2025 10:06:36 GMT-0500 (Central Daylight Time),213443.5,A,stre,I,e,53,2,2032.4000000059605,211411.09999999404,8031,WL,B,4.0
2,7.797999858856201,learn,52202.0001411438,Tue Apr 22 2025 10:06:36 GMT-0500 (Central Daylight Time),213626.59999999404,A,stree,I,e,178,2,2215.5,211411.09999999404,8031,WL,B,4.0
2,7.865000009536743,learn,52134.99999046326,Tue Apr 22 2025 10:06:36 GMT-0500 (Central Daylight Time),213693.39999999106,A,street,I,t,51,2,2282.2999999970198,211411.09999999404,8031,WL,B,4.0
2,8.197999954223633,learn,51802.00004577637,Tue Apr 22 2025 10:06:36 GMT-0500 (Central Daylight Time),214026.29999999702,A,streetenter,I,enter,320,2,2615.2000000029802,211411.09999999404,8031,WL,B,4.0
2,8.547999858856201,learn,51452.0001411438,Tue Apr 22 2025 10:06:36 GMT-0500 (Central Daylight Time),214376.20000000298,A,g,I,g,339,2,349.5,214026.70000000298,8031,WL,B,5.0
2,8.71399998664856,learn,51286.00001335144,Tue Apr 22 2025 10:06:36 GMT-0500 (Central Daylight Time),214542.79999999702,A,gr,I,r,149,2,516.0999999940395,214026.70000000298,8031,WL,B,5.0
2,8.79699993133545,learn,51203.00006866455,Tue Apr 22 2025 10:06:36 GMT-0500 (Central Daylight Time),214626.09999999404,A,gra,I,a,62,2,599.3999999910593,214026.70000000298,8031,WL,B,5.0
2,8.88100004196167,learn,51118.99995803833,Tue Apr 22 2025 10:06:36 GMT-0500 (Central Daylight Time),214709.39999999106,A,gras,I,s,75,2,682.6999999880791,214026.70000000298,8031,WL,B,5.0
2,9.080999851226807,learn,50919.00014877319,Tue Apr 22 2025 10:06:36 GMT-0500 (Central Daylight Time),214909.5,A,grass,I,s,184,2,882.7999999970198,214026.70000000298,8031,WL,B,5.0
2,9.263999938964844,learn,50736.000061035156,Tue Apr 22 2025 10:06:36 GMT-0500 (Central Daylight Time),215092.59999999404,A,grassenter,I,enter,176,2,1065.8999999910593,214026.70000000298,8031,WL,B,5.0
2,9.63100004196167,learn,50368.99995803833,Tue Apr 22 2025 10:06:36 GMT-0500 (Central Daylight Time),215459.29999999702,A,d,I,d,352,2,366.29999999701977,215093.0,8031,WL,B,6.0
2,9.730999946594238,learn,50269.00005340576,Tue Apr 22 2025 10:06:36 GMT-0500 (Central Daylight Time),215559.20000000298,A,do,I,o,82,2,466.20000000298023,215093.0,8031,WL,B,6.0
2,9.879999876022339,learn,50120.00012397766,Tue Apr 22 2025 10:06:36 GMT-0500 (Central Daylight Time),215709.09999999404,A,doo,I,o,142,2,616.0999999940395,215093.0,8031,WL,B,6.0
2,10.013999938964844,learn,49986.000061035156,Tue Apr 22 2025 10:06:36 GMT-0500 (Central Daylight Time),215842.39999999106,A,door,I,r,120,2,749.3999999910593,215093.0,8031,WL,B,6.0
2,10.263999938964844,learn,49736.000061035156,Tue Apr 22 2025 10:06:36 GMT-0500 (Central Daylight Time),216092.29999999702,A,doorenter,I,enter,235,2,999.2999999970198,215093.0,8031,WL,B,6.0
2,14.378999948501587,learn,45621.00005149841,Tue Apr 22 2025 10:06:36 GMT-0500 (Central Daylight Time),220207.70000000298,A,w,I,w,4105,2,4115.20000000298,216092.5,8031,WL,B,7.0
2,14.546000003814697,learn,45453.9999961853,Tue Apr 22 2025 10:06:36 GMT-0500 (Central Daylight Time),220374.39999999106,A,wi,I,i,150,2,4281.899999991059,216092.5,8031,WL,B,7.0
2,14.69599986076355,learn,45304.00013923645,Tue Apr 22 2025 10:06:36 GMT-0500 (Central Daylight Time),220524.5,A,wif,I,f,135,2,4432.0,216092.5,8031,WL,B,7.0
2,14.845999956130981,learn,45154.00004386902,Tue Apr 22 2025 10:06:36 GMT-0500 (Central Daylight Time),220674.29999999702,A,wife,I,e,145,2,4581.79999999702,216092.5,8031,WL,B,7.0
2,15.078999996185303,learn,44921.0000038147,Tue Apr 22 2025 10:06:36 GMT-0500 (Central Daylight Time),220907.39999999106,A,wifeenter,I,enter,227,2,4814.899999991059,216092.5,8031,WL,B,7.0
2,17.42799997329712,learn,42572.00002670288,Tue Apr 22 2025 10:06:36 GMT-0500 (Central Daylight Time),223256.79999999702,A,p,I,p,2330,2,2349.0,220907.79999999702,8031,WL,B,8.0
2,17.560999870300293,learn,42439.00012969971,Tue Apr 22 2025 10:06:36 GMT-0500 (Central Daylight Time),223390.09999999404,A,pu,I,u,116,2,2482.2999999970198,220907.79999999702,8031,WL,B,8.0
2,17.710999965667725,learn,42289.000034332275,Tue Apr 22 2025 10:06:36 GMT-0500 (Central Daylight Time),223540.20000000298,A,pup,I,p,135,2,2632.4000000059605,220907.79999999702,8031,WL,B,8.0
2,17.84500002861023,learn,42154.99997138977,Tue Apr 22 2025 10:06:36 GMT-0500 (Central Daylight Time),223673.29999999702,A,pupi,I,i,121,2,2765.5,220907.79999999702,8031,WL,B,8.0
2,18.01099991798401,learn,41989.00008201599,Tue Apr 22 2025 10:06:36 GMT-0500 (Central Daylight Time),223839.89999999106,A,pupil,I,l,148,2,2932.0999999940395,220907.79999999702,8031,WL,B,8.0
2,18.210999965667725,learn,41789.000034332275,Tue Apr 22 2025 10:06:36 GMT-0500 (Central Daylight Time),224039.89999999106,A,pupilenter,I,enter,189,2,3132.0999999940395,220907.79999999702,8031,WL,B,8.0
2,18.560999870300293,learn,41439.00012969971,Tue Apr 22 2025 10:06:36 GMT-0500 (Central Daylight Time),224389.79999999702,A,s,I,s,342,2,349.59999999403954,224040.20000000298,8031,WL,B,9.0
2,18.64400005340576,learn,41355.99994659424,Tue Apr 22 2025 10:06:36 GMT-0500 (Central Daylight Time),224473.0,A,st,I,t,72,2,432.79999999701977,224040.20000000298,8031,WL,B,9.0
2,18.777999877929688,learn,41222.00012207031,Tue Apr 22 2025 10:06:36 GMT-0500 (Central Daylight Time),224606.20000000298,A,sta,I,a,125,2,566.0,224040.20000000298,8031,WL,B,9.0
2,18.878000020980835,learn,41121.999979019165,Tue Apr 22 2025 10:06:36 GMT-0500 (Central Daylight Time),224706.29999999702,A,star,I,r,87,2,666.0999999940395,224040.20000000298,8031,WL,B,9.0
2,19.128000020980835,learn,40871.999979019165,Tue Apr 22 2025 10:06:36 GMT-0500 (Central Daylight Time),224956.20000000298,A,starenter,I,enter,235,2,916.0,224040.20000000298,8031,WL,B,9.0
2,19.378000020980835,learn,40621.999979019165,Tue Apr 22 2025 10:06:36 GMT-0500 (Central Daylight Time),225206.29999999702,A,w,I,w,233,2,249.70000000298023,224956.59999999404,8031,WL,B,10.0
2,19.444000005722046,learn,40555.999994277954,Tue Apr 22 2025 10:06:36 GMT-0500 (Central Daylight Time),225272.89999999106,A,wi,I,i,47,2,316.29999999701977,224956.59999999404,8031,WL,B,10.0
2,19.477999925613403,learn,40522.0000743866,Tue Apr 22 2025 10:06:36 GMT-0500 (Central Daylight Time),225306.29999999702,A,win,I,n,20,2,349.70000000298023,224956.59999999404,8031,WL,B,10.0
2,19.5939998626709,learn,40406.0001373291,Tue Apr 22 2025 10:06:36 GMT-0500 (Central Daylight Time),225422.59999999404,A,wind,I,d,100,2,466.0,224956.59999999404,8031,WL,B,10.0
2,19.710999965667725,learn,40289.000034332275,Tue Apr 22 2025 10:06:36 GMT-0500 (Central Daylight Time),225539.39999999106,A,windo,I,o,102,2,582.7999999970198,224956.59999999404,8031,WL,B,10.0
2,19.793999910354614,learn,40206.000089645386,Tue Apr 22 2025 10:06:36 GMT-0500 (Central Daylight Time),225622.5,A,window,I,w,66,2,665.9000000059605,224956.59999999404,8031,WL,B,10.0
2,20.210999965667725,learn,39789.000034332275,Tue Apr 22 2025 10:06:36 GMT-0500 (Central Daylight Time),226039.29999999702,A,windowenter,I,enter,407,2,1082.7000000029802,224956.59999999404,8031,WL,B,10.0
2,21.177000045776367,learn,38822.99995422363,Tue Apr 22 2025 10:06:36 GMT-0500 (Central Daylight Time),227005.5,A,c,I,c,958,2,965.9000000059605,226039.59999999404,8031,WL,B,11.0
2,21.292999982833862,learn,38707.00001716614,Tue Apr 22 2025 10:06:36 GMT-0500 (Central Daylight Time),227122.09999999404,A,ci,I,i,104,2,1082.5,226039.59999999404,8031,WL,B,11.0
2,21.427000045776367,learn,38572.99995422363,Tue Apr 22 2025 10:06:36 GMT-0500 (Central Daylight Time),227255.59999999404,A,cit,I,t,115,2,1216.0,226039.59999999404,8031,WL,B,11.0
2,21.49399995803833,learn,38506.00004196167,Tue Apr 22 2025 10:06:36 GMT-0500 (Central Daylight Time),227322.29999999702,A,city,I,y,46,2,1282.7000000029802,226039.59999999404,8031,WL,B,11.0
2,21.74399995803833,learn,38256.00004196167,Tue Apr 22 2025 10:06:36 GMT-0500 (Central Daylight Time),227572.20000000298,A,cityenter,I,enter,234,2,1532.6000000089407,226039.59999999404,8031,WL,B,11.0
2,23.7260000705719,learn,36273.9999294281,Tue Apr 22 2025 10:06:36 GMT-0500 (Central Daylight Time),229554.70000000298,A,c,I,c,1977,2,1982.2000000029802,227572.5,8031,WL,B,12.0
2,23.858999967575073,learn,36141.00003242493,Tue Apr 22 2025 10:06:36 GMT-0500 (Central Daylight Time),229688.09999999404,A,ca,I,a,115,2,2115.5999999940395,227572.5,8031,WL,B,12.0
2,24.009000062942505,learn,35990.999937057495,Tue Apr 22 2025 10:06:36 GMT-0500 (Central Daylight Time),229838.0,A,cab,I,b,141,2,2265.5,227572.5,8031,WL,B,12.0
2,24.109999895095825,learn,35890.000104904175,Tue Apr 22 2025 10:06:36 GMT-0500 (Central Daylight Time),229938.39999999106,A,cabi,I,i,87,2,2365.8999999910593,227572.5,8031,WL,B,12.0
2,24.175999879837036,learn,35824.000120162964,Tue Apr 22 2025 10:06:36 GMT-0500 (Central Daylight Time),230004.59999999404,A,cabin,I,n,51,2,2432.0999999940395,227572.5,8031,WL,B,12.0
2,24.45899987220764,learn,35541.00012779236,Tue Apr 22 2025 10:06:36 GMT-0500 (Central Daylight Time),230288.0,A,cabinenter,I,enter,265,2,2715.5,227572.5,8031,WL,B,12.0
2,24.80900001525879,learn,35190.99998474121,Tue Apr 22 2025 10:06:36 GMT-0500 (Central Daylight Time),230637.70000000298,A,l,I,l,341,2,349.40000000596046,230288.29999999702,8031,WL,B,13.0
2,25.026000022888184,learn,34973.99997711182,Tue Apr 22 2025 10:06:36 GMT-0500 (Central Daylight Time),230854.39999999106,A,lk,I,k,208,2,566.0999999940395,230288.29999999702,8031,WL,B,13.0
2,25.39199995994568,learn,34608.00004005432,Tue Apr 22 2025 10:06:36 GMT-0500 (Central Daylight Time),231220.89999999106,A,l,I,backspace,359,2,932.5999999940395,230288.29999999702,8031,WL,B,13.0
2,25.575999975204468,learn,34424.00002479553,Tue Apr 22 2025 10:06:36 GMT-0500 (Central Daylight Time),231404.29999999702,A,la,I,a,168,2,1116.0,230288.29999999702,8031,WL,B,13.0
2,25.691999912261963,learn,34308.00008773804,Tue Apr 22 2025 10:06:36 GMT-0500 (Central Daylight Time),231520.89999999106,A,lak,I,k,97,2,1232.5999999940395,230288.29999999702,8031,WL,B,13.0
2,25.858999967575073,learn,34141.00003242493,Tue Apr 22 2025 10:06:36 GMT-0500 (Central Daylight Time),231687.5,A,lake,I,e,148,2,1399.2000000029802,230288.29999999702,8031,WL,B,13.0
2,26.509000062942505,learn,33490.999937057495,Tue Apr 22 2025 10:06:36 GMT-0500 (Central Daylight Time),232337.29999999702,A,lakeenter,I,enter,630,2,2049.0,230288.29999999702,8031,WL,B,13.0
2,26.924999952316284,learn,33075.000047683716,Tue Apr 22 2025 10:06:36 GMT-0500 (Central Daylight Time),232753.70000000298,A,p,I,p,396,2,416.0,232337.70000000298,8031,WL,B,14.0
2,27.075000047683716,learn,32924.999952316284,Tue Apr 22 2025 10:06:36 GMT-0500 (Central Daylight Time),232903.70000000298,A,pi,I,i,132,2,566.0,232337.70000000298,8031,WL,B,14.0
2,27.241999864578247,learn,32758.000135421753,Tue Apr 22 2025 10:06:36 GMT-0500 (Central Daylight Time),233070.70000000298,A,pip,I,p,150,2,733.0,232337.70000000298,8031,WL,B,14.0
2,27.45799994468689,learn,32542.00005531311,Tue Apr 22 2025 10:06:36 GMT-0500 (Central Daylight Time),233287.0,A,pipe,I,e,207,2,949.2999999970198,232337.70000000298,8031,WL,B,14.0
2,29.323999881744385,learn,30676.000118255615,Tue Apr 22 2025 10:06:36 GMT-0500 (Central Daylight Time),235153.20000000298,A,pipeenter,I,enter,1847,2,2815.5,232337.70000000298,8031,WL,B,14.0
2,33.28999996185303,learn,26710.000038146973,Tue Apr 22 2025 10:06:36 GMT-0500 (Central Daylight Time),239118.5,A,w,I,w,3956,2,3965.0,235153.5,8031,WL,B,15.0
2,33.40599989891052,learn,26594.000101089478,Tue Apr 22 2025 10:06:36 GMT-0500 (Central Daylight Time),239234.79999999702,A,wa,I,a,111,2,4081.2999999970198,235153.5,8031,WL,B,15.0
2,34.1729998588562,learn,25827.0001411438,Tue Apr 22 2025 10:06:36 GMT-0500 (Central Daylight Time),240001.5,A,wat,I,t,747,2,4848.0,235153.5,8031,WL,B,15.0
2,34.305999994277954,learn,25694.000005722046,Tue Apr 22 2025 10:06:36 GMT-0500 (Central Daylight Time),240134.89999999106,A,wate,I,e,124,2,4981.399999991059,235153.5,8031,WL,B,15.0
2,34.389999866485596,learn,25610.000133514404,Tue Apr 22 2025 10:06:36 GMT-0500 (Central Daylight Time),240218.39999999106,A,water,I,r,71,2,5064.899999991059,235153.5,8031,WL,B,15.0
2,34.50600004196167,learn,25493.99995803833,Tue Apr 22 2025 10:06:36 GMT-0500 (Central Daylight Time),240334.70000000298,A,waterenter,I,enter,99,2,5181.20000000298,235153.5,8031,WL,B,15.0
3,1.5329999923706055,learn,58467.000007629395,Tue Apr 22 2025 10:06:36 GMT-0500 (Central Daylight Time),308946.700000003,A,s,I,s,1528,2,1532.9000000059605,307413.799999997,8031,WL,B,1.0
3,2.115999937057495,learn,57884.000062942505,Tue Apr 22 2025 10:06:36 GMT-0500 (Central Daylight Time),309529.799999997,A,st,I,t,570,2,2116.0,307413.799999997,8031,WL,B,1.0
3,2.3329999446868896,learn,57667.00005531311,Tue Apr 22 2025 10:06:36 GMT-0500 (Central Daylight Time),309746.5,A,str,I,r,212,2,2332.7000000029802,307413.799999997,8031,WL,B,1.0
3,2.431999921798706,learn,57568.000078201294,Tue Apr 22 2025 10:06:36 GMT-0500 (Central Daylight Time),309846.09999999404,A,stre,I,e,91,2,2432.2999999970198,307413.799999997,8031,WL,B,1.0
3,2.632999897003174,learn,57367.000102996826,Tue Apr 22 2025 10:06:36 GMT-0500 (Central Daylight Time),310046.299999997,A,stree,I,e,183,2,2632.5,307413.799999997,8031,WL,B,1.0
3,2.8989999294281006,learn,57101.0000705719,Tue Apr 22 2025 10:06:36 GMT-0500 (Central Daylight Time),310312.89999999106,A,street,I,t,247,2,2899.0999999940395,307413.799999997,8031,WL,B,1.0
3,3.2159998416900635,learn,56784.00015830994,Tue Apr 22 2025 10:06:36 GMT-0500 (Central Daylight Time),310629.299999997,A,streetenter,I,enter,309,2,3215.5,307413.799999997,8031,WL,B,1.0
3,3.56499981880188,learn,56435.00018119812,Tue Apr 22 2025 10:06:36 GMT-0500 (Central Daylight Time),310979.09999999404,A,g,I,g,344,2,349.5,310629.59999999404,8031,WL,B,2.0
3,3.748999834060669,learn,56251.00016593933,Tue Apr 22 2025 10:06:36 GMT-0500 (Central Daylight Time),311162.5,A,gr,I,r,178,2,532.9000000059605,310629.59999999404,8031,WL,B,2.0
3,3.8489999771118164,learn,56151.00002288818,Tue Apr 22 2025 10:06:36 GMT-0500 (Central Daylight Time),311262.5,A,gra,I,a,83,2,632.9000000059605,310629.59999999404,8031,WL,B,2.0
3,4.049000024795532,learn,55950.99997520447,Tue Apr 22 2025 10:06:36 GMT-0500 (Central Daylight Time),311462.5,A,gras,I,s,191,2,832.9000000059605,310629.59999999404,8031,WL,B,2.0
3,4.281999826431274,learn,55718.000173568726,Tue Apr 22 2025 10:06:36 GMT-0500 (Central Daylight Time),311695.89999999106,A,grass,I,s,215,2,1066.2999999970198,310629.59999999404,8031,WL,B,2.0
3,4.56499981880188,learn,55435.00018119812,Tue Apr 22 2025 10:06:36 GMT-0500 (Central Daylight Time),311978.89999999106,A,grassenter,I,enter,277,2,1349.2999999970198,310629.59999999404,8031,WL,B,2.0
3,5.898000001907349,learn,54101.99999809265,Tue Apr 22 2025 10:06:36 GMT-0500 (Central Daylight Time),313311.700000003,A,d,I,d,1315,2,1332.6000000089407,311979.09999999404,8031,WL,B,3.0
3,5.997999906539917,learn,54002.00009346008,Tue Apr 22 2025 10:06:36 GMT-0500 (Central Daylight Time),313411.89999999106,A,do,I,o,86,2,1432.7999999970198,311979.09999999404,8031,WL,B,3.0
3,6.164999961853027,learn,53835.00003814697,Tue Apr 22 2025 10:06:36 GMT-0500 (Central Daylight Time),313578.59999999404,A,doo,I,o,162,2,1599.5,311979.09999999404,8031,WL,B,3.0
3,6.31499981880188,learn,53685.00018119812,Tue Apr 22 2025 10:06:36 GMT-0500 (Central Daylight Time),313728.5,A,door,I,r,131,2,1749.4000000059605,311979.09999999404,8031,WL,B,3.0
3,6.5309998989105225,learn,53469.00010108948,Tue Apr 22 2025 10:06:36 GMT-0500 (Central Daylight Time),313945.09999999404,A,doorenter,I,enter,197,2,1966.0,311979.09999999404,8031,WL,B,3.0
3,6.947999954223633,learn,53052.00004577637,Tue Apr 22 2025 10:06:36 GMT-0500 (Central Daylight Time),314361.5,A,a,I,a,404,2,416.1000000089407,313945.39999999106,8031,WL,B,4.0
3,6.997999906539917,learn,53002.00009346008,Tue Apr 22 2025 10:06:36 GMT-0500 (Central Daylight Time),314411.700000003,A,ar,I,r,36,2,466.30000001192093,313945.39999999106,8031,WL,B,4.0
3,7.130999803543091,learn,52869.00019645691,Tue Apr 22 2025 10:06:36 GMT-0500 (Central Daylight Time),314545.200000003,A,arm,I,m,122,2,599.8000000119209,313945.39999999106,8031,WL,B,4.0
3,7.680999994277954,learn,52319.000005722046,Tue Apr 22 2025 10:06:36 GMT-0500 (Central Daylight Time),315094.59999999404,A,armenter,I,enter,532,2,1149.2000000029802,313945.39999999106,8031,WL,B,4.0
3,8.513999938964844,learn,51486.000061035156,Tue Apr 22 2025 10:06:36 GMT-0500 (Central Daylight Time),315927.700000003,A,w,I,w,823,2,832.9000000059605,315094.799999997,8031,WL,B,5.0
3,8.646999835968018,learn,51353.00016403198,Tue Apr 22 2025 10:06:36 GMT-0500 (Central Daylight Time),316061.09999999404,A,wi,I,i,126,2,966.2999999970198,315094.799999997,8031,WL,B,5.0
3,8.79699993133545,learn,51203.00006866455,Tue Apr 22 2025 10:06:36 GMT-0500 (Central Daylight Time),316210.799999997,A,wif,I,f,144,2,1116.0,315094.799999997,8031,WL,B,5.0
3,8.913999795913696,learn,51086.000204086304,Tue Apr 22 2025 10:06:36 GMT-0500 (Central Daylight Time),316327.5,A,wife,I,e,99,2,1232.7000000029802,315094.799999997,8031,WL,B,5.0
3,9.179999828338623,learn,50820.00017166138,Tue Apr 22 2025 10:06:36 GMT-0500 (Central Daylight Time),316594.200000003,A,wifeenter,I,enter,246,2,1499.4000000059605,315094.799999997,8031,WL,B,5.0
3,10.79699993133545,learn,49203.00006866455,Tue Apr 22 2025 10:06:36 GMT-0500 (Central Daylight Time),318210.59999999404,A,s,I,s,1612,2,1616.0999999940395,316594.5,8031,WL,B,6.0
3,10.896999835968018,learn,49103.00016403198,Tue Apr 22 2025 10:06:36 GMT-0500 (Central Daylight Time),318310.200000003,A,st,I,t,91,2,1715.7000000029802,316594.5,8031,WL,B,6.0
3,11.062999963760376,learn,48937.000036239624,Tue Apr 22 2025 10:06:36 GMT-0500 (Central Daylight Time),318476.799999997,A,sta,I,a,151,2,1882.2999999970198,316594.5,8031,WL,B,6.0
3,11.246999979019165,learn,48753.000020980835,Tue Apr 22 2025 10:06:36 GMT-0500 (Central Daylight Time),318660.299999997,A,star,I,r,169,2,2065.7999999970198,316594.5,8031,WL,B,6.0
3,12.395999908447266,learn,47604.000091552734,Tue Apr 22 2025 10:06:36 GMT-0500 (Central Daylight Time),319810.09999999404,A,starenter,I,enter,1129,2,3215.5999999940395,316594.5,8031,WL,B,6.0
3,13.212999820709229,learn,46787.00017929077,Tue Apr 22 2025 10:06:36 GMT-0500 (Central Daylight Time),320626.5,A,p,I,p,803,2,816.1000000089407,319810.39999999106,8031,WL,B,7.0
3,13.395999908447266,learn,46604.000091552734,Tue Apr 22 2025 10:06:36 GMT-0500 (Central Daylight Time),320809.799999997,A,pu,I,u,163,2,999.4000000059605,319810.39999999106,8031,WL,B,7.0
3,13.562999963760376,learn,46437.000036239624,Tue Apr 22 2025 10:06:36 GMT-0500 (Central Daylight Time),320976.299999997,A,pup,I,p,148,2,1165.9000000059605,319810.39999999106,8031,WL,B,7.0
3,13.76199984550476,learn,46238.00015449524,Tue Apr 22 2025 10:06:36 GMT-0500 (Central Daylight Time),321176.200000003,A,pupi,I,i,181,2,1365.800000011921,319810.39999999106,8031,WL,B,7.0
3,13.929999828338623,learn,46070.00017166138,Tue Apr 22 2025 10:06:36 GMT-0500 (Central Daylight Time),321343.799999997,A,pupil,I,l,149,2,1533.4000000059605,319810.39999999106,8031,WL,B,7.0
3,15.428999900817871,learn,44571.00009918213,Tue Apr 22 2025 10:06:36 GMT-0500 (Central Daylight Time),322842.299999997,A,pupilenter,I,enter,1485,2,3031.9000000059605,319810.39999999106,8031,WL,B,7.0
3,15.794999837875366,learn,44205.000162124634,Tue Apr 22 2025 10:06:36 GMT-0500 (Central Daylight Time),323208.799999997,A,c,I,c,355,2,366.09999999403954,322842.700000003,8031,WL,B,8.0
3,15.894999980926514,learn,44105.000019073486,Tue Apr 22 2025 10:06:36 GMT-0500 (Central Daylight Time),323308.700000003,A,ca,I,a,93,2,466.0,322842.700000003,8031,WL,B,8.0
3,16.060999870300293,learn,43939.00012969971,Tue Apr 22 2025 10:06:36 GMT-0500 (Central Daylight Time),323475.200000003,A,cab,I,b,161,2,632.5,322842.700000003,8031,WL,B,8.0
3,16.228999853134155,learn,43771.000146865845,Tue Apr 22 2025 10:06:36 GMT-0500 (Central Daylight Time),323642.200000003,A,cabi,I,i,154,2,799.5,322842.700000003,8031,WL,B,8.0
3,16.277999877929688,learn,43722.00012207031,Tue Apr 22 2025 10:06:36 GMT-0500 (Central Daylight Time),323692.0,A,cabin,I,n,35,2,849.2999999970198,322842.700000003,8031,WL,B,8.0
3,16.727999925613403,learn,43272.0000743866,Tue Apr 22 2025 10:06:36 GMT-0500 (Central Daylight Time),324141.700000003,A,cabinenter,I,enter,433,2,1299.0,322842.700000003,8031,WL,B,8.0
3,17.51099991798401,learn,42489.00008201599,Tue Apr 22 2025 10:06:36 GMT-0500 (Central Daylight Time),324925.09999999404,A,l,I,l,776,2,783.0999999940395,324142.0,8031,WL,B,9.0
3,17.610999822616577,learn,42389.00017738342,Tue Apr 22 2025 10:06:36 GMT-0500 (Central Daylight Time),325024.89999999106,A,la,I,a,80,2,882.8999999910593,324142.0,8031,WL,B,9.0
3,17.76099991798401,learn,42239.00008201599,Tue Apr 22 2025 10:06:36 GMT-0500 (Central Daylight Time),325174.89999999106,A,lak,I,k,133,2,1032.8999999910593,324142.0,8031,WL,B,9.0
3,17.84500002861023,learn,42154.99997138977,Tue Apr 22 2025 10:06:36 GMT-0500 (Central Daylight Time),325258.200000003,A,lake,I,e,70,2,1116.2000000029802,324142.0,8031,WL,B,9.0
3,17.99399995803833,learn,42006.00004196167,Tue Apr 22 2025 10:06:36 GMT-0500 (Central Daylight Time),325408.09999999404,A,lakeenter,I,enter,139,2,1266.0999999940395,324142.0,8031,WL,B,9.0
3,18.793999910354614,learn,41206.000089645386,Tue Apr 22 2025 10:06:36 GMT-0500 (Central Daylight Time),326208.09999999404,A,p,I,p,781,2,799.7000000029802,325408.39999999106,8031,WL,B,10.0
3,18.960999965667725,learn,41039.000034332275,Tue Apr 22 2025 10:06:36 GMT-0500 (Central Daylight Time),326374.39999999106,A,pi,I,i,157,2,966.0,325408.39999999106,8031,WL,B,10.0
3,19.176999807357788,learn,40823.00019264221,Tue Apr 22 2025 10:06:36 GMT-0500 (Central Daylight Time),326591.0,A,pip,I,p,207,2,1182.6000000089407,325408.39999999106,8031,WL,B,10.0
3,19.460999965667725,learn,40539.000034332275,Tue Apr 22 2025 10:06:36 GMT-0500 (Central Daylight Time),326874.59999999404,A,pipe,I,e,278,2,1466.2000000029802,325408.39999999106,8031,WL,B,10.0
3,22.675999879837036,learn,37324.000120162964,Tue Apr 22 2025 10:06:36 GMT-0500 (Central Daylight Time),330089.59999999404,A,pipeenter,I,enter,3203,2,4681.20000000298,325408.39999999106,8031,WL,B,10.0
3,27.375,learn,32625.0,Tue Apr 22 2025 10:06:36 GMT-0500 (Central Daylight Time),334788.59999999404,A,s,I,s,4692,2,4698.79999999702,330089.799999997,8031,WL,B,11.0
3,27.490999937057495,learn,32509.000062942505,Tue Apr 22 2025 10:06:36 GMT-0500 (Central Daylight Time),334905.299999997,A,sk,I,k,105,2,4815.5,330089.799999997,8031,WL,B,11.0
3,27.657999992370605,learn,32342.000007629395,Tue Apr 22 2025 10:06:36 GMT-0500 (Central Daylight Time),335071.799999997,A,ski,I,i,148,2,4982.0,330089.799999997,8031,WL,B,11.0
3,27.72499990463257,learn,32275.00009536743,Tue Apr 22 2025 10:06:36 GMT-0500 (Central Daylight Time),335138.299999997,A,skin,I,n,46,2,5048.5,330089.799999997,8031,WL,B,11.0
3,27.94099998474121,learn,32059.00001525879,Tue Apr 22 2025 10:06:36 GMT-0500 (Central Daylight Time),335354.89999999106,A,skinenter,I,enter,203,2,5265.0999999940395,330089.799999997,8031,WL,B,11.0
3,30.073999881744385,learn,29926.000118255615,Tue Apr 22 2025 10:06:36 GMT-0500 (Central Daylight Time),337487.59999999404,A,f,I,f,2115,2,2132.2999999970198,335355.299999997,8031,WL,B,12.0
3,30.207000017166138,learn,29792.999982833862,Tue Apr 22 2025 10:06:36 GMT-0500 (Central Daylight Time),337621.0,A,fi,I,i,126,2,2265.7000000029802,335355.299999997,8031,WL,B,12.0
3,30.340999841690063,learn,29659.000158309937,Tue Apr 22 2025 10:06:36 GMT-0500 (Central Daylight Time),337754.59999999404,A,fir,I,r,112,2,2399.2999999970198,335355.299999997,8031,WL,B,12.0
3,30.457000017166138,learn,29542.999982833862,Tue Apr 22 2025 10:06:36 GMT-0500 (Central Daylight Time),337871.0,A,fire,I,e,99,2,2515.7000000029802,335355.299999997,8031,WL,B,12.0
3,30.656999826431274,learn,29343.000173568726,Tue Apr 22 2025 10:06:36 GMT-0500 (Central Daylight Time),338070.89999999106,A,fireenter,I,enter,190,2,2715.5999999940395,335355.299999997,8031,WL,B,12.0
3,31.506999969482422,learn,28493.000030517578,Tue Apr 22 2025 10:06:36 GMT-0500 (Central Daylight Time),338920.5,A,c,I,c,838,2,849.2999999970198,338071.200000003,8031,WL,B,13.0
3,31.58999991416931,learn,28410.00008583069,Tue Apr 22 2025 10:06:36 GMT-0500 (Central Daylight Time),339004.0,A,cl,I,l,77,2,932.7999999970198,338071.200000003,8031,WL,B,13.0
3,31.789999961853027,learn,28210.000038146973,Tue Apr 22 2025 10:06:36 GMT-0500 (Central Daylight Time),339203.799999997,A,clo,I,o,193,2,1132.5999999940395,338071.200000003,8031,WL,B,13.0
3,31.93999981880188,learn,28060.00018119812,Tue Apr 22 2025 10:06:36 GMT-0500 (Central Daylight Time),339354.0,A,cloc,I,c,129,2,1282.7999999970198,338071.200000003,8031,WL,B,13.0
3,32.03999996185303,learn,27960.000038146973,Tue Apr 22 2025 10:06:36 GMT-0500 (Central Daylight Time),339453.700000003,A,clock,I,k,84,2,1382.5,338071.200000003,8031,WL,B,13.0
3,32.27300000190735,learn,27726.99999809265,Tue Apr 22 2025 10:06:36 GMT-0500 (Central Daylight Time),339687.0,A,clockenter,I,enter,224,2,1615.7999999970198,338071.200000003,8031,WL,B,13.0
3,32.75699996948242,learn,27243.000030517578,Tue Apr 22 2025 10:06:36 GMT-0500 (Central Daylight Time),340170.299999997,A,c,I,c,463,2,483.09999999403954,339687.200000003,8031,WL,B,14.0
3,32.889999866485596,learn,27110.000133514404,Tue Apr 22 2025 10:06:36 GMT-0500 (Central Daylight Time),340303.39999999106,A,ci,I,i,115,2,616.1999999880791,339687.200000003,8031,WL,B,14.0
3,33.02300000190735,learn,26976.99999809265,Tue Apr 22 2025 10:06:36 GMT-0500 (Central Daylight Time),340436.799999997,A,cit,I,t,126,2,749.5999999940395,339687.200000003,8031,WL,B,14.0
3,33.139999866485596,learn,26860.000133514404,Tue Apr 22 2025 10:06:36 GMT-0500 (Central Daylight Time),340553.39999999106,A,city,I,y,97,2,866.1999999880791,339687.200000003,8031,WL,B,14.0
3,35.038999795913696,learn,24961.000204086304,Tue Apr 22 2025 10:06:36 GMT-0500 (Central Daylight Time),342452.39999999106,A,cityenter,I,enter,1892,2,2765.199999988079,339687.200000003,8031,WL,B,14.0
3,41.55399990081787,learn,18446.00009918213,Tue Apr 22 2025 10:06:36 GMT-0500 (Central Daylight Time),348967.299999997,A,w,I,w,6497,2,6514.5999999940395,342452.700000003,8031,WL,B,15.0
3,41.63699984550476,learn,18363.00015449524,Tue Apr 22 2025 10:06:36 GMT-0500 (Central Daylight Time),349050.59999999404,A,wi,I,i,78,2,6597.899999991059,342452.700000003,8031,WL,B,15.0
3,41.7039999961853,learn,18296.000003814697,Tue Apr 22 2025 10:06:36 GMT-0500 (Central Daylight Time),349117.59999999404,A,win,I,n,51,2,6664.899999991059,342452.700000003,8031,WL,B,15.0
3,41.78699994087219,learn,18213.000059127808,Tue Apr 22 2025 10:06:36 GMT-0500 (Central Daylight Time),349200.59999999404,A,wind,I,d,72,2,6747.899999991059,342452.700000003,8031,WL,B,15.0
3,41.919999837875366,learn,18080.000162124634,Tue Apr 22 2025 10:06:36 GMT-0500 (Central Daylight Time),349333.89999999106,A,windo,I,o,118,2,6881.199999988079,342452.700000003,8031,WL,B,15.0
3,42.00399994850159,learn,17996.000051498413,Tue Apr 22 2025 10:06:36 GMT-0500 (Central Daylight Time),349417.299999997,A,window,I,w,71,2,6964.5999999940395,342452.700000003,8031,WL,B,15.0
3,42.169999837875366,learn,17830.000162124634,Tue Apr 22 2025 10:06:36 GMT-0500 (Central Daylight Time),349583.5,A,windowenter,I,enter,156,2,7130.79999999702,342452.700000003,8031,WL,B,15.0
4,0.5500001907348633,learn,59449.99980926514,Tue Apr 22 2025 10:06:36 GMT-0500 (Central Daylight Time),415180.200000003,A,s,I,s,536,2,550.2000000029802,414630.0,8031,WL,B,1.0
4,0.7009999752044678,learn,59299.00002479553,Tue Apr 22 2025 10:06:36 GMT-0500 (Central Daylight Time),415330.39999999106,A,st,I,t,145,2,700.3999999910593,414630.0,8031,WL,B,1.0
4,0.9000000953674316,learn,59099.99990463257,Tue Apr 22 2025 10:06:36 GMT-0500 (Central Daylight Time),415529.89999999106,A,str,I,r,179,2,899.8999999910593,414630.0,8031,WL,B,1.0
4,0.9839999675750732,learn,59016.00003242493,Tue Apr 22 2025 10:06:36 GMT-0500 (Central Daylight Time),415613.299999997,A,stre,I,e,67,2,983.2999999970198,414630.0,8031,WL,B,1.0
4,1.2170000076293945,learn,58782.999992370605,Tue Apr 22 2025 10:06:36 GMT-0500 (Central Daylight Time),415846.39999999106,A,stree,I,e,216,2,1216.3999999910593,414630.0,8031,WL,B,1.0
4,1.317000150680542,learn,58682.99984931946,Tue Apr 22 2025 10:06:36 GMT-0500 (Central Daylight Time),415946.5,A,street,I,t,80,2,1316.5,414630.0,8031,WL,B,1.0
4,1.7000000476837158,learn,58299.999952316284,Tue Apr 22 2025 10:06:36 GMT-0500 (Central Daylight Time),416329.5,A,streetenter,I,enter,363,2,1699.5,414630.0,8031,WL,B,1.0
4,2.067000150680542,learn,57932.99984931946,Tue Apr 22 2025 10:06:36 GMT-0500 (Central Daylight Time),416696.299999997,A,g,I,g,348,2,366.5,416329.799999997,8031,WL,B,2.0
4,2.25,learn,57750.0,Tue Apr 22 2025 10:06:36 GMT-0500 (Central Daylight Time),416879.59999999404,A,gr,I,r,165,2,549.7999999970198,416329.799999997,8031,WL,B,2.0
4,2.317000150680542,learn,57682.99984931946,Tue Apr 22 2025 10:06:36 GMT-0500 (Central Daylight Time),416946.59999999404,A,gra,I,a,62,2,616.7999999970198,416329.799999997,8031,WL,B,2.0
4,2.433000087738037,learn,57566.99991226196,Tue Apr 22 2025 10:06:36 GMT-0500 (Central Daylight Time),417062.59999999404,A,gras,I,s,107,2,732.7999999970198,416329.799999997,8031,WL,B,2.0
4,2.633000135421753,learn,57366.99986457825,Tue Apr 22 2025 10:06:36 GMT-0500 (Central Daylight Time),417262.59999999404,A,grass,I,s,183,2,932.7999999970198,416329.799999997,8031,WL,B,2.0
4,2.75,learn,57250.0,Tue Apr 22 2025 10:06:36 GMT-0500 (Central Daylight Time),417379.39999999106,A,grassenter,I,enter,102,2,1049.5999999940395,416329.799999997,8031,WL,B,2.0
4,4.216000080108643,learn,55783.99991989136,Tue Apr 22 2025 10:06:36 GMT-0500 (Central Daylight Time),418845.5,A,d,I,d,1450,2,1465.7999999970198,417379.700000003,8031,WL,B,3.0
4,4.366000175476074,learn,55633.999824523926,Tue Apr 22 2025 10:06:36 GMT-0500 (Central Daylight Time),418995.39999999106,A,do,I,o,136,2,1615.699999988079,417379.700000003,8031,WL,B,3.0
4,4.565999984741211,learn,55434.00001525879,Tue Apr 22 2025 10:06:36 GMT-0500 (Central Daylight Time),419195.39999999106,A,doo,I,o,186,2,1815.699999988079,417379.700000003,8031,WL,B,3.0
4,4.699000120162964,learn,55300.999879837036,Tue Apr 22 2025 10:06:36 GMT-0500 (Central Daylight Time),419328.59999999404,A,door,I,r,114,2,1948.8999999910593,417379.700000003,8031,WL,B,3.0
4,5.449000120162964,learn,54550.999879837036,Tue Apr 22 2025 10:06:36 GMT-0500 (Central Daylight Time),420078.5,A,doorenter,I,enter,741,2,2698.7999999970198,417379.700000003,8031,WL,B,3.0
4,6.131999969482422,learn,53868.00003051758,Tue Apr 22 2025 10:06:36 GMT-0500 (Central Daylight Time),420761.89999999106,A,a,I,a,663,2,683.0,420078.89999999106,8031,WL,B,4.0
4,6.215000152587891,learn,53784.99984741211,Tue Apr 22 2025 10:06:36 GMT-0500 (Central Daylight Time),420845.09999999404,A,ar,I,r,68,2,766.2000000029802,420078.89999999106,8031,WL,B,4.0
4,6.332000017166138,learn,53667.99998283386,Tue Apr 22 2025 10:06:36 GMT-0500 (Central Daylight Time),420961.59999999404,A,arm,I,m,96,2,882.7000000029802,420078.89999999106,8031,WL,B,4.0
4,6.615000009536743,learn,53384.99999046326,Tue Apr 22 2025 10:06:36 GMT-0500 (Central Daylight Time),421244.89999999106,A,armenter,I,enter,268,2,1166.0,420078.89999999106,8031,WL,B,4.0
4,7.0320000648498535,learn,52967.99993515015,Tue Apr 22 2025 10:06:36 GMT-0500 (Central Daylight Time),421661.5,A,w,I,w,409,2,416.20000000298023,421245.299999997,8031,WL,B,5.0
4,7.164999961853027,learn,52835.00003814697,Tue Apr 22 2025 10:06:36 GMT-0500 (Central Daylight Time),421794.39999999106,A,wi,I,i,113,2,549.0999999940395,421245.299999997,8031,WL,B,5.0
4,7.332000017166138,learn,52667.99998283386,Tue Apr 22 2025 10:06:36 GMT-0500 (Central Daylight Time),421961.5,A,wif,I,f,147,2,716.2000000029802,421245.299999997,8031,WL,B,5.0
4,7.414999961853027,learn,52585.00003814697,Tue Apr 22 2025 10:06:36 GMT-0500 (Central Daylight Time),422044.799999997,A,wife,I,e,76,2,799.5,421245.299999997,8031,WL,B,5.0
4,7.615000009536743,learn,52384.99999046326,Tue Apr 22 2025 10:06:36 GMT-0500 (Central Daylight Time),422244.59999999404,A,wifeenter,I,enter,193,2,999.2999999970198,421245.299999997,8031,WL,B,5.0
4,10.047000169754028,learn,49952.99983024597,Tue Apr 22 2025 10:06:36 GMT-0500 (Central Daylight Time),424677.09999999404,A,s,I,s,2417,2,2432.2000000029802,422244.89999999106,8031,WL,B,6.0
4,10.19700002670288,learn,49802.99997329712,Tue Apr 22 2025 10:06:36 GMT-0500 (Central Daylight Time),424826.799999997,A,st,I,t,144,2,2581.9000000059605,422244.89999999106,8031,WL,B,6.0
4,10.746999979019165,learn,49253.000020980835,Tue Apr 22 2025 10:06:36 GMT-0500 (Central Daylight Time),425376.59999999404,A,sta,I,a,539,2,3131.7000000029802,422244.89999999106,8031,WL,B,6.0
4,10.847000122070312,learn,49152.99987792969,Tue Apr 22 2025 10:06:36 GMT-0500 (Central Daylight Time),425476.799999997,A,star,I,r,85,2,3231.9000000059605,422244.89999999106,8031,WL,B,6.0
4,15.195000171661377,learn,44804.99982833862,Tue Apr 22 2025 10:06:36 GMT-0500 (Central Daylight Time),429825.09999999404,A,starenter,I,enter,4337,2,7580.20000000298,422244.89999999106,8031,WL,B,6.0
4,18.361000061035156,learn,41638.999938964844,Tue Apr 22 2025 10:06:36 GMT-0500 (Central Daylight Time),432991.200000003,A,w,I,w,3156,2,3165.800000011921,429825.39999999106,8031,WL,B,7.0
4,18.478000164031982,learn,41521.99983596802,Tue Apr 22 2025 10:06:36 GMT-0500 (Central Daylight Time),433107.700000003,A,wi,I,i,110,2,3282.300000011921,429825.39999999106,8031,WL,B,7.0
4,18.528000116348267,learn,41471.99988365173,Tue Apr 22 2025 10:06:36 GMT-0500 (Central Daylight Time),433157.700000003,A,win,I,n,42,2,3332.300000011921,429825.39999999106,8031,WL,B,7.0
4,18.644999980926514,learn,41355.000019073486,Tue Apr 22 2025 10:06:36 GMT-0500 (Central Daylight Time),433274.299999997,A,wind,I,d,104,2,3448.9000000059605,429825.39999999106,8031,WL,B,7.0
4,18.761000156402588,learn,41238.99984359741,Tue Apr 22 2025 10:06:36 GMT-0500 (Central Daylight Time),433391.09999999404,A,windo,I,o,99,2,3565.7000000029802,429825.39999999106,8031,WL,B,7.0
4,18.878000020980835,learn,41121.999979019165,Tue Apr 22 2025 10:06:36 GMT-0500 (Central Daylight Time),433507.5,A,window,I,w,110,2,3682.1000000089407,429825.39999999106,8031,WL,B,7.0
4,19.41100001335144,learn,40588.99998664856,Tue Apr 22 2025 10:06:36 GMT-0500 (Central Daylight Time),434040.89999999106,A,windowenter,I,enter,514,2,4215.5,429825.39999999106,8031,WL,B,7.0
4,19.778000116348267,learn,40221.99988365173,Tue Apr 22 2025 10:06:36 GMT-0500 (Central Daylight Time),434407.39999999106,A,c,I,c,357,2,366.19999998807907,434041.200000003,8031,WL,B,8.0
4,19.91100001335144,learn,40088.99998664856,Tue Apr 22 2025 10:06:36 GMT-0500 (Central Daylight Time),434541.0,A,ci,I,i,119,2,499.79999999701977,434041.200000003,8031,WL,B,8.0
4,20.044000148773193,learn,39955.99985122681,Tue Apr 22 2025 10:06:36 GMT-0500 (Central Daylight Time),434674.0,A,cit,I,t,121,2,632.7999999970198,434041.200000003,8031,WL,B,8.0
4,20.14400005340576,learn,39855.99994659424,Tue Apr 22 2025 10:06:36 GMT-0500 (Central Daylight Time),434773.799999997,A,city,I,y,91,2,732.5999999940395,434041.200000003,8031,WL,B,8.0
4,20.72699999809265,learn,39273.00000190735,Tue Apr 22 2025 10:06:36 GMT-0500 (Central Daylight Time),435357.299999997,A,cityenter,I,enter,575,2,1316.0999999940395,434041.200000003,8031,WL,B,8.0
4,21.011000156402588,learn,38988.99984359741,Tue Apr 22 2025 10:06:36 GMT-0500 (Central Daylight Time),435640.39999999106,A,p,I,p,272,2,282.79999999701977,435357.59999999404,8031,WL,B,9.0
4,21.14400005340576,learn,38855.99994659424,Tue Apr 22 2025 10:06:36 GMT-0500 (Central Daylight Time),435773.700000003,A,pu,I,u,125,2,416.1000000089407,435357.59999999404,8031,WL,B,9.0
4,21.277000188827515,learn,38722.999811172485,Tue Apr 22 2025 10:06:36 GMT-0500 (Central Daylight Time),435906.700000003,A,pup,I,p,128,2,549.1000000089407,435357.59999999404,8031,WL,B,9.0
4,21.47699999809265,learn,38523.00000190735,Tue Apr 22 2025 10:06:36 GMT-0500 (Central Daylight Time),436106.59999999404,A,pupi,I,i,180,2,749.0,435357.59999999404,8031,WL,B,9.0
4,21.627000093460083,learn,38372.99990653992,Tue Apr 22 2025 10:06:36 GMT-0500 (Central Daylight Time),436256.89999999106,A,pupil,I,l,131,2,899.2999999970198,435357.59999999404,8031,WL,B,9.0
4,21.844000101089478,learn,38155.99989891052,Tue Apr 22 2025 10:06:36 GMT-0500 (Central Daylight Time),436473.39999999106,A,pupilenter,I,enter,197,2,1115.7999999970198,435357.59999999404,8031,WL,B,9.0
4,22.8270001411438,learn,37172.9998588562,Tue Apr 22 2025 10:06:36 GMT-0500 (Central Daylight Time),437456.39999999106,A,c,I,c,964,2,982.5999999940395,436473.799999997,8031,WL,B,10.0
4,22.943000078201294,learn,37056.999921798706,Tue Apr 22 2025 10:06:36 GMT-0500 (Central Daylight Time),437573.200000003,A,ca,I,a,110,2,1099.4000000059605,436473.799999997,8031,WL,B,10.0
4,23.110000133514404,learn,36889.999866485596,Tue Apr 22 2025 10:06:36 GMT-0500 (Central Daylight Time),437739.5,A,cab,I,b,161,2,1265.7000000029802,436473.799999997,8031,WL,B,10.0
4,23.177000045776367,learn,36822.99995422363,Tue Apr 22 2025 10:06:36 GMT-0500 (Central Daylight Time),437806.39999999106,A,cabi,I,i,58,2,1332.5999999940395,436473.799999997,8031,WL,B,10.0
4,23.243000030517578,learn,36756.99996948242,Tue Apr 22 2025 10:06:36 GMT-0500 (Central Daylight Time),437873.200000003,A,cabin,I,n,47,2,1399.4000000059605,436473.799999997,8031,WL,B,10.0
4,23.743000030517578,learn,36256.99996948242,Tue Apr 22 2025 10:06:36 GMT-0500 (Central Daylight Time),438372.89999999106,A,cabinenter,I,enter,485,2,1899.0999999940395,436473.799999997,8031,WL,B,10.0
4,24.042999982833862,learn,35957.00001716614,Tue Apr 22 2025 10:06:36 GMT-0500 (Central Daylight Time),438672.5,A,l,I,l,280,2,299.29999999701977,438373.200000003,8031,WL,B,11.0
4,24.176000118255615,learn,35823.999881744385,Tue Apr 22 2025 10:06:36 GMT-0500 (Central Daylight Time),438806.0,A,la,I,a,117,2,432.79999999701977,438373.200000003,8031,WL,B,11.0
4,24.259999990463257,learn,35740.00000953674,Tue Apr 22 2025 10:06:36 GMT-0500 (Central Daylight Time),438889.5,A,lak,I,k,72,2,516.2999999970198,438373.200000003,8031,WL,B,11.0
4,24.37600016593933,learn,35623.99983406067,Tue Apr 22 2025 10:06:36 GMT-0500 (Central Daylight Time),439005.89999999106,A,lake,I,e,100,2,632.6999999880791,438373.200000003,8031,WL,B,11.0
4,24.493000030517578,learn,35506.99996948242,Tue Apr 22 2025 10:06:36 GMT-0500 (Central Daylight Time),439122.5,A,lakeenter,I,enter,103,2,749.2999999970198,438373.200000003,8031,WL,B,11.0
4,26.909000158309937,learn,33090.99984169006,Tue Apr 22 2025 10:06:36 GMT-0500 (Central Daylight Time),441538.59999999404,A,f,I,f,2411,2,2415.7999999970198,439122.799999997,8031,WL,B,12.0
4,27.092000007629395,learn,32907.999992370605,Tue Apr 22 2025 10:06:36 GMT-0500 (Central Daylight Time),441721.799999997,A,fi,I,i,163,2,2599.0,439122.799999997,8031,WL,B,12.0
4,27.20900011062622,learn,32790.99988937378,Tue Apr 22 2025 10:06:36 GMT-0500 (Central Daylight Time),441838.299999997,A,fir,I,r,100,2,2715.5,439122.799999997,8031,WL,B,12.0
4,27.342000007629395,learn,32657.999992370605,Tue Apr 22 2025 10:06:36 GMT-0500 (Central Daylight Time),441971.59999999404,A,fire,I,e,119,2,2848.7999999970198,439122.799999997,8031,WL,B,12.0
4,29.241000175476074,learn,30758.999824523926,Tue Apr 22 2025 10:06:36 GMT-0500 (Central Daylight Time),443871.09999999404,A,fir,I,backspace,1882,2,4748.29999999702,439122.799999997,8031,WL,B,12.0
4,29.891000032424927,learn,30108.999967575073,Tue Apr 22 2025 10:06:36 GMT-0500 (Central Daylight Time),444520.89999999106,A,fi,I,backspace,630,2,5398.0999999940395,439122.799999997,8031,WL,B,12.0
4,30.308000087738037,learn,29691.999912261963,Tue Apr 22 2025 10:06:36 GMT-0500 (Central Daylight Time),444937.5,A,f,I,backspace,397,2,5814.70000000298,439122.799999997,8031,WL,B,12.0
4,30.491000175476074,learn,29508.999824523926,Tue Apr 22 2025 10:06:36 GMT-0500 (Central Daylight Time),445120.700000003,A,,I,backspace,172,2,5997.9000000059605,439122.799999997,8031,WL,B,12.0
4,30.808000087738037,learn,29191.999912261963,Tue Apr 22 2025 10:06:36 GMT-0500 (Central Daylight Time),445437.59999999404,A,p,I,p,301,2,6314.79999999702,439122.799999997,8031,WL,B,12.0
4,30.957000017166138,learn,29042.999982833862,Tue Apr 22 2025 10:06:36 GMT-0500 (Central Daylight Time),445587.200000003,A,pi,I,i,136,2,6464.4000000059605,439122.799999997,8031,WL,B,12.0
4,31.141000032424927,learn,28858.999967575073,Tue Apr 22 2025 10:06:36 GMT-0500 (Central Daylight Time),445770.39999999106,A,pip,I,p,170,2,6647.5999999940395,439122.799999997,8031,WL,B,12.0
4,31.374000072479248,learn,28625.999927520752,Tue Apr 22 2025 10:06:36 GMT-0500 (Central Daylight Time),446003.700000003,A,pipe,I,e,228,2,6880.9000000059605,439122.799999997,8031,WL,B,12.0
4,31.69099998474121,learn,28309.00001525879,Tue Apr 22 2025 10:06:36 GMT-0500 (Central Daylight Time),446320.299999997,A,pipeenter,I,enter,298,2,7197.5,439122.799999997,8031,WL,B,12.0
4,32.301000118255615,learn,27698.999881744385,Tue Apr 22 2025 10:06:36 GMT-0500 (Central Daylight Time),446931.0,A,s,I,s,606,2,610.2999999970198,446320.700000003,8031,WL,B,13.0
4,32.360000133514404,learn,27639.999866485596,Tue Apr 22 2025 10:06:36 GMT-0500 (Central Daylight Time),446989.39999999106,A,sk,I,k,35,2,668.6999999880791,446320.700000003,8031,WL,B,13.0
4,32.557000160217285,learn,27442.999839782715,Tue Apr 22 2025 10:06:36 GMT-0500 (Central Daylight Time),447186.700000003,A,ski,I,i,184,2,866.0,446320.700000003,8031,WL,B,13.0
4,32.60700011253357,learn,27392.99988746643,Tue Apr 22 2025 10:06:36 GMT-0500 (Central Daylight Time),447236.700000003,A,skin,I,n,35,2,916.0,446320.700000003,8031,WL,B,13.0
4,33.00699996948242,learn,26993.000030517578,Tue Apr 22 2025 10:06:36 GMT-0500 (Central Daylight Time),447636.59999999404,A,skinenter,I,enter,393,2,1315.8999999910593,446320.700000003,8031,WL,B,13.0
4,33.25699996948242,learn,26743.000030517578,Tue Apr 22 2025 10:06:36 GMT-0500 (Central Daylight Time),447886.299999997,A,f,I,f,233,2,249.40000000596046,447636.89999999106,8031,WL,B,14.0
4,33.34000015258789,learn,26659.99984741211,Tue Apr 22 2025 10:06:36 GMT-0500 (Central Daylight Time),447969.89999999106,A,fi,I,i,71,2,333.0,447636.89999999106,8031,WL,B,14.0
4,33.42300009727478,learn,26576.99990272522,Tue Apr 22 2025 10:06:36 GMT-0500 (Central Daylight Time),448053.09999999404,A,fir,I,r,75,2,416.20000000298023,447636.89999999106,8031,WL,B,14.0
4,33.52300000190735,learn,26476.99999809265,Tue Apr 22 2025 10:06:36 GMT-0500 (Central Daylight Time),448153.0,A,fire,I,e,88,2,516.1000000089407,447636.89999999106,8031,WL,B,14.0
4,33.69000005722046,learn,26309.99994277954,Tue Apr 22 2025 10:06:36 GMT-0500 (Central Daylight Time),448319.59999999404,A,fireenter,I,enter,156,2,682.7000000029802,447636.89999999106,8031,WL,B,14.0
4,34.055999994277954,learn,25944.000005722046,Tue Apr 22 2025 10:06:36 GMT-0500 (Central Daylight Time),448686.200000003,A,c,I,c,350,2,366.20000000298023,448320.0,8031,WL,B,15.0
4,34.27300000190735,learn,25726.99999809265,Tue Apr 22 2025 10:06:36 GMT-0500 (Central Daylight Time),448902.700000003,A,cl,I,l,199,2,582.7000000029802,448320.0,8031,WL,B,15.0
4,34.44000005722046,learn,25559.99994277954,Tue Apr 22 2025 10:06:36 GMT-0500 (Central Daylight Time),449069.59999999404,A,clo,I,o,151,2,749.5999999940395,448320.0,8031,WL,B,15.0
4,34.54100012779236,learn,25458.99987220764,Tue Apr 22 2025 10:06:36 GMT-0500 (Central Daylight Time),449170.5,A,cloc,I,c,80,2,850.5,448320.0,8031,WL,B,15.0
4,34.58899998664856,learn,25411.00001335144,Tue Apr 22 2025 10:06:36 GMT-0500 (Central Daylight Time),449219.0,A,clock,I,k,43,2,899.0,448320.0,8031,WL,B,15.0
4,34.789000034332275,learn,25210.999965667725,Tue Apr 22 2025 10:06:36 GMT-0500 (Central Daylight Time),449419.0,A,clockenter,I,enter,195,2,1099.0,448320.0,8031,WL,B,15.0
5,0.75,learn,60000.0,Tue Apr 22 2025 10:06:36 GMT-0500 (Central Daylight Time),516248.39999999106,A,s,I,s,731,2,749.6999999880791,515498.700000003,8031,WL,B,1.0
5,0.81600022315979,learn,60000.0,Tue Apr 22 2025 10:06:36 GMT-0500 (Central Daylight Time),516315.09999999404,A,st,I,t,61,2,816.3999999910593,515498.700000003,8031,WL,B,1.0
5,1.0160000324249268,learn,60000.0,Tue Apr 22 2025 10:06:36 GMT-0500 (Central Daylight Time),516515.09999999404,A,str,I,r,180,2,1016.3999999910593,515498.700000003,8031,WL,B,1.0
5,1.0830001831054688,learn,60000.0,Tue Apr 22 2025 10:06:36 GMT-0500 (Central Daylight Time),516581.89999999106,A,stre,I,e,51,2,1083.199999988079,515498.700000003,8031,WL,B,1.0
5,1.2660000324249268,learn,60000.0,Tue Apr 22 2025 10:06:36 GMT-0500 (Central Daylight Time),516765.0,A,stree,I,e,167,2,1266.2999999970198,515498.700000003,8031,WL,B,1.0
5,1.2990000247955322,learn,60000.0,Tue Apr 22 2025 10:06:36 GMT-0500 (Central Daylight Time),516798.09999999404,A,street,I,t,25,2,1299.3999999910593,515498.700000003,8031,WL,B,1.0
5,2.0860002040863037,learn,60000.0,Tue Apr 22 2025 10:06:36 GMT-0500 (Central Daylight Time),517585.200000003,A,streetenter,I,enter,776,2,2086.5,515498.700000003,8031,WL,B,1.0
5,2.5160000324249268,learn,60000.0,Tue Apr 22 2025 10:06:36 GMT-0500 (Central Daylight Time),518014.5,A,g,I,g,420,2,429.0,517585.5,8031,WL,B,2.0
5,2.6660001277923584,learn,60000.0,Tue Apr 22 2025 10:06:36 GMT-0500 (Central Daylight Time),518164.5,A,gr,I,r,135,2,579.0,517585.5,8031,WL,B,2.0
5,2.749000072479248,learn,60000.0,Tue Apr 22 2025 10:06:36 GMT-0500 (Central Daylight Time),518247.799999997,A,gra,I,a,73,2,662.2999999970198,517585.5,8031,WL,B,2.0
5,2.8490002155303955,learn,60000.0,Tue Apr 22 2025 10:06:36 GMT-0500 (Central Daylight Time),518347.89999999106,A,gras,I,s,86,2,762.3999999910593,517585.5,8031,WL,B,2.0
5,3.0160000324249268,learn,60000.0,Tue Apr 22 2025 10:06:36 GMT-0500 (Central Daylight Time),518514.700000003,A,grass,I,s,145,2,929.2000000029802,517585.5,8031,WL,B,2.0
5,3.116000175476074,learn,60000.0,Tue Apr 22 2025 10:06:36 GMT-0500 (Central Daylight Time),518614.5,A,grassenter,I,enter,91,2,1029.0,517585.5,8031,WL,B,2.0
5,3.449000120162964,learn,60000.0,Tue Apr 22 2025 10:06:36 GMT-0500 (Central Daylight Time),518947.39999999106,A,d,I,d,327,2,332.59999999403954,518614.799999997,8031,WL,B,3.0
5,3.5490000247955322,learn,60000.0,Tue Apr 22 2025 10:06:36 GMT-0500 (Central Daylight Time),519047.39999999106,A,do,I,o,90,2,432.59999999403954,518614.799999997,8031,WL,B,3.0
5,3.7150001525878906,learn,60000.0,Tue Apr 22 2025 10:06:36 GMT-0500 (Central Daylight Time),519214.200000003,A,doo,I,o,158,2,599.4000000059605,518614.799999997,8031,WL,B,3.0
5,3.815000057220459,learn,60000.0,Tue Apr 22 2025 10:06:36 GMT-0500 (Central Daylight Time),519314.200000003,A,door,I,r,79,2,699.4000000059605,518614.799999997,8031,WL,B,3.0
5,3.9650001525878906,learn,60000.0,Tue Apr 22 2025 10:06:36 GMT-0500 (Central Daylight Time),519464.200000003,A,doorenter,I,enter,139,2,849.4000000059605,518614.799999997,8031,WL,B,3.0
5,5.148000001907349,learn,60000.0,Tue Apr 22 2025 10:06:36 GMT-0500 (Central Daylight Time),520647.09999999404,A,w,I,w,1165,2,1182.5999999940395,519464.5,8031,WL,B,4.0
5,5.265000104904175,learn,60000.0,Tue Apr 22 2025 10:06:36 GMT-0500 (Central Daylight Time),520763.59999999404,A,wi,I,i,102,2,1299.0999999940395,519464.5,8031,WL,B,4.0
5,5.38100004196167,learn,60000.0,Tue Apr 22 2025 10:06:36 GMT-0500 (Central Daylight Time),520880.299999997,A,wif,I,f,98,2,1415.7999999970198,519464.5,8031,WL,B,4.0
5,5.465000152587891,learn,60000.0,Tue Apr 22 2025 10:06:36 GMT-0500 (Central Daylight Time),520963.5,A,wife,I,e,69,2,1499.0,519464.5,8031,WL,B,4.0
5,6.281000137329102,learn,60000.0,Tue Apr 22 2025 10:06:36 GMT-0500 (Central Daylight Time),521780.0,A,wifeenter,I,enter,810,2,2315.5,519464.5,8031,WL,B,4.0
5,6.498000144958496,learn,60000.0,Tue Apr 22 2025 10:06:36 GMT-0500 (Central Daylight Time),521996.5,A,a,I,a,210,2,216.20000000298023,521780.299999997,8031,WL,B,5.0
5,6.5980000495910645,learn,60000.0,Tue Apr 22 2025 10:06:36 GMT-0500 (Central Daylight Time),522096.59999999404,A,ar,I,r,81,2,316.29999999701977,521780.299999997,8031,WL,B,5.0
5,6.681000232696533,learn,60000.0,Tue Apr 22 2025 10:06:36 GMT-0500 (Central Daylight Time),522179.89999999106,A,arm,I,m,77,2,399.59999999403954,521780.299999997,8031,WL,B,5.0
5,6.898000001907349,learn,60000.0,Tue Apr 22 2025 10:06:36 GMT-0500 (Central Daylight Time),522396.59999999404,A,armenter,I,enter,201,2,616.2999999970198,521780.299999997,8031,WL,B,5.0
5,7.231000185012817,learn,60000.0,Tue Apr 22 2025 10:06:36 GMT-0500 (Central Daylight Time),522729.799999997,A,s,I,s,321,2,333.0,522396.799999997,8031,WL,B,6.0
5,7.315000057220459,learn,60000.0,Tue Apr 22 2025 10:06:36 GMT-0500 (Central Daylight Time),522814.200000003,A,st,I,t,76,2,417.40000000596046,522396.799999997,8031,WL,B,6.0
5,7.464000225067139,learn,60000.0,Tue Apr 22 2025 10:06:36 GMT-0500 (Central Daylight Time),522962.89999999106,A,sta,I,a,144,2,566.0999999940395,522396.799999997,8031,WL,B,6.0
5,7.531000137329102,learn,60000.0,Tue Apr 22 2025 10:06:36 GMT-0500 (Central Daylight Time),523029.700000003,A,star,I,r,59,2,632.9000000059605,522396.799999997,8031,WL,B,6.0
5,7.764000177383423,learn,60000.0,Tue Apr 22 2025 10:06:36 GMT-0500 (Central Daylight Time),523263.0,A,starenter,I,enter,224,2,866.2000000029802,522396.799999997,8031,WL,B,6.0
5,8.064000129699707,learn,60000.0,Tue Apr 22 2025 10:06:36 GMT-0500 (Central Daylight Time),523562.700000003,A,w,I,w,286,2,299.0,523263.700000003,8031,WL,B,7.0
5,8.147000074386597,learn,60000.0,Tue Apr 22 2025 10:06:36 GMT-0500 (Central Daylight Time),523646.299999997,A,wi,I,i,67,2,382.59999999403954,523263.700000003,8031,WL,B,7.0
5,8.181000232696533,learn,60000.0,Tue Apr 22 2025 10:06:36 GMT-0500 (Central Daylight Time),523679.39999999106,A,win,I,n,23,2,415.69999998807907,523263.700000003,8031,WL,B,7.0
5,8.330000162124634,learn,60000.0,Tue Apr 22 2025 10:06:36 GMT-0500 (Central Daylight Time),523829.200000003,A,wind,I,d,134,2,565.5,523263.700000003,8031,WL,B,7.0
5,8.464000225067139,learn,60000.0,Tue Apr 22 2025 10:06:36 GMT-0500 (Central Daylight Time),523962.799999997,A,windo,I,o,112,2,699.0999999940395,523263.700000003,8031,WL,B,7.0
5,8.564000129699707,learn,60000.0,Tue Apr 22 2025 10:06:36 GMT-0500 (Central Daylight Time),524062.5,A,window,I,w,83,2,798.7999999970198,523263.700000003,8031,WL,B,7.0
5,9.213000059127808,learn,60000.0,Tue Apr 22 2025 10:06:36 GMT-0500 (Central Daylight Time),524712.299999997,A,windowenter,I,enter,631,2,1448.5999999940395,523263.700000003,8031,WL,B,7.0
5,9.497000217437744,learn,60000.0,Tue Apr 22 2025 10:06:36 GMT-0500 (Central Daylight Time),524995.5,A,c,I,c,270,2,283.0,524712.5,8031,WL,B,8.0
5,9.580000162124634,learn,60000.0,Tue Apr 22 2025 10:06:36 GMT-0500 (Central Daylight Time),525079.0,A,ci,I,i,74,2,366.5,524712.5,8031,WL,B,8.0
5,9.714000225067139,learn,60000.0,Tue Apr 22 2025 10:06:36 GMT-0500 (Central Daylight Time),525212.299999997,A,cit,I,t,127,2,499.79999999701977,524712.5,8031,WL,B,8.0
5,9.813000202178955,learn,60000.0,Tue Apr 22 2025 10:06:36 GMT-0500 (Central Daylight Time),525312.099999994,A,city,I,y,89,2,599.5999999940395,524712.5,8031,WL,B,8.0
5,10.114000082015991,learn,60000.0,Tue Apr 22 2025 10:06:36 GMT-0500 (Central Daylight Time),525612.3999999911,A,cityenter,I,enter,285,2,899.8999999910593,524712.5,8031,WL,B,8.0
5,10.44700002670288,learn,60000.0,Tue Apr 22 2025 10:06:36 GMT-0500 (Central Daylight Time),525945.3999999911,A,p,I,p,321,2,332.69999998807907,525612.700000003,8031,WL,B,9.0
5,10.597000122070312,learn,60000.0,Tue Apr 22 2025 10:06:36 GMT-0500 (Central Daylight Time),526095.3999999911,A,pu,I,u,132,2,482.69999998807907,525612.700000003,8031,WL,B,9.0
5,10.78000020980835,learn,60000.0,Tue Apr 22 2025 10:06:36 GMT-0500 (Central Daylight Time),526278.700000003,A,pup,I,p,166,2,666.0,525612.700000003,8031,WL,B,9.0
5,10.963000059127808,learn,60000.0,Tue Apr 22 2025 10:06:36 GMT-0500 (Central Daylight Time),526461.799999997,A,pupi,I,i,167,2,849.0999999940395,525612.700000003,8031,WL,B,9.0
5,11.130000114440918,learn,60000.0,Tue Apr 22 2025 10:06:36 GMT-0500 (Central Daylight Time),526628.599999994,A,pupil,I,l,151,2,1015.8999999910593,525612.700000003,8031,WL,B,9.0
5,12.796000003814697,learn,60000.0,Tue Apr 22 2025 10:06:36 GMT-0500 (Central Daylight Time),528294.5,A,pupilenter,I,enter,1657,2,2681.7999999970198,525612.700000003,8031,WL,B,9.0
5,12.996000051498413,learn,60000.0,Tue Apr 22 2025 10:06:36 GMT-0500 (Central Daylight Time),528494.700000003,A,c,I,c,191,2,199.90000000596046,528294.799999997,8031,WL,B,10.0
5,13.129000186920166,learn,60000.0,Tue Apr 22 2025 10:06:36 GMT-0500 (Central Daylight Time),528627.799999997,A,ca,I,a,119,2,333.0,528294.799999997,8031,WL,B,10.0
5,13.26200008392334,learn,60000.0,Tue Apr 22 2025 10:06:36 GMT-0500 (Central Daylight Time),528761.200000003,A,cab,I,b,114,2,466.40000000596046,528294.799999997,8031,WL,B,10.0
5,13.362000226974487,learn,60000.0,Tue Apr 22 2025 10:06:36 GMT-0500 (Central Daylight Time),528861.099999994,A,cabi,I,i,84,2,566.2999999970198,528294.799999997,8031,WL,B,10.0
5,13.395000219345093,learn,60000.0,Tue Apr 22 2025 10:06:36 GMT-0500 (Central Daylight Time),528894.299999997,A,cabin,I,n,24,2,599.5,528294.799999997,8031,WL,B,10.0
5,13.712000131607056,learn,60000.0,Tue Apr 22 2025 10:06:36 GMT-0500 (Central Daylight Time),529210.799999997,A,cabinenter,I,enter,303,2,916.0,528294.799999997,8031,WL,B,10.0
5,14.01200008392334,learn,60000.0,Tue Apr 22 2025 10:06:36 GMT-0500 (Central Daylight Time),529510.8999999911,A,l,I,l,283,2,299.79999999701977,529211.099999994,8031,WL,B,11.0
5,14.145000219345093,learn,60000.0,Tue Apr 22 2025 10:06:36 GMT-0500 (Central Daylight Time),529644.200000003,A,la,I,a,119,2,433.1000000089407,529211.099999994,8031,WL,B,11.0
5,14.245000123977661,learn,60000.0,Tue Apr 22 2025 10:06:36 GMT-0500 (Central Daylight Time),529744.299999997,A,lak,I,k,89,2,533.2000000029802,529211.099999994,8031,WL,B,11.0
5,14.362000226974487,learn,60000.0,Tue Apr 22 2025 10:06:36 GMT-0500 (Central Daylight Time),529860.8999999911,A,lake,I,e,101,2,649.7999999970198,529211.099999994,8031,WL,B,11.0
5,15.278000116348267,learn,60000.0,Tue Apr 22 2025 10:06:36 GMT-0500 (Central Daylight Time),530777.200000003,A,lakeenter,I,enter,906,2,1566.1000000089407,529211.099999994,8031,WL,B,11.0
5,15.57800006866455,learn,60000.0,Tue Apr 22 2025 10:06:36 GMT-0500 (Central Daylight Time),531077.099999994,A,p,I,p,292,2,299.5,530777.599999994,8031,WL,B,12.0
5,15.712000131607056,learn,60000.0,Tue Apr 22 2025 10:06:36 GMT-0500 (Central Daylight Time),531210.599999994,A,pi,I,i,128,2,433.0,530777.599999994,8031,WL,B,12.0
5,15.894000053405762,learn,60000.0,Tue Apr 22 2025 10:06:36 GMT-0500 (Central Daylight Time),531393.8999999911,A,pip,I,p,163,2,616.2999999970198,530777.599999994,8031,WL,B,12.0
5,16.06000018119812,learn,60000.0,Tue Apr 22 2025 10:06:36 GMT-0500 (Central Daylight Time),531560.299999997,A,pipe,I,e,155,2,782.7000000029802,530777.599999994,8031,WL,B,12.0
5,16.177000045776367,learn,60000.0,Tue Apr 22 2025 10:06:36 GMT-0500 (Central Daylight Time),531676.799999997,A,pipeenter,I,enter,101,2,899.2000000029802,530777.599999994,8031,WL,B,12.0
5,16.444000005722046,learn,60000.0,Tue Apr 22 2025 10:06:36 GMT-0500 (Central Daylight Time),531943.5,A,s,I,s,249,2,266.29999999701977,531677.200000003,8031,WL,B,13.0
5,16.510000228881836,learn,60000.0,Tue Apr 22 2025 10:06:36 GMT-0500 (Central Daylight Time),532010.099999994,A,sk,I,k,54,2,332.8999999910593,531677.200000003,8031,WL,B,13.0
5,16.66000008583069,learn,60000.0,Tue Apr 22 2025 10:06:36 GMT-0500 (Central Daylight Time),532160.200000003,A,ski,I,i,139,2,483.0,531677.200000003,8031,WL,B,13.0
5,16.72699999809265,learn,60000.0,Tue Apr 22 2025 10:06:36 GMT-0500 (Central Daylight Time),532226.799999997,A,skin,I,n,53,2,549.5999999940395,531677.200000003,8031,WL,B,13.0
5,16.943000078201294,learn,60000.0,Tue Apr 22 2025 10:06:36 GMT-0500 (Central Daylight Time),532443.099999994,A,skinenter,I,enter,210,2,765.8999999910593,531677.200000003,8031,WL,B,13.0
5,17.510000228881836,learn,60000.0,Tue Apr 22 2025 10:06:36 GMT-0500 (Central Daylight Time),533010.0,A,f,I,f,547,2,566.6000000089407,532443.3999999911,8031,WL,B,14.0
5,17.5770001411438,learn,60000.0,Tue Apr 22 2025 10:06:36 GMT-0500 (Central Daylight Time),533076.599999994,A,fi,I,i,52,2,633.2000000029802,532443.3999999911,8031,WL,B,14.0
5,17.693000078201294,learn,60000.0,Tue Apr 22 2025 10:06:36 GMT-0500 (Central Daylight Time),533193.200000003,A,fir,I,r,105,2,749.8000000119209,532443.3999999911,8031,WL,B,14.0
5,17.777000188827515,learn,60000.0,Tue Apr 22 2025 10:06:36 GMT-0500 (Central Daylight Time),533276.3999999911,A,fire,I,e,76,2,833.0,532443.3999999911,8031,WL,B,14.0
5,17.926000118255615,learn,60000.0,Tue Apr 22 2025 10:06:36 GMT-0500 (Central Daylight Time),533426.299999997,A,fireenter,I,enter,137,2,982.9000000059605,532443.3999999911,8031,WL,B,14.0
5,18.16000008583069,learn,60000.0,Tue Apr 22 2025 10:06:36 GMT-0500 (Central Daylight Time),533659.5,A,c,I,c,219,2,232.79999999701977,533426.700000003,8031,WL,B,15.0
5,18.243000030517578,learn,60000.0,Tue Apr 22 2025 10:06:36 GMT-0500 (Central Daylight Time),533742.799999997,A,cl,I,l,66,2,316.09999999403954,533426.700000003,8031,WL,B,15.0
5,18.39300012588501,learn,60000.0,Tue Apr 22 2025 10:06:36 GMT-0500 (Central Daylight Time),533892.8999999911,A,clo,I,o,144,2,466.19999998807907,533426.700000003,8031,WL,B,15.0
5,18.526000022888184,learn,60000.0,Tue Apr 22 2025 10:06:36 GMT-0500 (Central Daylight Time),534026.0,A,cloc,I,c,113,2,599.2999999970198,533426.700000003,8031,WL,B,15.0
5,18.676000118255615,learn,60000.0,Tue Apr 22 2025 10:06:36 GMT-0500 (Central Daylight Time),534176.099999994,A,clock,I,k,131,2,749.3999999910593,533426.700000003,8031,WL,B,15.0
5,18.89300012588501,learn,60000.0,Tue Apr 22 2025 10:06:36 GMT-0500 (Central Daylight Time),534392.3999999911,A,clockenter,I,enter,206,2,965.6999999880791,533426.700000003,8031,WL,B,15.0
6,2.1500000953674316,distr,57849.99990463257,Tue Apr 22 2025 10:06:36 GMT-0500 (Central Daylight Time),605820.700000003,B,b,I,b,2143,2,2149.5,603671.200000003,8031,WL,B,1.0
6,2.2829999923706055,distr,57717.000007629395,Tue Apr 22 2025 10:06:36 GMT-0500 (Central Daylight Time),605953.700000003,B,ba,I,a,121,2,2282.5,603671.200000003,8031,WL,B,1.0
6,2.3989999294281006,distr,57601.0000705719,Tue Apr 22 2025 10:06:36 GMT-0500 (Central Daylight Time),606070.3999999911,B,bab,I,b,108,2,2399.199999988079,603671.200000003,8031,WL,B,1.0
6,2.5329999923706055,distr,57467.000007629395,Tue Apr 22 2025 10:06:36 GMT-0500 (Central Daylight Time),606203.799999997,B,baby,I,y,119,2,2532.5999999940395,603671.200000003,8031,WL,B,1.0
6,2.931999921798706,distr,57068.000078201294,Tue Apr 22 2025 10:06:36 GMT-0500 (Central Daylight Time),606603.200000003,B,babyenter,I,enter,394,2,2932.0,603671.200000003,8031,WL,B,1.0
6,3.365999937057495,distr,56634.000062942505,Tue Apr 22 2025 10:06:36 GMT-0500 (Central Daylight Time),607036.599999994,B,o,I,o,418,2,433.09999999403954,606603.5,8031,WL,B,2.0
6,3.499000072479248,distr,56500.99992752075,Tue Apr 22 2025 10:06:36 GMT-0500 (Central Daylight Time),607169.8999999911,B,oc,I,c,113,2,566.3999999910593,606603.5,8031,WL,B,2.0
6,3.749000072479248,distr,56250.99992752075,Tue Apr 22 2025 10:06:36 GMT-0500 (Central Daylight Time),607419.799999997,B,oce,I,e,244,2,816.2999999970198,606603.5,8031,WL,B,2.0
6,3.881999969482422,distr,56118.00003051758,Tue Apr 22 2025 10:06:36 GMT-0500 (Central Daylight Time),607553.099999994,B,ocea,I,a,114,2,949.5999999940395,606603.5,8031,WL,B,2.0
6,3.999000072479248,distr,56000.99992752075,Tue Apr 22 2025 10:06:36 GMT-0500 (Central Daylight Time),607669.700000003,B,ocean,I,n,108,2,1066.2000000029802,606603.5,8031,WL,B,2.0
6,4.832000017166138,distr,55167.99998283386,Tue Apr 22 2025 10:06:36 GMT-0500 (Central Daylight Time),608502.8999999911,B,oceanenter,I,enter,824,2,1899.3999999910593,606603.5,8031,WL,B,2.0
6,5.131999969482422,distr,54868.00003051758,Tue Apr 22 2025 10:06:36 GMT-0500 (Central Daylight Time),608802.599999994,B,p,I,p,280,2,299.29999999701977,608503.299999997,8031,WL,B,3.0
6,5.365000009536743,distr,54634.99999046326,Tue Apr 22 2025 10:06:36 GMT-0500 (Central Daylight Time),609036.0,B,pa,I,a,219,2,532.7000000029802,608503.299999997,8031,WL,B,3.0
6,5.482000112533569,distr,54517.99988746643,Tue Apr 22 2025 10:06:36 GMT-0500 (Central Daylight Time),609153.099999994,B,pal,I,l,97,2,649.7999999970198,608503.299999997,8031,WL,B,3.0
6,5.565999984741211,distr,54434.00001525879,Tue Apr 22 2025 10:06:36 GMT-0500 (Central Daylight Time),609237.099999994,B,pala,I,a,78,2,733.7999999970198,608503.299999997,8031,WL,B,3.0
6,5.697999954223633,distr,54302.00004577637,Tue Apr 22 2025 10:06:36 GMT-0500 (Central Daylight Time),609369.200000003,B,palac,I,c,112,2,865.9000000059605,608503.299999997,8031,WL,B,3.0
6,5.831000089645386,distr,54168.999910354614,Tue Apr 22 2025 10:06:36 GMT-0500 (Central Daylight Time),609502.5,B,palace,I,e,116,2,999.2000000029802,608503.299999997,8031,WL,B,3.0
6,6.564000129699707,distr,53435.99987030029,Tue Apr 22 2025 10:06:36 GMT-0500 (Central Daylight Time),610235.3999999911,B,palaceenter,I,enter,727,2,1732.0999999940395,608503.299999997,8031,WL,B,3.0
6,13.11300015449524,distr,46886.99984550476,Tue Apr 22 2025 10:06:36 GMT-0500 (Central Daylight Time),616783.700000003,B,b,I,b,6530,2,6548.100000008941,610235.599999994,8031,WL,B,4.0
6,14.578999996185303,distr,45421.0000038147,Tue Apr 22 2025 10:06:36 GMT-0500 (Central Daylight Time),618249.700000003,B,ba,I,a,1453,2,8014.100000008941,610235.599999994,8031,WL,B,4.0
6,14.712000131607056,distr,45287.999868392944,Tue Apr 22 2025 10:06:36 GMT-0500 (Central Daylight Time),618383.200000003,B,bar,I,r,116,2,8147.600000008941,610235.599999994,8031,WL,B,4.0
6,15.894999980926514,distr,44105.000019073486,Tue Apr 22 2025 10:06:36 GMT-0500 (Central Daylight Time),619565.8999999911,B,barenter,I,enter,1175,2,9330.29999999702,610235.599999994,8031,WL,B,4.0
6,16.894999980926514,distr,43105.000019073486,Tue Apr 22 2025 10:06:36 GMT-0500 (Central Daylight Time),620565.799999997,B,s,I,s,983,2,999.5,619566.299999997,8031,WL,B,5.0
6,17.011000156402588,distr,42988.99984359741,Tue Apr 22 2025 10:06:36 GMT-0500 (Central Daylight Time),620682.299999997,B,st,I,t,104,2,1116.0,619566.299999997,8031,WL,B,5.0
6,17.09500002861023,distr,42904.99997138977,Tue Apr 22 2025 10:06:36 GMT-0500 (Central Daylight Time),620765.799999997,B,ste,I,e,75,2,1199.5,619566.299999997,8031,WL,B,5.0
6,17.227999925613403,distr,42772.0000743866,Tue Apr 22 2025 10:06:36 GMT-0500 (Central Daylight Time),620899.0,B,stea,I,a,120,2,1332.7000000029802,619566.299999997,8031,WL,B,5.0
6,17.344000101089478,distr,42655.99989891052,Tue Apr 22 2025 10:06:36 GMT-0500 (Central Daylight Time),621015.5,B,steam,I,m,98,2,1449.2000000029802,619566.299999997,8031,WL,B,5.0
6,18.061000108718872,distr,41938.99989128113,Tue Apr 22 2025 10:06:36 GMT-0500 (Central Daylight Time),621732.0,B,steamenter,I,enter,710,2,2165.7000000029802,619566.299999997,8031,WL,B,5.0
6,18.444000005722046,distr,41555.999994277954,Tue Apr 22 2025 10:06:36 GMT-0500 (Central Daylight Time),622115.200000003,B,c,I,c,377,2,382.90000000596046,621732.299999997,8031,WL,B,6.0
6,18.561000108718872,distr,41438.99989128113,Tue Apr 22 2025 10:06:36 GMT-0500 (Central Daylight Time),622231.799999997,B,co,I,o,98,2,499.5,621732.299999997,8031,WL,B,6.0
6,18.677000045776367,distr,41322.99995422363,Tue Apr 22 2025 10:06:36 GMT-0500 (Central Daylight Time),622348.3999999911,B,coi,I,i,102,2,616.0999999940395,621732.299999997,8031,WL,B,6.0
6,18.74399995803833,distr,41256.00004196167,Tue Apr 22 2025 10:06:36 GMT-0500 (Central Daylight Time),622414.8999999911,B,coin,I,n,57,2,682.5999999940395,621732.299999997,8031,WL,B,6.0
6,19.377000093460083,distr,40622.99990653992,Tue Apr 22 2025 10:06:36 GMT-0500 (Central Daylight Time),623048.3999999911,B,coinenter,I,enter,624,2,1316.0999999940395,621732.299999997,8031,WL,B,6.0
6,20.026999950408936,distr,39973.000049591064,Tue Apr 22 2025 10:06:36 GMT-0500 (Central Daylight Time),623698.0,B,f,I,f,629,2,649.2999999970198,623048.700000003,8031,WL,B,7.0
6,20.24399995803833,distr,39756.00004196167,Tue Apr 22 2025 10:06:36 GMT-0500 (Central Daylight Time),623914.599999994,B,fr,I,r,194,2,865.8999999910593,623048.700000003,8031,WL,B,7.0
6,20.3270001411438,distr,39672.9998588562,Tue Apr 22 2025 10:06:36 GMT-0500 (Central Daylight Time),623998.0,B,fri,I,i,76,2,949.2999999970198,623048.700000003,8031,WL,B,7.0
6,20.47699999809265,distr,39523.00000190735,Tue Apr 22 2025 10:06:36 GMT-0500 (Central Daylight Time),624148.0,B,frie,I,e,143,2,1099.2999999970198,623048.700000003,8031,WL,B,7.0
6,20.627000093460083,distr,39372.99990653992,Tue Apr 22 2025 10:06:36 GMT-0500 (Central Daylight Time),624298.099999994,B,frien,I,n,129,2,1249.3999999910593,623048.700000003,8031,WL,B,7.0
6,20.72699999809265,distr,39273.00000190735,Tue Apr 22 2025 10:06:36 GMT-0500 (Central Daylight Time),624397.799999997,B,friend,I,d,83,2,1349.0999999940395,623048.700000003,8031,WL,B,7.0
6,22.66000008583069,distr,37339.99991416931,Tue Apr 22 2025 10:06:36 GMT-0500 (Central Daylight Time),626330.599999994,B,friendenter,I,enter,1928,2,3281.8999999910593,623048.700000003,8031,WL,B,7.0
6,23.009999990463257,distr,36990.00000953674,Tue Apr 22 2025 10:06:36 GMT-0500 (Central Daylight Time),626680.599999994,B,v,I,v,339,2,349.70000000298023,626330.8999999911,8031,WL,B,8.0
6,23.092999935150146,distr,36907.00006484985,Tue Apr 22 2025 10:06:36 GMT-0500 (Central Daylight Time),626763.700000003,B,vi,I,i,77,2,432.80000001192093,626330.8999999911,8031,WL,B,8.0
6,23.176000118255615,distr,36823.999881744385,Tue Apr 22 2025 10:06:36 GMT-0500 (Central Daylight Time),626847.200000003,B,vil,I,l,74,2,516.3000000119209,626330.8999999911,8031,WL,B,8.0
6,23.30900001525879,distr,36690.99998474121,Tue Apr 22 2025 10:06:36 GMT-0500 (Central Daylight Time),626980.299999997,B,vill,I,l,126,2,649.4000000059605,626330.8999999911,8031,WL,B,8.0
6,23.460000038146973,distr,36539.99996185303,Tue Apr 22 2025 10:06:36 GMT-0500 (Central Daylight Time),627130.700000003,B,villa,I,a,145,2,799.8000000119209,626330.8999999911,8031,WL,B,8.0
6,23.526000022888184,distr,36473.99997711182,Tue Apr 22 2025 10:06:36 GMT-0500 (Central Daylight Time),627197.099999994,B,villag,I,g,51,2,866.2000000029802,626330.8999999911,8031,WL,B,8.0
6,23.676000118255615,distr,36323.999881744385,Tue Apr 22 2025 10:06:36 GMT-0500 (Central Daylight Time),627347.0,B,village,I,e,137,2,1016.1000000089407,626330.8999999911,8031,WL,B,8.0
6,23.759000062942505,distr,36240.999937057495,Tue Apr 22 2025 10:06:36 GMT-0500 (Central Daylight Time),627430.3999999911,B,villageenter,I,enter,75,2,1099.5,626330.8999999911,8031,WL,B,8.0
6,24.875,distr,35125.0,Tue Apr 22 2025 10:06:36 GMT-0500 (Central Daylight Time),628546.5,B,c,I,c,1096,2,1115.7999999970198,627430.700000003,8031,WL,B,9.0
6,24.942000150680542,distr,35057.99984931946,Tue Apr 22 2025 10:06:36 GMT-0500 (Central Daylight Time),628613.299999997,B,ce,I,e,51,2,1182.5999999940395,627430.700000003,8031,WL,B,9.0
6,25.075000047683716,distr,34924.999952316284,Tue Apr 22 2025 10:06:36 GMT-0500 (Central Daylight Time),628746.3999999911,B,cel,I,l,113,2,1315.699999988079,627430.700000003,8031,WL,B,9.0
6,25.242000102996826,distr,34757.999897003174,Tue Apr 22 2025 10:06:36 GMT-0500 (Central Daylight Time),628913.200000003,B,cell,I,l,147,2,1482.5,627430.700000003,8031,WL,B,9.0
6,25.39199995994568,distr,34608.00004005432,Tue Apr 22 2025 10:06:36 GMT-0500 (Central Daylight Time),629063.0,B,cellenter,I,enter,140,2,1632.2999999970198,627430.700000003,8031,WL,B,9.0
6,27.69099998474121,distr,32309.00001525879,Tue Apr 22 2025 10:06:36 GMT-0500 (Central Daylight Time),631362.5,B,b,I,b,2287,2,2299.1000000089407,629063.3999999911,8031,WL,B,10.0
6,27.841000080108643,distr,32158.999919891357,Tue Apr 22 2025 10:06:36 GMT-0500 (Central Daylight Time),631512.299999997,B,bu,I,u,131,2,2448.9000000059605,629063.3999999911,8031,WL,B,10.0
6,27.85800004005432,distr,32141.99995994568,Tue Apr 22 2025 10:06:36 GMT-0500 (Central Daylight Time),631529.099999994,B,bui,I,i,5,2,2465.7000000029802,629063.3999999911,8031,WL,B,10.0
6,27.95799994468689,distr,32042.00005531311,Tue Apr 22 2025 10:06:36 GMT-0500 (Central Daylight Time),631628.8999999911,B,buil,I,l,85,2,2565.5,629063.3999999911,8031,WL,B,10.0
6,28.157999992370605,distr,31842.000007629395,Tue Apr 22 2025 10:06:36 GMT-0500 (Central Daylight Time),631828.799999997,B,build,I,d,193,2,2765.4000000059605,629063.3999999911,8031,WL,B,10.0
6,28.308000087738037,distr,31691.999912261963,Tue Apr 22 2025 10:06:36 GMT-0500 (Central Daylight Time),631978.799999997,B,buildi,I,i,130,2,2915.4000000059605,629063.3999999911,8031,WL,B,10.0
6,28.341000080108643,distr,31658.999919891357,Tue Apr 22 2025 10:06:36 GMT-0500 (Central Daylight Time),632012.0,B,buildin,I,n,27,2,2948.6000000089407,629063.3999999911,8031,WL,B,10.0
6,28.424000024795532,distr,31575.999975204468,Tue Apr 22 2025 10:06:36 GMT-0500 (Central Daylight Time),632095.5,B,building,I,g,74,2,3032.1000000089407,629063.3999999911,8031,WL,B,10.0
6,28.758000135421753,distr,31241.999864578247,Tue Apr 22 2025 10:06:36 GMT-0500 (Central Daylight Time),632428.799999997,B,buildingenter,I,enter,319,2,3365.4000000059605,629063.3999999911,8031,WL,B,10.0
6,29.44099998474121,distr,30559.00001525879,Tue Apr 22 2025 10:06:36 GMT-0500 (Central Daylight Time),633111.799999997,B,s,I,s,665,2,682.7999999970198,632429.0,8031,WL,B,11.0
6,29.5239999294281,distr,30476.0000705719,Tue Apr 22 2025 10:06:36 GMT-0500 (Central Daylight Time),633195.200000003,B,st,I,t,70,2,766.2000000029802,632429.0,8031,WL,B,11.0
6,29.574000120162964,distr,30425.999879837036,Tue Apr 22 2025 10:06:36 GMT-0500 (Central Daylight Time),633245.200000003,B,sto,I,o,34,2,816.2000000029802,632429.0,8031,WL,B,11.0
6,29.70799994468689,distr,30292.00005531311,Tue Apr 22 2025 10:06:36 GMT-0500 (Central Daylight Time),633378.799999997,B,stor,I,r,120,2,949.7999999970198,632429.0,8031,WL,B,11.0
6,29.756999969482422,distr,30243.000030517578,Tue Apr 22 2025 10:06:36 GMT-0500 (Central Daylight Time),633428.200000003,B,storm,I,m,35,2,999.2000000029802,632429.0,8031,WL,B,11.0
6,30.69000005722046,distr,29309.99994277954,Tue Apr 22 2025 10:06:36 GMT-0500 (Central Daylight Time),634361.5,B,stormenter,I,enter,921,2,1932.5,632429.0,8031,WL,B,11.0
6,35.555999994277954,distr,24444.000005722046,Tue Apr 22 2025 10:06:36 GMT-0500 (Central Daylight Time),639226.799999997,B,d,I,d,4853,2,4864.9000000059605,634361.8999999911,8031,WL,B,12.0
6,35.704999923706055,distr,24295.000076293945,Tue Apr 22 2025 10:06:36 GMT-0500 (Central Daylight Time),639376.3999999911,B,dr,I,r,130,2,5014.5,634361.8999999911,8031,WL,B,12.0
6,35.789000034332275,distr,24210.999965667725,Tue Apr 22 2025 10:06:36 GMT-0500 (Central Daylight Time),639459.8999999911,B,dre,I,e,69,2,5098.0,634361.8999999911,8031,WL,B,12.0
6,35.888999938964844,distr,24111.000061035156,Tue Apr 22 2025 10:06:36 GMT-0500 (Central Daylight Time),639559.599999994,B,dres,I,s,82,2,5197.70000000298,634361.8999999911,8031,WL,B,12.0
6,36.0550000667572,distr,23944.999933242798,Tue Apr 22 2025 10:06:36 GMT-0500 (Central Daylight Time),639726.5,B,dress,I,s,150,2,5364.600000008941,634361.8999999911,8031,WL,B,12.0
6,36.138999938964844,distr,23861.000061035156,Tue Apr 22 2025 10:06:36 GMT-0500 (Central Daylight Time),639809.700000003,B,dressenter,I,enter,71,2,5447.800000011921,634361.8999999911,8031,WL,B,12.0
6,40.1710000038147,distr,19828.999996185303,Tue Apr 22 2025 10:06:36 GMT-0500 (Central Daylight Time),643841.799999997,B,r,I,r,4011,2,4031.7999999970198,639810.0,8031,WL,B,13.0
6,40.23800015449524,distr,19761.99984550476,Tue Apr 22 2025 10:06:36 GMT-0500 (Central Daylight Time),643908.599999994,B,ro,I,o,52,2,4098.5999999940395,639810.0,8031,WL,B,13.0
6,40.38700008392334,distr,19612.99991607666,Tue Apr 22 2025 10:06:36 GMT-0500 (Central Daylight Time),644058.5,B,roc,I,c,137,2,4248.5,639810.0,8031,WL,B,13.0
6,40.437000036239624,distr,19562.999963760376,Tue Apr 22 2025 10:06:36 GMT-0500 (Central Daylight Time),644108.3999999911,B,rock,I,k,43,2,4298.399999991059,639810.0,8031,WL,B,13.0
6,40.72000002861023,distr,19279.99997138977,Tue Apr 22 2025 10:06:36 GMT-0500 (Central Daylight Time),644391.5,B,rockenter,I,enter,265,2,4581.5,639810.0,8031,WL,B,13.0
6,48.217000007629395,distr,11782.999992370605,Tue Apr 22 2025 10:06:36 GMT-0500 (Central Daylight Time),651889.200000003,B,b,I,b,7479,2,7497.4000000059605,644391.799999997,8031,WL,B,14.0
6,48.33400011062622,distr,11665.99988937378,Tue Apr 22 2025 10:06:36 GMT-0500 (Central Daylight Time),652005.799999997,B,ba,I,a,108,2,7614.0,644391.799999997,8031,WL,B,14.0
6,48.450000047683716,distr,11549.999952316284,Tue Apr 22 2025 10:06:36 GMT-0500 (Central Daylight Time),652122.5,B,bab,I,b,96,2,7730.70000000298,644391.799999997,8031,WL,B,14.0
6,48.48300004005432,distr,11516.999959945679,Tue Apr 22 2025 10:06:36 GMT-0500 (Central Daylight Time),652155.700000003,B,baby,I,y,28,2,7763.9000000059605,644391.799999997,8031,WL,B,14.0
6,48.717000007629395,distr,11282.999992370605,Tue Apr 22 2025 10:06:36 GMT-0500 (Central Daylight Time),652389.200000003,B,babyenter,I,enter,219,2,7997.4000000059605,644391.799999997,8031,WL,B,14.0
6,49.615999937057495,distr,10384.000062942505,Tue Apr 22 2025 10:06:36 GMT-0500 (Central Daylight Time),653288.799999997,B,b,I,b,880,2,899.2999999970198,652389.5,8031,WL,B,15.0
6,49.73300004005432,distr,10266.999959945679,Tue Apr 22 2025 10:06:36 GMT-0500 (Central Daylight Time),653405.599999994,B,ba,I,a,101,2,1016.0999999940395,652389.5,8031,WL,B,15.0
6,49.81700015068054,distr,10182.999849319458,Tue Apr 22 2025 10:06:36 GMT-0500 (Central Daylight Time),653488.799999997,B,bab,I,b,65,2,1099.2999999970198,652389.5,8031,WL,B,15.0
6,49.865999937057495,distr,10134.000062942505,Tue Apr 22 2025 10:06:36 GMT-0500 (Central Daylight Time),653538.599999994,B,baby,I,y,30,2,1149.0999999940395,652389.5,8031,WL,B,15.0
6,50.049999952316284,distr,9950.000047683716,Tue Apr 22 2025 10:06:36 GMT-0500 (Central Daylight Time),653722.0,B,babyenter,I,enter,163,2,1332.5,652389.5,8031,WL,B,15.0
7,0.31600022315979004,immed,59683.99977684021,Tue Apr 22 2025 10:06:36 GMT-0500 (Central Daylight Time),665068.299999997,A,s,I,s,302,2,316.20000000298023,664752.099999994,8031,WL,B,1.0
7,0.4500000476837158,immed,59549.999952316284,Tue Apr 22 2025 10:06:36 GMT-0500 (Central Daylight Time),665202.5,A,st,I,t,129,2,450.40000000596046,664752.099999994,8031,WL,B,1.0
7,0.6660001277923584,immed,59333.99987220764,Tue Apr 22 2025 10:06:36 GMT-0500 (Central Daylight Time),665418.599999994,A,str,I,r,203,2,666.5,664752.099999994,8031,WL,B,1.0
7,0.7660000324249268,immed,59233.99996757507,Tue Apr 22 2025 10:06:36 GMT-0500 (Central Daylight Time),665518.3999999911,A,stre,I,e,91,2,766.2999999970198,664752.099999994,8031,WL,B,1.0
7,0.9660000801086426,immed,59033.99991989136,Tue Apr 22 2025 10:06:36 GMT-0500 (Central Daylight Time),665718.099999994,A,stree,I,e,183,2,966.0,664752.099999994,8031,WL,B,1.0
7,1.0490000247955322,immed,58950.99997520447,Tue Apr 22 2025 10:06:36 GMT-0500 (Central Daylight Time),665801.5,A,street,I,t,63,2,1049.4000000059605,664752.099999994,8031,WL,B,1.0
7,1.2820000648498535,immed,58717.99993515015,Tue Apr 22 2025 10:06:36 GMT-0500 (Central Daylight Time),666034.700000003,A,streetenter,I,enter,220,2,1282.6000000089407,664752.099999994,8031,WL,B,1.0
7,1.4830000400543213,immed,58516.99995994568,Tue Apr 22 2025 10:06:36 GMT-0500 (Central Daylight Time),666234.8999999911,A,g,I,g,186,2,199.8999999910593,666035.0,8031,WL,B,2.0
7,1.6490001678466797,immed,58350.99983215332,Tue Apr 22 2025 10:06:36 GMT-0500 (Central Daylight Time),666401.5,A,gr,I,r,155,2,366.5,666035.0,8031,WL,B,2.0
7,1.7330000400543213,immed,58266.99995994568,Tue Apr 22 2025 10:06:36 GMT-0500 (Central Daylight Time),666484.8999999911,A,gra,I,a,76,2,449.8999999910593,666035.0,8031,WL,B,2.0
7,1.8490002155303955,immed,58150.999784469604,Tue Apr 22 2025 10:06:36 GMT-0500 (Central Daylight Time),666601.3999999911,A,gras,I,s,97,2,566.3999999910593,666035.0,8031,WL,B,2.0
7,2.0320000648498535,immed,57967.99993515015,Tue Apr 22 2025 10:06:36 GMT-0500 (Central Daylight Time),666784.599999994,A,grass,I,s,164,2,749.5999999940395,666035.0,8031,WL,B,2.0
7,2.1660001277923584,immed,57833.99987220764,Tue Apr 22 2025 10:06:36 GMT-0500 (Central Daylight Time),666918.0,A,grassenter,I,enter,125,2,883.0,666035.0,8031,WL,B,2.0
7,3.0820000171661377,immed,56917.99998283386,Tue Apr 22 2025 10:06:36 GMT-0500 (Central Daylight Time),667834.599999994,A,d,I,d,896,2,916.2999999970198,666918.299999997,8031,WL,B,3.0
7,3.2150001525878906,immed,56784.99984741211,Tue Apr 22 2025 10:06:36 GMT-0500 (Central Daylight Time),667967.599999994,A,do,I,o,124,2,1049.2999999970198,666918.299999997,8031,WL,B,3.0
7,3.367000102996826,immed,56632.999897003174,Tue Apr 22 2025 10:06:36 GMT-0500 (Central Daylight Time),668118.799999997,A,doo,I,o,142,2,1200.5,666918.299999997,8031,WL,B,3.0
7,3.449000120162964,immed,56550.999879837036,Tue Apr 22 2025 10:06:36 GMT-0500 (Central Daylight Time),668200.8999999911,A,door,I,r,72,2,1282.5999999940395,666918.299999997,8031,WL,B,3.0
7,3.6490001678466797,immed,56350.99983215332,Tue Apr 22 2025 10:06:36 GMT-0500 (Central Daylight Time),668401.099999994,A,doorenter,I,enter,181,2,1482.7999999970198,666918.299999997,8031,WL,B,3.0
7,4.065000057220459,immed,55934.99994277954,Tue Apr 22 2025 10:06:36 GMT-0500 (Central Daylight Time),668817.5,A,a,I,a,396,2,416.1000000089407,668401.3999999911,8031,WL,B,4.0
7,4.132000207901001,immed,55867.999792099,Tue Apr 22 2025 10:06:36 GMT-0500 (Central Daylight Time),668884.0,A,ar,I,r,52,2,482.6000000089407,668401.3999999911,8031,WL,B,4.0
7,4.232000112533569,immed,55767.99988746643,Tue Apr 22 2025 10:06:36 GMT-0500 (Central Daylight Time),668983.8999999911,A,arm,I,m,82,2,582.5,668401.3999999911,8031,WL,B,4.0
7,4.4150002002716064,immed,55584.99979972839,Tue Apr 22 2025 10:06:36 GMT-0500 (Central Daylight Time),669167.299999997,A,armenter,I,enter,165,2,765.9000000059605,668401.3999999911,8031,WL,B,4.0
7,4.565000057220459,immed,55434.99994277954,Tue Apr 22 2025 10:06:36 GMT-0500 (Central Daylight Time),669317.200000003,A,w,I,w,134,2,149.6000000089407,669167.599999994,8031,WL,B,5.0
7,4.682000160217285,immed,55317.999839782715,Tue Apr 22 2025 10:06:36 GMT-0500 (Central Daylight Time),669434.099999994,A,wi,I,i,96,2,266.5,669167.599999994,8031,WL,B,5.0
7,4.8480000495910645,immed,55151.999950408936,Tue Apr 22 2025 10:06:36 GMT-0500 (Central Daylight Time),669600.3999999911,A,wif,I,f,147,2,432.79999999701977,669167.599999994,8031,WL,B,5.0
7,4.9150002002716064,immed,55084.99979972839,Tue Apr 22 2025 10:06:36 GMT-0500 (Central Daylight Time),669666.8999999911,A,wife,I,e,61,2,499.29999999701977,669167.599999994,8031,WL,B,5.0
7,5.081000089645386,immed,54918.999910354614,Tue Apr 22 2025 10:06:36 GMT-0500 (Central Daylight Time),669833.599999994,A,wifeenter,I,enter,147,2,666.0,669167.599999994,8031,WL,B,5.0
7,7.248000144958496,immed,52751.999855041504,Tue Apr 22 2025 10:06:36 GMT-0500 (Central Daylight Time),672000.0,A,s,I,s,2148,2,2166.2000000029802,669833.799999997,8031,WL,B,6.0
7,7.331000089645386,immed,52668.999910354614,Tue Apr 22 2025 10:06:36 GMT-0500 (Central Daylight Time),672082.799999997,A,st,I,t,71,2,2249.0,669833.799999997,8031,WL,B,6.0
7,7.464000225067139,immed,52535.99977493286,Tue Apr 22 2025 10:06:36 GMT-0500 (Central Daylight Time),672216.299999997,A,sta,I,a,123,2,2382.5,669833.799999997,8031,WL,B,6.0
7,7.581000089645386,immed,52418.999910354614,Tue Apr 22 2025 10:06:36 GMT-0500 (Central Daylight Time),672333.0,A,star,I,r,101,2,2499.2000000029802,669833.799999997,8031,WL,B,6.0
7,8.814000129699707,immed,51185.99987030029,Tue Apr 22 2025 10:06:36 GMT-0500 (Central Daylight Time),673565.700000003,A,starenter,I,enter,1225,2,3731.9000000059605,669833.799999997,8031,WL,B,6.0
7,9.130000114440918,immed,50869.99988555908,Tue Apr 22 2025 10:06:36 GMT-0500 (Central Daylight Time),673882.299999997,A,w,I,w,295,2,316.20000000298023,673566.099999994,8031,WL,B,7.0
7,9.19700002670288,immed,50802.99997329712,Tue Apr 22 2025 10:06:36 GMT-0500 (Central Daylight Time),673949.0,A,wi,I,i,59,2,382.90000000596046,673566.099999994,8031,WL,B,7.0
7,9.264000177383423,immed,50735.99982261658,Tue Apr 22 2025 10:06:36 GMT-0500 (Central Daylight Time),674016.0,A,win,I,n,48,2,449.90000000596046,673566.099999994,8031,WL,B,7.0
7,9.347000122070312,immed,50652.99987792969,Tue Apr 22 2025 10:06:36 GMT-0500 (Central Daylight Time),674098.8999999911,A,wind,I,d,69,2,532.7999999970198,673566.099999994,8031,WL,B,7.0
