block_c,block_dur,condition,countdown,datetime,endtime,list,multichar_response,project,response,response_time,session_number,start_end,starttime,subject_id,task,task_vers,trial
,,,,Thu Feb 06 2025 18:47:35 GMT-0600 (Central Standard Time),,,,O,space,1286,1,,,7044,WL,C,
prac,,0,,Thu Feb 06 2025 18:47:35 GMT-0600 (Central Standard Time),,NA,b,O,b,1789,1,,,7044,WL,C,1.0
prac,,0,,Thu Feb 06 2025 18:47:35 GMT-0600 (Central Standard Time),,NA,bo,O,o,1259,1,,,7044,WL,C,1.0
prac,,0,,Thu Feb 06 2025 18:47:35 GMT-0600 (Central Standard Time),,NA,boo,O,o,102,1,,,7044,WL,C,1.0
prac,,0,,Thu Feb 06 2025 18:47:35 GMT-0600 (Central Standard Time),,NA,boos,O,s,57,1,,,7044,WL,C,1.0
prac,,0,,Thu Feb 06 2025 18:47:35 GMT-0600 (Central Standard Time),,NA,boost,O,t,561,1,,,7044,WL,C,1.0
prac,,0,,Thu Feb 06 2025 18:47:35 GMT-0600 (Central Standard Time),,NA,boostenter,O,enter,821,1,,,7044,WL,C,1.0
1,1.3999998569488525,learn,58600.00014305115,Thu Feb 06 2025 18:47:35 GMT-0600 (Central Standard Time),137449.80000001192,A,t,O,t,1346,1,1398.699999988079,136051.10000002384,7044,WL,C,1.0
1,1.7829999923706055,learn,58217.000007629395,Thu Feb 06 2025 18:47:35 GMT-0600 (Central Standard Time),137833.20000004768,A,to,O,o,338,1,1782.1000000238419,136051.10000002384,7044,WL,C,1.0
1,2.0989999771118164,learn,57901.00002288818,Thu Feb 06 2025 18:47:35 GMT-0600 (Central Standard Time),138149.30000001192,A,tow,O,w,282,1,2098.199999988079,136051.10000002384,7044,WL,C,1.0
1,2.615999937057495,learn,57384.000062942505,Thu Feb 06 2025 18:47:35 GMT-0600 (Central Standard Time),138665.70000004768,A,towe,O,e,464,1,2614.600000023842,136051.10000002384,7044,WL,C,1.0
1,3.131999969482422,learn,56868.00003051758,Thu Feb 06 2025 18:47:35 GMT-0600 (Central Standard Time),139182.10000002384,A,tower,O,r,477,1,3131.0,136051.10000002384,7044,WL,C,1.0
1,4.2809998989105225,learn,55719.00010108948,Thu Feb 06 2025 18:47:35 GMT-0600 (Central Standard Time),140331.30000001192,A,towerenter,O,enter,1116,1,4280.199999988079,136051.10000002384,7044,WL,C,1.0
1,4.847999811172485,learn,55152.000188827515,Thu Feb 06 2025 18:47:35 GMT-0600 (Central Standard Time),140898.40000003576,A,w,O,w,551,1,566.6999999880791,140331.70000004768,7044,WL,C,2.0
1,5.914999961853027,learn,54085.00003814697,Thu Feb 06 2025 18:47:35 GMT-0600 (Central Standard Time),141964.70000004768,A,wh,O,h,1019,1,1633.0,140331.70000004768,7044,WL,C,2.0
1,6.130999803543091,learn,53869.00019645691,Thu Feb 06 2025 18:47:35 GMT-0600 (Central Standard Time),142181.30000001192,A,whe,O,e,178,1,1849.5999999642372,140331.70000004768,7044,WL,C,2.0
1,6.7809998989105225,learn,53219.00010108948,Thu Feb 06 2025 18:47:35 GMT-0600 (Central Standard Time),142831.10000002384,A,whet,O,t,613,1,2499.399999976158,140331.70000004768,7044,WL,C,2.0
1,7.330999851226807,learn,52669.00014877319,Thu Feb 06 2025 18:47:35 GMT-0600 (Central Standard Time),143380.80000001192,A,whe,O,backspace,496,1,3049.099999964237,140331.70000004768,7044,WL,C,2.0
1,7.480999946594238,learn,52519.00005340576,Thu Feb 06 2025 18:47:35 GMT-0600 (Central Standard Time),143530.80000001192,A,whea,O,a,99,1,3199.099999964237,140331.70000004768,7044,WL,C,2.0
1,7.679999828338623,learn,52320.00017166138,Thu Feb 06 2025 18:47:35 GMT-0600 (Central Standard Time),143729.90000003576,A,whear,O,r,149,1,3398.199999988079,140331.70000004768,7044,WL,C,2.0
1,8.446999788284302,learn,51553.0002117157,Thu Feb 06 2025 18:47:35 GMT-0600 (Central Standard Time),144497.10000002384,A,whea,O,backspace,743,1,4165.399999976158,140331.70000004768,7044,WL,C,2.0
1,8.71399998664856,learn,51286.00001335144,Thu Feb 06 2025 18:47:35 GMT-0600 (Central Standard Time),144763.70000004768,A,wheat,O,t,228,1,4432.0,140331.70000004768,7044,WL,C,2.0
1,9.878999948501587,learn,50121.00005149841,Thu Feb 06 2025 18:47:35 GMT-0600 (Central Standard Time),145929.10000002384,A,wheatenter,O,enter,1126,1,5597.399999976158,140331.70000004768,7044,WL,C,2.0
1,10.861999988555908,learn,49138.00001144409,Thu Feb 06 2025 18:47:35 GMT-0600 (Central Standard Time),146912.10000002384,A,q,O,q,969,1,982.6000000238419,145929.5,7044,WL,C,3.0
1,11.263000011444092,learn,48736.99998855591,Thu Feb 06 2025 18:47:35 GMT-0600 (Central Standard Time),147313.10000002384,A,qu,O,u,377,1,1383.6000000238419,145929.5,7044,WL,C,3.0
1,11.562999963760376,learn,48437.000036239624,Thu Feb 06 2025 18:47:35 GMT-0600 (Central Standard Time),147613.10000002384,A,que,O,e,266,1,1683.6000000238419,145929.5,7044,WL,C,3.0
1,11.763000011444092,learn,48236.99998855591,Thu Feb 06 2025 18:47:35 GMT-0600 (Central Standard Time),147813.10000002384,A,quee,O,e,166,1,1883.6000000238419,145929.5,7044,WL,C,3.0
1,11.978999853134155,learn,48021.000146865845,Thu Feb 06 2025 18:47:35 GMT-0600 (Central Standard Time),148029.30000001192,A,queen,O,n,176,1,2099.800000011921,145929.5,7044,WL,C,3.0
1,12.763000011444092,learn,47236.99998855591,Thu Feb 06 2025 18:47:35 GMT-0600 (Central Standard Time),148812.60000002384,A,queenenter,O,enter,739,1,2883.100000023842,145929.5,7044,WL,C,3.0
1,13.628999948501587,learn,46371.00005149841,Thu Feb 06 2025 18:47:35 GMT-0600 (Central Standard Time),149678.90000003576,A,b,O,b,846,1,865.9000000357628,148813.0,7044,WL,C,4.0
1,13.878999948501587,learn,46121.00005149841,Thu Feb 06 2025 18:47:35 GMT-0600 (Central Standard Time),149928.70000004768,A,bo,O,o,208,1,1115.7000000476837,148813.0,7044,WL,C,4.0
1,14.293999910354614,learn,45706.000089645386,Thu Feb 06 2025 18:47:35 GMT-0600 (Central Standard Time),150344.30000001192,A,boy,O,y,370,1,1531.300000011921,148813.0,7044,WL,C,4.0
1,14.777999877929688,learn,45222.00012207031,Thu Feb 06 2025 18:47:35 GMT-0600 (Central Standard Time),150827.60000002384,A,boyenter,O,enter,465,1,2014.6000000238419,148813.0,7044,WL,C,4.0
1,16.027999877929688,learn,43972.00012207031,Thu Feb 06 2025 18:47:35 GMT-0600 (Central Standard Time),152078.0,A,t,O,t,1231,1,1250.0999999642372,150827.90000003576,7044,WL,C,5.0
1,16.276999950408936,learn,43723.000049591064,Thu Feb 06 2025 18:47:35 GMT-0600 (Central Standard Time),152326.90000003576,A,to,O,o,209,1,1499.0,150827.90000003576,7044,WL,C,5.0
1,16.91100001335144,learn,43088.99998664856,Thu Feb 06 2025 18:47:35 GMT-0600 (Central Standard Time),152961.30000001192,A,tou,O,u,611,1,2133.399999976158,150827.90000003576,7044,WL,C,5.0
1,17.42799997329712,learn,42572.00002670288,Thu Feb 06 2025 18:47:35 GMT-0600 (Central Standard Time),153477.5,A,to,O,backspace,476,1,2649.599999964237,150827.90000003576,7044,WL,C,5.0
1,17.627999782562256,learn,42372.000217437744,Thu Feb 06 2025 18:47:35 GMT-0600 (Central Standard Time),153677.5,A,t,O,backspace,153,1,2849.599999964237,150827.90000003576,7044,WL,C,5.0
1,18.01099991798401,learn,41989.00008201599,Thu Feb 06 2025 18:47:35 GMT-0600 (Central Standard Time),154060.70000004768,A,to,O,o,336,1,3232.800000011921,150827.90000003576,7044,WL,C,5.0
1,18.360999822616577,learn,41639.00017738342,Thu Feb 06 2025 18:47:35 GMT-0600 (Central Standard Time),154410.70000004768,A,tou,O,u,300,1,3582.800000011921,150827.90000003576,7044,WL,C,5.0
1,19.32699990272522,learn,40673.00009727478,Thu Feb 06 2025 18:47:35 GMT-0600 (Central Standard Time),155376.90000003576,A,to,O,backspace,917,1,4549.0,150827.90000003576,7044,WL,C,5.0
1,19.49399995803833,learn,40506.00004196167,Thu Feb 06 2025 18:47:35 GMT-0600 (Central Standard Time),155543.60000002384,A,t,O,backspace,117,1,4715.699999988079,150827.90000003576,7044,WL,C,5.0
1,19.759999990463257,learn,40240.00000953674,Thu Feb 06 2025 18:47:35 GMT-0600 (Central Standard Time),155810.0,A,to,O,o,232,1,4982.099999964237,150827.90000003576,7044,WL,C,5.0
1,19.959999799728394,learn,40040.00020027161,Thu Feb 06 2025 18:47:35 GMT-0600 (Central Standard Time),156009.90000003576,A,tow,O,w,159,1,5182.0,150827.90000003576,7044,WL,C,5.0
1,20.259999990463257,learn,39740.00000953674,Thu Feb 06 2025 18:47:35 GMT-0600 (Central Standard Time),156309.80000001192,A,towe,O,e,264,1,5481.899999976158,150827.90000003576,7044,WL,C,5.0
1,20.592999935150146,learn,39407.00006484985,Thu Feb 06 2025 18:47:35 GMT-0600 (Central Standard Time),156643.30000001192,A,tower,O,r,283,1,5815.399999976158,150827.90000003576,7044,WL,C,5.0
1,21.14199995994568,learn,38858.00004005432,Thu Feb 06 2025 18:47:35 GMT-0600 (Central Standard Time),157192.10000002384,A,towerenter,O,enter,504,1,6364.199999988079,150827.90000003576,7044,WL,C,5.0
1,22.292999982833862,learn,37707.00001716614,Thu Feb 06 2025 18:47:35 GMT-0600 (Central Standard Time),158342.60000002384,A,d,O,d,1139,1,1150.199999988079,157192.40000003576,7044,WL,C,6.0
1,22.492999792099,learn,37507.000207901,Thu Feb 06 2025 18:47:35 GMT-0600 (Central Standard Time),158542.5,A,do,O,o,152,1,1350.0999999642372,157192.40000003576,7044,WL,C,6.0
1,22.658999919891357,learn,37341.00008010864,Thu Feb 06 2025 18:47:35 GMT-0600 (Central Standard Time),158709.0,A,doc,O,c,132,1,1516.5999999642372,157192.40000003576,7044,WL,C,6.0
1,23.008999824523926,learn,36991.000175476074,Thu Feb 06 2025 18:47:35 GMT-0600 (Central Standard Time),159059.10000002384,A,doct,O,t,300,1,1866.699999988079,157192.40000003576,7044,WL,C,6.0
1,23.192999839782715,learn,36807.000160217285,Thu Feb 06 2025 18:47:35 GMT-0600 (Central Standard Time),159242.40000003576,A,docto,O,o,133,1,2050.0,157192.40000003576,7044,WL,C,6.0
1,23.39199995994568,learn,36608.00004005432,Thu Feb 06 2025 18:47:35 GMT-0600 (Central Standard Time),159442.30000001192,A,doctor,O,r,150,1,2249.899999976158,157192.40000003576,7044,WL,C,6.0
1,23.807999849319458,learn,36192.00015068054,Thu Feb 06 2025 18:47:35 GMT-0600 (Central Standard Time),159857.90000003576,A,doctorenter,O,enter,375,1,2665.5,157192.40000003576,7044,WL,C,6.0
1,35.555999994277954,learn,24444.000005722046,Thu Feb 06 2025 18:47:35 GMT-0600 (Central Standard Time),171605.70000004768,A,c,O,c,11738,1,11747.400000035763,159858.30000001192,7044,WL,C,7.0
1,35.83799982070923,learn,24162.00017929077,Thu Feb 06 2025 18:47:35 GMT-0600 (Central Standard Time),171887.90000003576,A,ca,O,a,242,1,12029.600000023842,159858.30000001192,7044,WL,C,7.0
1,35.98799991607666,learn,24012.00008392334,Thu Feb 06 2025 18:47:35 GMT-0600 (Central Standard Time),172038.20000004768,A,cal,O,l,112,1,12179.900000035763,159858.30000001192,7044,WL,C,7.0
1,36.15499997138977,learn,23845.00002861023,Thu Feb 06 2025 18:47:35 GMT-0600 (Central Standard Time),172204.60000002384,A,call,O,l,121,1,12346.300000011921,159858.30000001192,7044,WL,C,7.0
1,36.436999797821045,learn,23563.000202178955,Thu Feb 06 2025 18:47:35 GMT-0600 (Central Standard Time),172487.10000002384,A,callenter,O,enter,235,1,12628.800000011921,159858.30000001192,7044,WL,C,7.0
1,42.40399980545044,learn,17596.00019454956,Thu Feb 06 2025 18:47:35 GMT-0600 (Central Standard Time),178452.10000002384,A,c,O,c,5948,1,5964.699999988079,172487.40000003576,7044,WL,C,8.0
1,43.2039999961853,learn,16796.000003814697,Thu Feb 06 2025 18:47:35 GMT-0600 (Central Standard Time),179252.40000003576,A,ca,O,a,763,1,6765.0,172487.40000003576,7044,WL,C,8.0
1,43.603999853134155,learn,16396.000146865845,Thu Feb 06 2025 18:47:35 GMT-0600 (Central Standard Time),179652.40000003576,A,cat,O,t,355,1,7165.0,172487.40000003576,7044,WL,C,8.0
1,43.787999868392944,learn,16212.000131607056,Thu Feb 06 2025 18:47:35 GMT-0600 (Central Standard Time),179835.60000002384,A,catt,O,t,135,1,7348.199999988079,172487.40000003576,7044,WL,C,8.0
1,44.120999813079834,learn,15879.000186920166,Thu Feb 06 2025 18:47:35 GMT-0600 (Central Standard Time),180168.80000001192,A,cattl,O,l,296,1,7681.399999976158,172487.40000003576,7044,WL,C,8.0
1,44.25399994850159,learn,15746.000051498413,Thu Feb 06 2025 18:47:35 GMT-0600 (Central Standard Time),180301.70000004768,A,cattle,O,e,96,1,7814.300000011921,172487.40000003576,7044,WL,C,8.0
1,44.669999837875366,learn,15330.000162124634,Thu Feb 06 2025 18:47:35 GMT-0600 (Central Standard Time),180717.60000002384,A,cattleenter,O,enter,391,1,8230.199999988079,172487.40000003576,7044,WL,C,8.0
1,58.43299984931946,learn,1567.000150680542,Thu Feb 06 2025 18:47:35 GMT-0600 (Central Standard Time),194480.70000004768,A,h,O,h,13749,1,13762.700000047684,180718.0,7044,WL,C,9.0
1,58.632999897003174,learn,1367.0001029968262,Thu Feb 06 2025 18:47:35 GMT-0600 (Central Standard Time),194680.5,A,hi,O,i,166,1,13962.5,180718.0,7044,WL,C,9.0
1,59.49899983406067,learn,501.00016593933105,Thu Feb 06 2025 18:47:35 GMT-0600 (Central Standard Time),195547.20000004768,A,h,O,backspace,838,1,14829.200000047684,180718.0,7044,WL,C,9.0
1,59.98199987411499,learn,18.000125885009766,Thu Feb 06 2025 18:47:35 GMT-0600 (Central Standard Time),196030.5,A,ho,O,o,438,1,15312.5,180718.0,7044,WL,C,9.0
1,60.0479998588562,learn,-47.99985885620117,Thu Feb 06 2025 18:47:35 GMT-0600 (Central Standard Time),196096.10000002384,A,hoNone,O,None,32,1,15378.100000023842,180718.0,7044,WL,C,9.0
2,1.0999999046325684,learn,58900.00009536743,Thu Feb 06 2025 18:47:35 GMT-0600 (Central Standard Time),263508.3000000119,A,t,O,t,1058,1,1099.199999988079,262409.10000002384,7044,WL,C,1.0
2,1.3499999046325684,learn,58650.00009536743,Thu Feb 06 2025 18:47:35 GMT-0600 (Central Standard Time),263758.10000002384,A,to,O,o,211,1,1349.0,262409.10000002384,7044,WL,C,1.0
2,1.6669998168945312,learn,58333.00018310547,Thu Feb 06 2025 18:47:35 GMT-0600 (Central Standard Time),264074.7000000477,A,tow,O,w,274,1,1665.6000000238419,262409.10000002384,7044,WL,C,1.0
2,1.9169998168945312,learn,58083.00018310547,Thu Feb 06 2025 18:47:35 GMT-0600 (Central Standard Time),264324.60000002384,A,towe,O,e,210,1,1915.5,262409.10000002384,7044,WL,C,1.0
2,2.3999998569488525,learn,57600.00014305115,Thu Feb 06 2025 18:47:35 GMT-0600 (Central Standard Time),264807.8000000119,A,tower,O,r,451,1,2398.699999988079,262409.10000002384,7044,WL,C,1.0
2,2.931999921798706,learn,57068.000078201294,Thu Feb 06 2025 18:47:35 GMT-0600 (Central Standard Time),265339.90000003576,A,towerenter,O,enter,496,1,2930.800000011921,262409.10000002384,7044,WL,C,1.0
2,3.5829999446868896,learn,56417.00005531311,Thu Feb 06 2025 18:47:35 GMT-0600 (Central Standard Time),265990.7000000477,A,w,O,w,632,1,650.5,265340.2000000477,7044,WL,C,2.0
2,4.065999984741211,learn,55934.00001525879,Thu Feb 06 2025 18:47:35 GMT-0600 (Central Standard Time),266474.10000002384,A,wh,O,h,444,1,1133.8999999761581,265340.2000000477,7044,WL,C,2.0
2,4.365999937057495,learn,55634.000062942505,Thu Feb 06 2025 18:47:35 GMT-0600 (Central Standard Time),266773.5,A,whe,O,e,267,1,1433.2999999523163,265340.2000000477,7044,WL,C,2.0
2,4.698999881744385,learn,55301.000118255615,Thu Feb 06 2025 18:47:35 GMT-0600 (Central Standard Time),267107.10000002384,A,whea,O,a,292,1,1766.8999999761581,265340.2000000477,7044,WL,C,2.0
2,4.980999946594238,learn,55019.00005340576,Thu Feb 06 2025 18:47:35 GMT-0600 (Central Standard Time),267389.5,A,wheat,O,t,248,1,2049.2999999523163,265340.2000000477,7044,WL,C,2.0
2,5.430999994277954,learn,54569.000005722046,Thu Feb 06 2025 18:47:35 GMT-0600 (Central Standard Time),267839.2000000477,A,wheatenter,O,enter,426,1,2499.0,265340.2000000477,7044,WL,C,2.0
2,7.164999961853027,learn,52835.00003814697,Thu Feb 06 2025 18:47:35 GMT-0600 (Central Standard Time),269572.90000003576,A,q,O,q,1708,1,1733.4000000357628,267839.5,7044,WL,C,3.0
2,7.597999811172485,learn,52402.000188827515,Thu Feb 06 2025 18:47:35 GMT-0600 (Central Standard Time),270005.8000000119,A,qu,O,u,403,1,2166.300000011921,267839.5,7044,WL,C,3.0
2,7.763999938964844,learn,52236.000061035156,Thu Feb 06 2025 18:47:35 GMT-0600 (Central Standard Time),270172.10000002384,A,que,O,e,115,1,2332.600000023842,267839.5,7044,WL,C,3.0
2,7.997999906539917,learn,52002.00009346008,Thu Feb 06 2025 18:47:35 GMT-0600 (Central Standard Time),270406.0,A,quee,O,e,203,1,2566.5,267839.5,7044,WL,C,3.0
2,8.313999891281128,learn,51686.00010871887,Thu Feb 06 2025 18:47:35 GMT-0600 (Central Standard Time),270722.40000003576,A,queen,O,n,279,1,2882.900000035763,267839.5,7044,WL,C,3.0
2,8.746999979019165,learn,51253.000020980835,Thu Feb 06 2025 18:47:35 GMT-0600 (Central Standard Time),271154.60000002384,A,queenenter,O,enter,389,1,3315.100000023842,267839.5,7044,WL,C,3.0
2,9.646999835968018,learn,50353.00016403198,Thu Feb 06 2025 18:47:35 GMT-0600 (Central Standard Time),272055.40000003576,A,h,O,h,888,1,900.6000000238419,271154.8000000119,7044,WL,C,4.0
2,9.96399998664856,learn,50036.00001335144,Thu Feb 06 2025 18:47:35 GMT-0600 (Central Standard Time),272372.0,A,ho,O,o,269,1,1217.199999988079,271154.8000000119,7044,WL,C,4.0
2,10.246999979019165,learn,49753.000020980835,Thu Feb 06 2025 18:47:35 GMT-0600 (Central Standard Time),272655.10000002384,A,hom,O,m,246,1,1500.300000011921,271154.8000000119,7044,WL,C,4.0
2,10.412999868392944,learn,49587.000131607056,Thu Feb 06 2025 18:47:35 GMT-0600 (Central Standard Time),272821.5,A,home,O,e,133,1,1666.699999988079,271154.8000000119,7044,WL,C,4.0
2,10.895999908447266,learn,49104.000091552734,Thu Feb 06 2025 18:47:35 GMT-0600 (Central Standard Time),273304.10000002384,A,homeenter,O,enter,443,1,2149.300000011921,271154.8000000119,7044,WL,C,4.0
2,11.929999828338623,learn,48070.00017166138,Thu Feb 06 2025 18:47:35 GMT-0600 (Central Standard Time),274338.0,A,b,O,b,1011,1,1033.699999988079,273304.3000000119,7044,WL,C,5.0
2,12.162999868392944,learn,47837.000131607056,Thu Feb 06 2025 18:47:35 GMT-0600 (Central Standard Time),274571.10000002384,A,bo,O,o,194,1,1266.800000011921,273304.3000000119,7044,WL,C,5.0
2,12.462999820709229,learn,47537.00017929077,Thu Feb 06 2025 18:47:35 GMT-0600 (Central Standard Time),274871.10000002384,A,boy,O,y,254,1,1566.800000011921,273304.3000000119,7044,WL,C,5.0
2,12.944999933242798,learn,47055.0000667572,Thu Feb 06 2025 18:47:35 GMT-0600 (Central Standard Time),275353.40000003576,A,boyenter,O,enter,442,1,2049.100000023842,273304.3000000119,7044,WL,C,5.0
2,14.145999908447266,learn,45854.000091552734,Thu Feb 06 2025 18:47:35 GMT-0600 (Central Standard Time),276554.0,A,d,O,d,1187,1,1200.3999999761581,275353.60000002384,7044,WL,C,6.0
2,15.145999908447266,learn,44854.000091552734,Thu Feb 06 2025 18:47:35 GMT-0600 (Central Standard Time),277553.60000002384,A,do,O,o,963,1,2200.0,275353.60000002384,7044,WL,C,6.0
2,15.478999853134155,learn,44521.000146865845,Thu Feb 06 2025 18:47:35 GMT-0600 (Central Standard Time),277886.7000000477,A,doc,O,c,302,1,2533.100000023842,275353.60000002384,7044,WL,C,6.0
2,15.828999996185303,learn,44171.0000038147,Thu Feb 06 2025 18:47:35 GMT-0600 (Central Standard Time),278236.7000000477,A,doct,O,t,298,1,2883.100000023842,275353.60000002384,7044,WL,C,6.0
2,16.02899980545044,learn,43971.00019454956,Thu Feb 06 2025 18:47:35 GMT-0600 (Central Standard Time),278436.7000000477,A,docto,O,o,152,1,3083.100000023842,275353.60000002384,7044,WL,C,6.0
2,16.26199984550476,learn,43738.00015449524,Thu Feb 06 2025 18:47:35 GMT-0600 (Central Standard Time),278669.8000000119,A,doctor,O,r,187,1,3316.199999988079,275353.60000002384,7044,WL,C,6.0
2,16.5939998626709,learn,43406.0001373291,Thu Feb 06 2025 18:47:35 GMT-0600 (Central Standard Time),279002.2000000477,A,doctorenter,O,enter,283,1,3648.600000023842,275353.60000002384,7044,WL,C,6.0
2,16.977999925613403,learn,43022.0000743866,Thu Feb 06 2025 18:47:35 GMT-0600 (Central Standard Time),279386.40000003576,A,c,O,c,362,1,383.9000000357628,279002.5,7044,WL,C,7.0
2,17.194999933242798,learn,42805.0000667572,Thu Feb 06 2025 18:47:35 GMT-0600 (Central Standard Time),279602.8000000119,A,ca,O,a,174,1,600.3000000119209,279002.5,7044,WL,C,7.0
2,17.32799983024597,learn,42672.00016975403,Thu Feb 06 2025 18:47:35 GMT-0600 (Central Standard Time),279736.10000002384,A,cam,O,m,87,1,733.6000000238419,279002.5,7044,WL,C,7.0
2,17.644999980926514,learn,42355.000019073486,Thu Feb 06 2025 18:47:35 GMT-0600 (Central Standard Time),280053.3000000119,A,camp,O,p,287,1,1050.800000011921,279002.5,7044,WL,C,7.0
2,18.15999984741211,learn,41840.00015258789,Thu Feb 06 2025 18:47:35 GMT-0600 (Central Standard Time),280568.3000000119,A,campenter,O,enter,467,1,1565.800000011921,279002.5,7044,WL,C,7.0
2,18.527999877929688,learn,41472.00012207031,Thu Feb 06 2025 18:47:35 GMT-0600 (Central Standard Time),280935.8000000119,A,f,O,f,347,1,367.19999998807907,280568.60000002384,7044,WL,C,8.0
2,18.74399995803833,learn,41256.00004196167,Thu Feb 06 2025 18:47:35 GMT-0600 (Central Standard Time),281152.40000003576,A,fl,O,l,182,1,583.8000000119209,280568.60000002384,7044,WL,C,8.0
2,19.01099991798401,learn,40989.00008201599,Thu Feb 06 2025 18:47:35 GMT-0600 (Central Standard Time),281419.0,A,fla,O,a,222,1,850.3999999761581,280568.60000002384,7044,WL,C,8.0
2,19.426999807357788,learn,40573.00019264221,Thu Feb 06 2025 18:47:35 GMT-0600 (Central Standard Time),281835.5,A,flag,O,g,378,1,1266.8999999761581,280568.60000002384,7044,WL,C,8.0
2,20.042999982833862,learn,39957.00001716614,Thu Feb 06 2025 18:47:35 GMT-0600 (Central Standard Time),282451.10000002384,A,flagenter,O,enter,568,1,1882.5,280568.60000002384,7044,WL,C,8.0
2,21.07699990272522,learn,38923.00009727478,Thu Feb 06 2025 18:47:35 GMT-0600 (Central Standard Time),283484.8000000119,A,b,O,b,1010,1,1033.3999999761581,282451.40000003576,7044,WL,C,9.0
2,21.709999799728394,learn,38290.00020027161,Thu Feb 06 2025 18:47:35 GMT-0600 (Central Standard Time),284118.2000000477,A,bi,O,i,591,1,1666.800000011921,282451.40000003576,7044,WL,C,9.0
2,21.89299988746643,learn,38107.00011253357,Thu Feb 06 2025 18:47:35 GMT-0600 (Central Standard Time),284301.5,A,bid,O,d,154,1,1850.0999999642372,282451.40000003576,7044,WL,C,9.0
2,22.05999994277954,learn,37940.00005722046,Thu Feb 06 2025 18:47:35 GMT-0600 (Central Standard Time),284468.0,A,bidy,O,y,133,1,2016.5999999642372,282451.40000003576,7044,WL,C,9.0
2,22.47699999809265,learn,37523.00000190735,Thu Feb 06 2025 18:47:35 GMT-0600 (Central Standard Time),284885.2000000477,A,bid,O,backspace,382,1,2433.800000011921,282451.40000003576,7044,WL,C,9.0
2,22.65999984741211,learn,37340.00015258789,Thu Feb 06 2025 18:47:35 GMT-0600 (Central Standard Time),285068.0,A,bi,O,backspace,142,1,2616.599999964237,282451.40000003576,7044,WL,C,9.0
2,22.842999935150146,learn,37157.00006484985,Thu Feb 06 2025 18:47:35 GMT-0600 (Central Standard Time),285251.10000002384,A,b,O,backspace,142,1,2799.699999988079,282451.40000003576,7044,WL,C,9.0
2,23.125999927520752,learn,36874.00007247925,Thu Feb 06 2025 18:47:35 GMT-0600 (Central Standard Time),285534.40000003576,A,bo,O,o,240,1,3083.0,282451.40000003576,7044,WL,C,9.0
2,23.55900001525879,learn,36440.99998474121,Thu Feb 06 2025 18:47:35 GMT-0600 (Central Standard Time),285967.40000003576,A,bod,O,d,400,1,3516.0,282451.40000003576,7044,WL,C,9.0
2,23.742999792099,learn,36257.000207901,Thu Feb 06 2025 18:47:35 GMT-0600 (Central Standard Time),286150.90000003576,A,body,O,y,138,1,3699.5,282451.40000003576,7044,WL,C,9.0
2,24.241999864578247,learn,35758.00013542175,Thu Feb 06 2025 18:47:35 GMT-0600 (Central Standard Time),286649.8000000119,A,bodyenter,O,enter,450,1,4198.399999976158,282451.40000003576,7044,WL,C,9.0
2,27.590999841690063,learn,32409.000158309937,Thu Feb 06 2025 18:47:35 GMT-0600 (Central Standard Time),289999.40000003576,A,s,O,s,3330,1,3349.400000035763,286650.0,7044,WL,C,10.0
2,27.774999856948853,learn,32225.000143051147,Thu Feb 06 2025 18:47:35 GMT-0600 (Central Standard Time),290182.7000000477,A,su,O,u,151,1,3532.7000000476837,286650.0,7044,WL,C,10.0
2,28.074999809265137,learn,31925.000190734863,Thu Feb 06 2025 18:47:35 GMT-0600 (Central Standard Time),290482.7000000477,A,sug,O,g,250,1,3832.7000000476837,286650.0,7044,WL,C,10.0
2,28.407999992370605,learn,31592.000007629395,Thu Feb 06 2025 18:47:35 GMT-0600 (Central Standard Time),290815.90000003576,A,suga,O,a,303,1,4165.900000035763,286650.0,7044,WL,C,10.0
2,28.79099988937378,learn,31209.00011062622,Thu Feb 06 2025 18:47:35 GMT-0600 (Central Standard Time),291199.2000000477,A,sugar,O,r,347,1,4549.200000047684,286650.0,7044,WL,C,10.0
2,29.27300000190735,learn,30726.99999809265,Thu Feb 06 2025 18:47:35 GMT-0600 (Central Standard Time),291681.40000003576,A,sugarenter,O,enter,447,1,5031.400000035763,286650.0,7044,WL,C,10.0
2,34.592000007629395,learn,25407.999992370605,Thu Feb 06 2025 18:47:35 GMT-0600 (Central Standard Time),296997.60000002384,A,w,O,w,5308,1,5315.899999976158,291681.7000000477,7044,WL,C,11.0
2,35.09099984169006,learn,24909.000158309937,Thu Feb 06 2025 18:47:35 GMT-0600 (Central Standard Time),297496.90000003576,A,wg,O,g,469,1,5815.199999988079,291681.7000000477,7044,WL,C,11.0
2,35.35699987411499,learn,24643.00012588501,Thu Feb 06 2025 18:47:35 GMT-0600 (Central Standard Time),297763.5,A,wge,O,e,220,1,6081.799999952316,291681.7000000477,7044,WL,C,11.0
2,35.823999881744385,learn,24176.000118255615,Thu Feb 06 2025 18:47:35 GMT-0600 (Central Standard Time),298230.0,A,wg,O,backspace,432,1,6548.299999952316,291681.7000000477,7044,WL,C,11.0
2,35.990999937057495,learn,24009.000062942505,Thu Feb 06 2025 18:47:35 GMT-0600 (Central Standard Time),298396.7000000477,A,w,O,backspace,117,1,6715.0,291681.7000000477,7044,WL,C,11.0
2,36.25699996948242,learn,23743.000030517578,Thu Feb 06 2025 18:47:35 GMT-0600 (Central Standard Time),298662.90000003576,A,wh,O,h,233,1,6981.199999988079,291681.7000000477,7044,WL,C,11.0
2,36.39099979400635,learn,23609.000205993652,Thu Feb 06 2025 18:47:35 GMT-0600 (Central Standard Time),298797.3000000119,A,whe,O,e,114,1,7115.599999964237,291681.7000000477,7044,WL,C,11.0
2,36.573999881744385,learn,23426.000118255615,Thu Feb 06 2025 18:47:35 GMT-0600 (Central Standard Time),298979.90000003576,A,whea,O,a,132,1,7298.199999988079,291681.7000000477,7044,WL,C,11.0
2,36.75699996948242,learn,23243.000030517578,Thu Feb 06 2025 18:47:35 GMT-0600 (Central Standard Time),299163.10000002384,A,wheat,O,t,141,1,7481.399999976158,291681.7000000477,7044,WL,C,11.0
2,37.12299990653992,learn,22877.000093460083,Thu Feb 06 2025 18:47:35 GMT-0600 (Central Standard Time),299528.8000000119,A,wheatenter,O,enter,317,1,7847.099999964237,291681.7000000477,7044,WL,C,11.0
2,44.40399980545044,learn,15596.00019454956,Thu Feb 06 2025 18:47:35 GMT-0600 (Central Standard Time),306810.2000000477,A,f,O,f,7267,1,7281.100000023842,299529.10000002384,7044,WL,C,12.0
2,44.6710000038147,learn,15328.999996185303,Thu Feb 06 2025 18:47:35 GMT-0600 (Central Standard Time),307077.2000000477,A,fl,O,l,238,1,7548.100000023842,299529.10000002384,7044,WL,C,12.0
2,45.537999868392944,learn,14462.000131607056,Thu Feb 06 2025 18:47:35 GMT-0600 (Central Standard Time),307943.7000000477,A,flf,O,f,820,1,8414.600000023842,299529.10000002384,7044,WL,C,12.0
2,45.97099995613098,learn,14029.000043869019,Thu Feb 06 2025 18:47:35 GMT-0600 (Central Standard Time),308376.90000003576,A,fl,O,backspace,395,1,8847.800000011921,299529.10000002384,7044,WL,C,12.0
2,47.186999797821045,learn,12813.000202178955,Thu Feb 06 2025 18:47:35 GMT-0600 (Central Standard Time),309593.10000002384,A,fla,O,a,1177,1,10064.0,299529.10000002384,7044,WL,C,12.0
2,47.63699984550476,learn,12363.00015449524,Thu Feb 06 2025 18:47:35 GMT-0600 (Central Standard Time),310043.10000002384,A,flag,O,g,407,1,10514.0,299529.10000002384,7044,WL,C,12.0
2,48.01899981498718,learn,11981.000185012817,Thu Feb 06 2025 18:47:35 GMT-0600 (Central Standard Time),310425.3000000119,A,flagenter,O,enter,341,1,10896.199999988079,299529.10000002384,7044,WL,C,12.0
2,60.01599979400635,learn,-15.999794006347656,Thu Feb 06 2025 18:47:35 GMT-0600 (Central Standard Time),322422.2000000477,A,None,O,None,11988,1,11996.700000047684,310425.5,7044,WL,C,13.0
3,0.7000000476837158,learn,59299.999952316284,Thu Feb 06 2025 18:47:35 GMT-0600 (Central Standard Time),388850.60000002384,A,s,O,s,663,1,699.6999999880791,388150.90000003576,7044,WL,C,1.0
3,0.9670000076293945,learn,59032.999992370605,Thu Feb 06 2025 18:47:35 GMT-0600 (Central Standard Time),389117.7000000477,A,sh,O,h,230,1,966.8000000119209,388150.90000003576,7044,WL,C,1.0
3,1.183000087738037,learn,58816.99991226196,Thu Feb 06 2025 18:47:35 GMT-0600 (Central Standard Time),389333.40000003576,A,sho,O,o,176,1,1182.5,388150.90000003576,7044,WL,C,1.0
3,1.5170001983642578,learn,58482.99980163574,Thu Feb 06 2025 18:47:35 GMT-0600 (Central Standard Time),389666.8000000119,A,shor,O,r,304,1,1515.8999999761581,388150.90000003576,7044,WL,C,1.0
3,1.7670001983642578,learn,58232.99980163574,Thu Feb 06 2025 18:47:35 GMT-0600 (Central Standard Time),389916.7000000477,A,shore,O,e,208,1,1765.800000011921,388150.90000003576,7044,WL,C,1.0
3,2.116000175476074,learn,57883.999824523926,Thu Feb 06 2025 18:47:35 GMT-0600 (Central Standard Time),390265.7000000477,A,shoreenter,O,enter,301,1,2114.800000011921,388150.90000003576,7044,WL,C,1.0
3,2.75,learn,57250.0,Thu Feb 06 2025 18:47:35 GMT-0600 (Central Standard Time),390899.90000003576,A,t,O,t,618,1,633.8000000119209,390266.10000002384,7044,WL,C,2.0
3,2.9830000400543213,learn,57016.99995994568,Thu Feb 06 2025 18:47:35 GMT-0600 (Central Standard Time),391133.0,A,tw,O,w,181,1,866.8999999761581,390266.10000002384,7044,WL,C,2.0
3,3.498000144958496,learn,56501.999855041504,Thu Feb 06 2025 18:47:35 GMT-0600 (Central Standard Time),391648.60000002384,A,two,O,o,468,1,1382.5,390266.10000002384,7044,WL,C,2.0
3,4.116000175476074,learn,55883.999824523926,Thu Feb 06 2025 18:47:35 GMT-0600 (Central Standard Time),392266.10000002384,A,tw,O,backspace,603,1,2000.0,390266.10000002384,7044,WL,C,2.0
3,4.332000017166138,learn,55667.99998283386,Thu Feb 06 2025 18:47:35 GMT-0600 (Central Standard Time),392482.60000002384,A,t,O,backspace,171,1,2216.5,390266.10000002384,7044,WL,C,2.0
3,5.4150002002716064,learn,54584.99979972839,Thu Feb 06 2025 18:47:35 GMT-0600 (Central Standard Time),393565.40000003576,A,,O,backspace,1039,1,3299.300000011921,390266.10000002384,7044,WL,C,2.0
3,6.198000192642212,learn,53801.99980735779,Thu Feb 06 2025 18:47:35 GMT-0600 (Central Standard Time),394348.40000003576,A,f,O,f,758,1,4082.300000011921,390266.10000002384,7044,WL,C,2.0
3,6.5980000495910645,learn,53401.999950408936,Thu Feb 06 2025 18:47:35 GMT-0600 (Central Standard Time),394748.60000002384,A,fl,O,l,366,1,4482.5,390266.10000002384,7044,WL,C,2.0
3,6.765000104904175,learn,53234.999895095825,Thu Feb 06 2025 18:47:35 GMT-0600 (Central Standard Time),394915.0,A,fla,O,a,117,1,4648.899999976158,390266.10000002384,7044,WL,C,2.0
3,7.065000057220459,learn,52934.99994277954,Thu Feb 06 2025 18:47:35 GMT-0600 (Central Standard Time),395215.0,A,flad,O,d,273,1,4948.899999976158,390266.10000002384,7044,WL,C,2.0
3,7.748000144958496,learn,52251.999855041504,Thu Feb 06 2025 18:47:35 GMT-0600 (Central Standard Time),395898.0,A,fla,O,backspace,652,1,5631.899999976158,390266.10000002384,7044,WL,C,2.0
3,8.13100004196167,learn,51868.99995803833,Thu Feb 06 2025 18:47:35 GMT-0600 (Central Standard Time),396281.3000000119,A,flaf,O,f,340,1,6015.199999988079,390266.10000002384,7044,WL,C,2.0
3,8.88100004196167,learn,51118.99995803833,Thu Feb 06 2025 18:47:35 GMT-0600 (Central Standard Time),397030.8000000119,A,fla,O,backspace,707,1,6764.699999988079,390266.10000002384,7044,WL,C,2.0
3,9.031000137329102,learn,50968.9998626709,Thu Feb 06 2025 18:47:35 GMT-0600 (Central Standard Time),397181.2000000477,A,fl,O,backspace,115,1,6915.100000023842,390266.10000002384,7044,WL,C,2.0
3,9.13100004196167,learn,50868.99995803833,Thu Feb 06 2025 18:47:35 GMT-0600 (Central Standard Time),397281.0,A,flg,O,g,68,1,7014.899999976158,390266.10000002384,7044,WL,C,2.0
3,9.864000082015991,learn,50135.99991798401,Thu Feb 06 2025 18:47:35 GMT-0600 (Central Standard Time),398014.0,A,fl,O,backspace,695,1,7747.899999976158,390266.10000002384,7044,WL,C,2.0
3,10.047000169754028,learn,49952.99983024597,Thu Feb 06 2025 18:47:35 GMT-0600 (Central Standard Time),398197.40000003576,A,f,O,backspace,140,1,7931.300000011921,390266.10000002384,7044,WL,C,2.0
3,10.163000106811523,learn,49836.99989318848,Thu Feb 06 2025 18:47:35 GMT-0600 (Central Standard Time),398313.5,A,fa,O,a,75,1,8047.399999976158,390266.10000002384,7044,WL,C,2.0
3,10.764000177383423,learn,49235.99982261658,Thu Feb 06 2025 18:47:35 GMT-0600 (Central Standard Time),398913.90000003576,A,fag,O,g,568,1,8647.800000011921,390266.10000002384,7044,WL,C,2.0
3,11.413000106811523,learn,48586.99989318848,Thu Feb 06 2025 18:47:35 GMT-0600 (Central Standard Time),399563.7000000477,A,fa,O,backspace,608,1,9297.600000023842,390266.10000002384,7044,WL,C,2.0
3,11.630000114440918,learn,48369.99988555908,Thu Feb 06 2025 18:47:35 GMT-0600 (Central Standard Time),399780.2000000477,A,f,O,backspace,173,1,9514.100000023842,390266.10000002384,7044,WL,C,2.0
3,11.94700002670288,learn,48052.99997329712,Thu Feb 06 2025 18:47:35 GMT-0600 (Central Standard Time),400096.8000000119,A,,O,backspace,270,1,9830.699999988079,390266.10000002384,7044,WL,C,2.0
3,12.880000114440918,learn,47119.99988555908,Thu Feb 06 2025 18:47:35 GMT-0600 (Central Standard Time),401029.7000000477,A,f,O,f,895,1,10763.600000023842,390266.10000002384,7044,WL,C,2.0
3,13.063000202178955,learn,46936.999797821045,Thu Feb 06 2025 18:47:35 GMT-0600 (Central Standard Time),401213.0,A,fk,O,k,138,1,10946.899999976158,390266.10000002384,7044,WL,C,2.0
3,13.17900013923645,learn,46820.99986076355,Thu Feb 06 2025 18:47:35 GMT-0600 (Central Standard Time),401329.5,A,fka,O,a,84,1,11063.399999976158,390266.10000002384,7044,WL,C,2.0
3,13.496000051498413,learn,46503.99994850159,Thu Feb 06 2025 18:47:35 GMT-0600 (Central Standard Time),401646.2000000477,A,fkaf,O,f,283,1,11380.100000023842,390266.10000002384,7044,WL,C,2.0
3,13.996000051498413,learn,46003.99994850159,Thu Feb 06 2025 18:47:35 GMT-0600 (Central Standard Time),402146.2000000477,A,fka,O,backspace,453,1,11880.100000023842,390266.10000002384,7044,WL,C,2.0
3,14.229000091552734,learn,45770.999908447266,Thu Feb 06 2025 18:47:35 GMT-0600 (Central Standard Time),402379.40000003576,A,fk,O,backspace,189,1,12113.300000011921,390266.10000002384,7044,WL,C,2.0
3,14.394999980926514,learn,45605.000019073486,Thu Feb 06 2025 18:47:35 GMT-0600 (Central Standard Time),402545.5,A,f,O,backspace,131,1,12279.399999976158,390266.10000002384,7044,WL,C,2.0
3,15.128000020980835,learn,44871.999979019165,Thu Feb 06 2025 18:47:35 GMT-0600 (Central Standard Time),403278.5,A,fl,O,l,707,1,13012.399999976158,390266.10000002384,7044,WL,C,2.0
3,15.26200008392334,learn,44737.99991607666,Thu Feb 06 2025 18:47:35 GMT-0600 (Central Standard Time),403412.3000000119,A,fla,O,a,98,1,13146.199999988079,390266.10000002384,7044,WL,C,2.0
3,15.545000076293945,learn,44454.999923706055,Thu Feb 06 2025 18:47:35 GMT-0600 (Central Standard Time),403695.60000002384,A,flag,O,g,236,1,13429.5,390266.10000002384,7044,WL,C,2.0
3,15.811000108718872,learn,44188.99989128113,Thu Feb 06 2025 18:47:35 GMT-0600 (Central Standard Time),403961.40000003576,A,flagenter,O,enter,230,1,13695.300000011921,390266.10000002384,7044,WL,C,2.0
3,16.478000164031982,learn,43521.99983596802,Thu Feb 06 2025 18:47:35 GMT-0600 (Central Standard Time),404628.60000002384,A,w,O,w,652,1,667.0,403961.60000002384,7044,WL,C,3.0
3,16.712000131607056,learn,43287.999868392944,Thu Feb 06 2025 18:47:35 GMT-0600 (Central Standard Time),404861.90000003576,A,wh,O,h,194,1,900.3000000119209,403961.60000002384,7044,WL,C,3.0
3,16.99500012397766,learn,43004.99987602234,Thu Feb 06 2025 18:47:35 GMT-0600 (Central Standard Time),405145.10000002384,A,whe,O,e,237,1,1183.5,403961.60000002384,7044,WL,C,3.0
3,17.312000036239624,learn,42687.999963760376,Thu Feb 06 2025 18:47:35 GMT-0600 (Central Standard Time),405461.90000003576,A,whea,O,a,292,1,1500.300000011921,403961.60000002384,7044,WL,C,3.0
3,17.795000076293945,learn,42204.999923706055,Thu Feb 06 2025 18:47:35 GMT-0600 (Central Standard Time),405944.90000003576,A,wheat,O,t,437,1,1983.300000011921,403961.60000002384,7044,WL,C,3.0
3,18.277000188827515,learn,41722.999811172485,Thu Feb 06 2025 18:47:35 GMT-0600 (Central Standard Time),406427.10000002384,A,wheatenter,O,enter,436,1,2465.5,403961.60000002384,7044,WL,C,3.0
3,18.628000020980835,learn,41371.999979019165,Thu Feb 06 2025 18:47:35 GMT-0600 (Central Standard Time),406777.90000003576,A,s,O,s,337,1,350.5,406427.40000003576,7044,WL,C,4.0
3,19.1780002117157,learn,40821.9997882843,Thu Feb 06 2025 18:47:35 GMT-0600 (Central Standard Time),407327.8000000119,A,su,O,u,512,1,900.3999999761581,406427.40000003576,7044,WL,C,4.0
3,19.611000061035156,learn,40388.999938964844,Thu Feb 06 2025 18:47:35 GMT-0600 (Central Standard Time),407760.90000003576,A,sug,O,g,392,1,1333.5,406427.40000003576,7044,WL,C,4.0
3,19.89400005340576,learn,40105.99994659424,Thu Feb 06 2025 18:47:35 GMT-0600 (Central Standard Time),408044.0,A,suga,O,a,232,1,1616.5999999642372,406427.40000003576,7044,WL,C,4.0
3,20.211000204086304,learn,39788.999795913696,Thu Feb 06 2025 18:47:35 GMT-0600 (Central Standard Time),408360.8000000119,A,sugar,O,r,273,1,1933.3999999761581,406427.40000003576,7044,WL,C,4.0
3,20.676000118255615,learn,39323.999881744385,Thu Feb 06 2025 18:47:35 GMT-0600 (Central Standard Time),408826.5,A,sugarenter,O,enter,424,1,2399.099999964237,406427.40000003576,7044,WL,C,4.0
3,21.177000045776367,learn,38822.99995422363,Thu Feb 06 2025 18:47:35 GMT-0600 (Central Standard Time),409327.10000002384,A,h,O,h,482,1,500.39999997615814,408826.7000000477,7044,WL,C,5.0
3,21.509999990463257,learn,38490.00000953674,Thu Feb 06 2025 18:47:35 GMT-0600 (Central Standard Time),409660.2000000477,A,ho,O,o,283,1,833.5,408826.7000000477,7044,WL,C,5.0
3,21.759999990463257,learn,38240.00000953674,Thu Feb 06 2025 18:47:35 GMT-0600 (Central Standard Time),409910.3000000119,A,hom,O,m,207,1,1083.5999999642372,408826.7000000477,7044,WL,C,5.0
3,21.87600016593933,learn,38123.99983406067,Thu Feb 06 2025 18:47:35 GMT-0600 (Central Standard Time),410026.40000003576,A,home,O,e,77,1,1199.699999988079,408826.7000000477,7044,WL,C,5.0
3,22.192000150680542,learn,37807.99984931946,Thu Feb 06 2025 18:47:35 GMT-0600 (Central Standard Time),410342.5,A,homeenter,O,enter,294,1,1515.7999999523163,408826.7000000477,7044,WL,C,5.0
3,22.610000133514404,learn,37389.999866485596,Thu Feb 06 2025 18:47:35 GMT-0600 (Central Standard Time),410759.90000003576,A,b,O,b,407,1,417.10000002384186,410342.8000000119,7044,WL,C,6.0
3,22.926000118255615,learn,37073.999881744385,Thu Feb 06 2025 18:47:35 GMT-0600 (Central Standard Time),411076.5,A,bo,O,o,275,1,733.6999999880791,410342.8000000119,7044,WL,C,6.0
3,23.426000118255615,learn,36573.999881744385,Thu Feb 06 2025 18:47:35 GMT-0600 (Central Standard Time),411576.3000000119,A,bou,O,u,458,1,1233.5,410342.8000000119,7044,WL,C,6.0
3,24.14300012588501,learn,35856.99987411499,Thu Feb 06 2025 18:47:35 GMT-0600 (Central Standard Time),412293.60000002384,A,bo,O,backspace,679,1,1950.800000011921,410342.8000000119,7044,WL,C,6.0
3,24.325999975204468,learn,35674.00002479553,Thu Feb 06 2025 18:47:35 GMT-0600 (Central Standard Time),412476.0,A,boy,O,y,133,1,2133.199999988079,410342.8000000119,7044,WL,C,6.0
3,24.676000118255615,learn,35323.999881744385,Thu Feb 06 2025 18:47:35 GMT-0600 (Central Standard Time),412826.0,A,boyenter,O,enter,308,1,2483.199999988079,410342.8000000119,7044,WL,C,6.0
3,25.359000205993652,learn,34640.99979400635,Thu Feb 06 2025 18:47:35 GMT-0600 (Central Standard Time),413509.60000002384,A,d,O,d,675,1,683.3000000119209,412826.3000000119,7044,WL,C,7.0
3,25.575999975204468,learn,34424.00002479553,Thu Feb 06 2025 18:47:35 GMT-0600 (Central Standard Time),413725.7000000477,A,do,O,o,178,1,899.4000000357628,412826.3000000119,7044,WL,C,7.0
3,25.725000143051147,learn,34274.99985694885,Thu Feb 06 2025 18:47:35 GMT-0600 (Central Standard Time),413875.60000002384,A,doc,O,c,108,1,1049.300000011921,412826.3000000119,7044,WL,C,7.0
3,25.975000143051147,learn,34024.99985694885,Thu Feb 06 2025 18:47:35 GMT-0600 (Central Standard Time),414125.5,A,doct,O,t,222,1,1299.199999988079,412826.3000000119,7044,WL,C,7.0
3,26.159000158309937,learn,33840.99984169006,Thu Feb 06 2025 18:47:35 GMT-0600 (Central Standard Time),414308.8000000119,A,docto,O,o,133,1,1482.5,412826.3000000119,7044,WL,C,7.0
3,26.29200005531311,learn,33707.99994468689,Thu Feb 06 2025 18:47:35 GMT-0600 (Central Standard Time),414442.10000002384,A,doctor,O,r,93,1,1615.800000011921,412826.3000000119,7044,WL,C,7.0
3,26.591000080108643,learn,33408.99991989136,Thu Feb 06 2025 18:47:35 GMT-0600 (Central Standard Time),414741.10000002384,A,doctorenter,O,enter,256,1,1914.800000011921,412826.3000000119,7044,WL,C,7.0
3,28.743000030517578,learn,31256.999969482422,Thu Feb 06 2025 18:47:35 GMT-0600 (Central Standard Time),416891.3000000119,A,c,O,c,2127,1,2149.899999976158,414741.40000003576,7044,WL,C,8.0
3,29.2260000705719,learn,30773.9999294281,Thu Feb 06 2025 18:47:35 GMT-0600 (Central Standard Time),417374.40000003576,A,ca,O,a,441,1,2633.0,414741.40000003576,7044,WL,C,8.0
3,29.493000030517578,learn,30506.999969482422,Thu Feb 06 2025 18:47:35 GMT-0600 (Central Standard Time),417641.0,A,cam,O,m,230,1,2899.599999964237,414741.40000003576,7044,WL,C,8.0
3,29.70900011062622,learn,30290.99988937378,Thu Feb 06 2025 18:47:35 GMT-0600 (Central Standard Time),417857.8000000119,A,camp,O,p,180,1,3116.399999976158,414741.40000003576,7044,WL,C,8.0
3,30.058000087738037,learn,29941.999912261963,Thu Feb 06 2025 18:47:35 GMT-0600 (Central Standard Time),418206.7000000477,A,campenter,O,enter,307,1,3465.300000011921,414741.40000003576,7044,WL,C,8.0
3,30.41000008583069,learn,29589.99991416931,Thu Feb 06 2025 18:47:35 GMT-0600 (Central Standard Time),418558.0,A,c,O,c,342,1,351.0,418207.0,7044,WL,C,9.0
3,30.592000007629395,learn,29407.999992370605,Thu Feb 06 2025 18:47:35 GMT-0600 (Central Standard Time),418740.7000000477,A,ca,O,a,141,1,533.7000000476837,418207.0,7044,WL,C,9.0
3,30.892000198364258,learn,29107.999801635742,Thu Feb 06 2025 18:47:35 GMT-0600 (Central Standard Time),419040.60000002384,A,cat,O,t,261,1,833.6000000238419,418207.0,7044,WL,C,9.0
3,31.026000022888184,learn,28973.999977111816,Thu Feb 06 2025 18:47:35 GMT-0600 (Central Standard Time),419173.90000003576,A,catt,O,t,90,1,966.9000000357628,418207.0,7044,WL,C,9.0
3,31.592000007629395,learn,28407.999992370605,Thu Feb 06 2025 18:47:35 GMT-0600 (Central Standard Time),419740.40000003576,A,cattl,O,l,528,1,1533.4000000357628,418207.0,7044,WL,C,9.0
3,31.742000102996826,learn,28257.999897003174,Thu Feb 06 2025 18:47:35 GMT-0600 (Central Standard Time),419890.3000000119,A,cattle,O,e,111,1,1683.300000011921,418207.0,7044,WL,C,9.0
3,32.074000120162964,learn,27925.999879837036,Thu Feb 06 2025 18:47:35 GMT-0600 (Central Standard Time),420222.7000000477,A,cattleenter,O,enter,287,1,2015.7000000476837,418207.0,7044,WL,C,9.0
3,34.60800004005432,learn,25391.99995994568,Thu Feb 06 2025 18:47:35 GMT-0600 (Central Standard Time),422756.0,A,c,O,c,2509,1,2533.0,420223.0,7044,WL,C,10.0
3,34.757000207901,learn,25242.999792099,Thu Feb 06 2025 18:47:35 GMT-0600 (Central Standard Time),422905.7000000477,A,ca,O,a,112,1,2682.7000000476837,420223.0,7044,WL,C,10.0
3,34.94099998474121,learn,25059.00001525879,Thu Feb 06 2025 18:47:35 GMT-0600 (Central Standard Time),423089.2000000477,A,cam,O,m,145,1,2866.2000000476837,420223.0,7044,WL,C,10.0
3,35.157999992370605,learn,24842.000007629395,Thu Feb 06 2025 18:47:35 GMT-0600 (Central Standard Time),423305.8000000119,A,camp,O,p,177,1,3082.800000011921,420223.0,7044,WL,C,10.0
3,35.574000120162964,learn,24425.999879837036,Thu Feb 06 2025 18:47:35 GMT-0600 (Central Standard Time),423722.40000003576,A,campenter,O,enter,374,1,3499.400000035763,420223.0,7044,WL,C,10.0
3,36.02400016784668,learn,23975.99983215332,Thu Feb 06 2025 18:47:35 GMT-0600 (Central Standard Time),424172.3000000119,A,f,O,f,435,1,449.5999999642372,423722.7000000477,7044,WL,C,11.0
3,36.241000175476074,learn,23758.999824523926,Thu Feb 06 2025 18:47:35 GMT-0600 (Central Standard Time),424389.60000002384,A,fl,O,l,181,1,666.8999999761581,423722.7000000477,7044,WL,C,11.0
3,36.42400002479553,learn,23575.999975204468,Thu Feb 06 2025 18:47:35 GMT-0600 (Central Standard Time),424572.10000002384,A,fla,O,a,142,1,849.3999999761581,423722.7000000477,7044,WL,C,11.0
3,36.84000015258789,learn,23159.99984741211,Thu Feb 06 2025 18:47:35 GMT-0600 (Central Standard Time),424988.7000000477,A,flaf,O,f,368,1,1266.0,423722.7000000477,7044,WL,C,11.0
3,37.60700011253357,learn,22392.99988746643,Thu Feb 06 2025 18:47:35 GMT-0600 (Central Standard Time),425755.10000002384,A,fla,O,backspace,716,1,2032.3999999761581,423722.7000000477,7044,WL,C,11.0
3,37.74000000953674,learn,22259.999990463257,Thu Feb 06 2025 18:47:35 GMT-0600 (Central Standard Time),425888.40000003576,A,flag,O,g,103,1,2165.699999988079,423722.7000000477,7044,WL,C,11.0
3,38.13900017738342,learn,21860.999822616577,Thu Feb 06 2025 18:47:35 GMT-0600 (Central Standard Time),426287.3000000119,A,flagenter,O,enter,354,1,2564.599999964237,423722.7000000477,7044,WL,C,11.0
3,38.623000144958496,learn,21376.999855041504,Thu Feb 06 2025 18:47:35 GMT-0600 (Central Standard Time),426771.2000000477,A,s,O,s,470,1,483.60000002384186,426287.60000002384,7044,WL,C,12.0
3,38.82300019264221,learn,21176.999807357788,Thu Feb 06 2025 18:47:35 GMT-0600 (Central Standard Time),426971.5,A,su,O,u,156,1,683.8999999761581,426287.60000002384,7044,WL,C,12.0
3,39.123000144958496,learn,20876.999855041504,Thu Feb 06 2025 18:47:35 GMT-0600 (Central Standard Time),427271.3000000119,A,sug,O,g,264,1,983.6999999880791,426287.60000002384,7044,WL,C,12.0
3,39.373000144958496,learn,20626.999855041504,Thu Feb 06 2025 18:47:35 GMT-0600 (Central Standard Time),427521.10000002384,A,suga,O,a,205,1,1233.5,426287.60000002384,7044,WL,C,12.0
3,39.63900017738342,learn,20360.999822616577,Thu Feb 06 2025 18:47:35 GMT-0600 (Central Standard Time),427787.5,A,sugar,O,r,231,1,1499.8999999761581,426287.60000002384,7044,WL,C,12.0
3,40.13800001144409,learn,19861.99998855591,Thu Feb 06 2025 18:47:35 GMT-0600 (Central Standard Time),428286.60000002384,A,sugarenter,O,enter,460,1,1999.0,426287.60000002384,7044,WL,C,12.0
3,40.6560001373291,learn,19343.9998626709,Thu Feb 06 2025 18:47:35 GMT-0600 (Central Standard Time),428804.0,A,w,O,w,494,1,517.0999999642372,428286.90000003576,7044,WL,C,13.0
3,40.83899998664856,learn,19161.00001335144,Thu Feb 06 2025 18:47:35 GMT-0600 (Central Standard Time),428987.3000000119,A,wh,O,h,137,1,700.3999999761581,428286.90000003576,7044,WL,C,13.0
3,41.0220000743866,learn,18977.999925613403,Thu Feb 06 2025 18:47:35 GMT-0600 (Central Standard Time),429170.60000002384,A,whe,O,e,148,1,883.6999999880791,428286.90000003576,7044,WL,C,13.0
3,41.25600004196167,learn,18743.99995803833,Thu Feb 06 2025 18:47:35 GMT-0600 (Central Standard Time),429403.90000003576,A,whea,O,a,197,1,1117.0,428286.90000003576,7044,WL,C,13.0
3,42.455000162124634,learn,17544.999837875366,Thu Feb 06 2025 18:47:35 GMT-0600 (Central Standard Time),430603.5,A,wheat,O,t,1153,1,2316.599999964237,428286.90000003576,7044,WL,C,13.0
3,43.187000036239624,learn,16812.999963760376,Thu Feb 06 2025 18:47:35 GMT-0600 (Central Standard Time),431335.7000000477,A,wheatenter,O,enter,688,1,3048.800000011921,428286.90000003576,7044,WL,C,13.0
3,43.53800010681152,learn,16461.999893188477,Thu Feb 06 2025 18:47:35 GMT-0600 (Central Standard Time),431686.60000002384,A,s,O,s,333,1,350.69999998807907,431335.90000003576,7044,WL,C,14.0
3,43.705000162124634,learn,16294.999837875366,Thu Feb 06 2025 18:47:35 GMT-0600 (Central Standard Time),431853.10000002384,A,sh,O,h,126,1,517.1999999880791,431335.90000003576,7044,WL,C,14.0
3,43.938000202178955,learn,16061.999797821045,Thu Feb 06 2025 18:47:35 GMT-0600 (Central Standard Time),432086.0,A,sho,O,o,197,1,750.0999999642372,431335.90000003576,7044,WL,C,14.0
3,44.105000019073486,learn,15894.999980926514,Thu Feb 06 2025 18:47:35 GMT-0600 (Central Standard Time),432252.90000003576,A,shor,O,r,126,1,917.0,431335.90000003576,7044,WL,C,14.0
3,44.62100005149841,learn,15378.999948501587,Thu Feb 06 2025 18:47:35 GMT-0600 (Central Standard Time),432769.3000000119,A,shore,O,e,470,1,1433.3999999761581,431335.90000003576,7044,WL,C,14.0
3,44.937000036239624,learn,15062.999963760376,Thu Feb 06 2025 18:47:35 GMT-0600 (Central Standard Time),433085.10000002384,A,shoreenter,O,enter,281,1,1749.199999988079,431335.90000003576,7044,WL,C,14.0
3,49.65300011634827,learn,10346.999883651733,Thu Feb 06 2025 18:47:35 GMT-0600 (Central Standard Time),437801.10000002384,A,l,O,l,4703,1,4715.699999988079,433085.40000003576,7044,WL,C,15.0
3,49.78600001335144,learn,10213.99998664856,Thu Feb 06 2025 18:47:35 GMT-0600 (Central Standard Time),437934.40000003576,A,le,O,e,90,1,4849.0,433085.40000003576,7044,WL,C,15.0
3,50.0530002117157,learn,9946.999788284302,Thu Feb 06 2025 18:47:35 GMT-0600 (Central Standard Time),438201.0,A,let,O,t,235,1,5115.599999964237,433085.40000003576,7044,WL,C,15.0
3,50.26900005340576,learn,9730.999946594238,Thu Feb 06 2025 18:47:35 GMT-0600 (Central Standard Time),438417.5,A,lett,O,t,176,1,5332.099999964237,433085.40000003576,7044,WL,C,15.0
3,50.402000188827515,learn,9597.999811172485,Thu Feb 06 2025 18:47:35 GMT-0600 (Central Standard Time),438550.40000003576,A,lette,O,e,96,1,5465.0,433085.40000003576,7044,WL,C,15.0
3,50.53500008583069,learn,9464.999914169312,Thu Feb 06 2025 18:47:35 GMT-0600 (Central Standard Time),438683.5,A,letter,O,r,101,1,5598.099999964237,433085.40000003576,7044,WL,C,15.0
3,50.85199999809265,learn,9148.000001907349,Thu Feb 06 2025 18:47:35 GMT-0600 (Central Standard Time),438999.90000003576,A,letterenter,O,enter,299,1,5914.5,433085.40000003576,7044,WL,C,15.0
4,1.0160000324249268,learn,58983.99996757507,Thu Feb 06 2025 18:47:35 GMT-0600 (Central Standard Time),506195.5,A,b,O,b,979,1,1015.7999999523163,505179.7000000477,7044,WL,C,1.0
4,1.249000072479248,learn,58750.99992752075,Thu Feb 06 2025 18:47:35 GMT-0600 (Central Standard Time),506428.7000000477,A,bo,O,o,182,1,1249.0,505179.7000000477,7044,WL,C,1.0
4,1.4490001201629639,learn,58550.999879837036,Thu Feb 06 2025 18:47:35 GMT-0600 (Central Standard Time),506628.5,A,bod,O,d,150,1,1448.7999999523163,505179.7000000477,7044,WL,C,1.0
4,1.6490001678466797,learn,58350.99983215332,Thu Feb 06 2025 18:47:35 GMT-0600 (Central Standard Time),506828.60000002384,A,body,O,y,158,1,1648.8999999761581,505179.7000000477,7044,WL,C,1.0
4,2.13100004196167,learn,57868.99995803833,Thu Feb 06 2025 18:47:35 GMT-0600 (Central Standard Time),507310.8000000119,A,bodyenter,O,enter,446,1,2131.099999964237,505179.7000000477,7044,WL,C,1.0
4,3.8480000495910645,learn,56151.999950408936,Thu Feb 06 2025 18:47:35 GMT-0600 (Central Standard Time),509027.8000000119,A,n,O,n,1694,1,1716.5999999642372,507311.2000000477,7044,WL,C,2.0
4,4.081000089645386,learn,55918.999910354614,Thu Feb 06 2025 18:47:35 GMT-0600 (Central Standard Time),509260.7000000477,A,na,O,a,186,1,1949.5,507311.2000000477,7044,WL,C,2.0
4,4.264000177383423,learn,55735.99982261658,Thu Feb 06 2025 18:47:35 GMT-0600 (Central Standard Time),509443.60000002384,A,nau,O,u,135,1,2132.399999976158,507311.2000000477,7044,WL,C,2.0
4,4.581000089645386,learn,55418.999910354614,Thu Feb 06 2025 18:47:35 GMT-0600 (Central Standard Time),509761.0,A,nauk,O,k,300,1,2449.7999999523163,507311.2000000477,7044,WL,C,2.0
4,4.948000192642212,learn,55051.99980735779,Thu Feb 06 2025 18:47:35 GMT-0600 (Central Standard Time),510127.8000000119,A,nau,O,backspace,320,1,2816.599999964237,507311.2000000477,7044,WL,C,2.0
4,5.0980000495910645,learn,54901.999950408936,Thu Feb 06 2025 18:47:35 GMT-0600 (Central Standard Time),510277.90000003576,A,na,O,backspace,113,1,2966.699999988079,507311.2000000477,7044,WL,C,2.0
4,5.815000057220459,learn,54184.99994277954,Thu Feb 06 2025 18:47:35 GMT-0600 (Central Standard Time),510994.10000002384,A,nai,O,i,675,1,3682.899999976158,507311.2000000477,7044,WL,C,2.0
4,6.04800009727478,learn,53951.99990272522,Thu Feb 06 2025 18:47:35 GMT-0600 (Central Standard Time),511227.10000002384,A,nail,O,l,186,1,3915.899999976158,507311.2000000477,7044,WL,C,2.0
4,6.330000162124634,learn,53669.999837875366,Thu Feb 06 2025 18:47:35 GMT-0600 (Central Standard Time),511509.40000003576,A,nailenter,O,enter,239,1,4198.199999988079,507311.2000000477,7044,WL,C,2.0
4,6.664000034332275,learn,53335.999965667725,Thu Feb 06 2025 18:47:35 GMT-0600 (Central Standard Time),511843.40000003576,A,s,O,s,320,1,333.60000002384186,511509.8000000119,7044,WL,C,3.0
4,6.797000169754028,learn,53202.99983024597,Thu Feb 06 2025 18:47:35 GMT-0600 (Central Standard Time),511976.8000000119,A,sh,O,h,90,1,467.0,511509.8000000119,7044,WL,C,3.0
4,7.014000177383423,learn,52985.99982261658,Thu Feb 06 2025 18:47:35 GMT-0600 (Central Standard Time),512193.40000003576,A,sho,O,o,177,1,683.6000000238419,511509.8000000119,7044,WL,C,3.0
4,7.213000059127808,learn,52786.99994087219,Thu Feb 06 2025 18:47:35 GMT-0600 (Central Standard Time),512392.40000003576,A,shor,O,r,159,1,882.6000000238419,511509.8000000119,7044,WL,C,3.0
4,7.5970001220703125,learn,52402.99987792969,Thu Feb 06 2025 18:47:35 GMT-0600 (Central Standard Time),512776.5,A,short,O,t,363,1,1266.699999988079,511509.8000000119,7044,WL,C,3.0
4,8.164000034332275,learn,51835.999965667725,Thu Feb 06 2025 18:47:35 GMT-0600 (Central Standard Time),513343.10000002384,A,shor,O,backspace,526,1,1833.300000011921,511509.8000000119,7044,WL,C,3.0
4,8.44700002670288,learn,51552.99997329712,Thu Feb 06 2025 18:47:35 GMT-0600 (Central Standard Time),513626.40000003576,A,shore,O,e,245,1,2116.600000023842,511509.8000000119,7044,WL,C,3.0
4,8.67900013923645,learn,51320.99986076355,Thu Feb 06 2025 18:47:35 GMT-0600 (Central Standard Time),513858.7000000477,A,shoreenter,O,enter,199,1,2348.900000035763,511509.8000000119,7044,WL,C,3.0
4,9.162000179290771,learn,50837.99982070923,Thu Feb 06 2025 18:47:35 GMT-0600 (Central Standard Time),514341.8000000119,A,c,O,c,473,1,482.80000001192093,513859.0,7044,WL,C,4.0
4,9.361999988555908,learn,50638.00001144409,Thu Feb 06 2025 18:47:35 GMT-0600 (Central Standard Time),514541.7000000477,A,ca,O,a,184,1,682.7000000476837,513859.0,7044,WL,C,4.0
4,9.547000169754028,learn,50452.99983024597,Thu Feb 06 2025 18:47:35 GMT-0600 (Central Standard Time),514726.10000002384,A,cam,O,m,173,1,867.1000000238419,513859.0,7044,WL,C,4.0
4,9.813000202178955,learn,50186.999797821045,Thu Feb 06 2025 18:47:35 GMT-0600 (Central Standard Time),514992.60000002384,A,camp,O,p,232,1,1133.6000000238419,513859.0,7044,WL,C,4.0
4,10.212000131607056,learn,49787.999868392944,Thu Feb 06 2025 18:47:35 GMT-0600 (Central Standard Time),515391.5,A,campenter,O,enter,356,1,1532.5,513859.0,7044,WL,C,4.0
4,10.646000146865845,learn,49353.999853134155,Thu Feb 06 2025 18:47:35 GMT-0600 (Central Standard Time),515825.60000002384,A,f,O,f,413,1,433.80000001192093,515391.8000000119,7044,WL,C,5.0
4,10.879000186920166,learn,49120.999813079834,Thu Feb 06 2025 18:47:35 GMT-0600 (Central Standard Time),516058.8000000119,A,fl,O,l,193,1,667.0,515391.8000000119,7044,WL,C,5.0
4,11.01200008392334,learn,48987.99991607666,Thu Feb 06 2025 18:47:35 GMT-0600 (Central Standard Time),516191.10000002384,A,fla,O,a,92,1,799.3000000119209,515391.8000000119,7044,WL,C,5.0
4,11.313000202178955,learn,48686.999797821045,Thu Feb 06 2025 18:47:35 GMT-0600 (Central Standard Time),516491.90000003576,A,flad,O,d,285,1,1100.1000000238419,515391.8000000119,7044,WL,C,5.0
4,11.896000146865845,learn,48103.999853134155,Thu Feb 06 2025 18:47:35 GMT-0600 (Central Standard Time),517075.10000002384,A,fla,O,backspace,535,1,1683.300000011921,515391.8000000119,7044,WL,C,5.0
4,12.029000043869019,learn,47970.99995613098,Thu Feb 06 2025 18:47:35 GMT-0600 (Central Standard Time),517208.60000002384,A,flaf,O,f,94,1,1816.800000011921,515391.8000000119,7044,WL,C,5.0
4,12.34500002861023,learn,47654.99997138977,Thu Feb 06 2025 18:47:35 GMT-0600 (Central Standard Time),517524.2000000477,A,flafenter,O,enter,280,1,2132.400000035763,515391.8000000119,7044,WL,C,5.0
4,13.578999996185303,learn,46421.0000038147,Thu Feb 06 2025 18:47:35 GMT-0600 (Central Standard Time),518758.0,A,f,O,f,1225,1,1233.5999999642372,517524.40000003576,7044,WL,C,6.0
4,13.779000043869019,learn,46220.99995613098,Thu Feb 06 2025 18:47:35 GMT-0600 (Central Standard Time),518958.0,A,fl,O,l,164,1,1433.5999999642372,517524.40000003576,7044,WL,C,6.0
4,13.912000179290771,learn,46087.99982070923,Thu Feb 06 2025 18:47:35 GMT-0600 (Central Standard Time),519091.10000002384,A,fla,O,a,89,1,1566.699999988079,517524.40000003576,7044,WL,C,6.0
4,14.278000116348267,learn,45721.99988365173,Thu Feb 06 2025 18:47:35 GMT-0600 (Central Standard Time),519457.8000000119,A,flaf,O,f,320,1,1933.3999999761581,517524.40000003576,7044,WL,C,6.0
4,14.961000204086304,learn,45038.999795913696,Thu Feb 06 2025 18:47:35 GMT-0600 (Central Standard Time),520140.90000003576,A,fla,O,backspace,633,1,2616.5,517524.40000003576,7044,WL,C,6.0
4,15.09500002861023,learn,44904.99997138977,Thu Feb 06 2025 18:47:35 GMT-0600 (Central Standard Time),520274.10000002384,A,flag,O,g,86,1,2749.699999988079,517524.40000003576,7044,WL,C,6.0
4,15.509999990463257,learn,44490.00000953674,Thu Feb 06 2025 18:47:35 GMT-0600 (Central Standard Time),520689.7000000477,A,flagenter,O,enter,370,1,3165.300000011921,517524.40000003576,7044,WL,C,6.0
4,16.228000164031982,learn,43771.99983596802,Thu Feb 06 2025 18:47:35 GMT-0600 (Central Standard Time),521407.10000002384,A,b,O,b,699,1,717.1000000238419,520690.0,7044,WL,C,7.0
4,16.49400019645691,learn,43505.99980354309,Thu Feb 06 2025 18:47:35 GMT-0600 (Central Standard Time),521673.60000002384,A,bo,O,o,220,1,983.6000000238419,520690.0,7044,WL,C,7.0
4,16.97699999809265,learn,43023.00000190735,Thu Feb 06 2025 18:47:35 GMT-0600 (Central Standard Time),522156.7000000477,A,boy,O,y,439,1,1466.7000000476837,520690.0,7044,WL,C,7.0
4,17.41000008583069,learn,42589.99991416931,Thu Feb 06 2025 18:47:35 GMT-0600 (Central Standard Time),522589.10000002384,A,boyenter,O,enter,389,1,1899.1000000238419,520690.0,7044,WL,C,7.0
4,17.89400005340576,learn,42105.99994659424,Thu Feb 06 2025 18:47:35 GMT-0600 (Central Standard Time),523073.2000000477,A,c,O,c,464,1,483.80000001192093,522589.40000003576,7044,WL,C,8.0
4,18.094000101089478,learn,41905.99989891052,Thu Feb 06 2025 18:47:35 GMT-0600 (Central Standard Time),523273.10000002384,A,ca,O,a,167,1,683.6999999880791,522589.40000003576,7044,WL,C,8.0
4,18.22699999809265,learn,41773.00000190735,Thu Feb 06 2025 18:47:35 GMT-0600 (Central Standard Time),523406.2000000477,A,cam,O,m,99,1,816.8000000119209,522589.40000003576,7044,WL,C,8.0
4,18.49400019645691,learn,41505.99980354309,Thu Feb 06 2025 18:47:35 GMT-0600 (Central Standard Time),523673.10000002384,A,camp,O,p,228,1,1083.699999988079,522589.40000003576,7044,WL,C,8.0
4,18.89300012588501,learn,41106.99987411499,Thu Feb 06 2025 18:47:35 GMT-0600 (Central Standard Time),524072.0,A,campenter,O,enter,365,1,1482.5999999642372,522589.40000003576,7044,WL,C,8.0
4,20.826000213623047,learn,39173.99978637695,Thu Feb 06 2025 18:47:35 GMT-0600 (Central Standard Time),526005.6000000238,A,t,O,t,1909,1,1933.300000011921,524072.3000000119,7044,WL,C,9.0
4,21.05900001525879,learn,38940.99998474121,Thu Feb 06 2025 18:47:35 GMT-0600 (Central Standard Time),526238.6000000238,A,to,O,o,201,1,2166.300000011921,524072.3000000119,7044,WL,C,9.0
4,21.276000022888184,learn,38723.99997711182,Thu Feb 06 2025 18:47:35 GMT-0600 (Central Standard Time),526455.5,A,tow,O,w,172,1,2383.199999988079,524072.3000000119,7044,WL,C,9.0
4,21.4760000705719,learn,38523.9999294281,Thu Feb 06 2025 18:47:35 GMT-0600 (Central Standard Time),526655.3000000119,A,towe,O,e,159,1,2583.0,524072.3000000119,7044,WL,C,9.0
4,21.759000062942505,learn,38240.999937057495,Thu Feb 06 2025 18:47:35 GMT-0600 (Central Standard Time),526938.9000000358,A,towee,O,e,236,1,2866.600000023842,524072.3000000119,7044,WL,C,9.0
4,22.45900011062622,learn,37540.99988937378,Thu Feb 06 2025 18:47:35 GMT-0600 (Central Standard Time),527638.2000000477,A,towe,O,backspace,668,1,3565.900000035763,524072.3000000119,7044,WL,C,9.0
4,22.642000198364258,learn,37357.99980163574,Thu Feb 06 2025 18:47:35 GMT-0600 (Central Standard Time),527821.9000000358,A,tower,O,r,157,1,3749.600000023842,524072.3000000119,7044,WL,C,9.0
4,22.95800018310547,learn,37041.99981689453,Thu Feb 06 2025 18:47:35 GMT-0600 (Central Standard Time),528137.5,A,towerenter,O,enter,265,1,4065.199999988079,524072.3000000119,7044,WL,C,9.0
4,23.45800018310547,learn,36541.99981689453,Thu Feb 06 2025 18:47:35 GMT-0600 (Central Standard Time),528637.8000000119,A,h,O,h,483,1,500.0999999642372,528137.7000000477,7044,WL,C,10.0
4,23.725000143051147,learn,36274.99985694885,Thu Feb 06 2025 18:47:35 GMT-0600 (Central Standard Time),528904.7000000477,A,ho,O,o,228,1,767.0,528137.7000000477,7044,WL,C,10.0
4,23.975000143051147,learn,36024.99985694885,Thu Feb 06 2025 18:47:35 GMT-0600 (Central Standard Time),529154.6000000238,A,hom,O,m,210,1,1016.8999999761581,528137.7000000477,7044,WL,C,10.0
4,24.157999992370605,learn,35842.000007629395,Thu Feb 06 2025 18:47:35 GMT-0600 (Central Standard Time),529337.6000000238,A,home,O,e,137,1,1199.8999999761581,528137.7000000477,7044,WL,C,10.0
4,24.741000175476074,learn,35258.999824523926,Thu Feb 06 2025 18:47:35 GMT-0600 (Central Standard Time),529920.1000000238,A,homeenter,O,enter,547,1,1782.3999999761581,528137.7000000477,7044,WL,C,10.0
4,25.091000080108643,learn,34908.99991989136,Thu Feb 06 2025 18:47:35 GMT-0600 (Central Standard Time),530270.7000000477,A,s,O,s,341,1,350.4000000357628,529920.3000000119,7044,WL,C,11.0
4,25.341000080108643,learn,34658.99991989136,Thu Feb 06 2025 18:47:35 GMT-0600 (Central Standard Time),530520.7000000477,A,su,O,u,209,1,600.4000000357628,529920.3000000119,7044,WL,C,11.0
4,25.85800004005432,learn,34141.99995994568,Thu Feb 06 2025 18:47:35 GMT-0600 (Central Standard Time),531037.2000000477,A,sug,O,g,466,1,1116.9000000357628,529920.3000000119,7044,WL,C,11.0
4,26.124000072479248,learn,33875.99992752075,Thu Feb 06 2025 18:47:35 GMT-0600 (Central Standard Time),531303.7000000477,A,suga,O,a,230,1,1383.4000000357628,529920.3000000119,7044,WL,C,11.0
4,26.407000064849854,learn,33592.99993515015,Thu Feb 06 2025 18:47:35 GMT-0600 (Central Standard Time),531586.9000000358,A,sugar,O,r,235,1,1666.6000000238419,529920.3000000119,7044,WL,C,11.0
4,26.873000144958496,learn,33126.999855041504,Thu Feb 06 2025 18:47:35 GMT-0600 (Central Standard Time),532052.6000000238,A,sugarenter,O,enter,434,1,2132.300000011921,529920.3000000119,7044,WL,C,11.0
4,27.27400016784668,learn,32725.99983215332,Thu Feb 06 2025 18:47:35 GMT-0600 (Central Standard Time),532453.5,A,d,O,d,385,1,400.69999998807907,532052.8000000119,7044,WL,C,12.0
4,27.557000160217285,learn,32442.999839782715,Thu Feb 06 2025 18:47:35 GMT-0600 (Central Standard Time),532736.6000000238,A,do,O,o,240,1,683.8000000119209,532052.8000000119,7044,WL,C,12.0
4,27.740000009536743,learn,32259.999990463257,Thu Feb 06 2025 18:47:35 GMT-0600 (Central Standard Time),532919.9000000358,A,doc,O,c,153,1,867.1000000238419,532052.8000000119,7044,WL,C,12.0
4,28.057000160217285,learn,31942.999839782715,Thu Feb 06 2025 18:47:35 GMT-0600 (Central Standard Time),533236.6000000238,A,doct,O,t,275,1,1183.800000011921,532052.8000000119,7044,WL,C,12.0
4,28.27400016784668,learn,31725.99983215332,Thu Feb 06 2025 18:47:35 GMT-0600 (Central Standard Time),533453.1000000238,A,docto,O,o,170,1,1400.300000011921,532052.8000000119,7044,WL,C,12.0
4,28.574000120162964,learn,31425.999879837036,Thu Feb 06 2025 18:47:35 GMT-0600 (Central Standard Time),533753.1000000238,A,doctor,O,r,262,1,1700.300000011921,532052.8000000119,7044,WL,C,12.0
4,29.639000177383423,learn,30360.999822616577,Thu Feb 06 2025 18:47:35 GMT-0600 (Central Standard Time),534818.6000000238,A,doctorenter,O,enter,1024,1,2765.800000011921,532052.8000000119,7044,WL,C,12.0
4,30.02300000190735,learn,29976.99999809265,Thu Feb 06 2025 18:47:35 GMT-0600 (Central Standard Time),535202.7000000477,A,w,O,w,370,1,383.7000000476837,534819.0,7044,WL,C,13.0
4,30.240000009536743,learn,29759.999990463257,Thu Feb 06 2025 18:47:35 GMT-0600 (Central Standard Time),535419.2000000477,A,wh,O,h,166,1,600.2000000476837,534819.0,7044,WL,C,13.0
4,30.473000049591064,learn,29526.999950408936,Thu Feb 06 2025 18:47:35 GMT-0600 (Central Standard Time),535652.4000000358,A,whe,O,e,192,1,833.4000000357628,534819.0,7044,WL,C,13.0
4,30.706000089645386,learn,29293.999910354614,Thu Feb 06 2025 18:47:35 GMT-0600 (Central Standard Time),535885.9000000358,A,whea,O,a,198,1,1066.9000000357628,534819.0,7044,WL,C,13.0
4,31.058000087738037,learn,28941.999912261963,Thu Feb 06 2025 18:47:35 GMT-0600 (Central Standard Time),536235.5,A,whear,O,r,309,1,1416.5,534819.0,7044,WL,C,13.0
4,31.924000024795532,learn,28075.999975204468,Thu Feb 06 2025 18:47:35 GMT-0600 (Central Standard Time),537102.0,A,whea,O,backspace,826,1,2283.0,534819.0,7044,WL,C,13.0
4,32.14100003242493,learn,27858.999967575073,Thu Feb 06 2025 18:47:35 GMT-0600 (Central Standard Time),537318.2000000477,A,wheat,O,t,181,1,2499.2000000476837,534819.0,7044,WL,C,13.0
4,32.507000207901,learn,27492.999792099,Thu Feb 06 2025 18:47:35 GMT-0600 (Central Standard Time),537684.2000000477,A,wheatenter,O,enter,327,1,2865.2000000476837,534819.0,7044,WL,C,13.0
4,37.75600004196167,learn,22243.99995803833,Thu Feb 06 2025 18:47:35 GMT-0600 (Central Standard Time),542933.3000000119,A,s,O,s,5225,1,5248.800000011921,537684.5,7044,WL,C,14.0
4,38.32200002670288,learn,21677.99997329712,Thu Feb 06 2025 18:47:35 GMT-0600 (Central Standard Time),543499.6000000238,A,sj,O,j,533,1,5815.100000023842,537684.5,7044,WL,C,14.0
4,39.039000034332275,learn,20960.999965667725,Thu Feb 06 2025 18:47:35 GMT-0600 (Central Standard Time),544216.2000000477,A,s,O,backspace,674,1,6531.700000047684,537684.5,7044,WL,C,14.0
4,39.455000162124634,learn,20544.999837875366,Thu Feb 06 2025 18:47:35 GMT-0600 (Central Standard Time),544632.9000000358,A,sh,O,h,374,1,6948.400000035763,537684.5,7044,WL,C,14.0
4,39.688000202178955,learn,20311.999797821045,Thu Feb 06 2025 18:47:35 GMT-0600 (Central Standard Time),544866.1000000238,A,sho,O,o,196,1,7181.600000023842,537684.5,7044,WL,C,14.0
4,39.955000162124634,learn,20044.999837875366,Thu Feb 06 2025 18:47:35 GMT-0600 (Central Standard Time),545132.7000000477,A,shor,O,r,224,1,7448.200000047684,537684.5,7044,WL,C,14.0
4,40.25500011444092,learn,19744.999885559082,Thu Feb 06 2025 18:47:35 GMT-0600 (Central Standard Time),545432.6000000238,A,shore,O,e,250,1,7748.100000023842,537684.5,7044,WL,C,14.0
4,40.48800015449524,learn,19511.99984550476,Thu Feb 06 2025 18:47:35 GMT-0600 (Central Standard Time),545665.3000000119,A,shoreenter,O,enter,185,1,7980.800000011921,537684.5,7044,WL,C,14.0
4,43.40500020980835,learn,16594.99979019165,Thu Feb 06 2025 18:47:35 GMT-0600 (Central Standard Time),548582.2000000477,A,q,O,q,2908,1,2916.600000023842,545665.6000000238,7044,WL,C,15.0
4,43.98699998855591,learn,16013.000011444092,Thu Feb 06 2025 18:47:35 GMT-0600 (Central Standard Time),549164.4000000358,A,qu,O,u,532,1,3498.800000011921,545665.6000000238,7044,WL,C,15.0
4,44.187000036239624,learn,15812.999963760376,Thu Feb 06 2025 18:47:35 GMT-0600 (Central Standard Time),549364.6000000238,A,que,O,e,158,1,3699.0,545665.6000000238,7044,WL,C,15.0
4,44.40400004386902,learn,15595.999956130981,Thu Feb 06 2025 18:47:35 GMT-0600 (Central Standard Time),549581.1000000238,A,quee,O,e,166,1,3915.5,545665.6000000238,7044,WL,C,15.0
4,44.57000017166138,learn,15429.999828338623,Thu Feb 06 2025 18:47:35 GMT-0600 (Central Standard Time),549747.7000000477,A,queen,O,n,119,1,4082.100000023842,545665.6000000238,7044,WL,C,15.0
4,44.986000061035156,learn,15013.999938964844,Thu Feb 06 2025 18:47:35 GMT-0600 (Central Standard Time),550163.5,A,queenenter,O,enter,373,1,4497.899999976158,545665.6000000238,7044,WL,C,15.0
5,0.7339999675750732,learn,60000.0,Thu Feb 06 2025 18:47:35 GMT-0600 (Central Standard Time),617726.5,A,c,O,c,703,1,733.7999999523163,616992.7000000477,7044,WL,C,1.0
5,0.932999849319458,learn,60000.0,Thu Feb 06 2025 18:47:35 GMT-0600 (Central Standard Time),617925.8000000119,A,co,O,o,164,1,933.0999999642372,616992.7000000477,7044,WL,C,1.0
5,1.182999849319458,learn,60000.0,Thu Feb 06 2025 18:47:35 GMT-0600 (Central Standard Time),618175.3000000119,A,cor,O,r,208,1,1182.5999999642372,616992.7000000477,7044,WL,C,1.0
5,1.3329999446868896,learn,60000.0,Thu Feb 06 2025 18:47:35 GMT-0600 (Central Standard Time),618326.0,A,corn,O,n,116,1,1333.2999999523163,616992.7000000477,7044,WL,C,1.0
5,1.8320000171661377,learn,60000.0,Thu Feb 06 2025 18:47:35 GMT-0600 (Central Standard Time),618824.4000000358,A,cornenter,O,enter,461,1,1831.699999988079,616992.7000000477,7044,WL,C,1.0
5,2.2159998416900635,learn,60000.0,Thu Feb 06 2025 18:47:35 GMT-0600 (Central Standard Time),619208.4000000358,A,l,O,l,373,1,383.80000001192093,618824.6000000238,7044,WL,C,2.0
5,2.3499999046325684,learn,60000.0,Thu Feb 06 2025 18:47:35 GMT-0600 (Central Standard Time),619342.3000000119,A,le,O,e,99,1,517.6999999880791,618824.6000000238,7044,WL,C,2.0
5,2.615999937057495,learn,60000.0,Thu Feb 06 2025 18:47:35 GMT-0600 (Central Standard Time),619608.4000000358,A,let,O,t,234,1,783.8000000119209,618824.6000000238,7044,WL,C,2.0
5,2.7990000247955322,learn,60000.0,Thu Feb 06 2025 18:47:35 GMT-0600 (Central Standard Time),619791.5,A,lett,O,t,151,1,966.8999999761581,618824.6000000238,7044,WL,C,2.0
5,2.9819998741149902,learn,60000.0,Thu Feb 06 2025 18:47:35 GMT-0600 (Central Standard Time),619974.6000000238,A,lette,O,e,155,1,1150.0,618824.6000000238,7044,WL,C,2.0
5,3.0820000171661377,learn,60000.0,Thu Feb 06 2025 18:47:35 GMT-0600 (Central Standard Time),620074.3000000119,A,letter,O,r,66,1,1249.699999988079,618824.6000000238,7044,WL,C,2.0
5,3.447999954223633,learn,60000.0,Thu Feb 06 2025 18:47:35 GMT-0600 (Central Standard Time),620440.4000000358,A,letterenter,O,enter,342,1,1615.800000011921,618824.6000000238,7044,WL,C,2.0
5,4.148000001907349,learn,60000.0,Thu Feb 06 2025 18:47:35 GMT-0600 (Central Standard Time),621141.2000000477,A,f,O,f,676,1,700.5,620440.7000000477,7044,WL,C,3.0
5,4.914999961853027,learn,60000.0,Thu Feb 06 2025 18:47:35 GMT-0600 (Central Standard Time),621907.6000000238,A,fl,O,l,723,1,1466.8999999761581,620440.7000000477,7044,WL,C,3.0
5,5.148000001907349,learn,60000.0,Thu Feb 06 2025 18:47:35 GMT-0600 (Central Standard Time),622140.7000000477,A,fla,O,a,183,1,1700.0,620440.7000000477,7044,WL,C,3.0
5,5.414999961853027,learn,60000.0,Thu Feb 06 2025 18:47:35 GMT-0600 (Central Standard Time),622407.4000000358,A,flaf,O,f,221,1,1966.699999988079,620440.7000000477,7044,WL,C,3.0
5,6.113999843597412,learn,60000.0,Thu Feb 06 2025 18:47:35 GMT-0600 (Central Standard Time),623107.0,A,fla,O,backspace,665,1,2666.2999999523163,620440.7000000477,7044,WL,C,3.0
5,6.2809998989105225,learn,60000.0,Thu Feb 06 2025 18:47:35 GMT-0600 (Central Standard Time),623273.8000000119,A,flag,O,g,121,1,2833.099999964237,620440.7000000477,7044,WL,C,3.0
5,6.646999835968018,learn,60000.0,Thu Feb 06 2025 18:47:35 GMT-0600 (Central Standard Time),623639.4000000358,A,flagenter,O,enter,328,1,3198.699999988079,620440.7000000477,7044,WL,C,3.0
5,7.863999843597412,learn,60000.0,Thu Feb 06 2025 18:47:35 GMT-0600 (Central Standard Time),624856.5,A,v,O,v,1206,1,1216.7999999523163,623639.7000000477,7044,WL,C,4.0
5,8.396999835968018,learn,60000.0,Thu Feb 06 2025 18:47:35 GMT-0600 (Central Standard Time),625390.1000000238,A,,O,backspace,503,1,1750.3999999761581,623639.7000000477,7044,WL,C,4.0
5,8.563999891281128,learn,60000.0,Thu Feb 06 2025 18:47:35 GMT-0600 (Central Standard Time),625556.3000000119,A,b,O,b,120,1,1916.5999999642372,623639.7000000477,7044,WL,C,4.0
5,8.79699993133545,learn,60000.0,Thu Feb 06 2025 18:47:35 GMT-0600 (Central Standard Time),625789.5,A,bo,O,o,182,1,2149.7999999523163,623639.7000000477,7044,WL,C,4.0
5,9.213000059127808,learn,60000.0,Thu Feb 06 2025 18:47:35 GMT-0600 (Central Standard Time),626206.0,A,bod,O,d,385,1,2566.2999999523163,623639.7000000477,7044,WL,C,4.0
5,9.713000059127808,learn,60000.0,Thu Feb 06 2025 18:47:35 GMT-0600 (Central Standard Time),626706.0,A,body,O,y,465,1,3066.2999999523163,623639.7000000477,7044,WL,C,4.0
5,10.19599986076355,learn,60000.0,Thu Feb 06 2025 18:47:35 GMT-0600 (Central Standard Time),627188.2000000477,A,bodyenter,O,enter,439,1,3548.5,623639.7000000477,7044,WL,C,4.0
5,10.662999868392944,learn,60000.0,Thu Feb 06 2025 18:47:35 GMT-0600 (Central Standard Time),627655.8000000119,A,n,O,n,457,1,467.30000001192093,627188.5,7044,WL,C,5.0
5,10.912999868392944,learn,60000.0,Thu Feb 06 2025 18:47:35 GMT-0600 (Central Standard Time),627905.6000000238,A,na,O,a,221,1,717.1000000238419,627188.5,7044,WL,C,5.0
5,11.046000003814697,learn,60000.0,Thu Feb 06 2025 18:47:35 GMT-0600 (Central Standard Time),628038.6000000238,A,nai,O,i,97,1,850.1000000238419,627188.5,7044,WL,C,5.0
5,11.496000051498413,learn,60000.0,Thu Feb 06 2025 18:47:35 GMT-0600 (Central Standard Time),628488.8000000119,A,nail,O,l,419,1,1300.300000011921,627188.5,7044,WL,C,5.0
5,11.994999885559082,learn,60000.0,Thu Feb 06 2025 18:47:35 GMT-0600 (Central Standard Time),628987.6000000238,A,nailenter,O,enter,455,1,1799.1000000238419,627188.5,7044,WL,C,5.0
5,13.361999988555908,learn,60000.0,Thu Feb 06 2025 18:47:35 GMT-0600 (Central Standard Time),630355.0,A,s,O,s,1354,1,1367.0999999642372,628987.9000000358,7044,WL,C,6.0
5,13.460999965667725,learn,60000.0,Thu Feb 06 2025 18:47:35 GMT-0600 (Central Standard Time),630454.1000000238,A,sh,O,h,70,1,1466.199999988079,628987.9000000358,7044,WL,C,6.0
5,13.694999933242798,learn,60000.0,Thu Feb 06 2025 18:47:35 GMT-0600 (Central Standard Time),630688.3000000119,A,sho,O,o,211,1,1700.3999999761581,628987.9000000358,7044,WL,C,6.0
5,13.861000061035156,learn,60000.0,Thu Feb 06 2025 18:47:35 GMT-0600 (Central Standard Time),630853.9000000358,A,shor,O,r,136,1,1866.0,628987.9000000358,7044,WL,C,6.0
5,14.312000036239624,learn,60000.0,Thu Feb 06 2025 18:47:35 GMT-0600 (Central Standard Time),631304.8000000119,A,shore,O,e,437,1,2316.899999976158,628987.9000000358,7044,WL,C,6.0
5,14.76199984550476,learn,60000.0,Thu Feb 06 2025 18:47:35 GMT-0600 (Central Standard Time),631754.4000000358,A,shoreenter,O,enter,412,1,2766.5,628987.9000000358,7044,WL,C,6.0
5,20.05999994277954,learn,60000.0,Thu Feb 06 2025 18:47:35 GMT-0600 (Central Standard Time),637052.6000000238,A,c,O,c,5283,1,5297.899999976158,631754.7000000477,7044,WL,C,7.0
5,20.30999994277954,learn,60000.0,Thu Feb 06 2025 18:47:35 GMT-0600 (Central Standard Time),637302.5,A,ca,O,a,206,1,5547.799999952316,631754.7000000477,7044,WL,C,7.0
5,20.609999895095825,learn,60000.0,Thu Feb 06 2025 18:47:35 GMT-0600 (Central Standard Time),637602.3000000119,A,cat,O,t,263,1,5847.599999964237,631754.7000000477,7044,WL,C,7.0
5,20.80999994277954,learn,60000.0,Thu Feb 06 2025 18:47:35 GMT-0600 (Central Standard Time),637802.3000000119,A,catt,O,t,163,1,6047.599999964237,631754.7000000477,7044,WL,C,7.0
5,21.026000022888184,learn,60000.0,Thu Feb 06 2025 18:47:35 GMT-0600 (Central Standard Time),638019.0,A,cattl,O,l,177,1,6264.299999952316,631754.7000000477,7044,WL,C,7.0
5,21.292999982833862,learn,60000.0,Thu Feb 06 2025 18:47:35 GMT-0600 (Central Standard Time),638285.4000000358,A,cattle,O,e,223,1,6530.699999988079,631754.7000000477,7044,WL,C,7.0
5,21.70899987220764,learn,60000.0,Thu Feb 06 2025 18:47:35 GMT-0600 (Central Standard Time),638701.1000000238,A,cattleenter,O,enter,374,1,6946.399999976158,631754.7000000477,7044,WL,C,7.0
5,27.10800004005432,learn,60000.0,Thu Feb 06 2025 18:47:35 GMT-0600 (Central Standard Time),644100.3000000119,A,b,O,b,5384,1,5398.899999976158,638701.4000000358,7044,WL,C,8.0
5,27.740999937057495,learn,60000.0,Thu Feb 06 2025 18:47:35 GMT-0600 (Central Standard Time),644733.4000000358,A,bo,O,o,589,1,6032.0,638701.4000000358,7044,WL,C,8.0
5,28.090999841690063,learn,60000.0,Thu Feb 06 2025 18:47:35 GMT-0600 (Central Standard Time),645083.3000000119,A,bod,O,d,310,1,6381.899999976158,638701.4000000358,7044,WL,C,8.0
5,28.2739999294281,learn,60000.0,Thu Feb 06 2025 18:47:35 GMT-0600 (Central Standard Time),645266.5,A,body,O,y,144,1,6565.099999964237,638701.4000000358,7044,WL,C,8.0
5,28.805999994277954,learn,60000.0,Thu Feb 06 2025 18:47:35 GMT-0600 (Central Standard Time),645798.8000000119,A,bodyenter,O,enter,487,1,7097.399999976158,638701.4000000358,7044,WL,C,8.0
5,30.35699987411499,learn,60000.0,Thu Feb 06 2025 18:47:35 GMT-0600 (Central Standard Time),647349.3000000119,A,d,O,d,1527,1,1550.199999988079,645799.1000000238,7044,WL,C,9.0
5,30.50600004196167,learn,60000.0,Thu Feb 06 2025 18:47:35 GMT-0600 (Central Standard Time),647498.6000000238,A,do,O,o,109,1,1699.5,645799.1000000238,7044,WL,C,9.0
5,30.705999851226807,learn,60000.0,Thu Feb 06 2025 18:47:35 GMT-0600 (Central Standard Time),647699.0,A,doc,O,c,176,1,1899.8999999761581,645799.1000000238,7044,WL,C,9.0
5,31.00600004196167,learn,60000.0,Thu Feb 06 2025 18:47:35 GMT-0600 (Central Standard Time),647999.0,A,doct,O,t,265,1,2199.899999976158,645799.1000000238,7044,WL,C,9.0
5,31.1729998588562,learn,60000.0,Thu Feb 06 2025 18:47:35 GMT-0600 (Central Standard Time),648165.9000000358,A,docto,O,o,133,1,2366.800000011921,645799.1000000238,7044,WL,C,9.0
5,31.322999954223633,learn,60000.0,Thu Feb 06 2025 18:47:35 GMT-0600 (Central Standard Time),648315.4000000358,A,doctor,O,r,112,1,2516.300000011921,645799.1000000238,7044,WL,C,9.0
5,31.67199993133545,learn,60000.0,Thu Feb 06 2025 18:47:35 GMT-0600 (Central Standard Time),648664.6000000238,A,doctorenter,O,enter,314,1,2865.5,645799.1000000238,7044,WL,C,9.0
5,41.82099986076355,learn,60000.0,Thu Feb 06 2025 18:47:35 GMT-0600 (Central Standard Time),658812.3000000119,A,c,O,c,10132,1,10147.5,648664.8000000119,7044,WL,C,10.0
5,43.355000019073486,learn,60000.0,Thu Feb 06 2025 18:47:35 GMT-0600 (Central Standard Time),660345.5,A,,O,backspace,1488,1,11680.699999988079,648664.8000000119,7044,WL,C,10.0
5,44.419999837875366,learn,60000.0,Thu Feb 06 2025 18:47:35 GMT-0600 (Central Standard Time),661411.4000000358,A,c,O,c,1028,1,12746.600000023842,648664.8000000119,7044,WL,C,10.0
5,44.603999853134155,learn,60000.0,Thu Feb 06 2025 18:47:35 GMT-0600 (Central Standard Time),661594.6000000238,A,ca,O,a,144,1,12929.800000011921,648664.8000000119,7044,WL,C,10.0
5,44.88699984550476,learn,60000.0,Thu Feb 06 2025 18:47:35 GMT-0600 (Central Standard Time),661877.8000000119,A,cam,O,m,241,1,13213.0,648664.8000000119,7044,WL,C,10.0
5,45.20300006866455,learn,60000.0,Thu Feb 06 2025 18:47:35 GMT-0600 (Central Standard Time),662194.3000000119,A,camp,O,p,275,1,13529.5,648664.8000000119,7044,WL,C,10.0
5,45.86899995803833,learn,60000.0,Thu Feb 06 2025 18:47:35 GMT-0600 (Central Standard Time),662859.9000000358,A,campenter,O,enter,624,1,14195.100000023842,648664.8000000119,7044,WL,C,10.0
5,105.88599991798401,learn,60000.0,Thu Feb 06 2025 18:47:35 GMT-0600 (Central Standard Time),722874.8000000119,A,None,O,None,60006,1,60014.59999996424,662860.2000000477,7044,WL,C,11.0
6,1.7330000400543213,distr,58266.99995994568,Thu Feb 06 2025 18:47:35 GMT-0600 (Central Standard Time),802865.5,B,s,O,s,1690,1,1733.0999999642372,801132.4000000358,7044,WL,C,1.0
6,1.8989999294281006,distr,58101.0000705719,Thu Feb 06 2025 18:47:35 GMT-0600 (Central Standard Time),803031.2000000477,B,sk,O,k,120,1,1898.800000011921,801132.4000000358,7044,WL,C,1.0
6,2.2149999141693115,distr,57785.00008583069,Thu Feb 06 2025 18:47:35 GMT-0600 (Central Standard Time),803347.4000000358,B,sky,O,y,275,1,2215.0,801132.4000000358,7044,WL,C,1.0
6,3.9149999618530273,distr,56085.00003814697,Thu Feb 06 2025 18:47:35 GMT-0600 (Central Standard Time),805046.7000000477,B,skyenter,O,enter,1662,1,3914.300000011921,801132.4000000358,7044,WL,C,1.0
6,4.2820000648498535,distr,55717.99993515015,Thu Feb 06 2025 18:47:35 GMT-0600 (Central Standard Time),805414.1000000238,B,v,O,v,350,1,367.10000002384186,805047.0,7044,WL,C,2.0
6,4.5320000648498535,distr,55467.99993515015,Thu Feb 06 2025 18:47:35 GMT-0600 (Central Standard Time),805664.2000000477,B,va,O,a,214,1,617.2000000476837,805047.0,7044,WL,C,2.0
6,4.697999954223633,distr,55302.00004577637,Thu Feb 06 2025 18:47:35 GMT-0600 (Central Standard Time),805830.6000000238,B,val,O,l,124,1,783.6000000238419,805047.0,7044,WL,C,2.0
6,4.865000009536743,distr,55134.99999046326,Thu Feb 06 2025 18:47:35 GMT-0600 (Central Standard Time),805997.1000000238,B,vall,O,l,118,1,950.1000000238419,805047.0,7044,WL,C,2.0
6,4.947999954223633,distr,55052.00004577637,Thu Feb 06 2025 18:47:35 GMT-0600 (Central Standard Time),806079.9000000358,B,valle,O,e,43,1,1032.9000000357628,805047.0,7044,WL,C,2.0
6,5.148000001907349,distr,54851.99999809265,Thu Feb 06 2025 18:47:35 GMT-0600 (Central Standard Time),806280.5,B,valley,O,y,166,1,1233.5,805047.0,7044,WL,C,2.0
6,5.5309998989105225,distr,54469.00010108948,Thu Feb 06 2025 18:47:35 GMT-0600 (Central Standard Time),806662.9000000358,B,valleyenter,O,enter,347,1,1615.9000000357628,805047.0,7044,WL,C,2.0
6,6.230999946594238,distr,53769.00005340576,Thu Feb 06 2025 18:47:35 GMT-0600 (Central Standard Time),807363.3000000119,B,h,O,h,678,1,700.0999999642372,806663.2000000477,7044,WL,C,3.0
6,6.3480000495910645,distr,53651.999950408936,Thu Feb 06 2025 18:47:35 GMT-0600 (Central Standard Time),807480.1000000238,B,ha,O,a,78,1,816.8999999761581,806663.2000000477,7044,WL,C,3.0
6,6.497999906539917,distr,53502.00009346008,Thu Feb 06 2025 18:47:35 GMT-0600 (Central Standard Time),807630.6000000238,B,hal,O,l,114,1,967.3999999761581,806663.2000000477,7044,WL,C,3.0
6,6.664000034332275,distr,53335.999965667725,Thu Feb 06 2025 18:47:35 GMT-0600 (Central Standard Time),807796.7000000477,B,hall,O,l,125,1,1133.5,806663.2000000477,7044,WL,C,3.0
6,7.329999923706055,distr,52670.000076293945,Thu Feb 06 2025 18:47:35 GMT-0600 (Central Standard Time),808462.2000000477,B,hallenter,O,enter,624,1,1799.0,806663.2000000477,7044,WL,C,3.0
6,7.746999979019165,distr,52253.000020980835,Thu Feb 06 2025 18:47:35 GMT-0600 (Central Standard Time),808879.6000000238,B,n,O,n,406,1,417.10000002384186,808462.5,7044,WL,C,4.0
6,8.21399998664856,distr,51786.00001335144,Thu Feb 06 2025 18:47:35 GMT-0600 (Central Standard Time),809346.2000000477,B,,O,backspace,425,1,883.7000000476837,808462.5,7044,WL,C,4.0
6,8.763999938964844,distr,51236.000061035156,Thu Feb 06 2025 18:47:35 GMT-0600 (Central Standard Time),809896.1000000238,B,m,O,m,516,1,1433.6000000238419,808462.5,7044,WL,C,4.0
6,8.930000066757202,distr,51069.9999332428,Thu Feb 06 2025 18:47:35 GMT-0600 (Central Standard Time),810062.3000000119,B,mo,O,o,135,1,1599.800000011921,808462.5,7044,WL,C,4.0
6,9.164000034332275,distr,50835.999965667725,Thu Feb 06 2025 18:47:35 GMT-0600 (Central Standard Time),810295.9000000358,B,mot,O,t,198,1,1833.4000000357628,808462.5,7044,WL,C,4.0
6,9.27999997138977,distr,50720.00002861023,Thu Feb 06 2025 18:47:35 GMT-0600 (Central Standard Time),810412.4000000358,B,moth,O,h,84,1,1949.9000000357628,808462.5,7044,WL,C,4.0
6,9.397000074386597,distr,50602.9999256134,Thu Feb 06 2025 18:47:35 GMT-0600 (Central Standard Time),810528.8000000119,B,mothe,O,e,85,1,2066.300000011921,808462.5,7044,WL,C,4.0
6,9.478999853134155,distr,50521.000146865845,Thu Feb 06 2025 18:47:35 GMT-0600 (Central Standard Time),810611.6000000238,B,mother,O,r,48,1,2149.100000023842,808462.5,7044,WL,C,4.0
6,9.828999996185303,distr,50171.0000038147,Thu Feb 06 2025 18:47:35 GMT-0600 (Central Standard Time),810961.5,B,motherenter,O,enter,312,1,2499.0,808462.5,7044,WL,C,4.0
6,10.180000066757202,distr,49819.9999332428,Thu Feb 06 2025 18:47:35 GMT-0600 (Central Standard Time),811312.2000000477,B,d,O,d,332,1,350.5,810961.7000000477,7044,WL,C,5.0
6,10.329999923706055,distr,49670.000076293945,Thu Feb 06 2025 18:47:35 GMT-0600 (Central Standard Time),811462.2000000477,B,di,O,i,111,1,500.5,810961.7000000477,7044,WL,C,5.0
6,10.895999908447266,distr,49104.000091552734,Thu Feb 06 2025 18:47:35 GMT-0600 (Central Standard Time),812028.6000000238,B,dia,O,a,521,1,1066.8999999761581,810961.7000000477,7044,WL,C,5.0
6,11.180000066757202,distr,48819.9999332428,Thu Feb 06 2025 18:47:35 GMT-0600 (Central Standard Time),812311.8000000119,B,diam,O,m,252,1,1350.0999999642372,810961.7000000477,7044,WL,C,5.0
6,11.345999956130981,distr,48654.00004386902,Thu Feb 06 2025 18:47:35 GMT-0600 (Central Standard Time),812478.3000000119,B,diamo,O,o,130,1,1516.5999999642372,810961.7000000477,7044,WL,C,5.0
6,11.595999956130981,distr,48404.00004386902,Thu Feb 06 2025 18:47:35 GMT-0600 (Central Standard Time),812728.5,B,diamon,O,n,219,1,1766.7999999523163,810961.7000000477,7044,WL,C,5.0
6,11.845999956130981,distr,48154.00004386902,Thu Feb 06 2025 18:47:35 GMT-0600 (Central Standard Time),812978.2000000477,B,diamond,O,d,203,1,2016.5,810961.7000000477,7044,WL,C,5.0
6,12.17799997329712,distr,47822.00002670288,Thu Feb 06 2025 18:47:35 GMT-0600 (Central Standard Time),813310.6000000238,B,diamondenter,O,enter,297,1,2348.899999976158,810961.7000000477,7044,WL,C,5.0
6,16.444999933242798,distr,43555.0000667572,Thu Feb 06 2025 18:47:35 GMT-0600 (Central Standard Time),817576.8000000119,B,c,O,c,4247,1,4266.0,813310.8000000119,7044,WL,C,6.0
6,17.060999870300293,distr,42939.00012969971,Thu Feb 06 2025 18:47:35 GMT-0600 (Central Standard Time),818193.3000000119,B,ch,O,h,574,1,4882.5,813310.8000000119,7044,WL,C,6.0
6,17.64400005340576,distr,42355.99994659424,Thu Feb 06 2025 18:47:35 GMT-0600 (Central Standard Time),818776.3000000119,B,c,O,backspace,547,1,5465.5,813310.8000000119,7044,WL,C,6.0
6,17.82800006866455,distr,42171.99993133545,Thu Feb 06 2025 18:47:35 GMT-0600 (Central Standard Time),818959.7000000477,B,,O,backspace,150,1,5648.900000035763,813310.8000000119,7044,WL,C,6.0
6,18.01099991798401,distr,41989.00008201599,Thu Feb 06 2025 18:47:35 GMT-0600 (Central Standard Time),819142.9000000358,B,w,O,w,145,1,5832.100000023842,813310.8000000119,7044,WL,C,6.0
6,18.16100001335144,distr,41838.99998664856,Thu Feb 06 2025 18:47:35 GMT-0600 (Central Standard Time),819292.9000000358,B,wi,O,i,113,1,5982.100000023842,813310.8000000119,7044,WL,C,6.0
6,18.460000038146973,distr,41539.99996185303,Thu Feb 06 2025 18:47:35 GMT-0600 (Central Standard Time),819592.7000000477,B,win,O,n,262,1,6281.900000035763,813310.8000000119,7044,WL,C,6.0
6,18.82699990272522,distr,41173.00009727478,Thu Feb 06 2025 18:47:35 GMT-0600 (Central Standard Time),819959.5,B,wint,O,t,329,1,6648.699999988079,813310.8000000119,7044,WL,C,6.0
6,19.126999855041504,distr,40873.000144958496,Thu Feb 06 2025 18:47:35 GMT-0600 (Central Standard Time),820259.2000000477,B,winte,O,e,253,1,6948.400000035763,813310.8000000119,7044,WL,C,6.0
6,19.32699990272522,distr,40673.00009727478,Thu Feb 06 2025 18:47:35 GMT-0600 (Central Standard Time),820459.2000000477,B,winter,O,r,160,1,7148.400000035763,813310.8000000119,7044,WL,C,6.0
6,19.793999910354614,distr,40206.000089645386,Thu Feb 06 2025 18:47:35 GMT-0600 (Central Standard Time),820925.7000000477,B,winterenter,O,enter,437,1,7614.900000035763,813310.8000000119,7044,WL,C,6.0
6,27.04099988937378,distr,32959.00011062622,Thu Feb 06 2025 18:47:35 GMT-0600 (Central Standard Time),828173.3000000119,B,h,O,h,7225,1,7247.300000011921,820926.0,7044,WL,C,7.0
6,27.174000024795532,distr,32825.99997520447,Thu Feb 06 2025 18:47:35 GMT-0600 (Central Standard Time),828306.3000000119,B,ha,O,a,85,1,7380.300000011921,820926.0,7044,WL,C,7.0
6,27.473999977111816,distr,32526.000022888184,Thu Feb 06 2025 18:47:35 GMT-0600 (Central Standard Time),828606.4000000358,B,hal,O,l,260,1,7680.400000035763,820926.0,7044,WL,C,7.0
6,28.157000064849854,distr,31842.999935150146,Thu Feb 06 2025 18:47:35 GMT-0600 (Central Standard Time),829289.7000000477,B,hall,O,l,643,1,8363.700000047684,820926.0,7044,WL,C,7.0
6,28.723999977111816,distr,31276.000022888184,Thu Feb 06 2025 18:47:35 GMT-0600 (Central Standard Time),829856.1000000238,B,hal,O,backspace,522,1,8930.100000023842,820926.0,7044,WL,C,7.0
6,29.539999961853027,distr,30460.000038146973,Thu Feb 06 2025 18:47:35 GMT-0600 (Central Standard Time),830672.5,B,ha,O,backspace,784,1,9746.5,820926.0,7044,WL,C,7.0
6,29.789999961853027,distr,30210.000038146973,Thu Feb 06 2025 18:47:35 GMT-0600 (Central Standard Time),830922.4000000358,B,h,O,backspace,201,1,9996.400000035763,820926.0,7044,WL,C,7.0
6,29.990000009536743,distr,30009.999990463257,Thu Feb 06 2025 18:47:35 GMT-0600 (Central Standard Time),831122.4000000358,B,,O,backspace,153,1,10196.400000035763,820926.0,7044,WL,C,7.0
6,60.04900002479553,distr,-49.00002479553223,Thu Feb 06 2025 18:47:35 GMT-0600 (Central Standard Time),861179.2000000477,B,None,O,None,30026,1,40253.200000047684,820926.0,7044,WL,C,7.0
7,19.676999807357788,immed,40323.00019264221,Thu Feb 06 2025 18:47:35 GMT-0600 (Central Standard Time),882405.8000000119,A,w,O,w,19633,1,19676.599999964237,862729.2000000477,7044,WL,C,1.0
7,20.8439998626709,immed,39156.0001373291,Thu Feb 06 2025 18:47:35 GMT-0600 (Central Standard Time),883571.9000000358,A,wh,O,h,1116,1,20842.69999998808,862729.2000000477,7044,WL,C,1.0
7,20.960000038146973,immed,39039.99996185303,Thu Feb 06 2025 18:47:35 GMT-0600 (Central Standard Time),883688.4000000358,A,whe,O,e,81,1,20959.19999998808,862729.2000000477,7044,WL,C,1.0
7,21.22699999809265,immed,38773.00000190735,Thu Feb 06 2025 18:47:35 GMT-0600 (Central Standard Time),883955.1000000238,A,whea,O,a,227,1,21225.899999976158,862729.2000000477,7044,WL,C,1.0
7,21.57699990272522,immed,38423.00009727478,Thu Feb 06 2025 18:47:35 GMT-0600 (Central Standard Time),884304.9000000358,A,whear,O,r,317,1,21575.69999998808,862729.2000000477,7044,WL,C,1.0
7,22.259999990463257,immed,37740.00000953674,Thu Feb 06 2025 18:47:35 GMT-0600 (Central Standard Time),884988.0,A,whea,O,backspace,643,1,22258.799999952316,862729.2000000477,7044,WL,C,1.0
7,22.575999975204468,immed,37424.00002479553,Thu Feb 06 2025 18:47:35 GMT-0600 (Central Standard Time),885304.6000000238,A,wheat,O,t,280,1,22575.399999976158,862729.2000000477,7044,WL,C,1.0
7,23.342000007629395,immed,36657.999992370605,Thu Feb 06 2025 18:47:35 GMT-0600 (Central Standard Time),886070.2000000477,A,wheatenter,O,enter,726,1,23341.0,862729.2000000477,7044,WL,C,1.0
7,26.691999912261963,immed,33308.00008773804,Thu Feb 06 2025 18:47:35 GMT-0600 (Central Standard Time),889420.0,A,s,O,s,3327,1,3349.5,886070.5,7044,WL,C,2.0
7,26.991999864578247,immed,33008.00013542175,Thu Feb 06 2025 18:47:35 GMT-0600 (Central Standard Time),889720.0,A,sk,O,k,264,1,3649.5,886070.5,7044,WL,C,2.0
7,27.391000032424927,immed,32608.999967575073,Thu Feb 06 2025 18:47:35 GMT-0600 (Central Standard Time),890119.4000000358,A,sky,O,y,368,1,4048.900000035763,886070.5,7044,WL,C,2.0
7,28.039999961853027,immed,31960.000038146973,Thu Feb 06 2025 18:47:35 GMT-0600 (Central Standard Time),890768.7000000477,A,skyenter,O,enter,610,1,4698.200000047684,886070.5,7044,WL,C,2.0
7,37.4229998588562,immed,22577.0001411438,Thu Feb 06 2025 18:47:35 GMT-0600 (Central Standard Time),900149.9000000358,A,s,O,s,9357,1,9381.0,890768.9000000358,7044,WL,C,3.0
7,37.62299990653992,immed,22377.000093460083,Thu Feb 06 2025 18:47:35 GMT-0600 (Central Standard Time),900349.7000000477,A,sh,O,h,151,1,9580.800000011921,890768.9000000358,7044,WL,C,3.0
7,37.78999996185303,immed,22210.000038146973,Thu Feb 06 2025 18:47:35 GMT-0600 (Central Standard Time),900516.2000000477,A,sho,O,o,126,1,9747.300000011921,890768.9000000358,7044,WL,C,3.0
7,38.07299995422363,immed,21927.000045776367,Thu Feb 06 2025 18:47:35 GMT-0600 (Central Standard Time),900799.4000000358,A,shor,O,r,249,1,10030.5,890768.9000000358,7044,WL,C,3.0
7,38.48899984359741,immed,21511.000156402588,Thu Feb 06 2025 18:47:35 GMT-0600 (Central Standard Time),901216.0,A,shore,O,e,382,1,10447.099999964237,890768.9000000358,7044,WL,C,3.0
7,38.82200002670288,immed,21177.99997329712,Thu Feb 06 2025 18:47:35 GMT-0600 (Central Standard Time),901548.4000000358,A,shoreenter,O,enter,291,1,10779.5,890768.9000000358,7044,WL,C,3.0
7,40.555999994277954,immed,19444.000005722046,Thu Feb 06 2025 18:47:35 GMT-0600 (Central Standard Time),903282.1000000238,A,f,O,f,1713,1,1733.3999999761581,901548.7000000477,7044,WL,C,4.0
7,40.75499987602234,immed,19245.00012397766,Thu Feb 06 2025 18:47:35 GMT-0600 (Central Standard Time),903481.9000000358,A,fl,O,l,162,1,1933.199999988079,901548.7000000477,7044,WL,C,4.0
7,40.92199993133545,immed,19078.00006866455,Thu Feb 06 2025 18:47:35 GMT-0600 (Central Standard Time),903648.6000000238,A,fla,O,a,134,1,2099.899999976158,901548.7000000477,7044,WL,C,4.0
7,41.42199993133545,immed,18578.00006866455,Thu Feb 06 2025 18:47:35 GMT-0600 (Central Standard Time),904148.4000000358,A,flaf,O,f,460,1,2599.699999988079,901548.7000000477,7044,WL,C,4.0
7,42.08799982070923,immed,17912.00017929077,Thu Feb 06 2025 18:47:35 GMT-0600 (Central Standard Time),904814.9000000358,A,fla,O,backspace,628,1,3266.199999988079,901548.7000000477,7044,WL,C,4.0
7,42.25499987602234,immed,17745.00012397766,Thu Feb 06 2025 18:47:35 GMT-0600 (Central Standard Time),904981.5,A,flag,O,g,125,1,3432.7999999523163,901548.7000000477,7044,WL,C,4.0
7,42.72099995613098,immed,17279.00004386902,Thu Feb 06 2025 18:47:35 GMT-0600 (Central Standard Time),905447.2000000477,A,flagenter,O,enter,433,1,3898.5,901548.7000000477,7044,WL,C,4.0
7,43.07099986076355,immed,16929.00013923645,Thu Feb 06 2025 18:47:35 GMT-0600 (Central Standard Time),905797.9000000358,A,c,O,c,326,1,350.5,905447.4000000358,7044,WL,C,5.0
7,43.25499987602234,immed,16745.00012397766,Thu Feb 06 2025 18:47:35 GMT-0600 (Central Standard Time),905981.2000000477,A,ca,O,a,141,1,533.8000000119209,905447.4000000358,7044,WL,C,5.0
7,43.437999963760376,immed,16562.000036239624,Thu Feb 06 2025 18:47:35 GMT-0600 (Central Standard Time),906164.4000000358,A,cam,O,m,135,1,717.0,905447.4000000358,7044,WL,C,5.0
7,44.05399990081787,immed,15946.000099182129,Thu Feb 06 2025 18:47:35 GMT-0600 (Central Standard Time),906780.8000000119,A,camo,O,o,566,1,1333.3999999761581,905447.4000000358,7044,WL,C,5.0
7,44.65399980545044,immed,15346.00019454956,Thu Feb 06 2025 18:47:35 GMT-0600 (Central Standard Time),907380.6000000238,A,cam,O,backspace,562,1,1933.199999988079,905447.4000000358,7044,WL,C,5.0
7,44.98699998855591,immed,15013.000011444092,Thu Feb 06 2025 18:47:35 GMT-0600 (Central Standard Time),907713.9000000358,A,camp,O,p,290,1,2266.5,905447.4000000358,7044,WL,C,5.0
7,45.620999813079834,immed,14379.000186920166,Thu Feb 06 2025 18:47:35 GMT-0600 (Central Standard Time),908347.9000000358,A,campenter,O,enter,598,1,2900.5,905447.4000000358,7044,WL,C,5.0
7,60.01600003242493,immed,-16.000032424926758,Thu Feb 06 2025 18:47:35 GMT-0600 (Central Standard Time),922742.4000000358,A,None,O,None,14386,1,14394.199999988079,908348.2000000477,7044,WL,C,6.0
