block_c,block_dur,condition,countdown,datetime,endtime,list,multichar_response,project,response,response_time,session_number,start_end,starttime,subject_id,task,task_vers,trial
,,,,Wed Sep 18 2024 18:04:18 GMT-0500 (Central Daylight Time),,,,I,space,835,1,,,8007,WL,C,
prac,,0,,Wed Sep 18 2024 18:04:18 GMT-0500 (Central Daylight Time),,NA,d,I,d,13967,1,,,8007,WL,C,1.0
prac,,0,,Wed Sep 18 2024 18:04:18 GMT-0500 (Central Daylight Time),,NA,db,I,b,485,1,,,8007,WL,C,1.0
prac,,0,,Wed Sep 18 2024 18:04:18 GMT-0500 (Central Daylight Time),,NA,dbo,I,o,131,1,,,8007,WL,C,1.0
prac,,0,,Wed Sep 18 2024 18:04:18 GMT-0500 (Central Daylight Time),,NA,dboo,I,o,149,1,,,8007,WL,C,1.0
prac,,0,,Wed Sep 18 2024 18:04:18 GMT-0500 (Central Daylight Time),,NA,dboos,I,s,88,1,,,8007,WL,C,1.0
prac,,0,,Wed Sep 18 2024 18:04:18 GMT-0500 (Central Daylight Time),,NA,dboost,I,t,131,1,,,8007,WL,C,1.0
prac,,0,,Wed Sep 18 2024 18:04:18 GMT-0500 (Central Daylight Time),,NA,dboos,I,backspace,862,1,,,8007,WL,C,1.0
prac,,0,,Wed Sep 18 2024 18:04:18 GMT-0500 (Central Daylight Time),,NA,dboo,I,backspace,236,1,,,8007,WL,C,1.0
prac,,0,,Wed Sep 18 2024 18:04:18 GMT-0500 (Central Daylight Time),,NA,dbo,I,backspace,386,1,,,8007,WL,C,1.0
prac,,0,,Wed Sep 18 2024 18:04:18 GMT-0500 (Central Daylight Time),,NA,db,I,backspace,170,1,,,8007,WL,C,1.0
prac,,0,,Wed Sep 18 2024 18:04:18 GMT-0500 (Central Daylight Time),,NA,d,I,backspace,410,1,,,8007,WL,C,1.0
prac,,0,,Wed Sep 18 2024 18:04:18 GMT-0500 (Central Daylight Time),,NA,,I,backspace,241,1,,,8007,WL,C,1.0
prac,,0,,Wed Sep 18 2024 18:04:18 GMT-0500 (Central Daylight Time),,NA,b,I,b,871,1,,,8007,WL,C,1.0
prac,,0,,Wed Sep 18 2024 18:04:18 GMT-0500 (Central Daylight Time),,NA,bo,I,o,157,1,,,8007,WL,C,1.0
prac,,0,,Wed Sep 18 2024 18:04:18 GMT-0500 (Central Daylight Time),,NA,boo,I,o,173,1,,,8007,WL,C,1.0
prac,,0,,Wed Sep 18 2024 18:04:18 GMT-0500 (Central Daylight Time),,NA,boos,I,s,159,1,,,8007,WL,C,1.0
prac,,0,,Wed Sep 18 2024 18:04:18 GMT-0500 (Central Daylight Time),,NA,boost,I,t,128,1,,,8007,WL,C,1.0
prac,,0,,Wed Sep 18 2024 18:04:18 GMT-0500 (Central Daylight Time),,NA,boostenter,I,enter,3092,1,,,8007,WL,C,1.0
1,1.3829998970031738,learn,58617.000102996826,Wed Sep 18 2024 18:04:18 GMT-0500 (Central Daylight Time),156832.09999999963,A,t,I,t,1364,1,1380.7999999998137,155451.2999999998,8007,WL,C,1.0
1,1.6989998817443848,learn,58301.000118255615,Wed Sep 18 2024 18:04:18 GMT-0500 (Central Daylight Time),157148.39999999944,A,to,I,o,309,1,1697.0999999996275,155451.2999999998,8007,WL,C,1.0
1,1.9830000400543213,learn,58016.99995994568,Wed Sep 18 2024 18:04:18 GMT-0500 (Central Daylight Time),157431.7000000002,A,tow,I,w,267,1,1980.4000000003725,155451.2999999998,8007,WL,C,1.0
1,2.065999984741211,learn,57934.00001525879,Wed Sep 18 2024 18:04:18 GMT-0500 (Central Daylight Time),157514.7999999998,A,towe,I,e,70,1,2063.5,155451.2999999998,8007,WL,C,1.0
1,2.2330000400543213,learn,57766.99995994568,Wed Sep 18 2024 18:04:18 GMT-0500 (Central Daylight Time),157681.7000000002,A,tower,I,r,156,1,2230.4000000003725,155451.2999999998,8007,WL,C,1.0
1,10.846999883651733,learn,49153.00011634827,Wed Sep 18 2024 18:04:18 GMT-0500 (Central Daylight Time),166295.59999999963,A,towerenter,I,enter,8605,1,10844.299999999814,155451.2999999998,8007,WL,C,1.0
1,11.94700002670288,learn,48052.99997329712,Wed Sep 18 2024 18:04:18 GMT-0500 (Central Daylight Time),167395.7000000002,A,w,I,w,1085,1,1099.300000000745,166296.39999999944,8007,WL,C,2.0
1,12.062999963760376,learn,47937.000036239624,Wed Sep 18 2024 18:04:18 GMT-0500 (Central Daylight Time),167512.0,A,wh,I,h,107,1,1215.6000000005588,166296.39999999944,8007,WL,C,2.0
1,12.296000003814697,learn,47703.9999961853,Wed Sep 18 2024 18:04:18 GMT-0500 (Central Daylight Time),167745.2000000002,A,whe,I,e,214,1,1448.800000000745,166296.39999999944,8007,WL,C,2.0
1,12.779000043869019,learn,47220.99995613098,Wed Sep 18 2024 18:04:18 GMT-0500 (Central Daylight Time),168228.2000000002,A,whea,I,a,477,1,1931.800000000745,166296.39999999944,8007,WL,C,2.0
1,12.895999908447266,learn,47104.000091552734,Wed Sep 18 2024 18:04:18 GMT-0500 (Central Daylight Time),168345.0,A,wheat,I,t,106,1,2048.600000000559,166296.39999999944,8007,WL,C,2.0
1,13.595999956130981,learn,46404.00004386902,Wed Sep 18 2024 18:04:18 GMT-0500 (Central Daylight Time),169044.7999999998,A,wheatenter,I,enter,686,1,2748.4000000003725,166296.39999999944,8007,WL,C,2.0
1,14.046000003814697,learn,45953.9999961853,Wed Sep 18 2024 18:04:18 GMT-0500 (Central Daylight Time),169494.59999999963,A,c,I,c,433,1,449.20000000018626,169045.39999999944,8007,WL,C,3.0
1,14.145999908447266,learn,45854.000091552734,Wed Sep 18 2024 18:04:18 GMT-0500 (Central Daylight Time),169594.7000000002,A,co,I,o,88,1,549.3000000007451,169045.39999999944,8007,WL,C,3.0
1,14.279000043869019,learn,45720.99995613098,Wed Sep 18 2024 18:04:18 GMT-0500 (Central Daylight Time),169728.09999999963,A,cor,I,r,124,1,682.7000000001863,169045.39999999944,8007,WL,C,3.0
1,14.479000091552734,learn,45520.999908447266,Wed Sep 18 2024 18:04:18 GMT-0500 (Central Daylight Time),169927.7999999998,A,corn,I,n,190,1,882.4000000003725,169045.39999999944,8007,WL,C,3.0
1,14.76200008392334,learn,45237.99991607666,Wed Sep 18 2024 18:04:18 GMT-0500 (Central Daylight Time),170211.0,A,cornenter,I,enter,262,1,1165.6000000005588,169045.39999999944,8007,WL,C,3.0
1,15.428999900817871,learn,44571.00009918213,Wed Sep 18 2024 18:04:18 GMT-0500 (Central Daylight Time),170877.7000000002,A,c,I,c,660,1,666.0,170211.7000000002,8007,WL,C,4.0
1,15.562000036239624,learn,44437.999963760376,Wed Sep 18 2024 18:04:18 GMT-0500 (Central Daylight Time),171010.89999999944,A,ca,I,a,111,1,799.1999999992549,170211.7000000002,8007,WL,C,4.0
1,15.678999900817871,learn,44321.00009918213,Wed Sep 18 2024 18:04:18 GMT-0500 (Central Daylight Time),171127.5,A,cat,I,t,108,1,915.7999999998137,170211.7000000002,8007,WL,C,4.0
1,15.911999940872192,learn,44088.00005912781,Wed Sep 18 2024 18:04:18 GMT-0500 (Central Daylight Time),171360.7000000002,A,catt,I,t,215,1,1149.0,170211.7000000002,8007,WL,C,4.0
1,16.02999997138977,learn,43970.00002861023,Wed Sep 18 2024 18:04:18 GMT-0500 (Central Daylight Time),171478.5,A,cattl,I,l,110,1,1266.7999999998137,170211.7000000002,8007,WL,C,4.0
1,16.213000059127808,learn,43786.99994087219,Wed Sep 18 2024 18:04:18 GMT-0500 (Central Daylight Time),171661.7999999998,A,cattle,I,e,176,1,1450.0999999996275,170211.7000000002,8007,WL,C,4.0
1,16.411999940872192,learn,43588.00005912781,Wed Sep 18 2024 18:04:18 GMT-0500 (Central Daylight Time),171860.39999999944,A,cattleenter,I,enter,192,1,1648.699999999255,170211.7000000002,8007,WL,C,4.0
1,17.244999885559082,learn,42755.00011444092,Wed Sep 18 2024 18:04:18 GMT-0500 (Central Daylight Time),172693.59999999963,A,q,I,q,819,1,832.8999999994412,171860.7000000002,8007,WL,C,5.0
1,17.34500002861023,learn,42654.99997138977,Wed Sep 18 2024 18:04:18 GMT-0500 (Central Daylight Time),172793.59999999963,A,qu,I,u,87,1,932.8999999994412,171860.7000000002,8007,WL,C,5.0
1,17.51099991798401,learn,42489.00008201599,Wed Sep 18 2024 18:04:18 GMT-0500 (Central Daylight Time),172960.2000000002,A,que,I,e,149,1,1099.5,171860.7000000002,8007,WL,C,5.0
1,18.128000020980835,learn,41871.999979019165,Wed Sep 18 2024 18:04:18 GMT-0500 (Central Daylight Time),173576.7999999998,A,quee,I,e,598,1,1716.0999999996275,171860.7000000002,8007,WL,C,5.0
1,18.378000020980835,learn,41621.999979019165,Wed Sep 18 2024 18:04:18 GMT-0500 (Central Daylight Time),173826.7999999998,A,queen,I,n,239,1,1966.0999999996275,171860.7000000002,8007,WL,C,5.0
1,19.293999910354614,learn,40706.000089645386,Wed Sep 18 2024 18:04:18 GMT-0500 (Central Daylight Time),174743.0,A,queenenter,I,enter,909,1,2882.2999999998137,171860.7000000002,8007,WL,C,5.0
1,20.444000005722046,learn,39555.999994277954,Wed Sep 18 2024 18:04:18 GMT-0500 (Central Daylight Time),175892.39999999944,A,c,I,c,1143,1,1148.8999999994412,174743.5,8007,WL,C,6.0
1,20.609999895095825,learn,39390.000104904175,Wed Sep 18 2024 18:04:18 GMT-0500 (Central Daylight Time),176059.2999999998,A,ca,I,a,154,1,1315.7999999998137,174743.5,8007,WL,C,6.0
1,21.22699999809265,learn,38773.00000190735,Wed Sep 18 2024 18:04:18 GMT-0500 (Central Daylight Time),176676.0,A,cat,I,t,612,1,1932.5,174743.5,8007,WL,C,6.0
1,21.42799997329712,learn,38572.00002670288,Wed Sep 18 2024 18:04:18 GMT-0500 (Central Daylight Time),176876.89999999944,A,catt,I,t,186,1,2133.399999999441,174743.5,8007,WL,C,6.0
1,21.57699990272522,learn,38423.00009727478,Wed Sep 18 2024 18:04:18 GMT-0500 (Central Daylight Time),177025.7000000002,A,cattl,I,l,130,1,2282.2000000001863,174743.5,8007,WL,C,6.0
1,21.72699999809265,learn,38273.00000190735,Wed Sep 18 2024 18:04:18 GMT-0500 (Central Daylight Time),177175.7000000002,A,cattle,I,e,142,1,2432.2000000001863,174743.5,8007,WL,C,6.0
1,22.491999864578247,learn,37508.00013542175,Wed Sep 18 2024 18:04:18 GMT-0500 (Central Daylight Time),177941.89999999944,A,cattleenter,I,enter,752,1,3198.399999999441,174743.5,8007,WL,C,6.0
1,25.674999952316284,learn,34325.000047683716,Wed Sep 18 2024 18:04:18 GMT-0500 (Central Daylight Time),181125.5,A,q,I,q,3177,1,3183.2999999998137,177942.2000000002,8007,WL,C,7.0
1,25.823999881744385,learn,34176.000118255615,Wed Sep 18 2024 18:04:18 GMT-0500 (Central Daylight Time),181274.39999999944,A,qu,I,u,129,1,3332.199999999255,177942.2000000002,8007,WL,C,7.0
1,25.990999937057495,learn,34009.000062942505,Wed Sep 18 2024 18:04:18 GMT-0500 (Central Daylight Time),181441.0,A,que,I,e,157,1,3498.7999999998137,177942.2000000002,8007,WL,C,7.0
1,26.2739999294281,learn,33726.0000705719,Wed Sep 18 2024 18:04:18 GMT-0500 (Central Daylight Time),181724.09999999963,A,quee,I,e,270,1,3781.899999999441,177942.2000000002,8007,WL,C,7.0
1,26.5239999294281,learn,33476.0000705719,Wed Sep 18 2024 18:04:18 GMT-0500 (Central Daylight Time),181974.2999999998,A,queen,I,n,235,1,4032.0999999996275,177942.2000000002,8007,WL,C,7.0
1,26.823999881744385,learn,33176.000118255615,Wed Sep 18 2024 18:04:18 GMT-0500 (Central Daylight Time),182273.89999999944,A,queenenter,I,enter,281,1,4331.699999999255,177942.2000000002,8007,WL,C,7.0
1,49.08299994468689,learn,10917.00005531311,Wed Sep 18 2024 18:04:18 GMT-0500 (Central Daylight Time),204533.59999999963,A,enter,I,enter,22253,1,22259.299999999814,182274.2999999998,8007,WL,C,8.0
1,50.700000047683716,learn,9299.999952316284,Wed Sep 18 2024 18:04:18 GMT-0500 (Central Daylight Time),206150.09999999963,A,enter,I,enter,1609,1,1616.2000000001863,204533.89999999944,8007,WL,C,9.0
1,51.00099992752075,learn,8999.000072479248,Wed Sep 18 2024 18:04:18 GMT-0500 (Central Daylight Time),206450.89999999944,A,enter,I,enter,280,1,300.3999999994412,206150.5,8007,WL,C,10.0
1,51.21600008010864,learn,8783.999919891357,Wed Sep 18 2024 18:04:18 GMT-0500 (Central Daylight Time),206666.39999999944,A,enter,I,enter,195,1,215.09999999962747,206451.2999999998,8007,WL,C,11.0
1,51.41599988937378,learn,8584.00011062622,Wed Sep 18 2024 18:04:18 GMT-0500 (Central Daylight Time),206866.2999999998,A,enter,I,enter,189,1,199.5,206666.7999999998,8007,WL,C,12.0
1,51.632999897003174,learn,8367.000102996826,Wed Sep 18 2024 18:04:18 GMT-0500 (Central Daylight Time),207082.7999999998,A,enter,I,enter,205,1,216.09999999962747,206866.7000000002,8007,WL,C,13.0
1,51.89999985694885,learn,8100.0001430511475,Wed Sep 18 2024 18:04:18 GMT-0500 (Central Daylight Time),207349.89999999944,A,enter,I,enter,262,1,266.59999999962747,207083.2999999998,8007,WL,C,14.0
1,52.24900007247925,learn,7750.999927520752,Wed Sep 18 2024 18:04:18 GMT-0500 (Central Daylight Time),207699.2999999998,A,enter,I,enter,328,1,349.0,207350.2999999998,8007,WL,C,15.0
2,1.0160000324249268,learn,58983.99996757507,Wed Sep 18 2024 18:04:18 GMT-0500 (Central Daylight Time),278577.0999999996,A,t,I,t,998,1,1016.0,277561.0999999996,8007,WL,C,1.0
2,1.2339999675750732,learn,58766.00003242493,Wed Sep 18 2024 18:04:18 GMT-0500 (Central Daylight Time),278795.0,A,to,I,o,205,1,1233.9000000003725,277561.0999999996,8007,WL,C,1.0
2,1.4160001277923584,learn,58583.99987220764,Wed Sep 18 2024 18:04:18 GMT-0500 (Central Daylight Time),278977.2000000002,A,tow,I,w,172,1,1416.1000000005588,277561.0999999996,8007,WL,C,1.0
2,1.5329999923706055,learn,58467.000007629395,Wed Sep 18 2024 18:04:18 GMT-0500 (Central Daylight Time),279093.89999999944,A,towe,I,e,102,1,1532.7999999998137,277561.0999999996,8007,WL,C,1.0
2,1.6990001201629639,learn,58300.999879837036,Wed Sep 18 2024 18:04:18 GMT-0500 (Central Daylight Time),279260.2000000002,A,tower,I,r,146,1,1699.1000000005588,277561.0999999996,8007,WL,C,1.0
2,2.0989999771118164,learn,57901.00002288818,Wed Sep 18 2024 18:04:18 GMT-0500 (Central Daylight Time),279660.0999999996,A,towerenter,I,enter,386,1,2099.0,277561.0999999996,8007,WL,C,1.0
2,2.5490000247955322,learn,57450.99997520447,Wed Sep 18 2024 18:04:18 GMT-0500 (Central Daylight Time),280109.89999999944,A,w,I,w,442,1,449.3999999994412,279660.5,8007,WL,C,2.0
2,2.7150001525878906,learn,57284.99984741211,Wed Sep 18 2024 18:04:18 GMT-0500 (Central Daylight Time),280276.39999999944,A,wh,I,h,161,1,615.8999999994412,279660.5,8007,WL,C,2.0
2,2.8320000171661377,learn,57167.99998283386,Wed Sep 18 2024 18:04:18 GMT-0500 (Central Daylight Time),280393.0,A,whe,I,e,106,1,732.5,279660.5,8007,WL,C,2.0
2,3.0320000648498535,learn,56967.99993515015,Wed Sep 18 2024 18:04:18 GMT-0500 (Central Daylight Time),280593.2000000002,A,when,I,n,190,1,932.7000000001863,279660.5,8007,WL,C,2.0
2,3.699000120162964,learn,56300.999879837036,Wed Sep 18 2024 18:04:18 GMT-0500 (Central Daylight Time),281259.5999999996,A,whe,I,backspace,653,1,1599.0999999996275,279660.5,8007,WL,C,2.0
2,4.5320000648498535,learn,55467.99993515015,Wed Sep 18 2024 18:04:18 GMT-0500 (Central Daylight Time),282092.89999999944,A,whea,I,a,819,1,2432.399999999441,279660.5,8007,WL,C,2.0
2,4.648000001907349,learn,55351.99999809265,Wed Sep 18 2024 18:04:18 GMT-0500 (Central Daylight Time),282209.5,A,wheat,I,t,98,1,2549.0,279660.5,8007,WL,C,2.0
2,5.3480000495910645,learn,54651.999950408936,Wed Sep 18 2024 18:04:18 GMT-0500 (Central Daylight Time),282909.0999999996,A,wheatenter,I,enter,694,1,3248.5999999996275,279660.5,8007,WL,C,2.0
2,6.29800009727478,learn,53701.99990272522,Wed Sep 18 2024 18:04:18 GMT-0500 (Central Daylight Time),283858.89999999944,A,q,I,q,937,1,949.5999999996275,282909.2999999998,8007,WL,C,3.0
2,6.398000001907349,learn,53601.99999809265,Wed Sep 18 2024 18:04:18 GMT-0500 (Central Daylight Time),283958.7000000002,A,qu,I,u,83,1,1049.4000000003725,282909.2999999998,8007,WL,C,3.0
2,6.564000129699707,learn,53435.99987030029,Wed Sep 18 2024 18:04:18 GMT-0500 (Central Daylight Time),284125.39999999944,A,que,I,e,160,1,1216.0999999996275,282909.2999999998,8007,WL,C,3.0
2,6.79800009727478,learn,53201.99990272522,Wed Sep 18 2024 18:04:18 GMT-0500 (Central Daylight Time),284358.7999999998,A,quee,I,e,226,1,1449.5,282909.2999999998,8007,WL,C,3.0
2,6.947000026702881,learn,53052.99997329712,Wed Sep 18 2024 18:04:18 GMT-0500 (Central Daylight Time),284508.2999999998,A,queen,I,n,143,1,1599.0,282909.2999999998,8007,WL,C,3.0
2,7.564000129699707,learn,52435.99987030029,Wed Sep 18 2024 18:04:18 GMT-0500 (Central Daylight Time),285125.0,A,queenenter,I,enter,610,1,2215.7000000001863,282909.2999999998,8007,WL,C,3.0
2,8.064000129699707,learn,51935.99987030029,Wed Sep 18 2024 18:04:18 GMT-0500 (Central Daylight Time),285624.89999999944,A,c,I,c,483,1,499.59999999962747,285125.2999999998,8007,WL,C,4.0
2,8.164000034332275,learn,51835.999965667725,Wed Sep 18 2024 18:04:18 GMT-0500 (Central Daylight Time),285724.7999999998,A,co,I,o,87,1,599.5,285125.2999999998,8007,WL,C,4.0
2,8.297000169754028,learn,51702.99983024597,Wed Sep 18 2024 18:04:18 GMT-0500 (Central Daylight Time),285858.2000000002,A,cor,I,r,122,1,732.9000000003725,285125.2999999998,8007,WL,C,4.0
2,8.481000185012817,learn,51518.99981498718,Wed Sep 18 2024 18:04:18 GMT-0500 (Central Daylight Time),286041.5999999996,A,corn,I,n,165,1,916.2999999998137,285125.2999999998,8007,WL,C,4.0
2,8.746999979019165,learn,51253.000020980835,Wed Sep 18 2024 18:04:18 GMT-0500 (Central Daylight Time),286307.7000000002,A,cornenter,I,enter,254,1,1182.4000000003725,285125.2999999998,8007,WL,C,4.0
2,10.047000169754028,learn,49952.99983024597,Wed Sep 18 2024 18:04:18 GMT-0500 (Central Daylight Time),287607.5999999996,A,b,I,b,1283,1,1299.5999999996275,286308.0,8007,WL,C,5.0
2,10.163000106811523,learn,49836.99989318848,Wed Sep 18 2024 18:04:18 GMT-0500 (Central Daylight Time),287724.0999999996,A,bo,I,o,111,1,1416.0999999996275,286308.0,8007,WL,C,5.0
2,10.397000074386597,learn,49602.9999256134,Wed Sep 18 2024 18:04:18 GMT-0500 (Central Daylight Time),287957.5999999996,A,boy,I,y,219,1,1649.5999999996275,286308.0,8007,WL,C,5.0
2,10.713000059127808,learn,49286.99994087219,Wed Sep 18 2024 18:04:18 GMT-0500 (Central Daylight Time),288274.0,A,boyenter,I,enter,306,1,1966.0,286308.0,8007,WL,C,5.0
2,12.713000059127808,learn,47286.99994087219,Wed Sep 18 2024 18:04:18 GMT-0500 (Central Daylight Time),290273.5999999996,A,s,I,s,1989,1,1999.2000000001863,288274.39999999944,8007,WL,C,6.0
2,12.796000003814697,learn,47203.9999961853,Wed Sep 18 2024 18:04:18 GMT-0500 (Central Daylight Time),290356.7999999998,A,sh,I,h,70,1,2082.4000000003725,288274.39999999944,8007,WL,C,6.0
2,12.913000106811523,learn,47086.99989318848,Wed Sep 18 2024 18:04:18 GMT-0500 (Central Daylight Time),290473.5,A,sho,I,o,98,1,2199.100000000559,288274.39999999944,8007,WL,C,6.0
2,13.078999996185303,learn,46921.0000038147,Wed Sep 18 2024 18:04:18 GMT-0500 (Central Daylight Time),290640.2999999998,A,shor,I,r,150,1,2365.9000000003725,288274.39999999944,8007,WL,C,6.0
2,13.245000123977661,learn,46754.99987602234,Wed Sep 18 2024 18:04:18 GMT-0500 (Central Daylight Time),290806.5999999996,A,shore,I,e,150,1,2532.2000000001863,288274.39999999944,8007,WL,C,6.0
2,13.712000131607056,learn,46287.999868392944,Wed Sep 18 2024 18:04:18 GMT-0500 (Central Daylight Time),291273.2000000002,A,shoreenter,I,enter,457,1,2998.800000000745,288274.39999999944,8007,WL,C,6.0
2,14.295000076293945,learn,45704.999923706055,Wed Sep 18 2024 18:04:18 GMT-0500 (Central Daylight Time),291856.2999999998,A,h,I,h,566,1,582.7000000001863,291273.5999999996,8007,WL,C,7.0
2,14.379000186920166,learn,45620.999813079834,Wed Sep 18 2024 18:04:18 GMT-0500 (Central Daylight Time),291939.7000000002,A,ho,I,o,71,1,666.1000000005588,291273.5999999996,8007,WL,C,7.0
2,14.611999988555908,learn,45388.00001144409,Wed Sep 18 2024 18:04:18 GMT-0500 (Central Daylight Time),292172.89999999944,A,hom,I,m,219,1,899.2999999998137,291273.5999999996,8007,WL,C,7.0
2,14.795000076293945,learn,45204.999923706055,Wed Sep 18 2024 18:04:18 GMT-0500 (Central Daylight Time),292356.2000000002,A,home,I,e,170,1,1082.6000000005588,291273.5999999996,8007,WL,C,7.0
2,14.995000123977661,learn,45004.99987602234,Wed Sep 18 2024 18:04:18 GMT-0500 (Central Daylight Time),292556.0,A,homeenter,I,enter,187,1,1282.4000000003725,291273.5999999996,8007,WL,C,7.0
2,16.011000156402588,learn,43988.99984359741,Wed Sep 18 2024 18:04:18 GMT-0500 (Central Daylight Time),293572.5,A,f,I,f,1003,1,1016.1000000005588,292556.39999999944,8007,WL,C,8.0
2,16.144999980926514,learn,43855.000019073486,Wed Sep 18 2024 18:04:18 GMT-0500 (Central Daylight Time),293705.89999999944,A,fl,I,l,122,1,1149.5,292556.39999999944,8007,WL,C,8.0
2,16.394999980926514,learn,43605.000019073486,Wed Sep 18 2024 18:04:18 GMT-0500 (Central Daylight Time),293955.7000000002,A,fla,I,a,230,1,1399.300000000745,292556.39999999944,8007,WL,C,8.0
2,16.794000148773193,learn,43205.99985122681,Wed Sep 18 2024 18:04:18 GMT-0500 (Central Daylight Time),294355.5,A,flag,I,g,378,1,1799.1000000005588,292556.39999999944,8007,WL,C,8.0
2,17.07800006866455,learn,42921.99993133545,Wed Sep 18 2024 18:04:18 GMT-0500 (Central Daylight Time),294638.5999999996,A,flagenter,I,enter,276,1,2082.2000000001863,292556.39999999944,8007,WL,C,8.0
2,17.64400005340576,learn,42355.99994659424,Wed Sep 18 2024 18:04:18 GMT-0500 (Central Daylight Time),295205.2999999998,A,c,I,c,553,1,566.2999999998137,294639.0,8007,WL,C,9.0
2,17.761000156402588,learn,42238.99984359741,Wed Sep 18 2024 18:04:18 GMT-0500 (Central Daylight Time),295321.7000000002,A,ca,I,a,106,1,682.7000000001863,294639.0,8007,WL,C,9.0
2,17.89400005340576,learn,42105.99994659424,Wed Sep 18 2024 18:04:18 GMT-0500 (Central Daylight Time),295455.2000000002,A,cam,I,m,125,1,816.2000000001863,294639.0,8007,WL,C,9.0
2,18.0770001411438,learn,41922.9998588562,Wed Sep 18 2024 18:04:18 GMT-0500 (Central Daylight Time),295638.5,A,camp,I,p,177,1,999.5,294639.0,8007,WL,C,9.0
2,18.527000188827515,learn,41472.999811172485,Wed Sep 18 2024 18:04:18 GMT-0500 (Central Daylight Time),296088.2999999998,A,campenter,I,enter,440,1,1449.2999999998137,294639.0,8007,WL,C,9.0
2,31.871999979019165,learn,28128.000020980835,Wed Sep 18 2024 18:04:18 GMT-0500 (Central Daylight Time),309434.0999999996,A,t,I,t,13327,1,13345.399999999441,296088.7000000002,8007,WL,C,10.0
2,32.88900017738342,learn,27110.999822616577,Wed Sep 18 2024 18:04:18 GMT-0500 (Central Daylight Time),310450.5999999996,A,,I,backspace,1004,1,14361.899999999441,296088.7000000002,8007,WL,C,10.0
2,36.5550000667572,learn,23444.999933242798,Wed Sep 18 2024 18:04:18 GMT-0500 (Central Daylight Time),314116.0999999996,A,enter,I,enter,3661,1,18027.39999999944,296088.7000000002,8007,WL,C,10.0
2,37.004000186920166,learn,22995.999813079834,Wed Sep 18 2024 18:04:18 GMT-0500 (Central Daylight Time),314566.0,A,enter,I,enter,435,1,449.6000000005588,314116.39999999944,8007,WL,C,11.0
2,37.254000186920166,learn,22745.999813079834,Wed Sep 18 2024 18:04:18 GMT-0500 (Central Daylight Time),314815.89999999944,A,enter,I,enter,241,1,249.5,314566.39999999944,8007,WL,C,12.0
2,37.48699998855591,learn,22513.00001144409,Wed Sep 18 2024 18:04:18 GMT-0500 (Central Daylight Time),315049.0999999996,A,enter,I,enter,223,1,232.79999999981374,314816.2999999998,8007,WL,C,13.0
2,37.72100019454956,learn,22278.99980545044,Wed Sep 18 2024 18:04:18 GMT-0500 (Central Daylight Time),315282.2999999998,A,enter,I,enter,213,1,232.90000000037253,315049.39999999944,8007,WL,C,14.0
2,37.9539999961853,learn,22046.000003814697,Wed Sep 18 2024 18:04:18 GMT-0500 (Central Daylight Time),315515.5,A,enter,I,enter,212,1,232.79999999981374,315282.7000000002,8007,WL,C,15.0
3,0.9169998168945312,learn,59083.00018310547,Wed Sep 18 2024 18:04:18 GMT-0500 (Central Daylight Time),385226.89999999944,A,t,I,t,897,1,916.5,384310.39999999944,8007,WL,C,1.0
3,1.0839998722076416,learn,58916.00012779236,Wed Sep 18 2024 18:04:18 GMT-0500 (Central Daylight Time),385393.5999999996,A,to,I,o,147,1,1083.2000000001863,384310.39999999944,8007,WL,C,1.0
3,1.2339999675750732,learn,58766.00003242493,Wed Sep 18 2024 18:04:18 GMT-0500 (Central Daylight Time),385543.5999999996,A,tow,I,w,142,1,1233.2000000001863,384310.39999999944,8007,WL,C,1.0
3,1.366999864578247,learn,58633.00013542175,Wed Sep 18 2024 18:04:18 GMT-0500 (Central Daylight Time),385676.5999999996,A,towe,I,e,128,1,1366.2000000001863,384310.39999999944,8007,WL,C,1.0
3,1.5169999599456787,learn,58483.00004005432,Wed Sep 18 2024 18:04:18 GMT-0500 (Central Daylight Time),385826.89999999944,A,tower,I,r,138,1,1516.5,384310.39999999944,8007,WL,C,1.0
3,1.8499999046325684,learn,58150.00009536743,Wed Sep 18 2024 18:04:18 GMT-0500 (Central Daylight Time),386160.0999999996,A,towerenter,I,enter,325,1,1849.7000000001863,384310.39999999944,8007,WL,C,1.0
3,2.700000047683716,learn,57299.999952316284,Wed Sep 18 2024 18:04:18 GMT-0500 (Central Daylight Time),387009.89999999944,A,w,I,w,831,1,849.5,386160.39999999944,8007,WL,C,2.0
3,2.799999952316284,learn,57200.000047683716,Wed Sep 18 2024 18:04:18 GMT-0500 (Central Daylight Time),387109.7000000002,A,wh,I,h,85,1,949.3000000007451,386160.39999999944,8007,WL,C,2.0
3,2.998999834060669,learn,57001.00016593933,Wed Sep 18 2024 18:04:18 GMT-0500 (Central Daylight Time),387309.5999999996,A,whe,I,e,185,1,1149.2000000001863,386160.39999999944,8007,WL,C,2.0
3,3.1989998817443848,learn,56801.000118255615,Wed Sep 18 2024 18:04:18 GMT-0500 (Central Daylight Time),387509.5,A,whea,I,a,185,1,1349.1000000005588,386160.39999999944,8007,WL,C,2.0
3,3.2990000247955322,learn,56700.99997520447,Wed Sep 18 2024 18:04:18 GMT-0500 (Central Daylight Time),387609.5999999996,A,wheat,I,t,90,1,1449.2000000001863,386160.39999999944,8007,WL,C,2.0
3,4.498999834060669,learn,55501.00016593933,Wed Sep 18 2024 18:04:18 GMT-0500 (Central Daylight Time),388809.2000000002,A,wheatenter,I,enter,1182,1,2648.800000000745,386160.39999999944,8007,WL,C,2.0
3,5.016000032424927,learn,54983.99996757507,Wed Sep 18 2024 18:04:18 GMT-0500 (Central Daylight Time),389325.7000000002,A,q,I,q,502,1,516.2000000001863,388809.5,8007,WL,C,3.0
3,5.165999889373779,learn,54834.00011062622,Wed Sep 18 2024 18:04:18 GMT-0500 (Central Daylight Time),389475.7000000002,A,qu,I,u,138,1,666.2000000001863,388809.5,8007,WL,C,3.0
3,5.248999834060669,learn,54751.00016593933,Wed Sep 18 2024 18:04:18 GMT-0500 (Central Daylight Time),389559.0,A,que,I,e,75,1,749.5,388809.5,8007,WL,C,3.0
3,5.748999834060669,learn,54251.00016593933,Wed Sep 18 2024 18:04:18 GMT-0500 (Central Daylight Time),390058.7999999998,A,quee,I,e,480,1,1249.2999999998137,388809.5,8007,WL,C,3.0
3,6.0,learn,54000.0,Wed Sep 18 2024 18:04:18 GMT-0500 (Central Daylight Time),390309.7000000002,A,queen,I,n,244,1,1500.2000000001863,388809.5,8007,WL,C,3.0
3,6.615000009536743,learn,53384.99999046326,Wed Sep 18 2024 18:04:18 GMT-0500 (Central Daylight Time),390925.2999999998,A,queenenter,I,enter,600,1,2115.7999999998137,388809.5,8007,WL,C,3.0
3,7.047999858856201,learn,52952.0001411438,Wed Sep 18 2024 18:04:18 GMT-0500 (Central Daylight Time),391358.39999999944,A,c,I,c,417,1,432.69999999925494,390925.7000000002,8007,WL,C,4.0
3,7.164999961853027,learn,52835.00003814697,Wed Sep 18 2024 18:04:18 GMT-0500 (Central Daylight Time),391475.7000000002,A,co,I,o,112,1,550.0,390925.7000000002,8007,WL,C,4.0
3,7.31499981880188,learn,52685.00018119812,Wed Sep 18 2024 18:04:18 GMT-0500 (Central Daylight Time),391625.2000000002,A,cor,I,r,140,1,699.5,390925.7000000002,8007,WL,C,4.0
3,7.531999826431274,learn,52468.000173568726,Wed Sep 18 2024 18:04:18 GMT-0500 (Central Daylight Time),391841.7999999998,A,corn,I,n,205,1,916.0999999996275,390925.7000000002,8007,WL,C,4.0
3,8.747999906539917,learn,51252.00009346008,Wed Sep 18 2024 18:04:18 GMT-0500 (Central Daylight Time),393057.89999999944,A,cornenter,I,enter,1206,1,2132.199999999255,390925.7000000002,8007,WL,C,4.0
3,9.280999898910522,learn,50719.00010108948,Wed Sep 18 2024 18:04:18 GMT-0500 (Central Daylight Time),393590.89999999944,A,c,I,c,518,1,532.6999999992549,393058.2000000002,8007,WL,C,5.0
3,9.398000001907349,learn,50601.99999809265,Wed Sep 18 2024 18:04:18 GMT-0500 (Central Daylight Time),393707.7999999998,A,ca,I,a,111,1,649.5999999996275,393058.2000000002,8007,WL,C,5.0
3,9.580999851226807,learn,50419.00014877319,Wed Sep 18 2024 18:04:18 GMT-0500 (Central Daylight Time),393891.0,A,cam,I,m,172,1,832.7999999998137,393058.2000000002,8007,WL,C,5.0
3,9.763999938964844,learn,50236.000061035156,Wed Sep 18 2024 18:04:18 GMT-0500 (Central Daylight Time),394074.2000000002,A,camp,I,p,172,1,1016.0,393058.2000000002,8007,WL,C,5.0
3,10.098000049591064,learn,49901.999950408936,Wed Sep 18 2024 18:04:18 GMT-0500 (Central Daylight Time),394407.5999999996,A,campenter,I,enter,325,1,1349.3999999994412,393058.2000000002,8007,WL,C,5.0
3,10.429999828338623,learn,49570.00017166138,Wed Sep 18 2024 18:04:18 GMT-0500 (Central Daylight Time),394740.39999999944,A,d,I,d,320,1,332.5,394407.89999999944,8007,WL,C,6.0
3,10.54699993133545,learn,49453.00006866455,Wed Sep 18 2024 18:04:18 GMT-0500 (Central Daylight Time),394857.5,A,do,I,o,107,1,449.6000000005588,394407.89999999944,8007,WL,C,6.0
3,10.71399998664856,learn,49286.00001335144,Wed Sep 18 2024 18:04:18 GMT-0500 (Central Daylight Time),395023.7999999998,A,doc,I,c,158,1,615.9000000003725,394407.89999999944,8007,WL,C,6.0
3,10.94700002670288,learn,49052.99997329712,Wed Sep 18 2024 18:04:18 GMT-0500 (Central Daylight Time),395257.0,A,doct,I,t,216,1,849.1000000005588,394407.89999999944,8007,WL,C,6.0
3,11.063999891281128,learn,48936.00010871887,Wed Sep 18 2024 18:04:18 GMT-0500 (Central Daylight Time),395373.7999999998,A,docto,I,o,102,1,965.9000000003725,394407.89999999944,8007,WL,C,6.0
3,11.21399998664856,learn,48786.00001335144,Wed Sep 18 2024 18:04:18 GMT-0500 (Central Daylight Time),395524.0999999996,A,doctor,I,r,138,1,1116.2000000001863,394407.89999999944,8007,WL,C,6.0
3,11.575000047683716,learn,48424.999952316284,Wed Sep 18 2024 18:04:18 GMT-0500 (Central Daylight Time),395884.7999999998,A,doctorenter,I,enter,356,1,1476.9000000003725,394407.89999999944,8007,WL,C,6.0
3,13.062999963760376,learn,46937.000036239624,Wed Sep 18 2024 18:04:18 GMT-0500 (Central Daylight Time),397373.2999999998,A,s,I,s,1475,1,1488.2999999998137,395885.0,8007,WL,C,7.0
3,13.145999908447266,learn,46854.000091552734,Wed Sep 18 2024 18:04:18 GMT-0500 (Central Daylight Time),397456.5,A,sh,I,h,66,1,1571.5,395885.0,8007,WL,C,7.0
3,13.230000019073486,learn,46769.999980926514,Wed Sep 18 2024 18:04:18 GMT-0500 (Central Daylight Time),397539.7000000002,A,sho,I,o,78,1,1654.7000000001863,395885.0,8007,WL,C,7.0
3,13.395999908447266,learn,46604.000091552734,Wed Sep 18 2024 18:04:18 GMT-0500 (Central Daylight Time),397706.5,A,shor,I,r,148,1,1821.5,395885.0,8007,WL,C,7.0
3,13.513000011444092,learn,46486.99998855591,Wed Sep 18 2024 18:04:18 GMT-0500 (Central Daylight Time),397823.0,A,shore,I,e,101,1,1938.0,395885.0,8007,WL,C,7.0
3,13.728999853134155,learn,46271.000146865845,Wed Sep 18 2024 18:04:18 GMT-0500 (Central Daylight Time),398039.5,A,shoreenter,I,enter,208,1,2154.5,395885.0,8007,WL,C,7.0
3,15.480000019073486,learn,44519.999980926514,Wed Sep 18 2024 18:04:18 GMT-0500 (Central Daylight Time),399790.2000000002,A,w,I,w,1744,1,1750.4000000003725,398039.7999999998,8007,WL,C,8.0
3,15.645999908447266,learn,44354.000091552734,Wed Sep 18 2024 18:04:18 GMT-0500 (Central Daylight Time),399955.7999999998,A,wh,I,h,144,1,1916.0,398039.7999999998,8007,WL,C,8.0
3,15.812000036239624,learn,44187.999963760376,Wed Sep 18 2024 18:04:18 GMT-0500 (Central Daylight Time),400122.2999999998,A,whe,I,e,148,1,2082.5,398039.7999999998,8007,WL,C,8.0
3,16.01199984550476,learn,43988.00015449524,Wed Sep 18 2024 18:04:18 GMT-0500 (Central Daylight Time),400322.2000000002,A,whea,I,a,181,1,2282.4000000003725,398039.7999999998,8007,WL,C,8.0
3,16.09599995613098,learn,43904.00004386902,Wed Sep 18 2024 18:04:18 GMT-0500 (Central Daylight Time),400405.7000000002,A,wheat,I,t,69,1,2365.9000000003725,398039.7999999998,8007,WL,C,8.0
3,16.378999948501587,learn,43621.00005149841,Wed Sep 18 2024 18:04:18 GMT-0500 (Central Daylight Time),400688.7000000002,A,wheatenter,I,enter,265,1,2648.9000000003725,398039.7999999998,8007,WL,C,8.0
3,21.07699990272522,learn,38923.00009727478,Wed Sep 18 2024 18:04:18 GMT-0500 (Central Daylight Time),405387.39999999944,A,d,I,d,4686,1,4698.399999999441,400689.0,8007,WL,C,9.0
3,21.22699999809265,learn,38773.00000190735,Wed Sep 18 2024 18:04:18 GMT-0500 (Central Daylight Time),405537.2000000002,A,do,I,o,132,1,4848.200000000186,400689.0,8007,WL,C,9.0
3,21.376999855041504,learn,38623.000144958496,Wed Sep 18 2024 18:04:18 GMT-0500 (Central Daylight Time),405687.39999999944,A,doc,I,c,143,1,4998.399999999441,400689.0,8007,WL,C,9.0
3,21.5939998626709,learn,38406.0001373291,Wed Sep 18 2024 18:04:18 GMT-0500 (Central Daylight Time),405903.7999999998,A,doct,I,t,207,1,5214.799999999814,400689.0,8007,WL,C,9.0
3,21.710000038146973,learn,38289.99996185303,Wed Sep 18 2024 18:04:18 GMT-0500 (Central Daylight Time),406020.2999999998,A,docto,I,o,112,1,5331.299999999814,400689.0,8007,WL,C,9.0
3,21.90999984741211,learn,38090.00015258789,Wed Sep 18 2024 18:04:18 GMT-0500 (Central Daylight Time),406220.5,A,doctor,I,r,186,1,5531.5,400689.0,8007,WL,C,9.0
3,22.109999895095825,learn,37890.000104904175,Wed Sep 18 2024 18:04:18 GMT-0500 (Central Daylight Time),406420.5,A,doctorenter,I,enter,187,1,5731.5,400689.0,8007,WL,C,9.0
3,29.590999841690063,learn,30409.000158309937,Wed Sep 18 2024 18:04:18 GMT-0500 (Central Daylight Time),413901.39999999944,A,c,I,c,7466,1,7480.699999999255,406420.7000000002,8007,WL,C,10.0
3,29.72499990463257,learn,30275.00009536743,Wed Sep 18 2024 18:04:18 GMT-0500 (Central Daylight Time),414034.7000000002,A,co,I,o,121,1,7614.0,406420.7000000002,8007,WL,C,10.0
3,29.85800004005432,learn,30141.99995994568,Wed Sep 18 2024 18:04:18 GMT-0500 (Central Daylight Time),414167.89999999944,A,cor,I,r,117,1,7747.199999999255,406420.7000000002,8007,WL,C,10.0
3,30.507999897003174,learn,29492.000102996826,Wed Sep 18 2024 18:04:18 GMT-0500 (Central Daylight Time),414817.7000000002,A,corn,I,n,631,1,8397.0,406420.7000000002,8007,WL,C,10.0
3,30.757999897003174,learn,29242.000102996826,Wed Sep 18 2024 18:04:18 GMT-0500 (Central Daylight Time),415067.89999999944,A,cornenter,I,enter,229,1,8647.199999999255,406420.7000000002,8007,WL,C,10.0
3,41.03699994087219,learn,18963.000059127808,Wed Sep 18 2024 18:04:18 GMT-0500 (Central Daylight Time),425347.7000000002,A,b,I,b,10267,1,10279.5,415068.2000000002,8007,WL,C,11.0
3,41.169999837875366,learn,18830.000162124634,Wed Sep 18 2024 18:04:18 GMT-0500 (Central Daylight Time),425481.0,A,bo,I,o,123,1,10412.799999999814,415068.2000000002,8007,WL,C,11.0
3,41.36999988555908,learn,18630.000114440918,Wed Sep 18 2024 18:04:18 GMT-0500 (Central Daylight Time),425680.89999999944,A,boy,I,y,190,1,10612.699999999255,415068.2000000002,8007,WL,C,11.0
3,41.937000036239624,learn,18062.999963760376,Wed Sep 18 2024 18:04:18 GMT-0500 (Central Daylight Time),426247.5999999996,A,boyenter,I,enter,549,1,11179.399999999441,415068.2000000002,8007,WL,C,11.0
3,42.47000002861023,learn,17529.99997138977,Wed Sep 18 2024 18:04:18 GMT-0500 (Central Daylight Time),426780.7000000002,A,h,I,h,520,1,532.8000000007451,426247.89999999944,8007,WL,C,12.0
3,42.55299997329712,learn,17447.00002670288,Wed Sep 18 2024 18:04:18 GMT-0500 (Central Daylight Time),426863.89999999944,A,ho,I,o,75,1,616.0,426247.89999999944,8007,WL,C,12.0
3,42.80299997329712,learn,17197.00002670288,Wed Sep 18 2024 18:04:18 GMT-0500 (Central Daylight Time),427113.89999999944,A,hom,I,m,232,1,866.0,426247.89999999944,8007,WL,C,12.0
3,43.019999980926514,learn,16980.000019073486,Wed Sep 18 2024 18:04:18 GMT-0500 (Central Daylight Time),427330.2000000002,A,home,I,e,205,1,1082.300000000745,426247.89999999944,8007,WL,C,12.0
3,43.20299983024597,learn,16797.00016975403,Wed Sep 18 2024 18:04:18 GMT-0500 (Central Daylight Time),427513.5999999996,A,homeenter,I,enter,163,1,1265.7000000001863,426247.89999999944,8007,WL,C,12.0
3,53.64999985694885,learn,6350.0001430511475,Wed Sep 18 2024 18:04:18 GMT-0500 (Central Daylight Time),437960.5999999996,A,enter,I,enter,10430,1,10446.599999999627,427514.0,8007,WL,C,13.0
3,56.032999992370605,learn,3967.0000076293945,Wed Sep 18 2024 18:04:18 GMT-0500 (Central Daylight Time),440343.2999999998,A,enter,I,enter,2374,1,2382.4000000003725,437960.89999999944,8007,WL,C,14.0
3,56.431999921798706,learn,3568.000078201294,Wed Sep 18 2024 18:04:18 GMT-0500 (Central Daylight Time),440742.89999999944,A,enter,I,enter,391,1,399.29999999981374,440343.5999999996,8007,WL,C,15.0
4,0.749000072479248,learn,59250.99992752075,Wed Sep 18 2024 18:04:18 GMT-0500 (Central Daylight Time),510054.5,A,l,I,l,735,1,749.4000000003725,509305.0999999996,8007,WL,C,1.0
4,0.8989999294281006,learn,59101.0000705719,Wed Sep 18 2024 18:04:18 GMT-0500 (Central Daylight Time),510204.39999999944,A,le,I,e,144,1,899.2999999998137,509305.0999999996,8007,WL,C,1.0
4,1.0989999771118164,learn,58901.00002288818,Wed Sep 18 2024 18:04:18 GMT-0500 (Central Daylight Time),510404.7000000002,A,let,I,t,186,1,1099.6000000005588,509305.0999999996,8007,WL,C,1.0
4,1.315999984741211,learn,58684.00001525879,Wed Sep 18 2024 18:04:18 GMT-0500 (Central Daylight Time),510620.7999999998,A,lett,I,t,203,1,1315.7000000001863,509305.0999999996,8007,WL,C,1.0
4,1.4159998893737793,learn,58584.00011062622,Wed Sep 18 2024 18:04:18 GMT-0500 (Central Daylight Time),510721.0999999996,A,lette,I,e,83,1,1416.0,509305.0999999996,8007,WL,C,1.0
4,1.565999984741211,learn,58434.00001525879,Wed Sep 18 2024 18:04:18 GMT-0500 (Central Daylight Time),510871.0,A,letter,I,r,142,1,1565.9000000003725,509305.0999999996,8007,WL,C,1.0
4,1.6319999694824219,learn,58368.00003051758,Wed Sep 18 2024 18:04:18 GMT-0500 (Central Daylight Time),510937.5,A,lettert,I,t,48,1,1632.4000000003725,509305.0999999996,8007,WL,C,1.0
4,2.1989998817443848,learn,57801.000118255615,Wed Sep 18 2024 18:04:18 GMT-0500 (Central Daylight Time),511504.0,A,letter,I,backspace,558,1,2198.9000000003725,509305.0999999996,8007,WL,C,1.0
4,3.065000057220459,learn,56934.99994277954,Wed Sep 18 2024 18:04:18 GMT-0500 (Central Daylight Time),512370.5999999996,A,letterenter,I,enter,855,1,3065.5,509305.0999999996,8007,WL,C,1.0
4,3.797999858856201,learn,56202.0001411438,Wed Sep 18 2024 18:04:18 GMT-0500 (Central Daylight Time),513103.5999999996,A,b,I,b,725,1,732.7000000001863,512370.89999999944,8007,WL,C,2.0
4,3.8989999294281006,learn,56101.0000705719,Wed Sep 18 2024 18:04:18 GMT-0500 (Central Daylight Time),513203.89999999944,A,bo,I,o,79,1,833.0,512370.89999999944,8007,WL,C,2.0
4,4.128000020980835,learn,55871.999979019165,Wed Sep 18 2024 18:04:18 GMT-0500 (Central Daylight Time),513433.0,A,boy,I,y,225,1,1062.1000000005588,512370.89999999944,8007,WL,C,2.0
4,4.430999994277954,learn,55569.000005722046,Wed Sep 18 2024 18:04:18 GMT-0500 (Central Daylight Time),513736.39999999944,A,boyenter,I,enter,294,1,1365.5,512370.89999999944,8007,WL,C,2.0
4,4.88100004196167,learn,55118.99995803833,Wed Sep 18 2024 18:04:18 GMT-0500 (Central Daylight Time),514186.7000000002,A,c,I,c,431,1,450.0,513736.7000000002,8007,WL,C,3.0
4,5.014999866485596,learn,54985.000133514404,Wed Sep 18 2024 18:04:18 GMT-0500 (Central Daylight Time),514319.7999999998,A,ca,I,a,116,1,583.0999999996275,513736.7000000002,8007,WL,C,3.0
4,5.115000009536743,learn,54884.99999046326,Wed Sep 18 2024 18:04:18 GMT-0500 (Central Daylight Time),514420.0,A,cat,I,t,96,1,683.2999999998137,513736.7000000002,8007,WL,C,3.0
4,5.3480000495910645,learn,54651.999950408936,Wed Sep 18 2024 18:04:18 GMT-0500 (Central Daylight Time),514653.0,A,catt,I,t,220,1,916.2999999998137,513736.7000000002,8007,WL,C,3.0
4,5.480999946594238,learn,54519.00005340576,Wed Sep 18 2024 18:04:18 GMT-0500 (Central Daylight Time),514786.39999999944,A,cattl,I,l,123,1,1049.699999999255,513736.7000000002,8007,WL,C,3.0
4,5.648000001907349,learn,54351.99999809265,Wed Sep 18 2024 18:04:18 GMT-0500 (Central Daylight Time),514953.0999999996,A,cattle,I,e,148,1,1216.3999999994412,513736.7000000002,8007,WL,C,3.0
4,5.999000072479248,learn,54000.99992752075,Wed Sep 18 2024 18:04:18 GMT-0500 (Central Daylight Time),515304.2000000002,A,cattleh,I,h,335,1,1567.5,513736.7000000002,8007,WL,C,3.0
4,6.063999891281128,learn,53936.00010871887,Wed Sep 18 2024 18:04:18 GMT-0500 (Central Daylight Time),515369.5999999996,A,cattleho,I,o,55,1,1632.8999999994412,513736.7000000002,8007,WL,C,3.0
4,6.397000074386597,learn,53602.9999256134,Wed Sep 18 2024 18:04:18 GMT-0500 (Central Daylight Time),515702.7000000002,A,cattlehom,I,m,318,1,1966.0,513736.7000000002,8007,WL,C,3.0
4,6.813999891281128,learn,53186.00010871887,Wed Sep 18 2024 18:04:18 GMT-0500 (Central Daylight Time),516119.2999999998,A,cattleho,I,backspace,401,1,2382.5999999996275,513736.7000000002,8007,WL,C,3.0
4,7.063999891281128,learn,52936.00010871887,Wed Sep 18 2024 18:04:18 GMT-0500 (Central Daylight Time),516369.2000000002,A,cattleh,I,backspace,233,1,2632.5,513736.7000000002,8007,WL,C,3.0
4,7.263999938964844,learn,52736.000061035156,Wed Sep 18 2024 18:04:18 GMT-0500 (Central Daylight Time),516569.0999999996,A,cattle,I,backspace,181,1,2832.399999999441,513736.7000000002,8007,WL,C,3.0
4,7.480999946594238,learn,52519.00005340576,Wed Sep 18 2024 18:04:18 GMT-0500 (Central Daylight Time),516785.7999999998,A,cattl,I,backspace,199,1,3049.0999999996275,513736.7000000002,8007,WL,C,3.0
4,8.19700002670288,learn,51802.99997329712,Wed Sep 18 2024 18:04:18 GMT-0500 (Central Daylight Time),517502.2000000002,A,cattle,I,e,709,1,3765.5,513736.7000000002,8007,WL,C,3.0
4,8.44700002670288,learn,51552.99997329712,Wed Sep 18 2024 18:04:18 GMT-0500 (Central Daylight Time),517752.2000000002,A,cattleenter,I,enter,233,1,4015.5,513736.7000000002,8007,WL,C,3.0
4,8.980000019073486,learn,51019.999980926514,Wed Sep 18 2024 18:04:18 GMT-0500 (Central Daylight Time),518285.2999999998,A,h,I,h,527,1,532.7999999998137,517752.5,8007,WL,C,4.0
4,9.079999923706055,learn,50920.000076293945,Wed Sep 18 2024 18:04:18 GMT-0500 (Central Daylight Time),518385.2000000002,A,ho,I,o,90,1,632.7000000001863,517752.5,8007,WL,C,4.0
4,9.329999923706055,learn,50670.000076293945,Wed Sep 18 2024 18:04:18 GMT-0500 (Central Daylight Time),518635.0999999996,A,hom,I,m,238,1,882.5999999996275,517752.5,8007,WL,C,4.0
4,9.52999997138977,learn,50470.00002861023,Wed Sep 18 2024 18:04:18 GMT-0500 (Central Daylight Time),518835.2999999998,A,home,I,e,179,1,1082.7999999998137,517752.5,8007,WL,C,4.0
4,10.36299991607666,learn,49637.00008392334,Wed Sep 18 2024 18:04:18 GMT-0500 (Central Daylight Time),519668.0999999996,A,homet,I,t,812,1,1915.5999999996275,517752.5,8007,WL,C,4.0
4,10.480000019073486,learn,49519.999980926514,Wed Sep 18 2024 18:04:18 GMT-0500 (Central Daylight Time),519784.7999999998,A,hometo,I,o,99,1,2032.2999999998137,517752.5,8007,WL,C,4.0
4,10.94599986076355,learn,49054.00013923645,Wed Sep 18 2024 18:04:18 GMT-0500 (Central Daylight Time),520251.2000000002,A,homet,I,backspace,454,1,2498.7000000001863,517752.5,8007,WL,C,4.0
4,11.69599986076355,learn,48304.00013923645,Wed Sep 18 2024 18:04:18 GMT-0500 (Central Daylight Time),521001.39999999944,A,home,I,backspace,731,1,3248.899999999441,517752.5,8007,WL,C,4.0
4,12.328999996185303,learn,47671.0000038147,Wed Sep 18 2024 18:04:18 GMT-0500 (Central Daylight Time),521634.0999999996,A,homeenter,I,enter,622,1,3881.5999999996275,517752.5,8007,WL,C,4.0
4,13.678999900817871,learn,46321.00009918213,Wed Sep 18 2024 18:04:18 GMT-0500 (Central Daylight Time),522984.0,A,t,I,t,1341,1,1349.5,521634.5,8007,WL,C,5.0
4,13.812000036239624,learn,46187.999963760376,Wed Sep 18 2024 18:04:18 GMT-0500 (Central Daylight Time),523116.89999999944,A,to,I,o,128,1,1482.3999999994412,521634.5,8007,WL,C,5.0
4,14.01200008392334,learn,45987.99991607666,Wed Sep 18 2024 18:04:18 GMT-0500 (Central Daylight Time),523317.0,A,tow,I,w,187,1,1682.5,521634.5,8007,WL,C,5.0
4,14.095999956130981,learn,45904.00004386902,Wed Sep 18 2024 18:04:18 GMT-0500 (Central Daylight Time),523401.5999999996,A,towe,I,e,74,1,1767.0999999996275,521634.5,8007,WL,C,5.0
4,14.277999877929688,learn,45722.00012207031,Wed Sep 18 2024 18:04:18 GMT-0500 (Central Daylight Time),523583.7000000002,A,tower,I,r,166,1,1949.2000000001863,521634.5,8007,WL,C,5.0
4,14.644999980926514,learn,45355.000019073486,Wed Sep 18 2024 18:04:18 GMT-0500 (Central Daylight Time),523950.0999999996,A,towerenter,I,enter,360,1,2315.5999999996275,521634.5,8007,WL,C,5.0
4,15.17799997329712,learn,44822.00002670288,Wed Sep 18 2024 18:04:18 GMT-0500 (Central Daylight Time),524483.2000000002,A,w,I,w,521,1,532.7000000001863,523950.5,8007,WL,C,6.0
4,15.295000076293945,learn,44704.999923706055,Wed Sep 18 2024 18:04:18 GMT-0500 (Central Daylight Time),524600.2000000002,A,wh,I,h,107,1,649.7000000001863,523950.5,8007,WL,C,6.0
4,15.42799997329712,learn,44572.00002670288,Wed Sep 18 2024 18:04:18 GMT-0500 (Central Daylight Time),524733.5,A,whe,I,e,120,1,783.0,523950.5,8007,WL,C,6.0
4,15.777999877929688,learn,44222.00012207031,Wed Sep 18 2024 18:04:18 GMT-0500 (Central Daylight Time),525083.2999999998,A,whea,I,a,338,1,1132.7999999998137,523950.5,8007,WL,C,6.0
4,15.878000020980835,learn,44121.999979019165,Wed Sep 18 2024 18:04:18 GMT-0500 (Central Daylight Time),525183.2000000002,A,wheat,I,t,84,1,1232.7000000001863,523950.5,8007,WL,C,6.0
4,16.66100001335144,learn,43338.99998664856,Wed Sep 18 2024 18:04:18 GMT-0500 (Central Daylight Time),525966.2000000002,A,wheatenter,I,enter,777,1,2015.7000000001863,523950.5,8007,WL,C,6.0
4,17.060999870300293,learn,42939.00012969971,Wed Sep 18 2024 18:04:18 GMT-0500 (Central Daylight Time),526366.0,A,c,I,c,394,1,399.40000000037253,525966.5999999996,8007,WL,C,7.0
4,17.16100001335144,learn,42838.99998664856,Wed Sep 18 2024 18:04:18 GMT-0500 (Central Daylight Time),526466.0999999996,A,co,I,o,89,1,499.5,525966.5999999996,8007,WL,C,7.0
4,17.310999870300293,learn,42689.00012969971,Wed Sep 18 2024 18:04:18 GMT-0500 (Central Daylight Time),526616.0,A,cor,I,r,134,1,649.4000000003725,525966.5999999996,8007,WL,C,7.0
4,17.477999925613403,learn,42522.0000743866,Wed Sep 18 2024 18:04:18 GMT-0500 (Central Daylight Time),526782.7999999998,A,corn,I,n,160,1,816.2000000001863,525966.5999999996,8007,WL,C,7.0
4,17.74399995803833,learn,42256.00004196167,Wed Sep 18 2024 18:04:18 GMT-0500 (Central Daylight Time),527049.3999999994,A,cornenter,I,enter,248,1,1082.7999999998137,525966.5999999996,8007,WL,C,7.0
4,18.22699999809265,learn,41773.00000190735,Wed Sep 18 2024 18:04:18 GMT-0500 (Central Daylight Time),527532.3999999994,A,c,I,c,469,1,482.69999999925494,527049.7000000002,8007,WL,C,8.0
4,18.32699990272522,learn,41673.00009727478,Wed Sep 18 2024 18:04:18 GMT-0500 (Central Daylight Time),527632.2999999998,A,ca,I,a,82,1,582.5999999996275,527049.7000000002,8007,WL,C,8.0
4,18.41100001335144,learn,41588.99998664856,Wed Sep 18 2024 18:04:18 GMT-0500 (Central Daylight Time),527715.8999999994,A,cam,I,m,79,1,666.1999999992549,527049.7000000002,8007,WL,C,8.0
4,18.57699990272522,learn,41423.00009727478,Wed Sep 18 2024 18:04:18 GMT-0500 (Central Daylight Time),527882.3999999994,A,camo,I,o,156,1,832.6999999992549,527049.7000000002,8007,WL,C,8.0
4,19.193000078201294,learn,40806.999921798706,Wed Sep 18 2024 18:04:18 GMT-0500 (Central Daylight Time),528498.5999999996,A,cam,I,backspace,605,1,1448.8999999994412,527049.7000000002,8007,WL,C,8.0
4,19.877000093460083,learn,40122.99990653992,Wed Sep 18 2024 18:04:18 GMT-0500 (Central Daylight Time),529182.0999999996,A,camp,I,p,669,1,2132.399999999441,527049.7000000002,8007,WL,C,8.0
4,20.193000078201294,learn,39806.999921798706,Wed Sep 18 2024 18:04:18 GMT-0500 (Central Daylight Time),529498.3999999994,A,campenter,I,enter,298,1,2448.699999999255,527049.7000000002,8007,WL,C,8.0
4,20.592999935150146,learn,39407.00006484985,Wed Sep 18 2024 18:04:18 GMT-0500 (Central Daylight Time),529898.2999999998,A,f,I,f,389,1,399.5,529498.7999999998,8007,WL,C,9.0
4,20.759999990463257,learn,39240.00000953674,Wed Sep 18 2024 18:04:18 GMT-0500 (Central Daylight Time),530064.8999999994,A,fl,I,l,149,1,566.0999999996275,529498.7999999998,8007,WL,C,9.0
4,20.925999879837036,learn,39074.000120162964,Wed Sep 18 2024 18:04:18 GMT-0500 (Central Daylight Time),530231.7000000002,A,fla,I,a,151,1,732.9000000003725,529498.7999999998,8007,WL,C,9.0
4,21.30900001525879,learn,38690.99998474121,Wed Sep 18 2024 18:04:18 GMT-0500 (Central Daylight Time),530614.7000000002,A,flag,I,g,368,1,1115.9000000003725,529498.7999999998,8007,WL,C,9.0
4,21.64299988746643,learn,38357.00011253357,Wed Sep 18 2024 18:04:18 GMT-0500 (Central Daylight Time),530947.8999999994,A,flagenter,I,enter,321,1,1449.0999999996275,529498.7999999998,8007,WL,C,9.0
4,21.993000030517578,learn,38006.99996948242,Wed Sep 18 2024 18:04:18 GMT-0500 (Central Daylight Time),531297.7999999998,A,s,I,s,331,1,349.59999999962747,530948.2000000002,8007,WL,C,10.0
4,22.108999967575073,learn,37891.00003242493,Wed Sep 18 2024 18:04:18 GMT-0500 (Central Daylight Time),531414.5,A,su,I,u,110,1,466.29999999981374,530948.2000000002,8007,WL,C,10.0
4,22.259000062942505,learn,37740.999937057495,Wed Sep 18 2024 18:04:18 GMT-0500 (Central Daylight Time),531564.3999999994,A,sug,I,g,129,1,616.1999999992549,530948.2000000002,8007,WL,C,10.0
4,22.460000038146973,learn,37539.99996185303,Wed Sep 18 2024 18:04:18 GMT-0500 (Central Daylight Time),531765.5,A,suga,I,a,195,1,817.2999999998137,530948.2000000002,8007,WL,C,10.0
4,22.575999975204468,learn,37424.00002479553,Wed Sep 18 2024 18:04:18 GMT-0500 (Central Daylight Time),531880.8999999994,A,sugar,I,r,98,1,932.6999999992549,530948.2000000002,8007,WL,C,10.0
4,22.792999982833862,learn,37207.00001716614,Wed Sep 18 2024 18:04:18 GMT-0500 (Central Daylight Time),532097.7999999998,A,sugarenter,I,enter,197,1,1149.5999999996275,530948.2000000002,8007,WL,C,10.0
4,27.308000087738037,learn,32691.999912261963,Wed Sep 18 2024 18:04:18 GMT-0500 (Central Daylight Time),536612.7999999998,A,q,I,q,4509,1,4514.700000000186,532098.0999999996,8007,WL,C,11.0
4,27.424000024795532,learn,32575.999975204468,Wed Sep 18 2024 18:04:18 GMT-0500 (Central Daylight Time),536729.7000000002,A,qu,I,u,107,1,4631.600000000559,532098.0999999996,8007,WL,C,11.0
4,27.687000036239624,learn,32312.999963760376,Wed Sep 18 2024 18:04:18 GMT-0500 (Central Daylight Time),536992.0999999996,A,que,I,e,258,1,4894.0,532098.0999999996,8007,WL,C,11.0
4,27.83399987220764,learn,32166.00012779236,Wed Sep 18 2024 18:04:18 GMT-0500 (Central Daylight Time),537139.5,A,quee,I,e,142,1,5041.4000000003725,532098.0999999996,8007,WL,C,11.0
4,28.073999881744385,learn,31926.000118255615,Wed Sep 18 2024 18:04:18 GMT-0500 (Central Daylight Time),537379.5,A,queen,I,n,227,1,5281.4000000003725,532098.0999999996,8007,WL,C,11.0
4,28.341000080108643,learn,31658.999919891357,Wed Sep 18 2024 18:04:18 GMT-0500 (Central Daylight Time),537645.8999999994,A,queenenter,I,enter,259,1,5547.799999999814,532098.0999999996,8007,WL,C,11.0
4,28.957000017166138,learn,31042.999982833862,Wed Sep 18 2024 18:04:18 GMT-0500 (Central Daylight Time),538262.3999999994,A,t,I,t,609,1,616.0999999996275,537646.2999999998,8007,WL,C,12.0
4,29.10699987411499,learn,30893.00012588501,Wed Sep 18 2024 18:04:18 GMT-0500 (Central Daylight Time),538412.2000000002,A,to,I,o,144,1,765.9000000003725,537646.2999999998,8007,WL,C,12.0
4,29.240000009536743,learn,30759.999990463257,Wed Sep 18 2024 18:04:18 GMT-0500 (Central Daylight Time),538545.5999999996,A,tow,I,w,116,1,899.2999999998137,537646.2999999998,8007,WL,C,12.0
4,29.389999866485596,learn,30610.000133514404,Wed Sep 18 2024 18:04:18 GMT-0500 (Central Daylight Time),538695.7000000002,A,towe,I,e,142,1,1049.4000000003725,537646.2999999998,8007,WL,C,12.0
4,29.52300000190735,learn,30476.99999809265,Wed Sep 18 2024 18:04:18 GMT-0500 (Central Daylight Time),538828.8999999994,A,tower,I,r,127,1,1182.5999999996275,537646.2999999998,8007,WL,C,12.0
4,29.806999921798706,learn,30193.000078201294,Wed Sep 18 2024 18:04:18 GMT-0500 (Central Daylight Time),539112.2000000002,A,towerenter,I,enter,274,1,1465.9000000003725,537646.2999999998,8007,WL,C,12.0
4,34.355000019073486,learn,25644.999980926514,Wed Sep 18 2024 18:04:18 GMT-0500 (Central Daylight Time),543660.3999999994,A,b,I,b,4544,1,4547.899999999441,539112.5,8007,WL,C,13.0
4,34.48799991607666,learn,25512.00008392334,Wed Sep 18 2024 18:04:18 GMT-0500 (Central Daylight Time),543794.0999999996,A,bo,I,o,115,1,4681.5999999996275,539112.5,8007,WL,C,13.0
4,34.67199993133545,learn,25328.00006866455,Wed Sep 18 2024 18:04:18 GMT-0500 (Central Daylight Time),543977.0999999996,A,boy,I,y,165,1,4864.5999999996275,539112.5,8007,WL,C,13.0
4,34.97099995613098,learn,25029.00004386902,Wed Sep 18 2024 18:04:18 GMT-0500 (Central Daylight Time),544277.0,A,boyenter,I,enter,287,1,5164.5,539112.5,8007,WL,C,13.0
4,47.98399996757507,learn,12016.000032424927,Wed Sep 18 2024 18:04:18 GMT-0500 (Central Daylight Time),557289.7000000002,A,h,I,h,12995,1,13012.300000000745,544277.3999999994,8007,WL,C,14.0
4,48.1010000705719,learn,11898.9999294281,Wed Sep 18 2024 18:04:18 GMT-0500 (Central Daylight Time),557406.3999999994,A,ho,I,o,109,1,13129.0,544277.3999999994,8007,WL,C,14.0
4,48.3510000705719,learn,11648.9999294281,Wed Sep 18 2024 18:04:18 GMT-0500 (Central Daylight Time),557656.2000000002,A,hom,I,m,233,1,13378.800000000745,544277.3999999994,8007,WL,C,14.0
4,48.50099992752075,learn,11499.000072479248,Wed Sep 18 2024 18:04:18 GMT-0500 (Central Daylight Time),557806.2000000002,A,home,I,e,136,1,13528.800000000745,544277.3999999994,8007,WL,C,14.0
4,48.64999985694885,learn,11350.000143051147,Wed Sep 18 2024 18:04:18 GMT-0500 (Central Daylight Time),557956.0999999996,A,homeenter,I,enter,137,1,13678.700000000186,544277.3999999994,8007,WL,C,14.0
4,50.93300008773804,learn,9066.999912261963,Wed Sep 18 2024 18:04:18 GMT-0500 (Central Daylight Time),560238.8999999994,A,enter,I,enter,2276,1,2282.5,557956.3999999994,8007,WL,C,15.0
5,0.7000000476837158,learn,60000.0,Wed Sep 18 2024 18:04:18 GMT-0500 (Central Daylight Time),627067.8999999994,A,t,I,t,689,1,699.8999999994412,626368.0,8007,WL,C,1.0
5,0.8669998645782471,learn,60000.0,Wed Sep 18 2024 18:04:18 GMT-0500 (Central Daylight Time),627234.7000000002,A,to,I,o,155,1,866.7000000001863,626368.0,8007,WL,C,1.0
5,0.9830000400543213,learn,60000.0,Wed Sep 18 2024 18:04:18 GMT-0500 (Central Daylight Time),627351.0,A,tow,I,w,109,1,983.0,626368.0,8007,WL,C,1.0
5,1.2330000400543213,learn,60000.0,Wed Sep 18 2024 18:04:18 GMT-0500 (Central Daylight Time),627601.0999999996,A,towe,I,e,233,1,1233.0999999996275,626368.0,8007,WL,C,1.0
5,1.3499999046325684,learn,60000.0,Wed Sep 18 2024 18:04:18 GMT-0500 (Central Daylight Time),627717.7000000002,A,tower,I,r,103,1,1349.7000000001863,626368.0,8007,WL,C,1.0
5,1.7159998416900635,learn,60000.0,Wed Sep 18 2024 18:04:18 GMT-0500 (Central Daylight Time),628084.0999999996,A,towerenter,I,enter,354,1,1716.0999999996275,626368.0,8007,WL,C,1.0
5,2.115999937057495,learn,60000.0,Wed Sep 18 2024 18:04:18 GMT-0500 (Central Daylight Time),628484.0,A,w,I,w,380,1,399.6000000005588,628084.3999999994,8007,WL,C,2.0
5,2.2330000400543213,learn,60000.0,Wed Sep 18 2024 18:04:18 GMT-0500 (Central Daylight Time),628600.7000000002,A,wh,I,h,108,1,516.3000000007451,628084.3999999994,8007,WL,C,2.0
5,2.382999897003174,learn,60000.0,Wed Sep 18 2024 18:04:18 GMT-0500 (Central Daylight Time),628750.7999999998,A,whe,I,e,135,1,666.4000000003725,628084.3999999994,8007,WL,C,2.0
5,2.5490000247955322,learn,60000.0,Wed Sep 18 2024 18:04:18 GMT-0500 (Central Daylight Time),628917.2999999998,A,when,I,n,161,1,832.9000000003725,628084.3999999994,8007,WL,C,2.0
5,3.431999921798706,learn,60000.0,Wed Sep 18 2024 18:04:18 GMT-0500 (Central Daylight Time),629800.2999999998,A,whe,I,backspace,874,1,1715.9000000003725,628084.3999999994,8007,WL,C,2.0
5,4.148999929428101,learn,60000.0,Wed Sep 18 2024 18:04:18 GMT-0500 (Central Daylight Time),630516.7999999998,A,whea,I,a,703,1,2432.4000000003725,628084.3999999994,8007,WL,C,2.0
5,4.281999826431274,learn,60000.0,Wed Sep 18 2024 18:04:18 GMT-0500 (Central Daylight Time),630650.0,A,wheat,I,t,115,1,2565.600000000559,628084.3999999994,8007,WL,C,2.0
5,4.973999977111816,learn,60000.0,Wed Sep 18 2024 18:04:18 GMT-0500 (Central Daylight Time),631341.7000000002,A,wheatenter,I,enter,541,1,3257.300000000745,628084.3999999994,8007,WL,C,2.0
5,5.881999969482422,learn,60000.0,Wed Sep 18 2024 18:04:18 GMT-0500 (Central Daylight Time),632249.7000000002,A,s,I,s,890,1,907.6000000005588,631342.0999999996,8007,WL,C,3.0
5,5.947999954223633,learn,60000.0,Wed Sep 18 2024 18:04:18 GMT-0500 (Central Daylight Time),632316.2000000002,A,sh,I,h,54,1,974.1000000005588,631342.0999999996,8007,WL,C,3.0
5,6.031999826431274,learn,60000.0,Wed Sep 18 2024 18:04:18 GMT-0500 (Central Daylight Time),632399.5,A,sho,I,o,75,1,1057.4000000003725,631342.0999999996,8007,WL,C,3.0
5,6.181999921798706,learn,60000.0,Wed Sep 18 2024 18:04:18 GMT-0500 (Central Daylight Time),632549.3999999994,A,shor,I,r,144,1,1207.2999999998137,631342.0999999996,8007,WL,C,3.0
5,6.297999858856201,learn,60000.0,Wed Sep 18 2024 18:04:18 GMT-0500 (Central Daylight Time),632666.0,A,shore,I,e,106,1,1323.9000000003725,631342.0999999996,8007,WL,C,3.0
5,6.830999851226807,learn,60000.0,Wed Sep 18 2024 18:04:18 GMT-0500 (Central Daylight Time),633199.2999999998,A,shoreenter,I,enter,525,1,1857.2000000001863,631342.0999999996,8007,WL,C,3.0
5,7.264999866485596,learn,60000.0,Wed Sep 18 2024 18:04:18 GMT-0500 (Central Daylight Time),633632.5999999996,A,b,I,b,424,1,433.0,633199.5999999996,8007,WL,C,4.0
5,7.365000009536743,learn,60000.0,Wed Sep 18 2024 18:04:18 GMT-0500 (Central Daylight Time),633732.3999999994,A,bo,I,o,87,1,532.7999999998137,633199.5999999996,8007,WL,C,4.0
5,7.5980000495910645,learn,60000.0,Wed Sep 18 2024 18:04:18 GMT-0500 (Central Daylight Time),633965.7000000002,A,bod,I,d,219,1,766.1000000005588,633199.5999999996,8007,WL,C,4.0
5,7.747999906539917,learn,60000.0,Wed Sep 18 2024 18:04:18 GMT-0500 (Central Daylight Time),634115.5,A,body,I,y,130,1,915.9000000003725,633199.5999999996,8007,WL,C,4.0
5,8.148000001907349,learn,60000.0,Wed Sep 18 2024 18:04:18 GMT-0500 (Central Daylight Time),634515.3999999994,A,bodyh,I,h,388,1,1315.7999999998137,633199.5999999996,8007,WL,C,4.0
5,8.280999898910522,learn,60000.0,Wed Sep 18 2024 18:04:18 GMT-0500 (Central Daylight Time),634648.8999999994,A,bodyho,I,o,124,1,1449.2999999998137,633199.5999999996,8007,WL,C,4.0
5,8.730999946594238,learn,60000.0,Wed Sep 18 2024 18:04:18 GMT-0500 (Central Daylight Time),635098.7999999998,A,bodyh,I,backspace,438,1,1899.2000000001863,633199.5999999996,8007,WL,C,4.0
5,8.947999954223633,learn,60000.0,Wed Sep 18 2024 18:04:18 GMT-0500 (Central Daylight Time),635315.3999999994,A,body,I,backspace,205,1,2115.7999999998137,633199.5999999996,8007,WL,C,4.0
5,9.71399998664856,learn,60000.0,Wed Sep 18 2024 18:04:18 GMT-0500 (Central Daylight Time),636081.7000000002,A,bodyenter,I,enter,756,1,2882.100000000559,633199.5999999996,8007,WL,C,4.0
5,10.71399998664856,learn,60000.0,Wed Sep 18 2024 18:04:18 GMT-0500 (Central Daylight Time),637081.2999999998,A,h,I,h,982,1,999.2999999998137,636082.0,8007,WL,C,5.0
5,10.79699993133545,learn,60000.0,Wed Sep 18 2024 18:04:18 GMT-0500 (Central Daylight Time),637164.7000000002,A,ho,I,o,70,1,1082.7000000001863,636082.0,8007,WL,C,5.0
5,11.013000011444092,learn,60000.0,Wed Sep 18 2024 18:04:18 GMT-0500 (Central Daylight Time),637381.2000000002,A,hom,I,m,203,1,1299.2000000001863,636082.0,8007,WL,C,5.0
5,11.230999946594238,learn,60000.0,Wed Sep 18 2024 18:04:18 GMT-0500 (Central Daylight Time),637598.8999999994,A,home,I,e,211,1,1516.8999999994412,636082.0,8007,WL,C,5.0
5,11.763000011444092,learn,60000.0,Wed Sep 18 2024 18:04:18 GMT-0500 (Central Daylight Time),638131.0,A,homeenter,I,enter,512,1,2049.0,636082.0,8007,WL,C,5.0
5,12.52999997138977,learn,60000.0,Wed Sep 18 2024 18:04:18 GMT-0500 (Central Daylight Time),638897.5999999996,A,b,I,b,749,1,766.2999999998137,638131.2999999998,8007,WL,C,6.0
5,12.629999876022339,learn,60000.0,Wed Sep 18 2024 18:04:18 GMT-0500 (Central Daylight Time),638997.2999999998,A,bo,I,o,86,1,866.0,638131.2999999998,8007,WL,C,6.0
5,12.845999956130981,learn,60000.0,Wed Sep 18 2024 18:04:18 GMT-0500 (Central Daylight Time),639214.0,A,boy,I,y,210,1,1082.7000000001863,638131.2999999998,8007,WL,C,6.0
5,13.178999900817871,learn,60000.0,Wed Sep 18 2024 18:04:18 GMT-0500 (Central Daylight Time),639547.2999999998,A,boyenter,I,enter,322,1,1416.0,638131.2999999998,8007,WL,C,6.0
5,14.361999988555908,learn,60000.0,Wed Sep 18 2024 18:04:18 GMT-0500 (Central Daylight Time),640730.2000000002,A,f,I,f,1164,1,1182.5,639547.7000000002,8007,WL,C,7.0
5,14.496000051498413,learn,60000.0,Wed Sep 18 2024 18:04:18 GMT-0500 (Central Daylight Time),640863.5999999996,A,fq,I,q,126,1,1315.8999999994412,639547.7000000002,8007,WL,C,7.0
5,14.546000003814697,learn,60000.0,Wed Sep 18 2024 18:04:18 GMT-0500 (Central Daylight Time),640913.5999999996,A,fqu,I,u,40,1,1365.8999999994412,639547.7000000002,8007,WL,C,7.0
5,14.812000036239624,learn,60000.0,Wed Sep 18 2024 18:04:18 GMT-0500 (Central Daylight Time),641180.0,A,fque,I,e,254,1,1632.2999999998137,639547.7000000002,8007,WL,C,7.0
5,15.26199984550476,learn,60000.0,Wed Sep 18 2024 18:04:18 GMT-0500 (Central Daylight Time),641629.8999999994,A,fqu,I,backspace,444,1,2082.199999999255,639547.7000000002,8007,WL,C,7.0
5,15.494999885559082,learn,60000.0,Wed Sep 18 2024 18:04:18 GMT-0500 (Central Daylight Time),641863.2000000002,A,fq,I,backspace,226,1,2315.5,639547.7000000002,8007,WL,C,7.0
5,15.694999933242798,learn,60000.0,Wed Sep 18 2024 18:04:18 GMT-0500 (Central Daylight Time),642063.0999999996,A,f,I,backspace,185,1,2515.399999999441,639547.7000000002,8007,WL,C,7.0
5,15.895999908447266,learn,60000.0,Wed Sep 18 2024 18:04:18 GMT-0500 (Central Daylight Time),642264.2000000002,A,,I,backspace,185,1,2716.5,639547.7000000002,8007,WL,C,7.0
5,16.277999877929688,learn,60000.0,Wed Sep 18 2024 18:04:18 GMT-0500 (Central Daylight Time),642646.2000000002,A,q,I,q,367,1,3098.5,639547.7000000002,8007,WL,C,7.0
5,16.59500002861023,learn,60000.0,Wed Sep 18 2024 18:04:18 GMT-0500 (Central Daylight Time),642962.7000000002,A,qu,I,u,305,1,3415.0,639547.7000000002,8007,WL,C,7.0
5,16.794999837875366,learn,60000.0,Wed Sep 18 2024 18:04:18 GMT-0500 (Central Daylight Time),643162.7000000002,A,que,I,e,187,1,3615.0,639547.7000000002,8007,WL,C,7.0
5,17.01199984550476,learn,60000.0,Wed Sep 18 2024 18:04:18 GMT-0500 (Central Daylight Time),643379.5,A,quee,I,e,205,1,3831.7999999998137,639547.7000000002,8007,WL,C,7.0
5,17.227999925613403,learn,60000.0,Wed Sep 18 2024 18:04:18 GMT-0500 (Central Daylight Time),643596.0999999996,A,queen,I,n,196,1,4048.399999999441,639547.7000000002,8007,WL,C,7.0
5,17.894999980926514,learn,60000.0,Wed Sep 18 2024 18:04:18 GMT-0500 (Central Daylight Time),644263.2999999998,A,queenenter,I,enter,660,1,4715.5999999996275,639547.7000000002,8007,WL,C,7.0
5,18.277999877929688,learn,60000.0,Wed Sep 18 2024 18:04:18 GMT-0500 (Central Daylight Time),644645.7999999998,A,l,I,l,364,1,382.20000000018626,644263.5999999996,8007,WL,C,8.0
5,18.39400005340576,learn,60000.0,Wed Sep 18 2024 18:04:18 GMT-0500 (Central Daylight Time),644762.2000000002,A,le,I,e,106,1,498.6000000005588,644263.5999999996,8007,WL,C,8.0
5,18.543999910354614,learn,60000.0,Wed Sep 18 2024 18:04:18 GMT-0500 (Central Daylight Time),644912.0999999996,A,let,I,t,134,1,648.5,644263.5999999996,8007,WL,C,8.0
5,18.74399995803833,learn,60000.0,Wed Sep 18 2024 18:04:18 GMT-0500 (Central Daylight Time),645112.2000000002,A,lett,I,t,192,1,848.6000000005588,644263.5999999996,8007,WL,C,8.0
5,18.8439998626709,learn,60000.0,Wed Sep 18 2024 18:04:18 GMT-0500 (Central Daylight Time),645212.2000000002,A,lette,I,e,88,1,948.6000000005588,644263.5999999996,8007,WL,C,8.0
5,18.99399995803833,learn,60000.0,Wed Sep 18 2024 18:04:18 GMT-0500 (Central Daylight Time),645362.0,A,letter,I,r,132,1,1098.4000000003725,644263.5999999996,8007,WL,C,8.0
5,19.14400005340576,learn,60000.0,Wed Sep 18 2024 18:04:18 GMT-0500 (Central Daylight Time),645512.0999999996,A,letterenter,I,enter,133,1,1248.5,644263.5999999996,8007,WL,C,8.0
5,19.47699999809265,learn,60000.0,Wed Sep 18 2024 18:04:18 GMT-0500 (Central Daylight Time),645845.2999999998,A,f,I,f,319,1,332.90000000037253,645512.3999999994,8007,WL,C,9.0
5,19.66100001335144,learn,60000.0,Wed Sep 18 2024 18:04:18 GMT-0500 (Central Daylight Time),646028.3999999994,A,fl,I,l,177,1,516.0,645512.3999999994,8007,WL,C,9.0
5,19.810999870300293,learn,60000.0,Wed Sep 18 2024 18:04:18 GMT-0500 (Central Daylight Time),646178.5,A,fla,I,a,132,1,666.1000000005588,645512.3999999994,8007,WL,C,9.0
5,20.210000038146973,learn,60000.0,Wed Sep 18 2024 18:04:18 GMT-0500 (Central Daylight Time),646578.2999999998,A,flag,I,g,381,1,1065.9000000003725,645512.3999999994,8007,WL,C,9.0
5,20.51099991798401,learn,60000.0,Wed Sep 18 2024 18:04:18 GMT-0500 (Central Daylight Time),646878.3999999994,A,flagenter,I,enter,293,1,1366.0,645512.3999999994,8007,WL,C,9.0
5,24.39199995994568,learn,60000.0,Wed Sep 18 2024 18:04:18 GMT-0500 (Central Daylight Time),650760.2000000002,A,q,I,q,3873,1,3881.5,646878.7000000002,8007,WL,C,10.0
5,24.493000030517578,learn,60000.0,Wed Sep 18 2024 18:04:18 GMT-0500 (Central Daylight Time),650860.2999999998,A,qu,I,u,88,1,3981.5999999996275,646878.7000000002,8007,WL,C,10.0
5,24.658999919891357,learn,60000.0,Wed Sep 18 2024 18:04:18 GMT-0500 (Central Daylight Time),651027.0999999996,A,que,I,e,146,1,4148.399999999441,646878.7000000002,8007,WL,C,10.0
5,24.875999927520752,learn,60000.0,Wed Sep 18 2024 18:04:18 GMT-0500 (Central Daylight Time),651243.7000000002,A,quee,I,e,204,1,4365.0,646878.7000000002,8007,WL,C,10.0
5,25.075999975204468,learn,60000.0,Wed Sep 18 2024 18:04:18 GMT-0500 (Central Daylight Time),651443.5,A,queen,I,n,188,1,4564.799999999814,646878.7000000002,8007,WL,C,10.0
5,25.358999967575073,learn,60000.0,Wed Sep 18 2024 18:04:18 GMT-0500 (Central Daylight Time),651726.8999999994,A,queenenter,I,enter,276,1,4848.199999999255,646878.7000000002,8007,WL,C,10.0
5,28.075000047683716,learn,60000.0,Wed Sep 18 2024 18:04:18 GMT-0500 (Central Daylight Time),654442.7000000002,A,c,I,c,2705,1,2715.5,651727.2000000002,8007,WL,C,11.0
5,28.19099998474121,learn,60000.0,Wed Sep 18 2024 18:04:18 GMT-0500 (Central Daylight Time),654559.0999999996,A,ca,I,a,109,1,2831.899999999441,651727.2000000002,8007,WL,C,11.0
5,28.37399983406067,learn,60000.0,Wed Sep 18 2024 18:04:18 GMT-0500 (Central Daylight Time),654742.2000000002,A,cam,I,m,178,1,3015.0,651727.2000000002,8007,WL,C,11.0
5,28.521999835968018,learn,60000.0,Wed Sep 18 2024 18:04:18 GMT-0500 (Central Daylight Time),654889.5,A,camp,I,p,142,1,3162.2999999998137,651727.2000000002,8007,WL,C,11.0
5,28.7739999294281,learn,60000.0,Wed Sep 18 2024 18:04:18 GMT-0500 (Central Daylight Time),655142.0,A,campenter,I,enter,237,1,3414.7999999998137,651727.2000000002,8007,WL,C,11.0
5,35.371999979019165,learn,60000.0,Wed Sep 18 2024 18:04:18 GMT-0500 (Central Daylight Time),661740.2000000002,A,c,I,c,6586,1,6597.9000000003725,655142.2999999998,8007,WL,C,12.0
5,35.57200002670288,learn,60000.0,Wed Sep 18 2024 18:04:18 GMT-0500 (Central Daylight Time),661940.0,A,ca,I,a,187,1,6797.700000000186,655142.2999999998,8007,WL,C,12.0
5,35.72199988365173,learn,60000.0,Wed Sep 18 2024 18:04:18 GMT-0500 (Central Daylight Time),662090.2999999998,A,cat,I,t,131,1,6948.0,655142.2999999998,8007,WL,C,12.0
5,35.93899989128113,learn,60000.0,Wed Sep 18 2024 18:04:18 GMT-0500 (Central Daylight Time),662306.7999999998,A,catt,I,t,198,1,7164.5,655142.2999999998,8007,WL,C,12.0
5,36.08899998664856,learn,60000.0,Wed Sep 18 2024 18:04:18 GMT-0500 (Central Daylight Time),662456.7999999998,A,cattl,I,l,133,1,7314.5,655142.2999999998,8007,WL,C,12.0
5,36.25499987602234,learn,60000.0,Wed Sep 18 2024 18:04:18 GMT-0500 (Central Daylight Time),662623.3999999994,A,cattle,I,e,151,1,7481.0999999996275,655142.2999999998,8007,WL,C,12.0
5,36.454999923706055,learn,60000.0,Wed Sep 18 2024 18:04:18 GMT-0500 (Central Daylight Time),662823.2000000002,A,cattleenter,I,enter,192,1,7680.9000000003725,655142.2999999998,8007,WL,C,12.0
5,41.419999837875366,learn,60000.0,Wed Sep 18 2024 18:04:18 GMT-0500 (Central Daylight Time),667788.5,A,enter,I,enter,4953,1,4965.0,662823.5,8007,WL,C,13.0
5,41.73699998855591,learn,60000.0,Wed Sep 18 2024 18:04:18 GMT-0500 (Central Daylight Time),668104.8999999994,A,enter,I,enter,298,1,316.09999999962747,667788.7999999998,8007,WL,C,14.0
5,42.769999980926514,learn,60000.0,Wed Sep 18 2024 18:04:18 GMT-0500 (Central Daylight Time),669138.0999999996,A,enter,I,enter,1022,1,1032.8999999994412,668105.2000000002,8007,WL,C,15.0
6,0.7670001983642578,distr,59232.99980163574,Wed Sep 18 2024 18:04:18 GMT-0500 (Central Daylight Time),735134.0999999996,B,c,I,c,750,1,766.3999999994412,734367.7000000002,8007,WL,C,1.0
6,0.9500000476837158,distr,59049.999952316284,Wed Sep 18 2024 18:04:18 GMT-0500 (Central Daylight Time),735317.2000000002,B,ch,I,h,168,1,949.5,734367.7000000002,8007,WL,C,1.0
6,1.0830001831054688,distr,58916.99981689453,Wed Sep 18 2024 18:04:18 GMT-0500 (Central Daylight Time),735450.5,B,chr,I,r,114,1,1082.7999999998137,734367.7000000002,8007,WL,C,1.0
6,1.183000087738037,distr,58816.99991226196,Wed Sep 18 2024 18:04:18 GMT-0500 (Central Daylight Time),735550.5999999996,B,chri,I,i,93,1,1182.8999999994412,734367.7000000002,8007,WL,C,1.0
6,1.3330001831054688,distr,58666.99981689453,Wed Sep 18 2024 18:04:18 GMT-0500 (Central Daylight Time),735700.2999999998,B,chris,I,s,137,1,1332.5999999996275,734367.7000000002,8007,WL,C,1.0
6,1.433000087738037,distr,58566.99991226196,Wed Sep 18 2024 18:04:18 GMT-0500 (Central Daylight Time),735800.3999999994,B,christ,I,t,91,1,1432.699999999255,734367.7000000002,8007,WL,C,1.0
6,1.8330001831054688,distr,58166.99981689453,Wed Sep 18 2024 18:04:18 GMT-0500 (Central Daylight Time),736200.2000000002,B,christm,I,m,383,1,1832.5,734367.7000000002,8007,WL,C,1.0
6,2.0,distr,58000.0,Wed Sep 18 2024 18:04:18 GMT-0500 (Central Daylight Time),736367.0,B,christma,I,a,160,1,1999.2999999998137,734367.7000000002,8007,WL,C,1.0
6,2.133000135421753,distr,57866.99986457825,Wed Sep 18 2024 18:04:18 GMT-0500 (Central Daylight Time),736500.3999999994,B,christmas,I,s,113,1,2132.699999999255,734367.7000000002,8007,WL,C,1.0
6,2.383000135421753,distr,57616.99986457825,Wed Sep 18 2024 18:04:18 GMT-0500 (Central Daylight Time),736749.8999999994,B,christmasenter,I,enter,243,1,2382.199999999255,734367.7000000002,8007,WL,C,1.0
6,3.116000175476074,distr,56883.999824523926,Wed Sep 18 2024 18:04:18 GMT-0500 (Central Daylight Time),737483.5,B,m,I,m,722,1,733.2999999998137,736750.2000000002,8007,WL,C,2.0
6,3.249000072479248,distr,56750.99992752075,Wed Sep 18 2024 18:04:18 GMT-0500 (Central Daylight Time),737616.5999999996,B,mo,I,o,116,1,866.3999999994412,736750.2000000002,8007,WL,C,2.0
6,3.383000135421753,distr,56616.99986457825,Wed Sep 18 2024 18:04:18 GMT-0500 (Central Daylight Time),737750.3999999994,B,mon,I,n,119,1,1000.1999999992549,736750.2000000002,8007,WL,C,2.0
6,3.4840002059936523,distr,56515.99979400635,Wed Sep 18 2024 18:04:18 GMT-0500 (Central Daylight Time),737850.8999999994,B,mone,I,e,89,1,1100.699999999255,736750.2000000002,8007,WL,C,2.0
6,3.7160000801086426,distr,56283.99991989136,Wed Sep 18 2024 18:04:18 GMT-0500 (Central Daylight Time),738083.0,B,money,I,y,221,1,1332.7999999998137,736750.2000000002,8007,WL,C,2.0
6,4.082000017166138,distr,55917.99998283386,Wed Sep 18 2024 18:04:18 GMT-0500 (Central Daylight Time),738449.7000000002,B,moneyenter,I,enter,349,1,1699.5,736750.2000000002,8007,WL,C,2.0
6,6.29800009727478,distr,53701.99990272522,Wed Sep 18 2024 18:04:18 GMT-0500 (Central Daylight Time),740665.7000000002,B,p,I,p,2206,1,2215.800000000745,738449.8999999994,8007,WL,C,3.0
6,6.54800009727478,distr,53451.99990272522,Wed Sep 18 2024 18:04:18 GMT-0500 (Central Daylight Time),740915.2999999998,B,pl,I,l,230,1,2465.4000000003725,738449.8999999994,8007,WL,C,3.0
6,6.6650002002716064,distr,53334.99979972839,Wed Sep 18 2024 18:04:18 GMT-0500 (Central Daylight Time),741032.2000000002,B,pla,I,a,108,1,2582.300000000745,738449.8999999994,8007,WL,C,3.0
6,6.831000089645386,distr,53168.999910354614,Wed Sep 18 2024 18:04:18 GMT-0500 (Central Daylight Time),741198.7999999998,B,plan,I,n,152,1,2748.9000000003725,738449.8999999994,8007,WL,C,3.0
6,7.065000057220459,distr,52934.99994277954,Wed Sep 18 2024 18:04:18 GMT-0500 (Central Daylight Time),741431.7999999998,B,plant,I,t,225,1,2981.9000000003725,738449.8999999994,8007,WL,C,3.0
6,7.3480000495910645,distr,52651.999950408936,Wed Sep 18 2024 18:04:18 GMT-0500 (Central Daylight Time),741715.2999999998,B,plantenter,I,enter,272,1,3265.4000000003725,738449.8999999994,8007,WL,C,3.0
6,10.364000082015991,distr,49635.99991798401,Wed Sep 18 2024 18:04:18 GMT-0500 (Central Daylight Time),744730.8999999994,B,w,I,w,3004,1,3015.2999999998137,741715.5999999996,8007,WL,C,4.0
6,10.46399998664856,distr,49536.00001335144,Wed Sep 18 2024 18:04:18 GMT-0500 (Central Daylight Time),744831.0,B,wi,I,i,93,1,3115.4000000003725,741715.5999999996,8007,WL,C,4.0
6,10.597000122070312,distr,49402.99987792969,Wed Sep 18 2024 18:04:18 GMT-0500 (Central Daylight Time),744964.0999999996,B,win,I,n,121,1,3248.5,741715.5999999996,8007,WL,C,4.0
6,10.730000019073486,distr,49269.999980926514,Wed Sep 18 2024 18:04:18 GMT-0500 (Central Daylight Time),745097.5,B,wint,I,t,124,1,3381.9000000003725,741715.5999999996,8007,WL,C,4.0
6,10.94700002670288,distr,49052.99997329712,Wed Sep 18 2024 18:04:18 GMT-0500 (Central Daylight Time),745314.0999999996,B,winte,I,e,206,1,3598.5,741715.5999999996,8007,WL,C,4.0
6,11.03000020980835,distr,48969.99979019165,Wed Sep 18 2024 18:04:18 GMT-0500 (Central Daylight Time),745397.3999999994,B,winter,I,r,77,1,3681.7999999998137,741715.5999999996,8007,WL,C,4.0
6,11.230000019073486,distr,48769.999980926514,Wed Sep 18 2024 18:04:18 GMT-0500 (Central Daylight Time),745597.2999999998,B,winterenter,I,enter,186,1,3881.7000000001863,741715.5999999996,8007,WL,C,4.0
6,19.66100001335144,distr,40338.99998664856,Wed Sep 18 2024 18:04:18 GMT-0500 (Central Daylight Time),754028.3999999994,B,enter,I,enter,8411,1,8430.799999999814,745597.5999999996,8007,WL,C,5.0
6,19.961000204086304,distr,40038.999795913696,Wed Sep 18 2024 18:04:18 GMT-0500 (Central Daylight Time),754327.7999999998,B,enter,I,enter,290,1,299.0,754028.7999999998,8007,WL,C,6.0
6,20.277000188827515,distr,39722.999811172485,Wed Sep 18 2024 18:04:18 GMT-0500 (Central Daylight Time),754644.5999999996,B,enter,I,enter,304,1,316.5,754328.0999999996,8007,WL,C,7.0
6,20.527000188827515,distr,39472.999811172485,Wed Sep 18 2024 18:04:18 GMT-0500 (Central Daylight Time),754894.3999999994,B,enter,I,enter,243,1,249.3999999994412,754645.0,8007,WL,C,8.0
6,20.794000148773193,distr,39205.99985122681,Wed Sep 18 2024 18:04:18 GMT-0500 (Central Daylight Time),755160.8999999994,B,enter,I,enter,249,1,266.09999999962747,754894.7999999998,8007,WL,C,9.0
6,20.99400019645691,distr,39005.99980354309,Wed Sep 18 2024 18:04:18 GMT-0500 (Central Daylight Time),755360.7999999998,B,enter,I,enter,191,1,199.59999999962747,755161.2000000002,8007,WL,C,10.0
6,21.210000038146973,distr,38789.99996185303,Wed Sep 18 2024 18:04:18 GMT-0500 (Central Daylight Time),755577.5,B,enter,I,enter,207,1,216.29999999981374,755361.2000000002,8007,WL,C,11.0
6,21.41000008583069,distr,38589.99991416931,Wed Sep 18 2024 18:04:18 GMT-0500 (Central Daylight Time),755777.7000000002,B,enter,I,enter,190,1,199.90000000037253,755577.7999999998,8007,WL,C,12.0
6,21.64300012588501,distr,38356.99987411499,Wed Sep 18 2024 18:04:18 GMT-0500 (Central Daylight Time),756010.7000000002,B,enter,I,enter,211,1,232.6000000005588,755778.0999999996,8007,WL,C,13.0
6,22.2260000705719,distr,37773.9999294281,Wed Sep 18 2024 18:04:18 GMT-0500 (Central Daylight Time),756593.5999999996,B,enter,I,enter,573,1,582.5999999996275,756011.0,8007,WL,C,14.0
6,22.7260000705719,distr,37273.9999294281,Wed Sep 18 2024 18:04:18 GMT-0500 (Central Daylight Time),757093.7000000002,B,enter,I,enter,486,1,499.70000000018626,756594.0,8007,WL,C,15.0
7,6.04800009727478,immed,53951.99990272522,Wed Sep 18 2024 18:04:18 GMT-0500 (Central Daylight Time),764191.5,A,t,I,t,6033,1,6047.9000000003725,758143.5999999996,8007,WL,C,1.0
7,6.215000152587891,immed,53784.99984741211,Wed Sep 18 2024 18:04:18 GMT-0500 (Central Daylight Time),764358.0999999996,A,to,I,o,160,1,6214.5,758143.5999999996,8007,WL,C,1.0
7,6.3480000495910645,immed,53651.999950408936,Wed Sep 18 2024 18:04:18 GMT-0500 (Central Daylight Time),764491.5,A,tow,I,w,122,1,6347.9000000003725,758143.5999999996,8007,WL,C,1.0
7,6.54800009727478,immed,53451.99990272522,Wed Sep 18 2024 18:04:18 GMT-0500 (Central Daylight Time),764691.5999999996,A,towe,I,e,179,1,6548.0,758143.5999999996,8007,WL,C,1.0
7,6.6650002002716064,immed,53334.99979972839,Wed Sep 18 2024 18:04:18 GMT-0500 (Central Daylight Time),764807.8999999994,A,tower,I,r,100,1,6664.299999999814,758143.5999999996,8007,WL,C,1.0
7,7.515000104904175,immed,52484.999895095825,Wed Sep 18 2024 18:04:18 GMT-0500 (Central Daylight Time),765657.7999999998,A,towerenter,I,enter,832,1,7514.200000000186,758143.5999999996,8007,WL,C,1.0
7,8.04800009727478,immed,51951.99990272522,Wed Sep 18 2024 18:04:18 GMT-0500 (Central Daylight Time),766190.8999999994,A,w,I,w,518,1,532.7999999998137,765658.0999999996,8007,WL,C,2.0
7,8.180999994277954,immed,51819.000005722046,Wed Sep 18 2024 18:04:18 GMT-0500 (Central Daylight Time),766324.2999999998,A,wh,I,h,113,1,666.2000000001863,765658.0999999996,8007,WL,C,2.0
7,8.314000129699707,immed,51685.99987030029,Wed Sep 18 2024 18:04:18 GMT-0500 (Central Daylight Time),766457.5,A,whe,I,e,123,1,799.4000000003725,765658.0999999996,8007,WL,C,2.0
7,8.54800009727478,immed,51451.99990272522,Wed Sep 18 2024 18:04:18 GMT-0500 (Central Daylight Time),766690.7999999998,A,when,I,n,214,1,1032.7000000001863,765658.0999999996,8007,WL,C,2.0
7,9.031000137329102,immed,50968.9998626709,Wed Sep 18 2024 18:04:18 GMT-0500 (Central Daylight Time),767174.0,A,whe,I,backspace,469,1,1515.9000000003725,765658.0999999996,8007,WL,C,2.0
7,9.38100004196167,immed,50618.99995803833,Wed Sep 18 2024 18:04:18 GMT-0500 (Central Daylight Time),767523.7999999998,A,whea,I,a,346,1,1865.7000000001863,765658.0999999996,8007,WL,C,2.0
7,9.514000177383423,immed,50485.99982261658,Wed Sep 18 2024 18:04:18 GMT-0500 (Central Daylight Time),767657.0999999996,A,wheat,I,t,116,1,1999.0,765658.0999999996,8007,WL,C,2.0
7,10.230000019073486,immed,49769.999980926514,Wed Sep 18 2024 18:04:18 GMT-0500 (Central Daylight Time),768373.5,A,wheatenter,I,enter,703,1,2715.4000000003725,765658.0999999996,8007,WL,C,2.0
7,12.663000106811523,immed,47336.99989318848,Wed Sep 18 2024 18:04:18 GMT-0500 (Central Daylight Time),770806.0,A,h,I,h,2426,1,2432.100000000559,768373.8999999994,8007,WL,C,3.0
7,12.730000019073486,immed,47269.999980926514,Wed Sep 18 2024 18:04:18 GMT-0500 (Central Daylight Time),770872.7999999998,A,ho,I,o,57,1,2498.9000000003725,768373.8999999994,8007,WL,C,3.0
7,12.996000051498413,immed,47003.99994850159,Wed Sep 18 2024 18:04:18 GMT-0500 (Central Daylight Time),771139.3999999994,A,hom,I,m,246,1,2765.5,768373.8999999994,8007,WL,C,3.0
7,13.129000186920166,immed,46870.999813079834,Wed Sep 18 2024 18:04:18 GMT-0500 (Central Daylight Time),771272.5999999996,A,home,I,e,116,1,2898.7000000001863,768373.8999999994,8007,WL,C,3.0
7,13.413000106811523,immed,46586.99989318848,Wed Sep 18 2024 18:04:18 GMT-0500 (Central Daylight Time),771555.8999999994,A,homeenter,I,enter,279,1,3182.0,768373.8999999994,8007,WL,C,3.0
7,14.013000011444092,immed,45986.99998855591,Wed Sep 18 2024 18:04:18 GMT-0500 (Central Daylight Time),772156.2000000002,A,b,I,b,596,1,600.1000000005588,771556.0999999996,8007,WL,C,4.0
7,14.264000177383423,immed,45735.99982261658,Wed Sep 18 2024 18:04:18 GMT-0500 (Central Daylight Time),772407.3999999994,A,bo,I,o,100,1,851.2999999998137,771556.0999999996,8007,WL,C,4.0
7,14.430000066757202,immed,45569.9999332428,Wed Sep 18 2024 18:04:18 GMT-0500 (Central Daylight Time),772572.8999999994,A,boy,I,y,143,1,1016.7999999998137,771556.0999999996,8007,WL,C,4.0
7,15.312000036239624,immed,44687.999963760376,Wed Sep 18 2024 18:04:18 GMT-0500 (Central Daylight Time),773455.2000000002,A,boyenter,I,enter,867,1,1899.1000000005588,771556.0999999996,8007,WL,C,4.0
7,16.312000036239624,immed,43687.999963760376,Wed Sep 18 2024 18:04:18 GMT-0500 (Central Daylight Time),774454.7999999998,A,s,I,s,993,1,999.4000000003725,773455.3999999994,8007,WL,C,5.0
7,16.42799997329712,immed,43572.00002670288,Wed Sep 18 2024 18:04:18 GMT-0500 (Central Daylight Time),774571.5999999996,A,sh,I,h,96,1,1116.2000000001863,773455.3999999994,8007,WL,C,5.0
7,16.528000116348267,immed,43471.99988365173,Wed Sep 18 2024 18:04:18 GMT-0500 (Central Daylight Time),774671.5999999996,A,sho,I,o,84,1,1216.2000000001863,773455.3999999994,8007,WL,C,5.0
7,16.67799997329712,immed,43322.00002670288,Wed Sep 18 2024 18:04:18 GMT-0500 (Central Daylight Time),774821.5,A,shor,I,r,144,1,1366.1000000005588,773455.3999999994,8007,WL,C,5.0
7,16.795000076293945,immed,43204.999923706055,Wed Sep 18 2024 18:04:18 GMT-0500 (Central Daylight Time),774938.0,A,shore,I,e,106,1,1482.6000000005588,773455.3999999994,8007,WL,C,5.0
7,17.028000116348267,immed,42971.99988365173,Wed Sep 18 2024 18:04:18 GMT-0500 (Central Daylight Time),775171.3999999994,A,shoreenter,I,enter,221,1,1716.0,773455.3999999994,8007,WL,C,5.0
7,18.511000156402588,immed,41488.99984359741,Wed Sep 18 2024 18:04:18 GMT-0500 (Central Daylight Time),776654.0999999996,A,c,I,c,1468,1,1482.3999999994412,775171.7000000002,8007,WL,C,6.0
7,18.628000020980835,immed,41371.999979019165,Wed Sep 18 2024 18:04:18 GMT-0500 (Central Daylight Time),776771.0,A,ca,I,a,105,1,1599.2999999998137,775171.7000000002,8007,WL,C,6.0
7,18.710999965667725,immed,41289.000034332275,Wed Sep 18 2024 18:04:18 GMT-0500 (Central Daylight Time),776854.2000000002,A,cam,I,m,77,1,1682.5,775171.7000000002,8007,WL,C,6.0
7,18.877000093460083,immed,41122.99990653992,Wed Sep 18 2024 18:04:18 GMT-0500 (Central Daylight Time),777020.5999999996,A,camp,I,p,162,1,1848.8999999994412,775171.7000000002,8007,WL,C,6.0
7,19.228000164031982,immed,40771.99983596802,Wed Sep 18 2024 18:04:18 GMT-0500 (Central Daylight Time),777370.7999999998,A,campenter,I,enter,331,1,2199.0999999996275,775171.7000000002,8007,WL,C,6.0
7,19.67799997329712,immed,40322.00002670288,Wed Sep 18 2024 18:04:18 GMT-0500 (Central Daylight Time),777821.3999999994,A,f,I,f,445,1,450.29999999981374,777371.0999999996,8007,WL,C,7.0
7,19.860000133514404,immed,40139.999866485596,Wed Sep 18 2024 18:04:18 GMT-0500 (Central Daylight Time),778003.7000000002,A,fl,I,l,162,1,632.6000000005588,777371.0999999996,8007,WL,C,7.0
7,20.027000188827515,immed,39972.999811172485,Wed Sep 18 2024 18:04:18 GMT-0500 (Central Daylight Time),778170.2999999998,A,fla,I,a,148,1,799.2000000001863,777371.0999999996,8007,WL,C,7.0
7,20.443000078201294,immed,39556.999921798706,Wed Sep 18 2024 18:04:18 GMT-0500 (Central Daylight Time),778586.8999999994,A,flag,I,g,405,1,1215.7999999998137,777371.0999999996,8007,WL,C,7.0
7,20.610000133514404,immed,39389.999866485596,Wed Sep 18 2024 18:04:18 GMT-0500 (Central Daylight Time),778753.7999999998,A,flagenter,I,enter,156,1,1382.7000000001863,777371.0999999996,8007,WL,C,7.0
7,25.692000150680542,immed,34307.99984931946,Wed Sep 18 2024 18:04:18 GMT-0500 (Central Daylight Time),783835.2999999998,A,q,I,q,5062,1,5081.299999999814,778754.0,8007,WL,C,8.0
7,25.80900001525879,immed,34190.99998474121,Wed Sep 18 2024 18:04:18 GMT-0500 (Central Daylight Time),783952.0,A,qu,I,u,100,1,5198.0,778754.0,8007,WL,C,8.0
7,25.925000190734863,immed,34074.99980926514,Wed Sep 18 2024 18:04:18 GMT-0500 (Central Daylight Time),784068.2999999998,A,que,I,e,112,1,5314.299999999814,778754.0,8007,WL,C,8.0
7,26.192000150680542,immed,33807.99984931946,Wed Sep 18 2024 18:04:18 GMT-0500 (Central Daylight Time),784335.2999999998,A,quee,I,e,260,1,5581.299999999814,778754.0,8007,WL,C,8.0
7,26.52500009536743,immed,33474.99990463257,Wed Sep 18 2024 18:04:18 GMT-0500 (Central Daylight Time),784668.3999999994,A,queen,I,n,320,1,5914.399999999441,778754.0,8007,WL,C,8.0
7,28.058000087738037,immed,31941.999912261963,Wed Sep 18 2024 18:04:18 GMT-0500 (Central Daylight Time),786201.2000000002,A,queenenter,I,enter,1516,1,7447.200000000186,778754.0,8007,WL,C,8.0
7,28.741000175476074,immed,31258.999824523926,Wed Sep 18 2024 18:04:18 GMT-0500 (Central Daylight Time),786884.2999999998,A,w,I,w,670,1,682.7999999998137,786201.5,8007,WL,C,9.0
7,28.85700011253357,immed,31142.99988746643,Wed Sep 18 2024 18:04:18 GMT-0500 (Central Daylight Time),787000.8999999994,A,wh,I,h,99,1,799.3999999994412,786201.5,8007,WL,C,9.0
7,29.02400016784668,immed,30975.99983215332,Wed Sep 18 2024 18:04:18 GMT-0500 (Central Daylight Time),787167.5999999996,A,whe,I,e,159,1,966.0999999996275,786201.5,8007,WL,C,9.0
7,29.27400016784668,immed,30725.99983215332,Wed Sep 18 2024 18:04:18 GMT-0500 (Central Daylight Time),787417.5,A,whea,I,a,232,1,1216.0,786201.5,8007,WL,C,9.0
7,29.341000080108643,immed,30658.999919891357,Wed Sep 18 2024 18:04:18 GMT-0500 (Central Daylight Time),787484.2999999998,A,wheat,I,t,54,1,1282.7999999998137,786201.5,8007,WL,C,9.0
7,29.674000024795532,immed,30325.999975204468,Wed Sep 18 2024 18:04:18 GMT-0500 (Central Daylight Time),787817.3999999994,A,wheatenter,I,enter,316,1,1615.8999999994412,786201.5,8007,WL,C,9.0
7,31.557000160217285,immed,28442.999839782715,Wed Sep 18 2024 18:04:18 GMT-0500 (Central Daylight Time),789700.0999999996,A,l,I,l,1879,1,1882.3999999994412,787817.7000000002,8007,WL,C,10.0
7,31.723000049591064,immed,28276.999950408936,Wed Sep 18 2024 18:04:18 GMT-0500 (Central Daylight Time),789866.5999999996,A,le,I,e,148,1,2048.899999999441,787817.7000000002,8007,WL,C,10.0
7,31.890000104904175,immed,28109.999895095825,Wed Sep 18 2024 18:04:18 GMT-0500 (Central Daylight Time),790033.3999999994,A,let,I,t,157,1,2215.699999999255,787817.7000000002,8007,WL,C,10.0
7,32.123000144958496,immed,27876.999855041504,Wed Sep 18 2024 18:04:18 GMT-0500 (Central Daylight Time),790266.5,A,lett,I,t,213,1,2448.7999999998137,787817.7000000002,8007,WL,C,10.0
7,32.206000089645386,immed,27793.999910354614,Wed Sep 18 2024 18:04:18 GMT-0500 (Central Daylight Time),790349.5999999996,A,lette,I,e,76,1,2531.899999999441,787817.7000000002,8007,WL,C,10.0
7,32.35600018501282,immed,27643.999814987183,Wed Sep 18 2024 18:04:18 GMT-0500 (Central Daylight Time),790499.5,A,letter,I,r,129,1,2681.7999999998137,787817.7000000002,8007,WL,C,10.0
7,32.52300000190735,immed,27476.99999809265,Wed Sep 18 2024 18:04:18 GMT-0500 (Central Daylight Time),790666.0999999996,A,letterenter,I,enter,155,1,2848.399999999441,787817.7000000002,8007,WL,C,10.0
7,41.753000020980835,immed,18246.999979019165,Wed Sep 18 2024 18:04:18 GMT-0500 (Central Daylight Time),799896.7999999998,A,s,I,s,9213,1,9230.5,790666.2999999998,8007,WL,C,11.0
7,41.82000017166138,immed,18179.999828338623,Wed Sep 18 2024 18:04:18 GMT-0500 (Central Daylight Time),799964.0,A,sh,I,h,54,1,9297.700000000186,790666.2999999998,8007,WL,C,11.0
7,41.937000036239624,immed,18062.999963760376,Wed Sep 18 2024 18:04:18 GMT-0500 (Central Daylight Time),800080.2999999998,A,sho,I,o,99,1,9414.0,790666.2999999998,8007,WL,C,11.0
7,42.07000017166138,immed,17929.999828338623,Wed Sep 18 2024 18:04:18 GMT-0500 (Central Daylight Time),800213.5999999996,A,shor,I,r,119,1,9547.299999999814,790666.2999999998,8007,WL,C,11.0
7,42.187000036239624,immed,17812.999963760376,Wed Sep 18 2024 18:04:18 GMT-0500 (Central Daylight Time),800330.0999999996,A,shore,I,e,98,1,9663.799999999814,790666.2999999998,8007,WL,C,11.0
7,42.40300011634827,immed,17596.999883651733,Wed Sep 18 2024 18:04:18 GMT-0500 (Central Daylight Time),800546.8999999994,A,shoreenter,I,enter,198,1,9880.599999999627,790666.2999999998,8007,WL,C,11.0
7,49.068000078201294,immed,10931.999921798706,Wed Sep 18 2024 18:04:18 GMT-0500 (Central Daylight Time),807211.2000000002,A,c,I,c,6645,1,6664.100000000559,800547.0999999996,8007,WL,C,12.0
7,49.20099997520447,immed,10799.000024795532,Wed Sep 18 2024 18:04:18 GMT-0500 (Central Daylight Time),807344.7999999998,A,ca,I,a,116,1,6797.700000000186,800547.0999999996,8007,WL,C,12.0
7,49.33400011062622,immed,10665.99988937378,Wed Sep 18 2024 18:04:18 GMT-0500 (Central Daylight Time),807477.7999999998,A,cat,I,t,119,1,6930.700000000186,800547.0999999996,8007,WL,C,12.0
7,49.551000118255615,immed,10448.999881744385,Wed Sep 18 2024 18:04:18 GMT-0500 (Central Daylight Time),807694.7999999998,A,catt,I,t,202,1,7147.700000000186,800547.0999999996,8007,WL,C,12.0
7,50.20099997520447,immed,9799.000024795532,Wed Sep 18 2024 18:04:18 GMT-0500 (Central Daylight Time),808344.3999999994,A,cattl,I,l,641,1,7797.299999999814,800547.0999999996,8007,WL,C,12.0
7,50.33400011062622,immed,9665.99988937378,Wed Sep 18 2024 18:04:18 GMT-0500 (Central Daylight Time),808477.5,A,cattle,I,e,119,1,7930.4000000003725,800547.0999999996,8007,WL,C,12.0
7,50.56700015068054,immed,9432.999849319458,Wed Sep 18 2024 18:04:18 GMT-0500 (Central Daylight Time),808710.8999999994,A,cattleenter,I,enter,226,1,8163.799999999814,800547.0999999996,8007,WL,C,12.0
7,56.99900007247925,immed,3000.999927520752,Wed Sep 18 2024 18:04:18 GMT-0500 (Central Daylight Time),815142.0999999996,A,s,I,s,6416,1,6430.799999999814,808711.2999999998,8007,WL,C,13.0
7,57.11500000953674,immed,2884.999990463257,Wed Sep 18 2024 18:04:18 GMT-0500 (Central Daylight Time),815258.7999999998,A,su,I,u,105,1,6547.5,808711.2999999998,8007,WL,C,13.0
7,57.31500005722046,immed,2684.999942779541,Wed Sep 18 2024 18:04:18 GMT-0500 (Central Daylight Time),815458.8999999994,A,sug,I,g,189,1,6747.5999999996275,808711.2999999998,8007,WL,C,13.0
7,57.54800009727478,immed,2451.9999027252197,Wed Sep 18 2024 18:04:18 GMT-0500 (Central Daylight Time),815691.8999999994,A,suga,I,a,221,1,6980.5999999996275,808711.2999999998,8007,WL,C,13.0
7,57.64800000190735,immed,2351.9999980926514,Wed Sep 18 2024 18:04:18 GMT-0500 (Central Daylight Time),815791.8999999994,A,sugar,I,r,83,1,7080.5999999996275,808711.2999999998,8007,WL,C,13.0
7,57.89800000190735,immed,2101.9999980926514,Wed Sep 18 2024 18:04:18 GMT-0500 (Central Daylight Time),816042.0,A,sugarenter,I,enter,232,1,7330.700000000186,808711.2999999998,8007,WL,C,13.0
7,60.015000104904175,immed,-15.000104904174805,Wed Sep 18 2024 18:04:18 GMT-0500 (Central Daylight Time),818158.3999999994,A,None,I,None,2112,1,2116.0999999996275,816042.2999999998,8007,WL,C,14.0
