Number,acc_sum,block,block_c,block_cond,con_img,correct,correct_response,datetime,endtime,jitter,project,response,response_time,row_sel,session_number,start_end,starttime,subject_id,task,task_vers,trial
8,0,prac,1,A,circle.png,0,m,Mon Feb 17 2025 16:46:44 GMT-0600 (Central Standard Time),59694.89999999991,1600,O,None,1514,7,1,3878.899999999907,55816.0,7049,NTS,A,1
9,0,prac,1,A,circle.png,0,m,Mon Feb 17 2025 16:46:44 GMT-0600 (Central Standard Time),63491.799999999814,1500,O,None,1515,8,1,3790.7999999998137,59701.0,7049,NTS,A,2
4,1,prac,1,A,circle.png,1,z,Mon Feb 17 2025 16:46:44 GMT-0600 (Central Standard Time),67007.29999999981,1400,O,z,1325,4,1,3510.399999999907,63496.89999999991,7049,NTS,A,3
4,2,prac,1,A,circle.png,1,z,Mon Feb 17 2025 16:46:44 GMT-0600 (Central Standard Time),69773.19999999972,1400,O,z,569,4,1,2760.5,67012.69999999972,7049,NTS,A,4
7,3,prac,1,A,circle.png,1,m,Mon Feb 17 2025 16:46:44 GMT-0600 (Central Standard Time),73005.59999999963,1700,O,m,734,6,1,3225.899999999907,69779.69999999972,7049,NTS,A,5
6,4,prac,1,A,circle.png,1,m,Mon Feb 17 2025 16:46:44 GMT-0600 (Central Standard Time),76454.69999999972,1900,O,m,760,5,1,3443.1999999997206,73011.5,7049,NTS,A,6
2,5,prac,1,A,circle.png,1,z,Mon Feb 17 2025 16:46:44 GMT-0600 (Central Standard Time),79753.69999999972,2000,O,z,507,2,1,3293.2999999998137,76460.3999999999,7049,NTS,A,7
9,6,prac,1,A,circle.png,1,m,Mon Feb 17 2025 16:46:44 GMT-0600 (Central Standard Time),82552.5,1500,O,m,527,8,1,2793.7000000001863,79758.79999999981,7049,NTS,A,8
8,7,prac,1,A,circle.png,1,m,Mon Feb 17 2025 16:46:44 GMT-0600 (Central Standard Time),85401.5,1600,O,m,464,7,1,2843.100000000093,82558.3999999999,7049,NTS,A,9
1,8,prac,1,A,circle.png,1,z,Mon Feb 17 2025 16:46:44 GMT-0600 (Central Standard Time),87767.59999999963,1000,O,z,567,1,1,2360.2999999998137,85407.29999999981,7049,NTS,A,10
2,9,prac,1,A,circle.png,1,z,Mon Feb 17 2025 16:46:44 GMT-0600 (Central Standard Time),91183.19999999972,2000,O,z,618,2,1,3410.2999999998137,87772.8999999999,7049,NTS,A,11
3,10,prac,1,A,circle.png,1,z,Mon Feb 17 2025 16:46:44 GMT-0600 (Central Standard Time),93765.8999999999,1200,O,z,594,3,1,2576.899999999907,91189.0,7049,NTS,A,12
1,1,prac,1,B,triangle.png,1,z,Mon Feb 17 2025 16:46:44 GMT-0600 (Central Standard Time),124472.79999999981,1900,O,z,1241,1,1,3928.0,120544.79999999981,7049,NTS,A,1
6,2,prac,1,B,triangle.png,1,m,Mon Feb 17 2025 16:46:44 GMT-0600 (Central Standard Time),126822.19999999972,1000,O,m,560,5,1,2344.2999999998137,124477.8999999999,7049,NTS,A,2
2,3,prac,1,B,triangle.png,1,m,Mon Feb 17 2025 16:46:44 GMT-0600 (Central Standard Time),129837.69999999972,1700,O,m,527,2,1,3010.399999999907,126827.29999999981,7049,NTS,A,3
3,4,prac,1,B,triangle.png,1,z,Mon Feb 17 2025 16:46:44 GMT-0600 (Central Standard Time),132653.59999999963,1600,O,z,428,3,1,2811.0999999996275,129842.5,7049,NTS,A,4
6,5,prac,1,B,triangle.png,1,m,Mon Feb 17 2025 16:46:44 GMT-0600 (Central Standard Time),135019.3999999999,1000,O,m,572,5,1,2360.399999999907,132659.0,7049,NTS,A,5
4,6,prac,1,B,triangle.png,1,m,Mon Feb 17 2025 16:46:44 GMT-0600 (Central Standard Time),137835.2999999998,1500,O,m,530,4,1,2810.600000000093,135024.69999999972,7049,NTS,A,6
1,7,prac,1,B,triangle.png,1,z,Mon Feb 17 2025 16:46:44 GMT-0600 (Central Standard Time),141000.8999999999,1900,O,z,467,1,1,3160.600000000093,137840.2999999998,7049,NTS,A,7
8,8,prac,1,B,triangle.png,1,m,Mon Feb 17 2025 16:46:44 GMT-0600 (Central Standard Time),143516.7999999998,1200,O,m,528,7,1,2510.7000000001863,141006.09999999963,7049,NTS,A,8
3,9,prac,1,B,triangle.png,1,z,Mon Feb 17 2025 16:46:44 GMT-0600 (Central Standard Time),146449.2999999998,1600,O,z,549,3,1,2925.600000000093,143523.69999999972,7049,NTS,A,9
8,10,prac,1,B,triangle.png,1,m,Mon Feb 17 2025 16:46:44 GMT-0600 (Central Standard Time),148965.0,1200,O,m,520,7,1,2510.9000000003725,146454.09999999963,7049,NTS,A,10
9,11,prac,1,B,triangle.png,1,z,Mon Feb 17 2025 16:46:44 GMT-0600 (Central Standard Time),151647.69999999972,1400,O,z,484,8,1,2677.7999999998137,148969.8999999999,7049,NTS,A,11
7,11,prac,1,B,triangle.png,0,z,Mon Feb 17 2025 16:46:44 GMT-0600 (Central Standard Time),155413.0,2000,O,m,978,6,1,3760.4000000003725,151652.59999999963,7049,NTS,A,12
4,1,test,1,A,circle.png,1,z,Mon Feb 17 2025 16:46:44 GMT-0600 (Central Standard Time),178306.09999999963,1400,O,z,658,4,1,2078.1999999997206,176227.8999999999,7049,NTS,A,1
8,2,test,1,A,circle.png,1,m,Mon Feb 17 2025 16:46:44 GMT-0600 (Central Standard Time),180405.2999999998,1600,O,m,471,7,1,2095.0,178310.2999999998,7049,NTS,A,2
3,3,test,1,A,circle.png,1,z,Mon Feb 17 2025 16:46:44 GMT-0600 (Central Standard Time),182121.2999999998,1200,O,z,492,3,1,1711.8999999999069,180409.3999999999,7049,NTS,A,3
6,4,test,1,A,circle.png,1,m,Mon Feb 17 2025 16:46:44 GMT-0600 (Central Standard Time),184570.59999999963,1900,O,m,532,5,1,2445.5,182125.09999999963,7049,NTS,A,4
8,5,test,1,A,circle.png,1,m,Mon Feb 17 2025 16:46:44 GMT-0600 (Central Standard Time),186687.5,1600,O,m,494,7,1,2113.3000000002794,184574.19999999972,7049,NTS,A,5
1,6,test,1,A,circle.png,1,z,Mon Feb 17 2025 16:46:44 GMT-0600 (Central Standard Time),188336.09999999963,1000,O,z,618,1,1,1644.5,186691.59999999963,7049,NTS,A,6
6,7,test,1,A,circle.png,1,m,Mon Feb 17 2025 16:46:44 GMT-0600 (Central Standard Time),190851.69999999972,1900,O,m,597,5,1,2511.600000000093,188340.09999999963,7049,NTS,A,7
7,8,test,1,A,circle.png,1,m,Mon Feb 17 2025 16:46:44 GMT-0600 (Central Standard Time),193218.09999999963,1700,O,m,642,6,1,2362.6999999997206,190855.3999999999,7049,NTS,A,8
9,9,test,1,A,circle.png,1,m,Mon Feb 17 2025 16:46:44 GMT-0600 (Central Standard Time),195250.7999999998,1500,O,m,500,8,1,2029.2999999998137,193221.5,7049,NTS,A,9
8,10,test,1,A,circle.png,1,m,Mon Feb 17 2025 16:46:44 GMT-0600 (Central Standard Time),197533.19999999972,1600,O,m,662,7,1,2278.6999999997206,195254.5,7049,NTS,A,10
9,11,test,1,A,circle.png,1,m,Mon Feb 17 2025 16:46:44 GMT-0600 (Central Standard Time),199682.3999999999,1500,O,m,624,8,1,2145.399999999907,197537.0,7049,NTS,A,11
8,12,test,1,A,circle.png,1,m,Mon Feb 17 2025 16:46:44 GMT-0600 (Central Standard Time),201765.3999999999,1600,O,m,455,7,1,2079.0,199686.3999999999,7049,NTS,A,12
4,13,test,1,A,circle.png,1,z,Mon Feb 17 2025 16:46:44 GMT-0600 (Central Standard Time),203747.69999999972,1400,O,z,556,4,1,1978.3999999999069,201769.2999999998,7049,NTS,A,13
2,14,test,1,A,circle.png,1,z,Mon Feb 17 2025 16:46:44 GMT-0600 (Central Standard Time),206513.69999999972,2000,O,z,734,2,1,2762.399999999907,203751.2999999998,7049,NTS,A,14
7,15,test,1,A,circle.png,1,m,Mon Feb 17 2025 16:46:44 GMT-0600 (Central Standard Time),209213.09999999963,1700,O,m,980,6,1,2695.7999999998137,206517.2999999998,7049,NTS,A,15
7,16,test,1,A,circle.png,1,m,Mon Feb 17 2025 16:46:44 GMT-0600 (Central Standard Time),211612.19999999972,1700,O,m,672,6,1,2395.5,209216.69999999972,7049,NTS,A,16
3,17,test,1,A,circle.png,1,z,Mon Feb 17 2025 16:46:44 GMT-0600 (Central Standard Time),213661.2999999998,1200,O,z,829,3,1,2045.2999999998137,211616.0,7049,NTS,A,17
1,18,test,1,A,circle.png,1,z,Mon Feb 17 2025 16:46:44 GMT-0600 (Central Standard Time),215277.59999999963,1000,O,z,595,1,1,1612.5999999996275,213665.0,7049,NTS,A,18
1,19,test,1,A,circle.png,1,z,Mon Feb 17 2025 16:46:44 GMT-0600 (Central Standard Time),217110.3999999999,1000,O,z,811,1,1,1829.2000000001863,215281.19999999972,7049,NTS,A,19
2,20,test,1,A,circle.png,1,z,Mon Feb 17 2025 16:46:44 GMT-0600 (Central Standard Time),220092.7999999998,2000,O,z,955,2,1,2978.899999999907,217113.8999999999,7049,NTS,A,20
2,21,test,1,A,circle.png,1,z,Mon Feb 17 2025 16:46:44 GMT-0600 (Central Standard Time),222692.19999999972,2000,O,z,580,2,1,2595.6999999997206,220096.5,7049,NTS,A,21
7,22,test,1,A,circle.png,1,m,Mon Feb 17 2025 16:46:44 GMT-0600 (Central Standard Time),225058.0,1700,O,m,633,6,1,2362.100000000093,222695.8999999999,7049,NTS,A,22
6,23,test,1,A,circle.png,1,m,Mon Feb 17 2025 16:46:44 GMT-0600 (Central Standard Time),227490.59999999963,1900,O,m,515,5,1,2428.899999999907,225061.69999999972,7049,NTS,A,23
6,24,test,1,A,circle.png,1,m,Mon Feb 17 2025 16:46:44 GMT-0600 (Central Standard Time),229872.69999999972,1900,O,m,461,5,1,2378.6999999997206,227494.0,7049,NTS,A,24
1,1,test,1,B,triangle.png,1,z,Mon Feb 17 2025 16:46:44 GMT-0600 (Central Standard Time),247434.5,1900,O,z,616,1,1,2546.3000000002794,244888.19999999972,7049,NTS,A,1
2,2,test,1,B,triangle.png,1,m,Mon Feb 17 2025 16:46:44 GMT-0600 (Central Standard Time),249167.09999999963,1200,O,m,511,10,1,1728.7999999998137,247438.2999999998,7049,NTS,A,2
4,3,test,1,B,triangle.png,1,m,Mon Feb 17 2025 16:46:44 GMT-0600 (Central Standard Time),250684.3999999999,1000,O,m,498,12,1,1513.8000000002794,249170.59999999963,7049,NTS,A,3
9,4,test,1,B,triangle.png,1,z,Mon Feb 17 2025 16:46:44 GMT-0600 (Central Standard Time),253182.3999999999,1900,O,z,570,16,1,2493.600000000093,250688.7999999998,7049,NTS,A,4
1,5,test,1,B,triangle.png,1,z,Mon Feb 17 2025 16:46:44 GMT-0600 (Central Standard Time),255681.3999999999,1900,O,z,567,1,1,2495.2000000001863,253186.19999999972,7049,NTS,A,5
8,6,test,1,B,triangle.png,1,m,Mon Feb 17 2025 16:46:44 GMT-0600 (Central Standard Time),257431.09999999963,1200,O,m,520,7,1,1746.0999999996275,255685.0,7049,NTS,A,6
6,7,test,1,B,triangle.png,1,m,Mon Feb 17 2025 16:46:44 GMT-0600 (Central Standard Time),258964.0,1000,O,m,506,5,1,1529.3000000002794,257434.69999999972,7049,NTS,A,7
7,8,test,1,B,triangle.png,1,z,Mon Feb 17 2025 16:46:44 GMT-0600 (Central Standard Time),261130.19999999972,1600,O,z,533,14,1,2162.5,258967.69999999972,7049,NTS,A,8
2,8,test,1,B,triangle.png,0,m,Mon Feb 17 2025 16:46:44 GMT-0600 (Central Standard Time),263412.5,1700,O,z,563,2,1,2278.0,261134.5,7049,NTS,A,9
9,8,test,1,B,triangle.png,0,z,Mon Feb 17 2025 16:46:44 GMT-0600 (Central Standard Time),265912.0,1400,O,m,1077,8,1,2495.3000000002794,263416.6999999997,7049,NTS,A,10
9,9,test,1,B,triangle.png,1,z,Mon Feb 17 2025 16:46:44 GMT-0600 (Central Standard Time),269061.8999999999,1900,O,z,1230,16,1,3144.899999999907,265917.0,7049,NTS,A,11
8,10,test,1,B,triangle.png,1,m,Mon Feb 17 2025 16:46:44 GMT-0600 (Central Standard Time),271076.6999999997,1200,O,m,794,7,1,2010.6000000000931,269066.0999999996,7049,NTS,A,12
6,11,test,1,B,triangle.png,1,m,Mon Feb 17 2025 16:46:44 GMT-0600 (Central Standard Time),272943.0999999996,1000,O,m,836,5,1,1862.5,271080.5999999996,7049,NTS,A,13
7,12,test,1,B,triangle.png,1,z,Mon Feb 17 2025 16:46:44 GMT-0600 (Central Standard Time),275442.1999999997,1600,O,z,874,14,1,2494.6999999997206,272947.5,7049,NTS,A,14
3,13,test,1,B,triangle.png,1,z,Mon Feb 17 2025 16:46:44 GMT-0600 (Central Standard Time),277824.5999999996,1600,O,z,751,3,1,2378.6999999997206,275445.8999999999,7049,NTS,A,15
6,14,test,1,B,triangle.png,1,m,Mon Feb 17 2025 16:46:44 GMT-0600 (Central Standard Time),280174.0,1500,O,m,828,13,1,2345.600000000093,277828.3999999999,7049,NTS,A,16
2,15,test,1,B,triangle.png,1,m,Mon Feb 17 2025 16:46:44 GMT-0600 (Central Standard Time),282539.8999999999,1700,O,m,647,2,1,2362.3000000002794,280177.5999999996,7049,NTS,A,17
4,16,test,1,B,triangle.png,1,m,Mon Feb 17 2025 16:46:44 GMT-0600 (Central Standard Time),285072.5999999996,1500,O,m,1001,4,1,2529.0,282543.5999999996,7049,NTS,A,18
4,17,test,1,B,triangle.png,1,m,Mon Feb 17 2025 16:46:44 GMT-0600 (Central Standard Time),286572.0,1000,O,m,481,12,1,1495.4000000003725,285076.5999999996,7049,NTS,A,19
3,18,test,1,B,triangle.png,1,z,Mon Feb 17 2025 16:46:44 GMT-0600 (Central Standard Time),289187.8999999999,2000,O,z,597,11,1,2612.100000000093,286575.7999999998,7049,NTS,A,20
9,19,test,1,B,triangle.png,1,z,Mon Feb 17 2025 16:46:44 GMT-0600 (Central Standard Time),291470.5,1400,O,z,861,8,1,2278.9000000003725,289191.5999999996,7049,NTS,A,21
8,20,test,1,B,triangle.png,1,m,Mon Feb 17 2025 16:46:44 GMT-0600 (Central Standard Time),294186.5999999996,1700,O,m,999,15,1,2712.2999999998137,291474.2999999998,7049,NTS,A,22
7,21,test,1,B,triangle.png,1,z,Mon Feb 17 2025 16:46:44 GMT-0600 (Central Standard Time),296802.5,2000,O,z,599,6,1,2612.4000000003725,294190.0999999996,7049,NTS,A,23
1,22,test,1,B,triangle.png,1,z,Mon Feb 17 2025 16:46:44 GMT-0600 (Central Standard Time),298784.7999999998,1400,O,z,551,9,1,1978.6000000000931,296806.1999999997,7049,NTS,A,24
6,0,prac,1,C,circle.png,0,m,Mon Feb 17 2025 16:46:44 GMT-0600 (Central Standard Time),349052.3999999999,2000,O,None,1516,5,1,4292.600000000093,344759.7999999998,7049,NTS,A,1
1,1,prac,1,C,circle.png,1,z,Mon Feb 17 2025 16:46:44 GMT-0600 (Central Standard Time),352767.8999999999,1700,O,z,1217,1,1,3709.899999999907,349058.0,7049,NTS,A,2
9,2,prac,1,C,circle.png,1,m,Mon Feb 17 2025 16:46:44 GMT-0600 (Central Standard Time),356467.0999999996,1900,O,m,1005,8,1,3694.6999999997206,352772.3999999999,7049,NTS,A,3
2,3,prac,1,C,triangle.png,1,m,Mon Feb 17 2025 16:46:44 GMT-0600 (Central Standard Time),360315.6999999997,1600,O,m,1455,2,1,3843.5,356472.1999999997,7049,NTS,A,4
2,4,prac,1,C,triangle.png,1,m,Mon Feb 17 2025 16:46:44 GMT-0600 (Central Standard Time),363997.7999999998,1600,O,m,1294,2,1,3677.2000000001863,360320.5999999996,7049,NTS,A,5
6,5,prac,1,C,circle.png,1,m,Mon Feb 17 2025 16:46:44 GMT-0600 (Central Standard Time),368129.7999999998,2000,O,m,1340,5,1,4126.700000000186,364003.0999999996,7049,NTS,A,6
7,6,prac,1,C,triangle.png,1,z,Mon Feb 17 2025 16:46:44 GMT-0600 (Central Standard Time),371112.1999999997,1200,O,z,991,6,1,2977.1999999997206,368135.0,7049,NTS,A,7
3,7,prac,1,C,triangle.png,1,z,Mon Feb 17 2025 16:46:44 GMT-0600 (Central Standard Time),374211.3999999999,1500,O,z,805,3,1,3094.0,371117.3999999999,7049,NTS,A,8
4,7,prac,1,C,circle.png,0,z,Mon Feb 17 2025 16:46:44 GMT-0600 (Central Standard Time),377510.0999999996,1000,O,None,1516,4,1,3293.5,374216.5999999996,7049,NTS,A,9
8,8,prac,1,C,triangle.png,1,m,Mon Feb 17 2025 16:46:44 GMT-0600 (Central Standard Time),380692.5,1400,O,m,995,7,1,3177.5,377515.0,7049,NTS,A,10
7,9,prac,1,C,triangle.png,1,z,Mon Feb 17 2025 16:46:44 GMT-0600 (Central Standard Time),383508.1999999997,1200,O,z,829,6,1,2810.600000000093,380697.5999999996,7049,NTS,A,11
8,9,prac,1,C,triangle.png,0,m,Mon Feb 17 2025 16:46:44 GMT-0600 (Central Standard Time),387207.0,1400,O,None,1516,7,1,3693.3000000002794,383513.6999999997,7049,NTS,A,12
1,0,test,1,C,circle.png,0,z,Mon Feb 17 2025 16:46:44 GMT-0600 (Central Standard Time),429710.5,1000,O,None,1515,1,1,2529.4000000003725,427181.0999999996,7049,NTS,A,1
4,1,test,1,C,triangle.png,1,m,Mon Feb 17 2025 16:46:44 GMT-0600 (Central Standard Time),432642.8999999999,1500,O,m,1406,12,1,2927.0,429715.8999999999,7049,NTS,A,2
8,1,test,1,C,triangle.png,0,m,Mon Feb 17 2025 16:46:44 GMT-0600 (Central Standard Time),435775.3999999999,1600,O,None,1516,7,1,3128.100000000093,432647.2999999998,7049,NTS,A,3
4,1,test,1,C,triangle.png,0,m,Mon Feb 17 2025 16:46:44 GMT-0600 (Central Standard Time),438807.6999999997,1500,O,None,1516,20,1,3028.7999999998137,435778.8999999999,7049,NTS,A,4
4,1,test,1,C,circle.png,0,z,Mon Feb 17 2025 16:46:44 GMT-0600 (Central Standard Time),441740.0999999996,1400,O,None,1516,4,1,2928.6999999997206,438811.3999999999,7049,NTS,A,5
3,2,test,1,C,circle.png,1,z,Mon Feb 17 2025 16:46:44 GMT-0600 (Central Standard Time),444672.5999999996,1600,O,z,1301,11,1,2928.2999999998137,441744.2999999998,7049,NTS,A,6
3,3,test,1,C,triangle.png,1,z,Mon Feb 17 2025 16:46:44 GMT-0600 (Central Standard Time),446821.8999999999,1200,O,z,921,3,1,2145.5,444676.3999999999,7049,NTS,A,7
1,4,test,1,C,triangle.png,1,z,Mon Feb 17 2025 16:46:44 GMT-0600 (Central Standard Time),449370.7999999998,1900,O,z,632,17,1,2545.100000000093,446825.6999999997,7049,NTS,A,8
2,4,test,1,C,triangle.png,0,m,Mon Feb 17 2025 16:46:44 GMT-0600 (Central Standard Time),452903.3999999999,2000,O,None,1516,2,1,3528.600000000093,449374.7999999998,7049,NTS,A,9
7,5,test,1,C,triangle.png,1,z,Mon Feb 17 2025 16:46:44 GMT-0600 (Central Standard Time),455952.2999999998,1700,O,z,1318,6,1,3045.100000000093,452907.1999999997,7049,NTS,A,10
7,6,test,1,C,triangle.png,1,z,Mon Feb 17 2025 16:46:44 GMT-0600 (Central Standard Time),458901.2999999998,1700,O,z,1229,22,1,2945.2999999998137,455956.0,7049,NTS,A,11
8,7,test,1,C,circle.png,1,m,Mon Feb 17 2025 16:46:44 GMT-0600 (Central Standard Time),461600.6999999997,1200,O,m,1476,15,1,2695.6999999997206,458905.0,7049,NTS,A,12
2,7,test,1,C,circle.png,0,z,Mon Feb 17 2025 16:46:44 GMT-0600 (Central Standard Time),464832.8999999999,1700,O,None,1516,10,1,3228.5,461604.3999999999,7049,NTS,A,13
6,8,test,1,C,triangle.png,1,m,Mon Feb 17 2025 16:46:44 GMT-0600 (Central Standard Time),466915.5,1000,O,m,1056,13,1,2078.3000000002794,464837.1999999997,7049,NTS,A,14
6,9,test,1,C,circle.png,1,m,Mon Feb 17 2025 16:46:44 GMT-0600 (Central Standard Time),470114.8999999999,1900,O,m,1267,21,1,3195.399999999907,466919.5,7049,NTS,A,15
2,10,test,1,C,circle.png,1,z,Mon Feb 17 2025 16:46:44 GMT-0600 (Central Standard Time),473080.0,1700,O,z,1235,18,1,2961.4000000003725,470118.5999999996,7049,NTS,A,16
6,11,test,1,C,circle.png,1,m,Mon Feb 17 2025 16:46:44 GMT-0600 (Central Standard Time),476062.3999999999,1900,O,m,1053,5,1,2978.3000000002794,473084.0999999996,7049,NTS,A,17
8,11,test,1,C,triangle.png,0,m,Mon Feb 17 2025 16:46:44 GMT-0600 (Central Standard Time),479195.0999999996,1600,O,None,1516,23,1,3128.7999999998137,476066.2999999998,7049,NTS,A,18
9,11,test,1,C,circle.png,0,m,Mon Feb 17 2025 16:46:44 GMT-0600 (Central Standard Time),482227.2999999998,1500,O,None,1515,24,1,3027.600000000093,479199.6999999997,7049,NTS,A,19
9,12,test,1,C,circle.png,1,m,Mon Feb 17 2025 16:46:44 GMT-0600 (Central Standard Time),484743.2999999998,1500,O,m,994,8,1,2512.399999999907,482230.8999999999,7049,NTS,A,20
7,13,test,1,C,circle.png,1,m,Mon Feb 17 2025 16:46:44 GMT-0600 (Central Standard Time),487825.6999999997,2000,O,m,1058,14,1,3078.5,484747.1999999997,7049,NTS,A,21
9,13,test,1,C,triangle.png,0,z,Mon Feb 17 2025 16:46:44 GMT-0600 (Central Standard Time),490325.0,1400,O,m,1072,16,1,2495.100000000093,487829.8999999999,7049,NTS,A,22
3,14,test,1,C,circle.png,1,z,Mon Feb 17 2025 16:46:44 GMT-0600 (Central Standard Time),493123.8999999999,1600,O,z,1173,19,1,2795.3000000002794,490328.5999999996,7049,NTS,A,23
1,15,test,1,C,triangle.png,1,z,Mon Feb 17 2025 16:46:44 GMT-0600 (Central Standard Time),495973.0999999996,1900,O,z,921,9,1,2845.5,493127.5999999996,7049,NTS,A,24
4,0,test,2,C,circle.png,0,z,Mon Feb 17 2025 16:46:44 GMT-0600 (Central Standard Time),505597.6999999997,1400,O,None,1610,4,1,3023.5,502574.1999999997,7049,NTS,A,1
9,0,test,2,C,triangle.png,0,z,Mon Feb 17 2025 16:46:44 GMT-0600 (Central Standard Time),507986.1999999997,1400,O,m,950,24,1,2383.6999999997206,505602.5,7049,NTS,A,2
8,1,test,2,C,circle.png,1,m,Mon Feb 17 2025 16:46:44 GMT-0600 (Central Standard Time),510651.8999999999,1200,O,m,1438,23,1,2661.7000000001863,507990.1999999997,7049,NTS,A,3
6,2,test,2,C,circle.png,1,m,Mon Feb 17 2025 16:46:44 GMT-0600 (Central Standard Time),513517.5999999996,1900,O,m,938,5,1,2861.899999999907,510655.6999999997,7049,NTS,A,4
3,3,test,2,C,triangle.png,1,z,Mon Feb 17 2025 16:46:44 GMT-0600 (Central Standard Time),515950.0,1200,O,z,1213,3,1,2428.600000000093,513521.3999999999,7049,NTS,A,5
1,4,test,2,C,circle.png,1,z,Mon Feb 17 2025 16:46:44 GMT-0600 (Central Standard Time),518332.7999999998,1000,O,z,1355,1,1,2378.7000000001863,515954.0999999996,7049,NTS,A,6
7,5,test,2,C,circle.png,1,m,Mon Feb 17 2025 16:46:44 GMT-0600 (Central Standard Time),521331.6999999997,2000,O,m,973,22,1,2994.600000000093,518337.0999999996,7049,NTS,A,7
8,6,test,2,C,circle.png,1,m,Mon Feb 17 2025 16:46:44 GMT-0600 (Central Standard Time),523530.8999999999,1200,O,m,981,15,1,2195.5,521335.3999999999,7049,NTS,A,8
2,7,test,2,C,circle.png,1,z,Mon Feb 17 2025 16:46:44 GMT-0600 (Central Standard Time),526163.6999999997,1700,O,z,914,18,1,2629.1999999997206,523534.5,7049,NTS,A,9
4,8,test,2,C,triangle.png,1,m,Mon Feb 17 2025 16:46:44 GMT-0600 (Central Standard Time),529157.0999999996,1500,O,m,1475,12,1,2989.5999999996275,526167.5,7049,NTS,A,10
7,8,test,2,C,triangle.png,0,z,Mon Feb 17 2025 16:46:44 GMT-0600 (Central Standard Time),532328.1999999997,1700,O,m,1435,6,1,3166.899999999907,529161.2999999998,7049,NTS,A,11
8,8,test,2,C,triangle.png,0,m,Mon Feb 17 2025 16:46:44 GMT-0600 (Central Standard Time),535460.6999999997,1600,O,None,1516,7,1,3128.399999999907,532332.2999999998,7049,NTS,A,12
6,9,test,2,C,triangle.png,1,m,Mon Feb 17 2025 16:46:44 GMT-0600 (Central Standard Time),537960.0999999996,1000,O,m,1477,21,1,2495.2999999998137,535464.7999999998,7049,NTS,A,13
7,10,test,2,C,circle.png,1,m,Mon Feb 17 2025 16:46:44 GMT-0600 (Central Standard Time),540959.0999999996,2000,O,m,970,14,1,2995.399999999907,537963.6999999997,7049,NTS,A,14
1,11,test,2,C,triangle.png,1,z,Mon Feb 17 2025 16:46:44 GMT-0600 (Central Standard Time),543508.1999999997,1900,O,z,622,17,1,2544.7999999998137,540963.3999999999,7049,NTS,A,15
3,12,test,2,C,circle.png,1,z,Mon Feb 17 2025 16:46:44 GMT-0600 (Central Standard Time),545957.3999999999,1600,O,z,830,11,1,2445.3000000002794,543512.0999999996,7049,NTS,A,16
6,12,test,2,C,triangle.png,0,m,Mon Feb 17 2025 16:46:44 GMT-0600 (Central Standard Time),548090.0999999996,1000,O,z,1100,13,1,2128.899999999907,545961.1999999997,7049,NTS,A,17
9,12,test,2,C,triangle.png,0,z,Mon Feb 17 2025 16:46:44 GMT-0600 (Central Standard Time),550672.5,1400,O,m,1159,16,1,2578.5,548094.0,7049,NTS,A,18
4,13,test,2,C,triangle.png,1,m,Mon Feb 17 2025 16:46:44 GMT-0600 (Central Standard Time),553288.6999999997,1500,O,m,1092,20,1,2612.0,550676.6999999997,7049,NTS,A,19
1,13,test,2,C,triangle.png,0,z,Mon Feb 17 2025 16:46:44 GMT-0600 (Central Standard Time),556337.5999999996,1900,O,m,1125,9,1,3044.899999999907,553292.6999999997,7049,NTS,A,20
2,13,test,2,C,circle.png,0,z,Mon Feb 17 2025 16:46:44 GMT-0600 (Central Standard Time),559569.7999999998,1700,O,None,1516,10,1,3228.100000000093,556341.6999999997,7049,NTS,A,21
2,13,test,2,C,triangle.png,0,m,Mon Feb 17 2025 16:46:44 GMT-0600 (Central Standard Time),563085.1999999997,2000,O,z,1488,2,1,3511.6999999997206,559573.5,7049,NTS,A,22
9,13,test,2,C,circle.png,0,m,Mon Feb 17 2025 16:46:44 GMT-0600 (Central Standard Time),566117.6999999997,1500,O,None,1516,8,1,3028.7999999998137,563088.8999999999,7049,NTS,A,23
3,14,test,2,C,circle.png,1,z,Mon Feb 17 2025 16:46:44 GMT-0600 (Central Standard Time),569000.2999999998,1600,O,z,1260,19,1,2878.7000000001863,566121.5999999996,7049,NTS,A,24
4,1,test,3,C,circle.png,1,z,Mon Feb 17 2025 16:46:44 GMT-0600 (Central Standard Time),582429.2999999998,1400,O,z,921,20,1,2346.0,580083.2999999998,7049,NTS,A,1
9,2,test,3,C,circle.png,1,m,Mon Feb 17 2025 16:46:44 GMT-0600 (Central Standard Time),584778.5999999996,1500,O,m,832,24,1,2345.399999999907,582433.1999999997,7049,NTS,A,2
1,3,test,3,C,circle.png,1,z,Mon Feb 17 2025 16:46:44 GMT-0600 (Central Standard Time),586812.2999999998,1000,O,z,1015,17,1,2029.6000000000931,584782.6999999997,7049,NTS,A,3
4,4,test,3,C,triangle.png,1,m,Mon Feb 17 2025 16:46:44 GMT-0600 (Central Standard Time),589743.6999999997,1500,O,m,1411,12,1,2927.399999999907,586816.2999999998,7049,NTS,A,4
4,5,test,3,C,circle.png,1,z,Mon Feb 17 2025 16:46:44 GMT-0600 (Central Standard Time),592209.5,1400,O,z,1034,4,1,2460.7000000001863,589748.7999999998,7049,NTS,A,5
7,6,test,3,C,circle.png,1,m,Mon Feb 17 2025 16:46:44 GMT-0600 (Central Standard Time),595642.0,2000,O,m,1400,14,1,3428.600000000093,592213.3999999999,7049,NTS,A,6
3,6,test,3,C,triangle.png,0,z,Mon Feb 17 2025 16:46:44 GMT-0600 (Central Standard Time),598374.2999999998,1200,O,None,1515,3,1,2728.5,595645.7999999998,7049,NTS,A,7
3,6,test,3,C,circle.png,0,z,Mon Feb 17 2025 16:46:44 GMT-0600 (Central Standard Time),601190.1999999997,1600,O,m,1195,11,1,2812.1999999997206,598378.0,7049,NTS,A,8
1,7,test,3,C,circle.png,1,z,Mon Feb 17 2025 16:46:44 GMT-0600 (Central Standard Time),603322.6999999997,1000,O,z,1108,1,1,2128.5,601194.1999999997,7049,NTS,A,9
2,8,test,3,C,circle.png,1,z,Mon Feb 17 2025 16:46:44 GMT-0600 (Central Standard Time),605938.8999999999,1700,O,z,884,10,1,2612.8000000002794,603326.0999999996,7049,NTS,A,10
8,9,test,3,C,triangle.png,1,m,Mon Feb 17 2025 16:46:44 GMT-0600 (Central Standard Time),608887.6999999997,1600,O,m,1319,7,1,2944.899999999907,605942.7999999998,7049,NTS,A,11
3,10,test,3,C,triangle.png,1,z,Mon Feb 17 2025 16:46:44 GMT-0600 (Central Standard Time),611336.8999999999,1200,O,z,1225,19,1,2445.600000000093,608891.2999999998,7049,NTS,A,12
8,11,test,3,C,triangle.png,1,m,Mon Feb 17 2025 16:46:44 GMT-0600 (Central Standard Time),613752.7999999998,1600,O,m,784,23,1,2412.0,611340.7999999998,7049,NTS,A,13
9,12,test,3,C,circle.png,1,m,Mon Feb 17 2025 16:46:44 GMT-0600 (Central Standard Time),616218.5999999996,1500,O,m,948,8,1,2461.5999999996275,613757.0,7049,NTS,A,14
7,13,test,3,C,triangle.png,1,z,Mon Feb 17 2025 16:46:44 GMT-0600 (Central Standard Time),619234.3999999999,1700,O,z,1299,22,1,3012.0,616222.3999999999,7049,NTS,A,15
7,14,test,3,C,triangle.png,1,z,Mon Feb 17 2025 16:46:44 GMT-0600 (Central Standard Time),621733.5999999996,1700,O,z,779,6,1,2495.1999999997206,619238.3999999999,7049,NTS,A,16
9,15,test,3,C,triangle.png,1,z,Mon Feb 17 2025 16:46:44 GMT-0600 (Central Standard Time),624399.5,1400,O,z,1197,16,1,2662.100000000093,621737.3999999999,7049,NTS,A,17
2,16,test,3,C,triangle.png,1,m,Mon Feb 17 2025 16:46:44 GMT-0600 (Central Standard Time),627665.1999999997,2000,O,m,1234,18,1,3262.100000000093,624403.0999999996,7049,NTS,A,18
6,17,test,3,C,circle.png,1,m,Mon Feb 17 2025 16:46:44 GMT-0600 (Central Standard Time),630814.2999999998,1900,O,m,1228,5,1,3145.2999999998137,627669.0,7049,NTS,A,19
8,18,test,3,C,circle.png,1,m,Mon Feb 17 2025 16:46:44 GMT-0600 (Central Standard Time),632730.1999999997,1200,O,m,691,15,1,1912.1999999997206,630818.0,7049,NTS,A,20
1,19,test,3,C,triangle.png,1,z,Mon Feb 17 2025 16:46:44 GMT-0600 (Central Standard Time),635679.2999999998,1900,O,z,1019,9,1,2945.100000000093,632734.1999999997,7049,NTS,A,21
6,19,test,3,C,triangle.png,0,m,Mon Feb 17 2025 16:46:44 GMT-0600 (Central Standard Time),637995.0999999996,1000,O,z,1298,13,1,2310.6999999997206,635684.3999999999,7049,NTS,A,22
2,20,test,3,C,triangle.png,1,m,Mon Feb 17 2025 16:46:44 GMT-0600 (Central Standard Time),641260.8999999999,2000,O,m,1238,2,1,3261.7000000001863,637999.1999999997,7049,NTS,A,23
6,21,test,3,C,circle.png,1,m,Mon Feb 17 2025 16:46:44 GMT-0600 (Central Standard Time),643976.5999999996,1900,O,m,792,21,1,2711.6999999997206,641264.8999999999,7049,NTS,A,24
6,0,test,4,C,triangle.png,0,m,Mon Feb 17 2025 16:46:44 GMT-0600 (Central Standard Time),648541.8999999999,1000,O,z,1470,13,1,2496.100000000093,646045.7999999998,7049,NTS,A,1
7,0,test,4,C,triangle.png,0,z,Mon Feb 17 2025 16:46:44 GMT-0600 (Central Standard Time),651774.3999999999,1700,O,None,1515,22,1,3228.899999999907,648545.5,7049,NTS,A,2
2,1,test,4,C,triangle.png,1,m,Mon Feb 17 2025 16:46:44 GMT-0600 (Central Standard Time),654956.5,2000,O,m,1163,2,1,3176.8000000002794,651779.6999999997,7049,NTS,A,3
4,2,test,4,C,triangle.png,1,m,Mon Feb 17 2025 16:46:44 GMT-0600 (Central Standard Time),657805.6999999997,1500,O,m,1321,12,1,2844.5,654961.1999999997,7049,NTS,A,4
6,3,test,4,C,circle.png,1,m,Mon Feb 17 2025 16:46:44 GMT-0600 (Central Standard Time),660738.0999999996,1900,O,m,1008,21,1,2928.6999999997206,657809.3999999999,7049,NTS,A,5
4,3,test,4,C,circle.png,0,z,Mon Feb 17 2025 16:46:44 GMT-0600 (Central Standard Time),663571.7999999998,1400,O,m,1407,20,1,2829.600000000093,660742.1999999997,7049,NTS,A,6
8,3,test,4,C,triangle.png,0,m,Mon Feb 17 2025 16:46:44 GMT-0600 (Central Standard Time),666703.0,1600,O,None,1515,23,1,3127.2000000001863,663575.7999999998,7049,NTS,A,7
7,3,test,4,C,circle.png,0,m,Mon Feb 17 2025 16:46:44 GMT-0600 (Central Standard Time),670118.5,2000,O,z,1387,14,1,3411.7000000001863,666706.7999999998,7049,NTS,A,8
1,4,test,4,C,triangle.png,1,z,Mon Feb 17 2025 16:46:44 GMT-0600 (Central Standard Time),672967.5999999996,1900,O,z,919,9,1,2845.1999999997206,670122.3999999999,7049,NTS,A,9
9,5,test,4,C,circle.png,1,m,Mon Feb 17 2025 16:46:44 GMT-0600 (Central Standard Time),675866.6999999997,1500,O,m,1367,24,1,2895.399999999907,672971.2999999998,7049,NTS,A,10
6,6,test,4,C,circle.png,1,m,Mon Feb 17 2025 16:46:44 GMT-0600 (Central Standard Time),678682.3999999999,1900,O,m,883,5,1,2811.7000000001863,675870.6999999997,7049,NTS,A,11
9,6,test,4,C,triangle.png,0,z,Mon Feb 17 2025 16:46:44 GMT-0600 (Central Standard Time),681181.8999999999,1400,O,m,1079,16,1,2495.8000000002794,678686.0999999996,7049,NTS,A,12
2,7,test,4,C,triangle.png,1,m,Mon Feb 17 2025 16:46:44 GMT-0600 (Central Standard Time),684297.3999999999,2000,O,m,1091,18,1,3111.7000000001863,681185.6999999997,7049,NTS,A,13
3,7,test,4,C,triangle.png,0,z,Mon Feb 17 2025 16:46:44 GMT-0600 (Central Standard Time),686913.0999999996,1200,O,m,1392,3,1,2611.5999999996275,684301.5,7049,NTS,A,14
3,8,test,4,C,triangle.png,1,z,Mon Feb 17 2025 16:46:44 GMT-0600 (Central Standard Time),689195.8999999999,1200,O,z,1056,19,1,2279.100000000093,686916.7999999998,7049,NTS,A,15
4,9,test,4,C,circle.png,1,z,Mon Feb 17 2025 16:46:44 GMT-0600 (Central Standard Time),691578.5999999996,1400,O,z,950,4,1,2378.7999999998137,689199.7999999998,7049,NTS,A,16
7,10,test,4,C,triangle.png,1,z,Mon Feb 17 2025 16:46:44 GMT-0600 (Central Standard Time),694610.6999999997,1700,O,z,1315,6,1,3028.2999999998137,691582.3999999999,7049,NTS,A,17
8,11,test,4,C,circle.png,1,m,Mon Feb 17 2025 16:46:44 GMT-0600 (Central Standard Time),696610.2999999998,1200,O,m,774,15,1,1995.6000000000931,694614.6999999997,7049,NTS,A,18
8,12,test,4,C,triangle.png,1,m,Mon Feb 17 2025 16:46:44 GMT-0600 (Central Standard Time),699460.3999999999,1600,O,m,1231,7,1,2846.0,696614.3999999999,7049,NTS,A,19
9,13,test,4,C,circle.png,1,m,Mon Feb 17 2025 16:46:44 GMT-0600 (Central Standard Time),702191.7999999998,1500,O,m,1210,8,1,2727.600000000093,699464.1999999997,7049,NTS,A,20
2,13,test,4,C,circle.png,0,z,Mon Feb 17 2025 16:46:44 GMT-0600 (Central Standard Time),705424.0999999996,1700,O,None,1516,10,1,3227.6999999997206,702196.3999999999,7049,NTS,A,21
1,14,test,4,C,circle.png,1,z,Mon Feb 17 2025 16:46:44 GMT-0600 (Central Standard Time),707273.5999999996,1000,O,z,825,17,1,1845.2999999998137,705428.2999999998,7049,NTS,A,22
3,15,test,4,C,circle.png,1,z,Mon Feb 17 2025 16:46:44 GMT-0600 (Central Standard Time),710156.0999999996,1600,O,z,1264,11,1,2878.6999999997206,707277.3999999999,7049,NTS,A,23
1,16,test,4,C,circle.png,1,z,Mon Feb 17 2025 16:46:44 GMT-0600 (Central Standard Time),712072.0,1000,O,z,885,1,1,1912.4000000003725,710159.5999999996,7049,NTS,A,24
