acc_sum,block,block_c,block_cond,con_img,correct,correct_response,datetime,endtime,face,jitter,line,project,response,response_time,row_sel,session_number,start_end,starttime,subject_id,task,task_vers,trial
1,prac,1,A,haborder.png,1,m,Wed Apr 02 2025 11:33:39 GMT-0500 (Central Daylight Time),59069.5,CFD-WM-012-007-HC.jpg,1700,solid,O,m,1170,9,1,3682.9000000059605,55386.59999999404,7103,ATS,B,1
2,prac,1,A,haborder.png,1,z,Wed Apr 02 2025 11:33:39 GMT-0500 (Central Daylight Time),61985.19999998808,CFD-WF-013-015-A.jpg,1000,solid,O,z,1083,12,1,6598.5999999940395,55386.59999999404,7103,ATS,B,2
3,prac,1,A,haborder.png,1,z,Wed Apr 02 2025 11:33:39 GMT-0500 (Central Daylight Time),64534.0,CFD-BF-051-043-A.jpg,1000,solid,O,z,746,4,1,9147.40000000596,55386.59999999404,7103,ATS,B,3
4,prac,1,A,haborder.png,1,z,Wed Apr 02 2025 11:33:39 GMT-0500 (Central Daylight Time),67466.69999998808,CFD-BF-050-012-A.jpg,1200,solid,O,z,899,6,1,12080.09999999404,55386.59999999404,7103,ATS,B,4
5,prac,1,A,haborder.png,1,m,Wed Apr 02 2025 11:33:39 GMT-0500 (Central Daylight Time),70315.69999998808,CFD-WM-011-006-HC.jpg,1400,solid,O,m,630,7,1,14929.09999999404,55386.59999999404,7103,ATS,B,5
6,prac,1,A,haborder.png,1,z,Wed Apr 02 2025 11:33:39 GMT-0500 (Central Daylight Time),74280.90000000596,CFD-WM-009-009-A.jpg,1900,solid,O,z,1232,8,1,18894.30000001192,55386.59999999404,7103,ATS,B,6
7,prac,1,A,haborder.png,1,m,Wed Apr 02 2025 11:33:39 GMT-0500 (Central Daylight Time),78029.79999998212,CFD-BF-035-007-HC.jpg,2000,solid,O,m,929,5,1,22643.19999998808,55386.59999999404,7103,ATS,B,7
8,prac,1,A,haborder.png,1,m,Wed Apr 02 2025 11:33:39 GMT-0500 (Central Daylight Time),81162.09999999404,CFD-WF-011-006-HC.jpg,1500,solid,O,m,806,11,1,25775.5,55386.59999999404,7103,ATS,B,8
9,prac,1,A,haborder.png,1,z,Wed Apr 02 2025 11:33:39 GMT-0500 (Central Daylight Time),84428.0,CFD-WF-026-008-A.jpg,1600,solid,O,z,839,10,1,29041.40000000596,55386.59999999404,7103,ATS,B,9
10,prac,1,A,haborder.png,1,m,Wed Apr 02 2025 11:33:39 GMT-0500 (Central Daylight Time),87726.5,CFD-BM-020-024-HC.jpg,1500,solid,O,m,970,3,1,32339.90000000596,55386.59999999404,7103,ATS,B,10
11,prac,1,A,haborder.png,1,m,Wed Apr 02 2025 11:33:39 GMT-0500 (Central Daylight Time),91192.19999998808,CFD-BM-015-017-HC.jpg,1700,solid,O,m,934,1,1,35805.59999999404,55386.59999999404,7103,ATS,B,11
11,prac,1,A,haborder.png,0,z,Wed Apr 02 2025 11:33:39 GMT-0500 (Central Daylight Time),95124.19999998808,CFD-BM-037-041-A.jpg,1600,solid,O,None,1515,2,1,39737.59999999404,55386.59999999404,7103,ATS,B,12
1,prac,1,B,mfborder.png,1,m,Wed Apr 02 2025 11:33:39 GMT-0500 (Central Daylight Time),128079.90000000596,CFD-BM-037-041-A.jpg,2000,dash,O,m,1259,5,1,4081.800000011921,123998.09999999404,7103,ATS,B,1
1,prac,1,B,mfborder.png,0,m,Wed Apr 02 2025 11:33:39 GMT-0500 (Central Daylight Time),132111.69999998808,CFD-WM-009-009-A.jpg,1700,dash,O,None,1513,9,1,8113.5999999940395,123998.09999999404,7103,ATS,B,2
2,prac,1,B,mfborder.png,1,z,Wed Apr 02 2025 11:33:39 GMT-0500 (Central Daylight Time),135394.29999998212,CFD-WF-027-007-HC.jpg,1900,dash,O,z,559,8,1,11396.199999988079,123998.09999999404,7103,ATS,B,3
3,prac,1,B,mfborder.png,1,m,Wed Apr 02 2025 11:33:39 GMT-0500 (Central Daylight Time),138609.79999998212,CFD-WM-012-007-HC.jpg,1600,dash,O,m,798,10,1,14611.699999988079,123998.09999999404,7103,ATS,B,4
4,prac,1,B,mfborder.png,1,m,Wed Apr 02 2025 11:33:39 GMT-0500 (Central Daylight Time),141725.59999999404,CFD-BM-020-024-HC.jpg,1700,dash,O,m,595,1,1,17727.5,123998.09999999404,7103,ATS,B,5
5,prac,1,B,mfborder.png,1,m,Wed Apr 02 2025 11:33:39 GMT-0500 (Central Daylight Time),144708.0,CFD-BM-041-048-A.jpg,1600,dash,O,m,578,2,1,20709.90000000596,123998.09999999404,7103,ATS,B,6
6,prac,1,B,mfborder.png,1,z,Wed Apr 02 2025 11:33:39 GMT-0500 (Central Daylight Time),147373.59999999404,CFD-WF-011-006-HC.jpg,1000,dash,O,z,844,12,1,23375.5,123998.09999999404,7103,ATS,B,7
7,prac,1,B,mfborder.png,1,z,Wed Apr 02 2025 11:33:39 GMT-0500 (Central Daylight Time),150239.5,CFD-BF-051-043-A.jpg,1000,dash,O,z,1042,4,1,26241.40000000596,123998.09999999404,7103,ATS,B,8
8,prac,1,B,mfborder.png,1,m,Wed Apr 02 2025 11:33:39 GMT-0500 (Central Daylight Time),153571.79999998212,CFD-WM-037-060-A.jpg,1200,dash,O,m,1305,6,1,29573.69999998808,123998.09999999404,7103,ATS,B,9
9,prac,1,B,mfborder.png,1,z,Wed Apr 02 2025 11:33:39 GMT-0500 (Central Daylight Time),156570.5,CFD-WF-026-008-A.jpg,1500,dash,O,z,689,11,1,32572.40000000596,123998.09999999404,7103,ATS,B,10
9,prac,1,B,mfborder.png,0,z,Wed Apr 02 2025 11:33:39 GMT-0500 (Central Daylight Time),159369.69999998808,CFD-BF-035-007-HC.jpg,1400,dash,O,m,549,7,1,35371.59999999404,123998.09999999404,7103,ATS,B,11
10,prac,1,B,mfborder.png,1,z,Wed Apr 02 2025 11:33:39 GMT-0500 (Central Daylight Time),162451.90000000596,CFD-BF-027-013-HC.jpg,1500,dash,O,z,763,3,1,38453.80000001192,123998.09999999404,7103,ATS,B,12
1,test,1,A,haborder.png,1,m,Wed Apr 02 2025 11:33:39 GMT-0500 (Central Daylight Time),184861.19999998808,CFD-WM-012-007-HC.jpg,1700,solid,O,m,1280,9,1,3015.699999988079,181845.5,7103,ATS,B,1
2,test,1,A,haborder.png,1,z,Wed Apr 02 2025 11:33:39 GMT-0500 (Central Daylight Time),186727.40000000596,CFD-BF-051-043-A.jpg,1000,solid,O,z,828,4,1,4881.9000000059605,181845.5,7103,ATS,B,2
3,test,1,A,haborder.png,1,z,Wed Apr 02 2025 11:33:39 GMT-0500 (Central Daylight Time),188843.40000000596,CFD-BF-050-012-A.jpg,1200,solid,O,z,874,6,1,6997.9000000059605,181845.5,7103,ATS,B,3
4,test,1,A,haborder.png,1,z,Wed Apr 02 2025 11:33:39 GMT-0500 (Central Daylight Time),190776.0,CFD-WF-013-015-A.jpg,1000,solid,O,z,861,12,1,8930.5,181845.5,7103,ATS,B,4
5,test,1,A,haborder.png,1,m,Wed Apr 02 2025 11:33:39 GMT-0500 (Central Daylight Time),193075.29999998212,CFD-BM-020-024-HC.jpg,1500,solid,O,m,756,3,1,11229.799999982119,181845.5,7103,ATS,B,5
6,test,1,A,haborder.png,1,m,Wed Apr 02 2025 11:33:39 GMT-0500 (Central Daylight Time),195524.40000000596,CFD-WF-011-006-HC.jpg,1500,solid,O,m,900,11,1,13678.90000000596,181845.5,7103,ATS,B,6
7,test,1,A,haborder.png,1,m,Wed Apr 02 2025 11:33:39 GMT-0500 (Central Daylight Time),197989.40000000596,CFD-BM-015-017-HC.jpg,1700,solid,O,m,719,1,1,16143.90000000596,181845.5,7103,ATS,B,7
8,test,1,A,haborder.png,1,m,Wed Apr 02 2025 11:33:39 GMT-0500 (Central Daylight Time),200122.5,CFD-WM-011-006-HC.jpg,1400,solid,O,m,708,7,1,18277.0,181845.5,7103,ATS,B,8
9,test,1,A,haborder.png,1,z,Wed Apr 02 2025 11:33:39 GMT-0500 (Central Daylight Time),202572.40000000596,CFD-WF-026-008-A.jpg,1600,solid,O,z,780,10,1,20726.90000000596,181845.5,7103,ATS,B,9
9,test,1,A,haborder.png,0,z,Wed Apr 02 2025 11:33:39 GMT-0500 (Central Daylight Time),205721.19999998808,CFD-BM-037-041-A.jpg,1600,solid,O,None,1515,2,1,23875.69999998808,181845.5,7103,ATS,B,10
10,test,1,A,haborder.png,1,m,Wed Apr 02 2025 11:33:39 GMT-0500 (Central Daylight Time),208686.69999998808,CFD-BF-035-007-HC.jpg,2000,solid,O,m,920,5,1,26841.19999998808,181845.5,7103,ATS,B,11
11,test,1,A,haborder.png,1,z,Wed Apr 02 2025 11:33:39 GMT-0500 (Central Daylight Time),210985.19999998808,CFD-WF-013-015-A.jpg,1000,solid,O,z,1259,12,1,29139.69999998808,181845.5,7103,ATS,B,12
12,test,1,A,haborder.png,1,z,Wed Apr 02 2025 11:33:39 GMT-0500 (Central Daylight Time),213301.0,CFD-WF-026-008-A.jpg,1600,solid,O,z,688,10,1,31455.5,181845.5,7103,ATS,B,13
13,test,1,A,haborder.png,1,z,Wed Apr 02 2025 11:33:39 GMT-0500 (Central Daylight Time),215367.0,CFD-BF-050-012-A.jpg,1200,solid,O,z,843,6,1,33521.5,181845.5,7103,ATS,B,14
14,test,1,A,haborder.png,1,z,Wed Apr 02 2025 11:33:39 GMT-0500 (Central Daylight Time),218082.79999998212,CFD-WM-009-009-A.jpg,1900,solid,O,z,791,8,1,36237.29999998212,181845.5,7103,ATS,B,15
15,test,1,A,haborder.png,1,m,Wed Apr 02 2025 11:33:39 GMT-0500 (Central Daylight Time),220565.90000000596,CFD-WF-011-006-HC.jpg,1500,solid,O,m,956,11,1,38720.40000000596,181845.5,7103,ATS,B,16
16,test,1,A,haborder.png,1,m,Wed Apr 02 2025 11:33:39 GMT-0500 (Central Daylight Time),223397.69999998808,CFD-BF-035-007-HC.jpg,2000,solid,O,m,779,5,1,41552.19999998808,181845.5,7103,ATS,B,17
17,test,1,A,haborder.png,1,m,Wed Apr 02 2025 11:33:39 GMT-0500 (Central Daylight Time),225880.29999998212,CFD-BM-015-017-HC.jpg,1700,solid,O,m,752,1,1,44034.79999998212,181845.5,7103,ATS,B,18
18,test,1,A,haborder.png,1,m,Wed Apr 02 2025 11:33:39 GMT-0500 (Central Daylight Time),228479.29999998212,CFD-WM-012-007-HC.jpg,1700,solid,O,m,873,9,1,46633.79999998212,181845.5,7103,ATS,B,19
19,test,1,A,haborder.png,1,m,Wed Apr 02 2025 11:33:39 GMT-0500 (Central Daylight Time),230816.79999998212,CFD-BM-020-024-HC.jpg,1500,solid,O,m,804,3,1,48971.29999998212,181845.5,7103,ATS,B,20
20,test,1,A,haborder.png,1,z,Wed Apr 02 2025 11:33:39 GMT-0500 (Central Daylight Time),233212.29999998212,CFD-BM-037-041-A.jpg,1600,solid,O,z,775,2,1,51366.79999998212,181845.5,7103,ATS,B,21
21,test,1,A,haborder.png,1,z,Wed Apr 02 2025 11:33:39 GMT-0500 (Central Daylight Time),235060.59999999404,CFD-BF-051-043-A.jpg,1000,solid,O,z,813,4,1,53215.09999999404,181845.5,7103,ATS,B,22
22,test,1,A,haborder.png,1,m,Wed Apr 02 2025 11:33:39 GMT-0500 (Central Daylight Time),237709.69999998808,CFD-WM-011-006-HC.jpg,1400,solid,O,m,1227,7,1,55864.19999998808,181845.5,7103,ATS,B,23
23,test,1,A,haborder.png,1,z,Wed Apr 02 2025 11:33:39 GMT-0500 (Central Daylight Time),240392.09999999404,CFD-WM-009-009-A.jpg,1900,solid,O,z,738,8,1,58546.59999999404,181845.5,7103,ATS,B,24
1,test,1,B,mfborder.png,1,z,Wed Apr 02 2025 11:33:39 GMT-0500 (Central Daylight Time),256820.09999999404,CFD-WF-027-007-HC.jpg,1900,dash,O,z,807,8,1,2732.300000011921,254087.79999998212,7103,ATS,B,1
2,test,1,B,mfborder.png,1,m,Wed Apr 02 2025 11:33:39 GMT-0500 (Central Daylight Time),259269.19999998808,CFD-BM-041-048-A.jpg,1600,dash,O,m,817,2,1,5181.4000000059605,254087.79999998212,7103,ATS,B,2
3,test,1,B,mfborder.png,1,m,Wed Apr 02 2025 11:33:39 GMT-0500 (Central Daylight Time),261552.59999999404,CFD-WM-012-007-HC.jpg,1600,dash,O,m,661,10,1,7464.800000011921,254087.79999998212,7103,ATS,B,3
4,test,1,B,mfborder.png,1,m,Wed Apr 02 2025 11:33:39 GMT-0500 (Central Daylight Time),263817.90000000596,CFD-WM-012-007-HC.jpg,1600,dash,O,m,608,10,1,9730.100000023842,254087.79999998212,7103,ATS,B,4
5,test,1,B,mfborder.png,1,z,Wed Apr 02 2025 11:33:39 GMT-0500 (Central Daylight Time),266033.6999999881,CFD-BF-035-007-HC.jpg,1400,dash,O,z,783,7,1,11945.90000000596,254087.79999998212,7103,ATS,B,5
6,test,1,B,mfborder.png,1,m,Wed Apr 02 2025 11:33:39 GMT-0500 (Central Daylight Time),268099.6999999881,CFD-WM-037-060-A.jpg,1200,dash,O,m,845,6,1,14011.90000000596,254087.79999998212,7103,ATS,B,6
7,test,1,B,mfborder.png,1,z,Wed Apr 02 2025 11:33:39 GMT-0500 (Central Daylight Time),269665.90000000596,CFD-WF-011-006-HC.jpg,1000,dash,O,z,541,12,1,15578.100000023842,254087.79999998212,7103,ATS,B,7
8,test,1,B,mfborder.png,1,z,Wed Apr 02 2025 11:33:39 GMT-0500 (Central Daylight Time),271681.90000000596,CFD-BF-051-043-A.jpg,1000,dash,O,z,974,4,1,17594.100000023842,254087.79999998212,7103,ATS,B,8
9,test,1,B,mfborder.png,1,z,Wed Apr 02 2025 11:33:39 GMT-0500 (Central Daylight Time),273947.7999999821,CFD-BF-027-013-HC.jpg,1500,dash,O,z,747,3,1,19860.0,254087.79999998212,7103,ATS,B,9
9,test,1,B,mfborder.png,0,z,Wed Apr 02 2025 11:33:39 GMT-0500 (Central Daylight Time),276481.40000000596,CFD-WF-011-006-HC.jpg,1000,dash,O,None,1516,12,1,22393.600000023842,254087.79999998212,7103,ATS,B,10
10,test,1,B,mfborder.png,1,m,Wed Apr 02 2025 11:33:39 GMT-0500 (Central Daylight Time),279330.2999999821,CFD-WM-009-009-A.jpg,1700,dash,O,m,1102,9,1,25242.5,254087.79999998212,7103,ATS,B,11
11,test,1,B,mfborder.png,1,z,Wed Apr 02 2025 11:33:39 GMT-0500 (Central Daylight Time),281862.0,CFD-WF-027-007-HC.jpg,1900,dash,O,z,591,8,1,27774.20000001788,254087.79999998212,7103,ATS,B,12
11,test,1,B,mfborder.png,0,m,Wed Apr 02 2025 11:33:39 GMT-0500 (Central Daylight Time),285095.09999999404,CFD-BM-020-024-HC.jpg,1700,dash,O,None,1516,1,1,31007.30000001192,254087.79999998212,7103,ATS,B,13
12,test,1,B,mfborder.png,1,z,Wed Apr 02 2025 11:33:39 GMT-0500 (Central Daylight Time),287593.2999999821,CFD-WF-026-008-A.jpg,1500,dash,O,z,951,11,1,33505.5,254087.79999998212,7103,ATS,B,14
13,test,1,B,mfborder.png,1,m,Wed Apr 02 2025 11:33:39 GMT-0500 (Central Daylight Time),291058.7999999821,CFD-BM-037-041-A.jpg,2000,dash,O,m,1432,5,1,36971.0,254087.79999998212,7103,ATS,B,15
14,test,1,B,mfborder.png,1,z,Wed Apr 02 2025 11:33:39 GMT-0500 (Central Daylight Time),293391.5,CFD-BF-035-007-HC.jpg,1400,dash,O,z,903,7,1,39303.70000001788,254087.79999998212,7103,ATS,B,16
15,test,1,B,mfborder.png,1,z,Wed Apr 02 2025 11:33:39 GMT-0500 (Central Daylight Time),295973.90000000596,CFD-BF-027-013-HC.jpg,1500,dash,O,z,1059,3,1,41886.10000002384,254087.79999998212,7103,ATS,B,17
16,test,1,B,mfborder.png,1,m,Wed Apr 02 2025 11:33:39 GMT-0500 (Central Daylight Time),299172.90000000596,CFD-WM-009-009-A.jpg,1700,dash,O,m,1477,9,1,45085.10000002384,254087.79999998212,7103,ATS,B,18
17,test,1,B,mfborder.png,1,m,Wed Apr 02 2025 11:33:39 GMT-0500 (Central Daylight Time),301638.6999999881,CFD-BM-041-048-A.jpg,1600,dash,O,m,834,2,1,47550.90000000596,254087.79999998212,7103,ATS,B,19
18,test,1,B,mfborder.png,1,z,Wed Apr 02 2025 11:33:39 GMT-0500 (Central Daylight Time),303872.2999999821,CFD-WF-026-008-A.jpg,1500,dash,O,z,712,11,1,49784.5,254087.79999998212,7103,ATS,B,20
18,test,1,B,mfborder.png,0,m,Wed Apr 02 2025 11:33:39 GMT-0500 (Central Daylight Time),307420.1999999881,CFD-BM-037-041-A.jpg,2000,dash,O,None,1515,5,1,53332.40000000596,254087.79999998212,7103,ATS,B,21
19,test,1,B,mfborder.png,1,m,Wed Apr 02 2025 11:33:39 GMT-0500 (Central Daylight Time),310320.1999999881,CFD-BM-020-024-HC.jpg,1700,dash,O,m,1169,1,1,56232.40000000596,254087.79999998212,7103,ATS,B,22
20,test,1,B,mfborder.png,1,m,Wed Apr 02 2025 11:33:39 GMT-0500 (Central Daylight Time),312469.2999999821,CFD-WM-037-060-A.jpg,1200,dash,O,m,897,6,1,58381.5,254087.79999998212,7103,ATS,B,23
21,test,1,B,mfborder.png,1,z,Wed Apr 02 2025 11:33:39 GMT-0500 (Central Daylight Time),314452.0,CFD-BF-051-043-A.jpg,1000,dash,O,z,932,4,1,60364.20000001788,254087.79999998212,7103,ATS,B,24
0,2,1,C,mfborder.png,0,z,Wed Apr 02 2025 11:33:39 GMT-0500 (Central Daylight Time),390443.90000000596,CFD-WF-013-015-A.jpg,1500,solid,O,None,1514,prac,1,3799.4000000059605,386644.5,7103,ATS,B,1
1,8,1,C,haborder.png,1,z,Wed Apr 02 2025 11:33:39 GMT-0500 (Central Daylight Time),394359.6999999881,CFD-BF-050-012-A.jpg,1700,solid,O,z,1403,prac,1,7715.199999988079,386644.5,7103,ATS,B,2
1,12,1,C,haborder.png,0,m,Wed Apr 02 2025 11:33:39 GMT-0500 (Central Daylight Time),398074.7999999821,CFD-WM-011-006-HC.jpg,1400,solid,O,None,1514,prac,1,11430.299999982119,386644.5,7103,ATS,B,3
1,3,1,C,mfborder.png,0,z,Wed Apr 02 2025 11:33:39 GMT-0500 (Central Daylight Time),401390.0,CFD-BF-035-007-HC.jpg,1000,dash,O,None,1514,prac,1,14745.5,386644.5,7103,ATS,B,4
2,7,1,C,haborder.png,1,z,Wed Apr 02 2025 11:33:39 GMT-0500 (Central Daylight Time),404539.59999999404,CFD-BF-051-043-A.jpg,1900,dash,O,z,423,prac,1,17895.09999999404,386644.5,7103,ATS,B,5
2,11,1,C,haborder.png,0,m,Wed Apr 02 2025 11:33:39 GMT-0500 (Central Daylight Time),407338.40000000596,CFD-WM-011-006-HC.jpg,1000,dash,O,z,973,prac,1,20693.90000000596,386644.5,7103,ATS,B,6
2,10,1,C,haborder.png,0,m,Wed Apr 02 2025 11:33:39 GMT-0500 (Central Daylight Time),411170.5,CFD-BM-020-024-HC.jpg,1500,solid,O,None,1515,prac,1,24526.0,386644.5,7103,ATS,B,7
2,5,1,C,mfborder.png,0,m,Wed Apr 02 2025 11:33:39 GMT-0500 (Central Daylight Time),414119.6999999881,CFD-BM-037-041-A.jpg,1200,dash,O,z,932,prac,1,27475.19999998808,386644.5,7103,ATS,B,8
3,6,1,C,mfborder.png,1,m,Wed Apr 02 2025 11:33:39 GMT-0500 (Central Daylight Time),417101.90000000596,CFD-WM-009-009-A.jpg,1700,solid,O,m,477,prac,1,30457.40000000596,386644.5,7103,ATS,B,9
4,4,1,C,mfborder.png,1,m,Wed Apr 02 2025 11:33:39 GMT-0500 (Central Daylight Time),420650.90000000596,CFD-BM-015-017-HC.jpg,2000,solid,O,m,707,prac,1,34006.40000000596,386644.5,7103,ATS,B,10
5,1,1,C,mfborder.png,1,z,Wed Apr 02 2025 11:33:39 GMT-0500 (Central Daylight Time),424016.40000000596,CFD-WF-011-006-HC.jpg,1600,dash,O,z,934,prac,1,37371.90000000596,386644.5,7103,ATS,B,11
5,9,1,C,haborder.png,0,z,Wed Apr 02 2025 11:33:39 GMT-0500 (Central Daylight Time),427948.40000000596,CFD-WF-026-008-A.jpg,1600,dash,O,None,1515,prac,1,41303.90000000596,386644.5,7103,ATS,B,12
0,2,2,C,mfborder.png,0,z,Wed Apr 02 2025 11:33:39 GMT-0500 (Central Daylight Time),439311.0,CFD-WF-013-015-A.jpg,1500,solid,O,None,1515,prac,1,52666.5,386644.5,7103,ATS,B,1
1,8,2,C,haborder.png,1,z,Wed Apr 02 2025 11:33:39 GMT-0500 (Central Daylight Time),442526.6999999881,CFD-BF-050-012-A.jpg,1700,solid,O,z,686,prac,1,55882.19999998808,386644.5,7103,ATS,B,2
2,9,2,C,haborder.png,1,z,Wed Apr 02 2025 11:33:39 GMT-0500 (Central Daylight Time),446209.0,CFD-WF-026-008-A.jpg,1600,dash,O,z,1250,prac,1,59564.5,386644.5,7103,ATS,B,3
3,11,2,C,haborder.png,1,m,Wed Apr 02 2025 11:33:39 GMT-0500 (Central Daylight Time),448976.09999999404,CFD-WM-011-006-HC.jpg,1000,dash,O,m,951,prac,1,62331.59999999404,386644.5,7103,ATS,B,4
4,1,2,C,mfborder.png,1,z,Wed Apr 02 2025 11:33:39 GMT-0500 (Central Daylight Time),452106.90000000596,CFD-WF-011-006-HC.jpg,1600,dash,O,z,706,prac,1,65462.40000000596,386644.5,7103,ATS,B,5
5,3,2,C,mfborder.png,1,z,Wed Apr 02 2025 11:33:39 GMT-0500 (Central Daylight Time),454939.5,CFD-BF-035-007-HC.jpg,1000,dash,O,z,1021,prac,1,68295.0,386644.5,7103,ATS,B,6
6,4,2,C,mfborder.png,1,m,Wed Apr 02 2025 11:33:39 GMT-0500 (Central Daylight Time),459021.7999999821,CFD-BM-015-017-HC.jpg,2000,solid,O,m,1275,prac,1,72377.29999998212,386644.5,7103,ATS,B,7
7,6,2,C,mfborder.png,1,m,Wed Apr 02 2025 11:33:39 GMT-0500 (Central Daylight Time),462520.09999999404,CFD-WM-009-009-A.jpg,1700,solid,O,m,976,prac,1,75875.59999999404,386644.5,7103,ATS,B,8
7,10,2,C,haborder.png,0,m,Wed Apr 02 2025 11:33:39 GMT-0500 (Central Daylight Time),465985.59999999404,CFD-BM-020-024-HC.jpg,1500,solid,O,z,1133,prac,1,79341.09999999404,386644.5,7103,ATS,B,9
7,12,2,C,haborder.png,0,m,Wed Apr 02 2025 11:33:39 GMT-0500 (Central Daylight Time),469434.5,CFD-WM-011-006-HC.jpg,1400,solid,O,z,1231,prac,1,82790.0,386644.5,7103,ATS,B,10
7,5,2,C,mfborder.png,0,m,Wed Apr 02 2025 11:33:39 GMT-0500 (Central Daylight Time),472966.40000000596,CFD-BM-037-041-A.jpg,1200,dash,O,None,1514,prac,1,86321.90000000596,386644.5,7103,ATS,B,11
7,7,2,C,haborder.png,0,z,Wed Apr 02 2025 11:33:39 GMT-0500 (Central Daylight Time),477182.1999999881,CFD-BF-051-043-A.jpg,1900,dash,O,None,1515,prac,1,90537.69999998808,386644.5,7103,ATS,B,12
0,test,1,C,mfborder.png,0,z,Wed Apr 02 2025 11:33:39 GMT-0500 (Central Daylight Time),541694.2999999821,CFD-BF-027-013-HC.jpg,1700,dash,O,None,1514,1,1,3248.199999988079,538446.099999994,7103,ATS,B,1
1,test,1,C,haborder.png,1,z,Wed Apr 02 2025 11:33:39 GMT-0500 (Central Daylight Time),544676.6999999881,CFD-BM-041-048-A.jpg,1700,solid,O,z,1239,9,1,6230.5999999940395,538446.099999994,7103,ATS,B,2
1,test,1,C,haborder.png,0,m,Wed Apr 02 2025 11:33:39 GMT-0500 (Central Daylight Time),547225.599999994,CFD-WF-011-006-HC.jpg,1000,solid,O,None,1514,12,1,8779.5,538446.099999994,7103,ATS,B,3
1,test,1,C,haborder.png,0,m,Wed Apr 02 2025 11:33:39 GMT-0500 (Central Daylight Time),550375.1999999881,CFD-BF-035-007-HC.jpg,1600,solid,O,None,1515,10,1,11929.09999999404,538446.099999994,7103,ATS,B,4
1,test,1,C,haborder.png,0,m,Wed Apr 02 2025 11:33:39 GMT-0500 (Central Daylight Time),552923.0,CFD-WF-011-006-HC.jpg,1000,solid,O,None,1513,12,1,14476.90000000596,538446.099999994,7103,ATS,B,5
2,test,1,C,mfborder.png,1,m,Wed Apr 02 2025 11:33:39 GMT-0500 (Central Daylight Time),555573.0,CFD-BM-020-024-HC.jpg,1200,dash,O,m,1422,6,1,17126.90000000596,538446.099999994,7103,ATS,B,6
3,test,1,C,mfborder.png,1,m,Wed Apr 02 2025 11:33:39 GMT-0500 (Central Daylight Time),558538.5,CFD-WM-037-060-A.jpg,2000,dash,O,m,927,5,1,20092.40000000596,538446.099999994,7103,ATS,B,7
4,test,1,C,mfborder.png,1,z,Wed Apr 02 2025 11:33:39 GMT-0500 (Central Daylight Time),561321.400000006,CFD-WF-026-008-A.jpg,1500,dash,O,z,1216,3,1,22875.30000001192,538446.099999994,7103,ATS,B,8
5,test,1,C,mfborder.png,1,m,Wed Apr 02 2025 11:33:39 GMT-0500 (Central Daylight Time),563886.900000006,CFD-BM-020-024-HC.jpg,1200,dash,O,m,1321,6,1,25440.80000001192,538446.099999994,7103,ATS,B,9
6,test,1,C,haborder.png,1,m,Wed Apr 02 2025 11:33:39 GMT-0500 (Central Daylight Time),566769.2999999821,CFD-BF-035-007-HC.jpg,1600,solid,O,m,1226,10,1,28323.19999998808,538446.099999994,7103,ATS,B,10
6,test,1,C,haborder.png,0,z,Wed Apr 02 2025 11:33:39 GMT-0500 (Central Daylight Time),570018.400000006,CFD-BM-041-048-A.jpg,1700,solid,O,None,1514,9,1,31572.30000001192,538446.099999994,7103,ATS,B,11
7,test,1,C,mfborder.png,1,m,Wed Apr 02 2025 11:33:39 GMT-0500 (Central Daylight Time),572034.1999999881,CFD-WM-012-007-HC.jpg,1000,dash,O,m,976,4,1,33588.09999999404,538446.099999994,7103,ATS,B,12
7,test,1,C,haborder.png,0,z,Wed Apr 02 2025 11:33:39 GMT-0500 (Central Daylight Time),575499.2999999821,CFD-BM-037-041-A.jpg,1900,solid,O,None,1513,8,1,37053.19999998808,538446.099999994,7103,ATS,B,13
8,test,1,C,mfborder.png,1,m,Wed Apr 02 2025 11:33:39 GMT-0500 (Central Daylight Time),577749.099999994,CFD-WM-012-007-HC.jpg,1000,dash,O,m,1231,4,1,39303.0,538446.099999994,7103,ATS,B,14
9,test,1,C,haborder.png,1,z,Wed Apr 02 2025 11:33:39 GMT-0500 (Central Daylight Time),580081.5,CFD-WM-009-009-A.jpg,1400,solid,O,z,884,7,1,41635.40000000596,538446.099999994,7103,ATS,B,15
10,test,1,C,haborder.png,1,z,Wed Apr 02 2025 11:33:39 GMT-0500 (Central Daylight Time),582964.0,CFD-BM-037-041-A.jpg,1900,solid,O,z,941,8,1,44517.90000000596,538446.099999994,7103,ATS,B,16
11,test,1,C,mfborder.png,1,z,Wed Apr 02 2025 11:33:39 GMT-0500 (Central Daylight Time),585846.2999999821,CFD-BF-027-013-HC.jpg,1700,dash,O,z,1138,1,1,47400.19999998808,538446.099999994,7103,ATS,B,17
11,test,1,C,mfborder.png,0,m,Wed Apr 02 2025 11:33:39 GMT-0500 (Central Daylight Time),589411.7999999821,CFD-WM-037-060-A.jpg,2000,dash,O,None,1515,5,1,50965.69999998808,538446.099999994,7103,ATS,B,18
12,test,1,C,haborder.png,1,m,Wed Apr 02 2025 11:33:39 GMT-0500 (Central Daylight Time),592227.900000006,CFD-WF-027-007-HC.jpg,1500,solid,O,m,1274,11,1,53781.80000001192,538446.099999994,7103,ATS,B,19
12,test,1,C,mfborder.png,0,z,Wed Apr 02 2025 11:33:39 GMT-0500 (Central Daylight Time),595376.7999999821,CFD-BF-051-043-A.jpg,1600,dash,O,None,1515,2,1,56930.69999998808,538446.099999994,7103,ATS,B,20
13,test,1,C,mfborder.png,1,z,Wed Apr 02 2025 11:33:39 GMT-0500 (Central Daylight Time),597893.099999994,CFD-BF-051-043-A.jpg,1600,dash,O,z,881,2,1,59447.0,538446.099999994,7103,ATS,B,21
14,test,1,C,mfborder.png,1,z,Wed Apr 02 2025 11:33:39 GMT-0500 (Central Daylight Time),600574.5,CFD-WF-026-008-A.jpg,1500,dash,O,z,1120,3,1,62128.40000000596,538446.099999994,7103,ATS,B,22
14,test,1,C,haborder.png,0,m,Wed Apr 02 2025 11:33:39 GMT-0500 (Central Daylight Time),603623.900000006,CFD-WF-027-007-HC.jpg,1500,solid,O,None,1514,11,1,65177.80000001192,538446.099999994,7103,ATS,B,23
15,test,1,C,haborder.png,1,z,Wed Apr 02 2025 11:33:39 GMT-0500 (Central Daylight Time),606022.599999994,CFD-WM-009-009-A.jpg,1400,solid,O,z,962,7,1,67576.5,538446.099999994,7103,ATS,B,24
1,test,2,C,mfborder.png,1,z,Wed Apr 02 2025 11:33:39 GMT-0500 (Central Daylight Time),626783.2999999821,CFD-WF-013-015-A.jpg,1600,dash,O,z,1112,2,1,2782.699999988079,624000.599999994,7103,ATS,B,1
2,test,2,C,mfborder.png,1,z,Wed Apr 02 2025 11:33:39 GMT-0500 (Central Daylight Time),629581.7999999821,CFD-WF-011-006-HC.jpg,1700,dash,O,z,1046,1,1,5581.199999988079,624000.599999994,7103,ATS,B,2
3,test,2,C,mfborder.png,1,m,Wed Apr 02 2025 11:33:39 GMT-0500 (Central Daylight Time),632764.400000006,CFD-BM-037-041-A.jpg,2000,dash,O,m,1132,5,1,8763.800000011921,624000.599999994,7103,ATS,B,3
4,test,2,C,haborder.png,1,m,Wed Apr 02 2025 11:33:39 GMT-0500 (Central Daylight Time),635480.0,CFD-BM-020-024-HC.jpg,1600,solid,O,m,1078,10,1,11479.40000000596,624000.599999994,7103,ATS,B,4
5,test,2,C,mfborder.png,1,m,Wed Apr 02 2025 11:33:39 GMT-0500 (Central Daylight Time),638629.2999999821,CFD-BM-037-041-A.jpg,2000,dash,O,m,1114,5,1,14628.699999988079,624000.599999994,7103,ATS,B,5
6,test,2,C,haborder.png,1,m,Wed Apr 02 2025 11:33:39 GMT-0500 (Central Daylight Time),641444.2999999821,CFD-WM-011-006-HC.jpg,1500,solid,O,m,1272,11,1,17443.69999998808,624000.599999994,7103,ATS,B,6
6,test,2,C,haborder.png,0,m,Wed Apr 02 2025 11:33:39 GMT-0500 (Central Daylight Time),644494.5,CFD-WM-011-006-HC.jpg,1500,solid,O,None,1515,11,1,20493.90000000596,624000.599999994,7103,ATS,B,7
7,test,2,C,haborder.png,1,z,Wed Apr 02 2025 11:33:39 GMT-0500 (Central Daylight Time),647309.5,CFD-BF-050-012-A.jpg,1900,solid,O,z,873,8,1,23308.90000000596,624000.599999994,7103,ATS,B,8
8,test,2,C,haborder.png,1,m,Wed Apr 02 2025 11:33:39 GMT-0500 (Central Daylight Time),649425.5,CFD-WM-011-006-HC.jpg,1000,solid,O,m,1068,12,1,25424.90000000596,624000.599999994,7103,ATS,B,9
9,test,2,C,haborder.png,1,z,Wed Apr 02 2025 11:33:39 GMT-0500 (Central Daylight Time),651641.5,CFD-BF-051-043-A.jpg,1400,solid,O,z,759,7,1,27640.90000000596,624000.599999994,7103,ATS,B,10
10,test,2,C,mfborder.png,1,m,Wed Apr 02 2025 11:33:39 GMT-0500 (Central Daylight Time),654240.599999994,CFD-WM-009-009-A.jpg,1200,dash,O,m,1352,6,1,30240.0,624000.599999994,7103,ATS,B,11
11,test,2,C,mfborder.png,1,m,Wed Apr 02 2025 11:33:39 GMT-0500 (Central Daylight Time),656673.2999999821,CFD-BM-015-017-HC.jpg,1000,dash,O,m,1393,4,1,32672.69999998808,624000.599999994,7103,ATS,B,12
12,test,2,C,haborder.png,1,m,Wed Apr 02 2025 11:33:39 GMT-0500 (Central Daylight Time),658972.599999994,CFD-WM-011-006-HC.jpg,1000,solid,O,m,1241,12,1,34972.0,624000.599999994,7103,ATS,B,13
13,test,2,C,haborder.png,1,z,Wed Apr 02 2025 11:33:39 GMT-0500 (Central Daylight Time),661688.099999994,CFD-WF-026-008-A.jpg,1700,solid,O,z,994,9,1,37687.5,624000.599999994,7103,ATS,B,14
14,test,2,C,mfborder.png,1,z,Wed Apr 02 2025 11:33:39 GMT-0500 (Central Daylight Time),664487.1999999881,CFD-WF-013-015-A.jpg,1600,dash,O,z,1154,2,1,40486.59999999404,624000.599999994,7103,ATS,B,15
15,test,2,C,mfborder.png,1,z,Wed Apr 02 2025 11:33:39 GMT-0500 (Central Daylight Time),667136.599999994,CFD-BF-035-007-HC.jpg,1500,dash,O,z,1086,3,1,43136.0,624000.599999994,7103,ATS,B,16
16,test,2,C,haborder.png,1,z,Wed Apr 02 2025 11:33:39 GMT-0500 (Central Daylight Time),669968.900000006,CFD-WF-026-008-A.jpg,1700,solid,O,z,1094,9,1,45968.30000001192,624000.599999994,7103,ATS,B,17
17,test,2,C,haborder.png,1,z,Wed Apr 02 2025 11:33:39 GMT-0500 (Central Daylight Time),673085.400000006,CFD-BF-050-012-A.jpg,1900,solid,O,z,1182,8,1,49084.80000001192,624000.599999994,7103,ATS,B,18
18,test,2,C,mfborder.png,1,z,Wed Apr 02 2025 11:33:39 GMT-0500 (Central Daylight Time),675716.900000006,CFD-BF-035-007-HC.jpg,1500,dash,O,z,1089,3,1,51716.30000001192,624000.599999994,7103,ATS,B,19
19,test,2,C,mfborder.png,1,z,Wed Apr 02 2025 11:33:39 GMT-0500 (Central Daylight Time),678499.5,CFD-WF-011-006-HC.jpg,1700,dash,O,z,1034,1,1,54498.90000000596,624000.599999994,7103,ATS,B,20
20,test,2,C,haborder.png,1,z,Wed Apr 02 2025 11:33:39 GMT-0500 (Central Daylight Time),681131.7999999821,CFD-BF-051-043-A.jpg,1400,solid,O,z,1190,7,1,57131.19999998808,624000.599999994,7103,ATS,B,21
21,test,2,C,haborder.png,1,m,Wed Apr 02 2025 11:33:39 GMT-0500 (Central Daylight Time),684031.599999994,CFD-BM-020-024-HC.jpg,1600,solid,O,m,1253,10,1,60031.0,624000.599999994,7103,ATS,B,22
21,test,2,C,mfborder.png,0,m,Wed Apr 02 2025 11:33:39 GMT-0500 (Central Daylight Time),686762.2999999821,CFD-WM-009-009-A.jpg,1200,dash,O,None,1513,6,1,62761.69999998808,624000.599999994,7103,ATS,B,23
22,test,2,C,mfborder.png,1,m,Wed Apr 02 2025 11:33:39 GMT-0500 (Central Daylight Time),688581.0,CFD-BM-015-017-HC.jpg,1000,dash,O,m,767,4,1,64580.40000000596,624000.599999994,7103,ATS,B,24
0,test,3,C,mfborder.png,0,z,Wed Apr 02 2025 11:33:39 GMT-0500 (Central Daylight Time),695077.6999999881,CFD-WF-026-008-A.jpg,1500,dash,O,None,1511,3,1,3065.9000000059605,692011.7999999821,7103,ATS,B,1
1,test,3,C,mfborder.png,1,z,Wed Apr 02 2025 11:33:39 GMT-0500 (Central Daylight Time),697526.2999999821,CFD-BF-027-013-HC.jpg,1700,dash,O,z,690,1,1,5514.5,692011.7999999821,7103,ATS,B,2
2,test,3,C,mfborder.png,1,z,Wed Apr 02 2025 11:33:39 GMT-0500 (Central Daylight Time),700043.5,CFD-BF-027-013-HC.jpg,1700,dash,O,z,767,1,1,8031.700000017881,692011.7999999821,7103,ATS,B,3
3,test,3,C,haborder.png,1,m,Wed Apr 02 2025 11:33:39 GMT-0500 (Central Daylight Time),702841.2999999821,CFD-BF-035-007-HC.jpg,1600,solid,O,m,1152,10,1,10829.5,692011.7999999821,7103,ATS,B,4
4,test,3,C,haborder.png,1,z,Wed Apr 02 2025 11:33:39 GMT-0500 (Central Daylight Time),705390.2999999821,CFD-WM-009-009-A.jpg,1400,solid,O,z,1114,7,1,13378.5,692011.7999999821,7103,ATS,B,5
5,test,3,C,haborder.png,1,z,Wed Apr 02 2025 11:33:39 GMT-0500 (Central Daylight Time),708289.7999999821,CFD-BM-037-041-A.jpg,1900,solid,O,z,959,8,1,16278.0,692011.7999999821,7103,ATS,B,6
6,test,3,C,mfborder.png,1,m,Wed Apr 02 2025 11:33:39 GMT-0500 (Central Daylight Time),710671.900000006,CFD-BM-020-024-HC.jpg,1200,dash,O,m,1137,6,1,18660.100000023842,692011.7999999821,7103,ATS,B,7
7,test,3,C,mfborder.png,1,z,Wed Apr 02 2025 11:33:39 GMT-0500 (Central Daylight Time),713187.900000006,CFD-BF-051-043-A.jpg,1600,dash,O,z,838,2,1,21176.100000023842,692011.7999999821,7103,ATS,B,8
7,test,3,C,haborder.png,0,m,Wed Apr 02 2025 11:33:39 GMT-0500 (Central Daylight Time),715756.599999994,CFD-WF-011-006-HC.jpg,1000,solid,O,None,1514,12,1,23744.80000001192,692011.7999999821,7103,ATS,B,9
8,test,3,C,haborder.png,1,z,Wed Apr 02 2025 11:33:39 GMT-0500 (Central Daylight Time),718419.7999999821,CFD-BM-041-048-A.jpg,1700,solid,O,z,933,9,1,26408.0,692011.7999999821,7103,ATS,B,10
9,test,3,C,haborder.png,1,z,Wed Apr 02 2025 11:33:39 GMT-0500 (Central Daylight Time),721185.5,CFD-BM-037-041-A.jpg,1900,solid,O,z,810,8,1,29173.70000001788,692011.7999999821,7103,ATS,B,11
10,test,3,C,mfborder.png,1,z,Wed Apr 02 2025 11:33:39 GMT-0500 (Central Daylight Time),723900.900000006,CFD-WF-026-008-A.jpg,1500,dash,O,z,1154,3,1,31889.100000023842,692011.7999999821,7103,ATS,B,12
11,test,3,C,mfborder.png,1,z,Wed Apr 02 2025 11:33:39 GMT-0500 (Central Daylight Time),726700.1999999881,CFD-BF-051-043-A.jpg,1600,dash,O,z,1157,2,1,34688.40000000596,692011.7999999821,7103,ATS,B,13
12,test,3,C,haborder.png,1,z,Wed Apr 02 2025 11:33:39 GMT-0500 (Central Daylight Time),728965.7999999821,CFD-WM-009-009-A.jpg,1400,solid,O,z,811,7,1,36954.0,692011.7999999821,7103,ATS,B,14
13,test,3,C,mfborder.png,1,m,Wed Apr 02 2025 11:33:39 GMT-0500 (Central Daylight Time),731918.400000006,CFD-WM-037-060-A.jpg,2000,dash,O,m,886,5,1,39906.60000002384,692011.7999999821,7103,ATS,B,15
14,test,3,C,mfborder.png,1,m,Wed Apr 02 2025 11:33:39 GMT-0500 (Central Daylight Time),733681.1999999881,CFD-WM-012-007-HC.jpg,1000,dash,O,m,726,4,1,41669.40000000596,692011.7999999821,7103,ATS,B,16
15,test,3,C,mfborder.png,1,m,Wed Apr 02 2025 11:33:39 GMT-0500 (Central Daylight Time),735447.2999999821,CFD-WM-012-007-HC.jpg,1000,dash,O,m,721,4,1,43435.5,692011.7999999821,7103,ATS,B,17
16,test,3,C,mfborder.png,1,m,Wed Apr 02 2025 11:33:39 GMT-0500 (Central Daylight Time),738313.0,CFD-WM-037-060-A.jpg,2000,dash,O,m,818,5,1,46301.20000001788,692011.7999999821,7103,ATS,B,18
17,test,3,C,haborder.png,1,z,Wed Apr 02 2025 11:33:39 GMT-0500 (Central Daylight Time),741478.2999999821,CFD-BM-041-048-A.jpg,1700,solid,O,z,1429,9,1,49466.5,692011.7999999821,7103,ATS,B,19
18,test,3,C,haborder.png,1,m,Wed Apr 02 2025 11:33:39 GMT-0500 (Central Daylight Time),744294.400000006,CFD-BF-035-007-HC.jpg,1600,solid,O,m,1171,10,1,52282.60000002384,692011.7999999821,7103,ATS,B,20
19,test,3,C,haborder.png,1,m,Wed Apr 02 2025 11:33:39 GMT-0500 (Central Daylight Time),746593.2999999821,CFD-WF-011-006-HC.jpg,1000,solid,O,m,1251,12,1,54581.5,692011.7999999821,7103,ATS,B,21
20,test,3,C,mfborder.png,1,m,Wed Apr 02 2025 11:33:39 GMT-0500 (Central Daylight Time),749075.900000006,CFD-BM-020-024-HC.jpg,1200,dash,O,m,1225,6,1,57064.10000002384,692011.7999999821,7103,ATS,B,22
20,test,3,C,haborder.png,0,m,Wed Apr 02 2025 11:33:39 GMT-0500 (Central Daylight Time),752125.5,CFD-WF-027-007-HC.jpg,1500,solid,O,None,1514,11,1,60113.70000001788,692011.7999999821,7103,ATS,B,23
21,test,3,C,haborder.png,1,m,Wed Apr 02 2025 11:33:39 GMT-0500 (Central Daylight Time),754574.1999999881,CFD-WF-027-007-HC.jpg,1500,solid,O,m,913,11,1,62562.40000000596,692011.7999999821,7103,ATS,B,24
0,test,4,C,haborder.png,0,m,Wed Apr 02 2025 11:33:39 GMT-0500 (Central Daylight Time),762472.0,CFD-WM-011-006-HC.jpg,1000,solid,O,z,1443,12,1,2516.0999999940395,759955.900000006,7103,ATS,B,1
1,test,4,C,mfborder.png,1,z,Wed Apr 02 2025 11:33:39 GMT-0500 (Central Daylight Time),765087.7999999821,CFD-BF-035-007-HC.jpg,1500,dash,O,z,1053,3,1,5131.899999976158,759955.900000006,7103,ATS,B,2
2,test,4,C,haborder.png,1,m,Wed Apr 02 2025 11:33:39 GMT-0500 (Central Daylight Time),767703.400000006,CFD-BM-020-024-HC.jpg,1600,solid,O,m,970,10,1,7747.5,759955.900000006,7103,ATS,B,3
2,test,4,C,haborder.png,0,z,Wed Apr 02 2025 11:33:39 GMT-0500 (Central Daylight Time),771168.7999999821,CFD-BF-050-012-A.jpg,1900,solid,O,None,1514,8,1,11212.899999976158,759955.900000006,7103,ATS,B,4
2,test,4,C,mfborder.png,0,m,Wed Apr 02 2025 11:33:39 GMT-0500 (Central Daylight Time),774734.5,CFD-BM-037-041-A.jpg,2000,dash,O,None,1514,5,1,14778.59999999404,759955.900000006,7103,ATS,B,5
2,test,4,C,haborder.png,0,m,Wed Apr 02 2025 11:33:39 GMT-0500 (Central Daylight Time),777283.6999999881,CFD-WM-011-006-HC.jpg,1000,solid,O,None,1515,12,1,17327.79999998212,759955.900000006,7103,ATS,B,6
3,test,4,C,mfborder.png,1,z,Wed Apr 02 2025 11:33:39 GMT-0500 (Central Daylight Time),779849.1999999881,CFD-BF-035-007-HC.jpg,1500,dash,O,z,1011,3,1,19893.29999998212,759955.900000006,7103,ATS,B,7
4,test,4,C,haborder.png,1,z,Wed Apr 02 2025 11:33:39 GMT-0500 (Central Daylight Time),782414.1999999881,CFD-BF-051-043-A.jpg,1400,solid,O,z,1129,7,1,22458.29999998212,759955.900000006,7103,ATS,B,8
4,test,4,C,mfborder.png,0,z,Wed Apr 02 2025 11:33:39 GMT-0500 (Central Daylight Time),785647.2999999821,CFD-WF-011-006-HC.jpg,1700,dash,O,None,1514,1,1,25691.399999976158,759955.900000006,7103,ATS,B,9
4,test,4,C,haborder.png,0,m,Wed Apr 02 2025 11:33:39 GMT-0500 (Central Daylight Time),788796.7999999821,CFD-BM-020-024-HC.jpg,1600,solid,O,None,1515,10,1,28840.899999976158,759955.900000006,7103,ATS,B,10
4,test,4,C,haborder.png,0,z,Wed Apr 02 2025 11:33:39 GMT-0500 (Central Daylight Time),792261.900000006,CFD-BF-050-012-A.jpg,1900,solid,O,None,1504,8,1,32306.0,759955.900000006,7103,ATS,B,11
5,test,4,C,haborder.png,1,z,Wed Apr 02 2025 11:33:39 GMT-0500 (Central Daylight Time),794928.0,CFD-WF-026-008-A.jpg,1700,solid,O,z,920,9,1,34972.09999999404,759955.900000006,7103,ATS,B,12
6,test,4,C,mfborder.png,1,m,Wed Apr 02 2025 11:33:39 GMT-0500 (Central Daylight Time),797243.6999999881,CFD-WM-009-009-A.jpg,1200,dash,O,m,1057,6,1,37287.79999998212,759955.900000006,7103,ATS,B,13
7,test,4,C,mfborder.png,1,z,Wed Apr 02 2025 11:33:39 GMT-0500 (Central Daylight Time),799942.7999999821,CFD-WF-013-015-A.jpg,1600,dash,O,z,1054,2,1,39986.89999997616,759955.900000006,7103,ATS,B,14
8,test,4,C,haborder.png,1,z,Wed Apr 02 2025 11:33:39 GMT-0500 (Central Daylight Time),802591.7999999821,CFD-WF-026-008-A.jpg,1700,solid,O,z,886,9,1,42635.89999997616,759955.900000006,7103,ATS,B,15
9,test,4,C,mfborder.png,1,m,Wed Apr 02 2025 11:33:39 GMT-0500 (Central Daylight Time),805107.6999999881,CFD-BM-015-017-HC.jpg,1000,dash,O,m,1458,4,1,45151.79999998212,759955.900000006,7103,ATS,B,16
9,test,4,C,haborder.png,0,m,Wed Apr 02 2025 11:33:39 GMT-0500 (Central Daylight Time),808156.900000006,CFD-WM-011-006-HC.jpg,1500,solid,O,None,1516,11,1,48201.0,759955.900000006,7103,ATS,B,17
9,test,4,C,mfborder.png,0,m,Wed Apr 02 2025 11:33:39 GMT-0500 (Central Daylight Time),811705.599999994,CFD-BM-037-041-A.jpg,2000,dash,O,None,1514,5,1,51749.69999998808,759955.900000006,7103,ATS,B,18
10,test,4,C,haborder.png,1,z,Wed Apr 02 2025 11:33:39 GMT-0500 (Central Daylight Time),814637.900000006,CFD-BF-051-043-A.jpg,1400,solid,O,z,1488,7,1,54682.0,759955.900000006,7103,ATS,B,19
11,test,4,C,mfborder.png,1,m,Wed Apr 02 2025 11:33:39 GMT-0500 (Central Daylight Time),817053.900000006,CFD-BM-015-017-HC.jpg,1000,dash,O,m,1380,4,1,57098.0,759955.900000006,7103,ATS,B,20
12,test,4,C,mfborder.png,1,m,Wed Apr 02 2025 11:33:39 GMT-0500 (Central Daylight Time),819619.0,CFD-WM-009-009-A.jpg,1200,dash,O,m,1317,6,1,59663.09999999404,759955.900000006,7103,ATS,B,21
13,test,4,C,mfborder.png,1,z,Wed Apr 02 2025 11:33:39 GMT-0500 (Central Daylight Time),822488.0,CFD-WF-011-006-HC.jpg,1700,dash,O,z,1123,1,1,62532.09999999404,759955.900000006,7103,ATS,B,22
13,test,4,C,haborder.png,0,m,Wed Apr 02 2025 11:33:39 GMT-0500 (Central Daylight Time),825384.6999999881,CFD-WM-011-006-HC.jpg,1500,solid,O,z,1352,11,1,65428.79999998212,759955.900000006,7103,ATS,B,23
13,test,4,C,mfborder.png,0,z,Wed Apr 02 2025 11:33:39 GMT-0500 (Central Daylight Time),828533.5,CFD-WF-013-015-A.jpg,1600,dash,O,None,1514,2,1,68577.59999999404,759955.900000006,7103,ATS,B,24
