acc_sum,block_c,block_dur,condition,correct,correct_response,countdown,datetime,endtime,project,response,response_time,response_time_test1_response,response_time_test2_response,row_sel,same,session_number,start_end,starttime,stim1,stim2,subject_id,task,task_vers,time_test1,time_test2,trial
1,1,0.0,prac,1,z,30000.0,Wed Apr 02 2025 13:08:47 GMT-0500 (Central Daylight Time),51351.699999928474,O,z,5708,,,3,yes,1,7225.299999952316,44126.39999997616,practrial3.png,practrial3.png,7104,PC,B,,,1
1,1,0.0,prac,0,m,30000.0,Wed Apr 02 2025 13:08:47 GMT-0500 (Central Daylight Time),54483.89999997616,O,z,1603,,,6,no,1,3126.7999999523163,51357.10000002384,practrial6.png,practrial6b.png,7104,PC,B,,,2
2,1,0.0,prac,1,z,30000.0,Wed Apr 02 2025 13:08:47 GMT-0500 (Central Daylight Time),58016.0,O,z,1996,,,5,yes,1,3525.5,54490.5,practrial5.png,practrial5.png,7104,PC,B,,,3
3,1,0.0,prac,1,z,30000.0,Wed Apr 02 2025 13:08:47 GMT-0500 (Central Daylight Time),61330.39999997616,O,z,1779,,,1,yes,1,3309.100000023842,58021.299999952316,practrial1.png,practrial1.png,7104,PC,B,,,4
4,1,0.0,prac,1,m,30000.0,Wed Apr 02 2025 13:08:47 GMT-0500 (Central Daylight Time),64280.799999952316,O,m,1414,,,2,no,1,2943.2999999523163,61337.5,practrial2.png,practrial2b.png,7104,PC,B,,,5
5,1,0.0,prac,1,m,30000.0,Wed Apr 02 2025 13:08:47 GMT-0500 (Central Daylight Time),67811.39999997616,O,m,1996,,,4,no,1,3527.2999999523163,64284.10000002384,practrial4.png,practrial4b.png,7104,PC,B,,,6
1,1,2.7139999866485596,test,1,z,27286.00001335144,Wed Apr 02 2025 13:08:47 GMT-0500 (Central Daylight Time),81522.79999995232,O,z,2707,2707,,1,yes,1,2709.600000023842,78813.19999992847,test1trial1.png,test1trial1.png,7104,PC,B,75211,,1
2,1,4.381999969482422,test,1,m,25618.000030517578,Wed Apr 02 2025 13:08:47 GMT-0500 (Central Daylight Time),83190.69999992847,O,m,1649,1649,,2,no,1,1664.6999999284744,81526.0,test1trial2.png,test1trial2b.png,7104,PC,B,77924,,2
3,1,6.063999891281128,test,1,z,23936.000108718872,Wed Apr 02 2025 13:08:47 GMT-0500 (Central Daylight Time),84873.19999992847,O,z,1669,1669,,3,yes,1,1678.5,83194.69999992847,test1trial3.png,test1trial3.png,7104,PC,B,79593,,3
4,1,7.297999858856201,test,1,m,22702.0001411438,Wed Apr 02 2025 13:08:47 GMT-0500 (Central Daylight Time),86106.39999997616,O,m,1220,1220,,4,no,1,1230.1000000238419,84876.29999995232,test1trial4.png,test1trial4b.png,7104,PC,B,81274,,4
5,1,8.763999938964844,test,1,z,21236.000061035156,Wed Apr 02 2025 13:08:47 GMT-0500 (Central Daylight Time),87572.89999997616,O,z,1460,1460,,5,yes,1,1463.5,86109.39999997616,test1trial5.png,test1trial5.png,7104,PC,B,82507,,5
6,1,10.111999988555908,test,1,m,19888.00001144409,Wed Apr 02 2025 13:08:47 GMT-0500 (Central Daylight Time),88921.10000002384,O,m,1335,1335,,6,no,1,1345.1000000238419,87576.0,test1trial6.png,test1trial6b.png,7104,PC,B,83974,,6
7,1,11.212999820709229,test,1,z,18787.00017929077,Wed Apr 02 2025 13:08:47 GMT-0500 (Central Daylight Time),90022.10000002384,O,z,1094,1094,,7,yes,1,1098.4000000953674,88923.69999992847,test1trial7.png,test1trial7.png,7104,PC,B,85321,,7
7,1,12.77899980545044,test,0,m,17221.00019454956,Wed Apr 02 2025 13:08:47 GMT-0500 (Central Daylight Time),91588.19999992847,O,z,1546,1546,,8,no,1,1562.8999999761581,90025.29999995232,test1trial8.png,test1trial8b.png,7104,PC,B,86423,,8
8,1,13.912999868392944,test,1,z,16087.000131607056,Wed Apr 02 2025 13:08:47 GMT-0500 (Central Daylight Time),92721.60000002384,O,z,1119,1119,,9,yes,1,1129.7000000476837,91591.89999997616,test1trial9.png,test1trial9.png,7104,PC,B,87990,,9
9,1,15.29699993133545,test,1,m,14703.00006866455,Wed Apr 02 2025 13:08:47 GMT-0500 (Central Daylight Time),94105.79999995232,O,m,1378,1378,,10,no,1,1379.6999999284744,92726.10000002384,test1trial10.png,test1trial10b.png,7104,PC,B,89124,,10
10,1,16.661999940872192,test,1,z,13338.000059127808,Wed Apr 02 2025 13:08:47 GMT-0500 (Central Daylight Time),95470.5,O,z,1347,1347,,11,yes,1,1361.5,94109.0,test1trial11.png,test1trial11.png,7104,PC,B,90507,,11
11,1,18.694000005722046,test,1,m,11305.999994277954,Wed Apr 02 2025 13:08:47 GMT-0500 (Central Daylight Time),97502.5,O,m,2014,2014,,12,no,1,2028.3000000715256,95474.19999992847,test1trial12.png,test1trial12b.png,7104,PC,B,91872,,12
12,1,20.05999994277954,test,1,m,9940.000057220459,Wed Apr 02 2025 13:08:47 GMT-0500 (Central Daylight Time),98868.29999995232,O,m,1344,1344,,13,no,1,1361.6999999284744,97506.60000002384,test1trial13.png,test1trial13b.png,7104,PC,B,93905,,13
13,1,22.72699999809265,test,1,m,7273.000001907349,Wed Apr 02 2025 13:08:47 GMT-0500 (Central Daylight Time),101535.39999997616,O,m,2647,2647,,14,no,1,2662.2000000476837,98873.19999992847,test1trial14.png,test1trial14b.png,7104,PC,B,95271,,14
14,1,24.992999792099,test,1,z,5007.000207901001,Wed Apr 02 2025 13:08:47 GMT-0500 (Central Daylight Time),103801.5,O,z,2246,2246,,15,yes,1,2262.8000000715256,101538.69999992847,test1trial15.png,test1trial15.png,7104,PC,B,97937,,15
15,1,26.358999967575073,test,1,m,3641.0000324249268,Wed Apr 02 2025 13:08:47 GMT-0500 (Central Daylight Time),105167.79999995232,O,m,1356,1356,,16,no,1,1363.3999999761581,103804.39999997616,test1trial16.png,test1trial16b.png,7104,PC,B,100202,,16
16,1,28.092000007629395,test,1,z,1907.9999923706055,Wed Apr 02 2025 13:08:47 GMT-0500 (Central Daylight Time),106900.60000002384,O,z,1712,1712,,17,yes,1,1724.8000000715256,105175.79999995232,test1trial17.png,test1trial17.png,7104,PC,B,101574,,17
17,1,29.573999881744385,test,1,m,426.00011825561523,Wed Apr 02 2025 13:08:47 GMT-0500 (Central Daylight Time),108382.5,O,m,1470,1470,,18,no,1,1477.5,106905.0,test1trial18.png,test1trial18b.png,7104,PC,B,103303,,18
17,1,30.007999897003174,test,0,m,-7.999897003173828,Wed Apr 02 2025 13:08:47 GMT-0500 (Central Daylight Time),108816.89999997616,O,None,431,431,,19,no,1,432.10000002384186,108384.79999995232,test1trial19.png,test1trial19b.png,7104,PC,B,104783,,19
1,2,1.8849999904632568,test,1,m,28115.000009536743,Wed Apr 02 2025 13:08:47 GMT-0500 (Central Daylight Time),122497.60000002384,O,m,1871,,1871.0,1,no,1,14112.800000071526,108384.79999995232,test2trial1.png,test2trial1b.png,7104,PC,B,,117015.0,1
2,2,3.615000009536743,test,1,m,26384.999990463257,Wed Apr 02 2025 13:08:47 GMT-0500 (Central Daylight Time),124227.79999995232,O,m,1722,,1722.0,2,no,1,15843.0,108384.79999995232,test2trial2.png,test2trial2b.png,7104,PC,B,,118900.0,2
2,2,5.198999881744385,test,0,z,24801.000118255615,Wed Apr 02 2025 13:08:47 GMT-0500 (Central Daylight Time),125811.39999997616,O,m,1577,,1577.0,3,yes,1,17426.600000023842,108384.79999995232,test2trial3.png,test2trial3.png,7104,PC,B,,120631.0,3
3,2,6.181999921798706,test,1,z,23818.000078201294,Wed Apr 02 2025 13:08:47 GMT-0500 (Central Daylight Time),126794.19999992847,O,z,969,,969.0,4,yes,1,18409.399999976158,108384.79999995232,test2trial4.png,test2trial4.png,7104,PC,B,,122213.0,4
4,2,7.830999851226807,test,1,z,22169.000148773193,Wed Apr 02 2025 13:08:47 GMT-0500 (Central Daylight Time),128443.79999995232,O,z,1633,,1633.0,5,yes,1,20059.0,108384.79999995232,test2trial5.png,test2trial5.png,7104,PC,B,,123197.0,5
5,2,9.879999876022339,test,1,z,20120.00012397766,Wed Apr 02 2025 13:08:47 GMT-0500 (Central Daylight Time),130492.19999992847,O,z,2031,,2031.0,6,yes,1,22107.399999976158,108384.79999995232,test2trial6.png,test2trial6.png,7104,PC,B,,124846.0,6
6,2,12.062000036239624,test,1,m,17937.999963760376,Wed Apr 02 2025 13:08:47 GMT-0500 (Central Daylight Time),132674.29999995232,O,m,2167,,2167.0,7,no,1,24289.5,108384.79999995232,test2trial7.png,test2trial7b.png,7104,PC,B,,126896.0,7
7,2,13.679999828338623,test,1,m,16320.000171661377,Wed Apr 02 2025 13:08:47 GMT-0500 (Central Daylight Time),134291.79999995232,O,m,1612,,1612.0,8,no,1,25907.0,108384.79999995232,test2trial8.png,test2trial8b.png,7104,PC,B,,129076.0,8
8,2,15.893999814987183,test,1,z,14106.000185012817,Wed Apr 02 2025 13:08:47 GMT-0500 (Central Daylight Time),136506.10000002384,O,z,2210,,2210.0,9,yes,1,28121.300000071526,108384.79999995232,test2trial9.png,test2trial9.png,7104,PC,B,,130693.0,9
9,2,17.49399995803833,test,1,z,12506.00004196167,Wed Apr 02 2025 13:08:47 GMT-0500 (Central Daylight Time),138106.29999995232,O,z,1588,,1588.0,10,yes,1,29721.5,108384.79999995232,test2trial10.png,test2trial10.png,7104,PC,B,,132907.0,10
10,2,18.942999839782715,test,1,m,11057.000160217285,Wed Apr 02 2025 13:08:47 GMT-0500 (Central Daylight Time),139555.60000002384,O,m,1434,,1434.0,11,no,1,31170.800000071526,108384.79999995232,test2trial11.png,test2trial11b.png,7104,PC,B,,134507.0,11
10,2,21.592000007629395,test,0,m,8407.999992370605,Wed Apr 02 2025 13:08:47 GMT-0500 (Central Daylight Time),142204.79999995232,O,z,2643,,2643.0,12,no,1,33820.0,108384.79999995232,test2trial12.png,test2trial12b.png,7104,PC,B,,135956.0,12
11,2,23.30999994277954,test,1,z,6690.000057220459,Wed Apr 02 2025 13:08:47 GMT-0500 (Central Daylight Time),143922.19999992847,O,z,1698,,1698.0,13,yes,1,35537.39999997616,108384.79999995232,test2trial13.png,test2trial13.png,7104,PC,B,,138605.0,13
11,2,26.391000032424927,test,0,m,3608.9999675750732,Wed Apr 02 2025 13:08:47 GMT-0500 (Central Daylight Time),147003.79999995232,O,z,3068,,3068.0,14,no,1,38619.0,108384.79999995232,test2trial14.png,test2trial14b.png,7104,PC,B,,140323.0,14
12,2,27.823999881744385,test,1,m,2176.0001182556152,Wed Apr 02 2025 13:08:47 GMT-0500 (Central Daylight Time),148436.69999992847,O,m,1429,,1429.0,15,no,1,40051.89999997616,108384.79999995232,test2trial15.png,test2trial15b.png,7104,PC,B,,143404.0,15
12,2,30.00600004196167,test,0,m,-6.000041961669922,Wed Apr 02 2025 13:08:47 GMT-0500 (Central Daylight Time),150619.10000002384,O,None,2178,,2178.0,16,no,1,42234.300000071526,108384.79999995232,test2trial16.png,test2trial16b.png,7104,PC,B,,144838.0,16
