acc_sum,block,block_c,change,condition,correct,correct_response,datetime,endtime,face,project,response,response_time,row_sel,session_number,start_end,starttime,subject_id,task,task_vers,trial
0,prac,1,,1-Back,,,Fri Feb 28 2025 09:45:59 GMT-0600 (Central Standard Time),,097_m_f_n_a.png,O,space,20265,1,1,,,7069,NNB,B,0
1,prac,1,0.0,1-Back,1,m,Fri Feb 28 2025 09:45:59 GMT-0600 (Central Standard Time),135462.10000002384,152_y_f_n_a.png,O,m,854,2,1,1688.6000000238419,133773.5,7069,NNB,B,1
2,prac,1,1.0,1-Back,1,z,Fri Feb 28 2025 09:45:59 GMT-0600 (Central Standard Time),137359.40000003576,152_y_f_n_a.png,O,z,1110,3,1,1889.4000000357628,135470.0,7069,NNB,B,2
3,prac,1,0.0,1-Back,1,m,Fri Feb 28 2025 09:45:59 GMT-0600 (Central Standard Time),139377.40000003576,176_o_m_n_a.png,O,m,1162,4,1,2008.4000000357628,137369.0,7069,NNB,B,3
4,prac,1,0.0,1-Back,1,m,Fri Feb 28 2025 09:45:59 GMT-0600 (Central Standard Time),141309.60000002384,126_m_m_n_a.png,O,m,1079,5,1,1926.199999988079,139383.40000003576,7069,NNB,B,4
5,prac,1,1.0,1-Back,1,z,Fri Feb 28 2025 09:45:59 GMT-0600 (Central Standard Time),142941.80000001192,126_m_m_n_a.png,O,z,854,6,1,1622.300000011921,141319.5,7069,NNB,B,5
6,prac,1,0.0,1-Back,1,m,Fri Feb 28 2025 09:45:59 GMT-0600 (Central Standard Time),144805.0,086_o_f_n_a.png,O,m,974,7,1,1853.0,142952.0,7069,NNB,B,6
7,prac,1,0.0,1-Back,1,m,Fri Feb 28 2025 09:45:59 GMT-0600 (Central Standard Time),146806.69999998808,178_m_m_n_a.png,O,m,1138,8,1,1993.5999999642372,144813.10000002384,7069,NNB,B,7
8,prac,1,0.0,1-Back,1,m,Fri Feb 28 2025 09:45:59 GMT-0600 (Central Standard Time),148374.40000003576,097_m_f_n_a.png,O,m,804,9,1,1557.4000000357628,146817.0,7069,NNB,B,8
9,prac,1,1.0,1-Back,1,z,Fri Feb 28 2025 09:45:59 GMT-0600 (Central Standard Time),149989.5,097_m_f_n_a.png,O,z,840,10,1,1605.3999999761581,148384.10000002384,7069,NNB,B,9
10,prac,1,0.0,1-Back,1,m,Fri Feb 28 2025 09:45:59 GMT-0600 (Central Standard Time),151623.80000001192,176_o_m_n_a.png,O,m,856,11,1,1618.6000000238419,150005.19999998808,7069,NNB,B,10
11,prac,1,0.0,1-Back,1,m,Fri Feb 28 2025 09:45:59 GMT-0600 (Central Standard Time),154057.19999998808,173_y_f_n_a.png,O,m,1589,12,1,2425.399999976158,151631.80000001192,7069,NNB,B,11
0,test,1,0.0,1-Back,,,Fri Feb 28 2025 09:45:59 GMT-0600 (Central Standard Time),154057.19999998808,152_y_f_n_a.png,O,space,24310,1,1,2425.399999976158,151631.80000001192,7069,NNB,B,0
1,test,1,0.0,1-Back,1,m,Fri Feb 28 2025 09:45:59 GMT-0600 (Central Standard Time),190675.5,029_m_f_n_a.png,O,m,1233,2,1,2257.099999964237,188418.40000003576,7069,NNB,B,1
2,test,1,0.0,1-Back,1,m,Fri Feb 28 2025 09:45:59 GMT-0600 (Central Standard Time),192527.19999998808,173_y_f_n_a.png,O,m,833,3,1,1845.0999999642372,190682.10000002384,7069,NNB,B,2
3,test,1,1.0,1-Back,1,z,Fri Feb 28 2025 09:45:59 GMT-0600 (Central Standard Time),194207.80000001192,173_y_f_n_a.png,O,z,663,4,1,1672.699999988079,192535.10000002384,7069,NNB,B,3
4,test,1,0.0,1-Back,1,m,Fri Feb 28 2025 09:45:59 GMT-0600 (Central Standard Time),196192.19999998808,029_m_f_n_a.png,O,m,965,5,1,1975.5999999642372,194216.60000002384,7069,NNB,B,4
5,test,1,0.0,1-Back,1,m,Fri Feb 28 2025 09:45:59 GMT-0600 (Central Standard Time),197957.80000001192,176_o_m_n_a.png,O,m,741,6,1,1757.300000011921,196200.5,7069,NNB,B,5
6,test,1,1.0,1-Back,1,z,Fri Feb 28 2025 09:45:59 GMT-0600 (Central Standard Time),199673.0,176_o_m_n_a.png,O,z,698,7,1,1707.699999988079,197965.30000001192,7069,NNB,B,6
7,test,1,0.0,1-Back,1,m,Fri Feb 28 2025 09:45:59 GMT-0600 (Central Standard Time),201572.69999998808,126_m_m_n_a.png,O,m,874,8,1,1892.0,199680.69999998808,7069,NNB,B,7
8,test,1,0.0,1-Back,1,m,Fri Feb 28 2025 09:45:59 GMT-0600 (Central Standard Time),203242.5,086_o_f_n_a.png,O,m,652,9,1,1662.699999988079,201579.80000001192,7069,NNB,B,8
9,test,1,0.0,1-Back,1,m,Fri Feb 28 2025 09:45:59 GMT-0600 (Central Standard Time),205055.30000001192,126_m_m_n_a.png,O,m,784,10,1,1805.6000000238419,203249.69999998808,7069,NNB,B,9
10,test,1,0.0,1-Back,1,m,Fri Feb 28 2025 09:45:59 GMT-0600 (Central Standard Time),206970.60000002384,153_y_m_n_a.png,O,m,885,11,1,1908.800000011921,205061.80000001192,7069,NNB,B,10
11,test,1,1.0,1-Back,1,z,Fri Feb 28 2025 09:45:59 GMT-0600 (Central Standard Time),208737.40000003576,153_y_m_n_a.png,O,z,736,12,1,1759.0,206978.40000003576,7069,NNB,B,11
12,test,1,0.0,1-Back,1,m,Fri Feb 28 2025 09:45:59 GMT-0600 (Central Standard Time),210486.80000001192,110_o_f_n_a.png,O,m,723,13,1,1742.199999988079,208744.60000002384,7069,NNB,B,12
13,test,1,1.0,1-Back,1,z,Fri Feb 28 2025 09:45:59 GMT-0600 (Central Standard Time),212236.40000003576,110_o_f_n_a.png,O,z,717,14,1,1742.7000000476837,210493.69999998808,7069,NNB,B,13
14,test,1,0.0,1-Back,1,m,Fri Feb 28 2025 09:45:59 GMT-0600 (Central Standard Time),214320.80000001192,013_y_m_n_a.png,O,m,1067,15,1,2077.399999976158,212243.40000003576,7069,NNB,B,14
15,test,1,0.0,1-Back,1,m,Fri Feb 28 2025 09:45:59 GMT-0600 (Central Standard Time),215965.80000001192,097_m_f_n_a.png,O,m,621,16,1,1638.3999999761581,214327.40000003576,7069,NNB,B,15
16,test,1,0.0,1-Back,1,m,Fri Feb 28 2025 09:45:59 GMT-0600 (Central Standard Time),217701.80000001192,065_o_m_n_a.png,O,m,707,17,1,1733.3999999761581,215968.40000003576,7069,NNB,B,16
17,test,1,0.0,1-Back,1,m,Fri Feb 28 2025 09:45:59 GMT-0600 (Central Standard Time),219700.40000003576,097_m_f_n_a.png,O,m,966,18,1,1990.4000000357628,217710.0,7069,NNB,B,17
0,test,2,0.0,1-Back,,,Fri Feb 28 2025 09:45:59 GMT-0600 (Central Standard Time),219700.40000003576,126_m_m_n_a.png,O,space,3465,1,1,1990.4000000357628,217710.0,7069,NNB,B,0
1,test,2,0.0,1-Back,1,m,Fri Feb 28 2025 09:45:59 GMT-0600 (Central Standard Time),227199.19999998808,029_m_f_n_a.png,O,m,991,2,1,2008.3999999761581,225190.80000001192,7069,NNB,B,1
2,test,2,1.0,1-Back,1,z,Fri Feb 28 2025 09:45:59 GMT-0600 (Central Standard Time),229016.10000002384,029_m_f_n_a.png,O,z,790,3,1,1809.4000000357628,227206.69999998808,7069,NNB,B,2
3,test,2,0.0,1-Back,1,m,Fri Feb 28 2025 09:45:59 GMT-0600 (Central Standard Time),230730.60000002384,126_m_m_n_a.png,O,m,686,4,1,1708.199999988079,229022.40000003576,7069,NNB,B,3
4,test,2,0.0,1-Back,1,m,Fri Feb 28 2025 09:45:59 GMT-0600 (Central Standard Time),232396.40000003576,153_y_m_n_a.png,O,m,641,5,1,1659.2000000476837,230737.19999998808,7069,NNB,B,4
5,test,2,0.0,1-Back,1,m,Fri Feb 28 2025 09:45:59 GMT-0600 (Central Standard Time),234079.5,152_y_f_n_a.png,O,m,663,6,1,1674.800000011921,232404.69999998808,7069,NNB,B,5
6,test,2,1.0,1-Back,1,z,Fri Feb 28 2025 09:45:59 GMT-0600 (Central Standard Time),235594.69999998808,152_y_f_n_a.png,O,z,494,7,1,1510.2999999523163,234084.40000003576,7069,NNB,B,6
7,test,2,0.0,1-Back,1,m,Fri Feb 28 2025 09:45:59 GMT-0600 (Central Standard Time),237126.10000002384,153_y_m_n_a.png,O,m,514,8,1,1524.800000011921,235601.30000001192,7069,NNB,B,7
8,test,2,0.0,1-Back,1,m,Fri Feb 28 2025 09:45:59 GMT-0600 (Central Standard Time),239044.5,110_o_f_n_a.png,O,m,891,9,1,1916.0,237128.5,7069,NNB,B,8
9,test,2,0.0,1-Back,1,m,Fri Feb 28 2025 09:45:59 GMT-0600 (Central Standard Time),240727.80000001192,178_m_m_n_a.png,O,m,666,10,1,1676.0,239051.80000001192,7069,NNB,B,9
10,test,2,1.0,1-Back,1,z,Fri Feb 28 2025 09:45:59 GMT-0600 (Central Standard Time),242293.40000003576,178_m_m_n_a.png,O,z,535,11,1,1559.2000000476837,240734.19999998808,7069,NNB,B,10
11,test,2,0.0,1-Back,1,m,Fri Feb 28 2025 09:45:59 GMT-0600 (Central Standard Time),244077.60000002384,110_o_f_n_a.png,O,m,766,12,1,1776.800000011921,242300.80000001192,7069,NNB,B,11
12,test,2,0.0,1-Back,1,m,Fri Feb 28 2025 09:45:59 GMT-0600 (Central Standard Time),245974.60000002384,086_o_f_n_a.png,O,m,871,13,1,1888.9000000357628,244085.69999998808,7069,NNB,B,12
13,test,2,0.0,1-Back,1,m,Fri Feb 28 2025 09:45:59 GMT-0600 (Central Standard Time),247577.19999998808,176_o_m_n_a.png,O,m,586,14,1,1594.5,245982.69999998808,7069,NNB,B,13
14,test,2,0.0,1-Back,1,m,Fri Feb 28 2025 09:45:59 GMT-0600 (Central Standard Time),249124.69999998808,065_o_m_n_a.png,O,m,517,15,1,1541.2999999523163,247583.40000003576,7069,NNB,B,14
15,test,2,1.0,1-Back,1,z,Fri Feb 28 2025 09:45:59 GMT-0600 (Central Standard Time),250760.0,065_o_m_n_a.png,O,z,599,16,1,1631.199999988079,249128.80000001192,7069,NNB,B,15
16,test,2,0.0,1-Back,1,m,Fri Feb 28 2025 09:45:59 GMT-0600 (Central Standard Time),252422.69999998808,013_y_m_n_a.png,O,m,638,17,1,1655.199999988079,250767.5,7069,NNB,B,16
17,test,2,1.0,1-Back,1,z,Fri Feb 28 2025 09:45:59 GMT-0600 (Central Standard Time),254373.80000001192,013_y_m_n_a.png,O,z,933,18,1,1944.1000000238419,252429.69999998808,7069,NNB,B,17
0,test,3,1.0,1-Back,,,Fri Feb 28 2025 09:45:59 GMT-0600 (Central Standard Time),254373.80000001192,173_y_f_n_a.png,O,space,2898,1,1,1944.1000000238419,252429.69999998808,7069,NNB,B,0
1,test,3,0.0,1-Back,1,m,Fri Feb 28 2025 09:45:59 GMT-0600 (Central Standard Time),261039.0,065_o_m_n_a.png,O,m,652,1,1,1661.8999999761581,259377.10000002384,7069,NNB,B,1
2,test,3,1.0,1-Back,1,z,Fri Feb 28 2025 09:45:59 GMT-0600 (Central Standard Time),262687.6999999881,065_o_m_n_a.png,O,z,623,1,1,1640.5999999642372,261047.10000002384,7069,NNB,B,2
3,test,3,0.0,1-Back,1,m,Fri Feb 28 2025 09:45:59 GMT-0600 (Central Standard Time),264534.8000000119,097_m_f_n_a.png,O,m,828,1,1,1839.199999988079,262695.60000002384,7069,NNB,B,3
4,test,3,1.0,1-Back,1,z,Fri Feb 28 2025 09:45:59 GMT-0600 (Central Standard Time),266251.60000002384,097_m_f_n_a.png,O,z,691,1,1,1710.9000000357628,264540.6999999881,7069,NNB,B,4
5,test,3,0.0,1-Back,1,m,Fri Feb 28 2025 09:45:59 GMT-0600 (Central Standard Time),267800.60000002384,110_o_f_n_a.png,O,m,519,1,1,1541.9000000357628,266258.6999999881,7069,NNB,B,5
6,test,3,0.0,1-Back,1,m,Fri Feb 28 2025 09:45:59 GMT-0600 (Central Standard Time),269400.0,153_y_m_n_a.png,O,m,578,1,1,1593.199999988079,267806.8000000119,7069,NNB,B,6
7,test,3,0.0,1-Back,1,m,Fri Feb 28 2025 09:45:59 GMT-0600 (Central Standard Time),271234.5,110_o_f_n_a.png,O,m,802,1,1,1831.5999999642372,269402.90000003576,7069,NNB,B,7
8,test,3,0.0,1-Back,1,m,Fri Feb 28 2025 09:45:59 GMT-0600 (Central Standard Time),272984.1999999881,013_y_m_n_a.png,O,m,723,1,1,1742.7999999523163,271241.40000003576,7069,NNB,B,8
9,test,3,1.0,1-Back,1,z,Fri Feb 28 2025 09:45:59 GMT-0600 (Central Standard Time),274683.10000002384,013_y_m_n_a.png,O,z,669,1,1,1691.9000000357628,272991.1999999881,7069,NNB,B,9
10,test,3,0.0,1-Back,1,m,Fri Feb 28 2025 09:45:59 GMT-0600 (Central Standard Time),276247.40000003576,029_m_f_n_a.png,O,m,544,1,1,1557.9000000357628,274689.5,7069,NNB,B,10
11,test,3,0.0,1-Back,1,m,Fri Feb 28 2025 09:45:59 GMT-0600 (Central Standard Time),277881.3000000119,152_y_f_n_a.png,O,m,602,1,1,1631.3999999761581,276249.90000003576,7069,NNB,B,11
12,test,3,1.0,1-Back,1,z,Fri Feb 28 2025 09:45:59 GMT-0600 (Central Standard Time),279448.0,152_y_f_n_a.png,O,z,550,1,1,1559.5,277888.5,7069,NNB,B,12
13,test,3,0.0,1-Back,1,m,Fri Feb 28 2025 09:45:59 GMT-0600 (Central Standard Time),281064.6999999881,029_m_f_n_a.png,O,m,599,1,1,1608.8999999761581,279455.8000000119,7069,NNB,B,13
14,test,3,0.0,1-Back,1,m,Fri Feb 28 2025 09:45:59 GMT-0600 (Central Standard Time),282631.60000002384,126_m_m_n_a.png,O,m,550,1,1,1560.9000000357628,281070.6999999881,7069,NNB,B,14
15,test,3,1.0,1-Back,1,z,Fri Feb 28 2025 09:45:59 GMT-0600 (Central Standard Time),284329.0,126_m_m_n_a.png,O,z,667,1,1,1691.800000011921,282637.1999999881,7069,NNB,B,15
16,test,3,0.0,1-Back,1,m,Fri Feb 28 2025 09:45:59 GMT-0600 (Central Standard Time),285829.60000002384,086_o_f_n_a.png,O,m,468,1,1,1494.699999988079,284334.90000003576,7069,NNB,B,16
17,test,3,1.0,1-Back,1,z,Fri Feb 28 2025 09:45:59 GMT-0600 (Central Standard Time),287478.8000000119,086_o_f_n_a.png,O,z,623,1,1,1643.1000000238419,285835.6999999881,7069,NNB,B,17
0,test,4,1.0,1-Back,,,Fri Feb 28 2025 09:45:59 GMT-0600 (Central Standard Time),287478.8000000119,097_m_f_n_a.png,O,space,2967,1,1,1643.1000000238419,285835.6999999881,7069,NNB,B,0
1,test,4,0.0,1-Back,1,m,Fri Feb 28 2025 09:45:59 GMT-0600 (Central Standard Time),294226.90000003576,065_o_m_n_a.png,O,m,636,2,1,1661.0,292565.90000003576,7069,NNB,B,1
2,test,4,0.0,1-Back,1,m,Fri Feb 28 2025 09:45:59 GMT-0600 (Central Standard Time),296027.1999999881,097_m_f_n_a.png,O,m,769,3,1,1793.699999988079,294233.5,7069,NNB,B,2
3,test,4,0.0,1-Back,1,m,Fri Feb 28 2025 09:45:59 GMT-0600 (Central Standard Time),297726.3000000119,110_o_f_n_a.png,O,m,681,4,1,1692.0,296034.3000000119,7069,NNB,B,3
4,test,4,1.0,1-Back,1,z,Fri Feb 28 2025 09:45:59 GMT-0600 (Central Standard Time),299325.10000002384,110_o_f_n_a.png,O,z,565,5,1,1591.800000011921,297733.3000000119,7069,NNB,B,4
5,test,4,0.0,1-Back,1,m,Fri Feb 28 2025 09:45:59 GMT-0600 (Central Standard Time),300907.1999999881,152_y_f_n_a.png,O,m,559,6,1,1574.5999999642372,299332.60000002384,7069,NNB,B,5
6,test,4,0.0,1-Back,1,m,Fri Feb 28 2025 09:45:59 GMT-0600 (Central Standard Time),302657.0,153_y_m_n_a.png,O,m,731,7,1,1743.199999988079,300913.8000000119,7069,NNB,B,6
7,test,4,1.0,1-Back,1,z,Fri Feb 28 2025 09:45:59 GMT-0600 (Central Standard Time),304456.8000000119,153_y_m_n_a.png,O,z,772,8,1,1793.3999999761581,302663.40000003576,7069,NNB,B,7
8,test,4,0.0,1-Back,1,m,Fri Feb 28 2025 09:45:59 GMT-0600 (Central Standard Time),306356.40000003576,152_y_f_n_a.png,O,m,876,9,1,1891.0,304465.40000003576,7069,NNB,B,8
9,test,4,0.0,1-Back,1,m,Fri Feb 28 2025 09:45:59 GMT-0600 (Central Standard Time),308271.40000003576,178_m_m_n_a.png,O,m,888,10,1,1908.300000011921,306363.10000002384,7069,NNB,B,9
10,test,4,1.0,1-Back,1,z,Fri Feb 28 2025 09:45:59 GMT-0600 (Central Standard Time),309987.3000000119,178_m_m_n_a.png,O,z,684,11,1,1709.8999999761581,308277.40000003576,7069,NNB,B,10
11,test,4,0.0,1-Back,1,m,Fri Feb 28 2025 09:45:59 GMT-0600 (Central Standard Time),311823.1999999881,086_o_f_n_a.png,O,m,817,12,1,1829.5,309993.6999999881,7069,NNB,B,11
12,test,4,0.0,1-Back,1,m,Fri Feb 28 2025 09:45:59 GMT-0600 (Central Standard Time),313370.3000000119,176_o_m_n_a.png,O,m,527,13,1,1539.699999988079,311830.60000002384,7069,NNB,B,12
13,test,4,0.0,1-Back,1,m,Fri Feb 28 2025 09:45:59 GMT-0600 (Central Standard Time),315419.10000002384,086_o_f_n_a.png,O,m,1017,14,1,2040.0,313379.10000002384,7069,NNB,B,13
14,test,4,0.0,1-Back,1,m,Fri Feb 28 2025 09:45:59 GMT-0600 (Central Standard Time),317019.10000002384,173_y_f_n_a.png,O,m,576,15,1,1593.300000011921,315425.8000000119,7069,NNB,B,14
15,test,4,1.0,1-Back,1,z,Fri Feb 28 2025 09:45:59 GMT-0600 (Central Standard Time),318703.5,173_y_f_n_a.png,O,z,666,16,1,1676.5,317027.0,7069,NNB,B,15
16,test,4,0.0,1-Back,1,m,Fri Feb 28 2025 09:45:59 GMT-0600 (Central Standard Time),320284.6999999881,029_m_f_n_a.png,O,m,557,17,1,1574.0999999642372,318710.60000002384,7069,NNB,B,16
17,test,4,1.0,1-Back,1,z,Fri Feb 28 2025 09:45:59 GMT-0600 (Central Standard Time),322234.3000000119,029_m_f_n_a.png,O,z,918,18,1,1942.300000011921,320292.0,7069,NNB,B,17
0,test,5,1.0,1-Back,,,Fri Feb 28 2025 09:45:59 GMT-0600 (Central Standard Time),322234.3000000119,176_o_m_n_a.png,O,space,6450,1,1,1942.300000011921,320292.0,7069,NNB,B,0
1,test,5,1.0,1-Back,1,z,Fri Feb 28 2025 09:45:59 GMT-0600 (Central Standard Time),332431.60000002384,176_o_m_n_a.png,O,z,697,2,1,1709.9000000357628,330721.6999999881,7069,NNB,B,1
2,test,5,0.0,1-Back,1,m,Fri Feb 28 2025 09:45:59 GMT-0600 (Central Standard Time),334214.8000000119,152_y_f_n_a.png,O,m,756,3,1,1774.6000000238419,332440.1999999881,7069,NNB,B,2
3,test,5,0.0,1-Back,1,m,Fri Feb 28 2025 09:45:59 GMT-0600 (Central Standard Time),335864.10000002384,153_y_m_n_a.png,O,m,624,4,1,1642.1000000238419,334222.0,7069,NNB,B,3
4,test,5,0.0,1-Back,1,m,Fri Feb 28 2025 09:45:59 GMT-0600 (Central Standard Time),337479.1999999881,152_y_f_n_a.png,O,m,598,5,1,1607.3999999761581,335871.8000000119,7069,NNB,B,4
5,test,5,0.0,1-Back,1,m,Fri Feb 28 2025 09:45:59 GMT-0600 (Central Standard Time),339180.6999999881,126_m_m_n_a.png,O,m,668,6,1,1696.699999988079,337484.0,7069,NNB,B,5
6,test,5,1.0,1-Back,1,z,Fri Feb 28 2025 09:45:59 GMT-0600 (Central Standard Time),342062.90000003576,126_m_m_n_a.png,O,z,1857,7,1,2875.5,339187.40000003576,7069,NNB,B,6
7,test,5,0.0,1-Back,1,m,Fri Feb 28 2025 09:45:59 GMT-0600 (Central Standard Time),343712.1999999881,173_y_f_n_a.png,O,m,623,8,1,1644.5999999642372,342067.60000002384,7069,NNB,B,7
8,test,5,0.0,1-Back,1,m,Fri Feb 28 2025 09:45:59 GMT-0600 (Central Standard Time),345359.3000000119,013_y_m_n_a.png,O,m,629,9,1,1640.199999988079,343719.10000002384,7069,NNB,B,8
9,test,5,0.0,1-Back,1,m,Fri Feb 28 2025 09:45:59 GMT-0600 (Central Standard Time),347062.90000003576,173_y_f_n_a.png,O,m,667,10,1,1695.9000000357628,345367.0,7069,NNB,B,9
10,test,5,0.0,1-Back,1,m,Fri Feb 28 2025 09:45:59 GMT-0600 (Central Standard Time),348726.5,086_o_f_n_a.png,O,m,640,11,1,1655.699999988079,347070.8000000119,7069,NNB,B,10
11,test,5,1.0,1-Back,1,z,Fri Feb 28 2025 09:45:59 GMT-0600 (Central Standard Time),350276.60000002384,086_o_f_n_a.png,O,z,518,12,1,1542.300000011921,348734.3000000119,7069,NNB,B,11
12,test,5,0.0,1-Back,1,m,Fri Feb 28 2025 09:45:59 GMT-0600 (Central Standard Time),351941.10000002384,065_o_m_n_a.png,O,m,642,13,1,1659.9000000357628,350281.1999999881,7069,NNB,B,12
13,test,5,0.0,1-Back,1,m,Fri Feb 28 2025 09:45:59 GMT-0600 (Central Standard Time),353541.3000000119,097_m_f_n_a.png,O,m,582,14,1,1594.0,351947.3000000119,7069,NNB,B,13
13,test,5,1.0,1-Back,0,z,Fri Feb 28 2025 09:45:59 GMT-0600 (Central Standard Time),355140.0,097_m_f_n_a.png,O,m,566,15,1,1590.699999988079,353549.3000000119,7069,NNB,B,14
14,test,5,0.0,1-Back,1,m,Fri Feb 28 2025 09:45:59 GMT-0600 (Central Standard Time),356856.1999999881,065_o_m_n_a.png,O,m,695,16,1,1708.199999988079,355148.0,7069,NNB,B,15
15,test,5,0.0,1-Back,1,m,Fri Feb 28 2025 09:45:59 GMT-0600 (Central Standard Time),358506.40000003576,029_m_f_n_a.png,O,m,619,17,1,1642.9000000357628,356863.5,7069,NNB,B,16
16,test,5,0.0,1-Back,1,m,Fri Feb 28 2025 09:45:59 GMT-0600 (Central Standard Time),360205.40000003576,178_m_m_n_a.png,O,m,675,18,1,1692.2000000476837,358513.1999999881,7069,NNB,B,17
0,prac,1,0.0,2-Back,,,Fri Feb 28 2025 09:45:59 GMT-0600 (Central Standard Time),360205.40000003576,013_y_m_n_a.png,O,space,21537,1,1,1692.2000000476837,358513.1999999881,7069,NNB,B,0
0,prac,1,0.0,2-Back,,,Fri Feb 28 2025 09:45:59 GMT-0600 (Central Standard Time),360205.40000003576,029_m_f_n_a.png,O,space,21537,2,1,1692.2000000476837,358513.1999999881,7069,NNB,B,0
1,prac,1,1.0,2-Back,1,m,Fri Feb 28 2025 09:45:59 GMT-0600 (Central Standard Time),522687.0,065_o_m_n_a.png,O,m,1796,3,1,2655.399999976158,520031.60000002384,7069,NNB,B,1
2,prac,1,0.0,2-Back,1,m,Fri Feb 28 2025 09:45:59 GMT-0600 (Central Standard Time),524804.0,086_o_f_n_a.png,O,m,1237,4,1,2109.800000011921,522694.1999999881,7069,NNB,B,2
3,prac,1,0.0,2-Back,1,z,Fri Feb 28 2025 09:45:59 GMT-0600 (Central Standard Time),526703.6999999881,065_o_m_n_a.png,O,z,1128,5,1,1891.2999999523163,524812.4000000358,7069,NNB,B,3
4,prac,1,1.0,2-Back,1,z,Fri Feb 28 2025 09:45:59 GMT-0600 (Central Standard Time),528684.6000000238,086_o_f_n_a.png,O,z,1207,6,1,1973.300000011921,526711.3000000119,7069,NNB,B,4
5,prac,1,0.0,2-Back,1,m,Fri Feb 28 2025 09:45:59 GMT-0600 (Central Standard Time),530584.6999999881,178_m_m_n_a.png,O,m,1020,7,1,1892.5999999642372,528692.1000000238,7069,NNB,B,5
6,prac,1,0.0,2-Back,1,m,Fri Feb 28 2025 09:45:59 GMT-0600 (Central Standard Time),532951.6000000238,176_o_m_n_a.png,O,m,1491,8,1,2357.600000023842,530594.0,7069,NNB,B,6
7,prac,1,0.0,2-Back,1,m,Fri Feb 28 2025 09:45:59 GMT-0600 (Central Standard Time),534966.1000000238,173_y_f_n_a.png,O,m,1154,9,1,2006.300000011921,532959.8000000119,7069,NNB,B,7
8,prac,1,1.0,2-Back,1,z,Fri Feb 28 2025 09:45:59 GMT-0600 (Central Standard Time),536750.1999999881,176_o_m_n_a.png,O,z,1021,10,1,1774.0999999642372,534976.1000000238,7069,NNB,B,8
9,prac,1,0.0,2-Back,1,m,Fri Feb 28 2025 09:45:59 GMT-0600 (Central Standard Time),538748.1000000238,152_y_f_n_a.png,O,m,1140,11,1,1989.300000011921,536758.8000000119,7069,NNB,B,9
10,prac,1,0.0,2-Back,1,m,Fri Feb 28 2025 09:45:59 GMT-0600 (Central Standard Time),540664.8000000119,178_m_m_n_a.png,O,m,1136,12,1,1908.5,538756.3000000119,7069,NNB,B,10
0,test,1,0.0,2-Back,,,Fri Feb 28 2025 09:45:59 GMT-0600 (Central Standard Time),540664.8000000119,153_y_m_n_a.png,O,space,22827,1,1,1908.5,538756.3000000119,7069,NNB,B,0
0,test,1,0.0,2-Back,,,Fri Feb 28 2025 09:45:59 GMT-0600 (Central Standard Time),540664.8000000119,153_y_m_n_a.png,O,space,22827,2,1,1908.5,538756.3000000119,7069,NNB,B,0
0,test,1,0.0,2-Back,0,m,Fri Feb 28 2025 09:45:59 GMT-0600 (Central Standard Time),583818.8000000119,086_o_f_n_a.png,O,None,2016,3,1,3026.199999988079,580792.6000000238,7069,NNB,B,1
1,test,1,0.0,2-Back,1,m,Fri Feb 28 2025 09:45:59 GMT-0600 (Central Standard Time),586833.4000000358,126_m_m_n_a.png,O,m,1984,4,1,3008.2000000476837,583825.1999999881,7069,NNB,B,2
2,test,1,1.0,2-Back,1,z,Fri Feb 28 2025 09:45:59 GMT-0600 (Central Standard Time),589049.6999999881,086_o_f_n_a.png,O,z,1195,5,1,2209.199999988079,586840.5,7069,NNB,B,3
3,test,1,0.0,2-Back,1,m,Fri Feb 28 2025 09:45:59 GMT-0600 (Central Standard Time),591631.9000000358,152_y_f_n_a.png,O,m,1555,6,1,2575.600000023842,589056.3000000119,7069,NNB,B,4
4,test,1,0.0,2-Back,1,m,Fri Feb 28 2025 09:45:59 GMT-0600 (Central Standard Time),594365.6999999881,126_m_m_n_a.png,O,m,1701,7,1,2731.099999964237,591634.6000000238,7069,NNB,B,5
5,test,1,1.0,2-Back,1,z,Fri Feb 28 2025 09:45:59 GMT-0600 (Central Standard Time),596247.1000000238,152_y_f_n_a.png,O,z,856,8,1,1875.300000011921,594371.8000000119,7069,NNB,B,6
6,test,1,0.0,2-Back,1,m,Fri Feb 28 2025 09:45:59 GMT-0600 (Central Standard Time),598596.0,013_y_m_n_a.png,O,m,1326,9,1,2342.399999976158,596253.6000000238,7069,NNB,B,7
7,test,1,0.0,2-Back,1,m,Fri Feb 28 2025 09:45:59 GMT-0600 (Central Standard Time),600545.6000000238,110_o_f_n_a.png,O,m,918,10,1,1943.800000011921,598601.8000000119,7069,NNB,B,8
8,test,1,1.0,2-Back,1,z,Fri Feb 28 2025 09:45:59 GMT-0600 (Central Standard Time),602430.1999999881,013_y_m_n_a.png,O,z,866,11,1,1877.5999999642372,600552.6000000238,7069,NNB,B,9
9,test,1,0.0,2-Back,1,m,Fri Feb 28 2025 09:45:59 GMT-0600 (Central Standard Time),604593.5,029_m_f_n_a.png,O,m,1143,12,1,2156.800000011921,602436.6999999881,7069,NNB,B,10
10,test,1,0.0,2-Back,1,m,Fri Feb 28 2025 09:45:59 GMT-0600 (Central Standard Time),606693.8000000119,029_m_f_n_a.png,O,m,1074,13,1,2094.300000011921,604599.5,7069,NNB,B,11
11,test,1,0.0,2-Back,1,m,Fri Feb 28 2025 09:45:59 GMT-0600 (Central Standard Time),608694.0,065_o_m_n_a.png,O,m,968,14,1,1993.3999999761581,606700.6000000238,7069,NNB,B,12
12,test,1,0.0,2-Back,1,m,Fri Feb 28 2025 09:45:59 GMT-0600 (Central Standard Time),611041.1999999881,110_o_f_n_a.png,O,m,1317,15,1,2340.2999999523163,608700.9000000358,7069,NNB,B,13
13,test,1,1.0,2-Back,1,z,Fri Feb 28 2025 09:45:59 GMT-0600 (Central Standard Time),613008.1999999881,065_o_m_n_a.png,O,z,937,16,1,1959.8999999761581,611048.3000000119,7069,NNB,B,14
14,test,1,0.0,2-Back,1,m,Fri Feb 28 2025 09:45:59 GMT-0600 (Central Standard Time),614892.1000000238,097_m_f_n_a.png,O,m,860,17,1,1877.800000011921,613014.3000000119,7069,NNB,B,15
15,test,1,0.0,2-Back,1,m,Fri Feb 28 2025 09:45:59 GMT-0600 (Central Standard Time),616958.5,178_m_m_n_a.png,O,m,1048,18,1,2059.699999988079,614898.8000000119,7069,NNB,B,16
0,test,2,0.0,2-Back,,,Fri Feb 28 2025 09:45:59 GMT-0600 (Central Standard Time),616958.5,178_m_m_n_a.png,O,space,5966,1,1,2059.699999988079,614898.8000000119,7069,NNB,B,0
0,test,2,0.0,2-Back,,,Fri Feb 28 2025 09:45:59 GMT-0600 (Central Standard Time),616958.5,173_y_f_n_a.png,O,space,5966,2,1,2059.699999988079,614898.8000000119,7069,NNB,B,0
0,test,2,1.0,2-Back,0,z,Fri Feb 28 2025 09:45:59 GMT-0600 (Central Standard Time),629886.6000000238,178_m_m_n_a.png,O,m,790,3,1,1809.1000000238419,628077.5,7069,NNB,B,1
1,test,2,0.0,2-Back,1,m,Fri Feb 28 2025 09:45:59 GMT-0600 (Central Standard Time),631868.4000000358,097_m_f_n_a.png,O,m,956,4,1,1975.0,629893.4000000358,7069,NNB,B,2
2,test,2,0.0,2-Back,1,m,Fri Feb 28 2025 09:45:59 GMT-0600 (Central Standard Time),633767.8000000119,173_y_f_n_a.png,O,m,879,5,1,1893.199999988079,631874.6000000238,7069,NNB,B,3
3,test,2,0.0,2-Back,1,m,Fri Feb 28 2025 09:45:59 GMT-0600 (Central Standard Time),636667.6000000238,065_o_m_n_a.png,O,m,1866,6,1,2893.400000035763,633774.1999999881,7069,NNB,B,4
4,test,2,0.0,2-Back,1,m,Fri Feb 28 2025 09:45:59 GMT-0600 (Central Standard Time),639318.9000000358,152_y_f_n_a.png,O,m,1617,7,1,2644.7000000476837,636674.1999999881,7069,NNB,B,5
4,test,2,1.0,2-Back,0,z,Fri Feb 28 2025 09:45:59 GMT-0600 (Central Standard Time),641800.0,065_o_m_n_a.png,O,m,1453,8,1,2473.800000011921,639326.1999999881,7069,NNB,B,6
5,test,2,0.0,2-Back,1,m,Fri Feb 28 2025 09:45:59 GMT-0600 (Central Standard Time),643614.9000000358,013_y_m_n_a.png,O,m,798,9,1,1808.2000000476837,641806.6999999881,7069,NNB,B,7
6,test,2,0.0,2-Back,1,m,Fri Feb 28 2025 09:45:59 GMT-0600 (Central Standard Time),645548.0,013_y_m_n_a.png,O,m,901,10,1,1927.5,643620.5,7069,NNB,B,8
7,test,2,0.0,2-Back,1,m,Fri Feb 28 2025 09:45:59 GMT-0600 (Central Standard Time),647547.1999999881,029_m_f_n_a.png,O,m,965,11,1,1992.8999999761581,645554.3000000119,7069,NNB,B,9
8,test,2,0.0,2-Back,1,m,Fri Feb 28 2025 09:45:59 GMT-0600 (Central Standard Time),649415.8000000119,173_y_f_n_a.png,O,m,851,12,1,1862.300000011921,647553.5,7069,NNB,B,10
8,test,2,1.0,2-Back,0,z,Fri Feb 28 2025 09:45:59 GMT-0600 (Central Standard Time),651998.3000000119,029_m_f_n_a.png,O,m,1567,13,1,2575.899999976158,649422.4000000358,7069,NNB,B,11
9,test,2,0.0,2-Back,1,m,Fri Feb 28 2025 09:45:59 GMT-0600 (Central Standard Time),654112.9000000358,176_o_m_n_a.png,O,m,1082,14,1,2108.600000023842,652004.3000000119,7069,NNB,B,12
10,test,2,0.0,2-Back,1,m,Fri Feb 28 2025 09:45:59 GMT-0600 (Central Standard Time),655961.1000000238,176_o_m_n_a.png,O,m,820,15,1,1841.0,654120.1000000238,7069,NNB,B,13
11,test,2,0.0,2-Back,1,m,Fri Feb 28 2025 09:45:59 GMT-0600 (Central Standard Time),657928.4000000358,110_o_f_n_a.png,O,m,950,16,1,1960.0,655968.4000000358,7069,NNB,B,14
12,test,2,0.0,2-Back,1,m,Fri Feb 28 2025 09:45:59 GMT-0600 (Central Standard Time),660060.9000000358,126_m_m_n_a.png,O,m,1115,17,1,2125.2000000476837,657935.6999999881,7069,NNB,B,15
12,test,2,1.0,2-Back,0,z,Fri Feb 28 2025 09:45:59 GMT-0600 (Central Standard Time),662692.6999999881,110_o_f_n_a.png,O,m,1608,18,1,2625.099999964237,660067.6000000238,7069,NNB,B,16
0,test,3,1.0,2-Back,,,Fri Feb 28 2025 09:45:59 GMT-0600 (Central Standard Time),662692.6999999881,153_y_m_n_a.png,O,space,18552,1,1,2625.099999964237,660067.6000000238,7069,NNB,B,0
0,test,3,1.0,2-Back,,,Fri Feb 28 2025 09:45:59 GMT-0600 (Central Standard Time),662692.6999999881,153_y_m_n_a.png,O,space,18552,2,1,2625.099999964237,660067.6000000238,7069,NNB,B,0
1,test,3,0.0,2-Back,1,m,Fri Feb 28 2025 09:45:59 GMT-0600 (Central Standard Time),688201.8000000119,110_o_f_n_a.png,O,m,795,3,1,1810.0,686391.8000000119,7069,NNB,B,1
2,test,3,0.0,2-Back,1,m,Fri Feb 28 2025 09:45:59 GMT-0600 (Central Standard Time),690184.5,178_m_m_n_a.png,O,m,955,4,1,1975.5,688209.0,7069,NNB,B,2
3,test,3,1.0,2-Back,1,z,Fri Feb 28 2025 09:45:59 GMT-0600 (Central Standard Time),692201.0,110_o_f_n_a.png,O,z,987,5,1,2009.3999999761581,690191.6000000238,7069,NNB,B,3
4,test,3,0.0,2-Back,1,m,Fri Feb 28 2025 09:45:59 GMT-0600 (Central Standard Time),694218.0,013_y_m_n_a.png,O,m,993,6,1,2008.300000011921,692209.6999999881,7069,NNB,B,4
4,test,3,0.0,2-Back,0,m,Fri Feb 28 2025 09:45:59 GMT-0600 (Central Standard Time),696800.0,178_m_m_n_a.png,O,z,1555,7,1,2578.199999988079,694221.8000000119,7069,NNB,B,5
5,test,3,1.0,2-Back,1,z,Fri Feb 28 2025 09:45:59 GMT-0600 (Central Standard Time),699015.3000000119,013_y_m_n_a.png,O,z,1190,8,1,2207.699999988079,696807.6000000238,7069,NNB,B,6
6,test,3,0.0,2-Back,1,m,Fri Feb 28 2025 09:45:59 GMT-0600 (Central Standard Time),700949.5,173_y_f_n_a.png,O,m,917,9,1,1926.199999988079,699023.3000000119,7069,NNB,B,7
7,test,3,0.0,2-Back,1,m,Fri Feb 28 2025 09:45:59 GMT-0600 (Central Standard Time),702880.6000000238,126_m_m_n_a.png,O,m,905,10,1,1923.300000011921,700957.3000000119,7069,NNB,B,8
8,test,3,1.0,2-Back,1,z,Fri Feb 28 2025 09:45:59 GMT-0600 (Central Standard Time),704679.0,173_y_f_n_a.png,O,z,781,11,1,1789.5,702889.5,7069,NNB,B,9
9,test,3,1.0,2-Back,1,z,Fri Feb 28 2025 09:45:59 GMT-0600 (Central Standard Time),706647.1000000238,126_m_m_n_a.png,O,z,948,12,1,1959.9000000357628,704687.1999999881,7069,NNB,B,10
10,test,3,0.0,2-Back,1,m,Fri Feb 28 2025 09:45:59 GMT-0600 (Central Standard Time),708629.5,110_o_f_n_a.png,O,m,952,13,1,1974.699999988079,706654.8000000119,7069,NNB,B,11
11,test,3,0.0,2-Back,1,m,Fri Feb 28 2025 09:45:59 GMT-0600 (Central Standard Time),710461.6000000238,097_m_f_n_a.png,O,m,800,14,1,1824.4000000357628,708637.1999999881,7069,NNB,B,12
12,test,3,0.0,2-Back,1,m,Fri Feb 28 2025 09:45:59 GMT-0600 (Central Standard Time),712393.5,065_o_m_n_a.png,O,m,912,15,1,1924.8999999761581,710468.6000000238,7069,NNB,B,13
13,test,3,1.0,2-Back,1,z,Fri Feb 28 2025 09:45:59 GMT-0600 (Central Standard Time),714210.1000000238,097_m_f_n_a.png,O,z,786,16,1,1810.5,712399.6000000238,7069,NNB,B,14
14,test,3,0.0,2-Back,1,m,Fri Feb 28 2025 09:45:59 GMT-0600 (Central Standard Time),716392.1999999881,086_o_f_n_a.png,O,m,1153,17,1,2175.2999999523163,714216.9000000358,7069,NNB,B,15
15,test,3,0.0,2-Back,1,m,Fri Feb 28 2025 09:45:59 GMT-0600 (Central Standard Time),718423.8000000119,086_o_f_n_a.png,O,m,1011,18,1,2024.6000000238419,716399.1999999881,7069,NNB,B,16
0,test,4,0.0,2-Back,,,Fri Feb 28 2025 09:45:59 GMT-0600 (Central Standard Time),718423.8000000119,176_o_m_n_a.png,O,space,6125,1,1,2024.6000000238419,716399.1999999881,7069,NNB,B,0
0,test,4,0.0,2-Back,,,Fri Feb 28 2025 09:45:59 GMT-0600 (Central Standard Time),718423.8000000119,152_y_f_n_a.png,O,space,6125,2,1,2024.6000000238419,716399.1999999881,7069,NNB,B,0
1,test,4,1.0,2-Back,1,z,Fri Feb 28 2025 09:45:59 GMT-0600 (Central Standard Time),732138.9000000358,176_o_m_n_a.png,O,z,1353,3,1,2376.5,729762.4000000358,7069,NNB,B,1
1,test,4,1.0,2-Back,0,z,Fri Feb 28 2025 09:45:59 GMT-0600 (Central Standard Time),734204.8000000119,152_y_f_n_a.png,O,m,1033,4,1,2058.600000023842,732146.1999999881,7069,NNB,B,2
2,test,4,0.0,2-Back,1,m,Fri Feb 28 2025 09:45:59 GMT-0600 (Central Standard Time),736120.4000000358,110_o_f_n_a.png,O,m,900,5,1,1908.7000000476837,734211.6999999881,7069,NNB,B,3
2,test,4,0.0,2-Back,0,m,Fri Feb 28 2025 09:45:59 GMT-0600 (Central Standard Time),738169.0,110_o_f_n_a.png,O,z,1021,6,1,2042.5,736126.5,7069,NNB,B,4
3,test,4,0.0,2-Back,1,m,Fri Feb 28 2025 09:45:59 GMT-0600 (Central Standard Time),739916.5,029_m_f_n_a.png,O,m,723,7,1,1740.5,738176.0,7069,NNB,B,5
4,test,4,0.0,2-Back,1,m,Fri Feb 28 2025 09:45:59 GMT-0600 (Central Standard Time),741718.6000000238,013_y_m_n_a.png,O,m,785,8,1,1799.6000000238419,739919.0,7069,NNB,B,6
5,test,4,1.0,2-Back,1,z,Fri Feb 28 2025 09:45:59 GMT-0600 (Central Standard Time),743483.6000000238,029_m_f_n_a.png,O,z,741,9,1,1759.0,741724.6000000238,7069,NNB,B,7
6,test,4,0.0,2-Back,1,m,Fri Feb 28 2025 09:45:59 GMT-0600 (Central Standard Time),745200.5,126_m_m_n_a.png,O,m,682,10,1,1709.800000011921,743490.6999999881,7069,NNB,B,8
7,test,4,0.0,2-Back,1,m,Fri Feb 28 2025 09:45:59 GMT-0600 (Central Standard Time),746965.6000000238,013_y_m_n_a.png,O,m,741,11,1,1758.300000011921,745207.3000000119,7069,NNB,B,9
8,test,4,0.0,2-Back,1,m,Fri Feb 28 2025 09:45:59 GMT-0600 (Central Standard Time),748984.6000000238,086_o_f_n_a.png,O,m,1000,12,1,2012.6000000238419,746972.0,7069,NNB,B,10
9,test,4,0.0,2-Back,1,m,Fri Feb 28 2025 09:45:59 GMT-0600 (Central Standard Time),750832.0,153_y_m_n_a.png,O,m,832,13,1,1841.0,748991.0,7069,NNB,B,11
10,test,4,1.0,2-Back,1,z,Fri Feb 28 2025 09:45:59 GMT-0600 (Central Standard Time),752514.6999999881,086_o_f_n_a.png,O,z,652,14,1,1675.7999999523163,750838.9000000358,7069,NNB,B,12
11,test,4,1.0,2-Back,1,z,Fri Feb 28 2025 09:45:59 GMT-0600 (Central Standard Time),754347.1000000238,153_y_m_n_a.png,O,z,810,15,1,1825.6000000238419,752521.5,7069,NNB,B,13
12,test,4,0.0,2-Back,1,m,Fri Feb 28 2025 09:45:59 GMT-0600 (Central Standard Time),756028.5,178_m_m_n_a.png,O,m,656,16,1,1675.5999999642372,754352.9000000358,7069,NNB,B,14
13,test,4,0.0,2-Back,1,m,Fri Feb 28 2025 09:45:59 GMT-0600 (Central Standard Time),757845.6999999881,097_m_f_n_a.png,O,m,791,17,1,1810.8999999761581,756034.8000000119,7069,NNB,B,15
13,test,4,1.0,2-Back,0,z,Fri Feb 28 2025 09:45:59 GMT-0600 (Central Standard Time),760229.9000000358,178_m_m_n_a.png,O,m,1350,18,1,2376.800000011921,757853.1000000238,7069,NNB,B,16
0,test,5,1.0,2-Back,,,Fri Feb 28 2025 09:45:59 GMT-0600 (Central Standard Time),760229.9000000358,153_y_m_n_a.png,O,space,4573,1,1,2376.800000011921,757853.1000000238,7069,NNB,B,0
0,test,5,1.0,2-Back,,,Fri Feb 28 2025 09:45:59 GMT-0600 (Central Standard Time),760229.9000000358,097_m_f_n_a.png,O,space,4573,2,1,2376.800000011921,757853.1000000238,7069,NNB,B,0
1,test,5,1.0,2-Back,1,z,Fri Feb 28 2025 09:45:59 GMT-0600 (Central Standard Time),771474.9000000358,153_y_m_n_a.png,O,z,585,3,1,1609.9000000357628,769865.0,7069,NNB,B,1
2,test,5,1.0,2-Back,1,z,Fri Feb 28 2025 09:45:59 GMT-0600 (Central Standard Time),773024.4000000358,097_m_f_n_a.png,O,z,521,4,1,1543.800000011921,771480.6000000238,7069,NNB,B,2
3,test,5,0.0,2-Back,1,m,Fri Feb 28 2025 09:45:59 GMT-0600 (Central Standard Time),774976.1000000238,086_o_f_n_a.png,O,m,935,5,1,1944.1000000238419,773032.0,7069,NNB,B,3
4,test,5,0.0,2-Back,1,m,Fri Feb 28 2025 09:45:59 GMT-0600 (Central Standard Time),776955.8000000119,153_y_m_n_a.png,O,m,949,6,1,1973.300000011921,774982.5,7069,NNB,B,4
5,test,5,0.0,2-Back,1,m,Fri Feb 28 2025 09:45:59 GMT-0600 (Central Standard Time),778723.1000000238,173_y_f_n_a.png,O,m,734,7,1,1760.6000000238419,776962.5,7069,NNB,B,5
6,test,5,0.0,2-Back,1,m,Fri Feb 28 2025 09:45:59 GMT-0600 (Central Standard Time),780538.6000000238,086_o_f_n_a.png,O,m,785,8,1,1808.6000000238419,778730.0,7069,NNB,B,6
7,test,5,1.0,2-Back,1,z,Fri Feb 28 2025 09:45:59 GMT-0600 (Central Standard Time),782621.4000000358,173_y_f_n_a.png,O,z,1057,9,1,2076.7000000476837,780544.6999999881,7069,NNB,B,7
8,test,5,0.0,2-Back,1,m,Fri Feb 28 2025 09:45:59 GMT-0600 (Central Standard Time),784503.1999999881,065_o_m_n_a.png,O,m,855,10,1,1874.699999988079,782628.5,7069,NNB,B,8
9,test,5,0.0,2-Back,1,m,Fri Feb 28 2025 09:45:59 GMT-0600 (Central Standard Time),786420.3000000119,029_m_f_n_a.png,O,m,893,11,1,1910.699999988079,784509.6000000238,7069,NNB,B,9
10,test,5,0.0,2-Back,1,m,Fri Feb 28 2025 09:45:59 GMT-0600 (Central Standard Time),788152.9000000358,126_m_m_n_a.png,O,m,710,12,1,1724.800000011921,786428.1000000238,7069,NNB,B,10
11,test,5,0.0,2-Back,1,m,Fri Feb 28 2025 09:45:59 GMT-0600 (Central Standard Time),789953.5,065_o_m_n_a.png,O,m,784,13,1,1794.199999988079,788159.3000000119,7069,NNB,B,11
11,test,5,1.0,2-Back,0,z,Fri Feb 28 2025 09:45:59 GMT-0600 (Central Standard Time),792701.1000000238,126_m_m_n_a.png,O,m,1716,14,1,2741.300000011921,789959.8000000119,7069,NNB,B,12
12,test,5,0.0,2-Back,1,m,Fri Feb 28 2025 09:45:59 GMT-0600 (Central Standard Time),794651.6000000238,152_y_f_n_a.png,O,m,928,15,1,1943.699999988079,792707.9000000358,7069,NNB,B,13
13,test,5,0.0,2-Back,1,m,Fri Feb 28 2025 09:45:59 GMT-0600 (Central Standard Time),796500.1999999881,176_o_m_n_a.png,O,m,826,16,1,1841.7999999523163,794658.4000000358,7069,NNB,B,14
14,test,5,0.0,2-Back,1,m,Fri Feb 28 2025 09:45:59 GMT-0600 (Central Standard Time),798167.3000000119,029_m_f_n_a.png,O,m,651,17,1,1660.1000000238419,796507.1999999881,7069,NNB,B,15
15,test,5,1.0,2-Back,1,z,Fri Feb 28 2025 09:45:59 GMT-0600 (Central Standard Time),799800.3000000119,176_o_m_n_a.png,O,z,616,18,1,1625.8999999761581,798174.4000000358,7069,NNB,B,16
