block_c,block_dur,condition,countdown,datetime,endtime,list,multichar_response,project,response,response_time,session_number,start_end,starttime,subject_id,task,task_vers,trial
,,,,Fri Mar 28 2025 16:29:10 GMT-0500 (Central Daylight Time),,,,I,space,523,1,,,8034,WL,A,
prac,,0,,Fri Mar 28 2025 16:29:10 GMT-0500 (Central Daylight Time),,NA,b,I,b,9990,1,,,8034,WL,A,1.0
prac,,0,,Fri Mar 28 2025 16:29:10 GMT-0500 (Central Daylight Time),,NA,bo,I,o,387,1,,,8034,WL,A,1.0
prac,,0,,Fri Mar 28 2025 16:29:10 GMT-0500 (Central Daylight Time),,NA,boo,I,o,157,1,,,8034,WL,A,1.0
prac,,0,,Fri Mar 28 2025 16:29:10 GMT-0500 (Central Daylight Time),,NA,boos,I,s,102,1,,,8034,WL,A,1.0
prac,,0,,Fri Mar 28 2025 16:29:10 GMT-0500 (Central Daylight Time),,NA,boost,I,t,138,1,,,8034,WL,A,1.0
prac,,0,,Fri Mar 28 2025 16:29:10 GMT-0500 (Central Daylight Time),,NA,boostenter,I,enter,2028,1,,,8034,WL,A,1.0
1,1.565999984741211,learn,58434.00001525879,Fri Mar 28 2025 16:29:10 GMT-0500 (Central Daylight Time),157940.0,A,b,I,b,1551,1,1566.0,156374.0,8034,WL,A,1.0
1,1.9660000801086426,learn,58033.99991989136,Fri Mar 28 2025 16:29:10 GMT-0500 (Central Daylight Time),158339.8999999985,A,bo,I,o,392,1,1965.8999999985099,156374.0,8034,WL,A,1.0
1,2.133000135421753,learn,57866.99986457825,Fri Mar 28 2025 16:29:10 GMT-0500 (Central Daylight Time),158506.30000000447,A,boo,I,o,144,1,2132.3000000044703,156374.0,8034,WL,A,1.0
1,2.315999984741211,learn,57684.00001525879,Fri Mar 28 2025 16:29:10 GMT-0500 (Central Daylight Time),158689.70000000298,A,book,I,k,170,1,2315.7000000029802,156374.0,8034,WL,A,1.0
1,3.749000072479248,learn,56250.99992752075,Fri Mar 28 2025 16:29:10 GMT-0500 (Central Daylight Time),160122.6000000015,A,bookm,I,m,1419,1,3748.60000000149,156374.0,8034,WL,A,1.0
1,4.482000112533569,learn,55517.99988746643,Fri Mar 28 2025 16:29:10 GMT-0500 (Central Daylight Time),160855.5,A,book,I,backspace,714,1,4481.5,156374.0,8034,WL,A,1.0
1,5.565000057220459,learn,54434.99994277954,Fri Mar 28 2025 16:29:10 GMT-0500 (Central Daylight Time),161938.5,A,boo,I,backspace,1077,1,5564.5,156374.0,8034,WL,A,1.0
1,6.398000001907349,learn,53601.99999809265,Fri Mar 28 2025 16:29:10 GMT-0500 (Central Daylight Time),162771.6000000015,A,book,I,k,826,1,6397.60000000149,156374.0,8034,WL,A,1.0
1,7.230999946594238,learn,52769.00005340576,Fri Mar 28 2025 16:29:10 GMT-0500 (Central Daylight Time),163604.70000000298,A,bookenter,I,enter,825,1,7230.70000000298,156374.0,8034,WL,A,1.0
1,8.564000129699707,learn,51435.99987030029,Fri Mar 28 2025 16:29:10 GMT-0500 (Central Daylight Time),164937.70000000298,A,m,I,m,1312,1,1332.3999999985099,163605.30000000447,8034,WL,A,2.0
1,8.746999979019165,learn,51253.000020980835,Fri Mar 28 2025 16:29:10 GMT-0500 (Central Daylight Time),165120.8999999985,A,me,I,e,161,1,1515.5999999940395,163605.30000000447,8034,WL,A,2.0
1,9.04699993133545,learn,50953.00006866455,Fri Mar 28 2025 16:29:10 GMT-0500 (Central Daylight Time),165420.8999999985,A,med,I,d,284,1,1815.5999999940395,163605.30000000447,8034,WL,A,2.0
1,9.614000082015991,learn,50385.99991798401,Fri Mar 28 2025 16:29:10 GMT-0500 (Central Daylight Time),165987.3999999985,A,medo,I,o,552,1,2382.0999999940395,163605.30000000447,8034,WL,A,2.0
1,9.71399998664856,learn,50286.00001335144,Fri Mar 28 2025 16:29:10 GMT-0500 (Central Daylight Time),166087.20000000298,A,medow,I,w,81,1,2481.89999999851,163605.30000000447,8034,WL,A,2.0
1,10.463000059127808,learn,49536.99994087219,Fri Mar 28 2025 16:29:10 GMT-0500 (Central Daylight Time),166836.8999999985,A,medowenter,I,enter,742,1,3231.5999999940395,163605.30000000447,8034,WL,A,2.0
1,11.04699993133545,learn,48953.00006866455,Fri Mar 28 2025 16:29:10 GMT-0500 (Central Daylight Time),167420.20000000298,A,f,I,f,576,1,582.8999999985099,166837.30000000447,8034,WL,A,3.0
1,11.196000099182129,learn,48803.99990081787,Fri Mar 28 2025 16:29:10 GMT-0500 (Central Daylight Time),167570.0,A,fl,I,l,137,1,732.6999999955297,166837.30000000447,8034,WL,A,3.0
1,11.395999908447266,learn,48604.000091552734,Fri Mar 28 2025 16:29:10 GMT-0500 (Central Daylight Time),167770.1000000015,A,flo,I,o,179,1,932.7999999970198,166837.30000000447,8034,WL,A,3.0
1,11.845999956130981,learn,48154.00004386902,Fri Mar 28 2025 16:29:10 GMT-0500 (Central Daylight Time),168219.8999999985,A,flow,I,w,443,1,1382.5999999940395,166837.30000000447,8034,WL,A,3.0
1,12.11299991607666,learn,47887.00008392334,Fri Mar 28 2025 16:29:10 GMT-0500 (Central Daylight Time),168486.5,A,flowe,I,e,249,1,1649.1999999955297,166837.30000000447,8034,WL,A,3.0
1,12.345999956130981,learn,47654.00004386902,Fri Mar 28 2025 16:29:10 GMT-0500 (Central Daylight Time),168719.6000000015,A,flower,I,r,214,1,1882.2999999970198,166837.30000000447,8034,WL,A,3.0
1,12.696000099182129,learn,47303.99990081787,Fri Mar 28 2025 16:29:10 GMT-0500 (Central Daylight Time),169069.6000000015,A,flowerenter,I,enter,333,1,2232.2999999970198,166837.30000000447,8034,WL,A,3.0
1,13.17900013923645,learn,46820.99986076355,Fri Mar 28 2025 16:29:10 GMT-0500 (Central Daylight Time),169552.80000000447,A,t,I,t,463,1,482.80000000447035,169070.0,8034,WL,A,4.0
1,13.279000043869019,learn,46720.99995613098,Fri Mar 28 2025 16:29:10 GMT-0500 (Central Daylight Time),169652.80000000447,A,tr,I,r,92,1,582.8000000044703,169070.0,8034,WL,A,4.0
1,13.378999948501587,learn,46621.00005149841,Fri Mar 28 2025 16:29:10 GMT-0500 (Central Daylight Time),169752.80000000447,A,tra,I,a,88,1,682.8000000044703,169070.0,8034,WL,A,4.0
1,13.51200008392334,learn,46487.99991607666,Fri Mar 28 2025 16:29:10 GMT-0500 (Central Daylight Time),169886.0,A,trai,I,i,124,1,816.0,169070.0,8034,WL,A,4.0
1,13.894999980926514,learn,46105.000019073486,Fri Mar 28 2025 16:29:10 GMT-0500 (Central Daylight Time),170269.20000000298,A,train,I,n,367,1,1199.2000000029802,169070.0,8034,WL,A,4.0
1,14.605000019073486,learn,45394.999980926514,Fri Mar 28 2025 16:29:10 GMT-0500 (Central Daylight Time),170979.1000000015,A,trainenter,I,enter,705,1,1909.1000000014901,169070.0,8034,WL,A,4.0
1,15.062000036239624,learn,44937.999963760376,Fri Mar 28 2025 16:29:10 GMT-0500 (Central Daylight Time),171435.70000000298,A,r,I,r,449,1,456.30000000447035,170979.3999999985,8034,WL,A,5.0
1,15.194999933242798,learn,44805.0000667572,Fri Mar 28 2025 16:29:10 GMT-0500 (Central Daylight Time),171568.70000000298,A,ru,I,u,112,1,589.3000000044703,170979.3999999985,8034,WL,A,5.0
1,15.361999988555908,learn,44638.00001144409,Fri Mar 28 2025 16:29:10 GMT-0500 (Central Daylight Time),171735.30000000447,A,rug,I,g,147,1,755.9000000059605,170979.3999999985,8034,WL,A,5.0
1,15.644999980926514,learn,44355.000019073486,Fri Mar 28 2025 16:29:10 GMT-0500 (Central Daylight Time),172018.30000000447,A,rugenter,I,enter,277,1,1038.9000000059605,170979.3999999985,8034,WL,A,5.0
1,15.995000123977661,learn,44004.99987602234,Fri Mar 28 2025 16:29:10 GMT-0500 (Central Daylight Time),172368.5,A,c,I,c,338,1,349.8999999985099,172018.6000000015,8034,WL,A,6.0
1,16.144999980926514,learn,43855.000019073486,Fri Mar 28 2025 16:29:10 GMT-0500 (Central Daylight Time),172518.6000000015,A,ch,I,h,132,1,500.0,172018.6000000015,8034,WL,A,6.0
1,16.227999925613403,learn,43772.0000743866,Fri Mar 28 2025 16:29:10 GMT-0500 (Central Daylight Time),172602.0,A,chi,I,i,77,1,583.3999999985099,172018.6000000015,8034,WL,A,6.0
1,16.84500002861023,learn,43154.99997138977,Fri Mar 28 2025 16:29:10 GMT-0500 (Central Daylight Time),173218.30000000447,A,chim,I,m,603,1,1199.7000000029802,172018.6000000015,8034,WL,A,6.0
1,16.99399995803833,learn,43006.00004196167,Fri Mar 28 2025 16:29:10 GMT-0500 (Central Daylight Time),173367.8999999985,A,chimm,I,m,131,1,1349.2999999970198,172018.6000000015,8034,WL,A,6.0
1,17.128000020980835,learn,42871.999979019165,Fri Mar 28 2025 16:29:10 GMT-0500 (Central Daylight Time),173501.20000000298,A,chimme,I,e,115,1,1482.6000000014901,172018.6000000015,8034,WL,A,6.0
1,17.24500012397766,learn,42754.99987602234,Fri Mar 28 2025 16:29:10 GMT-0500 (Central Daylight Time),173618.20000000298,A,chimmen,I,n,104,1,1599.6000000014901,172018.6000000015,8034,WL,A,6.0
1,18.17799997329712,learn,41822.00002670288,Fri Mar 28 2025 16:29:10 GMT-0500 (Central Daylight Time),174551.5,A,chimmeny,I,y,923,1,2532.89999999851,172018.6000000015,8034,WL,A,6.0
1,18.49399995803833,learn,41506.00004196167,Fri Mar 28 2025 16:29:10 GMT-0500 (Central Daylight Time),174867.8999999985,A,chimmenyenter,I,enter,301,1,2849.2999999970198,172018.6000000015,8034,WL,A,6.0
1,19.776999950408936,learn,40223.000049591064,Fri Mar 28 2025 16:29:10 GMT-0500 (Central Daylight Time),176150.70000000298,A,r,I,r,1265,1,1282.3999999985099,174868.30000000447,8034,WL,A,7.0
1,20.009999990463257,learn,39990.00000953674,Fri Mar 28 2025 16:29:10 GMT-0500 (Central Daylight Time),176384.20000000298,A,rr,I,r,222,1,1515.8999999985099,174868.30000000447,8034,WL,A,7.0
1,20.47699999809265,learn,39523.00000190735,Fri Mar 28 2025 16:29:10 GMT-0500 (Central Daylight Time),176850.6000000015,A,r,I,backspace,445,1,1982.2999999970198,174868.30000000447,8034,WL,A,7.0
1,20.526999950408936,learn,39473.000049591064,Fri Mar 28 2025 16:29:10 GMT-0500 (Central Daylight Time),176900.5,A,ra,I,a,43,1,2032.1999999955297,174868.30000000447,8034,WL,A,7.0
1,20.677000045776367,learn,39322.99995422363,Fri Mar 28 2025 16:29:10 GMT-0500 (Central Daylight Time),177050.3999999985,A,rat,I,t,129,1,2182.0999999940395,174868.30000000447,8034,WL,A,7.0
1,20.776999950408936,learn,39223.000049591064,Fri Mar 28 2025 16:29:10 GMT-0500 (Central Daylight Time),177150.5,A,ratt,I,t,91,1,2282.1999999955297,174868.30000000447,8034,WL,A,7.0
1,20.960000038146973,learn,39039.99996185303,Fri Mar 28 2025 16:29:10 GMT-0500 (Central Daylight Time),177333.70000000298,A,rattl,I,l,175,1,2465.39999999851,174868.30000000447,8034,WL,A,7.0
1,21.092999935150146,learn,38907.00006484985,Fri Mar 28 2025 16:29:10 GMT-0500 (Central Daylight Time),177466.70000000298,A,rattle,I,e,128,1,2598.39999999851,174868.30000000447,8034,WL,A,7.0
1,21.41000008583069,learn,38589.99991416931,Fri Mar 28 2025 16:29:10 GMT-0500 (Central Daylight Time),177783.70000000298,A,rattleenter,I,enter,299,1,2915.39999999851,174868.30000000447,8034,WL,A,7.0
1,22.14300012588501,learn,37856.99987411499,Fri Mar 28 2025 16:29:10 GMT-0500 (Central Daylight Time),178516.70000000298,A,g,I,g,726,1,732.6000000014901,177784.1000000015,8034,WL,A,8.0
1,22.276000022888184,learn,37723.99997711182,Fri Mar 28 2025 16:29:10 GMT-0500 (Central Daylight Time),178649.80000000447,A,go,I,o,120,1,865.7000000029802,177784.1000000015,8034,WL,A,8.0
1,22.426000118255615,learn,37573.999881744385,Fri Mar 28 2025 16:29:10 GMT-0500 (Central Daylight Time),178800.20000000298,A,gol,I,l,140,1,1016.1000000014901,177784.1000000015,8034,WL,A,8.0
1,22.493000030517578,learn,37506.99996948242,Fri Mar 28 2025 16:29:10 GMT-0500 (Central Daylight Time),178866.5,A,gold,I,d,53,1,1082.3999999985099,177784.1000000015,8034,WL,A,8.0
1,22.875999927520752,learn,37124.00007247925,Fri Mar 28 2025 16:29:10 GMT-0500 (Central Daylight Time),179250.0,A,goldenter,I,enter,363,1,1465.8999999985099,177784.1000000015,8034,WL,A,8.0
1,27.5239999294281,learn,32476.0000705719,Fri Mar 28 2025 16:29:10 GMT-0500 (Central Daylight Time),183898.20000000298,A,f,I,f,4635,1,4647.80000000447,179250.3999999985,8034,WL,A,9.0
1,27.95799994468689,learn,32042.00005531311,Fri Mar 28 2025 16:29:10 GMT-0500 (Central Daylight Time),184331.6000000015,A,fl,I,l,419,1,5081.20000000298,179250.3999999985,8034,WL,A,9.0
1,28.240999937057495,learn,31759.000062942505,Fri Mar 28 2025 16:29:10 GMT-0500 (Central Daylight Time),184614.70000000298,A,flo,I,o,266,1,5364.30000000447,179250.3999999985,8034,WL,A,9.0
1,28.35800004005432,learn,31641.99995994568,Fri Mar 28 2025 16:29:10 GMT-0500 (Central Daylight Time),184731.3999999985,A,flow,I,w,111,1,5481.0,179250.3999999985,8034,WL,A,9.0
1,28.490999937057495,learn,31509.000062942505,Fri Mar 28 2025 16:29:10 GMT-0500 (Central Daylight Time),184864.6000000015,A,flowe,I,e,122,1,5614.20000000298,179250.3999999985,8034,WL,A,9.0
1,28.574000120162964,learn,31425.999879837036,Fri Mar 28 2025 16:29:10 GMT-0500 (Central Daylight Time),184948.1000000015,A,flower,I,r,69,1,5697.70000000298,179250.3999999985,8034,WL,A,9.0
1,28.824000120162964,learn,31175.999879837036,Fri Mar 28 2025 16:29:10 GMT-0500 (Central Daylight Time),185197.8999999985,A,flowerenter,I,enter,241,1,5947.5,179250.3999999985,8034,WL,A,9.0
1,35.17199993133545,learn,24828.00006866455,Fri Mar 28 2025 16:29:10 GMT-0500 (Central Daylight Time),191545.70000000298,A,t,I,t,6328,1,6347.5,185198.20000000298,8034,WL,A,10.0
1,35.388999938964844,learn,24611.000061035156,Fri Mar 28 2025 16:29:10 GMT-0500 (Central Daylight Time),191762.6000000015,A,tr,I,r,203,1,6564.39999999851,185198.20000000298,8034,WL,A,10.0
1,35.5220000743866,learn,24477.999925613403,Fri Mar 28 2025 16:29:10 GMT-0500 (Central Daylight Time),191895.8999999985,A,tra,I,a,123,1,6697.69999999553,185198.20000000298,8034,WL,A,10.0
1,35.6560001373291,learn,24343.9998626709,Fri Mar 28 2025 16:29:10 GMT-0500 (Central Daylight Time),192030.20000000298,A,trai,I,i,126,1,6832.0,185198.20000000298,8034,WL,A,10.0
1,35.855000019073486,learn,24144.999980926514,Fri Mar 28 2025 16:29:10 GMT-0500 (Central Daylight Time),192228.8999999985,A,train,I,n,182,1,7030.69999999553,185198.20000000298,8034,WL,A,10.0
1,36.187999963760376,learn,23812.000036239624,Fri Mar 28 2025 16:29:10 GMT-0500 (Central Daylight Time),192562.20000000298,A,trainenter,I,enter,321,1,7364.0,185198.20000000298,8034,WL,A,10.0
1,47.85199999809265,learn,12148.000001907349,Fri Mar 28 2025 16:29:10 GMT-0500 (Central Daylight Time),204225.30000000447,A,h,I,h,11651,1,11662.70000000298,192562.6000000015,8034,WL,A,11.0
1,48.08500003814697,learn,11914.999961853027,Fri Mar 28 2025 16:29:10 GMT-0500 (Central Daylight Time),204458.3999999985,A,ho,I,o,227,1,11895.79999999702,192562.6000000015,8034,WL,A,11.0
1,48.151999950408936,learn,11848.000049591064,Fri Mar 28 2025 16:29:10 GMT-0500 (Central Daylight Time),204525.30000000447,A,hou,I,u,51,1,11962.70000000298,192562.6000000015,8034,WL,A,11.0
1,48.35199999809265,learn,11648.000001907349,Fri Mar 28 2025 16:29:10 GMT-0500 (Central Daylight Time),204725.3999999985,A,hous,I,s,184,1,12162.79999999702,192562.6000000015,8034,WL,A,11.0
1,48.401000022888184,learn,11598.999977111816,Fri Mar 28 2025 16:29:10 GMT-0500 (Central Daylight Time),204775.0,A,house,I,e,39,1,12212.39999999851,192562.6000000015,8034,WL,A,11.0
1,48.735000133514404,learn,11264.999866485596,Fri Mar 28 2025 16:29:10 GMT-0500 (Central Daylight Time),205108.3999999985,A,houseenter,I,enter,317,1,12545.79999999702,192562.6000000015,8034,WL,A,11.0
1,58.39800000190735,learn,1601.9999980926514,Fri Mar 28 2025 16:29:10 GMT-0500 (Central Daylight Time),214772.0,A,f,I,f,9649,1,9663.29999999702,205108.70000000298,8034,WL,A,12.0
1,58.74799990653992,learn,1252.000093460083,Fri Mar 28 2025 16:29:10 GMT-0500 (Central Daylight Time),215122.0,A,fi,I,i,345,1,10013.29999999702,205108.70000000298,8034,WL,A,12.0
1,58.96399998664856,learn,1036.0000133514404,Fri Mar 28 2025 16:29:10 GMT-0500 (Central Daylight Time),215338.30000000447,A,fin,I,n,196,1,10229.60000000149,205108.70000000298,8034,WL,A,12.0
1,59.29800009727478,learn,701.9999027252197,Fri Mar 28 2025 16:29:10 GMT-0500 (Central Daylight Time),215671.6000000015,A,fint,I,t,322,1,10562.89999999851,205108.70000000298,8034,WL,A,12.0
1,59.56400012969971,learn,435.99987030029297,Fri Mar 28 2025 16:29:10 GMT-0500 (Central Daylight Time),215938.20000000298,A,finte,I,e,262,1,10829.5,205108.70000000298,8034,WL,A,12.0
1,59.64800000190735,learn,351.99999809265137,Fri Mar 28 2025 16:29:10 GMT-0500 (Central Daylight Time),216021.8999999985,A,finter,I,r,75,1,10913.19999999553,205108.70000000298,8034,WL,A,12.0
1,60.013999938964844,learn,-13.99993896484375,Fri Mar 28 2025 16:29:10 GMT-0500 (Central Daylight Time),216388.20000000298,A,finterNone,I,None,361,1,11279.5,205108.70000000298,8034,WL,A,12.0
2,5.463000059127808,learn,54536.99994087219,Fri Mar 28 2025 16:29:10 GMT-0500 (Central Daylight Time),296429.5,A,b,I,b,5457,1,5464.5,290965.0,8034,WL,A,1.0
2,5.7799999713897705,learn,54220.00002861023,Fri Mar 28 2025 16:29:10 GMT-0500 (Central Daylight Time),296746.200000003,A,bo,I,o,295,1,5781.20000000298,290965.0,8034,WL,A,1.0
2,5.914000034332275,learn,54085.999965667725,Fri Mar 28 2025 16:29:10 GMT-0500 (Central Daylight Time),296879.700000003,A,boo,I,o,123,1,5914.70000000298,290965.0,8034,WL,A,1.0
2,6.046999931335449,learn,53953.00006866455,Fri Mar 28 2025 16:29:10 GMT-0500 (Central Daylight Time),297012.80000000447,A,book,I,k,118,1,6047.80000000447,290965.0,8034,WL,A,1.0
2,7.062999963760376,learn,52937.000036239624,Fri Mar 28 2025 16:29:10 GMT-0500 (Central Daylight Time),298029.200000003,A,bookenter,I,enter,1001,1,7064.20000000298,290965.0,8034,WL,A,1.0
2,7.829999923706055,learn,52170.000076293945,Fri Mar 28 2025 16:29:10 GMT-0500 (Central Daylight Time),298795.700000003,A,s,I,s,752,1,766.1000000014901,298029.6000000015,8034,WL,A,2.0
2,8.078999996185303,learn,51921.0000038147,Fri Mar 28 2025 16:29:10 GMT-0500 (Central Daylight Time),299045.5,A,sa,I,a,242,1,1015.8999999985099,298029.6000000015,8034,WL,A,2.0
2,8.345999956130981,learn,51654.00004386902,Fri Mar 28 2025 16:29:10 GMT-0500 (Central Daylight Time),299312.1000000015,A,sal,I,l,247,1,1282.5,298029.6000000015,8034,WL,A,2.0
2,8.812999963760376,learn,51187.000036239624,Fri Mar 28 2025 16:29:10 GMT-0500 (Central Daylight Time),299778.700000003,A,salt,I,t,453,1,1749.1000000014901,298029.6000000015,8034,WL,A,2.0
2,9.128999948501587,learn,50871.00005149841,Fri Mar 28 2025 16:29:10 GMT-0500 (Central Daylight Time),300095.30000000447,A,saltenter,I,enter,306,1,2065.7000000029802,298029.6000000015,8034,WL,A,2.0
2,9.562000036239624,learn,50437.999963760376,Fri Mar 28 2025 16:29:10 GMT-0500 (Central Daylight Time),300528.3999999985,A,f,I,f,414,1,432.69999999552965,300095.700000003,8034,WL,A,3.0
2,9.779000043869019,learn,50220.99995613098,Fri Mar 28 2025 16:29:10 GMT-0500 (Central Daylight Time),300745.0,A,fl,I,l,205,1,649.2999999970198,300095.700000003,8034,WL,A,3.0
2,9.996000051498413,learn,50003.99994850159,Fri Mar 28 2025 16:29:10 GMT-0500 (Central Daylight Time),300961.700000003,A,flo,I,o,196,1,866.0,300095.700000003,8034,WL,A,3.0
2,10.161999940872192,learn,49838.00005912781,Fri Mar 28 2025 16:29:10 GMT-0500 (Central Daylight Time),301128.200000003,A,flow,I,w,148,1,1032.5,300095.700000003,8034,WL,A,3.0
2,10.246000051498413,learn,49753.99994850159,Fri Mar 28 2025 16:29:10 GMT-0500 (Central Daylight Time),301211.700000003,A,flowe,I,e,77,1,1116.0,300095.700000003,8034,WL,A,3.0
2,10.361999988555908,learn,49638.00001144409,Fri Mar 28 2025 16:29:10 GMT-0500 (Central Daylight Time),301328.200000003,A,flower,I,r,106,1,1232.5,300095.700000003,8034,WL,A,3.0
2,10.812000036239624,learn,49187.999963760376,Fri Mar 28 2025 16:29:10 GMT-0500 (Central Daylight Time),301778.1000000015,A,flowerenter,I,enter,445,1,1682.3999999985099,300095.700000003,8034,WL,A,3.0
2,11.411999940872192,learn,48588.00005912781,Fri Mar 28 2025 16:29:10 GMT-0500 (Central Daylight Time),302378.0,A,t,I,t,595,1,599.6000000014901,301778.3999999985,8034,WL,A,4.0
2,11.562000036239624,learn,48437.999963760376,Fri Mar 28 2025 16:29:10 GMT-0500 (Central Daylight Time),302527.80000000447,A,tr,I,r,131,1,749.4000000059605,301778.3999999985,8034,WL,A,4.0
2,11.628000020980835,learn,48371.999979019165,Fri Mar 28 2025 16:29:10 GMT-0500 (Central Daylight Time),302594.3999999985,A,tra,I,a,53,1,816.0,301778.3999999985,8034,WL,A,4.0
2,11.777999877929688,learn,48222.00012207031,Fri Mar 28 2025 16:29:10 GMT-0500 (Central Daylight Time),302744.3999999985,A,trai,I,i,131,1,966.0,301778.3999999985,8034,WL,A,4.0
2,12.01199984550476,learn,47988.00015449524,Fri Mar 28 2025 16:29:10 GMT-0500 (Central Daylight Time),302978.0,A,train,I,n,213,1,1199.6000000014901,301778.3999999985,8034,WL,A,4.0
2,12.461999893188477,learn,47538.00010681152,Fri Mar 28 2025 16:29:10 GMT-0500 (Central Daylight Time),303427.80000000447,A,trainenter,I,enter,436,1,1649.4000000059605,301778.3999999985,8034,WL,A,4.0
2,13.010999917984009,learn,46989.00008201599,Fri Mar 28 2025 16:29:10 GMT-0500 (Central Daylight Time),303977.3999999985,A,r,I,r,538,1,549.1999999955297,303428.200000003,8034,WL,A,5.0
2,13.194999933242798,learn,46805.0000667572,Fri Mar 28 2025 16:29:10 GMT-0500 (Central Daylight Time),304160.700000003,A,ru,I,u,172,1,732.5,303428.200000003,8034,WL,A,5.0
2,13.444000005722046,learn,46555.999994277954,Fri Mar 28 2025 16:29:10 GMT-0500 (Central Daylight Time),304410.3999999985,A,rug,I,g,245,1,982.1999999955297,303428.200000003,8034,WL,A,5.0
2,13.727999925613403,learn,46272.0000743866,Fri Mar 28 2025 16:29:10 GMT-0500 (Central Daylight Time),304693.8999999985,A,rugenter,I,enter,267,1,1265.6999999955297,303428.200000003,8034,WL,A,5.0
2,14.810999870300293,learn,45189.00012969971,Fri Mar 28 2025 16:29:10 GMT-0500 (Central Daylight Time),305776.8999999985,A,g,I,g,1064,1,1082.5999999940395,304694.30000000447,8034,WL,A,6.0
2,14.91100001335144,learn,45088.99998664856,Fri Mar 28 2025 16:29:10 GMT-0500 (Central Daylight Time),305876.80000000447,A,go,I,o,92,1,1182.5,304694.30000000447,8034,WL,A,6.0
2,15.111000061035156,learn,44888.999938964844,Fri Mar 28 2025 16:29:10 GMT-0500 (Central Daylight Time),306076.700000003,A,gol,I,l,184,1,1382.3999999985099,304694.30000000447,8034,WL,A,6.0
2,15.210999965667725,learn,44789.000034332275,Fri Mar 28 2025 16:29:10 GMT-0500 (Central Daylight Time),306176.80000000447,A,gold,I,d,89,1,1482.5,304694.30000000447,8034,WL,A,6.0
2,15.59500002861023,learn,44404.99997138977,Fri Mar 28 2025 16:29:10 GMT-0500 (Central Daylight Time),306561.1000000015,A,goldenter,I,enter,372,1,1866.7999999970198,304694.30000000447,8034,WL,A,6.0
2,17.276000022888184,learn,42723.99997711182,Fri Mar 28 2025 16:29:10 GMT-0500 (Central Daylight Time),308242.3999999985,A,s,I,s,1676,1,1680.8999999985099,306561.5,8034,WL,A,7.0
2,17.72699999809265,learn,42273.00000190735,Fri Mar 28 2025 16:29:10 GMT-0500 (Central Daylight Time),308692.700000003,A,sa,I,a,443,1,2131.2000000029802,306561.5,8034,WL,A,7.0
2,18.175999879837036,learn,41824.000120162964,Fri Mar 28 2025 16:29:10 GMT-0500 (Central Daylight Time),309142.5,A,s,I,backspace,441,1,2581.0,306561.5,8034,WL,A,7.0
2,18.30999994277954,learn,41690.00005722046,Fri Mar 28 2025 16:29:10 GMT-0500 (Central Daylight Time),309275.80000000447,A,,I,backspace,119,1,2714.3000000044703,306561.5,8034,WL,A,7.0
2,19.609999895095825,learn,40390.000104904175,Fri Mar 28 2025 16:29:10 GMT-0500 (Central Daylight Time),310576.5,A,a,I,a,1282,1,4015.0,306561.5,8034,WL,A,7.0
2,19.842999935150146,learn,40157.00006484985,Fri Mar 28 2025 16:29:10 GMT-0500 (Central Daylight Time),310808.6000000015,A,ap,I,p,213,1,4247.10000000149,306561.5,8034,WL,A,7.0
2,19.95899987220764,learn,40041.00012779236,Fri Mar 28 2025 16:29:10 GMT-0500 (Central Daylight Time),310925.200000003,A,app,I,p,101,1,4363.70000000298,306561.5,8034,WL,A,7.0
2,20.175999879837036,learn,39824.000120162964,Fri Mar 28 2025 16:29:10 GMT-0500 (Central Daylight Time),311141.80000000447,A,appl,I,l,208,1,4580.30000000447,306561.5,8034,WL,A,7.0
2,20.425999879837036,learn,39574.000120162964,Fri Mar 28 2025 16:29:10 GMT-0500 (Central Daylight Time),311391.700000003,A,apple,I,e,231,1,4830.20000000298,306561.5,8034,WL,A,7.0
2,20.658999919891357,learn,39341.00008010864,Fri Mar 28 2025 16:29:10 GMT-0500 (Central Daylight Time),311624.8999999985,A,appleenter,I,enter,222,1,5063.39999999851,306561.5,8034,WL,A,7.0
2,21.30299997329712,learn,38697.00002670288,Fri Mar 28 2025 16:29:10 GMT-0500 (Central Daylight Time),312268.700000003,A,m,I,m,500,1,643.3999999985099,311625.30000000447,8034,WL,A,8.0
2,21.691999912261963,learn,38308.00008773804,Fri Mar 28 2025 16:29:10 GMT-0500 (Central Daylight Time),312658.30000000447,A,me,I,e,384,1,1033.0,311625.30000000447,8034,WL,A,8.0
2,21.875,learn,38125.0,Fri Mar 28 2025 16:29:10 GMT-0500 (Central Daylight Time),312841.30000000447,A,mea,I,a,171,1,1216.0,311625.30000000447,8034,WL,A,8.0
2,22.008999824523926,learn,37991.000175476074,Fri Mar 28 2025 16:29:10 GMT-0500 (Central Daylight Time),312974.700000003,A,mead,I,d,124,1,1349.3999999985099,311625.30000000447,8034,WL,A,8.0
2,22.342000007629395,learn,37657.999992370605,Fri Mar 28 2025 16:29:10 GMT-0500 (Central Daylight Time),313307.80000000447,A,meado,I,o,318,1,1682.5,311625.30000000447,8034,WL,A,8.0
2,22.507999897003174,learn,37492.000102996826,Fri Mar 28 2025 16:29:10 GMT-0500 (Central Daylight Time),313474.30000000447,A,meadow,I,w,162,1,1849.0,311625.30000000447,8034,WL,A,8.0
2,22.907999992370605,learn,37092.000007629395,Fri Mar 28 2025 16:29:10 GMT-0500 (Central Daylight Time),313874.200000003,A,meadowenter,I,enter,395,1,2248.89999999851,311625.30000000447,8034,WL,A,8.0
2,23.657999992370605,learn,36342.000007629395,Fri Mar 28 2025 16:29:10 GMT-0500 (Central Daylight Time),314624.0,A,g,I,g,732,1,749.5,313874.5,8034,WL,A,9.0
2,23.774999856948853,learn,36225.00014305115,Fri Mar 28 2025 16:29:10 GMT-0500 (Central Daylight Time),314740.700000003,A,go,I,o,101,1,866.2000000029802,313874.5,8034,WL,A,9.0
2,23.94099998474121,learn,36059.00001525879,Fri Mar 28 2025 16:29:10 GMT-0500 (Central Daylight Time),314907.200000003,A,gol,I,l,153,1,1032.7000000029802,313874.5,8034,WL,A,9.0
2,24.04099988937378,learn,35959.00011062622,Fri Mar 28 2025 16:29:10 GMT-0500 (Central Daylight Time),315007.3999999985,A,gold,I,d,90,1,1132.8999999985099,313874.5,8034,WL,A,9.0
2,24.37399983406067,learn,35626.00016593933,Fri Mar 28 2025 16:29:10 GMT-0500 (Central Daylight Time),315340.1000000015,A,goldenter,I,enter,317,1,1465.6000000014901,313874.5,8034,WL,A,9.0
2,25.592000007629395,learn,34407.999992370605,Fri Mar 28 2025 16:29:10 GMT-0500 (Central Daylight Time),316557.700000003,A,r,I,r,1200,1,1217.3000000044703,315340.3999999985,8034,WL,A,10.0
2,25.707000017166138,learn,34292.99998283386,Fri Mar 28 2025 16:29:10 GMT-0500 (Central Daylight Time),316673.3999999985,A,ra,I,a,103,1,1333.0,315340.3999999985,8034,WL,A,10.0
2,25.840999841690063,learn,34159.00015830994,Fri Mar 28 2025 16:29:10 GMT-0500 (Central Daylight Time),316806.6000000015,A,rat,I,t,124,1,1466.2000000029802,315340.3999999985,8034,WL,A,10.0
2,25.990999937057495,learn,34009.000062942505,Fri Mar 28 2025 16:29:10 GMT-0500 (Central Daylight Time),316957.0,A,ratt,I,t,143,1,1616.6000000014901,315340.3999999985,8034,WL,A,10.0
2,26.342000007629395,learn,33657.999992370605,Fri Mar 28 2025 16:29:10 GMT-0500 (Central Daylight Time),317307.700000003,A,rattl,I,l,345,1,1967.3000000044703,315340.3999999985,8034,WL,A,10.0
2,26.473999977111816,learn,33526.00002288818,Fri Mar 28 2025 16:29:10 GMT-0500 (Central Daylight Time),317439.8999999985,A,rattle,I,e,122,1,2099.5,315340.3999999985,8034,WL,A,10.0
2,26.723999977111816,learn,33276.00002288818,Fri Mar 28 2025 16:29:10 GMT-0500 (Central Daylight Time),317689.700000003,A,rattleenter,I,enter,238,1,2349.3000000044703,315340.3999999985,8034,WL,A,10.0
2,27.006999969482422,learn,32993.00003051758,Fri Mar 28 2025 16:29:10 GMT-0500 (Central Daylight Time),317972.80000000447,A,c,I,c,275,1,282.70000000298023,317690.1000000015,8034,WL,A,11.0
2,27.174000024795532,learn,32825.99997520447,Fri Mar 28 2025 16:29:10 GMT-0500 (Central Daylight Time),318139.700000003,A,ch,I,h,161,1,449.6000000014901,317690.1000000015,8034,WL,A,11.0
2,27.2739999294281,learn,32726.0000705719,Fri Mar 28 2025 16:29:10 GMT-0500 (Central Daylight Time),318239.700000003,A,chi,I,i,90,1,549.6000000014901,317690.1000000015,8034,WL,A,11.0
2,27.539999961853027,learn,32460.000038146973,Fri Mar 28 2025 16:29:10 GMT-0500 (Central Daylight Time),318506.30000000447,A,chim,I,m,254,1,816.2000000029802,317690.1000000015,8034,WL,A,11.0
2,27.69000005722046,learn,32309.99994277954,Fri Mar 28 2025 16:29:10 GMT-0500 (Central Daylight Time),318656.0,A,chimm,I,m,131,1,965.8999999985099,317690.1000000015,8034,WL,A,11.0
2,27.889999866485596,learn,32110.000133514404,Fri Mar 28 2025 16:29:10 GMT-0500 (Central Daylight Time),318856.30000000447,A,chimme,I,e,190,1,1166.2000000029802,317690.1000000015,8034,WL,A,11.0
2,28.08999991416931,learn,31910.00008583069,Fri Mar 28 2025 16:29:10 GMT-0500 (Central Daylight Time),319056.0,A,chimmen,I,n,181,1,1365.8999999985099,317690.1000000015,8034,WL,A,11.0
2,28.50600004196167,learn,31493.99995803833,Fri Mar 28 2025 16:29:10 GMT-0500 (Central Daylight Time),319472.5,A,chimmene,I,e,406,1,1782.3999999985099,317690.1000000015,8034,WL,A,11.0
2,29.25600004196167,learn,30743.99995803833,Fri Mar 28 2025 16:29:10 GMT-0500 (Central Daylight Time),320222.200000003,A,chimmen,I,backspace,733,1,2532.10000000149,317690.1000000015,8034,WL,A,11.0
2,29.572999954223633,learn,30427.000045776367,Fri Mar 28 2025 16:29:10 GMT-0500 (Central Daylight Time),320539.0,A,chimmeny,I,y,303,1,2848.89999999851,317690.1000000015,8034,WL,A,11.0
2,29.973000049591064,learn,30026.999950408936,Fri Mar 28 2025 16:29:10 GMT-0500 (Central Daylight Time),320938.6000000015,A,chimmenyenter,I,enter,386,1,3248.5,317690.1000000015,8034,WL,A,11.0
2,31.42199993133545,learn,28578.00006866455,Fri Mar 28 2025 16:29:10 GMT-0500 (Central Daylight Time),322388.30000000447,A,g,I,g,1442,1,1449.3000000044703,320939.0,8034,WL,A,12.0
2,31.60599994659424,learn,28394.00005340576,Fri Mar 28 2025 16:29:10 GMT-0500 (Central Daylight Time),322572.30000000447,A,go,I,o,177,1,1633.3000000044703,320939.0,8034,WL,A,12.0
2,31.771999835968018,learn,28228.000164031982,Fri Mar 28 2025 16:29:10 GMT-0500 (Central Daylight Time),322738.200000003,A,gol,I,l,161,1,1799.2000000029802,320939.0,8034,WL,A,12.0
2,31.938999891281128,learn,28061.000108718872,Fri Mar 28 2025 16:29:10 GMT-0500 (Central Daylight Time),322904.8999999985,A,gold,I,d,147,1,1965.8999999985099,320939.0,8034,WL,A,12.0
2,32.187999963760376,learn,27812.000036239624,Fri Mar 28 2025 16:29:10 GMT-0500 (Central Daylight Time),323154.5,A,goldenter,I,enter,244,1,2215.5,320939.0,8034,WL,A,12.0
2,32.92199993133545,learn,27078.00006866455,Fri Mar 28 2025 16:29:10 GMT-0500 (Central Daylight Time),323887.8999999985,A,s,I,s,723,1,733.0999999940395,323154.80000000447,8034,WL,A,13.0
2,33.03999996185303,learn,26960.000038146973,Fri Mar 28 2025 16:29:10 GMT-0500 (Central Daylight Time),324005.6000000015,A,sa,I,a,101,1,850.7999999970198,323154.80000000447,8034,WL,A,13.0
2,33.18899989128113,learn,26811.000108718872,Fri Mar 28 2025 16:29:10 GMT-0500 (Central Daylight Time),324155.200000003,A,sal,I,l,144,1,1000.3999999985099,323154.80000000447,8034,WL,A,13.0
2,33.40499997138977,learn,26595.00002861023,Fri Mar 28 2025 16:29:10 GMT-0500 (Central Daylight Time),324370.80000000447,A,salt,I,t,210,1,1216.0,323154.80000000447,8034,WL,A,13.0
2,33.704999923706055,learn,26295.000076293945,Fri Mar 28 2025 16:29:10 GMT-0500 (Central Daylight Time),324671.0,A,saltenter,I,enter,283,1,1516.1999999955297,323154.80000000447,8034,WL,A,13.0
2,38.169999837875366,learn,21830.000162124634,Fri Mar 28 2025 16:29:10 GMT-0500 (Central Daylight Time),329136.1000000015,A,l,I,l,4454,1,4464.79999999702,324671.30000000447,8034,WL,A,14.0
2,38.36999988555908,learn,21630.000114440918,Fri Mar 28 2025 16:29:10 GMT-0500 (Central Daylight Time),329336.200000003,A,lo,I,o,181,1,4664.89999999851,324671.30000000447,8034,WL,A,14.0
2,38.503000020980835,learn,21496.999979019165,Fri Mar 28 2025 16:29:10 GMT-0500 (Central Daylight Time),329469.5,A,log,I,g,117,1,4798.19999999553,324671.30000000447,8034,WL,A,14.0
2,38.8529999256134,learn,21147.000074386597,Fri Mar 28 2025 16:29:10 GMT-0500 (Central Daylight Time),329819.30000000447,A,logenter,I,enter,336,1,5148.0,324671.30000000447,8034,WL,A,14.0
2,44.234999895095825,learn,15765.000104904175,Fri Mar 28 2025 16:29:10 GMT-0500 (Central Daylight Time),335200.80000000447,A,f,I,f,5362,1,5381.10000000149,329819.700000003,8034,WL,A,15.0
2,44.41799998283386,learn,15582.000017166138,Fri Mar 28 2025 16:29:10 GMT-0500 (Central Daylight Time),335384.3999999985,A,fi,I,i,172,1,5564.69999999553,329819.700000003,8034,WL,A,15.0
2,44.66599988937378,learn,15334.00011062622,Fri Mar 28 2025 16:29:10 GMT-0500 (Central Daylight Time),335632.30000000447,A,fin,I,n,243,1,5812.60000000149,329819.700000003,8034,WL,A,15.0
2,45.550999879837036,learn,14449.000120162964,Fri Mar 28 2025 16:29:10 GMT-0500 (Central Daylight Time),336517.200000003,A,fing,I,g,869,1,6697.5,329819.700000003,8034,WL,A,15.0
2,46.20099997520447,learn,13799.000024795532,Fri Mar 28 2025 16:29:10 GMT-0500 (Central Daylight Time),337167.0,A,finge,I,e,640,1,7347.29999999702,329819.700000003,8034,WL,A,15.0
2,46.33399987220764,learn,13666.000127792358,Fri Mar 28 2025 16:29:10 GMT-0500 (Central Daylight Time),337300.30000000447,A,finger,I,r,126,1,7480.60000000149,329819.700000003,8034,WL,A,15.0
2,46.86699986457825,learn,13133.000135421753,Fri Mar 28 2025 16:29:10 GMT-0500 (Central Daylight Time),337833.3999999985,A,fingerenter,I,enter,513,1,8013.69999999553,329819.700000003,8034,WL,A,15.0
3,2.182000160217285,learn,57817.999839782715,Fri Mar 28 2025 16:29:10 GMT-0500 (Central Daylight Time),410677.3999999985,A,h,I,h,2167,1,2182.39999999851,408495.0,8034,WL,A,1.0
3,2.631999969482422,learn,57368.00003051758,Fri Mar 28 2025 16:29:10 GMT-0500 (Central Daylight Time),411127.1000000015,A,ha,I,a,440,1,2632.10000000149,408495.0,8034,WL,A,1.0
3,2.7150001525878906,learn,57284.99984741211,Fri Mar 28 2025 16:29:10 GMT-0500 (Central Daylight Time),411210.6000000015,A,har,I,r,70,1,2715.60000000149,408495.0,8034,WL,A,1.0
3,3.182000160217285,learn,56817.999839782715,Fri Mar 28 2025 16:29:10 GMT-0500 (Central Daylight Time),411677.1000000015,A,harp,I,p,459,1,3182.10000000149,408495.0,8034,WL,A,1.0
3,4.664999961853027,learn,55335.00003814697,Fri Mar 28 2025 16:29:10 GMT-0500 (Central Daylight Time),413159.8999999985,A,harpenter,I,enter,1472,1,4664.89999999851,408495.0,8034,WL,A,1.0
3,5.5299999713897705,learn,54470.00002861023,Fri Mar 28 2025 16:29:10 GMT-0500 (Central Daylight Time),414026.1000000015,A,b,I,b,846,1,865.8999999985099,413160.200000003,8034,WL,A,2.0
3,5.730000019073486,learn,54269.999980926514,Fri Mar 28 2025 16:29:10 GMT-0500 (Central Daylight Time),414226.200000003,A,bo,I,o,179,1,1066.0,413160.200000003,8034,WL,A,2.0
3,5.880000114440918,learn,54119.99988555908,Fri Mar 28 2025 16:29:10 GMT-0500 (Central Daylight Time),414376.0,A,boo,I,o,139,1,1215.7999999970198,413160.200000003,8034,WL,A,2.0
3,5.963000059127808,learn,54036.99994087219,Fri Mar 28 2025 16:29:10 GMT-0500 (Central Daylight Time),414459.5,A,book,I,k,69,1,1299.2999999970198,413160.200000003,8034,WL,A,2.0
3,6.397000074386597,learn,53602.9999256134,Fri Mar 28 2025 16:29:10 GMT-0500 (Central Daylight Time),414892.80000000447,A,bookenter,I,enter,426,1,1732.6000000014901,413160.200000003,8034,WL,A,2.0
3,6.680000066757202,learn,53319.9999332428,Fri Mar 28 2025 16:29:10 GMT-0500 (Central Daylight Time),415176.0,A,f,I,f,273,1,282.8999999985099,414893.1000000015,8034,WL,A,3.0
3,6.7799999713897705,learn,53220.00002861023,Fri Mar 28 2025 16:29:10 GMT-0500 (Central Daylight Time),415275.8999999985,A,fl,I,l,93,1,382.79999999701977,414893.1000000015,8034,WL,A,3.0
3,6.980000019073486,learn,53019.999980926514,Fri Mar 28 2025 16:29:10 GMT-0500 (Central Daylight Time),415475.8999999985,A,flo,I,o,194,1,582.7999999970198,414893.1000000015,8034,WL,A,3.0
3,7.080000162124634,learn,52919.999837875366,Fri Mar 28 2025 16:29:10 GMT-0500 (Central Daylight Time),415576.0,A,flow,I,w,82,1,682.8999999985099,414893.1000000015,8034,WL,A,3.0
3,7.163000106811523,learn,52836.99989318848,Fri Mar 28 2025 16:29:10 GMT-0500 (Central Daylight Time),415658.8999999985,A,flowe,I,e,77,1,765.7999999970198,414893.1000000015,8034,WL,A,3.0
3,7.263000011444092,learn,52736.99998855591,Fri Mar 28 2025 16:29:10 GMT-0500 (Central Daylight Time),415758.8999999985,A,flower,I,r,91,1,865.7999999970198,414893.1000000015,8034,WL,A,3.0
3,7.613000154495239,learn,52386.99984550476,Fri Mar 28 2025 16:29:10 GMT-0500 (Central Daylight Time),416109.0,A,flowerenter,I,enter,334,1,1215.8999999985099,414893.1000000015,8034,WL,A,3.0
3,8.312999963760376,learn,51687.000036239624,Fri Mar 28 2025 16:29:10 GMT-0500 (Central Daylight Time),416808.80000000447,A,t,I,t,688,1,699.4000000059605,416109.3999999985,8034,WL,A,4.0
3,8.479000091552734,learn,51520.999908447266,Fri Mar 28 2025 16:29:10 GMT-0500 (Central Daylight Time),416975.3999999985,A,tr,I,r,157,1,866.0,416109.3999999985,8034,WL,A,4.0
3,8.546000003814697,learn,51453.9999961853,Fri Mar 28 2025 16:29:10 GMT-0500 (Central Daylight Time),417042.30000000447,A,tra,I,a,54,1,932.9000000059605,416109.3999999985,8034,WL,A,4.0
3,8.646000146865845,learn,51353.999853134155,Fri Mar 28 2025 16:29:10 GMT-0500 (Central Daylight Time),417142.1000000015,A,trai,I,i,91,1,1032.7000000029802,416109.3999999985,8034,WL,A,4.0
3,8.812000036239624,learn,51187.999963760376,Fri Mar 28 2025 16:29:10 GMT-0500 (Central Daylight Time),417308.6000000015,A,train,I,n,159,1,1199.2000000029802,416109.3999999985,8034,WL,A,4.0
3,9.212000131607056,learn,50787.999868392944,Fri Mar 28 2025 16:29:10 GMT-0500 (Central Daylight Time),417708.5,A,trainenter,I,enter,385,1,1599.1000000014901,416109.3999999985,8034,WL,A,4.0
3,9.51200008392334,learn,50487.99991607666,Fri Mar 28 2025 16:29:10 GMT-0500 (Central Daylight Time),418008.30000000447,A,r,I,r,289,1,299.6000000014901,417708.700000003,8034,WL,A,5.0
3,9.646000146865845,learn,50353.999853134155,Fri Mar 28 2025 16:29:10 GMT-0500 (Central Daylight Time),418141.80000000447,A,ru,I,u,117,1,433.1000000014901,417708.700000003,8034,WL,A,5.0
3,9.84500002861023,learn,50154.99997138977,Fri Mar 28 2025 16:29:10 GMT-0500 (Central Daylight Time),418341.5,A,rug,I,g,192,1,632.7999999970198,417708.700000003,8034,WL,A,5.0
3,10.17799997329712,learn,49822.00002670288,Fri Mar 28 2025 16:29:10 GMT-0500 (Central Daylight Time),418674.6000000015,A,rugenter,I,enter,328,1,965.8999999985099,417708.700000003,8034,WL,A,5.0
3,10.962000131607056,learn,49037.999868392944,Fri Mar 28 2025 16:29:10 GMT-0500 (Central Daylight Time),419458.1000000015,A,s,I,s,779,1,783.2999999970198,418674.80000000447,8034,WL,A,6.0
3,11.09500002861023,learn,48904.99997138977,Fri Mar 28 2025 16:29:10 GMT-0500 (Central Daylight Time),419591.3999999985,A,sa,I,a,123,1,916.5999999940395,418674.80000000447,8034,WL,A,6.0
3,11.228000164031982,learn,48771.99983596802,Fri Mar 28 2025 16:29:10 GMT-0500 (Central Daylight Time),419724.3999999985,A,sal,I,l,118,1,1049.5999999940395,418674.80000000447,8034,WL,A,6.0
3,11.378000020980835,learn,48621.999979019165,Fri Mar 28 2025 16:29:10 GMT-0500 (Central Daylight Time),419874.3999999985,A,salk,I,k,129,1,1199.5999999940395,418674.80000000447,8034,WL,A,6.0
3,11.59500002861023,learn,48404.99997138977,Fri Mar 28 2025 16:29:10 GMT-0500 (Central Daylight Time),420091.0,A,salkt,I,t,203,1,1416.1999999955297,418674.80000000447,8034,WL,A,6.0
3,11.945000171661377,learn,48054.99982833862,Fri Mar 28 2025 16:29:10 GMT-0500 (Central Daylight Time),420441.0,A,salktenter,I,enter,330,1,1766.1999999955297,418674.80000000447,8034,WL,A,6.0
3,12.861000061035156,learn,47138.999938964844,Fri Mar 28 2025 16:29:10 GMT-0500 (Central Daylight Time),421357.5,A,s,I,s,900,1,916.0,420441.5,8034,WL,A,7.0
3,13.011000156402588,learn,46988.99984359741,Fri Mar 28 2025 16:29:10 GMT-0500 (Central Daylight Time),421507.5,A,sa,I,a,135,1,1066.0,420441.5,8034,WL,A,7.0
3,13.41100001335144,learn,46588.99998664856,Fri Mar 28 2025 16:29:10 GMT-0500 (Central Daylight Time),421907.200000003,A,sal,I,l,386,1,1465.7000000029802,420441.5,8034,WL,A,7.0
3,13.82800006866455,learn,46171.99993133545,Fri Mar 28 2025 16:29:10 GMT-0500 (Central Daylight Time),422323.8999999985,A,salt,I,t,402,1,1882.3999999985099,420441.5,8034,WL,A,7.0
3,14.210999965667725,learn,45789.000034332275,Fri Mar 28 2025 16:29:10 GMT-0500 (Central Daylight Time),422706.80000000447,A,saltenter,I,enter,370,1,2265.3000000044703,420441.5,8034,WL,A,7.0
3,17.575999975204468,learn,42424.00002479553,Fri Mar 28 2025 16:29:10 GMT-0500 (Central Daylight Time),426072.3999999985,A,a,I,a,3355,1,3365.2999999970198,422707.1000000015,8034,WL,A,8.0
3,17.81000018119812,learn,42189.99981880188,Fri Mar 28 2025 16:29:10 GMT-0500 (Central Daylight Time),426306.0,A,ap,I,p,229,1,3598.89999999851,422707.1000000015,8034,WL,A,8.0
3,17.926000118255615,learn,42073.999881744385,Fri Mar 28 2025 16:29:10 GMT-0500 (Central Daylight Time),426422.30000000447,A,app,I,p,99,1,3715.2000000029802,422707.1000000015,8034,WL,A,8.0
3,18.110000133514404,learn,41889.999866485596,Fri Mar 28 2025 16:29:10 GMT-0500 (Central Daylight Time),426605.8999999985,A,appl,I,l,175,1,3898.7999999970198,422707.1000000015,8034,WL,A,8.0
3,18.243000030517578,learn,41756.99996948242,Fri Mar 28 2025 16:29:10 GMT-0500 (Central Daylight Time),426739.1000000015,A,apple,I,e,119,1,4032.0,422707.1000000015,8034,WL,A,8.0
3,18.542999982833862,learn,41457.00001716614,Fri Mar 28 2025 16:29:10 GMT-0500 (Central Daylight Time),427039.0,A,appleenter,I,enter,291,1,4331.89999999851,422707.1000000015,8034,WL,A,8.0
3,21.335999965667725,learn,38664.000034332275,Fri Mar 28 2025 16:29:10 GMT-0500 (Central Daylight Time),429831.80000000447,A,l,I,l,2787,1,2792.60000000149,427039.200000003,8034,WL,A,9.0
3,21.375,learn,38625.0,Fri Mar 28 2025 16:29:10 GMT-0500 (Central Daylight Time),429871.0,A,lo,I,o,20,1,2831.7999999970198,427039.200000003,8034,WL,A,9.0
3,21.491000175476074,learn,38508.999824523926,Fri Mar 28 2025 16:29:10 GMT-0500 (Central Daylight Time),429987.700000003,A,log,I,g,102,1,2948.5,427039.200000003,8034,WL,A,9.0
3,21.95800018310547,learn,38041.99981689453,Fri Mar 28 2025 16:29:10 GMT-0500 (Central Daylight Time),430454.5,A,logenter,I,enter,457,1,3415.2999999970198,427039.200000003,8034,WL,A,9.0
3,22.657999992370605,learn,37342.000007629395,Fri Mar 28 2025 16:29:10 GMT-0500 (Central Daylight Time),431154.30000000447,A,c,I,c,695,1,699.4000000059605,430454.8999999985,8034,WL,A,10.0
3,22.975000143051147,learn,37024.99985694885,Fri Mar 28 2025 16:29:10 GMT-0500 (Central Daylight Time),431470.8999999985,A,ch,I,h,299,1,1016.0,430454.8999999985,8034,WL,A,10.0
3,23.125,learn,36875.0,Fri Mar 28 2025 16:29:10 GMT-0500 (Central Daylight Time),431621.0,A,chi,I,i,134,1,1166.1000000014901,430454.8999999985,8034,WL,A,10.0
3,23.35800004005432,learn,36641.99995994568,Fri Mar 28 2025 16:29:10 GMT-0500 (Central Daylight Time),431854.1000000015,A,chim,I,m,216,1,1399.2000000029802,430454.8999999985,8034,WL,A,10.0
3,23.508000135421753,learn,36491.99986457825,Fri Mar 28 2025 16:29:10 GMT-0500 (Central Daylight Time),432004.200000003,A,chimm,I,m,136,1,1549.3000000044703,430454.8999999985,8034,WL,A,10.0
3,23.741000175476074,learn,36258.999824523926,Fri Mar 28 2025 16:29:10 GMT-0500 (Central Daylight Time),432237.200000003,A,chimme,I,e,216,1,1782.3000000044703,430454.8999999985,8034,WL,A,10.0
3,23.85800004005432,learn,36141.99995994568,Fri Mar 28 2025 16:29:10 GMT-0500 (Central Daylight Time),432353.80000000447,A,chimmen,I,n,104,1,1898.9000000059605,430454.8999999985,8034,WL,A,10.0
3,24.02400016784668,learn,35975.99983215332,Fri Mar 28 2025 16:29:10 GMT-0500 (Central Daylight Time),432520.5,A,chimmend,I,d,155,1,2065.60000000149,430454.8999999985,8034,WL,A,10.0
3,24.241000175476074,learn,35758.999824523926,Fri Mar 28 2025 16:29:10 GMT-0500 (Central Daylight Time),432737.30000000447,A,chimmendy,I,y,196,1,2282.4000000059605,430454.8999999985,8034,WL,A,10.0
3,24.707000017166138,learn,35292.99998283386,Fri Mar 28 2025 16:29:10 GMT-0500 (Central Daylight Time),433203.700000003,A,chimmend,I,backspace,452,1,2748.8000000044703,430454.8999999985,8034,WL,A,10.0
3,24.841000080108643,learn,35158.99991989136,Fri Mar 28 2025 16:29:10 GMT-0500 (Central Daylight Time),433337.1000000015,A,chimmen,I,backspace,122,1,2882.2000000029802,430454.8999999985,8034,WL,A,10.0
3,25.19099998474121,learn,34809.00001525879,Fri Mar 28 2025 16:29:10 GMT-0500 (Central Daylight Time),433686.80000000447,A,chimmeny,I,y,340,1,3231.9000000059605,430454.8999999985,8034,WL,A,10.0
3,25.54100012779236,learn,34458.99987220764,Fri Mar 28 2025 16:29:10 GMT-0500 (Central Daylight Time),434036.80000000447,A,chimmenyenter,I,enter,343,1,3581.9000000059605,430454.8999999985,8034,WL,A,10.0
3,28.35599994659424,learn,31644.00005340576,Fri Mar 28 2025 16:29:10 GMT-0500 (Central Daylight Time),436852.3999999985,A,r,I,r,2801,1,2815.1999999955297,434037.200000003,8034,WL,A,11.0
3,28.539999961853027,learn,31460.000038146973,Fri Mar 28 2025 16:29:10 GMT-0500 (Central Daylight Time),437035.8999999985,A,ra,I,a,177,1,2998.6999999955297,434037.200000003,8034,WL,A,11.0
3,28.69000005722046,learn,31309.99994277954,Fri Mar 28 2025 16:29:10 GMT-0500 (Central Daylight Time),437185.80000000447,A,rat,I,t,138,1,3148.60000000149,434037.200000003,8034,WL,A,11.0
3,28.822999954223633,learn,31177.000045776367,Fri Mar 28 2025 16:29:10 GMT-0500 (Central Daylight Time),437318.8999999985,A,ratt,I,t,124,1,3281.6999999955297,434037.200000003,8034,WL,A,11.0
3,29.27300000190735,learn,30726.99999809265,Fri Mar 28 2025 16:29:10 GMT-0500 (Central Daylight Time),437769.0,A,rattl,I,l,431,1,3731.7999999970198,434037.200000003,8034,WL,A,11.0
3,29.373000144958496,learn,30626.999855041504,Fri Mar 28 2025 16:29:10 GMT-0500 (Central Daylight Time),437869.0,A,rattle,I,e,92,1,3831.7999999970198,434037.200000003,8034,WL,A,11.0
3,29.77300000190735,learn,30226.99999809265,Fri Mar 28 2025 16:29:10 GMT-0500 (Central Daylight Time),438268.8999999985,A,rattleenter,I,enter,384,1,4231.69999999553,434037.200000003,8034,WL,A,11.0
3,35.2039999961853,learn,24796.000003814697,Fri Mar 28 2025 16:29:10 GMT-0500 (Central Daylight Time),443700.200000003,A,f,I,f,5416,1,5430.89999999851,438269.30000000447,8034,WL,A,12.0
3,35.4210000038147,learn,24578.999996185303,Fri Mar 28 2025 16:29:10 GMT-0500 (Central Daylight Time),443917.1000000015,A,fi,I,i,201,1,5647.79999999702,438269.30000000447,8034,WL,A,12.0
3,35.57000017166138,learn,24429.999828338623,Fri Mar 28 2025 16:29:10 GMT-0500 (Central Daylight Time),444066.6000000015,A,fin,I,n,144,1,5797.29999999702,438269.30000000447,8034,WL,A,12.0
3,36.021000146865845,learn,23978.999853134155,Fri Mar 28 2025 16:29:10 GMT-0500 (Central Daylight Time),444516.80000000447,A,fing,I,g,443,1,6247.5,438269.30000000447,8034,WL,A,12.0
3,36.337000131607056,learn,23662.999868392944,Fri Mar 28 2025 16:29:10 GMT-0500 (Central Daylight Time),444833.30000000447,A,finge,I,e,297,1,6564.0,438269.30000000447,8034,WL,A,12.0
3,36.47000002861023,learn,23529.99997138977,Fri Mar 28 2025 16:29:10 GMT-0500 (Central Daylight Time),444966.6000000015,A,finger,I,r,124,1,6697.29999999702,438269.30000000447,8034,WL,A,12.0
3,36.769999980926514,learn,23230.000019073486,Fri Mar 28 2025 16:29:10 GMT-0500 (Central Daylight Time),445266.30000000447,A,fingerenter,I,enter,295,1,6997.0,438269.30000000447,8034,WL,A,12.0
3,47.8510000705719,learn,12148.9999294281,Fri Mar 28 2025 16:29:10 GMT-0500 (Central Daylight Time),456347.5,A,g,I,g,11068,1,11080.89999999851,445266.6000000015,8034,WL,A,13.0
3,48.032999992370605,learn,11967.000007629395,Fri Mar 28 2025 16:29:10 GMT-0500 (Central Daylight Time),456529.6000000015,A,go,I,o,161,1,11263.0,445266.6000000015,8034,WL,A,13.0
3,48.41700005531311,learn,11582.99994468689,Fri Mar 28 2025 16:29:10 GMT-0500 (Central Daylight Time),456912.8999999985,A,gol,I,l,372,1,11646.29999999702,445266.6000000015,8034,WL,A,13.0
3,48.60000014305115,learn,11399.999856948853,Fri Mar 28 2025 16:29:10 GMT-0500 (Central Daylight Time),457096.200000003,A,gold,I,d,172,1,11829.60000000149,445266.6000000015,8034,WL,A,13.0
3,49.01600003242493,learn,10983.999967575073,Fri Mar 28 2025 16:29:10 GMT-0500 (Central Daylight Time),457512.6000000015,A,goldenter,I,enter,405,1,12246.0,445266.6000000015,8034,WL,A,13.0
3,55.36400008201599,learn,4635.999917984009,Fri Mar 28 2025 16:29:10 GMT-0500 (Central Daylight Time),463860.700000003,A,a,I,a,6333,1,6347.80000000447,457512.8999999985,8034,WL,A,14.0
3,56.2810001373291,learn,3718.9998626708984,Fri Mar 28 2025 16:29:10 GMT-0500 (Central Daylight Time),464777.1000000015,A,,I,backspace,896,1,7264.20000000298,457512.8999999985,8034,WL,A,14.0
3,60.01300001144409,learn,-13.000011444091797,Fri Mar 28 2025 16:29:10 GMT-0500 (Central Daylight Time),468509.0,A,None,I,None,3728,1,10996.10000000149,457512.8999999985,8034,WL,A,14.0
4,0.9500000476837158,learn,59049.999952316284,Fri Mar 28 2025 16:29:10 GMT-0500 (Central Daylight Time),541736.3000000045,A,b,I,b,931,1,949.5,540786.8000000045,8034,WL,A,1.0
4,1.3329999446868896,learn,58667.00005531311,Fri Mar 28 2025 16:29:10 GMT-0500 (Central Daylight Time),542119.5,A,bo,I,o,372,1,1332.6999999955297,540786.8000000045,8034,WL,A,1.0
4,1.4830000400543213,learn,58516.99995994568,Fri Mar 28 2025 16:29:10 GMT-0500 (Central Daylight Time),542269.6000000015,A,boo,I,o,142,1,1482.7999999970198,540786.8000000045,8034,WL,A,1.0
4,1.682999849319458,learn,58317.00015068054,Fri Mar 28 2025 16:29:10 GMT-0500 (Central Daylight Time),542469.3000000045,A,book,I,k,184,1,1682.5,540786.8000000045,8034,WL,A,1.0
4,2.3989999294281006,learn,57601.0000705719,Fri Mar 28 2025 16:29:10 GMT-0500 (Central Daylight Time),543185.8000000045,A,bookenter,I,enter,703,1,2399.0,540786.8000000045,8034,WL,A,1.0
4,3.2159998416900635,learn,56784.00015830994,Fri Mar 28 2025 16:29:10 GMT-0500 (Central Daylight Time),544002.700000003,A,f,I,f,803,1,816.5,543186.200000003,8034,WL,A,2.0
4,3.4159998893737793,learn,56584.00011062622,Fri Mar 28 2025 16:29:10 GMT-0500 (Central Daylight Time),544202.1000000015,A,fl,I,l,179,1,1015.8999999985099,543186.200000003,8034,WL,A,2.0
4,3.5829999446868896,learn,56417.00005531311,Fri Mar 28 2025 16:29:10 GMT-0500 (Central Daylight Time),544369.1000000015,A,flo,I,o,147,1,1182.8999999985099,543186.200000003,8034,WL,A,2.0
4,3.6989998817443848,learn,56301.000118255615,Fri Mar 28 2025 16:29:10 GMT-0500 (Central Daylight Time),544485.5,A,flow,I,w,109,1,1299.2999999970198,543186.200000003,8034,WL,A,2.0
4,4.0320000648498535,learn,55967.99993515015,Fri Mar 28 2025 16:29:10 GMT-0500 (Central Daylight Time),544818.700000003,A,flowe,I,e,320,1,1632.5,543186.200000003,8034,WL,A,2.0
4,4.148999929428101,learn,55851.0000705719,Fri Mar 28 2025 16:29:10 GMT-0500 (Central Daylight Time),544935.3000000045,A,flower,I,r,99,1,1749.1000000014901,543186.200000003,8034,WL,A,2.0
4,4.5320000648498535,learn,55467.99993515015,Fri Mar 28 2025 16:29:10 GMT-0500 (Central Daylight Time),545318.6000000015,A,flowerenter,I,enter,374,1,2132.39999999851,543186.200000003,8034,WL,A,2.0
4,5.48199987411499,learn,54518.00012588501,Fri Mar 28 2025 16:29:10 GMT-0500 (Central Daylight Time),546268.200000003,A,r,I,r,943,1,949.2000000029802,545319.0,8034,WL,A,3.0
4,5.697999954223633,learn,54302.00004577637,Fri Mar 28 2025 16:29:10 GMT-0500 (Central Daylight Time),546484.8999999985,A,ru,I,u,209,1,1165.8999999985099,545319.0,8034,WL,A,3.0
4,5.881999969482422,learn,54118.00003051758,Fri Mar 28 2025 16:29:10 GMT-0500 (Central Daylight Time),546668.200000003,A,rug,I,g,168,1,1349.2000000029802,545319.0,8034,WL,A,3.0
4,6.197999954223633,learn,53802.00004577637,Fri Mar 28 2025 16:29:10 GMT-0500 (Central Daylight Time),546984.700000003,A,rugenter,I,enter,297,1,1665.7000000029802,545319.0,8034,WL,A,3.0
4,6.8409998416900635,learn,53159.00015830994,Fri Mar 28 2025 16:29:10 GMT-0500 (Central Daylight Time),547627.700000003,A,t,I,t,638,1,642.7000000029802,546985.0,8034,WL,A,4.0
4,6.88100004196167,learn,53118.99995803833,Fri Mar 28 2025 16:29:10 GMT-0500 (Central Daylight Time),547667.6000000015,A,tr,I,r,25,1,682.6000000014901,546985.0,8034,WL,A,4.0
4,6.98199987411499,learn,53018.00012588501,Fri Mar 28 2025 16:29:10 GMT-0500 (Central Daylight Time),547768.8000000045,A,tra,I,a,82,1,783.8000000044703,546985.0,8034,WL,A,4.0
4,7.180999994277954,learn,52819.000005722046,Fri Mar 28 2025 16:29:10 GMT-0500 (Central Daylight Time),547967.8000000045,A,trai,I,i,180,1,982.8000000044703,546985.0,8034,WL,A,4.0
4,7.38100004196167,learn,52618.99995803833,Fri Mar 28 2025 16:29:10 GMT-0500 (Central Daylight Time),548167.700000003,A,train,I,n,190,1,1182.7000000029802,546985.0,8034,WL,A,4.0
4,7.7149999141693115,learn,52285.00008583069,Fri Mar 28 2025 16:29:10 GMT-0500 (Central Daylight Time),548501.1000000015,A,trainenter,I,enter,326,1,1516.1000000014901,546985.0,8034,WL,A,4.0
4,9.897000074386597,learn,50102.9999256134,Fri Mar 28 2025 16:29:10 GMT-0500 (Central Daylight Time),550683.5,A,k,I,k,2176,1,2182.10000000149,548501.3999999985,8034,WL,A,5.0
4,10.063999891281128,learn,49936.00010871887,Fri Mar 28 2025 16:29:10 GMT-0500 (Central Daylight Time),550850.1000000015,A,ke,I,e,154,1,2348.7000000029802,548501.3999999985,8034,WL,A,5.0
4,10.329999923706055,learn,49670.000076293945,Fri Mar 28 2025 16:29:10 GMT-0500 (Central Daylight Time),551116.8000000045,A,key,I,y,259,1,2615.4000000059605,548501.3999999985,8034,WL,A,5.0
4,11.296000003814697,learn,48703.9999961853,Fri Mar 28 2025 16:29:10 GMT-0500 (Central Daylight Time),552082.8000000045,A,keyenter,I,enter,961,1,3581.4000000059605,548501.3999999985,8034,WL,A,5.0
4,12.52999997138977,learn,47470.00002861023,Fri Mar 28 2025 16:29:10 GMT-0500 (Central Daylight Time),553316.0,A,m,I,m,1226,1,1232.8999999985099,552083.1000000015,8034,WL,A,6.0
4,12.763000011444092,learn,47236.99998855591,Fri Mar 28 2025 16:29:10 GMT-0500 (Central Daylight Time),553549.200000003,A,me,I,e,225,1,1466.1000000014901,552083.1000000015,8034,WL,A,6.0
4,12.978999853134155,learn,47021.000146865845,Fri Mar 28 2025 16:29:10 GMT-0500 (Central Daylight Time),553765.8999999985,A,med,I,d,208,1,1682.7999999970198,552083.1000000015,8034,WL,A,6.0
4,13.513000011444092,learn,46486.99998855591,Fri Mar 28 2025 16:29:10 GMT-0500 (Central Daylight Time),554299.0,A,medo,I,o,528,1,2215.89999999851,552083.1000000015,8034,WL,A,6.0
4,13.845999956130981,learn,46154.00004386902,Fri Mar 28 2025 16:29:10 GMT-0500 (Central Daylight Time),554632.200000003,A,medow,I,w,315,1,2549.10000000149,552083.1000000015,8034,WL,A,6.0
4,14.546000003814697,learn,45453.9999961853,Fri Mar 28 2025 16:29:10 GMT-0500 (Central Daylight Time),555332.0,A,medowenter,I,enter,693,1,3248.89999999851,552083.1000000015,8034,WL,A,6.0
4,15.812000036239624,learn,44187.999963760376,Fri Mar 28 2025 16:29:10 GMT-0500 (Central Daylight Time),556598.3000000045,A,b,I,b,1250,1,1266.0,555332.3000000045,8034,WL,A,7.0
4,15.961999893188477,learn,44038.00010681152,Fri Mar 28 2025 16:29:10 GMT-0500 (Central Daylight Time),556748.200000003,A,bu,I,u,135,1,1415.8999999985099,555332.3000000045,8034,WL,A,7.0
4,16.062000036239624,learn,43937.999963760376,Fri Mar 28 2025 16:29:10 GMT-0500 (Central Daylight Time),556848.200000003,A,but,I,t,80,1,1515.8999999985099,555332.3000000045,8034,WL,A,7.0
4,16.17899990081787,learn,43821.00009918213,Fri Mar 28 2025 16:29:10 GMT-0500 (Central Daylight Time),556964.8999999985,A,butt,I,t,110,1,1632.5999999940395,555332.3000000045,8034,WL,A,7.0
4,16.295000076293945,learn,43704.999923706055,Fri Mar 28 2025 16:29:10 GMT-0500 (Central Daylight Time),557081.5,A,butto,I,o,97,1,1749.1999999955297,555332.3000000045,8034,WL,A,7.0
4,16.42799997329712,learn,43572.00002670288,Fri Mar 28 2025 16:29:10 GMT-0500 (Central Daylight Time),557214.8000000045,A,button,I,n,124,1,1882.5,555332.3000000045,8034,WL,A,7.0
4,16.812000036239624,learn,43187.999963760376,Fri Mar 28 2025 16:29:10 GMT-0500 (Central Daylight Time),557598.0,A,buttonenter,I,enter,374,1,2265.6999999955297,555332.3000000045,8034,WL,A,7.0
4,17.17799997329712,learn,42822.00002670288,Fri Mar 28 2025 16:29:10 GMT-0500 (Central Daylight Time),557964.700000003,A,h,I,h,359,1,366.30000000447035,557598.3999999985,8034,WL,A,8.0
4,17.310999870300293,learn,42689.00012969971,Fri Mar 28 2025 16:29:10 GMT-0500 (Central Daylight Time),558097.8999999985,A,ha,I,a,112,1,499.5,557598.3999999985,8034,WL,A,8.0
4,17.361999988555908,learn,42638.00001144409,Fri Mar 28 2025 16:29:10 GMT-0500 (Central Daylight Time),558148.1000000015,A,har,I,r,44,1,549.7000000029802,557598.3999999985,8034,WL,A,8.0
4,17.560999870300293,learn,42439.00012969971,Fri Mar 28 2025 16:29:10 GMT-0500 (Central Daylight Time),558347.8000000045,A,harp,I,p,193,1,749.4000000059605,557598.3999999985,8034,WL,A,8.0
4,18.26099991798401,learn,41739.00008201599,Fri Mar 28 2025 16:29:10 GMT-0500 (Central Daylight Time),559047.6000000015,A,harpenter,I,enter,682,1,1449.2000000029802,557598.3999999985,8034,WL,A,8.0
4,20.01099991798401,learn,39989.00008201599,Fri Mar 28 2025 16:29:10 GMT-0500 (Central Daylight Time),560797.0,A,g,I,g,1734,1,1749.1999999955297,559047.8000000045,8034,WL,A,9.0
4,20.14400005340576,learn,39855.99994659424,Fri Mar 28 2025 16:29:10 GMT-0500 (Central Daylight Time),560930.3000000045,A,go,I,o,120,1,1882.5,559047.8000000045,8034,WL,A,9.0
4,20.30999994277954,learn,39690.00005722046,Fri Mar 28 2025 16:29:10 GMT-0500 (Central Daylight Time),561096.8000000045,A,gol,I,l,147,1,2049.0,559047.8000000045,8034,WL,A,9.0
4,20.359999895095825,learn,39640.000104904175,Fri Mar 28 2025 16:29:10 GMT-0500 (Central Daylight Time),561146.700000003,A,gold,I,d,45,1,2098.89999999851,559047.8000000045,8034,WL,A,9.0
4,20.74399995803833,learn,39256.00004196167,Fri Mar 28 2025 16:29:10 GMT-0500 (Central Daylight Time),561530.3999999985,A,goldenter,I,enter,371,1,2482.5999999940395,559047.8000000045,8034,WL,A,9.0
4,21.276999950408936,learn,38723.000049591064,Fri Mar 28 2025 16:29:10 GMT-0500 (Central Daylight Time),562063.3000000045,A,s,I,s,515,1,532.6000000014901,561530.700000003,8034,WL,A,10.0
4,21.427000045776367,learn,38572.99995422363,Fri Mar 28 2025 16:29:10 GMT-0500 (Central Daylight Time),562213.200000003,A,sa,I,a,134,1,682.5,561530.700000003,8034,WL,A,10.0
4,21.55999994277954,learn,38440.00005722046,Fri Mar 28 2025 16:29:10 GMT-0500 (Central Daylight Time),562346.6000000015,A,sal,I,l,112,1,815.8999999985099,561530.700000003,8034,WL,A,10.0
4,22.042999982833862,learn,37957.00001716614,Fri Mar 28 2025 16:29:10 GMT-0500 (Central Daylight Time),562829.8999999985,A,salt,I,t,475,1,1299.1999999955297,561530.700000003,8034,WL,A,10.0
4,22.30999994277954,learn,37690.00005722046,Fri Mar 28 2025 16:29:10 GMT-0500 (Central Daylight Time),563096.5,A,saltenter,I,enter,248,1,1565.7999999970198,561530.700000003,8034,WL,A,10.0
4,22.625999927520752,learn,37374.00007247925,Fri Mar 28 2025 16:29:10 GMT-0500 (Central Daylight Time),563412.8000000045,A,r,I,r,301,1,316.1000000014901,563096.700000003,8034,WL,A,11.0
4,22.727999925613403,learn,37272.0000743866,Fri Mar 28 2025 16:29:10 GMT-0500 (Central Daylight Time),563514.1000000015,A,ra,I,a,97,1,417.3999999985099,563096.700000003,8034,WL,A,11.0
4,23.175999879837036,learn,36824.000120162964,Fri Mar 28 2025 16:29:10 GMT-0500 (Central Daylight Time),563962.3999999985,A,rat,I,t,443,1,865.6999999955297,563096.700000003,8034,WL,A,11.0
4,23.359999895095825,learn,36640.000104904175,Fri Mar 28 2025 16:29:10 GMT-0500 (Central Daylight Time),564146.0,A,ratt,I,t,163,1,1049.2999999970198,563096.700000003,8034,WL,A,11.0
4,23.493000030517578,learn,36506.99996948242,Fri Mar 28 2025 16:29:10 GMT-0500 (Central Daylight Time),564279.200000003,A,rattl,I,l,123,1,1182.5,563096.700000003,8034,WL,A,11.0
4,23.608999967575073,learn,36391.00003242493,Fri Mar 28 2025 16:29:10 GMT-0500 (Central Daylight Time),564395.8000000045,A,rattle,I,e,102,1,1299.1000000014901,563096.700000003,8034,WL,A,11.0
4,24.042999982833862,learn,35957.00001716614,Fri Mar 28 2025 16:29:10 GMT-0500 (Central Daylight Time),564829.200000003,A,rattleenter,I,enter,426,1,1732.5,563096.700000003,8034,WL,A,11.0
4,28.22499990463257,learn,31775.00009536743,Fri Mar 28 2025 16:29:10 GMT-0500 (Central Daylight Time),569010.8999999985,A,c,I,c,4176,1,4181.29999999702,564829.6000000015,8034,WL,A,12.0
4,28.47499990463257,learn,31525.00009536743,Fri Mar 28 2025 16:29:10 GMT-0500 (Central Daylight Time),569260.8999999985,A,ch,I,h,243,1,4431.29999999702,564829.6000000015,8034,WL,A,12.0
4,29.157999992370605,learn,30842.000007629395,Fri Mar 28 2025 16:29:10 GMT-0500 (Central Daylight Time),569944.0,A,c,I,backspace,665,1,5114.39999999851,564829.6000000015,8034,WL,A,12.0
4,29.424000024795532,learn,30575.999975204468,Fri Mar 28 2025 16:29:10 GMT-0500 (Central Daylight Time),570210.8000000045,A,,I,backspace,254,1,5381.20000000298,564829.6000000015,8034,WL,A,12.0
4,44.22000002861023,learn,15779.99997138977,Fri Mar 28 2025 16:29:10 GMT-0500 (Central Daylight Time),585006.0,A,k,I,k,14779,1,20176.39999999851,564829.6000000015,8034,WL,A,12.0
4,44.6029999256134,learn,15397.000074386597,Fri Mar 28 2025 16:29:10 GMT-0500 (Central Daylight Time),585389.3000000045,A,ke,I,e,375,1,20559.70000000298,564829.6000000015,8034,WL,A,12.0
4,44.90299987792969,learn,15097.000122070312,Fri Mar 28 2025 16:29:10 GMT-0500 (Central Daylight Time),585689.200000003,A,key,I,y,280,1,20859.60000000149,564829.6000000015,8034,WL,A,12.0
4,45.2189998626709,learn,14781.000137329102,Fri Mar 28 2025 16:29:10 GMT-0500 (Central Daylight Time),586005.8000000045,A,keyenter,I,enter,300,1,21176.20000000298,564829.6000000015,8034,WL,A,12.0
4,50.567999839782715,learn,9432.000160217285,Fri Mar 28 2025 16:29:10 GMT-0500 (Central Daylight Time),591354.1000000015,A,m,I,m,5336,1,5347.89999999851,586006.200000003,8034,WL,A,13.0
4,51.317999839782715,learn,8682.000160217285,Fri Mar 28 2025 16:29:10 GMT-0500 (Central Daylight Time),592104.0,A,,I,backspace,739,1,6097.79999999702,586006.200000003,8034,WL,A,13.0
4,53.81399989128113,learn,6186.000108718872,Fri Mar 28 2025 16:29:10 GMT-0500 (Central Daylight Time),594600.6000000015,A,a,I,a,2492,1,8594.39999999851,586006.200000003,8034,WL,A,13.0
4,54.01600003242493,learn,5983.999967575073,Fri Mar 28 2025 16:29:10 GMT-0500 (Central Daylight Time),594802.6000000015,A,ap,I,p,197,1,8796.39999999851,586006.200000003,8034,WL,A,13.0
4,54.18299984931946,learn,5817.000150680542,Fri Mar 28 2025 16:29:10 GMT-0500 (Central Daylight Time),594969.8999999985,A,app,I,p,147,1,8963.69999999553,586006.200000003,8034,WL,A,13.0
4,54.51600003242493,learn,5483.999967575073,Fri Mar 28 2025 16:29:10 GMT-0500 (Central Daylight Time),595302.700000003,A,appl,I,l,323,1,9296.5,586006.200000003,8034,WL,A,13.0
4,55.198999881744385,learn,4801.000118255615,Fri Mar 28 2025 16:29:10 GMT-0500 (Central Daylight Time),595985.8999999985,A,app,I,backspace,663,1,9979.69999999553,586006.200000003,8034,WL,A,13.0
4,55.33200001716614,learn,4667.999982833862,Fri Mar 28 2025 16:29:10 GMT-0500 (Central Daylight Time),596119.1000000015,A,ap,I,backspace,116,1,10112.89999999851,586006.200000003,8034,WL,A,13.0
4,55.48199987411499,learn,4518.00012588501,Fri Mar 28 2025 16:29:10 GMT-0500 (Central Daylight Time),596269.1000000015,A,a,I,backspace,134,1,10262.89999999851,586006.200000003,8034,WL,A,13.0
4,55.63199996948242,learn,4368.000030517578,Fri Mar 28 2025 16:29:10 GMT-0500 (Central Daylight Time),596419.200000003,A,,I,backspace,136,1,10413.0,586006.200000003,8034,WL,A,13.0
4,58.19799995422363,learn,1802.0000457763672,Fri Mar 28 2025 16:29:10 GMT-0500 (Central Daylight Time),598985.0,A,s,I,s,2546,1,12978.79999999702,586006.200000003,8034,WL,A,13.0
4,58.430999994277954,learn,1569.000005722046,Fri Mar 28 2025 16:29:10 GMT-0500 (Central Daylight Time),599218.200000003,A,sa,I,a,229,1,13212.0,586006.200000003,8034,WL,A,13.0
4,58.598000049591064,learn,1401.9999504089355,Fri Mar 28 2025 16:29:10 GMT-0500 (Central Daylight Time),599385.1000000015,A,sal,I,l,156,1,13378.89999999851,586006.200000003,8034,WL,A,13.0
4,58.848000049591064,learn,1151.9999504089355,Fri Mar 28 2025 16:29:10 GMT-0500 (Central Daylight Time),599634.700000003,A,salt,I,t,244,1,13628.5,586006.200000003,8034,WL,A,13.0
4,59.03099989891052,learn,969.0001010894775,Fri Mar 28 2025 16:29:10 GMT-0500 (Central Daylight Time),599818.1000000015,A,saltenter,I,enter,178,1,13811.89999999851,586006.200000003,8034,WL,A,13.0
4,60.013999938964844,learn,-13.99993896484375,Fri Mar 28 2025 16:29:10 GMT-0500 (Central Daylight Time),600801.1000000015,A,None,I,None,978,1,982.7999999970198,599818.3000000045,8034,WL,A,14.0
5,1.8329999446868896,learn,60000.0,Fri Mar 28 2025 16:29:10 GMT-0500 (Central Daylight Time),671046.0,A,b,I,b,1825,1,1833.0,669213.0,8034,WL,A,1.0
5,2.117000102996826,learn,60000.0,Fri Mar 28 2025 16:29:10 GMT-0500 (Central Daylight Time),671329.200000003,A,bo,I,o,271,1,2116.2000000029802,669213.0,8034,WL,A,1.0
5,2.2660000324249268,learn,60000.0,Fri Mar 28 2025 16:29:10 GMT-0500 (Central Daylight Time),671478.8000000045,A,boo,I,o,140,1,2265.8000000044703,669213.0,8034,WL,A,1.0
5,2.4170000553131104,learn,60000.0,Fri Mar 28 2025 16:29:10 GMT-0500 (Central Daylight Time),671629.0,A,book,I,k,143,1,2416.0,669213.0,8034,WL,A,1.0
5,2.7660000324249268,learn,60000.0,Fri Mar 28 2025 16:29:10 GMT-0500 (Central Daylight Time),671978.700000003,A,bookenter,I,enter,344,1,2765.7000000029802,669213.0,8034,WL,A,1.0
5,3.132999897003174,learn,60000.0,Fri Mar 28 2025 16:29:10 GMT-0500 (Central Daylight Time),672345.5,A,f,I,f,355,1,366.6000000014901,671978.8999999985,8034,WL,A,2.0
5,3.2829999923706055,learn,60000.0,Fri Mar 28 2025 16:29:10 GMT-0500 (Central Daylight Time),672495.3999999985,A,fl,I,l,132,1,516.5,671978.8999999985,8034,WL,A,2.0
5,3.450000047683716,learn,60000.0,Fri Mar 28 2025 16:29:10 GMT-0500 (Central Daylight Time),672662.1000000015,A,flo,I,o,158,1,683.2000000029802,671978.8999999985,8034,WL,A,2.0
5,3.549999952316284,learn,60000.0,Fri Mar 28 2025 16:29:10 GMT-0500 (Central Daylight Time),672762.1000000015,A,flow,I,w,95,1,783.2000000029802,671978.8999999985,8034,WL,A,2.0
5,3.683000087738037,learn,60000.0,Fri Mar 28 2025 16:29:10 GMT-0500 (Central Daylight Time),672895.3000000045,A,flowe,I,e,123,1,916.4000000059605,671978.8999999985,8034,WL,A,2.0
5,3.8489999771118164,learn,60000.0,Fri Mar 28 2025 16:29:10 GMT-0500 (Central Daylight Time),673061.700000003,A,flower,I,r,150,1,1082.8000000044703,671978.8999999985,8034,WL,A,2.0
5,4.165999889373779,learn,60000.0,Fri Mar 28 2025 16:29:10 GMT-0500 (Central Daylight Time),673378.3999999985,A,flowerenter,I,enter,304,1,1399.5,671978.8999999985,8034,WL,A,2.0
5,4.848999977111816,learn,60000.0,Fri Mar 28 2025 16:29:10 GMT-0500 (Central Daylight Time),674061.6000000015,A,t,I,t,667,1,682.7999999970198,673378.8000000045,8034,WL,A,3.0
5,4.982000112533569,learn,60000.0,Fri Mar 28 2025 16:29:10 GMT-0500 (Central Daylight Time),674194.8000000045,A,tr,I,r,128,1,816.0,673378.8000000045,8034,WL,A,3.0
5,5.049000024795532,learn,60000.0,Fri Mar 28 2025 16:29:10 GMT-0500 (Central Daylight Time),674261.5,A,tra,I,a,51,1,882.6999999955297,673378.8000000045,8034,WL,A,3.0
5,5.148999929428101,learn,60000.0,Fri Mar 28 2025 16:29:10 GMT-0500 (Central Daylight Time),674361.700000003,A,trai,I,i,80,1,982.8999999985099,673378.8000000045,8034,WL,A,3.0
5,5.367000102996826,learn,60000.0,Fri Mar 28 2025 16:29:10 GMT-0500 (Central Daylight Time),674579.3000000045,A,train,I,n,196,1,1200.5,673378.8000000045,8034,WL,A,3.0
5,5.699000120162964,learn,60000.0,Fri Mar 28 2025 16:29:10 GMT-0500 (Central Daylight Time),674911.3000000045,A,trainenter,I,enter,322,1,1532.5,673378.8000000045,8034,WL,A,3.0
5,6.232000112533569,learn,60000.0,Fri Mar 28 2025 16:29:10 GMT-0500 (Central Daylight Time),675444.3000000045,A,m,I,m,526,1,532.7000000029802,674911.6000000015,8034,WL,A,4.0
5,6.398000001907349,learn,60000.0,Fri Mar 28 2025 16:29:10 GMT-0500 (Central Daylight Time),675610.8999999985,A,me,I,e,161,1,699.2999999970198,674911.6000000015,8034,WL,A,4.0
5,6.549000024795532,learn,60000.0,Fri Mar 28 2025 16:29:10 GMT-0500 (Central Daylight Time),675761.200000003,A,mea,I,a,131,1,849.6000000014901,674911.6000000015,8034,WL,A,4.0
5,6.697999954223633,learn,60000.0,Fri Mar 28 2025 16:29:10 GMT-0500 (Central Daylight Time),675911.0,A,mead,I,d,132,1,999.3999999985099,674911.6000000015,8034,WL,A,4.0
5,7.131999969482422,learn,60000.0,Fri Mar 28 2025 16:29:10 GMT-0500 (Central Daylight Time),676344.3000000045,A,meado,I,o,423,1,1432.7000000029802,674911.6000000015,8034,WL,A,4.0
5,7.2820000648498535,learn,60000.0,Fri Mar 28 2025 16:29:10 GMT-0500 (Central Daylight Time),676494.1000000015,A,meadow,I,w,141,1,1582.5,674911.6000000015,8034,WL,A,4.0
5,7.615000009536743,learn,60000.0,Fri Mar 28 2025 16:29:10 GMT-0500 (Central Daylight Time),676827.1000000015,A,meadowenter,I,enter,327,1,1915.5,674911.6000000015,8034,WL,A,4.0
5,8.032000064849854,learn,60000.0,Fri Mar 28 2025 16:29:10 GMT-0500 (Central Daylight Time),677244.0,A,r,I,r,410,1,416.69999999552965,676827.3000000045,8034,WL,A,5.0
5,8.197999954223633,learn,60000.0,Fri Mar 28 2025 16:29:10 GMT-0500 (Central Daylight Time),677410.6000000015,A,ru,I,u,153,1,583.2999999970198,676827.3000000045,8034,WL,A,5.0
5,8.365000009536743,learn,60000.0,Fri Mar 28 2025 16:29:10 GMT-0500 (Central Daylight Time),677577.1000000015,A,rug,I,g,155,1,749.7999999970198,676827.3000000045,8034,WL,A,5.0
5,8.648000001907349,learn,60000.0,Fri Mar 28 2025 16:29:10 GMT-0500 (Central Daylight Time),677860.3000000045,A,rugenter,I,enter,276,1,1033.0,676827.3000000045,8034,WL,A,5.0
5,9.197999954223633,learn,60000.0,Fri Mar 28 2025 16:29:10 GMT-0500 (Central Daylight Time),678410.1000000015,A,h,I,h,537,1,549.2000000029802,677860.8999999985,8034,WL,A,6.0
5,9.414000034332275,learn,60000.0,Fri Mar 28 2025 16:29:10 GMT-0500 (Central Daylight Time),678627.0,A,ha,I,a,203,1,766.1000000014901,677860.8999999985,8034,WL,A,6.0
5,9.513999938964844,learn,60000.0,Fri Mar 28 2025 16:29:10 GMT-0500 (Central Daylight Time),678726.8999999985,A,har,I,r,91,1,866.0,677860.8999999985,8034,WL,A,6.0
5,9.747999906539917,learn,60000.0,Fri Mar 28 2025 16:29:10 GMT-0500 (Central Daylight Time),678960.0,A,harp,I,p,215,1,1099.1000000014901,677860.8999999985,8034,WL,A,6.0
5,10.098000049591064,learn,60000.0,Fri Mar 28 2025 16:29:10 GMT-0500 (Central Daylight Time),679310.200000003,A,harpenter,I,enter,334,1,1449.3000000044703,677860.8999999985,8034,WL,A,6.0
5,10.69700002670288,learn,60000.0,Fri Mar 28 2025 16:29:10 GMT-0500 (Central Daylight Time),679909.8000000045,A,k,I,k,583,1,599.3000000044703,679310.5,8034,WL,A,7.0
5,10.829999923706055,learn,60000.0,Fri Mar 28 2025 16:29:10 GMT-0500 (Central Daylight Time),680042.8000000045,A,ke,I,e,128,1,732.3000000044703,679310.5,8034,WL,A,7.0
5,11.630000114440918,learn,60000.0,Fri Mar 28 2025 16:29:10 GMT-0500 (Central Daylight Time),680842.8000000045,A,k,I,backspace,787,1,1532.3000000044703,679310.5,8034,WL,A,7.0
5,11.829999923706055,learn,60000.0,Fri Mar 28 2025 16:29:10 GMT-0500 (Central Daylight Time),681042.5,A,,I,backspace,195,1,1732.0,679310.5,8034,WL,A,7.0
5,12.413000106811523,learn,60000.0,Fri Mar 28 2025 16:29:10 GMT-0500 (Central Daylight Time),681625.8999999985,A,k,I,k,571,1,2315.39999999851,679310.5,8034,WL,A,7.0
5,12.663000106811523,learn,60000.0,Fri Mar 28 2025 16:29:10 GMT-0500 (Central Daylight Time),681875.8999999985,A,ke,I,e,243,1,2565.39999999851,679310.5,8034,WL,A,7.0
5,13.296000003814697,learn,60000.0,Fri Mar 28 2025 16:29:10 GMT-0500 (Central Daylight Time),682509.0,A,key,I,y,626,1,3198.5,679310.5,8034,WL,A,7.0
5,14.046000003814697,learn,60000.0,Fri Mar 28 2025 16:29:10 GMT-0500 (Central Daylight Time),683258.8999999985,A,keyenter,I,enter,737,1,3948.39999999851,679310.5,8034,WL,A,7.0
5,15.562000036239624,learn,60000.0,Fri Mar 28 2025 16:29:10 GMT-0500 (Central Daylight Time),684774.8000000045,A,s,I,s,1499,1,1515.5,683259.3000000045,8034,WL,A,8.0
5,15.696000099182129,learn,60000.0,Fri Mar 28 2025 16:29:10 GMT-0500 (Central Daylight Time),684908.0,A,sa,I,a,127,1,1648.6999999955297,683259.3000000045,8034,WL,A,8.0
5,15.861999988555908,learn,60000.0,Fri Mar 28 2025 16:29:10 GMT-0500 (Central Daylight Time),685074.700000003,A,sal,I,l,162,1,1815.3999999985099,683259.3000000045,8034,WL,A,8.0
5,16.26200008392334,learn,60000.0,Fri Mar 28 2025 16:29:10 GMT-0500 (Central Daylight Time),685474.5,A,salt,I,t,395,1,2215.1999999955297,683259.3000000045,8034,WL,A,8.0
5,16.67899990081787,learn,60000.0,Fri Mar 28 2025 16:29:10 GMT-0500 (Central Daylight Time),685891.200000003,A,saltenter,I,enter,403,1,2631.89999999851,683259.3000000045,8034,WL,A,8.0
5,17.545000076293945,learn,60000.0,Fri Mar 28 2025 16:29:10 GMT-0500 (Central Daylight Time),686757.3000000045,A,r,I,r,859,1,865.8000000044703,685891.5,8034,WL,A,9.0
5,17.729000091552734,learn,60000.0,Fri Mar 28 2025 16:29:10 GMT-0500 (Central Daylight Time),686940.8999999985,A,ra,I,a,167,1,1049.3999999985099,685891.5,8034,WL,A,9.0
5,17.878000020980835,learn,60000.0,Fri Mar 28 2025 16:29:10 GMT-0500 (Central Daylight Time),687090.5,A,rat,I,t,145,1,1199.0,685891.5,8034,WL,A,9.0
5,18.028000116348267,learn,60000.0,Fri Mar 28 2025 16:29:10 GMT-0500 (Central Daylight Time),687240.8999999985,A,ratt,I,t,139,1,1349.3999999985099,685891.5,8034,WL,A,9.0
5,18.161999940872192,learn,60000.0,Fri Mar 28 2025 16:29:10 GMT-0500 (Central Daylight Time),687374.3000000045,A,rattl,I,l,117,1,1482.8000000044703,685891.5,8034,WL,A,9.0
5,18.32800006866455,learn,60000.0,Fri Mar 28 2025 16:29:10 GMT-0500 (Central Daylight Time),687540.700000003,A,rattle,I,e,159,1,1649.2000000029802,685891.5,8034,WL,A,9.0
5,18.74500012397766,learn,60000.0,Fri Mar 28 2025 16:29:10 GMT-0500 (Central Daylight Time),687957.3999999985,A,rattleenter,I,enter,409,1,2065.89999999851,685891.5,8034,WL,A,9.0
5,19.706000089645386,learn,60000.0,Fri Mar 28 2025 16:29:10 GMT-0500 (Central Daylight Time),688918.8000000045,A,a,I,a,957,1,961.1000000014901,687957.700000003,8034,WL,A,10.0
5,19.811000108718872,learn,60000.0,Fri Mar 28 2025 16:29:10 GMT-0500 (Central Daylight Time),689023.3000000045,A,ap,I,p,94,1,1065.6000000014901,687957.700000003,8034,WL,A,10.0
5,19.960999965667725,learn,60000.0,Fri Mar 28 2025 16:29:10 GMT-0500 (Central Daylight Time),689173.3999999985,A,app,I,p,134,1,1215.6999999955297,687957.700000003,8034,WL,A,10.0
5,20.111000061035156,learn,60000.0,Fri Mar 28 2025 16:29:10 GMT-0500 (Central Daylight Time),689323.5,A,appl,I,l,144,1,1365.7999999970198,687957.700000003,8034,WL,A,10.0
5,20.24500012397766,learn,60000.0,Fri Mar 28 2025 16:29:10 GMT-0500 (Central Daylight Time),689457.0,A,apple,I,e,114,1,1499.2999999970198,687957.700000003,8034,WL,A,10.0
5,20.526999950408936,learn,60000.0,Fri Mar 28 2025 16:29:10 GMT-0500 (Central Daylight Time),689739.8999999985,A,appleenter,I,enter,269,1,1782.1999999955297,687957.700000003,8034,WL,A,10.0
5,21.34500002861023,learn,60000.0,Fri Mar 28 2025 16:29:10 GMT-0500 (Central Daylight Time),690557.6000000015,A,l,I,l,802,1,817.3999999985099,689740.200000003,8034,WL,A,11.0
5,21.49399995803833,learn,60000.0,Fri Mar 28 2025 16:29:10 GMT-0500 (Central Daylight Time),690706.3999999985,A,lo,I,o,143,1,966.1999999955297,689740.200000003,8034,WL,A,11.0
5,21.627000093460083,learn,60000.0,Fri Mar 28 2025 16:29:10 GMT-0500 (Central Daylight Time),690839.700000003,A,log,I,g,123,1,1099.5,689740.200000003,8034,WL,A,11.0
5,21.97699999809265,learn,60000.0,Fri Mar 28 2025 16:29:10 GMT-0500 (Central Daylight Time),691189.700000003,A,logenter,I,enter,334,1,1449.5,689740.200000003,8034,WL,A,11.0
5,38.33899998664856,learn,60000.0,Fri Mar 28 2025 16:29:10 GMT-0500 (Central Daylight Time),707551.0,A,f,I,f,16344,1,16360.89999999851,691190.1000000015,8034,WL,A,12.0
5,38.50500011444092,learn,60000.0,Fri Mar 28 2025 16:29:10 GMT-0500 (Central Daylight Time),707717.8000000045,A,fi,I,i,158,1,16527.70000000298,691190.1000000015,8034,WL,A,12.0
5,38.67199993133545,learn,60000.0,Fri Mar 28 2025 16:29:10 GMT-0500 (Central Daylight Time),707884.3000000045,A,fin,I,n,160,1,16694.20000000298,691190.1000000015,8034,WL,A,12.0
5,38.954999923706055,learn,60000.0,Fri Mar 28 2025 16:29:10 GMT-0500 (Central Daylight Time),708167.6000000015,A,fint,I,t,273,1,16977.5,691190.1000000015,8034,WL,A,12.0
5,39.121999979019165,learn,60000.0,Fri Mar 28 2025 16:29:10 GMT-0500 (Central Daylight Time),708334.3999999985,A,finte,I,e,158,1,17144.29999999702,691190.1000000015,8034,WL,A,12.0
5,39.22200012207031,learn,60000.0,Fri Mar 28 2025 16:29:10 GMT-0500 (Central Daylight Time),708434.3000000045,A,finter,I,r,95,1,17244.20000000298,691190.1000000015,8034,WL,A,12.0
5,39.78800010681152,learn,60000.0,Fri Mar 28 2025 16:29:10 GMT-0500 (Central Daylight Time),709000.8000000045,A,finte,I,backspace,547,1,17810.70000000298,691190.1000000015,8034,WL,A,12.0
5,39.90599989891052,learn,60000.0,Fri Mar 28 2025 16:29:10 GMT-0500 (Central Daylight Time),709118.5,A,fint,I,backspace,101,1,17928.39999999851,691190.1000000015,8034,WL,A,12.0
5,40.03800010681152,learn,60000.0,Fri Mar 28 2025 16:29:10 GMT-0500 (Central Daylight Time),709250.5,A,fin,I,backspace,119,1,18060.39999999851,691190.1000000015,8034,WL,A,12.0
5,40.3050000667572,learn,60000.0,Fri Mar 28 2025 16:29:10 GMT-0500 (Central Daylight Time),709517.0,A,fing,I,g,251,1,18326.89999999851,691190.1000000015,8034,WL,A,12.0
5,40.38800001144409,learn,60000.0,Fri Mar 28 2025 16:29:10 GMT-0500 (Central Daylight Time),709600.3999999985,A,finge,I,e,73,1,18410.29999999702,691190.1000000015,8034,WL,A,12.0
5,40.50500011444092,learn,60000.0,Fri Mar 28 2025 16:29:10 GMT-0500 (Central Daylight Time),709717.3000000045,A,finger,I,r,109,1,18527.20000000298,691190.1000000015,8034,WL,A,12.0
5,40.770999908447266,learn,60000.0,Fri Mar 28 2025 16:29:10 GMT-0500 (Central Daylight Time),709983.8999999985,A,fingerenter,I,enter,256,1,18793.79999999702,691190.1000000015,8034,WL,A,12.0
5,48.25200009346008,learn,60000.0,Fri Mar 28 2025 16:29:10 GMT-0500 (Central Daylight Time),717464.700000003,A,g,I,g,7470,1,7480.5,709984.200000003,8034,WL,A,13.0
5,48.45199990272522,learn,60000.0,Fri Mar 28 2025 16:29:10 GMT-0500 (Central Daylight Time),717664.8000000045,A,go,I,o,180,1,7680.60000000149,709984.200000003,8034,WL,A,13.0
5,48.61800003051758,learn,60000.0,Fri Mar 28 2025 16:29:10 GMT-0500 (Central Daylight Time),717831.200000003,A,gol,I,l,148,1,7847.0,709984.200000003,8034,WL,A,13.0
5,48.68499994277954,learn,60000.0,Fri Mar 28 2025 16:29:10 GMT-0500 (Central Daylight Time),717897.700000003,A,gold,I,d,54,1,7913.5,709984.200000003,8034,WL,A,13.0
5,49.01799988746643,learn,60000.0,Fri Mar 28 2025 16:29:10 GMT-0500 (Central Daylight Time),718231.1000000015,A,goldenter,I,enter,324,1,8246.89999999851,709984.200000003,8034,WL,A,13.0
5,54.09999990463257,learn,60000.0,Fri Mar 28 2025 16:29:10 GMT-0500 (Central Daylight Time),723313.1000000015,A,c,I,c,5071,1,5081.70000000298,718231.3999999985,8034,WL,A,14.0
5,54.26600003242493,learn,60000.0,Fri Mar 28 2025 16:29:10 GMT-0500 (Central Daylight Time),723479.3999999985,A,ch,I,h,157,1,5248.0,718231.3999999985,8034,WL,A,14.0
5,54.382999897003174,learn,60000.0,Fri Mar 28 2025 16:29:10 GMT-0500 (Central Daylight Time),723596.0,A,chi,I,i,102,1,5364.60000000149,718231.3999999985,8034,WL,A,14.0
5,54.68300008773804,learn,60000.0,Fri Mar 28 2025 16:29:10 GMT-0500 (Central Daylight Time),723895.8999999985,A,chim,I,m,290,1,5664.5,718231.3999999985,8034,WL,A,14.0
5,54.83299994468689,learn,60000.0,Fri Mar 28 2025 16:29:10 GMT-0500 (Central Daylight Time),724046.200000003,A,chimm,I,m,142,1,5814.80000000447,718231.3999999985,8034,WL,A,14.0
5,55.09999990463257,learn,60000.0,Fri Mar 28 2025 16:29:10 GMT-0500 (Central Daylight Time),724312.5,A,chimme,I,e,255,1,6081.10000000149,718231.3999999985,8034,WL,A,14.0
5,55.31599998474121,learn,60000.0,Fri Mar 28 2025 16:29:10 GMT-0500 (Central Daylight Time),724529.0,A,chimmen,I,n,205,1,6297.60000000149,718231.3999999985,8034,WL,A,14.0
5,56.199000120162964,learn,60000.0,Fri Mar 28 2025 16:29:10 GMT-0500 (Central Daylight Time),725412.1000000015,A,chimmeny,I,y,868,1,7180.70000000298,718231.3999999985,8034,WL,A,14.0
5,56.53200006484985,learn,60000.0,Fri Mar 28 2025 16:29:10 GMT-0500 (Central Daylight Time),725745.3999999985,A,chimmenyenter,I,enter,321,1,7514.0,718231.3999999985,8034,WL,A,14.0
5,65.27900004386902,learn,60000.0,Fri Mar 28 2025 16:29:10 GMT-0500 (Central Daylight Time),734492.3999999985,A,enter,I,enter,8740,1,8746.69999999553,725745.700000003,8034,WL,A,15.0
6,1.4839999675750732,distr,58516.00003242493,Fri Mar 28 2025 16:29:10 GMT-0500 (Central Daylight Time),804621.200000003,B,d,I,d,1468,1,1483.1000000014901,803138.1000000015,8034,WL,A,1.0
6,1.933000087738037,distr,58066.99991226196,Fri Mar 28 2025 16:29:10 GMT-0500 (Central Daylight Time),805070.8000000045,B,da,I,a,440,1,1932.7000000029802,803138.1000000015,8034,WL,A,1.0
6,2.0999999046325684,distr,57900.00009536743,Fri Mar 28 2025 16:29:10 GMT-0500 (Central Daylight Time),805237.200000003,B,daw,I,w,151,1,2099.10000000149,803138.1000000015,8034,WL,A,1.0
6,2.4000000953674316,distr,57599.99990463257,Fri Mar 28 2025 16:29:10 GMT-0500 (Central Daylight Time),805537.1000000015,B,dawn,I,n,288,1,2399.0,803138.1000000015,8034,WL,A,1.0
6,2.9830000400543213,distr,57016.99995994568,Fri Mar 28 2025 16:29:10 GMT-0500 (Central Daylight Time),806120.3000000045,B,dawnenter,I,enter,573,1,2982.2000000029802,803138.1000000015,8034,WL,A,1.0
6,3.4769999980926514,distr,56523.00000190735,Fri Mar 28 2025 16:29:10 GMT-0500 (Central Daylight Time),806614.3999999985,B,b,I,b,489,1,493.79999999701977,806120.6000000015,8034,WL,A,2.0
6,3.565999984741211,distr,56434.00001525879,Fri Mar 28 2025 16:29:10 GMT-0500 (Central Daylight Time),806703.1000000015,B,bo,I,o,80,1,582.5,806120.6000000015,8034,WL,A,2.0
6,3.7339999675750732,distr,56266.00003242493,Fri Mar 28 2025 16:29:10 GMT-0500 (Central Daylight Time),806871.200000003,B,bow,I,w,147,1,750.6000000014901,806120.6000000015,8034,WL,A,2.0
6,4.0320000648498535,distr,55967.99993515015,Fri Mar 28 2025 16:29:10 GMT-0500 (Central Daylight Time),807169.8000000045,B,bowl,I,l,278,1,1049.2000000029802,806120.6000000015,8034,WL,A,2.0
6,4.431999921798706,distr,55568.000078201294,Fri Mar 28 2025 16:29:10 GMT-0500 (Central Daylight Time),807569.700000003,B,bowlenter,I,enter,387,1,1449.1000000014901,806120.6000000015,8034,WL,A,2.0
6,4.815000057220459,distr,55184.99994277954,Fri Mar 28 2025 16:29:10 GMT-0500 (Central Daylight Time),807952.8000000045,B,j,I,j,364,1,382.70000000298023,807570.1000000015,8034,WL,A,3.0
6,5.014999866485596,distr,54985.000133514404,Fri Mar 28 2025 16:29:10 GMT-0500 (Central Daylight Time),808152.8999999985,B,ju,I,u,188,1,582.7999999970198,807570.1000000015,8034,WL,A,3.0
6,5.115999937057495,distr,54884.000062942505,Fri Mar 28 2025 16:29:10 GMT-0500 (Central Daylight Time),808253.0,B,jud,I,d,85,1,682.8999999985099,807570.1000000015,8034,WL,A,3.0
6,5.815000057220459,distr,54184.99994277954,Fri Mar 28 2025 16:29:10 GMT-0500 (Central Daylight Time),808952.5,B,judg,I,g,688,1,1382.3999999985099,807570.1000000015,8034,WL,A,3.0
6,5.999000072479248,distr,54000.99992752075,Fri Mar 28 2025 16:29:10 GMT-0500 (Central Daylight Time),809136.200000003,B,judge,I,e,165,1,1566.1000000014901,807570.1000000015,8034,WL,A,3.0
6,6.348999977111816,distr,53651.00002288818,Fri Mar 28 2025 16:29:10 GMT-0500 (Central Daylight Time),809485.8999999985,B,judgeenter,I,enter,342,1,1915.7999999970198,807570.1000000015,8034,WL,A,3.0
6,7.23199987411499,distr,52768.00012588501,Fri Mar 28 2025 16:29:10 GMT-0500 (Central Daylight Time),810369.1000000015,B,g,I,g,872,1,882.7999999970198,809486.3000000045,8034,WL,A,4.0
6,7.381999969482422,distr,52618.00003051758,Fri Mar 28 2025 16:29:10 GMT-0500 (Central Daylight Time),810519.200000003,B,gr,I,r,141,1,1032.8999999985099,809486.3000000045,8034,WL,A,4.0
6,7.497999906539917,distr,52502.00009346008,Fri Mar 28 2025 16:29:10 GMT-0500 (Central Daylight Time),810635.6000000015,B,gra,I,a,102,1,1149.2999999970198,809486.3000000045,8034,WL,A,4.0
6,7.63100004196167,distr,52368.99995803833,Fri Mar 28 2025 16:29:10 GMT-0500 (Central Daylight Time),810768.700000003,B,gran,I,n,114,1,1282.3999999985099,809486.3000000045,8034,WL,A,4.0
6,7.764999866485596,distr,52235.000133514404,Fri Mar 28 2025 16:29:10 GMT-0500 (Central Daylight Time),810902.0,B,granr,I,r,124,1,1415.6999999955297,809486.3000000045,8034,WL,A,4.0
6,7.7820000648498535,distr,52217.99993515015,Fri Mar 28 2025 16:29:10 GMT-0500 (Central Daylight Time),810918.8999999985,B,granrt,I,t,0,1,1432.5999999940395,809486.3000000045,8034,WL,A,4.0
6,8.381999969482422,distr,51618.00003051758,Fri Mar 28 2025 16:29:10 GMT-0500 (Central Daylight Time),811519.700000003,B,granr,I,backspace,583,1,2033.3999999985099,809486.3000000045,8034,WL,A,4.0
6,8.514999866485596,distr,51485.000133514404,Fri Mar 28 2025 16:29:10 GMT-0500 (Central Daylight Time),811652.3000000045,B,gran,I,backspace,126,1,2166.0,809486.3000000045,8034,WL,A,4.0
6,8.848000049591064,distr,51151.999950408936,Fri Mar 28 2025 16:29:10 GMT-0500 (Central Daylight Time),811985.1000000015,B,grant,I,t,321,1,2498.7999999970198,809486.3000000045,8034,WL,A,4.0
6,9.098000049591064,distr,50901.999950408936,Fri Mar 28 2025 16:29:10 GMT-0500 (Central Daylight Time),812235.1000000015,B,grantenter,I,enter,237,1,2748.7999999970198,809486.3000000045,8034,WL,A,4.0
6,9.831000089645386,distr,50168.999910354614,Fri Mar 28 2025 16:29:10 GMT-0500 (Central Daylight Time),812968.200000003,B,i,I,i,723,1,732.8999999985099,812235.3000000045,8034,WL,A,5.0
6,9.98199987411499,distr,50018.00012588501,Fri Mar 28 2025 16:29:10 GMT-0500 (Central Daylight Time),813119.3000000045,B,in,I,n,141,1,884.0,812235.3000000045,8034,WL,A,5.0
6,10.23199987411499,distr,49768.00012588501,Fri Mar 28 2025 16:29:10 GMT-0500 (Central Daylight Time),813369.200000003,B,ins,I,s,238,1,1133.8999999985099,812235.3000000045,8034,WL,A,5.0
6,10.331000089645386,distr,49668.999910354614,Fri Mar 28 2025 16:29:10 GMT-0500 (Central Daylight Time),813468.1000000015,B,inse,I,e,92,1,1232.7999999970198,812235.3000000045,8034,WL,A,5.0
6,11.246999979019165,distr,48753.000020980835,Fri Mar 28 2025 16:29:10 GMT-0500 (Central Daylight Time),814384.200000003,B,ins,I,backspace,905,1,2148.89999999851,812235.3000000045,8034,WL,A,5.0
6,11.912999868392944,distr,48087.000131607056,Fri Mar 28 2025 16:29:10 GMT-0500 (Central Daylight Time),815050.700000003,B,inse,I,e,653,1,2815.39999999851,812235.3000000045,8034,WL,A,5.0
6,12.11299991607666,distr,47887.00008392334,Fri Mar 28 2025 16:29:10 GMT-0500 (Central Daylight Time),815250.8000000045,B,insec,I,c,187,1,3015.5,812235.3000000045,8034,WL,A,5.0
6,12.312999963760376,distr,47687.000036239624,Fri Mar 28 2025 16:29:10 GMT-0500 (Central Daylight Time),815450.700000003,B,insect,I,t,186,1,3215.39999999851,812235.3000000045,8034,WL,A,5.0
6,12.579999923706055,distr,47420.000076293945,Fri Mar 28 2025 16:29:10 GMT-0500 (Central Daylight Time),815717.3999999985,B,insectenter,I,enter,251,1,3482.0999999940395,812235.3000000045,8034,WL,A,5.0
6,12.963000059127808,distr,47036.99994087219,Fri Mar 28 2025 16:29:10 GMT-0500 (Central Daylight Time),816100.3999999985,B,c,I,c,368,1,382.69999999552965,815717.700000003,8034,WL,A,6.0
6,13.180000066757202,distr,46819.9999332428,Fri Mar 28 2025 16:29:10 GMT-0500 (Central Daylight Time),816317.0,B,co,I,o,209,1,599.2999999970198,815717.700000003,8034,WL,A,6.0
6,13.296000003814697,distr,46703.9999961853,Fri Mar 28 2025 16:29:10 GMT-0500 (Central Daylight Time),816433.6000000015,B,cou,I,u,97,1,715.8999999985099,815717.700000003,8034,WL,A,6.0
6,13.496000051498413,distr,46503.99994850159,Fri Mar 28 2025 16:29:10 GMT-0500 (Central Daylight Time),816633.700000003,B,coun,I,n,180,1,916.0,815717.700000003,8034,WL,A,6.0
6,13.696000099182129,distr,46303.99990081787,Fri Mar 28 2025 16:29:10 GMT-0500 (Central Daylight Time),816833.5,B,count,I,t,188,1,1115.7999999970198,815717.700000003,8034,WL,A,6.0
6,13.86299991607666,distr,46137.00008392334,Fri Mar 28 2025 16:29:10 GMT-0500 (Central Daylight Time),817000.3000000045,B,countr,I,r,148,1,1282.6000000014901,815717.700000003,8034,WL,A,6.0
6,14.062999963760376,distr,45937.000036239624,Fri Mar 28 2025 16:29:10 GMT-0500 (Central Daylight Time),817200.200000003,B,country,I,y,181,1,1482.5,815717.700000003,8034,WL,A,6.0
6,14.628999948501587,distr,45371.00005149841,Fri Mar 28 2025 16:29:10 GMT-0500 (Central Daylight Time),817766.5,B,countryenter,I,enter,549,1,2048.7999999970198,815717.700000003,8034,WL,A,6.0
6,15.34500002861023,distr,44654.99997138977,Fri Mar 28 2025 16:29:10 GMT-0500 (Central Daylight Time),818482.8999999985,B,p,I,p,711,1,716.0999999940395,817766.8000000045,8034,WL,A,7.0
6,15.529000043869019,distr,44470.99995613098,Fri Mar 28 2025 16:29:10 GMT-0500 (Central Daylight Time),818666.3000000045,B,po,I,o,171,1,899.5,817766.8000000045,8034,WL,A,7.0
6,15.661999940872192,distr,44338.00005912781,Fri Mar 28 2025 16:29:10 GMT-0500 (Central Daylight Time),818799.6000000015,B,poo,I,o,123,1,1032.7999999970198,817766.8000000045,8034,WL,A,7.0
6,15.895999908447266,distr,44104.000091552734,Fri Mar 28 2025 16:29:10 GMT-0500 (Central Daylight Time),819033.0,B,pool,I,l,222,1,1266.1999999955297,817766.8000000045,8034,WL,A,7.0
6,16.244999885559082,distr,43755.00011444092,Fri Mar 28 2025 16:29:10 GMT-0500 (Central Daylight Time),819382.8000000045,B,poolenter,I,enter,341,1,1616.0,817766.8000000045,8034,WL,A,7.0
6,17.444999933242798,distr,42555.0000667572,Fri Mar 28 2025 16:29:10 GMT-0500 (Central Daylight Time),820582.3000000045,B,i,I,i,1183,1,1199.1000000014901,819383.200000003,8034,WL,A,8.0
6,17.562000036239624,distr,42437.999963760376,Fri Mar 28 2025 16:29:10 GMT-0500 (Central Daylight Time),820699.1000000015,B,in,I,n,103,1,1315.8999999985099,819383.200000003,8034,WL,A,8.0
6,18.144999980926514,distr,41855.000019073486,Fri Mar 28 2025 16:29:10 GMT-0500 (Central Daylight Time),821282.1000000015,B,i,I,backspace,563,1,1898.8999999985099,819383.200000003,8034,WL,A,8.0
6,18.26200008392334,distr,41737.99991607666,Fri Mar 28 2025 16:29:10 GMT-0500 (Central Daylight Time),821399.3000000045,B,,I,backspace,99,1,2016.1000000014901,819383.200000003,8034,WL,A,8.0
6,19.628000020980835,distr,40371.999979019165,Fri Mar 28 2025 16:29:10 GMT-0500 (Central Daylight Time),822765.0,B,s,I,s,1358,1,3381.7999999970198,819383.200000003,8034,WL,A,8.0
6,19.82800006866455,distr,40171.99993133545,Fri Mar 28 2025 16:29:10 GMT-0500 (Central Daylight Time),822965.0,B,sh,I,h,185,1,3581.7999999970198,819383.200000003,8034,WL,A,8.0
6,19.89400005340576,distr,40105.99994659424,Fri Mar 28 2025 16:29:10 GMT-0500 (Central Daylight Time),823031.6000000015,B,she,I,e,57,1,3648.39999999851,819383.200000003,8034,WL,A,8.0
6,20.01099991798401,distr,39989.00008201599,Fri Mar 28 2025 16:29:10 GMT-0500 (Central Daylight Time),823148.3000000045,B,shee,I,e,110,1,3765.10000000149,819383.200000003,8034,WL,A,8.0
6,20.161999940872192,distr,39838.00005912781,Fri Mar 28 2025 16:29:10 GMT-0500 (Central Daylight Time),823299.3999999985,B,sheep,I,p,130,1,3916.1999999955297,819383.200000003,8034,WL,A,8.0
6,21.026999950408936,distr,38973.000049591064,Fri Mar 28 2025 16:29:10 GMT-0500 (Central Daylight Time),824164.700000003,B,sheepenter,I,enter,850,1,4781.5,819383.200000003,8034,WL,A,8.0
6,21.694000005722046,distr,38305.999994277954,Fri Mar 28 2025 16:29:10 GMT-0500 (Central Daylight Time),824831.0,B,i,I,i,657,1,666.1000000014901,824164.8999999985,8034,WL,A,9.0
6,21.792999982833862,distr,38207.00001716614,Fri Mar 28 2025 16:29:10 GMT-0500 (Central Daylight Time),824930.8000000045,B,in,I,n,94,1,765.9000000059605,824164.8999999985,8034,WL,A,9.0
6,21.97699999809265,distr,38023.00000190735,Fri Mar 28 2025 16:29:10 GMT-0500 (Central Daylight Time),825114.200000003,B,ins,I,s,171,1,949.3000000044703,824164.8999999985,8034,WL,A,9.0
6,22.109999895095825,distr,37890.000104904175,Fri Mar 28 2025 16:29:10 GMT-0500 (Central Daylight Time),825247.6000000015,B,inse,I,e,115,1,1082.7000000029802,824164.8999999985,8034,WL,A,9.0
6,22.57699990272522,distr,37423.00009727478,Fri Mar 28 2025 16:29:10 GMT-0500 (Central Daylight Time),825714.5,B,insec,I,c,461,1,1549.6000000014901,824164.8999999985,8034,WL,A,9.0
6,22.759999990463257,distr,37240.00000953674,Fri Mar 28 2025 16:29:10 GMT-0500 (Central Daylight Time),825897.3999999985,B,insect,I,t,171,1,1732.5,824164.8999999985,8034,WL,A,9.0
6,23.07699990272522,distr,36923.00009727478,Fri Mar 28 2025 16:29:10 GMT-0500 (Central Daylight Time),826213.8999999985,B,insectenter,I,enter,308,1,2049.0,824164.8999999985,8034,WL,A,9.0
6,38.65400004386902,distr,21345.99995613098,Fri Mar 28 2025 16:29:10 GMT-0500 (Central Daylight Time),841792.3000000045,B,enter,I,enter,15560,1,15578.10000000149,826214.200000003,8034,WL,A,10.0
6,43.38599991798401,distr,16614.00008201599,Fri Mar 28 2025 16:29:10 GMT-0500 (Central Daylight Time),846524.200000003,B,enter,I,enter,4725,1,4731.60000000149,841792.6000000015,8034,WL,A,11.0
6,43.65299987792969,distr,16347.000122070312,Fri Mar 28 2025 16:29:10 GMT-0500 (Central Daylight Time),846790.8999999985,B,enter,I,enter,249,1,266.29999999701977,846524.6000000015,8034,WL,A,12.0
6,43.86999988555908,distr,16130.000114440918,Fri Mar 28 2025 16:29:10 GMT-0500 (Central Daylight Time),847007.6000000015,B,enter,I,enter,199,1,216.29999999701977,846791.3000000045,8034,WL,A,13.0
6,44.069000005722046,distr,15930.999994277954,Fri Mar 28 2025 16:29:10 GMT-0500 (Central Daylight Time),847207.200000003,B,enter,I,enter,190,1,199.10000000149012,847008.1000000015,8034,WL,A,14.0
6,44.486000061035156,distr,15513.999938964844,Fri Mar 28 2025 16:29:10 GMT-0500 (Central Daylight Time),847624.1000000015,B,enter,I,enter,405,1,416.6000000014901,847207.5,8034,WL,A,15.0
7,1.6659998893737793,immed,58334.00011062622,Fri Mar 28 2025 16:29:10 GMT-0500 (Central Daylight Time),866634.3999999985,A,b,I,b,1662,1,1665.5999999940395,864968.8000000045,8034,WL,A,1.0
7,1.8329999446868896,immed,58167.00005531311,Fri Mar 28 2025 16:29:10 GMT-0500 (Central Daylight Time),866801.3999999985,A,bo,I,o,146,1,1832.5999999940395,864968.8000000045,8034,WL,A,1.0
7,1.998999834060669,immed,58001.00016593933,Fri Mar 28 2025 16:29:10 GMT-0500 (Central Daylight Time),866967.8999999985,A,boo,I,o,148,1,1999.0999999940395,864968.8000000045,8034,WL,A,1.0
7,2.232999801635742,immed,57767.00019836426,Fri Mar 28 2025 16:29:10 GMT-0500 (Central Daylight Time),867201.3999999985,A,book,I,k,214,1,2232.5999999940395,864968.8000000045,8034,WL,A,1.0
7,2.6489999294281006,immed,57351.0000705719,Fri Mar 28 2025 16:29:10 GMT-0500 (Central Daylight Time),867617.8000000045,A,bookenter,I,enter,404,1,2649.0,864968.8000000045,8034,WL,A,1.0
7,3.3489999771118164,immed,56651.00002288818,Fri Mar 28 2025 16:29:10 GMT-0500 (Central Daylight Time),868317.3999999985,A,f,I,f,692,1,699.3999999985099,867618.0,8034,WL,A,2.0
7,3.497999906539917,immed,56502.00009346008,Fri Mar 28 2025 16:29:10 GMT-0500 (Central Daylight Time),868467.1000000015,A,fl,I,l,144,1,849.1000000014901,867618.0,8034,WL,A,2.0
7,3.6649999618530273,immed,56335.00003814697,Fri Mar 28 2025 16:29:10 GMT-0500 (Central Daylight Time),868634.1000000015,A,flo,I,o,155,1,1016.1000000014901,867618.0,8034,WL,A,2.0
7,3.7649998664855957,immed,56235.000133514404,Fri Mar 28 2025 16:29:10 GMT-0500 (Central Daylight Time),868733.8999999985,A,flow,I,w,92,1,1115.8999999985099,867618.0,8034,WL,A,2.0
7,3.865000009536743,immed,56134.99999046326,Fri Mar 28 2025 16:29:10 GMT-0500 (Central Daylight Time),868834.200000003,A,flowe,I,e,80,1,1216.2000000029802,867618.0,8034,WL,A,2.0
7,3.998999834060669,immed,56001.00016593933,Fri Mar 28 2025 16:29:10 GMT-0500 (Central Daylight Time),868967.5,A,flower,I,r,115,1,1349.5,867618.0,8034,WL,A,2.0
7,4.281999826431274,immed,55718.000173568726,Fri Mar 28 2025 16:29:10 GMT-0500 (Central Daylight Time),869250.3999999985,A,flowerenter,I,enter,262,1,1632.3999999985099,867618.0,8034,WL,A,2.0
7,4.881999969482422,immed,55118.00003051758,Fri Mar 28 2025 16:29:10 GMT-0500 (Central Daylight Time),869850.5,A,t,I,t,587,1,599.7999999970198,869250.700000003,8034,WL,A,3.0
7,5.014999866485596,immed,54985.000133514404,Fri Mar 28 2025 16:29:10 GMT-0500 (Central Daylight Time),869983.6000000015,A,tr,I,r,123,1,732.8999999985099,869250.700000003,8034,WL,A,3.0
7,5.081999778747559,immed,54918.00022125244,Fri Mar 28 2025 16:29:10 GMT-0500 (Central Daylight Time),870050.3999999985,A,tra,I,a,62,1,799.6999999955297,869250.700000003,8034,WL,A,3.0
7,5.148000001907349,immed,54851.99999809265,Fri Mar 28 2025 16:29:10 GMT-0500 (Central Daylight Time),870117.0,A,trai,I,i,59,1,866.2999999970198,869250.700000003,8034,WL,A,3.0
7,5.331999778747559,immed,54668.00022125244,Fri Mar 28 2025 16:29:10 GMT-0500 (Central Daylight Time),870300.3999999985,A,train,I,n,169,1,1049.6999999955297,869250.700000003,8034,WL,A,3.0
7,5.615000009536743,immed,54384.99999046326,Fri Mar 28 2025 16:29:10 GMT-0500 (Central Daylight Time),870583.3999999985,A,trainenter,I,enter,273,1,1332.6999999955297,869250.700000003,8034,WL,A,3.0
7,6.097999811172485,immed,53902.000188827515,Fri Mar 28 2025 16:29:10 GMT-0500 (Central Daylight Time),871066.5,A,r,I,r,478,1,482.79999999701977,870583.700000003,8034,WL,A,4.0
7,6.2809998989105225,immed,53719.00010108948,Fri Mar 28 2025 16:29:10 GMT-0500 (Central Daylight Time),871249.8999999985,A,ru,I,u,163,1,666.1999999955297,870583.700000003,8034,WL,A,4.0
7,6.447999954223633,immed,53552.00004577637,Fri Mar 28 2025 16:29:10 GMT-0500 (Central Daylight Time),871416.5,A,rug,I,g,148,1,832.7999999970198,870583.700000003,8034,WL,A,4.0
7,6.71399998664856,immed,53286.00001335144,Fri Mar 28 2025 16:29:10 GMT-0500 (Central Daylight Time),871683.1000000015,A,rugenter,I,enter,261,1,1099.3999999985099,870583.700000003,8034,WL,A,4.0
7,7.363999843597412,immed,52636.00015640259,Fri Mar 28 2025 16:29:10 GMT-0500 (Central Daylight Time),872332.8000000045,A,o,I,o,643,1,649.4000000059605,871683.3999999985,8034,WL,A,5.0
7,7.513999938964844,immed,52486.000061035156,Fri Mar 28 2025 16:29:10 GMT-0500 (Central Daylight Time),872482.6000000015,A,or,I,r,145,1,799.2000000029802,871683.3999999985,8034,WL,A,5.0
7,7.746999979019165,immed,52253.000020980835,Fri Mar 28 2025 16:29:10 GMT-0500 (Central Daylight Time),872715.8000000045,A,orc,I,c,227,1,1032.4000000059605,871683.3999999985,8034,WL,A,5.0
7,7.896999835968018,immed,52103.00016403198,Fri Mar 28 2025 16:29:10 GMT-0500 (Central Daylight Time),872865.8000000045,A,orch,I,h,130,1,1182.4000000059605,871683.3999999985,8034,WL,A,5.0
7,7.996999979019165,immed,52003.000020980835,Fri Mar 28 2025 16:29:10 GMT-0500 (Central Daylight Time),872966.0,A,orcha,I,a,83,1,1282.6000000014901,871683.3999999985,8034,WL,A,5.0
7,8.063999891281128,immed,51936.00010871887,Fri Mar 28 2025 16:29:10 GMT-0500 (Central Daylight Time),873032.6000000015,A,orchar,I,r,55,1,1349.2000000029802,871683.3999999985,8034,WL,A,5.0
7,8.329999923706055,immed,51670.000076293945,Fri Mar 28 2025 16:29:10 GMT-0500 (Central Daylight Time),873299.1000000015,A,orchard,I,d,253,1,1615.7000000029802,871683.3999999985,8034,WL,A,5.0
7,8.662999868392944,immed,51337.000131607056,Fri Mar 28 2025 16:29:10 GMT-0500 (Central Daylight Time),873632.3000000045,A,orchardenter,I,enter,314,1,1948.9000000059605,871683.3999999985,8034,WL,A,5.0
7,9.379999876022339,immed,50620.00012397766,Fri Mar 28 2025 16:29:10 GMT-0500 (Central Daylight Time),874349.0,A,m,I,m,709,1,716.3999999985099,873632.6000000015,8034,WL,A,6.0
7,9.512999773025513,immed,50487.00022697449,Fri Mar 28 2025 16:29:10 GMT-0500 (Central Daylight Time),874482.1000000015,A,me,I,e,128,1,849.5,873632.6000000015,8034,WL,A,6.0
7,9.829999923706055,immed,50170.000076293945,Fri Mar 28 2025 16:29:10 GMT-0500 (Central Daylight Time),874799.0,A,med,I,d,300,1,1166.3999999985099,873632.6000000015,8034,WL,A,6.0
7,10.229999780654907,immed,49770.00021934509,Fri Mar 28 2025 16:29:10 GMT-0500 (Central Daylight Time),875198.700000003,A,medo,I,o,383,1,1566.1000000014901,873632.6000000015,8034,WL,A,6.0
7,10.379999876022339,immed,49620.00012397766,Fri Mar 28 2025 16:29:10 GMT-0500 (Central Daylight Time),875348.5,A,medow,I,w,135,1,1715.8999999985099,873632.6000000015,8034,WL,A,6.0
7,10.762999773025513,immed,49237.00022697449,Fri Mar 28 2025 16:29:10 GMT-0500 (Central Daylight Time),875731.8000000045,A,medowenter,I,enter,369,1,2099.2000000029802,873632.6000000015,8034,WL,A,6.0
7,11.012999773025513,immed,48987.00022697449,Fri Mar 28 2025 16:29:10 GMT-0500 (Central Daylight Time),875981.6000000015,A,a,I,a,234,1,249.5,875732.1000000015,8034,WL,A,7.0
7,11.128999948501587,immed,48871.00005149841,Fri Mar 28 2025 16:29:10 GMT-0500 (Central Daylight Time),876098.3000000045,A,ap,I,p,104,1,366.20000000298023,875732.1000000015,8034,WL,A,7.0
7,11.27899980545044,immed,48721.00019454956,Fri Mar 28 2025 16:29:10 GMT-0500 (Central Daylight Time),876248.200000003,A,app,I,p,131,1,516.1000000014901,875732.1000000015,8034,WL,A,7.0
