acc_sum,block,block_c,condition,correct,correct_response,datetime,endtime,flanker,jitter,project,response,response_test_buffer_response,response_test_target_response,response_time,response_time_test_buffer_response,response_time_test_target_response,row_sel,session_number,start_end,starttime,subject_id,target,task,task_vers,time_test_buffer,time_test_buffer_response,time_test_constants,time_test_flanker,time_test_jitter,time_test_logger,time_test_target,time_test_target_response,time_test_variables,trial
1,prac,1,con,1,z,Thu Apr 17 2025 16:57:18 GMT-0500 (Central Daylight Time),92879.09999996424,elated,800,O,z,,,726,,,9,1,2824.399999976158,90054.69999998808,7130,elated,AF,B,,,,,,,,,,1
2,prac,1,con,1,z,Thu Apr 17 2025 16:57:18 GMT-0500 (Central Daylight Time),95594.79999995232,brutal,800,O,z,,,598,,,13,1,2687.5,92907.29999995232,7130,brutal,AF,B,,,,,,,,,,2
3,prac,1,con,1,z,Thu Apr 17 2025 16:57:18 GMT-0500 (Central Daylight Time),98543.39999997616,rage,1000,O,z,,,626,,,15,1,2923.100000023842,95620.29999995232,7130,rage,AF,B,,,,,,,,,,3
4,prac,1,con,1,m,Thu Apr 17 2025 16:57:18 GMT-0500 (Central Daylight Time),101259.39999997616,step,800,O,m,,,598,,,1,1,2695.600000023842,98563.79999995232,7130,step,AF,B,,,,,,,,,,4
5,prac,1,con,1,m,Thu Apr 17 2025 16:57:18 GMT-0500 (Central Daylight Time),104675.0,bell,1000,O,m,,,1082,,,3,1,3390.100000023842,101284.89999997616,7130,bell,AF,B,,,,,,,,,,5
6,prac,1,inc,1,m,Thu Apr 17 2025 16:57:18 GMT-0500 (Central Daylight Time),107923.89999997616,hate,1100,O,m,,,821,,,4,1,3224.600000023842,104699.29999995232,7130,film,AF,B,,,,,,,,,,6
7,prac,1,con,1,z,Thu Apr 17 2025 16:57:18 GMT-0500 (Central Daylight Time),110923.29999995232,love,1000,O,z,,,679,,,11,1,2975.2999999523163,107948.0,7130,love,AF,B,,,,,,,,,,7
8,prac,1,inc,1,z,Thu Apr 17 2025 16:57:18 GMT-0500 (Central Daylight Time),114038.79999995232,film,900,O,z,,,885,,,14,1,3091.0,110947.79999995232,7130,hate,AF,B,,,,,,,,,,8
9,prac,1,inc,1,z,Thu Apr 17 2025 16:57:18 GMT-0500 (Central Daylight Time),117220.29999995232,window,1100,O,z,,,762,,,16,1,3157.7999999523163,114062.5,7130,temper,AF,B,,,,,,,,,,9
10,prac,1,con,1,m,Thu Apr 17 2025 16:57:18 GMT-0500 (Central Daylight Time),120786.09999996424,remote,1000,O,m,,,1256,,,7,1,3554.699999988079,117231.39999997616,7130,remote,AF,B,,,,,,,,,,10
11,prac,1,con,1,m,Thu Apr 17 2025 16:57:18 GMT-0500 (Central Daylight Time),123651.89999997616,jacket,800,O,m,,,746,,,5,1,2840.0,120811.89999997616,7130,jacket,AF,B,,,,,,,,,,11
12,prac,1,inc,1,m,Thu Apr 17 2025 16:57:18 GMT-0500 (Central Daylight Time),126868.0,brutal,1100,O,m,,,799,,,8,1,3195.300000011921,123672.69999998808,7130,window,AF,B,,,,,,,,,,12
13,prac,1,inc,1,z,Thu Apr 17 2025 16:57:18 GMT-0500 (Central Daylight Time),130266.5,rock,900,O,z,,,1165,,,10,1,3373.800000011921,126892.69999998808,7130,kind,AF,B,,,,,,,,,,13
13,prac,1,inc,0,z,Thu Apr 17 2025 16:57:18 GMT-0500 (Central Daylight Time),133532.0,napkin,1100,O,m,,,847,,,12,1,3242.800000011921,130289.19999998808,7130,friend,AF,B,,,,,,,,,,14
14,prac,1,inc,1,m,Thu Apr 17 2025 16:57:18 GMT-0500 (Central Daylight Time),136614.59999996424,kind,900,O,m,,,852,,,2,1,3060.099999964237,133554.5,7130,rock,AF,B,,,,,,,,,,15
15,prac,1,inc,1,m,Thu Apr 17 2025 16:57:18 GMT-0500 (Central Daylight Time),139663.19999998808,elated,900,O,m,,,826,,,6,1,3030.5,136632.69999998808,7130,napkin,AF,B,,,,,,,,,,16
1,test,1,inc,1,m,Thu Apr 17 2025 16:57:18 GMT-0500 (Central Daylight Time),152693.39999997616,friend,1100,O,m,m,None,747,532.0,215.0,104,1,2381.199999988079,150312.19999998808,7130,jacket,AF,B,148859,148859,147011,148126,147012,149393,148643,148643,149392,1
2,test,1,con,1,m,Thu Apr 17 2025 16:57:18 GMT-0500 (Central Daylight Time),154825.19999998808,jacket,900,O,m,m,None,668,469.0,199.0,98,1,2112.199999988079,152713.0,7130,jacket,AF,B,151042,151042,149412,150325,149413,151524,150842,150842,151524,2
3,test,1,inc,1,m,Thu Apr 17 2025 16:57:18 GMT-0500 (Central Daylight Time),156924.29999995232,elated,800,O,m,m,None,739,524.0,215.0,117,1,2076.599999964237,154847.69999998808,7130,remote,AF,B,153091,153091,151547,152358,151549,153623,152875,152875,153623,3
4,test,1,con,1,z,Thu Apr 17 2025 16:57:18 GMT-0500 (Central Daylight Time),159157.0,hate,900,O,z,z,None,772,557.0,215.0,42,1,2212.900000035763,156944.09999996424,7130,hate,AF,B,155289,155290,153643,154558,153644,155856,155074,155074,155856,4
5,test,1,con,1,m,Thu Apr 17 2025 16:57:18 GMT-0500 (Central Daylight Time),161489.39999997616,step,900,O,m,m,None,876,661.0,215.0,66,1,2308.600000023842,159180.79999995232,7130,step,AF,B,157523,157523,155880,156790,155882,158189,157307,157307,158188,5
5,test,1,con,0,z,Thu Apr 17 2025 16:57:18 GMT-0500 (Central Daylight Time),163722.09999996424,friend,800,O,m,m,None,875,676.0,199.0,25,1,2214.899999976158,161507.19999998808,7130,friend,AF,B,159739,159739,158206,159022,158207,160421,159539,159539,160421,6
6,test,1,con,1,z,Thu Apr 17 2025 16:57:18 GMT-0500 (Central Daylight Time),166005.09999996424,love,900,O,z,z,None,830,615.0,215.0,18,1,2260.699999988079,163744.39999997616,7130,love,AF,B,162088,162088,160443,161355,160445,162704,161872,161872,162704,7
7,test,1,con,1,z,Thu Apr 17 2025 16:57:18 GMT-0500 (Central Daylight Time),168987.5,friend,900,O,z,z,None,1516,1317.0,199.0,26,1,2958.0,166029.5,7130,friend,AF,B,164354,164354,162729,163638,162730,165687,164154,164154,165686,8
8,test,1,con,1,z,Thu Apr 17 2025 16:57:18 GMT-0500 (Central Daylight Time),171237.0,elated,1100,O,z,z,None,597,382.0,215.0,4,1,2225.100000023842,169011.89999997616,7130,elated,AF,B,167553,167553,165711,166820,165713,167936,167337,167337,167936,9
9,test,1,inc,1,z,Thu Apr 17 2025 16:57:18 GMT-0500 (Central Daylight Time),173669.59999996424,napkin,900,O,z,z,None,981,782.0,199.0,62,1,2411.099999964237,171258.5,7130,temper,AF,B,169586,169586,167958,168869,167959,170369,169386,169386,170369,10
10,test,1,inc,1,z,Thu Apr 17 2025 16:57:18 GMT-0500 (Central Daylight Time),176068.39999997616,bell,1000,O,z,z,None,831,616.0,215.0,15,1,2376.699999988079,173691.69999998808,7130,kind,AF,B,172135,172135,170391,171402,170393,172768,171919,171919,172767,11
11,test,1,inc,1,m,Thu Apr 17 2025 16:57:18 GMT-0500 (Central Daylight Time),178500.39999997616,hate,1100,O,m,m,None,772,557.0,215.0,96,1,2410.0,176090.39999997616,7130,film,AF,B,174634,174634,172789,173900,172791,175200,174418,174418,175199,12
12,test,1,inc,1,m,Thu Apr 17 2025 16:57:18 GMT-0500 (Central Daylight Time),180783.0,love,1000,O,m,m,None,720,521.0,199.0,87,1,2260.900000035763,178522.09999996424,7130,bell,AF,B,176950,176950,175221,176233,175223,177482,176750,176750,177482,13
13,test,1,con,1,z,Thu Apr 17 2025 16:57:18 GMT-0500 (Central Daylight Time),183165.69999998808,brutal,1100,O,z,z,None,721,506.0,215.0,36,1,2361.199999988079,180804.5,7130,brutal,AF,B,179349,179349,177504,178616,177506,179865,179133,179133,179865,14
14,test,1,inc,1,m,Thu Apr 17 2025 16:57:18 GMT-0500 (Central Daylight Time),185365.0,rage,800,O,m,m,None,840,641.0,199.0,69,1,2176.0,183189.0,7130,step,AF,B,181415,181415,179888,180698,179890,182064,181215,181215,182064,15
15,test,1,inc,1,z,Thu Apr 17 2025 16:57:18 GMT-0500 (Central Daylight Time),187697.79999995232,rock,900,O,z,z,None,875,660.0,215.0,22,1,2310.399999976158,185387.39999997616,7130,love,AF,B,183731,183731,182086,182998,182088,184397,183515,183515,184397,16
16,test,1,con,1,z,Thu Apr 17 2025 16:57:18 GMT-0500 (Central Daylight Time),189896.79999995232,rage,800,O,z,z,None,835,636.0,199.0,49,1,2177.899999976158,187718.89999997616,7130,rage,AF,B,185947,185947,184418,185231,184420,186596,185747,185747,186596,17
17,test,1,con,1,m,Thu Apr 17 2025 16:57:18 GMT-0500 (Central Daylight Time),192029.29999995232,napkin,900,O,m,m,None,680,481.0,199.0,106,1,2111.599999964237,189917.69999998808,7130,napkin,AF,B,188246,188246,186617,187530,186619,188728,188046,188046,188728,18
18,test,1,con,1,m,Thu Apr 17 2025 16:57:18 GMT-0500 (Central Daylight Time),194028.59999996424,step,800,O,m,m,None,639,440.0,199.0,65,1,1977.0,192051.59999996424,7130,step,AF,B,190279,190279,188751,189561,188753,190728,190079,190079,190728,19
19,test,1,con,1,m,Thu Apr 17 2025 16:57:18 GMT-0500 (Central Daylight Time),196211.39999997616,bell,1000,O,m,m,None,625,426.0,199.0,83,1,2161.100000023842,194050.29999995232,7130,bell,AF,B,192478,192478,190749,191762,190751,192911,192277,192278,192910,20
20,test,1,inc,1,m,Thu Apr 17 2025 16:57:18 GMT-0500 (Central Daylight Time),198561.0,friend,1100,O,m,m,None,685,486.0,199.0,112,1,2327.900000035763,196233.09999996424,7130,napkin,AF,B,194761,194761,192932,194044,192934,195260,194561,194561,195260,21
21,test,1,con,1,z,Thu Apr 17 2025 16:57:18 GMT-0500 (Central Daylight Time),200709.59999996424,love,1100,O,z,z,None,496,297.0,199.0,20,1,2126.199999988079,198583.39999997616,7130,love,AF,B,197110,197110,195282,196393,195283,197409,196910,196910,197409,22
22,test,1,inc,1,z,Thu Apr 17 2025 16:57:18 GMT-0500 (Central Daylight Time),203092.69999998808,remote,1000,O,z,z,None,822,607.0,215.0,63,1,2360.800000011921,200731.89999997616,7130,temper,AF,B,199176,199176,197431,198443,197433,199792,198960,198960,199792,23
22,test,1,con,0,z,Thu Apr 17 2025 16:57:18 GMT-0500 (Central Daylight Time),205541.5,friend,1100,O,m,m,None,788,589.0,199.0,28,1,2428.2000000476837,203113.29999995232,7130,friend,AF,B,201641,201642,199812,200926,199813,202241,201442,201442,202240,24
23,test,1,con,1,m,Thu Apr 17 2025 16:57:18 GMT-0500 (Central Daylight Time),207907.59999996424,step,1000,O,m,m,None,799,600.0,199.0,67,1,2344.0,205563.59999996424,7130,step,AF,B,203991,203991,202263,203275,202264,204607,203791,203791,204607,25
24,test,1,inc,1,z,Thu Apr 17 2025 16:57:18 GMT-0500 (Central Daylight Time),210123.59999996424,bell,1000,O,z,z,None,656,442.0,214.0,23,1,2193.699999988079,207929.89999997616,7130,love,AF,B,206373,206373,204629,205641,204631,206823,206158,206158,206823,26
25,test,1,con,1,m,Thu Apr 17 2025 16:57:18 GMT-0500 (Central Daylight Time),212572.39999997616,window,1000,O,m,m,None,889,690.0,199.0,123,1,2426.5,210145.89999997616,7130,window,AF,B,208573,208573,206845,207856,206847,209271,208373,208373,209271,27
26,test,1,inc,1,z,Thu Apr 17 2025 16:57:18 GMT-0500 (Central Daylight Time),214971.89999997616,film,1100,O,z,z,None,757,558.0,199.0,24,1,2385.600000023842,212586.29999995232,7130,love,AF,B,211105,211105,209285,210389,209287,211671,210905,210905,211671,28
27,test,1,inc,1,z,Thu Apr 17 2025 16:57:18 GMT-0500 (Central Daylight Time),217388.0,rock,900,O,z,z,None,957,758.0,199.0,14,1,2396.400000035763,214991.59999996424,7130,kind,AF,B,213321,213321,211691,212603,211692,214087,213121,213121,214087,29
28,test,1,con,1,z,Thu Apr 17 2025 16:57:18 GMT-0500 (Central Daylight Time),219770.79999995232,kind,1100,O,z,z,None,716,501.0,215.0,12,1,2361.699999988079,217409.09999996424,7130,kind,AF,B,215953,215954,214108,215221,214110,216470,215738,215738,216470,30
29,test,1,inc,1,m,Thu Apr 17 2025 16:57:18 GMT-0500 (Central Daylight Time),221869.59999996424,elated,800,O,m,m,None,738,539.0,199.0,101,1,2077.800000011921,219791.79999995232,7130,jacket,AF,B,218020,218020,216491,217303,216492,218569,217820,217820,218569,31
29,test,1,con,0,m,Thu Apr 17 2025 16:57:18 GMT-0500 (Central Daylight Time),225285.19999998808,remote,1100,O,z,z,None,1764,1565.0,199.0,116,1,3395.300000011921,221889.89999997616,7130,remote,AF,B,220419,220419,218589,219703,218590,221984,220219,220219,221984,32
30,test,1,inc,1,z,Thu Apr 17 2025 16:57:18 GMT-0500 (Central Daylight Time),228017.59999996424,jacket,800,O,z,z,None,1376,1161.0,215.0,29,1,2712.199999988079,225305.39999997616,7130,friend,AF,B,223550,223550,222004,222818,222006,224717,223335,223335,224717,33
31,test,1,inc,1,m,Thu Apr 17 2025 16:57:18 GMT-0500 (Central Daylight Time),230100.5,rage,800,O,m,m,None,716,517.0,199.0,93,1,2062.0,228038.5,7130,film,AF,B,226267,226267,224737,225551,224739,226800,226067,226067,226799,34
32,test,1,inc,1,z,Thu Apr 17 2025 16:57:18 GMT-0500 (Central Daylight Time),232682.59999996424,napkin,900,O,z,z,None,1124,909.0,215.0,30,1,2560.0,230122.59999996424,7130,friend,AF,B,228466,228466,226822,227733,226823,229382,228250,228250,229382,35
33,test,1,inc,1,z,Thu Apr 17 2025 16:57:18 GMT-0500 (Central Daylight Time),235181.69999998808,window,1100,O,z,z,None,846,647.0,199.0,40,1,2478.5,232703.19999998808,7130,brutal,AF,B,231232,231232,229402,230516,229404,231881,231032,231032,231881,36
34,test,1,con,1,z,Thu Apr 17 2025 16:57:18 GMT-0500 (Central Daylight Time),237947.79999995232,kind,1000,O,z,z,None,1207,1007.0,200.0,11,1,2746.0,235201.79999995232,7130,kind,AF,B,233632,233632,231901,232915,231903,234647,233431,233431,234647,37
35,test,1,inc,1,z,Thu Apr 17 2025 16:57:18 GMT-0500 (Central Daylight Time),240513.59999996424,remote,1000,O,z,z,None,1001,802.0,199.0,31,1,2545.199999988079,237968.39999997616,7130,friend,AF,B,236397,236397,234667,235681,234669,237213,236197,236197,237213,38
36,test,1,con,1,m,Thu Apr 17 2025 16:57:18 GMT-0500 (Central Daylight Time),242796.0,film,1000,O,m,m,None,725,525.0,200.0,91,1,2261.0,240535.0,7130,film,AF,B,238962,238962,237234,238246,237236,239495,238762,238762,239495,39
37,test,1,inc,1,z,Thu Apr 17 2025 16:57:18 GMT-0500 (Central Daylight Time),245295.29999995232,remote,1000,O,z,z,None,936,737.0,199.0,7,1,2478.099999964237,242817.19999998808,7130,elated,AF,B,241245,241246,239516,240529,239518,241994,241045,241046,241994,40
38,test,1,inc,1,m,Thu Apr 17 2025 16:57:18 GMT-0500 (Central Daylight Time),247411.19999998808,rage,800,O,m,m,None,750,551.0,199.0,77,1,2095.400000035763,245315.79999995232,7130,rock,AF,B,243544,243544,242015,242828,242017,244110,243345,243345,244110,41
39,test,1,con,1,m,Thu Apr 17 2025 16:57:18 GMT-0500 (Central Daylight Time),249693.89999997616,napkin,1100,O,m,m,None,629,430.0,199.0,108,1,2260.699999988079,247433.19999998808,7130,napkin,AF,B,245961,245961,244132,245244,244134,246393,245761,245761,246393,42
40,test,1,con,1,m,Thu Apr 17 2025 16:57:18 GMT-0500 (Central Daylight Time),252259.59999996424,bell,900,O,m,m,None,1107,892.0,215.0,82,1,2546.300000011921,249713.29999995232,7130,bell,AF,B,248059,248060,246412,247327,246414,248959,247844,247844,248959,43
41,test,1,inc,1,z,Thu Apr 17 2025 16:57:18 GMT-0500 (Central Daylight Time),255125.39999997616,window,1100,O,z,z,None,1205,1006.0,199.0,64,1,2845.0,252280.39999997616,7130,temper,AF,B,250809,250809,248979,250093,248981,251825,250609,250609,251824,44
42,test,1,con,1,m,Thu Apr 17 2025 16:57:18 GMT-0500 (Central Daylight Time),257341.39999997616,napkin,1000,O,m,m,None,655,456.0,199.0,107,1,2193.800000011921,255147.59999996424,7130,napkin,AF,B,253575,253575,251847,252857,251848,254041,253375,253375,254040,45
43,test,1,inc,1,m,Thu Apr 17 2025 16:57:18 GMT-0500 (Central Daylight Time),259557.59999996424,love,1000,O,m,m,None,664,465.0,199.0,79,1,2194.5,257363.09999996424,7130,rock,AF,B,255791,255791,254062,255075,254064,256257,255591,255591,256257,46
44,test,1,con,1,m,Thu Apr 17 2025 16:57:18 GMT-0500 (Central Daylight Time),262106.39999997616,bell,1100,O,m,m,None,892,677.0,215.0,84,1,2528.100000023842,259578.29999995232,7130,bell,AF,B,258122,258122,256277,257390,256279,258806,257907,257907,258805,47
45,test,1,con,1,z,Thu Apr 17 2025 16:57:18 GMT-0500 (Central Daylight Time),264571.39999997616,brutal,800,O,z,z,None,1113,914.0,199.0,33,1,2444.800000011921,262126.59999996424,7130,brutal,AF,B,260355,260356,258826,259639,258827,261270,260156,260156,261270,48
46,test,1,inc,1,z,Thu Apr 17 2025 16:57:18 GMT-0500 (Central Daylight Time),266671.7999999523,napkin,900,O,z,z,None,654,455.0,199.0,38,1,2094.699999988079,264577.09999996424,7130,brutal,AF,B,262904,262904,261276,262188,261277,263371,262704,262704,263371,49
47,test,1,con,1,m,Thu Apr 17 2025 16:57:18 GMT-0500 (Central Daylight Time),269170.6999999881,jacket,1100,O,m,m,None,833,634.0,199.0,100,1,2477.900000035763,266692.7999999523,7130,jacket,AF,B,265221,265221,263392,264504,263394,265870,265021,265021,265870,50
48,test,1,inc,1,m,Thu Apr 17 2025 16:57:18 GMT-0500 (Central Daylight Time),271603.39999997616,love,1000,O,m,m,None,866,667.0,199.0,71,1,2412.399999976158,269191.0,7130,step,AF,B,267620,267620,265890,266904,265892,268303,267420,267420,268302,51
49,test,1,inc,1,m,Thu Apr 17 2025 16:57:18 GMT-0500 (Central Daylight Time),273969.39999997616,hate,1100,O,m,m,None,702,503.0,199.0,80,1,2345.600000023842,271623.7999999523,7130,rock,AF,B,270152,270152,268323,269436,268325,270669,269953,269953,270668,52
50,test,1,inc,1,m,Thu Apr 17 2025 16:57:18 GMT-0500 (Central Daylight Time),277201.5,hate,1100,O,m,m,None,1576,1361.0,215.0,88,1,3208.900000035763,273992.59999996424,7130,bell,AF,B,272535,272535,270692,271802,270693,273901,272319,272319,273901,53
51,test,1,con,1,m,Thu Apr 17 2025 16:57:18 GMT-0500 (Central Daylight Time),279301.09999996424,rock,900,O,m,m,None,649,449.0,200.0,74,1,2078.300000011921,277222.7999999523,7130,rock,AF,B,275551,275551,273922,274835,273923,276000,275350,275350,276000,54
52,test,1,con,1,m,Thu Apr 17 2025 16:57:18 GMT-0500 (Central Daylight Time),281600.0,rock,1100,O,m,m,None,644,445.0,199.0,76,1,2278.400000035763,279321.59999996424,7130,rock,AF,B,277850,277850,276021,277134,276022,278299,277650,277650,278299,55
53,test,1,con,1,z,Thu Apr 17 2025 16:57:18 GMT-0500 (Central Daylight Time),283632.59999996424,brutal,900,O,z,z,None,568,369.0,199.0,34,1,2011.8999999761581,281620.6999999881,7130,brutal,AF,B,279949,279950,278320,279233,278320,280332,279750,279750,280332,56
54,test,1,inc,1,z,Thu Apr 17 2025 16:57:18 GMT-0500 (Central Daylight Time),285765.5,rock,900,O,z,z,None,681,482.0,199.0,54,1,2112.400000035763,283653.09999996424,7130,rage,AF,B,281982,281982,280352,281266,280354,282465,281782,281782,282464,57
55,test,1,inc,1,m,Thu Apr 17 2025 16:57:18 GMT-0500 (Central Daylight Time),287864.7999999523,kind,900,O,m,m,None,636,421.0,215.0,94,1,2078.0,285786.7999999523,7130,film,AF,B,284130,284130,282486,283398,282487,284564,283915,283915,284564,58
56,test,1,con,1,z,Thu Apr 17 2025 16:57:18 GMT-0500 (Central Daylight Time),289897.5,love,800,O,z,z,None,669,454.0,215.0,17,1,2013.0,287884.5,7130,love,AF,B,286129,286129,284584,285397,284586,286597,285914,285914,286597,59
57,test,1,con,1,z,Thu Apr 17 2025 16:57:18 GMT-0500 (Central Daylight Time),292146.7999999523,elated,900,O,z,z,None,783,583.0,200.0,2,1,2227.699999988079,289919.09999996424,7130,elated,AF,B,288248,288248,286618,287530,286620,288846,288047,288047,288846,60
58,test,1,con,1,z,Thu Apr 17 2025 16:57:18 GMT-0500 (Central Daylight Time),294478.7999999523,rage,900,O,z,z,None,879,664.0,215.0,50,1,2310.7999999523163,292168.0,7130,rage,AF,B,290511,290511,288867,289778,288869,291178,290296,290296,291178,61
59,test,1,con,1,z,Thu Apr 17 2025 16:57:18 GMT-0500 (Central Daylight Time),296928.39999997616,rage,1100,O,z,z,None,785,570.0,215.0,52,1,2429.100000023842,294499.2999999523,7130,rage,AF,B,293045,293045,291198,292312,291200,293628,292829,292829,293627,62
60,test,1,con,1,m,Thu Apr 17 2025 16:57:18 GMT-0500 (Central Daylight Time),298894.09999996424,rock,800,O,m,m,None,613,414.0,199.0,73,1,1945.800000011921,296948.2999999523,7130,rock,AF,B,295178,295178,293647,294462,293649,295593,294978,294978,295593,63
61,test,1,inc,1,m,Thu Apr 17 2025 16:57:18 GMT-0500 (Central Daylight Time),300993.6999999881,kind,900,O,m,m,None,643,444.0,199.0,70,1,2077.300000011921,298916.39999997616,7130,step,AF,B,297243,297243,295615,296527,295617,297693,297044,297044,297693,64
62,test,1,inc,1,z,Thu Apr 17 2025 16:57:18 GMT-0500 (Central Daylight Time),303193.0,jacket,800,O,z,z,None,842,628.0,214.0,61,1,2178.5,301014.5,7130,temper,AF,B,299259,299259,297713,298527,297715,299892,299044,299044,299892,65
63,test,1,inc,1,m,Thu Apr 17 2025 16:57:18 GMT-0500 (Central Daylight Time),305374.6999999881,brutal,900,O,m,m,None,726,511.0,215.0,126,1,2161.0,303213.6999999881,7130,window,AF,B,301559,301559,299913,300826,299914,302074,301343,301343,302074,66
64,test,1,inc,1,z,Thu Apr 17 2025 16:57:18 GMT-0500 (Central Daylight Time),307641.59999996424,step,800,O,z,z,None,919,719.0,200.0,53,1,2260.599999964237,305381.0,7130,rage,AF,B,303608,303608,302080,302891,302081,304341,303407,303407,304341,67
65,test,1,inc,1,z,Thu Apr 17 2025 16:57:18 GMT-0500 (Central Daylight Time),309607.5,step,800,O,z,z,None,604,405.0,199.0,45,1,1945.1000000238419,307662.39999997616,7130,hate,AF,B,305891,305891,304361,305174,304362,306307,305691,305691,306307,68
66,test,1,inc,1,m,Thu Apr 17 2025 16:57:18 GMT-0500 (Central Daylight Time),311689.6999999881,kind,900,O,m,m,None,622,423.0,199.0,78,1,2061.800000011921,309627.89999997616,7130,rock,AF,B,307957,307957,306327,307241,306329,308389,307757,307757,308389,69
67,test,1,con,1,m,Thu Apr 17 2025 16:57:18 GMT-0500 (Central Daylight Time),314156.0,step,1100,O,m,m,None,822,608.0,214.0,68,1,2457.100000023842,311698.89999997616,7130,step,AF,B,310239,310239,308398,309506,308399,310855,310023,310024,310855,70
68,test,1,con,1,z,Thu Apr 17 2025 16:57:18 GMT-0500 (Central Daylight Time),316738.89999997616,hate,1100,O,z,z,None,916,701.0,215.0,44,1,2562.600000023842,314176.2999999523,7130,hate,AF,B,312722,312722,310875,311989,310877,313438,312505,312506,313438,71
69,test,1,inc,1,z,Thu Apr 17 2025 16:57:18 GMT-0500 (Central Daylight Time),319254.1999999881,bell,1000,O,z,z,None,963,764.0,199.0,55,1,2494.699999988079,316759.5,7130,rage,AF,B,315187,315187,313459,314470,313460,315953,314988,314988,315953,72
70,test,1,con,1,z,Thu Apr 17 2025 16:57:18 GMT-0500 (Central Daylight Time),322136.7999999523,hate,1000,O,z,z,None,1320,1121.0,199.0,43,1,2864.7999999523163,319272.0,7130,hate,AF,B,317703,317703,315971,316987,315972,318836,317504,317504,318836,73
71,test,1,con,1,m,Thu Apr 17 2025 16:57:18 GMT-0500 (Central Daylight Time),324552.6999999881,jacket,1000,O,m,m,None,853,654.0,199.0,99,1,2395.800000011921,322156.89999997616,7130,jacket,AF,B,320585,320585,318856,319870,318858,321252,320386,320386,321252,74
72,test,1,inc,1,m,Thu Apr 17 2025 16:57:18 GMT-0500 (Central Daylight Time),326918.7999999523,temper,1000,O,m,m,None,804,605.0,199.0,111,1,2343.599999964237,324575.1999999881,7130,napkin,AF,B,323002,323002,321274,322285,321276,323618,322802,322802,323618,75
73,test,1,con,1,z,Thu Apr 17 2025 16:57:18 GMT-0500 (Central Daylight Time),329717.5,temper,1100,O,z,z,None,1147,948.0,199.0,60,1,2778.100000023842,326939.39999997616,7130,temper,AF,B,325467,325467,323638,324751,323640,326417,325268,325268,326416,76
74,test,1,inc,1,m,Thu Apr 17 2025 16:57:18 GMT-0500 (Central Daylight Time),332100.2999999523,hate,1100,O,m,m,None,715,516.0,199.0,72,1,2362.5,329737.7999999523,7130,step,AF,B,328266,328267,326437,327551,326438,328799,328067,328067,328799,77
75,test,1,inc,1,m,Thu Apr 17 2025 16:57:18 GMT-0500 (Central Daylight Time),334482.6999999881,love,1000,O,m,m,None,825,610.0,215.0,95,1,2361.900000035763,332120.7999999523,7130,film,AF,B,330566,330566,328820,329833,328821,331182,330350,330350,331182,78
76,test,1,con,1,m,Thu Apr 17 2025 16:57:18 GMT-0500 (Central Daylight Time),336715.59999996424,rock,1000,O,m,m,None,666,467.0,199.0,75,1,2210.0,334505.59999996424,7130,rock,AF,B,332932,332932,331205,332216,331206,333415,332732,332732,333415,79
76,test,1,inc,0,m,Thu Apr 17 2025 16:57:18 GMT-0500 (Central Daylight Time),339597.59999996424,friend,1100,O,z,z,None,1221,1022.0,199.0,120,1,2861.699999988079,336735.89999997616,7130,remote,AF,B,335265,335265,333435,334548,333437,336297,335065,335065,336297,80
77,test,1,inc,1,z,Thu Apr 17 2025 16:57:18 GMT-0500 (Central Daylight Time),341997.39999997616,step,800,O,z,z,None,1048,849.0,199.0,13,1,2378.699999988079,339618.6999999881,7130,kind,AF,B,337847,337847,336318,337131,336319,338697,337647,337647,338696,81
78,test,1,con,1,m,Thu Apr 17 2025 16:57:18 GMT-0500 (Central Daylight Time),344412.7999999523,film,1100,O,m,m,None,755,540.0,215.0,92,1,2393.399999976158,342019.39999997616,7130,film,AF,B,340563,340563,338718,339830,338720,341112,340346,340347,341112,82
79,test,1,inc,1,z,Thu Apr 17 2025 16:57:18 GMT-0500 (Central Daylight Time),346729.0,bell,1000,O,z,z,None,761,562.0,199.0,47,1,2295.100000023842,344433.89999997616,7130,hate,AF,B,342862,342862,341133,342145,341135,343428,342662,342662,343428,83
80,test,1,inc,1,z,Thu Apr 17 2025 16:57:18 GMT-0500 (Central Daylight Time),349061.59999996424,film,1100,O,z,z,None,682,482.0,200.0,16,1,2312.5,346749.09999996424,7130,kind,AF,B,345278,345278,343448,344561,343450,345761,345077,345077,345761,84
81,test,1,inc,1,z,Thu Apr 17 2025 16:57:18 GMT-0500 (Central Daylight Time),350993.59999996424,step,800,O,z,z,None,576,377.0,199.0,21,1,1911.199999988079,349082.39999997616,7130,love,AF,B,347310,347310,345781,346594,345783,347693,347111,347111,347693,85
82,test,1,inc,1,m,Thu Apr 17 2025 16:57:18 GMT-0500 (Central Daylight Time),352959.1999999881,elated,800,O,m,m,None,610,411.0,199.0,109,1,1946.800000011921,351012.39999997616,7130,napkin,AF,B,349243,349243,347711,348527,347712,349658,349043,349043,349658,86
83,test,1,inc,1,z,Thu Apr 17 2025 16:57:18 GMT-0500 (Central Daylight Time),355042.6999999881,jacket,800,O,z,z,None,733,534.0,199.0,5,1,2078.300000011921,352964.39999997616,7130,elated,AF,B,351192,351193,349663,350476,349664,351742,350993,350993,351742,87
84,test,1,con,1,m,Thu Apr 17 2025 16:57:18 GMT-0500 (Central Daylight Time),357091.89999997616,napkin,800,O,m,m,None,691,492.0,199.0,105,1,2030.8999999761581,355061.0,7130,napkin,AF,B,353292,353292,351760,352575,351761,353791,353092,353092,353791,88
85,test,1,inc,1,m,Thu Apr 17 2025 16:57:18 GMT-0500 (Central Daylight Time),359524.5,friend,1100,O,m,m,None,774,573.0,201.0,128,1,2411.900000035763,357112.59999996424,7130,window,AF,B,355642,355642,353812,354924,353813,356224,355441,355441,356223,89
86,test,1,inc,1,z,Thu Apr 17 2025 16:57:18 GMT-0500 (Central Daylight Time),361907.2999999523,film,1100,O,z,z,None,726,527.0,199.0,56,1,2361.399999976158,359545.89999997616,7130,rage,AF,B,358073,358073,356245,357357,356246,358606,357874,357874,358606,90
87,test,1,inc,1,z,Thu Apr 17 2025 16:57:18 GMT-0500 (Central Daylight Time),364173.09999996424,remote,1000,O,z,z,None,699,500.0,199.0,39,1,2245.599999964237,361927.5,7130,brutal,AF,B,360356,360356,358627,359640,358628,360872,360156,360156,360872,91
88,test,1,inc,1,m,Thu Apr 17 2025 16:57:18 GMT-0500 (Central Daylight Time),366289.0,brutal,900,O,m,m,None,660,445.0,215.0,110,1,2095.600000023842,364193.39999997616,7130,napkin,AF,B,362539,362539,360892,361806,360894,362988,362322,362323,362988,92
89,test,1,inc,1,m,Thu Apr 17 2025 16:57:18 GMT-0500 (Central Daylight Time),368638.39999997616,rage,800,O,m,m,None,1014,815.0,199.0,85,1,2327.699999988079,366310.6999999881,7130,bell,AF,B,364521,364521,363010,363820,363011,365337,364322,364322,365337,93
89,test,1,con,0,m,Thu Apr 17 2025 16:57:18 GMT-0500 (Central Daylight Time),371204.09999996424,remote,1000,O,z,z,None,998,799.0,199.0,115,1,2545.5,368658.59999996424,7130,remote,AF,B,367088,367088,365358,366371,365359,367903,366888,366888,367903,94
90,test,1,inc,1,m,Thu Apr 17 2025 16:57:18 GMT-0500 (Central Daylight Time),373386.7999999523,brutal,900,O,m,m,None,716,501.0,215.0,102,1,2163.199999988079,371223.59999996424,7130,jacket,AF,B,369569,369570,367923,368837,367924,370086,369353,369354,370086,95
90,test,1,inc,0,m,Thu Apr 17 2025 16:57:18 GMT-0500 (Central Daylight Time),375735.7999999523,brutal,900,O,z,z,None,895,696.0,199.0,118,1,2328.7999999523163,373407.0,7130,remote,AF,B,371735,371735,370106,371019,370108,372435,371536,371536,372435,96
91,test,1,inc,1,z,Thu Apr 17 2025 16:57:18 GMT-0500 (Central Daylight Time),377885.09999996424,napkin,900,O,z,z,None,689,490.0,199.0,6,1,2128.0,375757.09999996424,7130,elated,AF,B,374085,374085,372456,373369,372458,374584,373885,373885,374584,97
92,test,1,inc,1,z,Thu Apr 17 2025 16:57:18 GMT-0500 (Central Daylight Time),379984.59999996424,rock,900,O,z,z,None,638,438.0,200.0,46,1,2079.5,377905.09999996424,7130,hate,AF,B,376234,376234,374604,375518,374606,376684,376034,376034,376684,98
93,test,1,con,1,z,Thu Apr 17 2025 16:57:18 GMT-0500 (Central Daylight Time),382116.2999999523,elated,1000,O,z,z,None,571,372.0,199.0,3,1,2112.099999964237,380004.1999999881,7130,elated,AF,B,378433,378434,376703,377717,376705,378815,378234,378234,378815,99
94,test,1,inc,1,z,Thu Apr 17 2025 16:57:18 GMT-0500 (Central Daylight Time),384433.0,film,1100,O,z,z,None,677,478.0,199.0,48,1,2310.300000011921,382122.6999999881,7130,hate,AF,B,380649,380650,378822,379933,378822,381132,380450,380450,381132,100
95,test,1,inc,1,m,Thu Apr 17 2025 16:57:18 GMT-0500 (Central Daylight Time),386632.2999999523,temper,1000,O,m,m,None,643,428.0,215.0,127,1,2179.5,384452.7999999523,7130,window,AF,B,382899,382899,381152,382166,381153,383331,382682,382683,383331,101
96,test,1,inc,1,m,Thu Apr 17 2025 16:57:18 GMT-0500 (Central Daylight Time),389264.89999997616,elated,800,O,m,m,None,1268,1069.0,199.0,125,1,2612.5,386652.39999997616,7130,window,AF,B,384882,384882,383351,384165,383352,385964,384682,384682,385964,102
97,test,1,con,1,z,Thu Apr 17 2025 16:57:18 GMT-0500 (Central Daylight Time),391214.0,kind,800,O,z,z,None,597,382.0,215.0,9,1,1929.0,389285.0,7130,kind,AF,B,387530,387530,385984,386798,385986,387913,387315,387315,387913,103
98,test,1,inc,1,m,Thu Apr 17 2025 16:57:18 GMT-0500 (Central Daylight Time),393429.7999999523,temper,1000,O,m,m,None,664,464.0,200.0,103,1,2194.0,391235.7999999523,7130,jacket,AF,B,389663,389663,387935,388947,387936,390129,389463,389463,390129,104
99,test,1,con,1,z,Thu Apr 17 2025 16:57:18 GMT-0500 (Central Daylight Time),395413.59999996424,hate,800,O,z,z,None,632,433.0,199.0,41,1,1963.5999999642372,393450.0,7130,hate,AF,B,391679,391679,390149,390963,390151,392113,391480,391480,392113,105
100,test,1,con,1,z,Thu Apr 17 2025 16:57:18 GMT-0500 (Central Daylight Time),397695.39999997616,temper,900,O,z,z,None,820,621.0,199.0,58,1,2262.600000023842,395432.7999999523,7130,temper,AF,B,393762,393762,392132,393045,392134,394395,393562,393562,394394,106
101,test,1,con,1,z,Thu Apr 17 2025 16:57:18 GMT-0500 (Central Daylight Time),400244.5,brutal,1000,O,z,z,None,989,774.0,215.0,35,1,2528.7000000476837,397715.7999999523,7130,brutal,AF,B,396161,396161,394415,395427,394416,396944,395945,395945,396944,107
102,test,1,con,1,z,Thu Apr 17 2025 16:57:18 GMT-0500 (Central Daylight Time),402593.7999999523,love,1000,O,z,z,None,793,594.0,199.0,19,1,2326.899999976158,400266.89999997616,7130,love,AF,B,398694,398694,396966,397977,396968,399293,398494,398494,399293,108
103,test,1,con,1,m,Thu Apr 17 2025 16:57:18 GMT-0500 (Central Daylight Time),404876.09999996424,window,1100,O,m,m,None,615,416.0,199.0,124,1,2264.099999964237,402612.0,7130,window,AF,B,401143,401143,399311,400427,399312,401575,400943,400943,401575,109
104,test,1,con,1,m,Thu Apr 17 2025 16:57:18 GMT-0500 (Central Daylight Time),407075.2999999523,window,900,O,m,m,None,747,548.0,199.0,122,1,2182.0,404893.2999999523,7130,window,AF,B,403226,403226,401592,402509,401593,403774,403026,403026,403774,110
105,test,1,inc,1,z,Thu Apr 17 2025 16:57:18 GMT-0500 (Central Daylight Time),409791.39999997616,window,1100,O,z,z,None,1078,879.0,199.0,32,1,2705.300000011921,407086.09999996424,7130,friend,AF,B,405608,405608,403785,404892,403786,406490,405408,405408,406490,111
106,test,1,inc,1,z,Thu Apr 17 2025 16:57:18 GMT-0500 (Central Daylight Time),412107.1999999881,jacket,800,O,z,z,None,958,759.0,199.0,37,1,2296.0,409811.1999999881,7130,brutal,AF,B,408040,408040,406510,407324,406511,408806,407841,407841,408806,112
107,test,1,con,1,z,Thu Apr 17 2025 16:57:18 GMT-0500 (Central Daylight Time),414423.09999996424,rage,1000,O,z,z,None,762,547.0,215.0,51,1,2296.199999988079,412126.89999997616,7130,rage,AF,B,410573,410573,408826,409839,408827,411122,410357,410357,411122,113
108,test,1,con,1,m,Thu Apr 17 2025 16:57:18 GMT-0500 (Central Daylight Time),416455.7999999523,bell,800,O,m,m,None,677,478.0,199.0,81,1,2012.2999999523163,414443.5,7130,bell,AF,B,412673,412674,411143,411956,411144,413155,412474,412474,413155,114
109,test,1,con,1,m,Thu Apr 17 2025 16:57:18 GMT-0500 (Central Daylight Time),418471.7999999523,film,800,O,m,m,None,653,454.0,199.0,89,1,1997.5999999642372,416474.1999999881,7130,film,AF,B,414705,414705,413173,413989,413174,415171,414505,414505,415171,115
110,test,1,con,1,m,Thu Apr 17 2025 16:57:18 GMT-0500 (Central Daylight Time),421037.7999999523,film,900,O,m,m,None,1104,905.0,199.0,90,1,2546.5,418491.2999999523,7130,film,AF,B,416821,416821,415190,416105,415192,417737,416621,416621,417737,116
110,test,1,con,0,m,Thu Apr 17 2025 16:57:18 GMT-0500 (Central Daylight Time),423503.5,remote,900,O,z,z,None,1027,812.0,215.0,114,1,2457.5,421046.0,7130,remote,AF,B,419387,419387,417745,418655,417746,420203,419171,419171,420202,117
111,test,1,inc,1,m,Thu Apr 17 2025 16:57:18 GMT-0500 (Central Daylight Time),425619.2999999523,kind,900,O,m,m,None,659,459.0,200.0,86,1,2097.2999999523163,423522.0,7130,bell,AF,B,421853,421853,420221,421136,420222,422319,421652,421652,422318,118
112,test,1,con,1,z,Thu Apr 17 2025 16:57:18 GMT-0500 (Central Daylight Time),428035.2999999523,elated,800,O,z,z,None,1049,850.0,199.0,1,1,2393.5,425641.7999999523,7130,elated,AF,B,423869,423869,422341,423152,422343,424734,423669,423669,424734,119
113,test,1,con,1,z,Thu Apr 17 2025 16:57:18 GMT-0500 (Central Daylight Time),430351.2999999523,kind,900,O,z,z,None,854,655.0,199.0,10,1,2296.2999999523163,428055.0,7130,kind,AF,B,426384,426384,424754,425668,424756,427050,426185,426185,427050,120
114,test,1,con,1,m,Thu Apr 17 2025 16:57:18 GMT-0500 (Central Daylight Time),432367.1999999881,remote,800,O,m,m,None,654,455.0,199.0,113,1,1996.1000000238419,430371.09999996424,7130,remote,AF,B,428601,428601,427070,427884,427072,429066,428401,428401,429066,121
115,test,1,con,1,m,Thu Apr 17 2025 16:57:18 GMT-0500 (Central Daylight Time),434566.1999999881,window,800,O,m,m,None,847,648.0,199.0,121,1,2177.100000023842,432389.09999996424,7130,window,AF,B,430616,430616,429088,429901,429090,431265,430417,430417,431265,122
116,test,1,con,1,z,Thu Apr 17 2025 16:57:18 GMT-0500 (Central Daylight Time),437215.6999999881,friend,1000,O,z,z,None,1087,888.0,199.0,27,1,2630.0,434585.6999999881,7130,friend,AF,B,433016,433016,431285,432299,431286,433915,432816,432816,433915,123
116,test,1,inc,0,m,Thu Apr 17 2025 16:57:18 GMT-0500 (Central Daylight Time),439614.6999999881,temper,1000,O,z,z,None,845,646.0,199.0,119,1,2379.0,437235.6999999881,7130,remote,AF,B,435665,435665,433935,434948,433936,436314,435465,435465,436314,124
117,test,1,con,1,m,Thu Apr 17 2025 16:57:18 GMT-0500 (Central Daylight Time),441447.59999996424,jacket,800,O,m,m,None,479,279.0,200.0,97,1,1814.300000011921,439633.2999999523,7130,jacket,AF,B,437864,437864,436332,437148,436333,438147,437664,437664,438147,125
118,test,1,inc,1,z,Thu Apr 17 2025 16:57:18 GMT-0500 (Central Daylight Time),443895.89999997616,window,1100,O,z,z,None,786,587.0,199.0,8,1,2427.899999976158,441468.0,7130,elated,AF,B,439995,439995,438167,439279,438169,440595,439796,439796,440595,126
119,test,1,con,1,z,Thu Apr 17 2025 16:57:18 GMT-0500 (Central Daylight Time),445746.1999999881,temper,800,O,z,z,None,501,302.0,199.0,57,1,1844.9000000357628,443901.2999999523,7130,temper,AF,B,442129,442129,440600,441413,440601,442445,441930,441930,442445,127
120,test,1,con,1,z,Thu Apr 17 2025 16:57:18 GMT-0500 (Central Daylight Time),447878.7999999523,temper,1000,O,z,z,None,573,373.0,200.0,59,1,2112.7999999523163,445766.0,7130,temper,AF,B,444195,444195,442465,443480,442467,444578,443995,443995,444578,128
