acc_sum,block,block_c,block_cond,con_img,correct,correct_response,datetime,endtime,face,jitter,line,project,response,response_time,row_sel,session_number,start_end,starttime,subject_id,task,task_vers,trial
1,prac,1,A,haborder.png,1,m,Wed Mar 12 2025 12:04:31 GMT-0500 (Central Daylight Time),68594.09999999404,CFD-WM-004-005-HC.jpg,1400,solid,O,m,1106,7,1,3299.0999999940395,65295.0,7079,ATS,A,1
2,prac,1,A,haborder.png,1,z,Wed Mar 12 2025 12:04:31 GMT-0500 (Central Daylight Time),71395.0,CFD-BF-039-039-A.jpg,1200,solid,O,z,821,6,1,6100.0,65295.0,7079,ATS,A,2
3,prac,1,A,haborder.png,1,z,Wed Mar 12 2025 12:04:31 GMT-0500 (Central Daylight Time),74073.79999999702,CFD-BF-023-013-A.jpg,1000,solid,O,z,885,4,1,8778.79999999702,65295.0,7079,ATS,A,3
4,prac,1,A,haborder.png,1,z,Wed Mar 12 2025 12:04:31 GMT-0500 (Central Daylight Time),77259.29999999702,CFD-BM-005-010-A.jpg,1600,solid,O,z,814,2,1,11964.29999999702,65295.0,7079,ATS,A,4
5,prac,1,A,haborder.png,1,z,Wed Mar 12 2025 12:04:31 GMT-0500 (Central Daylight Time),80907.29999999702,CFD-WM-013-015-A.jpg,1900,solid,O,z,963,8,1,15612.29999999702,65295.0,7079,ATS,A,5
6,prac,1,A,haborder.png,1,m,Wed Mar 12 2025 12:04:31 GMT-0500 (Central Daylight Time),84675.19999998808,CFD-BF-028-020-HC.jpg,2000,solid,O,m,972,5,1,19380.19999998808,65295.0,7079,ATS,A,6
7,prac,1,A,haborder.png,1,m,Wed Mar 12 2025 12:04:31 GMT-0500 (Central Daylight Time),87723.19999998808,CFD-BM-029-026-HC.jpg,1500,solid,O,m,749,3,1,22428.19999998808,65295.0,7079,ATS,A,7
8,prac,1,A,haborder.png,1,m,Wed Mar 12 2025 12:04:31 GMT-0500 (Central Daylight Time),90971.59999999404,CFD-BM-017-052-HC.jpg,1700,solid,O,m,763,1,1,25676.59999999404,65295.0,7079,ATS,A,8
9,prac,1,A,haborder.png,1,z,Wed Mar 12 2025 12:04:31 GMT-0500 (Central Daylight Time),93454.79999999702,CFD-WF-019-015-A.jpg,1000,solid,O,z,709,12,1,28159.79999999702,65295.0,7079,ATS,A,9
10,prac,1,A,haborder.png,1,z,Wed Mar 12 2025 12:04:31 GMT-0500 (Central Daylight Time),96635.69999998808,CFD-WF-003-014-A.jpg,1600,solid,O,z,784,10,1,31340.69999998808,65295.0,7079,ATS,A,10
11,prac,1,A,haborder.png,1,m,Wed Mar 12 2025 12:04:31 GMT-0500 (Central Daylight Time),99752.29999999702,CFD-WM-006-013-HC.jpg,1700,solid,O,m,641,9,1,34457.29999999702,65295.0,7079,ATS,A,11
12,prac,1,A,haborder.png,1,m,Wed Mar 12 2025 12:04:31 GMT-0500 (Central Daylight Time),103000.19999998808,CFD-WF-017-016-HC.jpg,1500,solid,O,m,949,11,1,37705.19999998808,65295.0,7079,ATS,A,12
1,prac,1,B,mfborder.png,1,z,Wed Mar 12 2025 12:04:31 GMT-0500 (Central Daylight Time),137972.09999999404,CFD-BF-028-020-HC.jpg,1400,dash,O,z,920,7,1,3115.4000000059605,134856.69999998808,7079,ATS,A,1
2,prac,1,B,mfborder.png,1,m,Wed Mar 12 2025 12:04:31 GMT-0500 (Central Daylight Time),141139.0,CFD-BM-010-019-A.jpg,1600,dash,O,m,782,2,1,6282.300000011921,134856.69999998808,7079,ATS,A,2
3,prac,1,B,mfborder.png,1,z,Wed Mar 12 2025 12:04:31 GMT-0500 (Central Daylight Time),144003.5,CFD-WF-017-016-HC.jpg,1000,dash,O,z,1082,12,1,9146.800000011921,134856.69999998808,7079,ATS,A,3
4,prac,1,B,mfborder.png,1,z,Wed Mar 12 2025 12:04:31 GMT-0500 (Central Daylight Time),147089.79999999702,CFD-WF-003-014-A.jpg,1500,dash,O,z,800,11,1,12233.10000000894,134856.69999998808,7079,ATS,A,4
5,prac,1,B,mfborder.png,1,z,Wed Mar 12 2025 12:04:31 GMT-0500 (Central Daylight Time),150786.59999999404,CFD-WF-002-008-HC.jpg,1900,dash,O,z,1006,8,1,15929.90000000596,134856.69999998808,7079,ATS,A,5
6,prac,1,B,mfborder.png,1,m,Wed Mar 12 2025 12:04:31 GMT-0500 (Central Daylight Time),153900.79999999702,CFD-BM-029-026-HC.jpg,1700,dash,O,m,644,1,1,19044.10000000894,134856.69999998808,7079,ATS,A,6
7,prac,1,B,mfborder.png,1,z,Wed Mar 12 2025 12:04:31 GMT-0500 (Central Daylight Time),156883.69999998808,CFD-BF-010-005-HC.jpg,1500,dash,O,z,686,3,1,22027.0,134856.69999998808,7079,ATS,A,7
8,prac,1,B,mfborder.png,1,m,Wed Mar 12 2025 12:04:31 GMT-0500 (Central Daylight Time),160249.59999999404,CFD-BM-005-010-A.jpg,2000,dash,O,m,583,5,1,25392.90000000596,134856.69999998808,7079,ATS,A,8
9,prac,1,B,mfborder.png,1,z,Wed Mar 12 2025 12:04:31 GMT-0500 (Central Daylight Time),162732.19999998808,CFD-BF-023-013-A.jpg,1000,dash,O,z,699,4,1,27875.5,134856.69999998808,7079,ATS,A,9
10,prac,1,B,mfborder.png,1,m,Wed Mar 12 2025 12:04:31 GMT-0500 (Central Daylight Time),165413.79999999702,CFD-WM-019-013-A.jpg,1200,dash,O,m,685,6,1,30557.10000000894,134856.69999998808,7079,ATS,A,10
11,prac,1,B,mfborder.png,1,m,Wed Mar 12 2025 12:04:31 GMT-0500 (Central Daylight Time),168612.79999999702,CFD-WM-006-013-HC.jpg,1600,dash,O,m,825,10,1,33756.10000000894,134856.69999998808,7079,ATS,A,11
12,prac,1,B,mfborder.png,1,m,Wed Mar 12 2025 12:04:31 GMT-0500 (Central Daylight Time),171730.39999999106,CFD-WM-013-015-A.jpg,1700,dash,O,m,633,9,1,36873.70000000298,134856.69999998808,7079,ATS,A,12
1,test,1,A,haborder.png,1,z,Wed Mar 12 2025 12:04:31 GMT-0500 (Central Daylight Time),204318.09999999404,CFD-BM-005-010-A.jpg,1600,solid,O,z,969,2,1,2600.4000000059605,201717.69999998808,7079,ATS,A,1
2,test,1,A,haborder.png,1,m,Wed Mar 12 2025 12:04:31 GMT-0500 (Central Daylight Time),206801.29999999702,CFD-BM-017-052-HC.jpg,1700,solid,O,m,758,1,1,5083.600000008941,201717.69999998808,7079,ATS,A,2
3,test,1,A,haborder.png,1,z,Wed Mar 12 2025 12:04:31 GMT-0500 (Central Daylight Time),209599.09999999404,CFD-WM-013-015-A.jpg,1900,solid,O,z,869,8,1,7881.4000000059605,201717.69999998808,7079,ATS,A,3
4,test,1,A,haborder.png,1,z,Wed Mar 12 2025 12:04:31 GMT-0500 (Central Daylight Time),211449.89999999106,CFD-BF-023-013-A.jpg,1000,solid,O,z,825,4,1,9732.20000000298,201717.69999998808,7079,ATS,A,4
5,test,1,A,haborder.png,1,z,Wed Mar 12 2025 12:04:31 GMT-0500 (Central Daylight Time),214014.69999998808,CFD-BM-005-010-A.jpg,1600,solid,O,z,938,2,1,12297.0,201717.69999998808,7079,ATS,A,5
6,test,1,A,haborder.png,1,m,Wed Mar 12 2025 12:04:31 GMT-0500 (Central Daylight Time),216380.69999998808,CFD-WM-006-013-HC.jpg,1700,solid,O,m,639,9,1,14663.0,201717.69999998808,7079,ATS,A,6
7,test,1,A,haborder.png,1,m,Wed Mar 12 2025 12:04:31 GMT-0500 (Central Daylight Time),218829.39999999106,CFD-BM-017-052-HC.jpg,1700,solid,O,m,720,1,1,17111.70000000298,201717.69999998808,7079,ATS,A,7
8,test,1,A,haborder.png,1,z,Wed Mar 12 2025 12:04:31 GMT-0500 (Central Daylight Time),220629.69999998808,CFD-WF-019-015-A.jpg,1000,solid,O,z,769,12,1,18912.0,201717.69999998808,7079,ATS,A,8
9,test,1,A,haborder.png,1,m,Wed Mar 12 2025 12:04:31 GMT-0500 (Central Daylight Time),223079.69999998808,CFD-WM-006-013-HC.jpg,1700,solid,O,m,718,9,1,21362.0,201717.69999998808,7079,ATS,A,9
10,test,1,A,haborder.png,1,m,Wed Mar 12 2025 12:04:31 GMT-0500 (Central Daylight Time),225510.59999999404,CFD-WF-017-016-HC.jpg,1500,solid,O,m,909,11,1,23792.90000000596,201717.69999998808,7079,ATS,A,10
11,test,1,A,haborder.png,1,z,Wed Mar 12 2025 12:04:31 GMT-0500 (Central Daylight Time),227844.69999998808,CFD-WF-003-014-A.jpg,1600,solid,O,z,714,10,1,26127.0,201717.69999998808,7079,ATS,A,11
12,test,1,A,haborder.png,1,z,Wed Mar 12 2025 12:04:31 GMT-0500 (Central Daylight Time),229859.19999998808,CFD-BF-039-039-A.jpg,1200,solid,O,z,788,6,1,28141.5,201717.69999998808,7079,ATS,A,12
13,test,1,A,haborder.png,1,m,Wed Mar 12 2025 12:04:31 GMT-0500 (Central Daylight Time),232142.39999999106,CFD-BM-029-026-HC.jpg,1500,solid,O,m,752,3,1,30424.70000000298,201717.69999998808,7079,ATS,A,13
14,test,1,A,haborder.png,1,m,Wed Mar 12 2025 12:04:31 GMT-0500 (Central Daylight Time),234925.0,CFD-BF-028-020-HC.jpg,2000,solid,O,m,754,5,1,33207.30000001192,201717.69999998808,7079,ATS,A,14
15,test,1,A,haborder.png,1,m,Wed Mar 12 2025 12:04:31 GMT-0500 (Central Daylight Time),237190.0,CFD-BM-029-026-HC.jpg,1500,solid,O,m,734,3,1,35472.30000001192,201717.69999998808,7079,ATS,A,15
16,test,1,A,haborder.png,1,z,Wed Mar 12 2025 12:04:31 GMT-0500 (Central Daylight Time),238987.89999999106,CFD-WF-019-015-A.jpg,1000,solid,O,z,776,12,1,37270.20000000298,201717.69999998808,7079,ATS,A,16
17,test,1,A,haborder.png,1,m,Wed Mar 12 2025 12:04:31 GMT-0500 (Central Daylight Time),241155.19999998808,CFD-WM-004-005-HC.jpg,1400,solid,O,m,746,7,1,39437.5,201717.69999998808,7079,ATS,A,17
18,test,1,A,haborder.png,1,z,Wed Mar 12 2025 12:04:31 GMT-0500 (Central Daylight Time),243921.59999999404,CFD-WM-013-015-A.jpg,1900,solid,O,z,842,8,1,42203.90000000596,201717.69999998808,7079,ATS,A,18
19,test,1,A,haborder.png,1,m,Wed Mar 12 2025 12:04:31 GMT-0500 (Central Daylight Time),246004.59999999404,CFD-WM-004-005-HC.jpg,1400,solid,O,m,655,7,1,44286.90000000596,201717.69999998808,7079,ATS,A,19
20,test,1,A,haborder.png,1,m,Wed Mar 12 2025 12:04:31 GMT-0500 (Central Daylight Time),248270.69999998808,CFD-WF-017-016-HC.jpg,1500,solid,O,m,743,11,1,46553.0,201717.69999998808,7079,ATS,A,20
21,test,1,A,haborder.png,1,z,Wed Mar 12 2025 12:04:31 GMT-0500 (Central Daylight Time),250003.29999999702,CFD-BF-023-013-A.jpg,1000,solid,O,z,706,4,1,48285.60000000894,201717.69999998808,7079,ATS,A,21
22,test,1,A,haborder.png,1,z,Wed Mar 12 2025 12:04:31 GMT-0500 (Central Daylight Time),252785.19999998808,CFD-WF-003-014-A.jpg,1600,solid,O,z,1151,10,1,51067.5,201717.69999998808,7079,ATS,A,22
23,test,1,A,haborder.png,1,z,Wed Mar 12 2025 12:04:31 GMT-0500 (Central Daylight Time),254850.79999999702,CFD-BF-039-039-A.jpg,1200,solid,O,z,838,6,1,53133.10000000894,201717.69999998808,7079,ATS,A,23
24,test,1,A,haborder.png,1,m,Wed Mar 12 2025 12:04:31 GMT-0500 (Central Daylight Time),257667.5,CFD-BF-028-020-HC.jpg,2000,solid,O,m,788,5,1,55949.80000001192,201717.69999998808,7079,ATS,A,24
1,test,1,B,mfborder.png,1,z,Wed Mar 12 2025 12:04:31 GMT-0500 (Central Daylight Time),277794.299999997,CFD-BF-010-005-HC.jpg,1500,dash,O,z,784,3,1,2315.7999999970198,275478.5,7079,ATS,A,1
1,test,1,B,mfborder.png,0,z,Wed Mar 12 2025 12:04:31 GMT-0500 (Central Daylight Time),280477.5,CFD-WF-002-008-HC.jpg,1900,dash,O,m,765,8,1,4999.0,275478.5,7079,ATS,A,2
2,test,1,B,mfborder.png,1,m,Wed Mar 12 2025 12:04:31 GMT-0500 (Central Daylight Time),282842.59999999404,CFD-WM-006-013-HC.jpg,1600,dash,O,m,739,10,1,7364.0999999940395,275478.5,7079,ATS,A,3
3,test,1,B,mfborder.png,1,z,Wed Mar 12 2025 12:04:31 GMT-0500 (Central Daylight Time),285140.6999999881,CFD-BF-010-005-HC.jpg,1500,dash,O,z,778,3,1,9662.199999988079,275478.5,7079,ATS,A,4
4,test,1,B,mfborder.png,1,m,Wed Mar 12 2025 12:04:31 GMT-0500 (Central Daylight Time),287508.39999999106,CFD-BM-029-026-HC.jpg,1700,dash,O,m,640,1,1,12029.89999999106,275478.5,7079,ATS,A,5
5,test,1,B,mfborder.png,1,m,Wed Mar 12 2025 12:04:31 GMT-0500 (Central Daylight Time),289458.09999999404,CFD-WM-019-013-A.jpg,1200,dash,O,m,733,6,1,13979.59999999404,275478.5,7079,ATS,A,6
6,test,1,B,mfborder.png,1,z,Wed Mar 12 2025 12:04:31 GMT-0500 (Central Daylight Time),291239.59999999404,CFD-BF-023-013-A.jpg,1000,dash,O,z,758,4,1,15761.09999999404,275478.5,7079,ATS,A,7
7,test,1,B,mfborder.png,1,z,Wed Mar 12 2025 12:04:31 GMT-0500 (Central Daylight Time),293273.59999999404,CFD-WF-017-016-HC.jpg,1000,dash,O,z,1015,12,1,17795.09999999404,275478.5,7079,ATS,A,8
8,test,1,B,mfborder.png,1,m,Wed Mar 12 2025 12:04:31 GMT-0500 (Central Daylight Time),296005.299999997,CFD-BM-005-010-A.jpg,2000,dash,O,m,715,5,1,20526.79999999702,275478.5,7079,ATS,A,9
9,test,1,B,mfborder.png,1,z,Wed Mar 12 2025 12:04:31 GMT-0500 (Central Daylight Time),297938.1999999881,CFD-BF-023-013-A.jpg,1000,dash,O,z,899,4,1,22459.69999998808,275478.5,7079,ATS,A,10
10,test,1,B,mfborder.png,1,z,Wed Mar 12 2025 12:04:31 GMT-0500 (Central Daylight Time),299738.299999997,CFD-WF-017-016-HC.jpg,1000,dash,O,z,782,12,1,24259.79999999702,275478.5,7079,ATS,A,11
11,test,1,B,mfborder.png,1,m,Wed Mar 12 2025 12:04:31 GMT-0500 (Central Daylight Time),302121.59999999404,CFD-BM-010-019-A.jpg,1600,dash,O,m,766,2,1,26643.09999999404,275478.5,7079,ATS,A,12
12,test,1,B,mfborder.png,1,m,Wed Mar 12 2025 12:04:31 GMT-0500 (Central Daylight Time),304602.299999997,CFD-BM-029-026-HC.jpg,1700,dash,O,m,764,1,1,29123.79999999702,275478.5,7079,ATS,A,13
13,test,1,B,mfborder.png,1,m,Wed Mar 12 2025 12:04:31 GMT-0500 (Central Daylight Time),307068.09999999404,CFD-WM-013-015-A.jpg,1700,dash,O,m,737,9,1,31589.59999999404,275478.5,7079,ATS,A,14
13,test,1,B,mfborder.png,0,z,Wed Mar 12 2025 12:04:31 GMT-0500 (Central Daylight Time),309933.89999999106,CFD-WF-002-008-HC.jpg,1900,dash,O,m,945,8,1,34455.39999999106,275478.5,7079,ATS,A,15
14,test,1,B,mfborder.png,1,m,Wed Mar 12 2025 12:04:31 GMT-0500 (Central Daylight Time),312265.39999999106,CFD-BM-010-019-A.jpg,1600,dash,O,m,711,2,1,36786.89999999106,275478.5,7079,ATS,A,16
15,test,1,B,mfborder.png,1,m,Wed Mar 12 2025 12:04:31 GMT-0500 (Central Daylight Time),314982.799999997,CFD-BM-005-010-A.jpg,2000,dash,O,m,686,5,1,39504.29999999702,275478.5,7079,ATS,A,17
16,test,1,B,mfborder.png,1,m,Wed Mar 12 2025 12:04:31 GMT-0500 (Central Daylight Time),316898.6999999881,CFD-WM-019-013-A.jpg,1200,dash,O,m,697,6,1,41420.19999998808,275478.5,7079,ATS,A,18
17,test,1,B,mfborder.png,1,z,Wed Mar 12 2025 12:04:31 GMT-0500 (Central Daylight Time),319030.6999999881,CFD-WF-003-014-A.jpg,1500,dash,O,z,601,11,1,43552.19999998808,275478.5,7079,ATS,A,19
18,test,1,B,mfborder.png,1,m,Wed Mar 12 2025 12:04:31 GMT-0500 (Central Daylight Time),321396.09999999404,CFD-WM-013-015-A.jpg,1700,dash,O,m,644,9,1,45917.59999999404,275478.5,7079,ATS,A,20
19,test,1,B,mfborder.png,1,z,Wed Mar 12 2025 12:04:31 GMT-0500 (Central Daylight Time),323646.09999999404,CFD-BF-028-020-HC.jpg,1400,dash,O,z,826,7,1,48167.59999999404,275478.5,7079,ATS,A,21
20,test,1,B,mfborder.png,1,m,Wed Mar 12 2025 12:04:31 GMT-0500 (Central Daylight Time),325995.09999999404,CFD-WM-006-013-HC.jpg,1600,dash,O,m,721,10,1,50516.59999999404,275478.5,7079,ATS,A,22
21,test,1,B,mfborder.png,1,z,Wed Mar 12 2025 12:04:31 GMT-0500 (Central Daylight Time),328095.39999999106,CFD-BF-028-020-HC.jpg,1400,dash,O,z,664,7,1,52616.89999999106,275478.5,7079,ATS,A,23
22,test,1,B,mfborder.png,1,z,Wed Mar 12 2025 12:04:31 GMT-0500 (Central Daylight Time),330501.6999999881,CFD-WF-003-014-A.jpg,1500,dash,O,z,868,11,1,55023.19999998808,275478.5,7079,ATS,A,24
1,prac,1,C,haborder.png,1,z,Wed Mar 12 2025 12:04:31 GMT-0500 (Central Daylight Time),393825.299999997,CFD-BF-023-013-A.jpg,1900,dash,O,z,1301,7,1,3999.6000000089407,389825.6999999881,7079,ATS,A,1
2,prac,1,C,haborder.png,1,z,Wed Mar 12 2025 12:04:31 GMT-0500 (Central Daylight Time),397207.0,CFD-BF-039-039-A.jpg,1700,solid,O,z,885,8,1,7381.300000011921,389825.6999999881,7079,ATS,A,2
3,prac,1,C,mfborder.png,1,m,Wed Mar 12 2025 12:04:31 GMT-0500 (Central Daylight Time),400787.6999999881,CFD-BM-017-052-HC.jpg,2000,solid,O,m,795,4,1,10962.0,389825.6999999881,7079,ATS,A,3
4,prac,1,C,mfborder.png,1,m,Wed Mar 12 2025 12:04:31 GMT-0500 (Central Daylight Time),403503.59999999404,CFD-BM-005-010-A.jpg,1200,dash,O,m,715,5,1,13677.90000000596,389825.6999999881,7079,ATS,A,4
4,prac,1,C,haborder.png,0,z,Wed Mar 12 2025 12:04:31 GMT-0500 (Central Daylight Time),407403.39999999106,CFD-WF-003-014-A.jpg,1600,dash,O,None,1514,9,1,17577.70000000298,389825.6999999881,7079,ATS,A,5
5,prac,1,C,haborder.png,1,m,Wed Mar 12 2025 12:04:31 GMT-0500 (Central Daylight Time),410634.799999997,CFD-WM-004-005-HC.jpg,1400,solid,O,m,1061,12,1,20809.10000000894,389825.6999999881,7079,ATS,A,6
6,prac,1,C,haborder.png,1,m,Wed Mar 12 2025 12:04:31 GMT-0500 (Central Daylight Time),413784.89999999106,CFD-BM-029-026-HC.jpg,1500,solid,O,m,849,10,1,23959.20000000298,389825.6999999881,7079,ATS,A,7
7,prac,1,C,mfborder.png,1,z,Wed Mar 12 2025 12:04:31 GMT-0500 (Central Daylight Time),416400.799999997,CFD-BF-028-020-HC.jpg,1000,dash,O,z,816,3,1,26575.10000000894,389825.6999999881,7079,ATS,A,8
8,prac,1,C,mfborder.png,1,z,Wed Mar 12 2025 12:04:31 GMT-0500 (Central Daylight Time),419816.39999999106,CFD-WF-017-016-HC.jpg,1600,dash,O,z,1016,1,1,29990.70000000298,389825.6999999881,7079,ATS,A,9
9,prac,1,C,mfborder.png,1,z,Wed Mar 12 2025 12:04:31 GMT-0500 (Central Daylight Time),423015.0,CFD-WF-019-015-A.jpg,1500,solid,O,z,900,2,1,33189.30000001192,389825.6999999881,7079,ATS,A,10
10,prac,1,C,haborder.png,1,m,Wed Mar 12 2025 12:04:31 GMT-0500 (Central Daylight Time),426031.1999999881,CFD-WM-004-005-HC.jpg,1000,dash,O,m,1239,11,1,36205.5,389825.6999999881,7079,ATS,A,11
10,prac,1,C,mfborder.png,0,m,Wed Mar 12 2025 12:04:31 GMT-0500 (Central Daylight Time),429612.799999997,CFD-WM-013-015-A.jpg,1700,solid,O,z,1084,6,1,39787.10000000894,389825.6999999881,7079,ATS,A,12
0,test,1,C,mfborder.png,0,z,Wed Mar 12 2025 12:04:31 GMT-0500 (Central Daylight Time),450639.5,CFD-BF-023-013-A.jpg,1600,dash,O,None,1507,2,1,3132.4000000059605,447507.09999999404,7079,ATS,A,1
0,test,1,C,haborder.png,0,z,Wed Mar 12 2025 12:04:31 GMT-0500 (Central Daylight Time),453255.5,CFD-BM-010-019-A.jpg,1700,solid,O,m,884,9,1,5748.4000000059605,447507.09999999404,7079,ATS,A,2
0,test,1,C,haborder.png,0,z,Wed Mar 12 2025 12:04:31 GMT-0500 (Central Daylight Time),456186.89999999106,CFD-WM-013-015-A.jpg,1400,solid,O,None,1514,7,1,8679.79999999702,447507.09999999404,7079,ATS,A,3
0,test,1,C,mfborder.png,0,m,Wed Mar 12 2025 12:04:31 GMT-0500 (Central Daylight Time),458919.5,CFD-BM-029-026-HC.jpg,1200,dash,O,None,1513,6,1,11412.40000000596,447507.09999999404,7079,ATS,A,4
0,test,1,C,haborder.png,0,z,Wed Mar 12 2025 12:04:31 GMT-0500 (Central Daylight Time),462152.6999999881,CFD-BM-010-019-A.jpg,1700,solid,O,None,1515,9,1,14645.59999999404,447507.09999999404,7079,ATS,A,5
1,test,1,C,mfborder.png,1,z,Wed Mar 12 2025 12:04:31 GMT-0500 (Central Daylight Time),465251.89999999106,CFD-BF-023-013-A.jpg,1600,dash,O,z,1483,2,1,17744.79999999702,447507.09999999404,7079,ATS,A,6
2,test,1,C,mfborder.png,1,z,Wed Mar 12 2025 12:04:31 GMT-0500 (Central Daylight Time),468251.89999999106,CFD-WF-003-014-A.jpg,1500,dash,O,z,1465,3,1,20744.79999999702,447507.09999999404,7079,ATS,A,7
2,test,1,C,haborder.png,0,m,Wed Mar 12 2025 12:04:31 GMT-0500 (Central Daylight Time),471385.299999997,CFD-BF-028-020-HC.jpg,1600,solid,O,None,1516,10,1,23878.20000000298,447507.09999999404,7079,ATS,A,8
3,test,1,C,mfborder.png,1,m,Wed Mar 12 2025 12:04:31 GMT-0500 (Central Daylight Time),473715.59999999404,CFD-WM-006-013-HC.jpg,1000,dash,O,m,1306,4,1,26208.5,447507.09999999404,7079,ATS,A,9
4,test,1,C,mfborder.png,1,z,Wed Mar 12 2025 12:04:31 GMT-0500 (Central Daylight Time),476830.299999997,CFD-BF-010-005-HC.jpg,1700,dash,O,z,1385,1,1,29323.20000000298,447507.09999999404,7079,ATS,A,10
4,test,1,C,haborder.png,0,m,Wed Mar 12 2025 12:04:31 GMT-0500 (Central Daylight Time),479364.09999999404,CFD-WF-017-016-HC.jpg,1000,solid,O,None,1516,12,1,31857.0,447507.09999999404,7079,ATS,A,11
5,test,1,C,mfborder.png,1,m,Wed Mar 12 2025 12:04:31 GMT-0500 (Central Daylight Time),481479.299999997,CFD-WM-006-013-HC.jpg,1000,dash,O,m,1093,4,1,33972.20000000298,447507.09999999404,7079,ATS,A,12
5,test,1,C,mfborder.png,0,m,Wed Mar 12 2025 12:04:31 GMT-0500 (Central Daylight Time),484579.799999997,CFD-WM-019-013-A.jpg,2000,dash,O,z,1084,5,1,37072.70000000298,447507.09999999404,7079,ATS,A,13
6,test,1,C,haborder.png,1,z,Wed Mar 12 2025 12:04:31 GMT-0500 (Central Daylight Time),487595.89999999106,CFD-BM-005-010-A.jpg,1900,solid,O,z,1082,8,1,40088.79999999702,447507.09999999404,7079,ATS,A,14
7,test,1,C,haborder.png,1,z,Wed Mar 12 2025 12:04:31 GMT-0500 (Central Daylight Time),490013.5,CFD-WM-013-015-A.jpg,1400,solid,O,z,989,7,1,42506.40000000596,447507.09999999404,7079,ATS,A,15
8,test,1,C,haborder.png,1,m,Wed Mar 12 2025 12:04:31 GMT-0500 (Central Daylight Time),492109.09999999404,CFD-WF-017-016-HC.jpg,1000,solid,O,m,1066,12,1,44602.0,447507.09999999404,7079,ATS,A,16
9,test,1,C,haborder.png,1,m,Wed Mar 12 2025 12:04:31 GMT-0500 (Central Daylight Time),494640.89999999106,CFD-WF-002-008-HC.jpg,1500,solid,O,m,999,11,1,47133.79999999702,447507.09999999404,7079,ATS,A,17
10,test,1,C,haborder.png,1,m,Wed Mar 12 2025 12:04:31 GMT-0500 (Central Daylight Time),497224.59999999404,CFD-WF-002-008-HC.jpg,1500,solid,O,m,1052,11,1,49717.5,447507.09999999404,7079,ATS,A,18
11,test,1,C,mfborder.png,1,z,Wed Mar 12 2025 12:04:31 GMT-0500 (Central Daylight Time),499723.59999999404,CFD-WF-003-014-A.jpg,1500,dash,O,z,972,3,1,52216.5,447507.09999999404,7079,ATS,A,19
11,test,1,C,haborder.png,0,z,Wed Mar 12 2025 12:04:31 GMT-0500 (Central Daylight Time),502706.299999997,CFD-BM-005-010-A.jpg,1900,solid,O,m,1051,8,1,55199.20000000298,447507.09999999404,7079,ATS,A,20
12,test,1,C,haborder.png,1,m,Wed Mar 12 2025 12:04:31 GMT-0500 (Central Daylight Time),505288.39999999106,CFD-BF-028-020-HC.jpg,1600,solid,O,m,950,10,1,57781.29999999702,447507.09999999404,7079,ATS,A,21
12,test,1,C,mfborder.png,0,m,Wed Mar 12 2025 12:04:31 GMT-0500 (Central Daylight Time),508586.89999999106,CFD-WM-019-013-A.jpg,2000,dash,O,z,1271,5,1,61079.79999999702,447507.09999999404,7079,ATS,A,22
13,test,1,C,mfborder.png,1,z,Wed Mar 12 2025 12:04:31 GMT-0500 (Central Daylight Time),511370.59999999404,CFD-BF-010-005-HC.jpg,1700,dash,O,z,1051,1,1,63863.5,447507.09999999404,7079,ATS,A,23
14,test,1,C,mfborder.png,1,m,Wed Mar 12 2025 12:04:31 GMT-0500 (Central Daylight Time),513553.1999999881,CFD-BM-029-026-HC.jpg,1200,dash,O,m,964,6,1,66046.09999999404,447507.09999999404,7079,ATS,A,24
1,test,2,C,mfborder.png,1,z,Wed Mar 12 2025 12:04:31 GMT-0500 (Central Daylight Time),522632.6999999881,CFD-WF-019-015-A.jpg,1600,dash,O,z,1466,2,1,3100.0999999940395,519532.59999999404,7079,ATS,A,1
2,test,2,C,haborder.png,1,z,Wed Mar 12 2025 12:04:31 GMT-0500 (Central Daylight Time),525715.299999997,CFD-BF-039-039-A.jpg,1900,solid,O,z,1149,8,1,6182.70000000298,519532.59999999404,7079,ATS,A,2
2,test,2,C,mfborder.png,0,m,Wed Mar 12 2025 12:04:31 GMT-0500 (Central Daylight Time),528447.1999999881,CFD-WM-013-015-A.jpg,1200,dash,O,None,1514,6,1,8914.59999999404,519532.59999999404,7079,ATS,A,3
3,test,2,C,haborder.png,1,m,Wed Mar 12 2025 12:04:31 GMT-0500 (Central Daylight Time),531081.8999999911,CFD-BM-029-026-HC.jpg,1600,solid,O,m,1017,10,1,11549.29999999702,519532.59999999404,7079,ATS,A,4
4,test,2,C,mfborder.png,1,z,Wed Mar 12 2025 12:04:31 GMT-0500 (Central Daylight Time),533629.6999999881,CFD-BF-028-020-HC.jpg,1500,dash,O,z,1021,3,1,14097.09999999404,519532.59999999404,7079,ATS,A,5
5,test,2,C,haborder.png,1,m,Wed Mar 12 2025 12:04:31 GMT-0500 (Central Daylight Time),536562.599999994,CFD-WM-004-005-HC.jpg,1500,solid,O,m,1406,11,1,17030.0,519532.59999999404,7079,ATS,A,6
6,test,2,C,haborder.png,1,z,Wed Mar 12 2025 12:04:31 GMT-0500 (Central Daylight Time),539261.299999997,CFD-WF-003-014-A.jpg,1700,solid,O,z,978,9,1,19728.70000000298,519532.59999999404,7079,ATS,A,7
7,test,2,C,mfborder.png,1,z,Wed Mar 12 2025 12:04:31 GMT-0500 (Central Daylight Time),542326.799999997,CFD-WF-019-015-A.jpg,1600,dash,O,z,1434,2,1,22794.20000000298,519532.59999999404,7079,ATS,A,8
8,test,2,C,haborder.png,1,z,Wed Mar 12 2025 12:04:31 GMT-0500 (Central Daylight Time),545109.5,CFD-BF-023-013-A.jpg,1400,solid,O,z,1350,7,1,25576.90000000596,519532.59999999404,7079,ATS,A,9
9,test,2,C,haborder.png,1,m,Wed Mar 12 2025 12:04:31 GMT-0500 (Central Daylight Time),547394.099999994,CFD-WM-004-005-HC.jpg,1500,solid,O,m,767,11,1,27861.5,519532.59999999404,7079,ATS,A,10
10,test,2,C,mfborder.png,1,z,Wed Mar 12 2025 12:04:31 GMT-0500 (Central Daylight Time),550042.0,CFD-BF-028-020-HC.jpg,1500,dash,O,z,1117,3,1,30509.40000000596,519532.59999999404,7079,ATS,A,11
11,test,2,C,mfborder.png,1,m,Wed Mar 12 2025 12:04:31 GMT-0500 (Central Daylight Time),553006.5,CFD-BM-005-010-A.jpg,2000,dash,O,m,944,5,1,33473.90000000596,519532.59999999404,7079,ATS,A,12
11,test,2,C,mfborder.png,0,z,Wed Mar 12 2025 12:04:31 GMT-0500 (Central Daylight Time),556239.099999994,CFD-WF-017-016-HC.jpg,1700,dash,O,None,1516,1,1,36706.5,519532.59999999404,7079,ATS,A,13
12,test,2,C,haborder.png,1,m,Wed Mar 12 2025 12:04:31 GMT-0500 (Central Daylight Time),559238.6999999881,CFD-BM-029-026-HC.jpg,1600,solid,O,m,1362,10,1,39706.09999999404,519532.59999999404,7079,ATS,A,14
13,test,2,C,mfborder.png,1,z,Wed Mar 12 2025 12:04:31 GMT-0500 (Central Daylight Time),561722.299999997,CFD-WF-017-016-HC.jpg,1700,dash,O,z,765,1,1,42189.70000000298,519532.59999999404,7079,ATS,A,15
13,test,2,C,haborder.png,0,z,Wed Mar 12 2025 12:04:31 GMT-0500 (Central Daylight Time),564754.5,CFD-BF-039-039-A.jpg,1900,solid,O,m,1100,8,1,45221.90000000596,519532.59999999404,7079,ATS,A,16
14,test,2,C,haborder.png,1,m,Wed Mar 12 2025 12:04:31 GMT-0500 (Central Daylight Time),567168.599999994,CFD-WM-004-005-HC.jpg,1000,solid,O,m,1392,12,1,47636.0,519532.59999999404,7079,ATS,A,17
15,test,2,C,haborder.png,1,m,Wed Mar 12 2025 12:04:31 GMT-0500 (Central Daylight Time),569218.5,CFD-WM-004-005-HC.jpg,1000,solid,O,m,1023,12,1,49685.90000000596,519532.59999999404,7079,ATS,A,18
16,test,2,C,mfborder.png,1,m,Wed Mar 12 2025 12:04:31 GMT-0500 (Central Daylight Time),571474.5,CFD-BM-017-052-HC.jpg,1000,dash,O,m,1221,4,1,51941.90000000596,519532.59999999404,7079,ATS,A,19
16,test,2,C,haborder.png,0,z,Wed Mar 12 2025 12:04:31 GMT-0500 (Central Daylight Time),574699.599999994,CFD-WF-003-014-A.jpg,1700,solid,O,None,1512,9,1,55167.0,519532.59999999404,7079,ATS,A,20
16,test,2,C,mfborder.png,0,m,Wed Mar 12 2025 12:04:31 GMT-0500 (Central Daylight Time),577982.5,CFD-BM-005-010-A.jpg,2000,dash,O,z,1252,5,1,58449.90000000596,519532.59999999404,7079,ATS,A,21
17,test,2,C,mfborder.png,1,m,Wed Mar 12 2025 12:04:31 GMT-0500 (Central Daylight Time),580548.599999994,CFD-WM-013-015-A.jpg,1200,dash,O,m,1338,6,1,61016.0,519532.59999999404,7079,ATS,A,22
18,test,2,C,haborder.png,1,z,Wed Mar 12 2025 12:04:31 GMT-0500 (Central Daylight Time),583015.3999999911,CFD-BF-023-013-A.jpg,1400,solid,O,z,1046,7,1,63482.79999999702,519532.59999999404,7079,ATS,A,23
18,test,2,C,mfborder.png,0,m,Wed Mar 12 2025 12:04:31 GMT-0500 (Central Daylight Time),585547.3999999911,CFD-BM-017-052-HC.jpg,1000,dash,O,None,1515,4,1,66014.79999999702,519532.59999999404,7079,ATS,A,24
0,test,3,C,mfborder.png,0,m,Wed Mar 12 2025 12:04:31 GMT-0500 (Central Daylight Time),595726.299999997,CFD-WM-019-013-A.jpg,2000,dash,O,z,846,5,1,2882.1000000089407,592844.1999999881,7079,ATS,A,1
1,test,3,C,mfborder.png,1,z,Wed Mar 12 2025 12:04:31 GMT-0500 (Central Daylight Time),598592.1999999881,CFD-BF-010-005-HC.jpg,1700,dash,O,z,1142,1,1,5748.0,592844.1999999881,7079,ATS,A,2
2,test,3,C,mfborder.png,1,z,Wed Mar 12 2025 12:04:31 GMT-0500 (Central Daylight Time),601258.3999999911,CFD-BF-010-005-HC.jpg,1700,dash,O,z,941,1,1,8414.20000000298,592844.1999999881,7079,ATS,A,3
3,test,3,C,haborder.png,1,m,Wed Mar 12 2025 12:04:31 GMT-0500 (Central Daylight Time),603908.3999999911,CFD-BF-028-020-HC.jpg,1600,solid,O,m,1033,10,1,11064.20000000298,592844.1999999881,7079,ATS,A,4
3,test,3,C,mfborder.png,0,z,Wed Mar 12 2025 12:04:31 GMT-0500 (Central Daylight Time),606923.799999997,CFD-WF-003-014-A.jpg,1500,dash,O,None,1502,3,1,14079.60000000894,592844.1999999881,7079,ATS,A,5
4,test,3,C,mfborder.png,1,m,Wed Mar 12 2025 12:04:31 GMT-0500 (Central Daylight Time),609422.3999999911,CFD-BM-029-026-HC.jpg,1200,dash,O,m,1269,6,1,16578.20000000298,592844.1999999881,7079,ATS,A,6
5,test,3,C,haborder.png,1,m,Wed Mar 12 2025 12:04:31 GMT-0500 (Central Daylight Time),612421.0,CFD-BF-028-020-HC.jpg,1600,solid,O,m,1370,10,1,19576.80000001192,592844.1999999881,7079,ATS,A,7
6,test,3,C,mfborder.png,1,z,Wed Mar 12 2025 12:04:31 GMT-0500 (Central Daylight Time),614804.599999994,CFD-WF-003-014-A.jpg,1500,dash,O,z,857,3,1,21960.40000000596,592844.1999999881,7079,ATS,A,8
6,test,3,C,mfborder.png,0,m,Wed Mar 12 2025 12:04:31 GMT-0500 (Central Daylight Time),618053.6999999881,CFD-WM-019-013-A.jpg,2000,dash,O,z,1230,5,1,25209.5,592844.1999999881,7079,ATS,A,9
7,test,3,C,mfborder.png,1,z,Wed Mar 12 2025 12:04:31 GMT-0500 (Central Daylight Time),620437.099999994,CFD-BF-023-013-A.jpg,1600,dash,O,z,767,2,1,27592.90000000596,592844.1999999881,7079,ATS,A,10
7,test,3,C,haborder.png,0,z,Wed Mar 12 2025 12:04:31 GMT-0500 (Central Daylight Time),623117.8999999911,CFD-BM-005-010-A.jpg,1900,solid,O,m,754,8,1,30273.70000000298,592844.1999999881,7079,ATS,A,11
8,test,3,C,haborder.png,1,m,Wed Mar 12 2025 12:04:31 GMT-0500 (Central Daylight Time),625516.3999999911,CFD-WF-002-008-HC.jpg,1500,solid,O,m,869,11,1,32672.20000000298,592844.1999999881,7079,ATS,A,12
8,test,3,C,mfborder.png,0,m,Wed Mar 12 2025 12:04:31 GMT-0500 (Central Daylight Time),627582.3999999911,CFD-WM-006-013-HC.jpg,1000,dash,O,z,1045,4,1,34738.20000000298,592844.1999999881,7079,ATS,A,13
9,test,3,C,mfborder.png,1,m,Wed Mar 12 2025 12:04:31 GMT-0500 (Central Daylight Time),629783.1999999881,CFD-WM-006-013-HC.jpg,1000,dash,O,m,1169,4,1,36939.0,592844.1999999881,7079,ATS,A,14
9,test,3,C,haborder.png,0,z,Wed Mar 12 2025 12:04:31 GMT-0500 (Central Daylight Time),632780.8999999911,CFD-BM-010-019-A.jpg,1700,solid,O,m,1270,9,1,39936.70000000298,592844.1999999881,7079,ATS,A,15
10,test,3,C,haborder.png,1,m,Wed Mar 12 2025 12:04:31 GMT-0500 (Central Daylight Time),634880.0,CFD-WF-017-016-HC.jpg,1000,solid,O,m,1060,12,1,42035.80000001192,592844.1999999881,7079,ATS,A,16
11,test,3,C,haborder.png,1,z,Wed Mar 12 2025 12:04:31 GMT-0500 (Central Daylight Time),637296.099999994,CFD-WM-013-015-A.jpg,1400,solid,O,z,982,7,1,44451.90000000596,592844.1999999881,7079,ATS,A,17
12,test,3,C,haborder.png,1,m,Wed Mar 12 2025 12:04:31 GMT-0500 (Central Daylight Time),639345.5,CFD-WF-017-016-HC.jpg,1000,solid,O,m,1023,12,1,46501.30000001192,592844.1999999881,7079,ATS,A,18
13,test,3,C,haborder.png,1,m,Wed Mar 12 2025 12:04:31 GMT-0500 (Central Daylight Time),641745.0,CFD-WF-002-008-HC.jpg,1500,solid,O,m,866,11,1,48900.80000001192,592844.1999999881,7079,ATS,A,19
14,test,3,C,haborder.png,1,z,Wed Mar 12 2025 12:04:31 GMT-0500 (Central Daylight Time),644812.5,CFD-BM-005-010-A.jpg,1900,solid,O,z,1150,8,1,51968.30000001192,592844.1999999881,7079,ATS,A,20
14,test,3,C,haborder.png,0,z,Wed Mar 12 2025 12:04:31 GMT-0500 (Central Daylight Time),647542.6999999881,CFD-BM-010-019-A.jpg,1700,solid,O,m,1001,9,1,54698.5,592844.1999999881,7079,ATS,A,21
15,test,3,C,mfborder.png,1,z,Wed Mar 12 2025 12:04:31 GMT-0500 (Central Daylight Time),649975.1999999881,CFD-BF-023-013-A.jpg,1600,dash,O,z,806,2,1,57131.0,592844.1999999881,7079,ATS,A,22
16,test,3,C,mfborder.png,1,m,Wed Mar 12 2025 12:04:31 GMT-0500 (Central Daylight Time),652124.799999997,CFD-BM-029-026-HC.jpg,1200,dash,O,m,928,6,1,59280.60000000894,592844.1999999881,7079,ATS,A,23
17,test,3,C,haborder.png,1,z,Wed Mar 12 2025 12:04:31 GMT-0500 (Central Daylight Time),654923.6999999881,CFD-WM-013-015-A.jpg,1400,solid,O,z,1363,7,1,62079.5,592844.1999999881,7079,ATS,A,24
1,test,4,C,mfborder.png,1,z,Wed Mar 12 2025 12:04:31 GMT-0500 (Central Daylight Time),660723.3999999911,CFD-WF-019-015-A.jpg,1600,dash,O,z,990,2,1,2616.0,658107.3999999911,7079,ATS,A,1
1,test,4,C,mfborder.png,0,z,Wed Mar 12 2025 12:04:31 GMT-0500 (Central Daylight Time),663388.1999999881,CFD-WF-017-016-HC.jpg,1700,dash,O,m,931,1,1,5280.79999999702,658107.3999999911,7079,ATS,A,2
2,test,4,C,haborder.png,1,m,Wed Mar 12 2025 12:04:31 GMT-0500 (Central Daylight Time),665520.8999999911,CFD-WM-004-005-HC.jpg,1000,solid,O,m,1100,12,1,7413.5,658107.3999999911,7079,ATS,A,3
3,test,4,C,mfborder.png,1,z,Wed Mar 12 2025 12:04:31 GMT-0500 (Central Daylight Time),668435.799999997,CFD-WF-019-015-A.jpg,1600,dash,O,z,1295,2,1,10328.40000000596,658107.3999999911,7079,ATS,A,4
4,test,4,C,mfborder.png,1,m,Wed Mar 12 2025 12:04:31 GMT-0500 (Central Daylight Time),670458.0,CFD-WM-013-015-A.jpg,1200,dash,O,m,789,6,1,12350.60000000894,658107.3999999911,7079,ATS,A,5
5,test,4,C,mfborder.png,1,z,Wed Mar 12 2025 12:04:31 GMT-0500 (Central Daylight Time),672735.6999999881,CFD-BF-028-020-HC.jpg,1500,dash,O,z,761,3,1,14628.29999999702,658107.3999999911,7079,ATS,A,6
6,test,4,C,mfborder.png,1,m,Wed Mar 12 2025 12:04:31 GMT-0500 (Central Daylight Time),675634.6999999881,CFD-BM-005-010-A.jpg,2000,dash,O,m,880,5,1,17527.29999999702,658107.3999999911,7079,ATS,A,7
7,test,4,C,mfborder.png,1,m,Wed Mar 12 2025 12:04:31 GMT-0500 (Central Daylight Time),677852.1999999881,CFD-WM-013-015-A.jpg,1200,dash,O,m,1001,6,1,19744.79999999702,658107.3999999911,7079,ATS,A,8
8,test,4,C,haborder.png,1,m,Wed Mar 12 2025 12:04:31 GMT-0500 (Central Daylight Time),680716.099999994,CFD-BM-029-026-HC.jpg,1600,solid,O,m,1247,10,1,22608.70000000298,658107.3999999911,7079,ATS,A,9
8,test,4,C,haborder.png,0,z,Wed Mar 12 2025 12:04:31 GMT-0500 (Central Daylight Time),683664.8999999911,CFD-WF-003-014-A.jpg,1700,solid,O,m,1231,9,1,25557.5,658107.3999999911,7079,ATS,A,10
9,test,4,C,mfborder.png,1,m,Wed Mar 12 2025 12:04:31 GMT-0500 (Central Daylight Time),685799.1999999881,CFD-BM-017-052-HC.jpg,1000,dash,O,m,1103,4,1,27691.79999999702,658107.3999999911,7079,ATS,A,11
9,test,4,C,haborder.png,0,z,Wed Mar 12 2025 12:04:31 GMT-0500 (Central Daylight Time),688731.1999999881,CFD-BF-023-013-A.jpg,1400,solid,O,None,1514,7,1,30623.79999999702,658107.3999999911,7079,ATS,A,12
10,test,4,C,haborder.png,1,m,Wed Mar 12 2025 12:04:31 GMT-0500 (Central Daylight Time),691313.599999994,CFD-BM-029-026-HC.jpg,1600,solid,O,m,965,10,1,33206.20000000298,658107.3999999911,7079,ATS,A,13
11,test,4,C,mfborder.png,1,z,Wed Mar 12 2025 12:04:31 GMT-0500 (Central Daylight Time),694028.6999999881,CFD-WF-017-016-HC.jpg,1700,dash,O,z,995,1,1,35921.29999999702,658107.3999999911,7079,ATS,A,14
11,test,4,C,haborder.png,0,z,Wed Mar 12 2025 12:04:31 GMT-0500 (Central Daylight Time),697161.099999994,CFD-BF-039-039-A.jpg,1900,solid,O,m,1202,8,1,39053.70000000298,658107.3999999911,7079,ATS,A,15
12,test,4,C,haborder.png,1,z,Wed Mar 12 2025 12:04:31 GMT-0500 (Central Daylight Time),699996.299999997,CFD-BF-039-039-A.jpg,1900,solid,O,z,918,8,1,41888.90000000596,658107.3999999911,7079,ATS,A,16
13,test,4,C,mfborder.png,1,m,Wed Mar 12 2025 12:04:31 GMT-0500 (Central Daylight Time),703358.099999994,CFD-BM-005-010-A.jpg,2000,dash,O,m,1344,5,1,45250.70000000298,658107.3999999911,7079,ATS,A,17
14,test,4,C,mfborder.png,1,m,Wed Mar 12 2025 12:04:31 GMT-0500 (Central Daylight Time),705625.799999997,CFD-BM-017-052-HC.jpg,1000,dash,O,m,1241,4,1,47518.40000000596,658107.3999999911,7079,ATS,A,18
15,test,4,C,haborder.png,1,m,Wed Mar 12 2025 12:04:31 GMT-0500 (Central Daylight Time),708025.599999994,CFD-WM-004-005-HC.jpg,1500,solid,O,m,876,11,1,49918.20000000298,658107.3999999911,7079,ATS,A,19
16,test,4,C,haborder.png,1,m,Wed Mar 12 2025 12:04:31 GMT-0500 (Central Daylight Time),710557.1999999881,CFD-WM-004-005-HC.jpg,1500,solid,O,m,1005,11,1,52449.79999999702,658107.3999999911,7079,ATS,A,20
17,test,4,C,haborder.png,1,z,Wed Mar 12 2025 12:04:31 GMT-0500 (Central Daylight Time),713189.3999999911,CFD-WF-003-014-A.jpg,1700,solid,O,z,898,9,1,55082.0,658107.3999999911,7079,ATS,A,21
17,test,4,C,mfborder.png,0,z,Wed Mar 12 2025 12:04:31 GMT-0500 (Central Daylight Time),715988.1999999881,CFD-BF-028-020-HC.jpg,1500,dash,O,m,1271,3,1,57880.79999999702,658107.3999999911,7079,ATS,A,22
18,test,4,C,haborder.png,1,m,Wed Mar 12 2025 12:04:31 GMT-0500 (Central Daylight Time),717937.0,CFD-WM-004-005-HC.jpg,1000,solid,O,m,925,12,1,59829.60000000894,658107.3999999911,7079,ATS,A,23
19,test,4,C,haborder.png,1,z,Wed Mar 12 2025 12:04:31 GMT-0500 (Central Daylight Time),720420.099999994,CFD-BF-023-013-A.jpg,1400,solid,O,z,1055,7,1,62312.70000000298,658107.3999999911,7079,ATS,A,24
