acc_sum,block,block_c,change,condition,correct,correct_response,datetime,endtime,face,project,response,response_time,row_sel,session_number,start_end,starttime,subject_id,task,task_vers,trial
0,prac,1,,1-Back,,,Fri Mar 07 2025 09:26:19 GMT-0600 (Central Standard Time),,097_m_f_n_a.png,I,space,11836,1,1,,,8024,NNB,B,0
0,prac,1,0.0,1-Back,0,m,Fri Mar 07 2025 09:26:19 GMT-0600 (Central Standard Time),147336.0,152_y_f_n_a.png,I,z,777,2,1,1639.2999999970198,145696.70000000298,8024,NNB,B,1
0,prac,1,1.0,1-Back,0,z,Fri Mar 07 2025 09:26:19 GMT-0600 (Central Standard Time),150036.20000000298,152_y_f_n_a.png,I,m,1918,3,1,2692.60000000149,147343.6000000015,8024,NNB,B,2
0,prac,1,0.0,1-Back,0,m,Fri Mar 07 2025 09:26:19 GMT-0600 (Central Standard Time),152734.5,176_o_m_n_a.png,I,z,1829,4,1,2682.2999999970198,150052.20000000298,8024,NNB,B,3
1,prac,1,0.0,1-Back,1,m,Fri Mar 07 2025 09:26:19 GMT-0600 (Central Standard Time),154401.0,126_m_m_n_a.png,I,m,795,5,1,1658.5,152742.5,8024,NNB,B,4
1,prac,1,1.0,1-Back,0,z,Fri Mar 07 2025 09:26:19 GMT-0600 (Central Standard Time),156267.20000000298,126_m_m_n_a.png,I,m,1084,6,1,1858.0,154409.20000000298,8024,NNB,B,5
1,prac,1,0.0,1-Back,0,m,Fri Mar 07 2025 09:26:19 GMT-0600 (Central Standard Time),159149.79999999702,086_o_f_n_a.png,I,None,2003,7,1,2873.1999999955297,156276.6000000015,8024,NNB,B,6
1,prac,1,0.0,1-Back,0,m,Fri Mar 07 2025 09:26:19 GMT-0600 (Central Standard Time),162015.3999999985,178_m_m_n_a.png,I,None,2004,8,1,2857.5,159157.8999999985,8024,NNB,B,7
1,prac,1,0.0,1-Back,0,m,Fri Mar 07 2025 09:26:19 GMT-0600 (Central Standard Time),163879.8999999985,097_m_f_n_a.png,I,z,1001,9,1,1855.1000000014901,162024.79999999702,8024,NNB,B,8
1,prac,1,1.0,1-Back,0,z,Fri Mar 07 2025 09:26:19 GMT-0600 (Central Standard Time),166130.70000000298,097_m_f_n_a.png,I,m,1469,10,1,2242.4000000059605,163888.29999999702,8024,NNB,B,9
1,prac,1,0.0,1-Back,0,m,Fri Mar 07 2025 09:26:19 GMT-0600 (Central Standard Time),168180.0,176_o_m_n_a.png,I,z,1256,11,1,2039.7999999970198,166140.20000000298,8024,NNB,B,10
1,prac,1,0.0,1-Back,0,m,Fri Mar 07 2025 09:26:19 GMT-0600 (Central Standard Time),171028.70000000298,173_y_f_n_a.png,I,None,2007,12,1,2840.2000000029802,168188.5,8024,NNB,B,11
0,prac,2,0.0,1-Back,,,Fri Mar 07 2025 09:26:19 GMT-0600 (Central Standard Time),171028.70000000298,097_m_f_n_a.png,I,a,7026,1,1,2840.2000000029802,168188.5,8024,NNB,B,0
1,prac,2,0.0,1-Back,1,m,Fri Mar 07 2025 09:26:19 GMT-0600 (Central Standard Time),183942.20000000298,152_y_f_n_a.png,I,m,1974,2,1,2823.2000000029802,181119.0,8024,NNB,B,1
1,prac,2,1.0,1-Back,0,z,Fri Mar 07 2025 09:26:19 GMT-0600 (Central Standard Time),186724.1000000015,152_y_f_n_a.png,I,None,2006,3,1,2774.2000000029802,183949.8999999985,8024,NNB,B,2
2,prac,2,0.0,1-Back,1,m,Fri Mar 07 2025 09:26:19 GMT-0600 (Central Standard Time),189472.20000000298,176_o_m_n_a.png,I,m,1969,4,1,2739.2000000029802,186733.0,8024,NNB,B,3
3,prac,2,0.0,1-Back,1,m,Fri Mar 07 2025 09:26:19 GMT-0600 (Central Standard Time),191304.8999999985,126_m_m_n_a.png,I,m,961,5,1,1824.1000000014901,189480.79999999702,8024,NNB,B,4
3,prac,2,1.0,1-Back,0,z,Fri Mar 07 2025 09:26:19 GMT-0600 (Central Standard Time),192637.8999999985,126_m_m_n_a.png,I,m,556,6,1,1323.1999999955297,191314.70000000298,8024,NNB,B,5
3,prac,2,0.0,1-Back,0,m,Fri Mar 07 2025 09:26:19 GMT-0600 (Central Standard Time),195470.70000000298,086_o_f_n_a.png,I,z,1954,7,1,2824.60000000149,192646.1000000015,8024,NNB,B,6
3,prac,2,0.0,1-Back,0,m,Fri Mar 07 2025 09:26:19 GMT-0600 (Central Standard Time),198052.70000000298,178_m_m_n_a.png,I,z,1727,8,1,2576.0,195476.70000000298,8024,NNB,B,7
3,prac,2,0.0,1-Back,0,m,Fri Mar 07 2025 09:26:19 GMT-0600 (Central Standard Time),200821.3999999985,097_m_f_n_a.png,I,None,2008,9,1,2762.39999999851,198059.0,8024,NNB,B,8
3,prac,2,1.0,1-Back,0,z,Fri Mar 07 2025 09:26:19 GMT-0600 (Central Standard Time),203602.20000000298,097_m_f_n_a.png,I,None,2010,10,1,2777.3000000044703,200824.8999999985,8024,NNB,B,9
3,prac,2,0.0,1-Back,0,m,Fri Mar 07 2025 09:26:19 GMT-0600 (Central Standard Time),206384.79999999702,176_o_m_n_a.png,I,None,2007,11,1,2773.1999999955297,203611.6000000015,8024,NNB,B,10
3,prac,2,0.0,1-Back,0,m,Fri Mar 07 2025 09:26:19 GMT-0600 (Central Standard Time),209249.3999999985,173_y_f_n_a.png,I,None,2011,12,1,2855.60000000149,206393.79999999702,8024,NNB,B,11
0,prac,3,0.0,1-Back,,,Fri Mar 07 2025 09:26:19 GMT-0600 (Central Standard Time),209249.3999999985,097_m_f_n_a.png,I,a,14622,1,1,2855.60000000149,206393.79999999702,8024,NNB,B,0
0,prac,3,0.0,1-Back,0,m,Fri Mar 07 2025 09:26:19 GMT-0600 (Central Standard Time),229776.1000000015,152_y_f_n_a.png,I,None,2010,2,1,2856.89999999851,226919.20000000298,8024,NNB,B,1
0,prac,3,1.0,1-Back,0,z,Fri Mar 07 2025 09:26:19 GMT-0600 (Central Standard Time),232091.29999999702,152_y_f_n_a.png,I,m,1531,3,1,2305.39999999851,229785.8999999985,8024,NNB,B,2
0,prac,3,0.0,1-Back,0,m,Fri Mar 07 2025 09:26:19 GMT-0600 (Central Standard Time),234007.3999999985,176_o_m_n_a.png,I,z,1141,4,1,1907.8999999985099,232099.5,8024,NNB,B,3
1,prac,3,0.0,1-Back,1,m,Fri Mar 07 2025 09:26:19 GMT-0600 (Central Standard Time),235792.1000000015,126_m_m_n_a.png,I,m,929,5,1,1775.3999999985099,234016.70000000298,8024,NNB,B,4
1,prac,3,1.0,1-Back,0,z,Fri Mar 07 2025 09:26:19 GMT-0600 (Central Standard Time),237493.3999999985,126_m_m_n_a.png,I,m,918,6,1,1693.5,235799.8999999985,8024,NNB,B,5
2,prac,3,0.0,1-Back,1,m,Fri Mar 07 2025 09:26:19 GMT-0600 (Central Standard Time),239640.6000000015,086_o_f_n_a.png,I,m,1265,7,1,2139.0,237501.6000000015,8024,NNB,B,6
3,prac,3,0.0,1-Back,1,m,Fri Mar 07 2025 09:26:19 GMT-0600 (Central Standard Time),241890.0,178_m_m_n_a.png,I,m,1401,8,1,2241.10000000149,239648.8999999985,8024,NNB,B,7
4,prac,3,0.0,1-Back,1,m,Fri Mar 07 2025 09:26:19 GMT-0600 (Central Standard Time),244172.70000000298,097_m_f_n_a.png,I,m,1507,9,1,2272.8000000044703,241899.8999999985,8024,NNB,B,8
5,prac,3,1.0,1-Back,1,z,Fri Mar 07 2025 09:26:19 GMT-0600 (Central Standard Time),246220.70000000298,097_m_f_n_a.png,I,z,1278,10,1,2043.3000000044703,244177.3999999985,8024,NNB,B,9
6,prac,3,0.0,1-Back,1,m,Fri Mar 07 2025 09:26:19 GMT-0600 (Central Standard Time),247971.20000000298,176_o_m_n_a.png,I,m,969,11,1,1742.9000000059605,246228.29999999702,8024,NNB,B,10
7,prac,3,0.0,1-Back,1,m,Fri Mar 07 2025 09:26:19 GMT-0600 (Central Standard Time),250137.70000000298,173_y_f_n_a.png,I,m,1314,12,1,2158.8000000044703,247978.8999999985,8024,NNB,B,11
0,test,1,0.0,1-Back,,,Fri Mar 07 2025 09:26:19 GMT-0600 (Central Standard Time),250137.70000000298,152_y_f_n_a.png,I,space,5853,1,1,2158.8000000044703,247978.8999999985,8024,NNB,B,0
1,test,1,0.0,1-Back,1,m,Fri Mar 07 2025 09:26:19 GMT-0600 (Central Standard Time),271814.3999999985,029_m_f_n_a.png,I,m,1409,2,1,2425.89999999851,269388.5,8024,NNB,B,1
2,test,1,0.0,1-Back,1,m,Fri Mar 07 2025 09:26:19 GMT-0600 (Central Standard Time),274112.6000000015,173_y_f_n_a.png,I,m,1282,3,1,2290.8000000044703,271821.799999997,8024,NNB,B,2
3,test,1,1.0,1-Back,1,z,Fri Mar 07 2025 09:26:19 GMT-0600 (Central Standard Time),276426.5,173_y_f_n_a.png,I,z,1291,4,1,2308.2999999970198,274118.200000003,8024,NNB,B,3
3,test,1,0.0,1-Back,0,m,Fri Mar 07 2025 09:26:19 GMT-0600 (Central Standard Time),279193.0,029_m_f_n_a.png,I,z,1735,5,1,2762.5,276430.5,8024,NNB,B,4
4,test,1,0.0,1-Back,1,m,Fri Mar 07 2025 09:26:19 GMT-0600 (Central Standard Time),281344.1000000015,176_o_m_n_a.png,I,m,1133,6,1,2145.10000000149,279199.0,8024,NNB,B,5
5,test,1,1.0,1-Back,1,z,Fri Mar 07 2025 09:26:19 GMT-0600 (Central Standard Time),283625.299999997,176_o_m_n_a.png,I,z,1264,7,1,2273.6999999955297,281351.6000000015,8024,NNB,B,6
6,test,1,0.0,1-Back,1,m,Fri Mar 07 2025 09:26:19 GMT-0600 (Central Standard Time),285791.8999999985,126_m_m_n_a.png,I,m,1139,8,1,2158.7999999970198,283633.1000000015,8024,NNB,B,7
7,test,1,0.0,1-Back,1,m,Fri Mar 07 2025 09:26:19 GMT-0600 (Central Standard Time),288341.0,086_o_f_n_a.png,I,m,1525,9,1,2542.89999999851,285798.1000000015,8024,NNB,B,8
7,test,1,0.0,1-Back,0,m,Fri Mar 07 2025 09:26:19 GMT-0600 (Central Standard Time),291072.0,126_m_m_n_a.png,I,z,1710,10,1,2723.7999999970198,288348.200000003,8024,NNB,B,9
8,test,1,0.0,1-Back,1,m,Fri Mar 07 2025 09:26:19 GMT-0600 (Central Standard Time),293323.1000000015,153_y_m_n_a.png,I,m,1219,11,1,2248.5,291074.6000000015,8024,NNB,B,10
9,test,1,1.0,1-Back,1,z,Fri Mar 07 2025 09:26:19 GMT-0600 (Central Standard Time),295470.6000000015,153_y_m_n_a.png,I,z,1121,12,1,2140.0,293330.6000000015,8024,NNB,B,11
10,test,1,0.0,1-Back,1,m,Fri Mar 07 2025 09:26:19 GMT-0600 (Central Standard Time),298021.1000000015,110_o_f_n_a.png,I,m,1525,13,1,2542.2000000029802,295478.8999999985,8024,NNB,B,12
11,test,1,1.0,1-Back,1,z,Fri Mar 07 2025 09:26:19 GMT-0600 (Central Standard Time),299970.299999997,110_o_f_n_a.png,I,z,917,14,1,1941.7999999970198,298028.5,8024,NNB,B,13
12,test,1,0.0,1-Back,1,m,Fri Mar 07 2025 09:26:19 GMT-0600 (Central Standard Time),302553.0,013_y_m_n_a.png,I,m,1553,15,1,2575.2999999970198,299977.700000003,8024,NNB,B,14
13,test,1,0.0,1-Back,1,m,Fri Mar 07 2025 09:26:19 GMT-0600 (Central Standard Time),304685.1000000015,097_m_f_n_a.png,I,m,1098,16,1,2124.89999999851,302560.200000003,8024,NNB,B,15
14,test,1,0.0,1-Back,1,m,Fri Mar 07 2025 09:26:19 GMT-0600 (Central Standard Time),306801.6000000015,065_o_m_n_a.png,I,m,1088,17,1,2108.3000000044703,304693.299999997,8024,NNB,B,16
14,test,1,0.0,1-Back,0,m,Fri Mar 07 2025 09:26:19 GMT-0600 (Central Standard Time),309450.200000003,097_m_f_n_a.png,I,z,1618,18,1,2640.60000000149,306809.6000000015,8024,NNB,B,17
0,test,2,0.0,1-Back,,,Fri Mar 07 2025 09:26:19 GMT-0600 (Central Standard Time),309450.200000003,126_m_m_n_a.png,I,space,2106,1,1,2640.60000000149,306809.6000000015,8024,NNB,B,0
1,test,2,0.0,1-Back,1,m,Fri Mar 07 2025 09:26:19 GMT-0600 (Central Standard Time),315364.8999999985,029_m_f_n_a.png,I,m,757,2,1,1776.6000000014901,313588.299999997,8024,NNB,B,1
2,test,2,1.0,1-Back,1,z,Fri Mar 07 2025 09:26:19 GMT-0600 (Central Standard Time),318380.8999999985,029_m_f_n_a.png,I,z,1985,3,1,3011.0,315369.8999999985,8024,NNB,B,2
2,test,2,0.0,1-Back,0,m,Fri Mar 07 2025 09:26:19 GMT-0600 (Central Standard Time),320614.799999997,126_m_m_n_a.png,I,z,1215,4,1,2227.5999999940395,318387.200000003,8024,NNB,B,3
3,test,2,0.0,1-Back,1,m,Fri Mar 07 2025 09:26:19 GMT-0600 (Central Standard Time),323161.700000003,153_y_m_n_a.png,I,m,1526,5,1,2542.7000000029802,320619.0,8024,NNB,B,4
4,test,2,0.0,1-Back,1,m,Fri Mar 07 2025 09:26:19 GMT-0600 (Central Standard Time),325212.1000000015,152_y_f_n_a.png,I,m,1017,6,1,2043.3000000044703,323168.799999997,8024,NNB,B,5
5,test,2,1.0,1-Back,1,z,Fri Mar 07 2025 09:26:19 GMT-0600 (Central Standard Time),327178.3999999985,152_y_f_n_a.png,I,z,935,7,1,1959.1000000014901,325219.299999997,8024,NNB,B,6
6,test,2,0.0,1-Back,1,m,Fri Mar 07 2025 09:26:19 GMT-0600 (Central Standard Time),329343.6000000015,153_y_m_n_a.png,I,m,1137,8,1,2159.10000000149,327184.5,8024,NNB,B,7
7,test,2,0.0,1-Back,1,m,Fri Mar 07 2025 09:26:19 GMT-0600 (Central Standard Time),331612.0,110_o_f_n_a.png,I,m,1235,9,1,2262.2999999970198,329349.700000003,8024,NNB,B,8
8,test,2,0.0,1-Back,1,m,Fri Mar 07 2025 09:26:19 GMT-0600 (Central Standard Time),333642.299999997,178_m_m_n_a.png,I,m,1010,10,1,2024.0999999940395,331618.200000003,8024,NNB,B,9
9,test,2,1.0,1-Back,1,z,Fri Mar 07 2025 09:26:19 GMT-0600 (Central Standard Time),335558.8999999985,178_m_m_n_a.png,I,z,890,11,1,1909.3999999985099,333649.5,8024,NNB,B,10
10,test,2,0.0,1-Back,1,m,Fri Mar 07 2025 09:26:19 GMT-0600 (Central Standard Time),337975.6000000015,110_o_f_n_a.png,I,m,1391,12,1,2410.2000000029802,335565.3999999985,8024,NNB,B,11
11,test,2,0.0,1-Back,1,m,Fri Mar 07 2025 09:26:19 GMT-0600 (Central Standard Time),340223.700000003,086_o_f_n_a.png,I,m,1217,13,1,2239.60000000149,337984.1000000015,8024,NNB,B,12
12,test,2,0.0,1-Back,1,m,Fri Mar 07 2025 09:26:19 GMT-0600 (Central Standard Time),342357.5,176_o_m_n_a.png,I,m,1098,14,1,2129.2000000029802,340228.299999997,8024,NNB,B,13
13,test,2,0.0,1-Back,1,m,Fri Mar 07 2025 09:26:19 GMT-0600 (Central Standard Time),344373.8999999985,065_o_m_n_a.png,I,m,990,15,1,2008.3999999985099,342365.5,8024,NNB,B,14
14,test,2,1.0,1-Back,1,z,Fri Mar 07 2025 09:26:19 GMT-0600 (Central Standard Time),346321.700000003,065_o_m_n_a.png,I,z,918,16,1,1942.2000000029802,344379.5,8024,NNB,B,15
15,test,2,0.0,1-Back,1,m,Fri Mar 07 2025 09:26:19 GMT-0600 (Central Standard Time),348587.1000000015,013_y_m_n_a.png,I,m,1241,17,1,2258.8000000044703,346328.299999997,8024,NNB,B,16
16,test,2,1.0,1-Back,1,z,Fri Mar 07 2025 09:26:19 GMT-0600 (Central Standard Time),350654.799999997,013_y_m_n_a.png,I,z,1039,18,1,2061.2999999970198,348593.5,8024,NNB,B,17
0,test,3,1.0,1-Back,,,Fri Mar 07 2025 09:26:19 GMT-0600 (Central Standard Time),350654.799999997,173_y_f_n_a.png,I,space,989,1,1,2061.2999999970198,348593.5,8024,NNB,B,0
1,test,3,0.0,1-Back,1,m,Fri Mar 07 2025 09:26:19 GMT-0600 (Central Standard Time),355887.1000000015,065_o_m_n_a.png,I,m,1114,1,1,2123.7000000029802,353763.3999999985,8024,NNB,B,1
2,test,3,1.0,1-Back,1,z,Fri Mar 07 2025 09:26:19 GMT-0600 (Central Standard Time),357969.1000000015,065_o_m_n_a.png,I,z,1055,1,1,2075.3000000044703,355893.799999997,8024,NNB,B,2
3,test,3,0.0,1-Back,1,m,Fri Mar 07 2025 09:26:19 GMT-0600 (Central Standard Time),359886.5,097_m_f_n_a.png,I,m,900,1,1,1910.5,357976.0,8024,NNB,B,3
4,test,3,1.0,1-Back,1,z,Fri Mar 07 2025 09:26:19 GMT-0600 (Central Standard Time),361983.700000003,097_m_f_n_a.png,I,z,1071,1,1,2088.60000000149,359895.1000000015,8024,NNB,B,4
5,test,3,0.0,1-Back,1,m,Fri Mar 07 2025 09:26:19 GMT-0600 (Central Standard Time),364285.299999997,110_o_f_n_a.png,I,m,1268,1,1,2295.5,361989.799999997,8024,NNB,B,5
6,test,3,0.0,1-Back,1,m,Fri Mar 07 2025 09:26:19 GMT-0600 (Central Standard Time),366282.8999999985,153_y_m_n_a.png,I,m,965,1,1,1994.5,364288.3999999985,8024,NNB,B,6
6,test,3,0.0,1-Back,0,m,Fri Mar 07 2025 09:26:19 GMT-0600 (Central Standard Time),369183.200000003,110_o_f_n_a.png,I,z,1882,1,1,2893.5,366289.700000003,8024,NNB,B,7
7,test,3,0.0,1-Back,1,m,Fri Mar 07 2025 09:26:19 GMT-0600 (Central Standard Time),371281.1000000015,013_y_m_n_a.png,I,m,1080,1,1,2091.5,369189.6000000015,8024,NNB,B,8
8,test,3,1.0,1-Back,1,z,Fri Mar 07 2025 09:26:19 GMT-0600 (Central Standard Time),373263.799999997,013_y_m_n_a.png,I,z,952,1,1,1976.0999999940395,371287.700000003,8024,NNB,B,9
9,test,3,0.0,1-Back,1,m,Fri Mar 07 2025 09:26:19 GMT-0600 (Central Standard Time),375378.799999997,029_m_f_n_a.png,I,m,1092,1,1,2108.5999999940395,373270.200000003,8024,NNB,B,10
10,test,3,0.0,1-Back,1,m,Fri Mar 07 2025 09:26:19 GMT-0600 (Central Standard Time),377513.1000000015,152_y_f_n_a.png,I,m,1102,1,1,2128.10000000149,375385.0,8024,NNB,B,11
11,test,3,1.0,1-Back,1,z,Fri Mar 07 2025 09:26:19 GMT-0600 (Central Standard Time),379311.8999999985,152_y_f_n_a.png,I,z,780,1,1,1792.0,377519.8999999985,8024,NNB,B,12
12,test,3,0.0,1-Back,1,m,Fri Mar 07 2025 09:26:19 GMT-0600 (Central Standard Time),382043.700000003,029_m_f_n_a.png,I,m,1701,1,1,2725.4000000059605,379318.299999997,8024,NNB,B,13
13,test,3,0.0,1-Back,1,m,Fri Mar 07 2025 09:26:19 GMT-0600 (Central Standard Time),384193.700000003,126_m_m_n_a.png,I,m,1129,1,1,2143.3000000044703,382050.3999999985,8024,NNB,B,14
14,test,3,1.0,1-Back,1,z,Fri Mar 07 2025 09:26:19 GMT-0600 (Central Standard Time),386075.700000003,126_m_m_n_a.png,I,z,858,1,1,1874.9000000059605,384200.799999997,8024,NNB,B,15
15,test,3,0.0,1-Back,1,m,Fri Mar 07 2025 09:26:19 GMT-0600 (Central Standard Time),388494.6000000015,086_o_f_n_a.png,I,m,1382,1,1,2412.10000000149,386082.5,8024,NNB,B,16
16,test,3,1.0,1-Back,1,z,Fri Mar 07 2025 09:26:19 GMT-0600 (Central Standard Time),390909.3999999985,086_o_f_n_a.png,I,z,1391,1,1,2408.10000000149,388501.299999997,8024,NNB,B,17
0,test,4,1.0,1-Back,,,Fri Mar 07 2025 09:26:19 GMT-0600 (Central Standard Time),390909.3999999985,097_m_f_n_a.png,I,space,1216,1,1,2408.10000000149,388501.299999997,8024,NNB,B,0
1,test,4,0.0,1-Back,1,m,Fri Mar 07 2025 09:26:19 GMT-0600 (Central Standard Time),396356.8999999985,065_o_m_n_a.png,I,m,1085,2,1,2109.6999999955297,394247.200000003,8024,NNB,B,1
1,test,4,0.0,1-Back,0,m,Fri Mar 07 2025 09:26:19 GMT-0600 (Central Standard Time),398156.200000003,097_m_f_n_a.png,I,z,776,3,1,1793.1000000014901,396363.1000000015,8024,NNB,B,2
2,test,4,0.0,1-Back,1,m,Fri Mar 07 2025 09:26:19 GMT-0600 (Central Standard Time),399939.0,110_o_f_n_a.png,I,m,751,4,1,1776.2999999970198,398162.700000003,8024,NNB,B,3
2,test,4,1.0,1-Back,0,z,Fri Mar 07 2025 09:26:19 GMT-0600 (Central Standard Time),401720.799999997,110_o_f_n_a.png,I,m,753,5,1,1775.5,399945.299999997,8024,NNB,B,4
3,test,4,0.0,1-Back,1,m,Fri Mar 07 2025 09:26:19 GMT-0600 (Central Standard Time),403704.0,152_y_f_n_a.png,I,m,954,6,1,1977.3999999985099,401726.6000000015,8024,NNB,B,5
4,test,4,0.0,1-Back,1,m,Fri Mar 07 2025 09:26:19 GMT-0600 (Central Standard Time),405487.799999997,153_y_m_n_a.png,I,m,757,7,1,1777.1999999955297,403710.6000000015,8024,NNB,B,6
4,test,4,1.0,1-Back,0,z,Fri Mar 07 2025 09:26:19 GMT-0600 (Central Standard Time),407369.1000000015,153_y_m_n_a.png,I,m,854,8,1,1875.1000000014901,405494.0,8024,NNB,B,7
5,test,4,0.0,1-Back,1,m,Fri Mar 07 2025 09:26:19 GMT-0600 (Central Standard Time),409450.799999997,152_y_f_n_a.png,I,m,1057,9,1,2074.2999999970198,407376.5,8024,NNB,B,8
6,test,4,0.0,1-Back,1,m,Fri Mar 07 2025 09:26:19 GMT-0600 (Central Standard Time),411200.200000003,178_m_m_n_a.png,I,m,719,10,1,1743.9000000059605,409456.299999997,8024,NNB,B,9
6,test,4,1.0,1-Back,0,z,Fri Mar 07 2025 09:26:19 GMT-0600 (Central Standard Time),413400.200000003,178_m_m_n_a.png,I,m,1177,11,1,2193.4000000059605,411206.799999997,8024,NNB,B,10
7,test,4,0.0,1-Back,1,m,Fri Mar 07 2025 09:26:19 GMT-0600 (Central Standard Time),415436.0,086_o_f_n_a.png,I,m,1003,12,1,2029.7999999970198,413406.200000003,8024,NNB,B,11
8,test,4,0.0,1-Back,1,m,Fri Mar 07 2025 09:26:19 GMT-0600 (Central Standard Time),417367.299999997,176_o_m_n_a.png,I,m,916,13,1,1924.5,415442.799999997,8024,NNB,B,12
9,test,4,0.0,1-Back,1,m,Fri Mar 07 2025 09:26:19 GMT-0600 (Central Standard Time),419331.799999997,086_o_f_n_a.png,I,m,943,14,1,1960.0,417371.799999997,8024,NNB,B,13
10,test,4,0.0,1-Back,1,m,Fri Mar 07 2025 09:26:19 GMT-0600 (Central Standard Time),421915.799999997,173_y_f_n_a.png,I,m,1558,15,1,2575.89999999851,419339.8999999985,8024,NNB,B,14
11,test,4,1.0,1-Back,1,z,Fri Mar 07 2025 09:26:19 GMT-0600 (Central Standard Time),423649.1000000015,173_y_f_n_a.png,I,z,717,16,1,1725.3000000044703,421923.799999997,8024,NNB,B,15
12,test,4,0.0,1-Back,1,m,Fri Mar 07 2025 09:26:19 GMT-0600 (Central Standard Time),426231.5,029_m_f_n_a.png,I,m,1566,17,1,2577.0,423654.5,8024,NNB,B,16
13,test,4,1.0,1-Back,1,z,Fri Mar 07 2025 09:26:19 GMT-0600 (Central Standard Time),428146.1000000015,029_m_f_n_a.png,I,z,886,18,1,1906.7000000029802,426239.3999999985,8024,NNB,B,17
0,test,5,1.0,1-Back,,,Fri Mar 07 2025 09:26:19 GMT-0600 (Central Standard Time),428146.1000000015,176_o_m_n_a.png,I,space,1027,1,1,1906.7000000029802,426239.3999999985,8024,NNB,B,0
1,test,5,1.0,1-Back,1,z,Fri Mar 07 2025 09:26:19 GMT-0600 (Central Standard Time),433428.299999997,176_o_m_n_a.png,I,z,1209,2,1,2224.5999999940395,431203.700000003,8024,NNB,B,1
2,test,5,0.0,1-Back,1,m,Fri Mar 07 2025 09:26:19 GMT-0600 (Central Standard Time),435411.1000000015,152_y_f_n_a.png,I,m,951,3,1,1975.2000000029802,433435.8999999985,8024,NNB,B,2
3,test,5,0.0,1-Back,1,m,Fri Mar 07 2025 09:26:19 GMT-0600 (Central Standard Time),437527.700000003,153_y_m_n_a.png,I,m,1098,4,1,2108.4000000059605,435419.299999997,8024,NNB,B,3
4,test,5,0.0,1-Back,1,m,Fri Mar 07 2025 09:26:19 GMT-0600 (Central Standard Time),439644.5,152_y_f_n_a.png,I,m,1093,5,1,2109.2000000029802,437535.299999997,8024,NNB,B,4
5,test,5,0.0,1-Back,1,m,Fri Mar 07 2025 09:26:19 GMT-0600 (Central Standard Time),441312.700000003,126_m_m_n_a.png,I,m,653,6,1,1660.6000000014901,439652.1000000015,8024,NNB,B,5
5,test,5,1.0,1-Back,0,z,Fri Mar 07 2025 09:26:19 GMT-0600 (Central Standard Time),443126.0,126_m_m_n_a.png,I,m,800,7,1,1805.2999999970198,441320.700000003,8024,NNB,B,6
6,test,5,0.0,1-Back,1,m,Fri Mar 07 2025 09:26:19 GMT-0600 (Central Standard Time),444758.1000000015,173_y_f_n_a.png,I,m,606,8,1,1625.3999999985099,443132.700000003,8024,NNB,B,7
7,test,5,0.0,1-Back,1,m,Fri Mar 07 2025 09:26:19 GMT-0600 (Central Standard Time),446456.700000003,013_y_m_n_a.png,I,m,679,9,1,1690.8000000044703,444765.8999999985,8024,NNB,B,8
8,test,5,0.0,1-Back,1,m,Fri Mar 07 2025 09:26:19 GMT-0600 (Central Standard Time),448090.0,173_y_f_n_a.png,I,m,612,10,1,1626.1000000014901,446463.8999999985,8024,NNB,B,9
9,test,5,0.0,1-Back,1,m,Fri Mar 07 2025 09:26:19 GMT-0600 (Central Standard Time),449673.1000000015,086_o_f_n_a.png,I,m,561,11,1,1574.5,448098.6000000015,8024,NNB,B,10
9,test,5,1.0,1-Back,0,z,Fri Mar 07 2025 09:26:19 GMT-0600 (Central Standard Time),452206.799999997,086_o_f_n_a.png,I,m,1515,12,1,2527.2999999970198,449679.5,8024,NNB,B,11
10,test,5,0.0,1-Back,1,m,Fri Mar 07 2025 09:26:19 GMT-0600 (Central Standard Time),454206.299999997,065_o_m_n_a.png,I,m,983,13,1,1993.5,452212.799999997,8024,NNB,B,12
11,test,5,0.0,1-Back,1,m,Fri Mar 07 2025 09:26:19 GMT-0600 (Central Standard Time),456087.3999999985,097_m_f_n_a.png,I,m,863,14,1,1872.7999999970198,454214.6000000015,8024,NNB,B,13
12,test,5,1.0,1-Back,1,z,Fri Mar 07 2025 09:26:19 GMT-0600 (Central Standard Time),458152.799999997,097_m_f_n_a.png,I,z,1044,15,1,2061.5,456091.299999997,8024,NNB,B,14
13,test,5,0.0,1-Back,1,m,Fri Mar 07 2025 09:26:19 GMT-0600 (Central Standard Time),460352.3999999985,065_o_m_n_a.png,I,m,1179,16,1,2190.2999999970198,458162.1000000015,8024,NNB,B,15
14,test,5,0.0,1-Back,1,m,Fri Mar 07 2025 09:26:19 GMT-0600 (Central Standard Time),462253.200000003,029_m_f_n_a.png,I,m,877,17,1,1895.7000000029802,460357.5,8024,NNB,B,16
15,test,5,0.0,1-Back,1,m,Fri Mar 07 2025 09:26:19 GMT-0600 (Central Standard Time),464268.8999999985,178_m_m_n_a.png,I,m,989,18,1,2012.1000000014901,462256.799999997,8024,NNB,B,17
0,prac,1,0.0,2-Back,,,Fri Mar 07 2025 09:26:19 GMT-0600 (Central Standard Time),464268.8999999985,013_y_m_n_a.png,I,space,5459,1,1,2012.1000000014901,462256.799999997,8024,NNB,B,0
0,prac,1,0.0,2-Back,,,Fri Mar 07 2025 09:26:19 GMT-0600 (Central Standard Time),464268.8999999985,029_m_f_n_a.png,I,space,5459,2,1,2012.1000000014901,462256.799999997,8024,NNB,B,0
1,prac,1,1.0,2-Back,1,m,Fri Mar 07 2025 09:26:19 GMT-0600 (Central Standard Time),567218.799999997,065_o_m_n_a.png,I,m,1093,3,1,1956.5,565262.299999997,8024,NNB,B,1
1,prac,1,0.0,2-Back,0,m,Fri Mar 07 2025 09:26:19 GMT-0600 (Central Standard Time),570102.700000003,086_o_f_n_a.png,I,None,2006,4,1,2876.5,567226.200000003,8024,NNB,B,2
1,prac,1,0.0,2-Back,0,z,Fri Mar 07 2025 09:26:19 GMT-0600 (Central Standard Time),572150.8999999985,065_o_m_n_a.png,I,m,1270,5,1,2040.3999999985099,570110.5,8024,NNB,B,3
2,prac,1,1.0,2-Back,1,z,Fri Mar 07 2025 09:26:19 GMT-0600 (Central Standard Time),574084.8999999985,086_o_f_n_a.png,I,z,1142,6,1,1926.1000000014901,572158.799999997,8024,NNB,B,4
2,prac,1,0.0,2-Back,0,m,Fri Mar 07 2025 09:26:19 GMT-0600 (Central Standard Time),576949.3999999985,178_m_m_n_a.png,I,None,2006,7,1,2855.39999999851,574094.0,8024,NNB,B,5
2,prac,1,0.0,2-Back,0,m,Fri Mar 07 2025 09:26:19 GMT-0600 (Central Standard Time),579814.6000000015,176_o_m_n_a.png,I,None,2003,8,1,2856.39999999851,576958.200000003,8024,NNB,B,6
2,prac,1,0.0,2-Back,0,m,Fri Mar 07 2025 09:26:19 GMT-0600 (Central Standard Time),581497.799999997,173_y_f_n_a.png,I,z,830,9,1,1675.5999999940395,579822.200000003,8024,NNB,B,7
3,prac,1,1.0,2-Back,1,z,Fri Mar 07 2025 09:26:19 GMT-0600 (Central Standard Time),583531.6000000015,176_o_m_n_a.png,I,z,1252,10,1,2025.7000000029802,581505.8999999985,8024,NNB,B,8
3,prac,1,0.0,2-Back,0,m,Fri Mar 07 2025 09:26:19 GMT-0600 (Central Standard Time),586396.299999997,152_y_f_n_a.png,I,None,2002,11,1,2855.5999999940395,583540.700000003,8024,NNB,B,9
4,prac,1,0.0,2-Back,1,m,Fri Mar 07 2025 09:26:19 GMT-0600 (Central Standard Time),588179.0,178_m_m_n_a.png,I,m,1002,12,1,1775.5,586403.5,8024,NNB,B,10
0,prac,2,0.0,2-Back,,,Fri Mar 07 2025 09:26:19 GMT-0600 (Central Standard Time),588179.0,013_y_m_n_a.png,I,a,7334,1,1,1775.5,586403.5,8024,NNB,B,0
0,prac,2,0.0,2-Back,,,Fri Mar 07 2025 09:26:19 GMT-0600 (Central Standard Time),588179.0,029_m_f_n_a.png,I,a,7334,2,1,1775.5,586403.5,8024,NNB,B,0
1,prac,2,1.0,2-Back,1,m,Fri Mar 07 2025 09:26:19 GMT-0600 (Central Standard Time),602623.8999999985,065_o_m_n_a.png,I,m,993,3,1,1857.0,600766.8999999985,8024,NNB,B,1
2,prac,2,0.0,2-Back,1,m,Fri Mar 07 2025 09:26:19 GMT-0600 (Central Standard Time),604856.700000003,086_o_f_n_a.png,I,m,1349,4,1,2223.9000000059605,602632.799999997,8024,NNB,B,2
2,prac,2,0.0,2-Back,0,z,Fri Mar 07 2025 09:26:19 GMT-0600 (Central Standard Time),606973.700000003,065_o_m_n_a.png,I,m,1342,5,1,2109.4000000059605,604864.299999997,8024,NNB,B,3
3,prac,2,1.0,2-Back,1,z,Fri Mar 07 2025 09:26:19 GMT-0600 (Central Standard Time),609622.6000000015,086_o_f_n_a.png,I,z,1862,6,1,2639.10000000149,606983.5,8024,NNB,B,4
4,prac,2,0.0,2-Back,1,m,Fri Mar 07 2025 09:26:19 GMT-0600 (Central Standard Time),611388.299999997,178_m_m_n_a.png,I,m,991,7,1,1757.0,609631.299999997,8024,NNB,B,5
5,prac,2,0.0,2-Back,1,m,Fri Mar 07 2025 09:26:19 GMT-0600 (Central Standard Time),613470.1000000015,176_o_m_n_a.png,I,m,1201,8,1,2074.0,611396.1000000015,8024,NNB,B,6
6,prac,2,0.0,2-Back,1,m,Fri Mar 07 2025 09:26:19 GMT-0600 (Central Standard Time),615387.200000003,173_y_f_n_a.png,I,m,1040,9,1,1909.8000000044703,613477.3999999985,8024,NNB,B,7
7,prac,2,1.0,2-Back,1,z,Fri Mar 07 2025 09:26:19 GMT-0600 (Central Standard Time),617137.3999999985,176_o_m_n_a.png,I,z,971,10,1,1742.6000000014901,615394.799999997,8024,NNB,B,8
8,prac,2,0.0,2-Back,1,m,Fri Mar 07 2025 09:26:19 GMT-0600 (Central Standard Time),618968.799999997,152_y_f_n_a.png,I,m,972,11,1,1824.0,617144.799999997,8024,NNB,B,9
8,prac,2,0.0,2-Back,0,m,Fri Mar 07 2025 09:26:19 GMT-0600 (Central Standard Time),621069.700000003,178_m_m_n_a.png,I,z,1314,12,1,2091.2000000029802,618978.5,8024,NNB,B,10
0,test,1,0.0,2-Back,,,Fri Mar 07 2025 09:26:19 GMT-0600 (Central Standard Time),621069.700000003,153_y_m_n_a.png,I,space,8189,1,1,2091.2000000029802,618978.5,8024,NNB,B,0
0,test,1,0.0,2-Back,,,Fri Mar 07 2025 09:26:19 GMT-0600 (Central Standard Time),621069.700000003,153_y_m_n_a.png,I,space,8189,2,1,2091.2000000029802,618978.5,8024,NNB,B,0
1,test,1,0.0,2-Back,1,m,Fri Mar 07 2025 09:26:19 GMT-0600 (Central Standard Time),641580.1000000015,086_o_f_n_a.png,I,m,851,3,1,1877.1000000014901,639703.0,8024,NNB,B,1
2,test,1,0.0,2-Back,1,m,Fri Mar 07 2025 09:26:19 GMT-0600 (Central Standard Time),643760.299999997,126_m_m_n_a.png,I,m,1153,4,1,2172.89999999851,641587.3999999985,8024,NNB,B,2
2,test,1,1.0,2-Back,0,z,Fri Mar 07 2025 09:26:19 GMT-0600 (Central Standard Time),645511.8999999985,086_o_f_n_a.png,I,m,733,5,1,1744.6999999955297,643767.200000003,8024,NNB,B,3
3,test,1,0.0,2-Back,1,m,Fri Mar 07 2025 09:26:19 GMT-0600 (Central Standard Time),647226.700000003,152_y_f_n_a.png,I,m,684,6,1,1707.3000000044703,645519.3999999985,8024,NNB,B,4
4,test,1,0.0,2-Back,1,m,Fri Mar 07 2025 09:26:19 GMT-0600 (Central Standard Time),648859.8999999985,126_m_m_n_a.png,I,m,609,7,1,1626.1999999955297,647233.700000003,8024,NNB,B,5
4,test,1,1.0,2-Back,0,z,Fri Mar 07 2025 09:26:19 GMT-0600 (Central Standard Time),650476.0,152_y_f_n_a.png,I,m,592,8,1,1609.7000000029802,648866.299999997,8024,NNB,B,6
4,test,1,0.0,2-Back,0,m,Fri Mar 07 2025 09:26:19 GMT-0600 (Central Standard Time),652525.299999997,013_y_m_n_a.png,I,z,1022,9,1,2041.5,650483.799999997,8024,NNB,B,7
5,test,1,0.0,2-Back,1,m,Fri Mar 07 2025 09:26:19 GMT-0600 (Central Standard Time),654741.6000000015,110_o_f_n_a.png,I,m,1191,10,1,2208.10000000149,652533.5,8024,NNB,B,8
6,test,1,1.0,2-Back,1,z,Fri Mar 07 2025 09:26:19 GMT-0600 (Central Standard Time),656706.799999997,013_y_m_n_a.png,I,z,933,11,1,1957.5,654749.299999997,8024,NNB,B,9
7,test,1,0.0,2-Back,1,m,Fri Mar 07 2025 09:26:19 GMT-0600 (Central Standard Time),658574.299999997,029_m_f_n_a.png,I,m,835,12,1,1860.3999999985099,656713.8999999985,8024,NNB,B,10
8,test,1,0.0,2-Back,1,m,Fri Mar 07 2025 09:26:19 GMT-0600 (Central Standard Time),660957.700000003,029_m_f_n_a.png,I,m,1351,13,1,2376.3000000044703,658581.3999999985,8024,NNB,B,11
9,test,1,0.0,2-Back,1,m,Fri Mar 07 2025 09:26:19 GMT-0600 (Central Standard Time),662854.5,065_o_m_n_a.png,I,m,880,14,1,1889.1000000014901,660965.3999999985,8024,NNB,B,12
10,test,1,0.0,2-Back,1,m,Fri Mar 07 2025 09:26:19 GMT-0600 (Central Standard Time),664703.700000003,110_o_f_n_a.png,I,m,830,15,1,1845.1000000014901,662858.6000000015,8024,NNB,B,13
11,test,1,1.0,2-Back,1,z,Fri Mar 07 2025 09:26:19 GMT-0600 (Central Standard Time),666421.299999997,065_o_m_n_a.png,I,z,700,16,1,1710.1999999955297,664711.1000000015,8024,NNB,B,14
12,test,1,0.0,2-Back,1,m,Fri Mar 07 2025 09:26:19 GMT-0600 (Central Standard Time),668403.8999999985,097_m_f_n_a.png,I,m,951,17,1,1978.2999999970198,666425.6000000015,8024,NNB,B,15
13,test,1,0.0,2-Back,1,m,Fri Mar 07 2025 09:26:19 GMT-0600 (Central Standard Time),670503.700000003,178_m_m_n_a.png,I,m,1082,18,1,2094.0,668409.700000003,8024,NNB,B,16
0,test,2,0.0,2-Back,,,Fri Mar 07 2025 09:26:19 GMT-0600 (Central Standard Time),670503.700000003,178_m_m_n_a.png,I,space,1261,1,1,2094.0,668409.700000003,8024,NNB,B,0
0,test,2,0.0,2-Back,,,Fri Mar 07 2025 09:26:19 GMT-0600 (Central Standard Time),670503.700000003,173_y_f_n_a.png,I,space,1261,2,1,2094.0,668409.700000003,8024,NNB,B,0
0,test,2,1.0,2-Back,0,z,Fri Mar 07 2025 09:26:19 GMT-0600 (Central Standard Time),678619.299999997,178_m_m_n_a.png,I,m,669,3,1,1693.5999999940395,676925.700000003,8024,NNB,B,1
0,test,2,0.0,2-Back,0,m,Fri Mar 07 2025 09:26:19 GMT-0600 (Central Standard Time),681635.299999997,097_m_f_n_a.png,I,None,2001,4,1,3008.89999999851,678626.3999999985,8024,NNB,B,2
0,test,2,0.0,2-Back,0,m,Fri Mar 07 2025 09:26:19 GMT-0600 (Central Standard Time),683797.700000003,173_y_f_n_a.png,I,z,1140,5,1,2154.7000000029802,681643.0,8024,NNB,B,3
1,test,2,0.0,2-Back,1,m,Fri Mar 07 2025 09:26:19 GMT-0600 (Central Standard Time),685799.200000003,065_o_m_n_a.png,I,m,983,6,1,1995.0,683804.200000003,8024,NNB,B,4
2,test,2,0.0,2-Back,1,m,Fri Mar 07 2025 09:26:19 GMT-0600 (Central Standard Time),687598.0,152_y_f_n_a.png,I,m,782,7,1,1792.7000000029802,685805.299999997,8024,NNB,B,5
3,test,2,1.0,2-Back,1,z,Fri Mar 07 2025 09:26:19 GMT-0600 (Central Standard Time),689796.799999997,065_o_m_n_a.png,I,z,1166,8,1,2194.39999999851,687602.3999999985,8024,NNB,B,6
3,test,2,0.0,2-Back,0,m,Fri Mar 07 2025 09:26:19 GMT-0600 (Central Standard Time),692328.5,013_y_m_n_a.png,I,z,1503,9,1,2525.10000000149,689803.3999999985,8024,NNB,B,7
3,test,2,0.0,2-Back,0,m,Fri Mar 07 2025 09:26:19 GMT-0600 (Central Standard Time),694112.200000003,013_y_m_n_a.png,I,z,762,10,1,1776.0,692336.200000003,8024,NNB,B,8
4,test,2,0.0,2-Back,1,m,Fri Mar 07 2025 09:26:19 GMT-0600 (Central Standard Time),695878.0,029_m_f_n_a.png,I,m,746,11,1,1759.7000000029802,694118.299999997,8024,NNB,B,9
4,test,2,0.0,2-Back,0,m,Fri Mar 07 2025 09:26:19 GMT-0600 (Central Standard Time),697910.5,173_y_f_n_a.png,I,z,1006,12,1,2026.8999999985099,695883.6000000015,8024,NNB,B,10
5,test,2,1.0,2-Back,1,z,Fri Mar 07 2025 09:26:19 GMT-0600 (Central Standard Time),700160.700000003,029_m_f_n_a.png,I,z,1232,13,1,2243.4000000059605,697917.299999997,8024,NNB,B,11
6,test,2,0.0,2-Back,1,m,Fri Mar 07 2025 09:26:19 GMT-0600 (Central Standard Time),702125.200000003,176_o_m_n_a.png,I,m,940,14,1,1958.5,700166.700000003,8024,NNB,B,12
7,test,2,0.0,2-Back,1,m,Fri Mar 07 2025 09:26:19 GMT-0600 (Central Standard Time),703840.6000000015,176_o_m_n_a.png,I,m,694,15,1,1709.3999999985099,702131.200000003,8024,NNB,B,13
8,test,2,0.0,2-Back,1,m,Fri Mar 07 2025 09:26:19 GMT-0600 (Central Standard Time),705857.8999999985,110_o_f_n_a.png,I,m,996,16,1,2010.0,703847.8999999985,8024,NNB,B,14
9,test,2,0.0,2-Back,1,m,Fri Mar 07 2025 09:26:19 GMT-0600 (Central Standard Time),707592.6000000015,126_m_m_n_a.png,I,m,715,17,1,1727.3000000044703,705865.299999997,8024,NNB,B,15
9,test,2,1.0,2-Back,0,z,Fri Mar 07 2025 09:26:19 GMT-0600 (Central Standard Time),709506.299999997,110_o_f_n_a.png,I,m,893,18,1,1907.5,707598.799999997,8024,NNB,B,16
0,test,3,1.0,2-Back,,,Fri Mar 07 2025 09:26:19 GMT-0600 (Central Standard Time),709506.299999997,153_y_m_n_a.png,I,space,1331,1,1,1907.5,707598.799999997,8024,NNB,B,0
0,test,3,1.0,2-Back,,,Fri Mar 07 2025 09:26:19 GMT-0600 (Central Standard Time),709506.299999997,153_y_m_n_a.png,I,space,1331,2,1,1907.5,707598.799999997,8024,NNB,B,0
1,test,3,0.0,2-Back,1,m,Fri Mar 07 2025 09:26:19 GMT-0600 (Central Standard Time),717804.1000000015,110_o_f_n_a.png,I,m,808,3,1,1831.0,715973.1000000015,8024,NNB,B,1
2,test,3,0.0,2-Back,1,m,Fri Mar 07 2025 09:26:19 GMT-0600 (Central Standard Time),719769.299999997,178_m_m_n_a.png,I,m,943,4,1,1958.6999999955297,717810.6000000015,8024,NNB,B,2
2,test,3,1.0,2-Back,0,z,Fri Mar 07 2025 09:26:19 GMT-0600 (Central Standard Time),721503.1000000015,110_o_f_n_a.png,I,m,705,5,1,1727.2000000029802,719775.8999999985,8024,NNB,B,3
2,test,3,0.0,2-Back,0,m,Fri Mar 07 2025 09:26:19 GMT-0600 (Central Standard Time),723451.8999999985,013_y_m_n_a.png,I,z,917,6,1,1942.5,721509.3999999985,8024,NNB,B,4
3,test,3,0.0,2-Back,1,m,Fri Mar 07 2025 09:26:19 GMT-0600 (Central Standard Time),725399.1000000015,178_m_m_n_a.png,I,m,925,7,1,1941.3999999985099,723457.700000003,8024,NNB,B,5
4,test,3,1.0,2-Back,1,z,Fri Mar 07 2025 09:26:19 GMT-0600 (Central Standard Time),727153.200000003,013_y_m_n_a.png,I,z,736,8,1,1751.7000000029802,725401.5,8024,NNB,B,6
5,test,3,0.0,2-Back,1,m,Fri Mar 07 2025 09:26:19 GMT-0600 (Central Standard Time),730135.299999997,173_y_f_n_a.png,I,m,1967,9,1,2975.5999999940395,727159.700000003,8024,NNB,B,7
6,test,3,0.0,2-Back,1,m,Fri Mar 07 2025 09:26:19 GMT-0600 (Central Standard Time),732049.700000003,126_m_m_n_a.png,I,m,895,10,1,1907.2000000029802,730142.5,8024,NNB,B,8
6,test,3,1.0,2-Back,0,z,Fri Mar 07 2025 09:26:19 GMT-0600 (Central Standard Time),734100.299999997,173_y_f_n_a.png,I,m,1026,11,1,2044.3999999985099,732055.8999999985,8024,NNB,B,9
6,test,3,1.0,2-Back,0,z,Fri Mar 07 2025 09:26:19 GMT-0600 (Central Standard Time),736599.700000003,126_m_m_n_a.png,I,m,1483,12,1,2492.60000000149,734107.1000000015,8024,NNB,B,10
7,test,3,0.0,2-Back,1,m,Fri Mar 07 2025 09:26:19 GMT-0600 (Central Standard Time),738130.1000000015,110_o_f_n_a.png,I,m,510,13,1,1524.1000000014901,736606.0,8024,NNB,B,11
8,test,3,0.0,2-Back,1,m,Fri Mar 07 2025 09:26:19 GMT-0600 (Central Standard Time),740130.5,097_m_f_n_a.png,I,m,967,14,1,1993.2000000029802,738137.299999997,8024,NNB,B,12
9,test,3,0.0,2-Back,1,m,Fri Mar 07 2025 09:26:19 GMT-0600 (Central Standard Time),742096.799999997,065_o_m_n_a.png,I,m,933,15,1,1959.5,740137.299999997,8024,NNB,B,13
9,test,3,1.0,2-Back,0,z,Fri Mar 07 2025 09:26:19 GMT-0600 (Central Standard Time),744044.799999997,097_m_f_n_a.png,I,m,924,16,1,1940.8999999985099,742103.8999999985,8024,NNB,B,14
10,test,3,0.0,2-Back,1,m,Fri Mar 07 2025 09:26:19 GMT-0600 (Central Standard Time),746311.5,086_o_f_n_a.png,I,m,1238,17,1,2260.7999999970198,744050.700000003,8024,NNB,B,15
10,test,3,0.0,2-Back,0,m,Fri Mar 07 2025 09:26:19 GMT-0600 (Central Standard Time),748245.6000000015,086_o_f_n_a.png,I,z,901,18,1,1927.8000000044703,746317.799999997,8024,NNB,B,16
0,test,4,0.0,2-Back,,,Fri Mar 07 2025 09:26:19 GMT-0600 (Central Standard Time),748245.6000000015,176_o_m_n_a.png,I,space,1466,1,1,1927.8000000044703,746317.799999997,8024,NNB,B,0
0,test,4,0.0,2-Back,,,Fri Mar 07 2025 09:26:19 GMT-0600 (Central Standard Time),748245.6000000015,152_y_f_n_a.png,I,space,1466,2,1,1927.8000000044703,746317.799999997,8024,NNB,B,0
1,test,4,1.0,2-Back,1,z,Fri Mar 07 2025 09:26:19 GMT-0600 (Central Standard Time),757008.299999997,176_o_m_n_a.png,I,z,1065,3,1,2076.6999999955297,754931.6000000015,8024,NNB,B,1
1,test,4,1.0,2-Back,0,z,Fri Mar 07 2025 09:26:19 GMT-0600 (Central Standard Time),760041.799999997,152_y_f_n_a.png,I,None,2017,4,1,3028.0,757013.799999997,8024,NNB,B,2
2,test,4,0.0,2-Back,1,m,Fri Mar 07 2025 09:26:19 GMT-0600 (Central Standard Time),762040.6000000015,110_o_f_n_a.png,I,m,971,5,1,1991.8999999985099,760048.700000003,8024,NNB,B,3
3,test,4,0.0,2-Back,1,m,Fri Mar 07 2025 09:26:19 GMT-0600 (Central Standard Time),763823.700000003,110_o_f_n_a.png,I,m,766,6,1,1775.9000000059605,762047.799999997,8024,NNB,B,4
4,test,4,0.0,2-Back,1,m,Fri Mar 07 2025 09:26:19 GMT-0600 (Central Standard Time),765656.8999999985,029_m_f_n_a.png,I,m,816,7,1,1826.1000000014901,763830.799999997,8024,NNB,B,5
4,test,4,0.0,2-Back,0,m,Fri Mar 07 2025 09:26:19 GMT-0600 (Central Standard Time),768688.700000003,013_y_m_n_a.png,I,None,2015,8,1,3025.8000000044703,765662.8999999985,8024,NNB,B,6
4,test,4,1.0,2-Back,0,z,Fri Mar 07 2025 09:26:19 GMT-0600 (Central Standard Time),770404.299999997,029_m_f_n_a.png,I,m,685,9,1,1708.8999999985099,768695.3999999985,8024,NNB,B,7
5,test,4,0.0,2-Back,1,m,Fri Mar 07 2025 09:26:19 GMT-0600 (Central Standard Time),772170.6000000015,126_m_m_n_a.png,I,m,735,10,1,1758.2000000029802,770412.3999999985,8024,NNB,B,8
6,test,4,0.0,2-Back,1,m,Fri Mar 07 2025 09:26:19 GMT-0600 (Central Standard Time),774553.3999999985,013_y_m_n_a.png,I,m,1355,11,1,2375.6999999955297,772177.700000003,8024,NNB,B,9
7,test,4,0.0,2-Back,1,m,Fri Mar 07 2025 09:26:19 GMT-0600 (Central Standard Time),776001.3999999985,086_o_f_n_a.png,I,m,427,12,1,1441.0,774560.3999999985,8024,NNB,B,10
8,test,4,0.0,2-Back,1,m,Fri Mar 07 2025 09:26:19 GMT-0600 (Central Standard Time),777736.1000000015,153_y_m_n_a.png,I,m,714,13,1,1728.0,776008.1000000015,8024,NNB,B,11
8,test,4,1.0,2-Back,0,z,Fri Mar 07 2025 09:26:19 GMT-0600 (Central Standard Time),779167.1000000015,086_o_f_n_a.png,I,m,413,14,1,1427.7000000029802,777739.3999999985,8024,NNB,B,12
8,test,4,1.0,2-Back,0,z,Fri Mar 07 2025 09:26:19 GMT-0600 (Central Standard Time),781216.8999999985,153_y_m_n_a.png,I,m,1029,15,1,2043.2999999970198,779173.6000000015,8024,NNB,B,13
9,test,4,0.0,2-Back,1,m,Fri Mar 07 2025 09:26:19 GMT-0600 (Central Standard Time),783565.6000000015,178_m_m_n_a.png,I,m,1322,16,1,2342.60000000149,781223.0,8024,NNB,B,14
10,test,4,0.0,2-Back,1,m,Fri Mar 07 2025 09:26:19 GMT-0600 (Central Standard Time),785382.6000000015,097_m_f_n_a.png,I,m,789,17,1,1810.1000000014901,783572.5,8024,NNB,B,15
10,test,4,1.0,2-Back,0,z,Fri Mar 07 2025 09:26:19 GMT-0600 (Central Standard Time),787132.1000000015,178_m_m_n_a.png,I,m,717,18,1,1742.6000000014901,785389.5,8024,NNB,B,16
0,test,5,1.0,2-Back,,,Fri Mar 07 2025 09:26:19 GMT-0600 (Central Standard Time),787132.1000000015,153_y_m_n_a.png,I,space,1099,1,1,1742.6000000014901,785389.5,8024,NNB,B,0
0,test,5,1.0,2-Back,,,Fri Mar 07 2025 09:26:19 GMT-0600 (Central Standard Time),787132.1000000015,097_m_f_n_a.png,I,space,1099,2,1,1742.6000000014901,785389.5,8024,NNB,B,0
1,test,5,1.0,2-Back,1,z,Fri Mar 07 2025 09:26:19 GMT-0600 (Central Standard Time),795096.8999999985,153_y_m_n_a.png,I,z,770,3,1,1793.3999999985099,793303.5,8024,NNB,B,1
1,test,5,1.0,2-Back,0,z,Fri Mar 07 2025 09:26:19 GMT-0600 (Central Standard Time),797296.8999999985,097_m_f_n_a.png,I,m,1180,4,1,2193.5,795103.3999999985,8024,NNB,B,2
2,test,5,0.0,2-Back,1,m,Fri Mar 07 2025 09:26:19 GMT-0600 (Central Standard Time),799446.700000003,086_o_f_n_a.png,I,m,1133,5,1,2143.7000000029802,797303.0,8024,NNB,B,3
3,test,5,0.0,2-Back,1,m,Fri Mar 07 2025 09:26:19 GMT-0600 (Central Standard Time),801161.299999997,153_y_m_n_a.png,I,m,686,6,1,1711.2999999970198,799450.0,8024,NNB,B,4
4,test,5,0.0,2-Back,1,m,Fri Mar 07 2025 09:26:19 GMT-0600 (Central Standard Time),802844.200000003,173_y_f_n_a.png,I,m,652,7,1,1676.1000000014901,801168.1000000015,8024,NNB,B,5
5,test,5,0.0,2-Back,1,m,Fri Mar 07 2025 09:26:19 GMT-0600 (Central Standard Time),804278.200000003,086_o_f_n_a.png,I,m,415,8,1,1427.1000000014901,802851.1000000015,8024,NNB,B,6
5,test,5,1.0,2-Back,0,z,Fri Mar 07 2025 09:26:19 GMT-0600 (Central Standard Time),805709.5,173_y_f_n_a.png,I,m,406,9,1,1423.7999999970198,804285.700000003,8024,NNB,B,7
6,test,5,0.0,2-Back,1,m,Fri Mar 07 2025 09:26:19 GMT-0600 (Central Standard Time),807509.3999999985,065_o_m_n_a.png,I,m,766,10,1,1792.7999999970198,805716.6000000015,8024,NNB,B,8
7,test,5,0.0,2-Back,1,m,Fri Mar 07 2025 09:26:19 GMT-0600 (Central Standard Time),809292.6000000015,029_m_f_n_a.png,I,m,750,11,1,1776.7000000029802,807515.8999999985,8024,NNB,B,9
8,test,5,0.0,2-Back,1,m,Fri Mar 07 2025 09:26:19 GMT-0600 (Central Standard Time),810991.3999999985,126_m_m_n_a.png,I,m,683,12,1,1690.1999999955297,809301.200000003,8024,NNB,B,10
9,test,5,0.0,2-Back,1,m,Fri Mar 07 2025 09:26:19 GMT-0600 (Central Standard Time),812889.700000003,065_o_m_n_a.png,I,m,876,13,1,1894.5,810995.200000003,8024,NNB,B,11
9,test,5,1.0,2-Back,0,z,Fri Mar 07 2025 09:26:19 GMT-0600 (Central Standard Time),814474.5,126_m_m_n_a.png,I,m,552,14,1,1578.2000000029802,812896.299999997,8024,NNB,B,12
9,test,5,0.0,2-Back,0,m,Fri Mar 07 2025 09:26:19 GMT-0600 (Central Standard Time),816322.8999999985,152_y_f_n_a.png,I,z,825,15,1,1840.1000000014901,814482.799999997,8024,NNB,B,13
9,test,5,0.0,2-Back,0,m,Fri Mar 07 2025 09:26:19 GMT-0600 (Central Standard Time),819356.700000003,176_o_m_n_a.png,I,None,2016,16,1,3026.5,816330.200000003,8024,NNB,B,14
9,test,5,0.0,2-Back,0,m,Fri Mar 07 2025 09:26:19 GMT-0600 (Central Standard Time),821788.8999999985,029_m_f_n_a.png,I,z,1400,17,1,2425.1999999955297,819363.700000003,8024,NNB,B,15
10,test,5,1.0,2-Back,1,z,Fri Mar 07 2025 09:26:19 GMT-0600 (Central Standard Time),823887.700000003,176_o_m_n_a.png,I,z,1072,18,1,2092.10000000149,821795.6000000015,8024,NNB,B,16
