acc_sum,block,block_c,condition,correct,correct_response,datetime,endtime,flanker,jitter,project,response,response_test_buffer_response,response_test_target_response,response_time,response_time_test_buffer_response,response_time_test_target_response,row_sel,session_number,start_end,starttime,subject_id,target,task,task_vers,time_test_buffer,time_test_buffer_response,time_test_constants,time_test_flanker,time_test_jitter,time_test_logger,time_test_target,time_test_target_response,time_test_variables,trial
1,prac,1,con,1,z,Fri Mar 21 2025 15:19:59 GMT-0500 (Central Daylight Time),102395.69999998808,love,1000,O,z,,,1444,,,11,1,3744.5999999940395,98651.09999999404,7117,love,AF,B,,,,,,,,,,1
2,prac,1,con,1,m,Fri Mar 21 2025 15:19:59 GMT-0500 (Central Daylight Time),105328.09999999404,step,800,O,m,,,816,,,1,1,2926.0,102402.09999999404,7117,step,AF,B,,,,,,,,,,2
3,prac,1,con,1,z,Fri Mar 21 2025 15:19:59 GMT-0500 (Central Daylight Time),108476.90000000596,brutal,800,O,z,,,1044,,,13,1,3144.4000000059605,105332.5,7117,brutal,AF,B,,,,,,,,,,3
4,prac,1,inc,1,m,Fri Mar 21 2025 15:19:59 GMT-0500 (Central Daylight Time),111409.69999998808,kind,900,O,m,,,640,,,2,1,2928.5,108481.19999998808,7117,rock,AF,B,,,,,,,,,,4
5,prac,1,inc,1,z,Fri Mar 21 2025 15:19:59 GMT-0500 (Central Daylight Time),114208.5,film,900,O,z,,,590,,,14,1,2794.0,111414.5,7117,hate,AF,B,,,,,,,,,,5
6,prac,1,con,1,m,Fri Mar 21 2025 15:19:59 GMT-0500 (Central Daylight Time),117207.90000000596,remote,1000,O,m,,,682,,,7,1,2994.800000011921,114213.09999999404,7117,remote,AF,B,,,,,,,,,,6
7,prac,1,inc,1,m,Fri Mar 21 2025 15:19:59 GMT-0500 (Central Daylight Time),120390.0,hate,1100,O,m,,,768,,,4,1,3178.0,117212.0,7117,film,AF,B,,,,,,,,,,7
7,prac,1,inc,0,z,Fri Mar 21 2025 15:19:59 GMT-0500 (Central Daylight Time),123689.0,napkin,1100,O,m,,,890,,,12,1,3294.9000000059605,120394.09999999404,7117,friend,AF,B,,,,,,,,,,8
8,prac,1,inc,1,z,Fri Mar 21 2025 15:19:59 GMT-0500 (Central Daylight Time),127104.69999998808,rock,900,O,z,,,1207,,,10,1,3411.5999999940395,123693.09999999404,7117,kind,AF,B,,,,,,,,,,9
9,prac,1,con,1,m,Fri Mar 21 2025 15:19:59 GMT-0500 (Central Daylight Time),130020.30000001192,jacket,800,O,m,,,810,,,5,1,2911.100000023842,127109.19999998808,7117,jacket,AF,B,,,,,,,,,,10
10,prac,1,inc,1,z,Fri Mar 21 2025 15:19:59 GMT-0500 (Central Daylight Time),133256.19999998808,window,1100,O,z,,,843,,,16,1,3230.7999999821186,130025.40000000596,7117,temper,AF,B,,,,,,,,,,11
11,prac,1,con,1,m,Fri Mar 21 2025 15:19:59 GMT-0500 (Central Daylight Time),136201.59999999404,bell,1000,O,m,,,648,,,3,1,2940.7999999821186,133260.80000001192,7117,bell,AF,B,,,,,,,,,,12
12,prac,1,con,1,z,Fri Mar 21 2025 15:19:59 GMT-0500 (Central Daylight Time),139250.5,elated,800,O,z,,,938,,,9,1,3044.699999988079,136205.80000001192,7117,elated,AF,B,,,,,,,,,,13
13,prac,1,inc,1,m,Fri Mar 21 2025 15:19:59 GMT-0500 (Central Daylight Time),142117.59999999404,elated,900,O,m,,,653,,,6,1,2863.0,139254.59999999404,7117,napkin,AF,B,,,,,,,,,,14
14,prac,1,inc,1,m,Fri Mar 21 2025 15:19:59 GMT-0500 (Central Daylight Time),145282.30000001192,brutal,1100,O,m,,,763,,,8,1,3160.0,142122.30000001192,7117,window,AF,B,,,,,,,,,,15
15,prac,1,con,1,z,Fri Mar 21 2025 15:19:59 GMT-0500 (Central Daylight Time),148331.30000001192,rage,1000,O,z,,,738,,,15,1,3044.7000000178814,145286.59999999404,7117,rage,AF,B,,,,,,,,,,16
1,test,1,con,1,m,Fri Mar 21 2025 15:19:59 GMT-0500 (Central Daylight Time),166042.30000001192,rock,900,O,m,m,None,850,650.0,200.0,74,1,2296.0,163746.30000001192,7117,rock,AF,B,156485,156485,154855,155769,154856,157151,156285,156285,157151,1
2,test,1,con,1,z,Fri Mar 21 2025 15:19:59 GMT-0500 (Central Daylight Time),168041.80000001192,kind,800,O,z,z,None,666,466.0,200.0,9,1,1995.0,166046.80000001192,7117,kind,AF,B,158685,158685,157156,157968,157156,159151,158485,158485,159151,2
3,test,1,con,1,m,Fri Mar 21 2025 15:19:59 GMT-0500 (Central Daylight Time),170357.5,step,1100,O,m,m,None,670,471.0,199.0,68,1,2311.4000000059605,168046.09999999404,7117,step,AF,B,160984,160984,159155,160267,159156,161467,160784,160784,161467,3
4,test,1,con,1,m,Fri Mar 21 2025 15:19:59 GMT-0500 (Central Daylight Time),172606.90000000596,napkin,1000,O,m,m,None,701,502.0,199.0,107,1,2245.300000011921,170361.59999999404,7117,napkin,AF,B,163199,163200,161471,162483,161471,163716,162999,163000,163716,4
5,test,1,inc,1,m,Fri Mar 21 2025 15:19:59 GMT-0500 (Central Daylight Time),174572.80000001192,elated,800,O,m,m,None,622,422.0,200.0,101,1,1961.800000011921,172611.0,7117,jacket,AF,B,165249,165249,163720,164533,163720,165682,165049,165049,165682,5
6,test,1,con,1,z,Fri Mar 21 2025 15:19:59 GMT-0500 (Central Daylight Time),176788.69999998808,love,1100,O,z,z,None,580,380.0,200.0,20,1,2211.399999976158,174577.30000001192,7117,love,AF,B,167515,167515,165686,166799,165687,167898,167315,167315,167898,6
7,test,1,inc,1,z,Fri Mar 21 2025 15:19:59 GMT-0500 (Central Daylight Time),178771.69999998808,step,800,O,z,z,None,648,448.0,200.0,45,1,1978.699999988079,176793.0,7117,hate,AF,B,169431,169431,167902,168715,167902,169881,169231,169231,169881,7
8,test,1,inc,1,m,Fri Mar 21 2025 15:19:59 GMT-0500 (Central Daylight Time),180954.19999998808,brutal,900,O,m,m,None,623,416.0,207.0,110,1,2178.5999999940395,178775.59999999404,7117,napkin,AF,B,171647,171647,169885,170797,169885,172063,171440,171440,172063,8
9,test,1,con,1,z,Fri Mar 21 2025 15:19:59 GMT-0500 (Central Daylight Time),183220.40000000596,rage,1100,O,z,z,None,623,423.0,200.0,52,1,2262.300000011921,180958.09999999404,7117,rage,AF,B,173896,173896,172067,173180,172068,174329,173696,173696,174329,9
10,test,1,inc,1,z,Fri Mar 21 2025 15:19:59 GMT-0500 (Central Daylight Time),185386.09999999404,bell,1000,O,z,z,None,625,425.0,200.0,23,1,2161.4000000059605,183224.69999998808,7117,love,AF,B,176062,176062,174334,175346,174334,176495,175862,175862,176495,10
10,test,1,con,0,z,Fri Mar 21 2025 15:19:59 GMT-0500 (Central Daylight Time),187535.5,rage,900,O,m,m,None,702,503.0,199.0,50,1,2145.0999999940395,185390.40000000596,7117,rage,AF,B,178128,178128,176499,177412,176500,178645,177929,177929,178645,11
10,test,1,con,0,z,Fri Mar 21 2025 15:19:59 GMT-0500 (Central Daylight Time),189984.69999998808,friend,1000,O,m,m,None,899,684.0,215.0,27,1,2444.7999999821186,187539.90000000596,7117,friend,AF,B,180394,180394,178649,179661,178649,181094,180179,180179,181094,12
11,test,1,inc,1,m,Fri Mar 21 2025 15:19:59 GMT-0500 (Central Daylight Time),192184.0,brutal,900,O,m,m,None,760,560.0,200.0,102,1,2195.300000011921,189988.69999998808,7117,jacket,AF,B,182727,182727,181098,182010,181098,183293,182527,182527,183293,13
12,test,1,inc,1,z,Fri Mar 21 2025 15:19:59 GMT-0500 (Central Daylight Time),194666.40000000596,remote,1000,O,z,z,None,947,748.0,199.0,63,1,2478.4000000059605,192188.0,7117,temper,AF,B,185026,185026,183297,184310,183297,185776,184827,184827,185775,14
13,test,1,inc,1,z,Fri Mar 21 2025 15:19:59 GMT-0500 (Central Daylight Time),197082.69999998808,window,1100,O,z,z,None,773,574.0,199.0,40,1,2412.399999976158,194670.30000001192,7117,brutal,AF,B,187609,187609,185779,186892,185780,188192,187409,187409,188192,15
14,test,1,con,1,m,Fri Mar 21 2025 15:19:59 GMT-0500 (Central Daylight Time),199398.40000000596,step,1000,O,m,m,None,769,570.0,199.0,67,1,2312.0,197086.40000000596,7117,step,AF,B,189925,189925,188195,189208,188196,190508,189725,189725,190507,16
15,test,1,con,1,z,Fri Mar 21 2025 15:19:59 GMT-0500 (Central Daylight Time),201598.19999998808,rage,800,O,z,z,None,853,654.0,199.0,49,1,2195.5999999940395,199402.59999999404,7117,rage,AF,B,192040,192040,190512,191324,190512,192707,191841,191841,192707,17
16,test,1,inc,1,z,Fri Mar 21 2025 15:19:59 GMT-0500 (Central Daylight Time),203913.5,remote,1000,O,z,z,None,788,574.0,214.0,7,1,2311.199999988079,201602.30000001192,7117,elated,AF,B,194440,194440,192711,193723,192712,195023,194225,194225,195023,18
17,test,1,con,1,m,Fri Mar 21 2025 15:19:59 GMT-0500 (Central Daylight Time),206146.5,bell,900,O,m,m,None,789,590.0,199.0,82,1,2228.800000011921,203917.69999998808,7117,bell,AF,B,196656,196656,195027,195939,195027,197256,196456,196456,197255,19
18,test,1,con,1,z,Fri Mar 21 2025 15:19:59 GMT-0500 (Central Daylight Time),208345.69999998808,temper,800,O,z,z,None,865,666.0,199.0,57,1,2195.199999988079,206150.5,7117,temper,AF,B,198789,198789,197260,198072,197260,199455,198589,198589,199455,20
19,test,1,inc,1,z,Fri Mar 21 2025 15:19:59 GMT-0500 (Central Daylight Time),210778.30000001192,napkin,900,O,z,z,None,983,783.0,200.0,38,1,2428.7000000178814,208349.59999999404,7117,brutal,AF,B,201088,201088,199459,200372,199459,201887,200888,200888,201887,21
20,test,1,inc,1,m,Fri Mar 21 2025 15:19:59 GMT-0500 (Central Daylight Time),212811.09999999404,rage,800,O,m,m,None,689,490.0,199.0,85,1,2027.199999988079,210783.90000000596,7117,bell,AF,B,203421,203421,201893,202704,201893,203920,203221,203221,203920,22
21,test,1,con,1,z,Fri Mar 21 2025 15:19:59 GMT-0500 (Central Daylight Time),215110.30000001192,elated,900,O,z,z,None,862,662.0,200.0,2,1,2295.0,212815.30000001192,7117,elated,AF,B,205553,205553,203924,204837,203925,206219,205353,205353,206219,23
22,test,1,inc,1,m,Fri Mar 21 2025 15:19:59 GMT-0500 (Central Daylight Time),217192.90000000596,kind,900,O,m,m,None,643,443.0,200.0,94,1,2078.5999999940395,215114.30000001192,7117,film,AF,B,207852,207852,206223,207136,206224,208302,207652,207652,208302,24
23,test,1,inc,1,m,Fri Mar 21 2025 15:19:59 GMT-0500 (Central Daylight Time),219542.19999998808,elated,800,O,m,m,None,1004,804.0,200.0,117,1,2345.2999999821186,217196.90000000596,7117,remote,AF,B,209835,209835,208306,209119,208306,210651,209635,209635,210651,25
24,test,1,con,1,z,Fri Mar 21 2025 15:19:59 GMT-0500 (Central Daylight Time),221858.0,kind,900,O,z,z,None,882,683.0,199.0,10,1,2311.9000000059605,219546.09999999404,7117,kind,AF,B,212284,212284,210655,211568,210655,212967,212084,212085,212967,26
25,test,1,con,1,m,Fri Mar 21 2025 15:19:59 GMT-0500 (Central Daylight Time),224090.5,remote,1000,O,m,m,None,698,499.0,199.0,115,1,2228.5999999940395,221861.90000000596,7117,remote,AF,B,214700,214700,212971,213984,212971,215200,214501,214501,215200,27
26,test,1,inc,1,z,Fri Mar 21 2025 15:19:59 GMT-0500 (Central Daylight Time),226390.19999998808,film,1100,O,z,z,None,654,454.0,200.0,56,1,2295.899999976158,224094.30000001192,7117,rage,AF,B,217033,217033,215203,216316,215204,217499,216833,216833,217499,28
27,test,1,inc,1,m,Fri Mar 21 2025 15:19:59 GMT-0500 (Central Daylight Time),228456.19999998808,rage,800,O,m,m,None,683,468.0,215.0,69,1,2062.2999999821186,226393.90000000596,7117,step,AF,B,219082,219082,217503,218363,217503,219565,218867,218867,219565,29
28,test,1,con,1,z,Fri Mar 21 2025 15:19:59 GMT-0500 (Central Daylight Time),230688.59999999404,hate,1000,O,z,z,None,684,484.0,200.0,43,1,2228.5999999940395,228460.0,7117,hate,AF,B,221298,221298,219569,220582,219569,221798,221098,221098,221798,30
29,test,1,inc,1,m,Fri Mar 21 2025 15:19:59 GMT-0500 (Central Daylight Time),232921.30000001192,hate,1100,O,m,m,None,591,392.0,199.0,88,1,2229.0,230692.30000001192,7117,bell,AF,B,223630,223631,221801,222914,221802,224030,223431,223431,224030,31
30,test,1,con,1,z,Fri Mar 21 2025 15:19:59 GMT-0500 (Central Daylight Time),235137.5,elated,1000,O,z,z,None,667,468.0,199.0,3,1,2212.0,232925.5,7117,elated,AF,B,225763,225763,224035,225047,224035,226247,225564,225564,226246,32
31,test,1,inc,1,m,Fri Mar 21 2025 15:19:59 GMT-0500 (Central Daylight Time),237370.19999998808,hate,1100,O,m,m,None,582,383.0,199.0,96,1,2229.0999999940395,235141.09999999404,7117,film,AF,B,228080,228080,226250,227363,226251,228479,227880,227880,228479,33
31,test,1,con,0,z,Fri Mar 21 2025 15:19:59 GMT-0500 (Central Daylight Time),239552.59999999404,friend,800,O,m,m,None,843,643.0,200.0,25,1,2178.699999988079,237373.90000000596,7117,friend,AF,B,230012,230012,228483,229296,228483,230662,229812,229812,230662,34
32,test,1,inc,1,m,Fri Mar 21 2025 15:19:59 GMT-0500 (Central Daylight Time),242501.59999999404,hate,1100,O,m,m,None,1303,1104.0,199.0,80,1,2944.9000000059605,239556.69999998808,7117,rock,AF,B,232495,232495,230666,231778,230666,233611,232295,232295,233611,35
33,test,1,inc,1,m,Fri Mar 21 2025 15:19:59 GMT-0500 (Central Daylight Time),244867.5,friend,1100,O,m,m,None,722,523.0,199.0,128,1,2362.199999988079,242505.30000001192,7117,window,AF,B,235444,235444,233614,234727,233615,235977,235244,235244,235977,36
34,test,1,inc,1,m,Fri Mar 21 2025 15:19:59 GMT-0500 (Central Daylight Time),246800.30000001192,elated,800,O,m,m,None,585,385.0,200.0,125,1,1928.9000000059605,244871.40000000596,7117,window,AF,B,237510,237510,235980,236793,235981,237909,237310,237310,237909,37
35,test,1,inc,1,m,Fri Mar 21 2025 15:19:59 GMT-0500 (Central Daylight Time),249216.19999998808,friend,1100,O,m,m,None,777,577.0,200.0,112,1,2412.2999999821186,246803.90000000596,7117,napkin,AF,B,239742,239742,237913,239026,237913,240325,239542,239542,240325,38
36,test,1,inc,1,z,Fri Mar 21 2025 15:19:59 GMT-0500 (Central Daylight Time),251449.0,bell,1000,O,z,z,None,647,443.0,204.0,47,1,2228.9000000059605,249220.09999999404,7117,hate,AF,B,242108,242108,240329,241342,240329,242558,241904,241904,242558,39
37,test,1,con,1,m,Fri Mar 21 2025 15:19:59 GMT-0500 (Central Daylight Time),253515.90000000596,napkin,900,O,m,m,None,631,432.0,199.0,106,1,2062.5999999940395,251453.30000001192,7117,napkin,AF,B,244191,244191,242562,243475,242563,244625,243991,243991,244625,40
38,test,1,con,1,z,Fri Mar 21 2025 15:19:59 GMT-0500 (Central Daylight Time),256147.5,hate,1100,O,z,z,None,997,797.0,200.0,44,1,2627.9000000059605,253519.59999999404,7117,hate,AF,B,246457,246457,244629,245741,244629,247257,246257,246257,247256,41
39,test,1,con,1,m,Fri Mar 21 2025 15:19:59 GMT-0500 (Central Daylight Time),258446.69999998808,napkin,1100,O,m,m,None,661,462.0,199.0,108,1,2295.199999988079,256151.5,7117,napkin,AF,B,249089,249089,247261,248373,247261,249556,248890,248890,249556,42
39,test,1,con,0,z,Fri Mar 21 2025 15:19:59 GMT-0500 (Central Daylight Time),260762.40000000596,friend,1100,O,m,m,None,681,482.0,199.0,28,1,2312.0,258450.40000000596,7117,friend,AF,B,251389,251389,249559,250672,249560,251871,251189,251189,251871,43
40,test,1,con,1,m,Fri Mar 21 2025 15:19:59 GMT-0500 (Central Daylight Time),263412.0,jacket,900,O,m,m,None,1205,1006.0,199.0,98,1,2645.5999999940395,260766.40000000596,7117,jacket,AF,B,253505,253505,251875,252788,251876,254521,253305,253305,254521,44
41,test,1,con,1,m,Fri Mar 21 2025 15:19:59 GMT-0500 (Central Daylight Time),265611.0,film,1000,O,m,m,None,657,457.0,200.0,91,1,2195.300000011921,263415.6999999881,7117,film,AF,B,256254,256254,254525,255537,254525,256720,256054,256054,256720,45
42,test,1,con,1,m,Fri Mar 21 2025 15:19:59 GMT-0500 (Central Daylight Time),267677.0,rock,800,O,m,m,None,722,522.0,200.0,73,1,2062.199999988079,265614.8000000119,7117,rock,AF,B,258253,258253,256724,257537,256724,258786,258053,258053,258786,46
43,test,1,con,1,z,Fri Mar 21 2025 15:19:59 GMT-0500 (Central Daylight Time),269959.59999999404,elated,1100,O,z,z,None,636,435.0,201.0,4,1,2278.2999999821186,267681.3000000119,7117,elated,AF,B,260620,260620,258790,259903,258791,261069,260419,260419,261069,47
44,test,1,con,1,z,Fri Mar 21 2025 15:19:59 GMT-0500 (Central Daylight Time),272075.90000000596,temper,900,O,z,z,None,673,473.0,200.0,58,1,2112.5999999940395,269963.3000000119,7117,temper,AF,B,262702,262702,261072,261985,261073,263185,262502,262502,263185,48
45,test,1,inc,1,z,Fri Mar 21 2025 15:19:59 GMT-0500 (Central Daylight Time),274354.6999999881,bell,1000,O,z,z,None,745,546.0,199.0,15,1,2275.0999999940395,272079.59999999404,7117,kind,AF,B,264918,264918,263189,264201,263189,265464,264718,264718,265464,49
46,test,1,con,1,m,Fri Mar 21 2025 15:19:59 GMT-0500 (Central Daylight Time),276459.0,remote,900,O,m,m,None,650,451.0,199.0,114,1,2100.4000000059605,274358.59999999404,7117,remote,AF,B,267100,267100,265468,266384,265468,267568,266901,266901,267568,50
47,test,1,con,1,z,Fri Mar 21 2025 15:19:59 GMT-0500 (Central Daylight Time),278757.0,brutal,1000,O,z,z,None,763,563.0,200.0,35,1,2294.199999988079,276462.8000000119,7117,brutal,AF,B,269300,269300,267572,268583,267572,269866,269100,269100,269866,51
47,test,1,inc,0,z,Fri Mar 21 2025 15:19:59 GMT-0500 (Central Daylight Time),280956.40000000596,remote,1000,O,m,m,None,663,464.0,199.0,31,1,2195.7000000178814,278760.6999999881,7117,friend,AF,B,271599,271599,269870,270883,269870,272065,271399,271399,272065,52
47,test,1,inc,0,z,Fri Mar 21 2025 15:19:59 GMT-0500 (Central Daylight Time),283022.1999999881,napkin,900,O,m,m,None,627,428.0,199.0,30,1,2062.199999988079,280960.0,7117,friend,AF,B,273699,273699,272069,272982,272069,274131,273499,273499,274131,53
48,test,1,con,1,m,Fri Mar 21 2025 15:19:59 GMT-0500 (Central Daylight Time),285404.8000000119,window,1000,O,m,m,None,838,638.0,200.0,123,1,2378.7000000178814,283026.09999999404,7117,window,AF,B,275864,275864,274135,275148,274135,276514,275664,275664,276514,54
49,test,1,con,1,z,Fri Mar 21 2025 15:19:59 GMT-0500 (Central Daylight Time),287588.90000000596,hate,900,O,z,z,None,748,548.0,200.0,42,1,2180.300000011921,285408.59999999404,7117,hate,AF,B,278147,278147,276518,277431,276518,278698,277947,277947,278698,55
50,test,1,inc,1,m,Fri Mar 21 2025 15:19:59 GMT-0500 (Central Daylight Time),289820.09999999404,love,1000,O,m,m,None,696,497.0,199.0,95,1,2227.4000000059605,287592.6999999881,7117,film,AF,B,280430,280430,278702,279713,278702,280929,280230,280230,280929,56
51,test,1,con,1,m,Fri Mar 21 2025 15:19:59 GMT-0500 (Central Daylight Time),291886.1999999881,window,900,O,m,m,None,621,421.0,200.0,122,1,2062.0999999940395,289824.09999999404,7117,window,AF,B,282562,282562,280933,281846,280933,282995,282362,282362,282995,57
52,test,1,con,1,m,Fri Mar 21 2025 15:19:59 GMT-0500 (Central Daylight Time),294052.1999999881,bell,1100,O,m,m,None,523,323.0,200.0,84,1,2162.399999976158,291889.8000000119,7117,bell,AF,B,284828,284828,282999,284112,282999,285161,284628,284628,285161,58
53,test,1,con,1,z,Fri Mar 21 2025 15:19:59 GMT-0500 (Central Daylight Time),296268.09999999404,temper,1000,O,z,z,None,673,473.0,200.0,59,1,2212.2999999821186,294055.8000000119,7117,temper,AF,B,286894,286894,285165,286178,285165,287377,286694,286694,287377,59
53,test,1,inc,0,z,Fri Mar 21 2025 15:19:59 GMT-0500 (Central Daylight Time),298217.5,jacket,800,O,m,m,None,609,330.0,279.0,29,1,1945.5999999940395,296271.90000000596,7117,friend,AF,B,288989,288989,287381,288194,287381,289327,288710,288710,289327,60
54,test,1,con,1,z,Fri Mar 21 2025 15:19:59 GMT-0500 (Central Daylight Time),300233.8000000119,elated,800,O,z,z,None,682,483.0,199.0,1,1,2012.6000000238419,298221.1999999881,7117,elated,AF,B,290860,290860,289330,290144,289331,291343,290660,290660,291343,61
55,test,1,inc,1,z,Fri Mar 21 2025 15:19:59 GMT-0500 (Central Daylight Time),302266.40000000596,jacket,800,O,z,z,None,690,491.0,199.0,37,1,2028.5999999940395,300237.8000000119,7117,brutal,AF,B,292876,292876,291347,292160,291347,293376,292676,292676,293375,62
56,test,1,con,1,m,Fri Mar 21 2025 15:19:59 GMT-0500 (Central Daylight Time),304465.40000000596,bell,1000,O,m,m,None,651,451.0,200.0,83,1,2195.0999999940395,302270.3000000119,7117,bell,AF,B,295108,295108,293379,294392,293380,295574,294908,294908,295574,63
57,test,1,inc,1,z,Fri Mar 21 2025 15:19:59 GMT-0500 (Central Daylight Time),306897.90000000596,bell,1000,O,z,z,None,899,699.0,200.0,55,1,2428.7000000178814,304469.1999999881,7117,rage,AF,B,297307,297307,295578,296591,295578,298007,297107,297107,298007,64
58,test,1,inc,1,m,Fri Mar 21 2025 15:19:59 GMT-0500 (Central Daylight Time),309097.3000000119,love,1000,O,m,m,None,650,450.0,200.0,71,1,2195.7000000178814,306901.59999999404,7117,step,AF,B,299740,299740,298011,299023,298011,300206,299540,299540,300206,65
59,test,1,con,1,m,Fri Mar 21 2025 15:19:59 GMT-0500 (Central Daylight Time),311280.09999999404,step,900,O,m,m,None,741,542.0,199.0,66,1,2179.0,309101.09999999404,7117,step,AF,B,301839,301840,300210,301123,300210,302389,301639,301640,302389,66
60,test,1,con,1,m,Fri Mar 21 2025 15:19:59 GMT-0500 (Central Daylight Time),313546.0,window,800,O,m,m,None,925,725.0,200.0,121,1,2261.699999988079,311284.3000000119,7117,window,AF,B,303922,303922,302393,303206,302394,304655,303722,303722,304655,67
61,test,1,con,1,m,Fri Mar 21 2025 15:19:59 GMT-0500 (Central Daylight Time),315678.40000000596,film,800,O,m,m,None,794,594.0,200.0,89,1,2128.7000000178814,313549.6999999881,7117,film,AF,B,306188,306188,304659,305472,304659,306788,305988,305988,306787,68
62,test,1,inc,1,m,Fri Mar 21 2025 15:19:59 GMT-0500 (Central Daylight Time),317744.6999999881,kind,900,O,m,m,None,625,425.0,200.0,86,1,2062.5,315682.1999999881,7117,bell,AF,B,308421,308421,306791,307704,306792,308854,308221,308221,308854,69
63,test,1,con,1,m,Fri Mar 21 2025 15:19:59 GMT-0500 (Central Daylight Time),319827.1999999881,film,900,O,m,m,None,648,448.0,200.0,90,1,2078.5999999940395,317748.59999999404,7117,film,AF,B,310487,310487,308858,309771,308858,310936,310287,310287,310936,70
64,test,1,con,1,z,Fri Mar 21 2025 15:19:59 GMT-0500 (Central Daylight Time),322376.59999999404,temper,1100,O,z,z,None,807,601.0,206.0,60,1,2545.7999999821186,319830.8000000119,7117,temper,AF,B,312869,312869,310940,312053,310940,313486,312663,312663,313486,71
65,test,1,inc,1,z,Fri Mar 21 2025 15:19:59 GMT-0500 (Central Daylight Time),324359.40000000596,step,800,O,z,z,None,644,444.0,200.0,21,1,1979.0,322380.40000000596,7117,love,AF,B,315019,315019,313489,314302,313490,315468,314819,314819,315468,72
66,test,1,inc,1,z,Fri Mar 21 2025 15:19:59 GMT-0500 (Central Daylight Time),326358.59999999404,jacket,800,O,z,z,None,661,462.0,199.0,61,1,1995.4000000059605,324363.1999999881,7117,temper,AF,B,317001,317001,315472,316285,315473,317468,316802,316802,317468,73
67,test,1,inc,1,m,Fri Mar 21 2025 15:19:59 GMT-0500 (Central Daylight Time),328607.8000000119,hate,1100,O,m,m,None,602,402.0,200.0,72,1,2245.2000000178814,326362.59999999404,7117,step,AF,B,319301,319301,317472,318585,317472,319717,319101,319101,319717,74
68,test,1,con,1,m,Fri Mar 21 2025 15:19:59 GMT-0500 (Central Daylight Time),331007.1999999881,remote,1100,O,m,m,None,761,561.0,200.0,116,1,2395.7999999821186,328611.40000000596,7117,remote,AF,B,321550,321550,319720,320834,319721,322116,321350,321350,322116,75
69,test,1,con,1,z,Fri Mar 21 2025 15:19:59 GMT-0500 (Central Daylight Time),333156.5,love,1000,O,z,z,None,614,414.0,200.0,19,1,2145.5999999940395,331010.90000000596,7117,love,AF,B,323849,323849,322120,323133,322120,324266,323649,323649,324266,76
70,test,1,inc,1,m,Fri Mar 21 2025 15:19:59 GMT-0500 (Central Daylight Time),335389.09999999404,friend,1100,O,m,m,None,587,388.0,199.0,104,1,2228.5999999940395,333160.5,7117,jacket,AF,B,326099,326099,324270,325382,324270,326498,325899,325899,326498,77
71,test,1,con,1,m,Fri Mar 21 2025 15:19:59 GMT-0500 (Central Daylight Time),337705.1999999881,film,1100,O,m,m,None,675,475.0,200.0,92,1,2312.0999999940395,335393.09999999404,7117,film,AF,B,328331,328331,326502,327615,326502,328814,328131,328131,328814,78
72,test,1,con,1,m,Fri Mar 21 2025 15:19:59 GMT-0500 (Central Daylight Time),339921.0,jacket,1100,O,m,m,None,576,376.0,200.0,100,1,2212.0999999940395,337708.90000000596,7117,jacket,AF,B,330647,330647,328818,329931,328818,331030,330447,330447,331030,79
73,test,1,inc,1,m,Fri Mar 21 2025 15:19:59 GMT-0500 (Central Daylight Time),341953.8000000119,rage,800,O,m,m,None,700,500.0,200.0,93,1,2029.1000000238419,339924.6999999881,7117,film,AF,B,332563,332563,331034,331847,331034,333063,332363,332363,333063,80
74,test,1,inc,1,z,Fri Mar 21 2025 15:19:59 GMT-0500 (Central Daylight Time),343953.09999999404,step,800,O,z,z,None,659,459.0,200.0,53,1,1995.699999988079,341957.40000000596,7117,rage,AF,B,334596,334596,333066,333880,333067,335062,334396,334396,335062,81
75,test,1,inc,1,m,Fri Mar 21 2025 15:19:59 GMT-0500 (Central Daylight Time),346119.1999999881,kind,900,O,m,m,None,652,451.0,201.0,78,1,2162.199999988079,343957.0,7117,rock,AF,B,336763,336763,335066,336059,335066,337228,336562,336562,337228,82
76,test,1,inc,1,z,Fri Mar 21 2025 15:19:59 GMT-0500 (Central Daylight Time),348268.6999999881,napkin,900,O,z,z,None,705,505.0,200.0,6,1,2145.7999999821186,346122.90000000596,7117,elated,AF,B,338861,338862,337232,338145,337232,339378,338661,338661,339378,83
77,test,1,inc,1,m,Fri Mar 21 2025 15:19:59 GMT-0500 (Central Daylight Time),350234.3000000119,brutal,900,O,m,m,None,532,333.0,199.0,126,1,1961.7000000178814,348272.59999999404,7117,window,AF,B,341010,341010,339382,340294,339382,341343,340811,340811,341343,84
78,test,1,con,1,m,Fri Mar 21 2025 15:19:59 GMT-0500 (Central Daylight Time),352234.0,napkin,800,O,m,m,None,665,466.0,199.0,105,1,1995.5999999940395,350238.40000000596,7117,napkin,AF,B,342877,342877,341347,342160,341348,343343,342677,342677,343343,85
79,test,1,inc,1,m,Fri Mar 21 2025 15:19:59 GMT-0500 (Central Daylight Time),354316.5,temper,1000,O,m,m,None,547,347.0,200.0,111,1,2079.0999999940395,352237.40000000596,7117,napkin,AF,B,345076,345076,343346,344359,343347,345426,344876,344876,345425,86
80,test,1,inc,1,z,Fri Mar 21 2025 15:19:59 GMT-0500 (Central Daylight Time),356383.5,remote,1000,O,z,z,None,519,320.0,199.0,39,1,2063.199999988079,354320.3000000119,7117,brutal,AF,B,347159,347159,345429,346442,345430,347493,346959,346959,347493,87
81,test,1,inc,1,m,Fri Mar 21 2025 15:19:59 GMT-0500 (Central Daylight Time),358498.59999999404,temper,1000,O,m,m,None,573,374.0,199.0,127,1,2111.199999988079,356387.40000000596,7117,window,AF,B,349225,349225,347496,348508,347497,349608,349025,349025,349608,88
82,test,1,inc,1,z,Fri Mar 21 2025 15:19:59 GMT-0500 (Central Daylight Time),360631.1999999881,rock,900,O,z,z,None,685,486.0,199.0,14,1,2128.7999999821186,358502.40000000596,7117,kind,AF,B,351241,351241,349611,350524,349612,351740,351041,351041,351740,89
83,test,1,con,1,z,Fri Mar 21 2025 15:19:59 GMT-0500 (Central Daylight Time),362897.3000000119,brutal,900,O,z,z,None,824,625.0,199.0,34,1,2262.4000000059605,360634.90000000596,7117,brutal,AF,B,353373,353373,351744,352657,351744,354006,353174,353174,354006,90
84,test,1,inc,1,z,Fri Mar 21 2025 15:19:59 GMT-0500 (Central Daylight Time),364929.90000000596,rock,900,O,z,z,None,599,399.0,200.0,22,1,2029.0,362900.90000000596,7117,love,AF,B,355639,355639,354010,354923,354010,356039,355439,355439,356039,91
85,test,1,inc,1,m,Fri Mar 21 2025 15:19:59 GMT-0500 (Central Daylight Time),367029.3000000119,love,1000,O,m,m,None,555,355.0,200.0,79,1,2095.5,364933.8000000119,7117,rock,AF,B,357772,357772,356043,357056,356043,358138,357572,357572,358138,92
86,test,1,inc,1,m,Fri Mar 21 2025 15:19:59 GMT-0500 (Central Daylight Time),369445.09999999404,friend,1100,O,m,m,None,772,572.0,200.0,120,1,2411.9000000059605,367033.1999999881,7117,remote,AF,B,359971,359971,358142,359255,358143,360554,359771,359771,360554,93
87,test,1,inc,1,z,Fri Mar 21 2025 15:19:59 GMT-0500 (Central Daylight Time),371527.8000000119,rock,900,O,z,z,None,643,443.0,200.0,46,1,2079.0,369448.8000000119,7117,hate,AF,B,362187,362187,360558,361471,360558,362637,361987,361987,362637,94
87,test,1,inc,0,z,Fri Mar 21 2025 15:19:59 GMT-0500 (Central Daylight Time),373727.09999999404,window,1100,O,m,m,None,552,353.0,199.0,32,1,2195.5999999940395,371531.5,7117,friend,AF,B,364470,364470,362641,363755,362641,364836,364270,364270,364836,95
88,test,1,inc,1,z,Fri Mar 21 2025 15:19:59 GMT-0500 (Central Daylight Time),376043.0,window,1100,O,z,z,None,673,474.0,199.0,8,1,2312.300000011921,373730.6999999881,7117,elated,AF,B,366669,366669,364840,365953,364840,367152,366470,366470,367152,96
89,test,1,inc,1,z,Fri Mar 21 2025 15:19:59 GMT-0500 (Central Daylight Time),378359.0,film,1100,O,z,z,None,670,470.0,200.0,48,1,2312.199999988079,376046.8000000119,7117,hate,AF,B,368985,368985,367156,368269,367156,369468,368785,368785,369468,97
90,test,1,con,1,m,Fri Mar 21 2025 15:19:59 GMT-0500 (Central Daylight Time),380441.6999999881,remote,800,O,m,m,None,749,549.0,200.0,113,1,2079.0999999940395,378362.59999999404,7117,remote,AF,B,371001,371001,369472,370285,369472,371551,370801,370801,371551,98
90,test,1,con,0,z,Fri Mar 21 2025 15:19:59 GMT-0500 (Central Daylight Time),382807.59999999404,kind,1000,O,m,m,None,818,619.0,199.0,11,1,2361.9000000059605,380445.6999999881,7117,kind,AF,B,373284,373284,371555,372568,371555,373917,373084,373084,373917,99
91,test,1,con,1,z,Fri Mar 21 2025 15:19:59 GMT-0500 (Central Daylight Time),385456.8000000119,rage,1000,O,z,z,None,1100,900.0,200.0,51,1,2645.600000023842,382811.1999999881,7117,rage,AF,B,375650,375650,373920,374933,373921,376566,375450,375450,376566,100
92,test,1,inc,1,z,Fri Mar 21 2025 15:19:59 GMT-0500 (Central Daylight Time),387772.6999999881,film,1100,O,z,z,None,679,479.0,200.0,16,1,2312.5,385460.1999999881,7117,kind,AF,B,378399,378399,376569,377683,376570,378882,378199,378199,378882,101
92,test,1,con,0,z,Fri Mar 21 2025 15:19:59 GMT-0500 (Central Daylight Time),389888.6999999881,friend,900,O,m,m,None,675,476.0,199.0,26,1,2112.2999999821186,387776.40000000596,7117,friend,AF,B,380515,380515,378885,379798,378886,380998,380315,380315,380998,102
93,test,1,inc,1,m,Fri Mar 21 2025 15:19:59 GMT-0500 (Central Daylight Time),392019.3000000119,rage,800,O,m,m,None,797,597.0,200.0,77,1,2126.7000000178814,389892.59999999404,7117,rock,AF,B,382531,382531,381002,381815,381002,383128,382331,382331,383128,103
94,test,1,con,1,m,Fri Mar 21 2025 15:19:59 GMT-0500 (Central Daylight Time),394070.6999999881,step,800,O,m,m,None,702,503.0,199.0,65,1,2047.699999988079,392023.0,7117,step,AF,B,384663,384663,383132,383947,383132,385180,384464,384464,385180,104
95,test,1,inc,1,m,Fri Mar 21 2025 15:19:59 GMT-0500 (Central Daylight Time),396803.09999999404,temper,1000,O,m,m,None,1198,998.0,200.0,119,1,2728.5999999940395,394074.5,7117,remote,AF,B,386913,386913,385184,386197,385184,387912,386713,386713,387912,105
96,test,1,inc,1,m,Fri Mar 21 2025 15:19:59 GMT-0500 (Central Daylight Time),398952.5,love,1000,O,m,m,None,609,409.0,200.0,87,1,2145.5,396807.0,7117,bell,AF,B,389645,389645,387916,388929,387916,390062,389445,389445,390062,106
97,test,1,inc,1,m,Fri Mar 21 2025 15:19:59 GMT-0500 (Central Daylight Time),401018.40000000596,temper,1000,O,m,m,None,530,331.0,199.0,103,1,2061.9000000059605,398956.5,7117,jacket,AF,B,391795,391795,390066,391078,390066,392127,391595,391595,392127,107
98,test,1,con,1,z,Fri Mar 21 2025 15:19:59 GMT-0500 (Central Daylight Time),403201.3000000119,brutal,1100,O,z,z,None,540,341.0,199.0,36,1,2178.800000011921,401022.5,7117,brutal,AF,B,393961,393961,392132,393244,392132,394310,393761,393761,394310,108
99,test,1,inc,1,m,Fri Mar 21 2025 15:19:59 GMT-0500 (Central Daylight Time),405334.0,elated,800,O,m,m,None,794,595.0,199.0,109,1,2128.9000000059605,403205.09999999404,7117,napkin,AF,B,395843,395843,394314,395127,394315,396443,395644,395644,396443,109
100,test,1,inc,1,z,Fri Mar 21 2025 15:19:59 GMT-0500 (Central Daylight Time),407533.1999999881,film,1100,O,z,z,None,555,355.0,200.0,24,1,2195.199999988079,405338.0,7117,love,AF,B,398276,398276,396447,397560,396447,398642,398076,398076,398642,110
101,test,1,inc,1,z,Fri Mar 21 2025 15:19:59 GMT-0500 (Central Daylight Time),409499.3000000119,jacket,800,O,z,z,None,623,424.0,199.0,5,1,1962.0,407537.3000000119,7117,elated,AF,B,400175,400175,398646,399459,398647,400608,399976,399976,400608,111
102,test,1,con,1,z,Fri Mar 21 2025 15:19:59 GMT-0500 (Central Daylight Time),411465.40000000596,love,900,O,z,z,None,517,318.0,199.0,18,1,1962.4000000059605,409503.0,7117,love,AF,B,402241,402241,400612,401525,400612,402575,402042,402042,402574,112
103,test,1,inc,1,z,Fri Mar 21 2025 15:19:59 GMT-0500 (Central Daylight Time),413448.3000000119,step,800,O,z,z,None,642,443.0,199.0,13,1,1979.2000000178814,411469.09999999404,7117,kind,AF,B,404107,404107,402578,403391,402578,404557,403908,403908,404557,113
104,test,1,inc,1,z,Fri Mar 21 2025 15:19:59 GMT-0500 (Central Daylight Time),415578.1999999881,napkin,900,O,z,z,None,697,497.0,200.0,62,1,2126.0999999940395,413452.09999999404,7117,temper,AF,B,406190,406190,404561,405474,404561,406687,405990,405990,406687,114
105,test,1,con,1,m,Fri Mar 21 2025 15:19:59 GMT-0500 (Central Daylight Time),417798.1999999881,rock,1100,O,m,m,None,580,380.0,200.0,76,1,2216.0999999940395,415582.09999999404,7117,rock,AF,B,408523,408523,406691,407806,406691,408907,408323,408323,408907,115
106,test,1,con,1,m,Fri Mar 21 2025 15:19:59 GMT-0500 (Central Daylight Time),419646.0,bell,800,O,m,m,None,503,304.0,199.0,81,1,1844.0999999940395,417801.90000000596,7117,bell,AF,B,410439,410439,408911,409723,408911,410755,410239,410239,410755,116
107,test,1,con,1,m,Fri Mar 21 2025 15:19:59 GMT-0500 (Central Daylight Time),421912.0,window,1100,O,m,m,None,619,419.0,200.0,124,1,2262.300000011921,419649.6999999881,7117,window,AF,B,412588,412588,410759,411872,410759,413021,412388,412388,413021,117
108,test,1,inc,1,z,Fri Mar 21 2025 15:19:59 GMT-0500 (Central Daylight Time),424194.40000000596,window,1100,O,z,z,None,649,449.0,200.0,64,1,2278.7000000178814,421915.6999999881,7117,temper,AF,B,414854,414854,413025,414138,413025,415303,414654,414654,415303,118
109,test,1,inc,1,m,Fri Mar 21 2025 15:19:59 GMT-0500 (Central Daylight Time),426327.5,brutal,900,O,m,m,None,693,493.0,200.0,118,1,2129.5999999940395,424197.90000000596,7117,remote,AF,B,416937,416937,415307,416221,415307,417437,416737,416737,417437,119
110,test,1,con,1,z,Fri Mar 21 2025 15:19:59 GMT-0500 (Central Daylight Time),428210.3000000119,hate,800,O,z,z,None,541,342.0,199.0,41,1,1878.9000000059605,426331.40000000596,7117,hate,AF,B,418969,418969,417440,418253,417441,419319,418770,418770,419319,120
111,test,1,con,1,m,Fri Mar 21 2025 15:19:59 GMT-0500 (Central Daylight Time),430277.40000000596,jacket,1000,O,m,m,None,522,323.0,199.0,99,1,2063.2000000178814,428214.1999999881,7117,jacket,AF,B,421052,421052,419323,420336,419324,421386,420853,420853,421386,121
111,test,1,con,0,m,Fri Mar 21 2025 15:19:59 GMT-0500 (Central Daylight Time),432225.5,jacket,800,O,z,z,None,601,401.0,200.0,97,1,1944.4000000059605,430281.09999999404,7117,jacket,AF,B,422918,422918,421390,422202,421390,423335,422718,422718,423334,122
112,test,1,con,1,z,Fri Mar 21 2025 15:19:59 GMT-0500 (Central Daylight Time),434674.40000000596,kind,1100,O,z,z,None,806,607.0,199.0,12,1,2445.2000000178814,432229.1999999881,7117,kind,AF,B,425167,425167,423338,424451,423338,425783,424968,424968,425783,123
113,test,1,con,1,z,Fri Mar 21 2025 15:19:59 GMT-0500 (Central Daylight Time),436824.09999999404,brutal,800,O,z,z,None,801,602.0,199.0,33,1,2145.9000000059605,434678.1999999881,7117,brutal,AF,B,427317,427317,425787,426601,425788,427933,427118,427118,427933,124
114,test,1,inc,1,m,Fri Mar 21 2025 15:19:59 GMT-0500 (Central Daylight Time),438740.1999999881,kind,900,O,m,m,None,480,280.0,200.0,70,1,1912.5,436827.6999999881,7117,step,AF,B,429566,429567,427937,428850,427937,429849,429366,429366,429849,125
115,test,1,inc,1,z,Fri Mar 21 2025 15:19:59 GMT-0500 (Central Daylight Time),440839.1999999881,rock,900,O,z,z,None,652,452.0,200.0,54,1,2095.399999976158,438743.8000000119,7117,rage,AF,B,431482,431482,429853,430766,429853,431948,431282,431282,431948,126
116,test,1,con,1,z,Fri Mar 21 2025 15:19:59 GMT-0500 (Central Daylight Time),442838.90000000596,love,800,O,z,z,None,660,461.0,199.0,17,1,1996.0999999940395,440842.8000000119,7117,love,AF,B,433482,433482,431952,432765,431952,433948,433282,433282,433948,127
117,test,1,con,1,m,Fri Mar 21 2025 15:19:59 GMT-0500 (Central Daylight Time),444988.3000000119,rock,1000,O,m,m,None,613,413.0,200.0,75,1,2145.7000000178814,442842.59999999404,7117,rock,AF,B,435681,435681,433952,434965,433952,436097,435481,435481,436097,128
