acc_sum,block,block_c,condition,correct,correct_response,datetime,endtime,flanker,jitter,project,response,response_test_buffer_response,response_test_target_response,response_time,response_time_test_buffer_response,response_time_test_target_response,row_sel,session_number,start_end,starttime,subject_id,target,task,task_vers,time_test_buffer,time_test_buffer_response,time_test_constants,time_test_flanker,time_test_jitter,time_test_logger,time_test_target,time_test_target_response,time_test_variables,trial
1,prac,1,con,1,z,Fri Jan 17 2025 15:06:58 GMT-0600 (Central Standard Time),149391.7999999998,kiwi,1000,I,z,,,530,,,7,1,2827.899999999907,146563.8999999999,7037,kiwi,NF,C,,,,,,,,,,1
1,prac,1,con,0,m,Fri Jan 17 2025 15:06:58 GMT-0600 (Central Standard Time),154473.2000000002,zinc,1000,I,None,,,1800,,,15,1,5076.4000000003725,149396.7999999998,7037,zinc,NF,C,,,,,,,,,,2
1,prac,1,con,0,z,Fri Jan 17 2025 15:06:58 GMT-0600 (Central Standard Time),159355.2000000002,banana,800,I,None,,,1799,,,1,1,4877.9000000003725,154477.2999999998,7037,banana,NF,C,,,,,,,,,,3
1,prac,1,inc,0,m,Fri Jan 17 2025 15:06:58 GMT-0600 (Central Standard Time),164320.2000000002,pear,900,I,None,,,1799,,,14,1,4960.800000000279,159359.3999999999,7037,iron,NF,C,,,,,,,,,,4
1,prac,1,inc,0,m,Fri Jan 17 2025 15:06:58 GMT-0600 (Central Standard Time),169485.2999999998,plum,1100,I,None,,,1800,,,16,1,5160.0999999996275,164325.2000000002,7037,lead,NF,C,,,,,,,,,,5
1,prac,1,inc,0,m,Fri Jan 17 2025 15:06:58 GMT-0600 (Central Standard Time),172380.7999999998,raisin,1100,I,z,,,394,,,12,1,2891.0,169489.7999999998,7037,cobalt,NF,C,,,,,,,,,,6
1,prac,1,con,0,m,Fri Jan 17 2025 15:06:58 GMT-0600 (Central Standard Time),177266.2000000002,gold,800,I,None,,,1799,,,13,1,4880.600000000093,172385.6000000001,7037,gold,NF,C,,,,,,,,,,7
2,prac,1,con,1,m,Fri Jan 17 2025 15:06:58 GMT-0600 (Central Standard Time),179399.0,bronze,800,I,m,,,32,,,9,1,2128.7000000001863,177270.2999999998,7037,bronze,NF,C,,,,,,,,,,8
3,prac,1,con,1,z,Fri Jan 17 2025 15:06:58 GMT-0600 (Central Standard Time),181814.8999999999,lime,800,I,z,,,307,,,5,1,2411.6999999997206,179403.2000000002,7037,lime,NF,C,,,,,,,,,,9
3,prac,1,inc,0,z,Fri Jan 17 2025 15:06:58 GMT-0600 (Central Standard Time),184397.5,copper,900,I,m,,,376,,,2,1,2578.0,181819.5,7037,cherry,NF,C,,,,,,,,,,10
3,prac,1,inc,0,m,Fri Jan 17 2025 15:06:58 GMT-0600 (Central Standard Time),186730.0,cherry,900,I,z,,,122,,,10,1,2328.2999999998137,184401.7000000002,7037,copper,NF,C,,,,,,,,,,11
4,prac,1,con,1,m,Fri Jan 17 2025 15:06:58 GMT-0600 (Central Standard Time),189579.2000000002,silver,1000,I,m,,,536,,,11,1,2844.9000000003725,186734.2999999998,7037,silver,NF,C,,,,,,,,,,12
4,prac,1,inc,0,z,Fri Jan 17 2025 15:06:58 GMT-0600 (Central Standard Time),194744.0,lead,1100,I,None,,,1799,,,8,1,5160.299999999814,189583.7000000002,7037,plum,NF,C,,,,,,,,,,13
4,prac,1,inc,0,z,Fri Jan 17 2025 15:06:58 GMT-0600 (Central Standard Time),199725.8999999999,iron,900,I,None,,,1799,,,6,1,4977.600000000093,194748.2999999998,7037,pear,NF,C,,,,,,,,,,14
4,prac,1,con,0,z,Fri Jan 17 2025 15:06:58 GMT-0600 (Central Standard Time),204791.1000000001,orange,1000,I,None,,,1799,,,3,1,5061.100000000093,199730.0,7037,orange,NF,C,,,,,,,,,,15
4,prac,1,inc,0,z,Fri Jan 17 2025 15:06:58 GMT-0600 (Central Standard Time),209956.0,cobalt,1100,I,None,,,1799,,,4,1,5160.299999999814,204795.7000000002,7037,raisin,NF,C,,,,,,,,,,16
0,prac,2,inc,0,z,Fri Jan 17 2025 15:06:58 GMT-0600 (Central Standard Time),227883.7999999998,copper,900,I,None,,,1815,,,2,1,4978.0,222905.7999999998,7037,cherry,NF,C,,,,,,,,,,1
0,prac,2,inc,0,z,Fri Jan 17 2025 15:06:58 GMT-0600 (Central Standard Time),233065.2999999998,lead,1100,I,None,,,1799,,,8,1,5177.199999999721,227888.1000000001,7037,plum,NF,C,,,,,,,,,,2
0,prac,2,con,0,z,Fri Jan 17 2025 15:06:58 GMT-0600 (Central Standard Time),237930.7000000002,lime,800,I,None,,,1799,,,5,1,4860.9000000003725,233069.7999999998,7037,lime,NF,C,,,,,,,,,,3
0,prac,2,con,0,m,Fri Jan 17 2025 15:06:58 GMT-0600 (Central Standard Time),240080.7999999998,bronze,800,I,z,,,48,,,9,1,2145.6999999997206,237935.1000000001,7037,bronze,NF,C,,,,,,,,,,4
0,prac,2,inc,0,m,Fri Jan 17 2025 15:06:58 GMT-0600 (Central Standard Time),245261.7000000002,raisin,1100,I,None,,,1799,,,12,1,5177.200000000186,240084.5,7037,cobalt,NF,C,,,,,,,,,,5
0,prac,2,inc,0,m,Fri Jan 17 2025 15:06:58 GMT-0600 (Central Standard Time),250459.7999999998,plum,1100,I,None,,,1815,,,16,1,5194.0999999996275,245265.7000000002,7037,lead,NF,C,,,,,,,,,,6
0,prac,2,inc,0,m,Fri Jan 17 2025 15:06:58 GMT-0600 (Central Standard Time),255425.0,pear,900,I,None,,,1799,,,14,1,4960.899999999907,250464.1000000001,7037,iron,NF,C,,,,,,,,,,7
0,prac,2,con,0,z,Fri Jan 17 2025 15:06:58 GMT-0600 (Central Standard Time),260490.1000000001,orange,1000,I,None,,,1799,,,3,1,5060.700000000186,255429.3999999999,7037,orange,NF,C,,,,,,,,,,8
0,prac,2,inc,0,m,Fri Jan 17 2025 15:06:58 GMT-0600 (Central Standard Time),265471.8999999999,cherry,900,I,None,,,1815,,,10,1,4977.100000000093,260494.7999999998,7037,copper,NF,C,,,,,,,,,,9
1,prac,2,con,1,m,Fri Jan 17 2025 15:06:58 GMT-0600 (Central Standard Time),269370.7000000002,silver,1000,I,m,,,1569,,,11,1,3894.4000000003725,265476.2999999998,7037,silver,NF,C,,,,,,,,,,10
2,prac,2,con,1,m,Fri Jan 17 2025 15:06:58 GMT-0600 (Central Standard Time),273402.7999999998,zinc,1000,I,m,,,1718,,,15,1,4028.0999999996275,269374.7000000002,7037,zinc,NF,C,,,,,,,,,,11
3,prac,2,con,1,m,Fri Jan 17 2025 15:06:58 GMT-0600 (Central Standard Time),275668.7999999998,gold,800,I,m,,,160,,,13,1,2261.899999999907,273406.8999999999,7037,gold,NF,C,,,,,,,,,,12
4,prac,2,inc,1,z,Fri Jan 17 2025 15:06:58 GMT-0600 (Central Standard Time),278519.0,cobalt,1100,I,z,,,433,,,4,1,2846.2999999998137,275672.7000000002,7037,raisin,NF,C,,,,,,,,,,13
5,prac,2,con,1,z,Fri Jan 17 2025 15:06:58 GMT-0600 (Central Standard Time),281067.0,banana,800,I,z,,,445,,,1,1,2543.7999999998137,278523.2000000002,7037,banana,NF,C,,,,,,,,,,14
5,prac,2,con,0,z,Fri Jan 17 2025 15:06:58 GMT-0600 (Central Standard Time),286132.0,kiwi,1000,I,None,,,1799,,,7,1,5061.200000000186,281070.7999999998,7037,kiwi,NF,C,,,,,,,,,,15
5,prac,2,inc,0,z,Fri Jan 17 2025 15:06:58 GMT-0600 (Central Standard Time),291113.7999999998,iron,900,I,None,,,1815,,,6,1,4977.5,286136.2999999998,7037,pear,NF,C,,,,,,,,,,16
0,test,1,inc,0,z,Fri Jan 17 2025 15:06:58 GMT-0600 (Central Standard Time),309941.6000000001,copper,900,I,m,m,None,436,221.0,215.0,6,1,1878.5,308063.1000000001,7037,banana,NF,C,301498,301498,299853,300766,299855,301732,301283,301283,301731,1
1,test,1,inc,1,m,Fri Jan 17 2025 15:06:58 GMT-0600 (Central Standard Time),312024.1000000001,orange,1000,I,m,m,None,540,325.0,215.0,95,1,2077.899999999907,309946.2000000002,7037,cobalt,NF,C,303481,303481,301736,302749,301738,303814,303266,303266,303814,2
1,test,1,inc,0,z,Fri Jan 17 2025 15:06:58 GMT-0600 (Central Standard Time),315756.2000000002,lead,1100,I,None,None,None,1799,1799.0,205.0,48,1,3728.4000000003725,312027.7999999998,7037,pear,NF,C,305747,305747,303818,304931,303819,307546,305542,305542,307546,3
2,test,1,inc,1,m,Fri Jan 17 2025 15:06:58 GMT-0600 (Central Standard Time),317622.2000000002,cherry,900,I,m,m,None,419,220.0,199.0,70,1,1862.2000000001863,315760.0,7037,bronze,NF,C,309179,309179,307550,308464,307551,309412,308980,308980,309412,4
3,test,1,inc,1,m,Fri Jan 17 2025 15:06:58 GMT-0600 (Central Standard Time),319771.6000000001,orange,1000,I,m,m,None,613,414.0,199.0,79,1,2145.3000000002794,317626.2999999998,7037,copper,NF,C,311145,311145,309416,310429,309418,311562,310946,310946,311562,5
4,test,1,con,1,m,Fri Jan 17 2025 15:06:58 GMT-0600 (Central Standard Time),321587.6000000001,cobalt,800,I,m,m,None,478,263.0,215.0,89,1,1812.1000000000931,319775.5,7037,cobalt,NF,C,313111,313111,311566,312380,311567,313378,312896,312896,313378,6
4,test,1,inc,0,m,Fri Jan 17 2025 15:06:58 GMT-0600 (Central Standard Time),323320.5,lime,800,I,z,z,None,389,175.0,214.0,125,1,1728.7999999998137,321591.7000000002,7037,lead,NF,C,314928,314928,313382,314195,313383,315111,314713,314713,315110,7
5,test,1,inc,1,m,Fri Jan 17 2025 15:06:58 GMT-0600 (Central Standard Time),324936.6000000001,banana,800,I,m,m,None,281,66.0,215.0,85,1,1612.2000000001863,323324.3999999999,7037,silver,NF,C,316660,316660,315114,315928,315116,316727,316445,316445,316727,8
5,test,1,inc,0,z,Fri Jan 17 2025 15:06:58 GMT-0600 (Central Standard Time),326986.0,cobalt,1100,I,m,m,None,412,197.0,215.0,24,1,2045.6000000000931,324940.3999999999,7037,orange,NF,C,318577,318577,316730,317844,316732,318776,318360,318361,318776,9
6,test,1,inc,1,m,Fri Jan 17 2025 15:06:58 GMT-0600 (Central Standard Time),328885.3999999999,orange,1000,I,m,m,None,353,154.0,199.0,87,1,1895.3999999999069,326990.0,7037,silver,NF,C,320509,320509,318780,319793,318781,320675,320310,320310,320675,10
6,test,1,con,0,m,Fri Jan 17 2025 15:06:58 GMT-0600 (Central Standard Time),330868.2000000002,zinc,1000,I,z,z,None,445,230.0,215.0,115,1,1979.3000000002794,328888.8999999999,7037,zinc,NF,C,322425,322425,320679,321693,320680,322658,322210,322210,322658,11
7,test,1,inc,1,m,Fri Jan 17 2025 15:06:58 GMT-0600 (Central Standard Time),332717.7000000002,lime,800,I,m,m,None,510,311.0,199.0,101,1,1845.4000000003725,330872.2999999998,7037,gold,NF,C,324192,324192,322662,323475,322664,324508,323992,323992,324508,12
8,test,1,inc,1,m,Fri Jan 17 2025 15:06:58 GMT-0600 (Central Standard Time),334750.1000000001,plum,1100,I,m,m,None,393,178.0,215.0,120,1,2028.3000000002794,332721.7999999998,7037,zinc,NF,C,326357,326357,324512,325625,324513,326540,326142,326142,326540,13
9,test,1,inc,1,m,Fri Jan 17 2025 15:06:58 GMT-0600 (Central Standard Time),336816.2000000002,cherry,900,I,m,m,None,616,417.0,199.0,78,1,2062.3000000002794,334753.8999999999,7037,copper,NF,C,328174,328174,326544,327458,326545,328606,327974,327974,328606,14
9,test,1,con,0,z,Fri Jan 17 2025 15:06:58 GMT-0600 (Central Standard Time),338848.8999999999,raisin,1000,I,m,m,None,483,284.0,199.0,27,1,2029.1000000000931,336819.7999999998,7037,raisin,NF,C,330339,330339,328610,329623,328611,330639,330140,330140,330639,15
9,test,1,inc,0,m,Fri Jan 17 2025 15:06:58 GMT-0600 (Central Standard Time),340715.1000000001,pear,900,I,z,z,None,422,223.0,199.0,118,1,1862.5,338852.6000000001,7037,zinc,NF,C,332272,332272,330643,331556,330644,332505,332073,332073,332505,16
10,test,1,inc,1,z,Fri Jan 17 2025 15:06:58 GMT-0600 (Central Standard Time),343097.7999999998,silver,1000,I,z,z,None,840,641.0,199.0,23,1,2378.899999999907,340718.8999999999,7037,orange,NF,C,334238,334238,332509,333522,332510,334888,334039,334039,334888,17
10,test,1,inc,0,z,Fri Jan 17 2025 15:06:58 GMT-0600 (Central Standard Time),344947.0,gold,800,I,m,m,None,505,290.0,215.0,37,1,1845.5,343101.5,7037,lime,NF,C,336437,336437,334892,335705,334893,336737,336222,336222,336737,18
10,test,1,inc,0,z,Fri Jan 17 2025 15:06:58 GMT-0600 (Central Standard Time),348579.2000000002,cobalt,1100,I,None,None,None,1799,1799.0,199.0,32,1,3628.3000000002794,344950.8999999999,7037,raisin,NF,C,338570,338570,336741,337854,336742,340369,338371,338371,340369,19
10,test,1,inc,0,z,Fri Jan 17 2025 15:06:58 GMT-0600 (Central Standard Time),350295.3999999999,gold,800,I,m,m,None,367,152.0,215.0,45,1,1712.2999999998137,348583.1000000001,7037,pear,NF,C,341919,341919,340373,341187,340375,342085,341704,341704,342085,20
11,test,1,con,1,z,Fri Jan 17 2025 15:06:58 GMT-0600 (Central Standard Time),352245.8999999999,raisin,900,I,z,z,None,503,288.0,215.0,26,1,1946.7999999998137,350299.1000000001,7037,raisin,NF,C,343735,343735,342089,343003,342090,344036,343519,343520,344036,21
12,test,1,con,1,m,Fri Jan 17 2025 15:06:58 GMT-0600 (Central Standard Time),354277.6000000001,iron,1100,I,m,m,None,394,194.0,200.0,108,1,2027.8999999999069,352249.7000000002,7037,iron,NF,C,345869,345869,344040,345152,344041,346068,345669,345669,346068,22
13,test,1,inc,1,m,Fri Jan 17 2025 15:06:58 GMT-0600 (Central Standard Time),356627.6000000001,raisin,1100,I,m,m,None,713,498.0,215.0,88,1,2346.3000000002794,354281.2999999998,7037,silver,NF,C,347917,347917,346071,347185,346073,348418,347701,347702,348418,23
14,test,1,con,1,m,Fri Jan 17 2025 15:06:58 GMT-0600 (Central Standard Time),358392.8999999999,copper,900,I,m,m,None,331,116.0,215.0,74,1,1761.3999999999069,356631.5,7037,copper,NF,C,350066,350067,348422,349334,348423,350183,349851,349851,350183,24
14,test,1,con,0,z,Fri Jan 17 2025 15:06:58 GMT-0600 (Central Standard Time),360804.6000000001,lime,900,I,m,m,None,831,632.0,199.0,34,1,2408.0,358396.6000000001,7037,lime,NF,C,351816,351816,350187,351101,350188,352595,351617,351617,352595,25
15,test,1,con,1,z,Fri Jan 17 2025 15:06:58 GMT-0600 (Central Standard Time),362508.1000000001,banana,800,I,z,z,None,362,163.0,199.0,1,1,1699.3999999999069,360808.7000000002,7037,banana,NF,C,354132,354132,352599,353416,352600,354298,353933,353933,354298,26
16,test,1,con,1,m,Fri Jan 17 2025 15:06:58 GMT-0600 (Central Standard Time),364724.0,copper,1100,I,m,m,None,579,380.0,199.0,76,1,2212.100000000093,362511.8999999999,7037,copper,NF,C,356131,356131,354302,355416,354303,356514,355932,355932,356514,27
16,test,1,inc,0,z,Fri Jan 17 2025 15:06:58 GMT-0600 (Central Standard Time),368356.5,lead,1100,I,None,None,None,1799,1799.0,199.0,40,1,3628.600000000093,364727.8999999999,7037,lime,NF,C,358347,358347,356518,357632,356519,360147,358148,358148,360147,28
16,test,1,inc,0,z,Fri Jan 17 2025 15:06:58 GMT-0600 (Central Standard Time),371688.7000000002,bronze,800,I,None,None,None,1799,1799.0,199.0,29,1,3328.4000000003725,368360.2999999998,7037,raisin,NF,C,361680,361680,360150,360964,360152,363479,361481,361481,363479,29
17,test,1,con,1,z,Fri Jan 17 2025 15:06:58 GMT-0600 (Central Standard Time),373737.7999999998,orange,1000,I,z,z,None,514,315.0,199.0,19,1,2045.2999999998137,371692.5,7037,orange,NF,C,365212,365212,363483,364496,363484,365528,365013,365013,365528,30
18,test,1,con,1,m,Fri Jan 17 2025 15:06:58 GMT-0600 (Central Standard Time),375870.7999999998,gold,900,I,m,m,None,693,494.0,199.0,98,1,2129.2999999998137,373741.5,7037,gold,NF,C,367161,367161,365532,366445,365533,367661,366962,366962,367661,31
19,test,1,con,1,z,Fri Jan 17 2025 15:06:58 GMT-0600 (Central Standard Time),377986.5,orange,900,I,z,z,None,680,481.0,199.0,18,1,2111.7000000001863,375874.7999999998,7037,orange,NF,C,369294,369294,367665,368578,367666,369777,369095,369095,369777,32
20,test,1,con,1,z,Fri Jan 17 2025 15:06:58 GMT-0600 (Central Standard Time),379869.3999999999,kiwi,900,I,z,z,None,444,229.0,215.0,50,1,1879.0,377990.3999999999,7037,kiwi,NF,C,371426,371426,369780,370694,369782,371659,371211,371211,371659,33
21,test,1,con,1,m,Fri Jan 17 2025 15:06:58 GMT-0600 (Central Standard Time),381952.0,iron,1000,I,m,m,None,531,317.0,214.0,107,1,2078.7000000001863,379873.2999999998,7037,iron,NF,C,373409,373409,371663,372676,371665,373742,373195,373195,373742,34
21,test,1,inc,0,m,Fri Jan 17 2025 15:06:58 GMT-0600 (Central Standard Time),383835.0,cherry,900,I,z,z,None,447,248.0,199.0,86,1,1879.2000000001863,381955.7999999998,7037,silver,NF,C,375375,375375,373746,374660,373747,375625,375176,375176,375625,35
22,test,1,inc,1,m,Fri Jan 17 2025 15:06:58 GMT-0600 (Central Standard Time),385684.2999999998,kiwi,1000,I,m,m,None,312,113.0,199.0,103,1,1845.7999999998137,383838.5,7037,gold,NF,C,377358,377358,375629,376642,375630,377474,377159,377159,377474,36
22,test,1,inc,0,m,Fri Jan 17 2025 15:06:58 GMT-0600 (Central Standard Time),387733.5,banana,800,I,z,z,None,702,487.0,215.0,77,1,2045.6000000000931,385687.8999999999,7037,copper,NF,C,379024,379024,377478,378292,377479,379524,378809,378809,379524,37
23,test,1,inc,1,m,Fri Jan 17 2025 15:06:58 GMT-0600 (Central Standard Time),389600.0,kiwi,1000,I,m,m,None,325,126.0,199.0,111,1,1862.6000000000931,387737.3999999999,7037,iron,NF,C,381257,381257,379527,380541,379529,381390,381058,381058,381390,38
23,test,1,con,0,z,Fri Jan 17 2025 15:06:58 GMT-0600 (Central Standard Time),391632.3999999999,cherry,1000,I,m,m,None,482,283.0,199.0,11,1,2028.5,389603.8999999999,7037,cherry,NF,C,383123,383123,381394,382407,381395,383422,382924,382924,383422,39
24,test,1,inc,1,m,Fri Jan 17 2025 15:06:58 GMT-0600 (Central Standard Time),393598.6000000001,kiwi,1000,I,m,m,None,426,227.0,199.0,119,1,1962.3999999999069,391636.2000000002,7037,zinc,NF,C,385155,385156,383426,384440,383428,385389,384956,384956,385389,40
24,test,1,con,0,z,Fri Jan 17 2025 15:06:58 GMT-0600 (Central Standard Time),395631.2000000002,orange,800,I,m,m,None,684,469.0,215.0,17,1,2028.8000000002794,393602.3999999999,7037,orange,NF,C,386938,386938,385392,386206,385394,387421,386723,386723,387421,41
25,test,1,con,1,m,Fri Jan 17 2025 15:06:58 GMT-0600 (Central Standard Time),398364.1000000001,zinc,900,I,m,m,None,1288,1089.0,199.0,114,1,2729.100000000093,395635.0,7037,zinc,NF,C,389054,389054,387425,388339,387426,390154,388855,388855,390154,42
25,test,1,con,0,m,Fri Jan 17 2025 15:06:58 GMT-0600 (Central Standard Time),400346.3999999999,silver,1000,I,z,z,None,439,240.0,199.0,83,1,1978.2999999998137,398368.1000000001,7037,silver,NF,C,391887,391887,390158,391171,390159,392137,391688,391688,392136,43
26,test,1,con,1,m,Fri Jan 17 2025 15:06:58 GMT-0600 (Central Standard Time),402146.8999999999,bronze,1000,I,m,m,None,264,65.0,199.0,67,1,1796.7999999998137,400350.1000000001,7037,bronze,NF,C,393870,393870,392140,393154,392141,393937,393670,393670,393937,44
26,test,1,con,0,z,Fri Jan 17 2025 15:06:58 GMT-0600 (Central Standard Time),403995.2000000002,banana,1000,I,m,m,None,305,106.0,199.0,3,1,1844.4000000003725,402150.7999999998,7037,banana,NF,C,395669,395669,393941,394953,393942,395785,395470,395470,395785,45
26,test,1,con,0,m,Fri Jan 17 2025 15:06:58 GMT-0600 (Central Standard Time),405844.7000000002,gold,800,I,z,z,None,503,304.0,199.0,97,1,1845.8000000002794,403998.8999999999,7037,gold,NF,C,397318,397318,395789,396603,395790,397635,397119,397119,397635,46
26,test,1,inc,0,z,Fri Jan 17 2025 15:06:58 GMT-0600 (Central Standard Time),407874.2000000002,iron,900,I,m,m,None,577,378.0,199.0,46,1,2025.7000000001863,405848.5,7037,pear,NF,C,399268,399268,397638,398552,397640,399664,399069,399069,399664,47
27,test,1,inc,1,m,Fri Jan 17 2025 15:06:58 GMT-0600 (Central Standard Time),409943.2999999998,lime,800,I,m,m,None,725,526.0,199.0,117,1,2065.0999999996275,407878.2000000002,7037,zinc,NF,C,401201,401201,399668,400485,399669,401733,401001,401001,401733,48
28,test,1,con,1,m,Fri Jan 17 2025 15:06:58 GMT-0600 (Central Standard Time),411875.8999999999,silver,800,I,m,m,None,595,396.0,199.0,81,1,1928.6000000000931,409947.2999999998,7037,silver,NF,C,403267,403267,401737,402551,401739,403666,403067,403067,403666,49
29,test,1,con,1,z,Fri Jan 17 2025 15:06:58 GMT-0600 (Central Standard Time),415458.3999999999,cherry,1100,I,z,z,None,1946,1747.0,199.0,12,1,3578.5,411879.8999999999,7037,cherry,NF,C,405499,405499,403670,404783,403671,407248,405300,405300,407248,50
30,test,1,con,1,m,Fri Jan 17 2025 15:06:58 GMT-0600 (Central Standard Time),417341.2999999998,bronze,900,I,m,m,None,437,237.0,200.0,66,1,1879.2999999998137,415462.0,7037,bronze,NF,C,408882,408882,407252,408166,407253,409131,408682,408682,409131,51
31,test,1,inc,1,m,Fri Jan 17 2025 15:06:58 GMT-0600 (Central Standard Time),419456.7000000002,pear,900,I,m,m,None,665,466.0,199.0,126,1,2111.600000000093,417345.1000000001,7037,lead,NF,C,410764,410764,409135,410048,409136,411247,410565,410565,411247,52
32,test,1,con,1,m,Fri Jan 17 2025 15:06:58 GMT-0600 (Central Standard Time),421156.6000000001,iron,800,I,m,m,None,362,163.0,199.0,105,1,1695.3000000002794,419461.2999999998,7037,iron,NF,C,412780,412780,411251,412064,411252,412947,412581,412581,412947,53
33,test,1,inc,1,z,Fri Jan 17 2025 15:06:58 GMT-0600 (Central Standard Time),423339.1000000001,iron,900,I,z,z,None,738,523.0,215.0,62,1,2178.5,421160.6000000001,7037,plum,NF,C,414596,414596,412951,413865,412952,415129,414380,414381,415129,54
34,test,1,inc,1,z,Fri Jan 17 2025 15:06:58 GMT-0600 (Central Standard Time),425571.7000000002,silver,1000,I,z,z,None,694,480.0,214.0,7,1,2228.8000000002794,423342.8999999999,7037,banana,NF,C,416879,416879,415133,416146,415134,417362,416664,416664,417362,55
35,test,1,inc,1,z,Fri Jan 17 2025 15:06:58 GMT-0600 (Central Standard Time),427604.2000000002,copper,900,I,z,z,None,594,379.0,215.0,14,1,2028.7000000001863,425575.5,7037,cherry,NF,C,419011,419011,417365,418279,417367,419394,418796,418796,419394,56
35,test,1,con,0,z,Fri Jan 17 2025 15:06:58 GMT-0600 (Central Standard Time),429703.8999999999,banana,1100,I,m,m,None,458,259.0,199.0,4,1,2096.1999999997206,427607.7000000002,7037,banana,NF,C,421228,421228,419398,420512,419399,421494,421028,421028,421494,57
36,test,1,inc,1,z,Fri Jan 17 2025 15:06:58 GMT-0600 (Central Standard Time),431920.0,lead,1100,I,z,z,None,499,293.0,206.0,64,1,2212.0,429708.0,7037,plum,NF,C,423410,423410,421498,422611,421499,423710,423204,423204,423710,58
36,test,1,inc,0,m,Fri Jan 17 2025 15:06:58 GMT-0600 (Central Standard Time),435169.0,banana,800,I,z,z,None,1899,1700.0,199.0,93,1,3244.7000000001863,431924.2999999998,7037,cobalt,NF,C,425243,425243,423714,424527,423716,426959,425044,425044,426959,59
37,test,1,con,1,m,Fri Jan 17 2025 15:06:58 GMT-0600 (Central Standard Time),437201.3999999999,gold,1100,I,m,m,None,390,191.0,199.0,100,1,2028.7999999998137,435172.6000000001,7037,gold,NF,C,428792,428792,426963,428076,426964,428991,428593,428593,428991,60
37,test,1,inc,0,m,Fri Jan 17 2025 15:06:58 GMT-0600 (Central Standard Time),439200.8999999999,kiwi,1000,I,z,z,None,449,250.0,199.0,127,1,1996.0,437204.8999999999,7037,lead,NF,C,430724,430725,428995,430009,428996,430991,430525,430525,430991,61
37,test,1,con,0,z,Fri Jan 17 2025 15:06:58 GMT-0600 (Central Standard Time),441300.2000000002,kiwi,1100,I,m,m,None,462,263.0,199.0,52,1,2095.5,439204.7000000002,7037,kiwi,NF,C,432824,432824,430995,432108,430996,433090,432625,432625,433090,62
38,test,1,con,1,m,Fri Jan 17 2025 15:06:58 GMT-0600 (Central Standard Time),443432.7000000002,bronze,800,I,m,m,None,790,591.0,199.0,65,1,2128.0,441304.7000000002,7037,bronze,NF,C,434624,434624,433095,433908,433096,435223,434424,434424,435223,63
39,test,1,inc,1,z,Fri Jan 17 2025 15:06:58 GMT-0600 (Central Standard Time),445498.7999999998,iron,900,I,z,z,None,622,423.0,199.0,38,1,2062.5,443436.2999999998,7037,lime,NF,C,436856,436856,435226,436140,435228,437289,436657,436657,437289,64
40,test,1,inc,1,m,Fri Jan 17 2025 15:06:58 GMT-0600 (Central Standard Time),447548.2999999998,orange,1000,I,m,m,None,504,305.0,199.0,71,1,2045.6999999997206,445502.6000000001,7037,bronze,NF,C,439022,439022,437293,438306,437294,439338,438823,438823,439338,65
40,test,1,inc,0,z,Fri Jan 17 2025 15:06:58 GMT-0600 (Central Standard Time),449647.6000000001,silver,1000,I,m,m,None,551,352.0,199.0,15,1,2095.399999999907,447552.2000000002,7037,cherry,NF,C,441071,441071,439342,440356,439344,441438,440872,440872,441438,66
40,test,1,con,0,z,Fri Jan 17 2025 15:06:58 GMT-0600 (Central Standard Time),451730.2000000002,raisin,1100,I,m,m,None,440,241.0,199.0,28,1,2079.0,449651.2000000002,7037,raisin,NF,C,443270,443270,441441,442554,441443,443520,443071,443071,443520,67
41,test,1,con,1,z,Fri Jan 17 2025 15:06:58 GMT-0600 (Central Standard Time),453796.3999999999,kiwi,1000,I,z,z,None,528,329.0,199.0,51,1,2062.100000000093,451734.2999999998,7037,kiwi,NF,C,445253,445254,443524,444538,443525,445586,445054,445054,445586,68
42,test,1,con,1,m,Fri Jan 17 2025 15:06:58 GMT-0600 (Central Standard Time),455645.7000000002,gold,1000,I,m,m,None,327,128.0,199.0,99,1,1845.6000000000931,453800.1000000001,7037,gold,NF,C,447303,447303,445590,446601,445592,447436,447104,447104,447436,69
43,test,1,con,1,m,Fri Jan 17 2025 15:06:58 GMT-0600 (Central Standard Time),457878.3999999999,cobalt,1000,I,m,m,None,685,486.0,199.0,91,1,2228.899999999907,455649.5,7037,cobalt,NF,C,449169,449169,447440,448454,447441,449668,448970,448970,449668,70
44,test,1,inc,1,m,Fri Jan 17 2025 15:06:58 GMT-0600 (Central Standard Time),460360.7999999998,plum,1100,I,m,m,None,841,642.0,199.0,112,1,2478.899999999907,457881.8999999999,7037,iron,NF,C,451501,451501,449672,450785,449673,452151,451302,451302,452151,71
45,test,1,inc,1,z,Fri Jan 17 2025 15:06:58 GMT-0600 (Central Standard Time),462610.1000000001,gold,800,I,z,z,None,906,707.0,199.0,53,1,2245.7000000001863,460364.3999999999,7037,kiwi,NF,C,453684,453684,452154,452968,452156,454400,453485,453485,454400,72
45,test,1,inc,0,z,Fri Jan 17 2025 15:06:58 GMT-0600 (Central Standard Time),464576.1000000001,silver,1000,I,m,m,None,424,225.0,199.0,31,1,1962.1000000000931,462614.0,7037,raisin,NF,C,456133,456134,454404,455417,454405,456366,455934,455934,456366,73
46,test,1,con,1,z,Fri Jan 17 2025 15:06:58 GMT-0600 (Central Standard Time),467075.3999999999,orange,1100,I,z,z,None,855,656.0,199.0,20,1,2495.1999999997206,464580.2000000002,7037,orange,NF,C,458199,458199,456370,457484,456371,458865,458000,458000,458865,74
46,test,1,con,0,m,Fri Jan 17 2025 15:06:58 GMT-0600 (Central Standard Time),470741.0,silver,1100,I,None,None,None,1815,1815.0,215.0,84,1,3661.899999999907,467079.1000000001,7037,silver,NF,C,460715,460716,458869,459983,458870,462531,460500,460500,462531,75
46,test,1,con,0,z,Fri Jan 17 2025 15:06:58 GMT-0600 (Central Standard Time),472807.3999999999,plum,1100,I,m,m,None,426,227.0,199.0,60,1,2062.399999999907,470745.0,7037,plum,NF,C,464364,464364,462535,463649,462536,464597,464165,464165,464597,76
47,test,1,inc,1,z,Fri Jan 17 2025 15:06:58 GMT-0600 (Central Standard Time),475039.7000000002,zinc,1000,I,z,z,None,684,485.0,199.0,55,1,2228.5,472811.2000000002,7037,kiwi,NF,C,466330,466330,464601,465614,464603,466830,466131,466131,466830,77
48,test,1,con,1,m,Fri Jan 17 2025 15:06:58 GMT-0600 (Central Standard Time),477105.7000000002,iron,900,I,m,m,None,623,408.0,215.0,106,1,2062.3000000002794,475043.3999999999,7037,iron,NF,C,468479,468479,466833,467747,466835,468896,468264,468264,468896,78
49,test,1,con,1,m,Fri Jan 17 2025 15:06:58 GMT-0600 (Central Standard Time),479271.6000000001,cobalt,1100,I,m,m,None,401,201.0,200.0,92,1,2162.2000000001863,477109.3999999999,7037,cobalt,NF,C,470846,470846,468899,470143,468901,471062,470646,470646,471062,79
50,test,1,inc,1,m,Fri Jan 17 2025 15:06:58 GMT-0600 (Central Standard Time),481270.8999999999,banana,800,I,m,m,None,651,452.0,199.0,69,1,1995.6999999997206,479275.2000000002,7037,bronze,NF,C,472595,472595,471065,471879,471067,473061,472396,472396,473061,80
51,test,1,inc,1,m,Fri Jan 17 2025 15:06:58 GMT-0600 (Central Standard Time),483203.7000000002,lime,800,I,m,m,None,596,397.0,199.0,109,1,1929.1000000000931,481274.6000000001,7037,iron,NF,C,474594,474594,473065,473878,473066,474994,474395,474395,474994,81
52,test,1,con,1,m,Fri Jan 17 2025 15:06:58 GMT-0600 (Central Standard Time),485136.6000000001,silver,900,I,m,m,None,491,292.0,199.0,82,1,1929.0,483207.6000000001,7037,silver,NF,C,476627,476627,474998,475911,474999,476927,476428,476428,476927,82
53,test,1,inc,1,z,Fri Jan 17 2025 15:06:58 GMT-0600 (Central Standard Time),487502.3999999999,cobalt,1100,I,z,z,None,726,527.0,199.0,16,1,2362.0,485140.3999999999,7037,cherry,NF,C,478760,478760,476930,478045,476932,479293,478560,478560,479292,83
54,test,1,inc,1,z,Fri Jan 17 2025 15:06:58 GMT-0600 (Central Standard Time),489785.2000000002,copper,900,I,z,z,None,832,633.0,199.0,22,1,2279.0,487506.2000000002,7037,orange,NF,C,480926,480926,479296,480209,479297,481575,480726,480726,481575,84
55,test,1,con,1,m,Fri Jan 17 2025 15:06:58 GMT-0600 (Central Standard Time),492001.0,zinc,800,I,m,m,None,882,683.0,199.0,113,1,2211.899999999907,489789.1000000001,7037,zinc,NF,C,483108,483108,481579,482392,481580,483791,482909,482909,483791,85
55,test,1,con,0,z,Fri Jan 17 2025 15:06:58 GMT-0600 (Central Standard Time),494417.0,pear,900,I,m,m,None,974,775.0,199.0,42,1,2412.2000000001863,492004.7999999998,7037,pear,NF,C,485424,485424,483795,484708,483796,486207,485225,485225,486207,86
56,test,1,con,1,m,Fri Jan 17 2025 15:06:58 GMT-0600 (Central Standard Time),496699.3999999999,lead,1100,I,m,m,None,638,439.0,199.0,124,1,2277.600000000093,494421.7999999998,7037,lead,NF,C,488040,488040,486212,487324,486213,488490,487841,487841,488489,87
57,test,1,inc,1,m,Fri Jan 17 2025 15:06:58 GMT-0600 (Central Standard Time),498815.3999999999,plum,1100,I,m,m,None,474,259.0,215.0,104,1,2112.100000000093,496703.2999999998,7037,gold,NF,C,490339,490339,488493,489607,488495,490606,490123,490124,490605,88
58,test,1,inc,1,m,Fri Jan 17 2025 15:06:58 GMT-0600 (Central Standard Time),501181.6000000001,raisin,1100,I,m,m,None,727,528.0,199.0,72,1,2362.600000000093,498819.0,7037,bronze,NF,C,492439,492439,490609,491723,490610,492972,492239,492239,492972,89
59,test,1,inc,1,m,Fri Jan 17 2025 15:06:58 GMT-0600 (Central Standard Time),503347.6000000001,raisin,1100,I,m,m,None,528,329.0,199.0,80,1,2162.3000000002794,501185.2999999998,7037,copper,NF,C,494806,494806,492975,494089,492977,495138,494606,494606,495138,90
60,test,1,con,1,m,Fri Jan 17 2025 15:06:58 GMT-0600 (Central Standard Time),505163.5,lead,900,I,m,m,None,371,156.0,215.0,122,1,1812.0,503351.5,7037,lead,NF,C,496787,496787,495142,496055,495143,496954,496572,496572,496954,91
61,test,1,inc,1,m,Fri Jan 17 2025 15:06:58 GMT-0600 (Central Standard Time),506979.7000000002,pear,900,I,m,m,None,378,163.0,215.0,102,1,1812.4000000003725,505167.2999999998,7037,gold,NF,C,498604,498604,496957,497871,496959,498770,498388,498388,498770,92
61,test,1,con,0,z,Fri Jan 17 2025 15:06:58 GMT-0600 (Central Standard Time),508928.7999999998,cherry,900,I,m,m,None,499,284.0,215.0,10,1,1945.1999999997206,506983.6000000001,7037,cherry,NF,C,500419,500419,498774,499687,498775,500719,500204,500204,500719,93
62,test,1,con,1,z,Fri Jan 17 2025 15:06:58 GMT-0600 (Central Standard Time),510761.6000000001,pear,800,I,z,z,None,489,290.0,199.0,41,1,1828.8999999999069,508932.7000000002,7037,pear,NF,C,502253,502253,500723,501536,500724,502552,502053,502053,502552,94
62,test,1,inc,0,z,Fri Jan 17 2025 15:06:58 GMT-0600 (Central Standard Time),512711.1000000001,zinc,1000,I,m,m,None,409,210.0,199.0,47,1,1945.5,510765.6000000001,7037,pear,NF,C,504285,504285,502556,503569,502557,504501,504086,504086,504501,95
62,test,1,inc,0,z,Fri Jan 17 2025 15:06:58 GMT-0600 (Central Standard Time),515594.7000000002,zinc,1000,I,m,m,None,1348,1149.0,199.0,39,1,2880.100000000093,512714.6000000001,7037,lime,NF,C,506234,506234,504505,505518,504506,507385,506035,506035,507385,96
63,test,1,con,1,m,Fri Jan 17 2025 15:06:58 GMT-0600 (Central Standard Time),517859.6000000001,copper,800,I,m,m,None,929,714.0,215.0,73,1,2261.0,515598.6000000001,7037,copper,NF,C,508933,508933,507389,508201,507390,509650,508718,508718,509650,97
64,test,1,con,1,z,Fri Jan 17 2025 15:06:58 GMT-0600 (Central Standard Time),520042.2000000002,plum,1000,I,z,z,None,646,431.0,215.0,59,1,2178.8000000002794,517863.3999999999,7037,plum,NF,C,511400,511400,509653,510667,509655,511832,511184,511184,511832,98
64,test,1,con,0,z,Fri Jan 17 2025 15:06:58 GMT-0600 (Central Standard Time),523674.7000000002,lime,1100,I,None,None,None,1799,1799.0,199.0,36,1,3628.7000000001863,520046.0,7037,lime,NF,C,513665,513666,511836,512949,511837,515465,513466,513466,515465,99
65,test,1,con,1,z,Fri Jan 17 2025 15:06:58 GMT-0600 (Central Standard Time),525567.5,kiwi,800,I,z,z,None,558,359.0,199.0,49,1,1889.2000000001863,523678.2999999998,7037,kiwi,NF,C,516998,516998,515468,516282,515470,517358,516798,516798,517358,100
66,test,1,inc,1,m,Fri Jan 17 2025 15:06:58 GMT-0600 (Central Standard Time),527889.7000000002,plum,1100,I,m,m,None,690,491.0,199.0,128,1,2318.4000000003725,525571.2999999998,7037,lead,NF,C,519180,519180,517361,518464,517363,519680,518981,518981,519680,101
66,test,1,inc,0,z,Fri Jan 17 2025 15:06:58 GMT-0600 (Central Standard Time),530255.6000000001,bronze,800,I,m,m,None,1025,826.0,199.0,13,1,2362.2000000001863,527893.3999999999,7037,cherry,NF,C,521213,521213,519683,520497,519685,522046,521014,521014,522046,102
66,test,1,inc,0,z,Fri Jan 17 2025 15:06:58 GMT-0600 (Central Standard Time),533654.7000000002,zinc,1000,I,m,m,None,1859,1644.0,215.0,63,1,3395.5,530259.2000000002,7037,plum,NF,C,523795,523795,522049,523063,522051,525445,523580,523580,525445,103
66,test,1,inc,0,z,Fri Jan 17 2025 15:06:58 GMT-0600 (Central Standard Time),537086.8999999999,iron,900,I,None,None,None,1799,1799.0,199.0,54,1,3428.1999999997206,533658.7000000002,7037,kiwi,NF,C,527078,527078,525449,526362,525450,528877,526879,526879,528877,104
67,test,1,inc,1,z,Fri Jan 17 2025 15:06:58 GMT-0600 (Central Standard Time),539435.8999999999,copper,900,I,z,z,None,904,705.0,199.0,30,1,2345.1999999997206,537090.7000000002,7037,raisin,NF,C,530510,530510,528881,529794,528882,531226,530311,530311,531226,105
67,test,1,con,0,z,Fri Jan 17 2025 15:06:58 GMT-0600 (Central Standard Time),543068.3999999999,pear,1100,I,None,None,None,1799,1799.0,199.0,44,1,3628.7999999998137,539439.6000000001,7037,pear,NF,C,533059,533059,531230,532343,531231,534858,532860,532860,534858,106
68,test,1,con,1,z,Fri Jan 17 2025 15:06:58 GMT-0600 (Central Standard Time),545301.1000000001,lime,1000,I,z,z,None,695,496.0,199.0,35,1,2229.0,543072.1000000001,7037,lime,NF,C,536591,536591,534862,535876,534863,537091,536392,536392,537091,107
69,test,1,con,1,z,Fri Jan 17 2025 15:06:58 GMT-0600 (Central Standard Time),547566.7999999998,plum,900,I,z,z,None,826,627.0,199.0,58,1,2261.899999999907,545304.8999999999,7037,plum,NF,C,538724,538724,537095,538008,537096,539357,538525,538525,539357,108
70,test,1,inc,1,m,Fri Jan 17 2025 15:06:58 GMT-0600 (Central Standard Time),550516.1000000001,cherry,900,I,m,m,None,1402,1196.0,206.0,94,1,2945.600000000093,547570.5,7037,cobalt,NF,C,541107,541107,539361,540274,539362,542306,540900,540900,542306,109
71,test,1,inc,1,z,Fri Jan 17 2025 15:06:58 GMT-0600 (Central Standard Time),552798.8999999999,gold,800,I,z,z,None,943,744.0,199.0,61,1,2278.7999999998137,550520.1000000001,7037,plum,NF,C,543839,543839,542310,543123,542311,544589,543640,543640,544589,110
72,test,1,con,1,m,Fri Jan 17 2025 15:06:58 GMT-0600 (Central Standard Time),554797.8999999999,lead,800,I,m,m,None,652,453.0,199.0,121,1,1995.3999999999069,552802.5,7037,lead,NF,C,546122,546122,544593,545406,544594,546588,545923,545923,546588,111
73,test,1,con,1,z,Fri Jan 17 2025 15:06:58 GMT-0600 (Central Standard Time),557297.2000000002,pear,1000,I,z,z,None,949,750.0,199.0,43,1,2495.7000000001863,554801.5,7037,pear,NF,C,548321,548321,546592,547605,546593,549087,548122,548122,549087,112
73,test,1,inc,0,z,Fri Jan 17 2025 15:06:58 GMT-0600 (Central Standard Time),559513.1000000001,lead,1100,I,m,m,None,574,375.0,199.0,56,1,2212.100000000093,557301.0,7037,kiwi,NF,C,550920,550920,549091,550205,549092,551303,550721,550721,551303,113
74,test,1,con,1,m,Fri Jan 17 2025 15:06:58 GMT-0600 (Central Standard Time),561829.1000000001,zinc,1100,I,m,m,None,678,479.0,199.0,116,1,2312.3000000002794,559516.7999999998,7037,zinc,NF,C,553136,553136,551307,552420,551308,553619,552937,552937,553619,114
75,test,1,con,1,m,Fri Jan 17 2025 15:06:58 GMT-0600 (Central Standard Time),563911.7000000002,cobalt,900,I,m,m,None,642,443.0,199.0,90,1,2078.9000000003725,561832.7999999998,7037,cobalt,NF,C,555252,555252,553623,554536,553624,555702,555053,555053,555702,115
76,test,1,inc,1,z,Fri Jan 17 2025 15:06:58 GMT-0600 (Central Standard Time),566177.7999999998,cobalt,1100,I,z,z,None,630,431.0,199.0,8,1,2262.0999999996275,563915.7000000002,7037,banana,NF,C,557535,557535,555706,556819,555707,557968,557336,557336,557968,116
76,test,1,inc,0,z,Fri Jan 17 2025 15:06:58 GMT-0600 (Central Standard Time),567977.2000000002,bronze,800,I,m,m,None,457,258.0,199.0,5,1,1795.8000000002794,566181.3999999999,7037,banana,NF,C,559501,559501,557971,558785,557973,559767,559302,559302,559767,117
77,test,1,con,1,m,Fri Jan 17 2025 15:06:58 GMT-0600 (Central Standard Time),570259.7999999998,lead,1000,I,m,m,None,746,547.0,199.0,123,1,2278.899999999907,567980.8999999999,7037,lead,NF,C,561500,561500,559771,560785,559772,562050,561301,561301,562050,118
77,test,1,con,0,z,Fri Jan 17 2025 15:06:58 GMT-0600 (Central Standard Time),573492.1000000001,banana,900,I,m,m,None,1787,1588.0,199.0,2,1,3228.5,570263.6000000001,7037,banana,NF,C,563683,563683,562054,562967,562055,565282,563484,563484,565282,119
77,test,1,con,0,z,Fri Jan 17 2025 15:06:58 GMT-0600 (Central Standard Time),576824.7999999998,lime,800,I,None,None,None,1800,1800.0,199.0,33,1,3328.899999999907,573495.8999999999,7037,lime,NF,C,566815,566815,565286,566100,565287,568615,566616,566616,568615,120
78,test,1,con,1,z,Fri Jan 17 2025 15:06:58 GMT-0600 (Central Standard Time),578907.1000000001,raisin,800,I,z,z,None,746,531.0,215.0,25,1,2078.8000000002794,576828.2999999998,7037,raisin,NF,C,570164,570164,568618,569432,568620,570697,569949,569949,570697,121
79,test,1,con,1,z,Fri Jan 17 2025 15:06:58 GMT-0600 (Central Standard Time),581189.7999999998,plum,800,I,z,z,None,944,745.0,199.0,57,1,2279.0999999996275,578910.7000000002,7037,plum,NF,C,572230,572230,570701,571514,570702,572980,572031,572031,572980,122
80,test,1,inc,1,z,Fri Jan 17 2025 15:06:58 GMT-0600 (Central Standard Time),583422.3999999999,bronze,800,I,z,z,None,885,686.0,199.0,21,1,2228.7999999998137,581193.6000000001,7037,orange,NF,C,574513,574513,572984,573797,572985,575212,574314,574314,575212,123
81,test,1,inc,1,m,Fri Jan 17 2025 15:06:58 GMT-0600 (Central Standard Time),585638.3999999999,raisin,1100,I,m,m,None,568,353.0,215.0,96,1,2212.399999999907,583426.0,7037,cobalt,NF,C,577062,577062,575216,576329,575217,577428,576846,576847,577428,124
82,test,1,con,1,m,Fri Jan 17 2025 15:06:58 GMT-0600 (Central Standard Time),587854.3999999999,bronze,1100,I,m,m,None,569,370.0,199.0,68,1,2212.399999999907,585642.0,7037,bronze,NF,C,579261,579261,577432,578546,577433,579644,579062,579062,579644,125
83,test,1,con,1,z,Fri Jan 17 2025 15:06:58 GMT-0600 (Central Standard Time),590470.2000000002,cherry,800,I,z,z,None,1276,1061.0,215.0,9,1,2612.2000000001863,587858.0,7037,cherry,NF,C,581194,581194,579648,580461,579649,582260,580979,580979,582260,126
84,test,1,con,1,m,Fri Jan 17 2025 15:06:58 GMT-0600 (Central Standard Time),592686.2000000002,copper,1000,I,m,m,None,669,470.0,199.0,75,1,2212.2000000001863,590474.0,7037,copper,NF,C,583993,583993,582264,583277,582265,584476,583794,583794,584476,127
85,test,1,inc,1,m,Fri Jan 17 2025 15:06:58 GMT-0600 (Central Standard Time),595252.0,pear,900,I,m,m,None,1129,930.0,199.0,110,1,2562.0,592690.0,7037,iron,NF,C,586109,586109,584480,585394,584481,587042,585910,585910,587042,128
