acc_sum,block,block_c,condition,correct,correct_response,datetime,endtime,flanker,jitter,project,response,response_test_buffer_response,response_test_target_response,response_time,response_time_test_buffer_response,response_time_test_target_response,row_sel,session_number,start_end,starttime,subject_id,target,task,task_vers,time_test_buffer,time_test_buffer_response,time_test_constants,time_test_flanker,time_test_jitter,time_test_logger,time_test_target,time_test_target_response,time_test_variables,trial
0,prac,1,inc,0,m,Thu Apr 03 2025 13:05:03 GMT-0500 (Central Daylight Time),176640.80000001192,raisin,1100,I,z,,,590,,,12,1,2990.800000011921,173650.0,7113,cobalt,NF,C,,,,,,,,,,1
1,prac,1,inc,1,z,Thu Apr 03 2025 13:05:03 GMT-0500 (Central Daylight Time),179956.60000002384,iron,900,I,z,,,1096,,,6,1,3295.0,176661.60000002384,7113,pear,NF,C,,,,,,,,,,2
2,prac,1,inc,1,z,Thu Apr 03 2025 13:05:03 GMT-0500 (Central Daylight Time),183354.90000003576,cobalt,1100,I,z,,,980,,,4,1,3373.0,179981.90000003576,7113,raisin,NF,C,,,,,,,,,,3
2,prac,1,inc,0,m,Thu Apr 03 2025 13:05:03 GMT-0500 (Central Daylight Time),186287.0,plum,1100,I,z,,,502,,,16,1,2907.699999988079,183379.30000001192,7113,lead,NF,C,,,,,,,,,,4
3,prac,1,con,1,z,Thu Apr 03 2025 13:05:03 GMT-0500 (Central Daylight Time),189118.90000003576,lime,800,I,z,,,702,,,5,1,2805.800000011921,186313.10000002384,7113,lime,NF,C,,,,,,,,,,5
4,prac,1,inc,1,z,Thu Apr 03 2025 13:05:03 GMT-0500 (Central Daylight Time),192451.80000001192,lead,1100,I,z,,,921,,,8,1,3326.100000023842,189125.69999998808,7113,plum,NF,C,,,,,,,,,,6
5,prac,1,con,1,m,Thu Apr 03 2025 13:05:03 GMT-0500 (Central Daylight Time),195484.10000002384,zinc,1000,I,m,,,704,,,15,1,3009.300000011921,192474.80000001192,7113,zinc,NF,C,,,,,,,,,,7
6,prac,1,con,1,m,Thu Apr 03 2025 13:05:03 GMT-0500 (Central Daylight Time),198098.90000003576,bronze,800,I,m,,,494,,,9,1,2592.5,195506.40000003576,7113,bronze,NF,C,,,,,,,,,,8
7,prac,1,con,1,z,Thu Apr 03 2025 13:05:03 GMT-0500 (Central Daylight Time),200865.90000003576,banana,800,I,z,,,657,,,1,1,2761.300000011921,198104.60000002384,7113,banana,NF,C,,,,,,,,,,9
8,prac,1,inc,1,z,Thu Apr 03 2025 13:05:03 GMT-0500 (Central Daylight Time),203798.0,copper,900,I,z,,,711,,,2,1,2908.5,200889.5,7113,cherry,NF,C,,,,,,,,,,10
9,prac,1,con,1,z,Thu Apr 03 2025 13:05:03 GMT-0500 (Central Daylight Time),206563.90000003576,kiwi,1000,I,z,,,446,,,7,1,2739.5,203824.40000003576,7113,kiwi,NF,C,,,,,,,,,,11
10,prac,1,con,1,m,Thu Apr 03 2025 13:05:03 GMT-0500 (Central Daylight Time),209296.40000003576,silver,1000,I,m,,,401,,,11,1,2709.2000000476837,206587.19999998808,7113,silver,NF,C,,,,,,,,,,12
11,prac,1,inc,1,m,Thu Apr 03 2025 13:05:03 GMT-0500 (Central Daylight Time),212178.5,pear,900,I,m,,,664,,,14,1,2858.699999988079,209319.80000001192,7113,iron,NF,C,,,,,,,,,,13
12,prac,1,con,1,z,Thu Apr 03 2025 13:05:03 GMT-0500 (Central Daylight Time),215111.0,orange,1000,I,z,,,602,,,3,1,2909.099999964237,212201.90000003576,7113,orange,NF,C,,,,,,,,,,14
13,prac,1,con,1,m,Thu Apr 03 2025 13:05:03 GMT-0500 (Central Daylight Time),217993.40000003576,gold,800,I,m,,,757,,,13,1,2857.600000023842,215135.80000001192,7113,gold,NF,C,,,,,,,,,,15
14,prac,1,inc,1,m,Thu Apr 03 2025 13:05:03 GMT-0500 (Central Daylight Time),220842.40000003576,cherry,900,I,m,,,616,,,10,1,2826.0,218016.40000003576,7113,copper,NF,C,,,,,,,,,,16
1,test,1,inc,1,z,Thu Apr 03 2025 13:05:03 GMT-0500 (Central Daylight Time),240586.19999998808,iron,900,I,z,z,None,608,393.0,215.0,62,1,2046.2999999523163,238539.90000003576,7113,plum,NF,C,232479,232479,230832,231746,230834,232878,232263,232263,232878,1
2,test,1,inc,1,z,Thu Apr 03 2025 13:05:03 GMT-0500 (Central Daylight Time),242802.10000002384,silver,1000,I,z,z,None,659,460.0,199.0,31,1,2192.0,240610.10000002384,7113,raisin,NF,C,234628,234628,232902,233912,232904,235094,234428,234428,235094,2
3,test,1,con,1,m,Thu Apr 03 2025 13:05:03 GMT-0500 (Central Daylight Time),244867.80000001192,silver,900,I,m,m,None,606,392.0,214.0,82,1,2044.300000011921,242823.5,7113,silver,NF,C,236760,236760,235116,236028,235118,237160,236545,236545,237160,3
4,test,1,inc,1,z,Thu Apr 03 2025 13:05:03 GMT-0500 (Central Daylight Time),246950.5,silver,1000,I,z,z,None,528,314.0,214.0,7,1,2061.5,244889.0,7113,banana,NF,C,238926,238926,237181,238194,237183,239243,238711,238711,239243,4
5,test,1,inc,1,m,Thu Apr 03 2025 13:05:03 GMT-0500 (Central Daylight Time),249049.90000003576,orange,1000,I,m,m,None,534,335.0,199.0,95,1,2077.5,246972.40000003576,7113,cobalt,NF,C,240993,240993,239264,240276,239266,241342,240793,240793,241342,5
6,test,1,con,1,m,Thu Apr 03 2025 13:05:03 GMT-0500 (Central Daylight Time),251565.80000001192,gold,1100,I,m,m,None,854,639.0,215.0,100,1,2494.5,249071.30000001192,7113,gold,NF,C,243209,243209,241363,242476,241365,243858,242992,242993,243858,6
7,test,1,con,1,m,Thu Apr 03 2025 13:05:03 GMT-0500 (Central Daylight Time),253398.30000001192,gold,800,I,m,m,None,479,280.0,199.0,97,1,1812.0,251586.30000001192,7113,gold,NF,C,245408,245408,243878,244692,243881,245691,245208,245208,245690,7
8,test,1,inc,1,m,Thu Apr 03 2025 13:05:03 GMT-0500 (Central Daylight Time),255681.10000002384,plum,1100,I,m,m,None,628,429.0,199.0,128,1,2261.600000023842,253419.5,7113,lead,NF,C,247539,247539,245712,246824,245713,247973,247340,247340,247973,8
9,test,1,con,1,m,Thu Apr 03 2025 13:05:03 GMT-0500 (Central Daylight Time),257546.90000003576,bronze,900,I,m,m,None,399,184.0,215.0,66,1,1843.2000000476837,255703.69999998808,7113,bronze,NF,C,249640,249640,247996,248907,247997,249839,249424,249424,249839,9
10,test,1,inc,1,z,Thu Apr 03 2025 13:05:03 GMT-0500 (Central Daylight Time),259729.69999998808,cobalt,1100,I,z,z,None,526,327.0,199.0,8,1,2162.099999964237,257567.60000002384,7113,banana,NF,C,251689,251689,249860,250973,249861,252022,251490,251490,252022,10
11,test,1,inc,1,z,Thu Apr 03 2025 13:05:03 GMT-0500 (Central Daylight Time),261945.19999998808,lead,1100,I,z,z,None,558,359.0,199.0,64,1,2193.099999964237,259752.10000002384,7113,plum,NF,C,253872,253872,252044,253155,252046,254237,253672,253672,254237,11
12,test,1,inc,1,m,Thu Apr 03 2025 13:05:03 GMT-0500 (Central Daylight Time),263861.5,cherry,900,I,m,m,None,471,256.0,215.0,86,1,1903.3999999761581,261958.10000002384,7113,silver,NF,C,255888,255888,254250,255155,254251,256154,255672,255672,256154,12
13,test,1,inc,1,z,Thu Apr 03 2025 13:05:03 GMT-0500 (Central Daylight Time),266211.0,lead,1100,I,z,z,None,683,484.0,199.0,56,1,2328.300000011921,263882.6999999881,7113,kiwi,NF,C,258003,258003,256175,257287,256177,258503,257804,257804,258503,13
14,test,1,inc,1,m,Thu Apr 03 2025 13:05:03 GMT-0500 (Central Daylight Time),268177.0,cherry,900,I,m,m,None,509,294.0,215.0,78,1,1945.300000011921,266231.6999999881,7113,copper,NF,C,260170,260170,258524,259437,258526,260469,259953,259954,260469,14
14,test,1,inc,0,z,Thu Apr 03 2025 13:05:03 GMT-0500 (Central Daylight Time),270176.3000000119,iron,900,I,m,m,None,536,337.0,199.0,54,1,1977.800000011921,268198.5,7113,kiwi,NF,C,262119,262119,260491,261403,260492,262468,261920,261920,262468,15
15,test,1,con,1,z,Thu Apr 03 2025 13:05:03 GMT-0500 (Central Daylight Time),272242.3000000119,orange,800,I,z,z,None,708,509.0,199.0,17,1,2044.8999999761581,270197.40000003576,7113,orange,NF,C,264018,264019,262489,263302,262490,264534,263819,263819,264534,16
16,test,1,con,1,z,Thu Apr 03 2025 13:05:03 GMT-0500 (Central Daylight Time),274391.60000002384,kiwi,1100,I,z,z,None,486,271.0,215.0,52,1,2126.400000035763,272265.1999999881,7113,kiwi,NF,C,266401,266401,264557,265668,264559,266684,266185,266185,266684,17
17,test,1,con,1,m,Thu Apr 03 2025 13:05:03 GMT-0500 (Central Daylight Time),276524.1999999881,zinc,900,I,m,m,None,665,466.0,199.0,114,1,2111.399999976158,274412.8000000119,7113,zinc,NF,C,268334,268334,266705,267617,266707,268816,268134,268134,268816,18
17,test,1,inc,0,m,Thu Apr 03 2025 13:05:03 GMT-0500 (Central Daylight Time),278906.90000003576,plum,1100,I,z,z,None,716,501.0,215.0,120,1,2361.900000035763,276545.0,7113,zinc,NF,C,270683,270683,268837,269950,268839,271199,270467,270467,271199,19
17,test,1,con,0,z,Thu Apr 03 2025 13:05:03 GMT-0500 (Central Daylight Time),281072.60000002384,pear,1100,I,m,m,None,510,311.0,199.0,44,1,2145.300000011921,278927.3000000119,7113,pear,NF,C,273049,273049,271219,272332,271220,273365,272849,272849,273365,20
18,test,1,con,1,z,Thu Apr 03 2025 13:05:03 GMT-0500 (Central Daylight Time),283638.40000003576,raisin,1000,I,z,z,None,1012,813.0,199.0,27,1,2544.5,281093.90000003576,7113,raisin,NF,C,275115,275115,273386,274398,273388,275930,274915,274915,275930,21
19,test,1,con,1,m,Thu Apr 03 2025 13:05:03 GMT-0500 (Central Daylight Time),285787.90000003576,lead,1100,I,m,m,None,491,292.0,199.0,124,1,2123.2000000476837,283664.6999999881,7113,lead,NF,C,277780,277780,275957,277064,275958,278080,277581,277581,278080,22
20,test,1,con,1,z,Thu Apr 03 2025 13:05:03 GMT-0500 (Central Daylight Time),288103.3000000119,cherry,900,I,z,z,None,861,662.0,199.0,10,1,2292.699999988079,285810.60000002384,7113,cherry,NF,C,279730,279730,278103,279014,278104,280395,279530,279530,280395,23
21,test,1,con,1,m,Thu Apr 03 2025 13:05:03 GMT-0500 (Central Daylight Time),290119.6999999881,lead,1000,I,m,m,None,469,270.0,199.0,123,1,2004.7999999523163,288114.90000003576,7113,lead,NF,C,282129,282129,280407,281413,280408,282412,281929,281929,282412,24
22,test,1,inc,1,z,Thu Apr 03 2025 13:05:03 GMT-0500 (Central Daylight Time),292169.0,gold,800,I,z,z,None,693,494.0,199.0,37,1,2029.0999999642372,290139.90000003576,7113,lime,NF,C,283962,283962,282432,283246,282434,284461,283762,283762,284461,25
23,test,1,inc,1,m,Thu Apr 03 2025 13:05:03 GMT-0500 (Central Daylight Time),294484.8000000119,raisin,1100,I,m,m,None,664,465.0,199.0,80,1,2296.199999988079,292188.60000002384,7113,copper,NF,C,286311,286311,284481,285595,284482,286777,286111,286111,286777,26
24,test,1,con,1,m,Thu Apr 03 2025 13:05:03 GMT-0500 (Central Daylight Time),296484.10000002384,iron,800,I,m,m,None,639,424.0,215.0,105,1,1977.4000000357628,294506.6999999881,7113,iron,NF,C,288344,288344,286799,287610,286800,288776,288128,288128,288776,27
25,test,1,inc,1,m,Thu Apr 03 2025 13:05:03 GMT-0500 (Central Daylight Time),298716.60000002384,raisin,1100,I,m,m,None,580,365.0,215.0,96,1,2212.400000035763,296504.1999999881,7113,cobalt,NF,C,290643,290643,288796,289910,288798,291009,290427,290427,291009,28
26,test,1,inc,1,m,Thu Apr 03 2025 13:05:03 GMT-0500 (Central Daylight Time),300699.5,banana,800,I,m,m,None,623,408.0,215.0,93,1,1961.8999999761581,298737.60000002384,7113,cobalt,NF,C,292576,292576,291030,291843,291032,292992,292360,292360,292991,29
27,test,1,inc,1,z,Thu Apr 03 2025 13:05:03 GMT-0500 (Central Daylight Time),302949.0,zinc,1000,I,z,z,None,697,498.0,199.0,39,1,2228.899999976158,300720.10000002384,7113,lime,NF,C,294742,294742,293012,294025,293014,295241,294542,294542,295241,30
28,test,1,con,1,m,Thu Apr 03 2025 13:05:03 GMT-0500 (Central Daylight Time),305047.90000003576,silver,1000,I,m,m,None,545,345.0,200.0,83,1,2078.900000035763,302969.0,7113,silver,NF,C,296991,296991,295261,296275,295263,297340,296790,296790,297340,31
29,test,1,inc,1,m,Thu Apr 03 2025 13:05:03 GMT-0500 (Central Daylight Time),307180.8000000119,lime,800,I,m,m,None,772,557.0,215.0,125,1,2112.600000023842,305068.1999999881,7113,lead,NF,C,298907,298907,297360,298174,297362,299473,298691,298691,299473,32
30,test,1,inc,1,z,Thu Apr 03 2025 13:05:03 GMT-0500 (Central Daylight Time),309280.10000002384,copper,900,I,z,z,None,644,445.0,199.0,30,1,2079.100000023842,307201.0,7113,raisin,NF,C,301123,301123,299493,300407,299495,301572,300923,300923,301572,33
31,test,1,inc,1,m,Thu Apr 03 2025 13:05:03 GMT-0500 (Central Daylight Time),311496.10000002384,pear,900,I,m,m,None,761,562.0,199.0,102,1,2193.699999988079,309302.40000003576,7113,gold,NF,C,303222,303222,301594,302506,301596,303788,303022,303022,303788,34
32,test,1,inc,1,m,Thu Apr 03 2025 13:05:03 GMT-0500 (Central Daylight Time),313512.1999999881,banana,800,I,m,m,None,652,437.0,215.0,77,1,1995.5,311516.6999999881,7113,copper,NF,C,305355,305355,303809,304622,303810,305804,305139,305139,305804,35
33,test,1,inc,1,z,Thu Apr 03 2025 13:05:03 GMT-0500 (Central Daylight Time),315727.90000003576,cobalt,1100,I,z,z,None,560,345.0,215.0,16,1,2195.300000011921,313532.60000002384,7113,cherry,NF,C,307671,307671,305825,306938,305827,308020,307455,307455,308020,36
34,test,1,con,1,z,Thu Apr 03 2025 13:05:03 GMT-0500 (Central Daylight Time),318077.0,pear,900,I,z,z,None,888,673.0,215.0,42,1,2328.800000011921,315748.1999999881,7113,pear,NF,C,309687,309687,308040,308954,308042,310369,309470,309471,310369,37
35,test,1,inc,1,z,Thu Apr 03 2025 13:05:03 GMT-0500 (Central Daylight Time),320209.60000002384,copper,900,I,z,z,None,676,476.0,200.0,6,1,2112.199999988079,318097.40000003576,7113,banana,NF,C,312019,312019,310389,311303,310392,312502,311818,311818,312502,38
36,test,1,con,1,m,Thu Apr 03 2025 13:05:03 GMT-0500 (Central Daylight Time),322659.10000002384,iron,1000,I,m,m,None,882,683.0,199.0,107,1,2429.0,320230.10000002384,7113,iron,NF,C,314252,314252,312522,313536,312524,314951,314052,314052,314951,39
37,test,1,con,1,m,Thu Apr 03 2025 13:05:03 GMT-0500 (Central Daylight Time),324691.6999999881,cobalt,900,I,m,m,None,575,375.0,200.0,90,1,2011.0999999642372,322680.60000002384,7113,cobalt,NF,C,316601,316601,314973,315885,314974,316984,316400,316400,316984,40
38,test,1,inc,1,z,Thu Apr 03 2025 13:05:03 GMT-0500 (Central Daylight Time),326708.40000003576,gold,800,I,z,z,None,665,466.0,199.0,53,1,1998.4000000357628,324710.0,7113,kiwi,NF,C,318534,318534,317002,317819,317003,319001,318334,318334,319000,41
39,test,1,con,1,z,Thu Apr 03 2025 13:05:03 GMT-0500 (Central Daylight Time),329090.3000000119,pear,1000,I,z,z,None,825,610.0,215.0,43,1,2361.899999976158,326728.40000003576,7113,pear,NF,C,320766,320766,319020,320033,319022,321382,320551,320551,321382,42
40,test,1,con,1,m,Thu Apr 03 2025 13:05:03 GMT-0500 (Central Daylight Time),331256.3000000119,iron,1100,I,m,m,None,510,311.0,199.0,108,1,2141.899999976158,329114.40000003576,7113,iron,NF,C,323232,323233,321406,322517,321408,323548,323033,323033,323548,43
41,test,1,con,1,z,Thu Apr 03 2025 13:05:03 GMT-0500 (Central Daylight Time),333638.90000003576,lime,1000,I,z,z,None,828,629.0,199.0,35,1,2361.600000023842,331277.3000000119,7113,lime,NF,C,325298,325299,323569,324582,323570,325931,325099,325099,325931,44
42,test,1,inc,1,m,Thu Apr 03 2025 13:05:03 GMT-0500 (Central Daylight Time),335805.10000002384,pear,900,I,m,m,None,713,498.0,215.0,118,1,2146.100000023842,333659.0,7113,zinc,NF,C,327597,327598,325951,326865,325953,328097,327382,327382,328097,45
43,test,1,inc,1,z,Thu Apr 03 2025 13:05:03 GMT-0500 (Central Daylight Time),337987.40000003576,gold,800,I,z,z,None,816,617.0,199.0,61,1,2162.800000011921,335824.60000002384,7113,plum,NF,C,329647,329647,328117,328931,328119,330280,329447,329447,330279,46
44,test,1,inc,1,z,Thu Apr 03 2025 13:05:03 GMT-0500 (Central Daylight Time),339953.40000003576,bronze,800,I,z,z,None,609,410.0,199.0,21,1,1943.800000011921,338009.60000002384,7113,orange,NF,C,331830,331830,330302,331113,330303,332245,331630,331630,332245,47
45,test,1,con,1,z,Thu Apr 03 2025 13:05:03 GMT-0500 (Central Daylight Time),342186.0,raisin,800,I,z,z,None,875,676.0,199.0,25,1,2211.0,339975.0,7113,raisin,NF,C,333796,333796,332267,333079,332268,334478,333596,333596,334478,48
46,test,1,con,1,z,Thu Apr 03 2025 13:05:03 GMT-0500 (Central Daylight Time),344318.60000002384,lime,1100,I,z,z,None,472,272.0,200.0,36,1,2112.5,342206.10000002384,7113,lime,NF,C,336328,336328,334498,335612,334500,336611,336128,336128,336611,49
47,test,1,inc,1,m,Thu Apr 03 2025 13:05:03 GMT-0500 (Central Daylight Time),346684.40000003576,plum,1100,I,m,m,None,706,507.0,199.0,104,1,2345.100000023842,344339.3000000119,7113,gold,NF,C,338461,338461,336631,337745,336633,338977,338261,338261,338976,50
48,test,1,con,1,z,Thu Apr 03 2025 13:05:03 GMT-0500 (Central Daylight Time),349250.1999999881,orange,1100,I,z,z,None,899,700.0,199.0,20,1,2545.2999999523163,346704.90000003576,7113,orange,NF,C,340827,340827,338997,340111,338998,341542,340627,340627,341542,51
49,test,1,inc,1,m,Thu Apr 03 2025 13:05:03 GMT-0500 (Central Daylight Time),351532.6999999881,plum,1100,I,m,m,None,630,415.0,215.0,112,1,2261.099999964237,349271.60000002384,7113,iron,NF,C,343409,343409,341564,342677,341565,343825,343193,343193,343825,52
50,test,1,con,1,z,Thu Apr 03 2025 13:05:03 GMT-0500 (Central Daylight Time),354098.90000003576,plum,1100,I,z,z,None,909,709.0,200.0,60,1,2546.5,351552.40000003576,7113,plum,NF,C,345675,345675,343844,344959,343846,346391,345475,345475,346391,53
51,test,1,inc,1,m,Thu Apr 03 2025 13:05:03 GMT-0500 (Central Daylight Time),356248.5,orange,1000,I,m,m,None,586,387.0,199.0,87,1,2129.300000011921,354119.1999999881,7113,silver,NF,C,348140,348141,346411,347424,346413,348541,347941,347941,348540,54
52,test,1,inc,1,z,Thu Apr 03 2025 13:05:03 GMT-0500 (Central Daylight Time),358413.8000000119,iron,900,I,z,z,None,712,497.0,215.0,38,1,2143.399999976158,356270.40000003576,7113,lime,NF,C,350207,350207,348562,349474,348564,350706,349990,349991,350706,55
53,test,1,inc,1,z,Thu Apr 03 2025 13:05:03 GMT-0500 (Central Daylight Time),360580.6999999881,copper,900,I,z,z,None,715,516.0,199.0,22,1,2146.599999964237,358434.10000002384,7113,orange,NF,C,352356,352356,350726,351640,350728,352873,352156,352156,352873,56
54,test,1,inc,1,m,Thu Apr 03 2025 13:05:03 GMT-0500 (Central Daylight Time),362679.1999999881,lime,800,I,m,m,None,745,545.0,200.0,109,1,2077.199999988079,360602.0,7113,iron,NF,C,354423,354423,352894,353706,352896,354971,354222,354222,354971,57
55,test,1,inc,1,z,Thu Apr 03 2025 13:05:03 GMT-0500 (Central Daylight Time),365028.6999999881,lead,1100,I,z,z,None,698,499.0,199.0,48,1,2329.399999976158,362699.3000000119,7113,pear,NF,C,356821,356821,354991,356105,354993,357321,356621,356621,357321,58
56,test,1,inc,1,m,Thu Apr 03 2025 13:05:03 GMT-0500 (Central Daylight Time),367127.90000003576,lime,800,I,m,m,None,745,545.0,200.0,117,1,2078.300000011921,365049.60000002384,7113,zinc,NF,C,358871,358871,357342,358154,357343,359420,358670,358670,359420,59
57,test,1,inc,1,z,Thu Apr 03 2025 13:05:03 GMT-0500 (Central Daylight Time),369310.40000003576,zinc,1000,I,z,z,None,621,422.0,199.0,47,1,2163.2000000476837,367147.1999999881,7113,pear,NF,C,361170,361170,359439,360452,359441,361602,360970,360970,361602,60
58,test,1,con,1,z,Thu Apr 03 2025 13:05:03 GMT-0500 (Central Daylight Time),371209.6999999881,banana,900,I,z,z,None,451,251.0,200.0,2,1,1885.199999988079,369324.5,7113,banana,NF,C,363236,363236,361617,362519,361617,363502,363036,363036,363502,61
59,test,1,inc,1,z,Thu Apr 03 2025 13:05:03 GMT-0500 (Central Daylight Time),373308.90000003576,silver,1000,I,z,z,None,547,348.0,199.0,23,1,2077.5,371231.40000003576,7113,orange,NF,C,365252,365252,363523,364536,363525,365601,365053,365053,365601,62
59,test,1,con,0,m,Thu Apr 03 2025 13:05:03 GMT-0500 (Central Daylight Time),375475.0,copper,1100,I,z,z,None,500,301.0,199.0,76,1,2143.599999964237,373331.40000003576,7113,copper,NF,C,367451,367451,365623,366735,365625,367767,367251,367251,367767,63
60,test,1,con,1,z,Thu Apr 03 2025 13:05:03 GMT-0500 (Central Daylight Time),377607.6999999881,pear,800,I,z,z,None,777,562.0,215.0,41,1,2113.199999988079,375494.5,7113,pear,NF,C,369334,369334,367787,368601,367788,369900,369117,369118,369900,64
61,test,1,con,1,z,Thu Apr 03 2025 13:05:03 GMT-0500 (Central Daylight Time),379656.10000002384,raisin,900,I,z,z,None,584,384.0,200.0,26,1,2029.199999988079,377626.90000003576,7113,raisin,NF,C,371550,371550,369919,370833,369920,371948,371349,371349,371948,65
62,test,1,con,1,m,Thu Apr 03 2025 13:05:03 GMT-0500 (Central Daylight Time),381473.5,copper,800,I,m,m,None,468,269.0,199.0,73,1,1811.199999988079,379662.3000000119,7113,copper,NF,C,373483,373483,371954,372767,371955,373766,373283,373283,373765,66
63,test,1,inc,1,z,Thu Apr 03 2025 13:05:03 GMT-0500 (Central Daylight Time),383522.40000003576,iron,900,I,z,z,None,584,385.0,199.0,46,1,2028.300000011921,381494.10000002384,7113,pear,NF,C,375415,375415,373786,374699,373788,375815,375216,375216,375814,67
64,test,1,con,1,m,Thu Apr 03 2025 13:05:03 GMT-0500 (Central Daylight Time),385354.60000002384,silver,800,I,m,m,None,474,259.0,215.0,81,1,1812.199999988079,383542.40000003576,7113,silver,NF,C,377380,377380,375834,376648,375836,377647,377165,377165,377647,68
65,test,1,inc,1,z,Thu Apr 03 2025 13:05:03 GMT-0500 (Central Daylight Time),387704.1999999881,lead,1100,I,z,z,None,711,512.0,199.0,40,1,2338.899999976158,385365.3000000119,7113,lime,NF,C,379480,379480,377657,378764,377658,379996,379281,379281,379996,69
66,test,1,con,1,z,Thu Apr 03 2025 13:05:03 GMT-0500 (Central Daylight Time),389870.10000002384,banana,800,I,z,z,None,813,614.0,199.0,1,1,2144.800000011921,387725.3000000119,7113,banana,NF,C,381546,381546,380017,380832,380019,382162,381347,381347,382162,70
67,test,1,inc,1,m,Thu Apr 03 2025 13:05:03 GMT-0500 (Central Daylight Time),392202.90000003576,raisin,1100,I,m,m,None,675,476.0,199.0,88,1,2312.7000000476837,389890.1999999881,7113,silver,NF,C,384012,384012,382182,383296,382184,384495,383813,383813,384495,71
68,test,1,con,1,z,Thu Apr 03 2025 13:05:03 GMT-0500 (Central Daylight Time),394318.90000003576,cherry,800,I,z,z,None,761,546.0,215.0,9,1,2096.600000023842,392222.3000000119,7113,cherry,NF,C,386062,386062,384514,385329,384516,386611,385846,385846,386611,72
69,test,1,con,1,z,Thu Apr 03 2025 13:05:03 GMT-0500 (Central Daylight Time),396468.6999999881,lime,800,I,z,z,None,798,599.0,199.0,33,1,2130.7999999523163,394337.90000003576,7113,lime,NF,C,388161,388161,386630,387445,386631,388761,387961,387961,388761,73
70,test,1,con,1,z,Thu Apr 03 2025 13:05:03 GMT-0500 (Central Daylight Time),398767.40000003576,plum,1000,I,z,z,None,736,521.0,215.0,59,1,2278.100000023842,396489.3000000119,7113,plum,NF,C,390527,390527,388781,389794,388783,391060,390311,390311,391059,74
71,test,1,inc,1,z,Thu Apr 03 2025 13:05:03 GMT-0500 (Central Daylight Time),400850.0,gold,800,I,z,z,None,725,526.0,199.0,45,1,2061.899999976158,398788.10000002384,7113,pear,NF,C,392610,392610,391080,391894,391082,393142,392410,392410,393142,75
72,test,1,con,1,z,Thu Apr 03 2025 13:05:03 GMT-0500 (Central Daylight Time),402949.1999999881,orange,900,I,z,z,None,638,423.0,215.0,18,1,2078.2999999523163,400870.90000003576,7113,orange,NF,C,394809,394809,393163,394076,393165,395241,394593,394593,395241,76
73,test,1,inc,1,z,Thu Apr 03 2025 13:05:03 GMT-0500 (Central Daylight Time),405331.90000003576,zinc,1000,I,z,z,None,823,608.0,215.0,63,1,2360.7000000476837,402971.1999999881,7113,plum,NF,C,397008,397008,395263,396275,395265,397624,396792,396792,397624,77
74,test,1,con,1,z,Thu Apr 03 2025 13:05:03 GMT-0500 (Central Daylight Time),407447.10000002384,cherry,1000,I,z,z,None,552,337.0,215.0,11,1,2097.0,405350.10000002384,7113,cherry,NF,C,399389,399389,397642,398658,397643,399739,399174,399174,399739,78
75,test,1,con,1,m,Thu Apr 03 2025 13:05:03 GMT-0500 (Central Daylight Time),409297.40000003576,bronze,800,I,m,m,None,501,286.0,215.0,65,1,1844.6000000238419,407452.8000000119,7113,bronze,NF,C,401290,401290,399745,400557,399745,401589,401074,401074,401589,79
76,test,1,inc,1,m,Thu Apr 03 2025 13:05:03 GMT-0500 (Central Daylight Time),411313.3000000119,pear,900,I,m,m,None,560,361.0,199.0,126,1,1996.199999988079,409317.10000002384,7113,lead,NF,C,403239,403239,401609,402524,401611,403605,403040,403040,403605,80
77,test,1,con,1,m,Thu Apr 03 2025 13:05:03 GMT-0500 (Central Daylight Time),413196.0,cobalt,800,I,m,m,None,524,325.0,199.0,89,1,1862.800000011921,411333.1999999881,7113,cobalt,NF,C,405155,405155,403625,404439,403627,405488,404956,404956,405488,81
78,test,1,con,1,m,Thu Apr 03 2025 13:05:03 GMT-0500 (Central Daylight Time),415228.6999999881,gold,1000,I,m,m,None,480,265.0,215.0,99,1,2012.7999999523163,413215.90000003576,7113,gold,NF,C,407255,407255,405508,406522,405510,407521,407039,407039,407521,82
79,test,1,con,1,z,Thu Apr 03 2025 13:05:03 GMT-0500 (Central Daylight Time),417428.10000002384,plum,800,I,z,z,None,840,641.0,199.0,57,1,2181.0,415247.10000002384,7113,plum,NF,C,409071,409071,407539,408355,407540,409720,408871,408871,409720,83
80,test,1,inc,1,m,Thu Apr 03 2025 13:05:03 GMT-0500 (Central Daylight Time),419577.1999999881,kiwi,1000,I,m,m,None,593,394.0,199.0,119,1,2128.099999964237,417449.10000002384,7113,zinc,NF,C,411470,411470,409741,410754,409743,411869,411270,411270,411869,84
81,test,1,inc,1,z,Thu Apr 03 2025 13:05:03 GMT-0500 (Central Daylight Time),421943.1999999881,cobalt,1100,I,z,z,None,704,505.0,199.0,32,1,2345.899999976158,419597.3000000119,7113,raisin,NF,C,413719,413719,411889,413003,411890,414235,413520,413520,414235,85
82,test,1,inc,1,m,Thu Apr 03 2025 13:05:03 GMT-0500 (Central Daylight Time),424008.8000000119,lime,800,I,m,m,None,701,486.0,215.0,101,1,2046.300000011921,421962.5,7113,gold,NF,C,415802,415802,414255,415069,414256,416301,415586,415586,416301,86
83,test,1,con,1,m,Thu Apr 03 2025 13:05:03 GMT-0500 (Central Daylight Time),426508.6999999881,cobalt,1100,I,m,m,None,831,616.0,215.0,92,1,2479.099999964237,424029.60000002384,7113,cobalt,NF,C,418168,418168,416322,417435,416323,418801,417952,417952,418801,87
84,test,1,inc,1,m,Thu Apr 03 2025 13:05:03 GMT-0500 (Central Daylight Time),428641.0,banana,800,I,m,m,None,768,569.0,199.0,85,1,2113.599999964237,426527.40000003576,7113,silver,NF,C,420350,420351,418819,419634,418820,420933,420151,420151,420933,88
85,test,1,con,1,m,Thu Apr 03 2025 13:05:03 GMT-0500 (Central Daylight Time),430723.60000002384,copper,1000,I,m,m,None,523,308.0,215.0,75,1,2063.0,428660.60000002384,7113,copper,NF,C,422699,422700,420953,421967,420954,423016,422483,422484,423016,89
86,test,1,con,1,m,Thu Apr 03 2025 13:05:03 GMT-0500 (Central Daylight Time),432789.40000003576,cobalt,1000,I,m,m,None,508,309.0,199.0,91,1,2046.5,430742.90000003576,7113,cobalt,NF,C,424765,424765,423035,424049,423036,425082,424566,424566,425081,90
87,test,1,con,1,m,Thu Apr 03 2025 13:05:03 GMT-0500 (Central Daylight Time),434939.10000002384,zinc,1100,I,m,m,None,482,283.0,199.0,116,1,2129.199999988079,432809.90000003576,7113,zinc,NF,C,426932,426932,425102,426216,425104,427231,426732,426732,427231,91
88,test,1,con,1,z,Thu Apr 03 2025 13:05:03 GMT-0500 (Central Daylight Time),437071.5,kiwi,1000,I,z,z,None,570,371.0,199.0,51,1,2113.800000011921,434957.6999999881,7113,kiwi,NF,C,428981,428981,427250,428265,427250,429364,428781,428781,429364,92
89,test,1,inc,1,z,Thu Apr 03 2025 13:05:03 GMT-0500 (Central Daylight Time),439236.5,copper,900,I,z,z,None,704,505.0,199.0,14,1,2142.5,437094.0,7113,cherry,NF,C,431013,431013,429386,430297,429388,431529,430814,430814,431529,93
90,test,1,con,1,m,Thu Apr 03 2025 13:05:03 GMT-0500 (Central Daylight Time),441153.40000003576,lead,900,I,m,m,None,476,277.0,199.0,122,1,1911.4000000357628,439242.0,7113,lead,NF,C,433163,433163,431534,432445,431534,433446,432963,432963,433445,94
91,test,1,con,1,z,Thu Apr 03 2025 13:05:03 GMT-0500 (Central Daylight Time),442952.90000003576,kiwi,800,I,z,z,None,435,236.0,199.0,49,1,1779.6000000238419,441173.3000000119,7113,kiwi,NF,C,434996,434996,433465,434279,433467,435245,434796,434796,435245,95
91,test,1,inc,0,m,Thu Apr 03 2025 13:05:03 GMT-0500 (Central Daylight Time),445118.8000000119,cherry,900,I,z,z,None,703,488.0,215.0,94,1,2145.100000023842,442973.6999999881,7113,cobalt,NF,C,436912,436912,435266,436179,435267,437411,436695,436696,437411,96
92,test,1,con,1,m,Thu Apr 03 2025 13:05:03 GMT-0500 (Central Daylight Time),447168.40000003576,zinc,1000,I,m,m,None,487,287.0,200.0,115,1,2028.7000000476837,445139.6999999881,7113,zinc,NF,C,439161,439161,437432,438445,437433,439461,438960,438960,439460,97
93,test,1,con,1,z,Thu Apr 03 2025 13:05:03 GMT-0500 (Central Daylight Time),449167.5,orange,1000,I,z,z,None,436,221.0,215.0,19,1,1978.0999999642372,447189.40000003576,7113,orange,NF,C,441227,441227,439481,440494,439483,441460,441011,441011,441459,98
94,test,1,con,1,z,Thu Apr 03 2025 13:05:03 GMT-0500 (Central Daylight Time),451466.8000000119,kiwi,900,I,z,z,None,840,641.0,199.0,50,1,2278.800000011921,449188.0,7113,kiwi,NF,C,443111,443111,441480,442394,441482,443759,442910,442910,443759,99
95,test,1,con,1,z,Thu Apr 03 2025 13:05:03 GMT-0500 (Central Daylight Time),453582.90000003576,banana,1100,I,z,z,None,462,263.0,199.0,4,1,2096.400000035763,451486.5,7113,banana,NF,C,445609,445609,443779,444893,443780,445875,445409,445409,445875,100
96,test,1,inc,1,m,Thu Apr 03 2025 13:05:03 GMT-0500 (Central Daylight Time),455715.6999999881,kiwi,1000,I,m,m,None,566,367.0,199.0,103,1,2112.5,453603.1999999881,7113,gold,NF,C,447625,447625,445895,446908,445897,448008,447425,447425,448008,101
97,test,1,inc,1,m,Thu Apr 03 2025 13:05:03 GMT-0500 (Central Daylight Time),457830.5,pear,900,I,m,m,None,651,452.0,199.0,110,1,2094.599999964237,455735.90000003576,7113,iron,NF,C,449657,449658,448028,448940,448030,450123,449458,449458,450123,102
98,test,1,con,1,m,Thu Apr 03 2025 13:05:03 GMT-0500 (Central Daylight Time),459764.0,copper,900,I,m,m,None,482,283.0,199.0,74,1,1928.0999999642372,457835.90000003576,7113,copper,NF,C,451757,451757,450128,451040,450128,452056,451557,451557,452056,103
99,test,1,inc,1,m,Thu Apr 03 2025 13:05:03 GMT-0500 (Central Daylight Time),461846.3000000119,cherry,900,I,m,m,None,628,429.0,199.0,70,1,2062.699999988079,459783.60000002384,7113,bronze,NF,C,453706,453706,452076,452990,452077,454138,453507,453507,454138,104
100,test,1,con,1,m,Thu Apr 03 2025 13:05:03 GMT-0500 (Central Daylight Time),463679.5,lead,800,I,m,m,None,486,271.0,215.0,121,1,1821.300000011921,461858.1999999881,7113,lead,NF,C,455689,455689,454150,454956,454151,455972,455473,455473,455971,105
101,test,1,inc,1,m,Thu Apr 03 2025 13:05:03 GMT-0500 (Central Daylight Time),466095.3000000119,kiwi,1000,I,m,m,None,862,663.0,199.0,111,1,2395.5,463699.8000000119,7113,iron,NF,C,457721,457721,455992,457005,455993,458387,457522,457522,458387,106
102,test,1,inc,1,m,Thu Apr 03 2025 13:05:03 GMT-0500 (Central Daylight Time),468362.1999999881,orange,1000,I,m,m,None,702,503.0,199.0,71,1,2246.199999988079,466116.0,7113,bronze,NF,C,460137,460137,458408,459420,458410,460654,459938,459938,460654,107
103,test,1,con,1,z,Thu Apr 03 2025 13:05:03 GMT-0500 (Central Daylight Time),470577.1999999881,cherry,1100,I,z,z,None,559,344.0,215.0,12,1,2198.0,468379.1999999881,7113,cherry,NF,C,462520,462520,460671,461786,460672,462869,462304,462304,462869,108
104,test,1,inc,1,z,Thu Apr 03 2025 13:05:03 GMT-0500 (Central Daylight Time),472926.1999999881,cobalt,1100,I,z,z,None,688,489.0,199.0,24,1,2328.899999976158,470597.3000000119,7113,orange,NF,C,464719,464719,462889,464003,462890,465218,464519,464519,465218,109
105,test,1,inc,1,m,Thu Apr 03 2025 13:05:03 GMT-0500 (Central Daylight Time),475308.90000003576,kiwi,1000,I,m,m,None,822,623.0,199.0,127,1,2362.0,472946.90000003576,7113,lead,NF,C,466969,466969,465239,466252,465241,467601,466769,466769,467601,110
106,test,1,inc,1,z,Thu Apr 03 2025 13:05:03 GMT-0500 (Central Daylight Time),477491.5,bronze,800,I,z,z,None,816,617.0,199.0,13,1,2162.199999988079,475329.3000000119,7113,cherry,NF,C,469151,469151,467621,468435,467623,469784,468951,468951,469784,111
107,test,1,inc,1,m,Thu Apr 03 2025 13:05:03 GMT-0500 (Central Daylight Time),479590.8000000119,orange,1000,I,m,m,None,538,339.0,199.0,79,1,2078.100000023842,477512.6999999881,7113,copper,NF,C,471533,471533,469805,470817,469806,471883,471334,471334,471883,112
108,test,1,con,1,m,Thu Apr 03 2025 13:05:03 GMT-0500 (Central Daylight Time),481524.1999999881,zinc,800,I,m,m,None,582,383.0,199.0,113,1,1913.5999999642372,479610.60000002384,7113,zinc,NF,C,473433,473433,471903,472717,471904,473816,473233,473233,473816,113
109,test,1,inc,1,z,Thu Apr 03 2025 13:05:03 GMT-0500 (Central Daylight Time),483672.8000000119,bronze,800,I,z,z,None,785,586.0,199.0,29,1,2129.600000023842,481543.1999999881,7113,raisin,NF,C,475366,475366,473835,474649,473837,475965,475166,475166,475965,114
110,test,1,con,1,m,Thu Apr 03 2025 13:05:03 GMT-0500 (Central Daylight Time),485855.40000003576,bronze,1100,I,m,m,None,528,329.0,199.0,68,1,2162.400000035763,483693.0,7113,bronze,NF,C,477815,477815,475985,477098,475986,478148,477615,477615,478147,115
111,test,1,con,1,z,Thu Apr 03 2025 13:05:03 GMT-0500 (Central Daylight Time),488121.1999999881,plum,900,I,z,z,None,802,603.0,199.0,58,1,2243.399999976158,485877.8000000119,7113,plum,NF,C,479797,479797,478170,479081,478171,480413,479598,479598,480413,116
112,test,1,inc,1,m,Thu Apr 03 2025 13:05:03 GMT-0500 (Central Daylight Time),490520.6999999881,raisin,1100,I,m,m,None,735,536.0,199.0,72,1,2380.599999964237,488140.10000002384,7113,bronze,NF,C,482263,482263,480432,481547,480434,482813,482064,482064,482813,117
113,test,1,inc,1,m,Thu Apr 03 2025 13:05:03 GMT-0500 (Central Daylight Time),492802.90000003576,banana,800,I,m,m,None,923,724.0,199.0,69,1,2263.0,490539.90000003576,7113,bronze,NF,C,484362,484363,482832,483646,482833,485095,484163,484163,485095,118
114,test,1,con,1,m,Thu Apr 03 2025 13:05:03 GMT-0500 (Central Daylight Time),494935.8000000119,gold,900,I,m,m,None,669,454.0,215.0,98,1,2112.300000011921,492823.5,7113,gold,NF,C,486762,486762,485116,486029,485117,487228,486546,486546,487228,119
115,test,1,con,1,z,Thu Apr 03 2025 13:05:03 GMT-0500 (Central Daylight Time),497235.10000002384,lime,900,I,z,z,None,833,634.0,199.0,34,1,2278.600000023842,494956.5,7113,lime,NF,C,488878,488878,487249,488162,487249,489527,488678,488678,489527,120
116,test,1,con,1,m,Thu Apr 03 2025 13:05:03 GMT-0500 (Central Daylight Time),499317.5,silver,1100,I,m,m,None,430,231.0,199.0,84,1,2062.899999976158,497254.60000002384,7113,silver,NF,C,491377,491377,489547,490660,489548,491610,491177,491177,491610,121
117,test,1,con,1,z,Thu Apr 03 2025 13:05:03 GMT-0500 (Central Daylight Time),501367.0,banana,1000,I,z,z,None,495,296.0,199.0,3,1,2030.0,499337.0,7113,banana,NF,C,493360,493360,491629,492642,491630,493659,493160,493160,493659,122
118,test,1,con,1,m,Thu Apr 03 2025 13:05:03 GMT-0500 (Central Daylight Time),503699.5,bronze,1000,I,m,m,None,774,575.0,199.0,67,1,2312.599999964237,501386.90000003576,7113,bronze,NF,C,495409,495409,493679,494692,493680,495992,495209,495209,495992,123
119,test,1,inc,1,z,Thu Apr 03 2025 13:05:03 GMT-0500 (Central Daylight Time),505898.90000003576,zinc,1000,I,z,z,None,641,442.0,199.0,55,1,2180.7000000476837,503718.1999999881,7113,kiwi,NF,C,497741,497742,496010,497025,496011,498191,497542,497542,498191,124
120,test,1,con,1,m,Thu Apr 03 2025 13:05:03 GMT-0500 (Central Daylight Time),507814.10000002384,iron,900,I,m,m,None,452,253.0,199.0,106,1,1899.800000011921,505914.3000000119,7113,iron,NF,C,499841,499841,498206,499125,498207,500106,499641,499641,500106,125
121,test,1,inc,1,z,Thu Apr 03 2025 13:05:03 GMT-0500 (Central Daylight Time),509914.1999999881,silver,1000,I,z,z,None,558,343.0,215.0,15,1,2093.599999964237,507820.60000002384,7113,cherry,NF,C,501857,501857,500113,501124,500113,502206,501641,501641,502206,126
122,test,1,con,1,z,Thu Apr 03 2025 13:05:03 GMT-0500 (Central Daylight Time),512446.6999999881,raisin,1100,I,z,z,None,871,672.0,199.0,28,1,2513.399999976158,509933.3000000119,7113,raisin,NF,C,504056,504056,502225,503340,502227,504739,503857,503857,504739,127
123,test,1,inc,1,z,Thu Apr 03 2025 13:05:03 GMT-0500 (Central Daylight Time),514546.0,bronze,800,I,z,z,None,742,543.0,199.0,5,1,2079.800000011921,512466.1999999881,7113,banana,NF,C,506289,506289,504758,505573,504760,506838,506089,506089,506838,128
