block_c,block_dur,condition,countdown,datetime,endtime,list,multichar_response,project,response,response_time,session_number,start_end,starttime,subject_id,task,task_vers,trial
,,,,Fri Jan 10 2025 10:53:28 GMT-0500 (Eastern Standard Time),,,,I,space,379,,,,9007,WL,A,
prac,,0,,Fri Jan 10 2025 10:53:28 GMT-0500 (Eastern Standard Time),,NA,b,I,b,6873,,,,9007,WL,A,1.0
prac,,0,,Fri Jan 10 2025 10:53:28 GMT-0500 (Eastern Standard Time),,NA,bo,I,o,442,,,,9007,WL,A,1.0
prac,,0,,Fri Jan 10 2025 10:53:28 GMT-0500 (Eastern Standard Time),,NA,boo,I,o,136,,,,9007,WL,A,1.0
prac,,0,,Fri Jan 10 2025 10:53:28 GMT-0500 (Eastern Standard Time),,NA,boos,I,s,216,,,,9007,WL,A,1.0
prac,,0,,Fri Jan 10 2025 10:53:28 GMT-0500 (Eastern Standard Time),,NA,boost,I,t,312,,,,9007,WL,A,1.0
prac,,0,,Fri Jan 10 2025 10:53:28 GMT-0500 (Eastern Standard Time),,NA,boostenter,I,enter,473,,,,9007,WL,A,1.0
1,4.615999937057495,learn,55384.000062942505,Fri Jan 10 2025 10:53:28 GMT-0500 (Eastern Standard Time),146943.5,A,r,I,r,4601,,4615.5,142328.0,9007,WL,A,1.0
1,4.75,learn,55250.0,Fri Jan 10 2025 10:53:28 GMT-0500 (Eastern Standard Time),147077.19999980927,A,ru,I,u,114,,4749.199999809265,142328.0,9007,WL,A,1.0
1,5.365999937057495,learn,54634.000062942505,Fri Jan 10 2025 10:53:28 GMT-0500 (Eastern Standard Time),147693.30000019073,A,rug,I,g,592,,5365.300000190735,142328.0,9007,WL,A,1.0
1,7.931999921798706,learn,52068.000078201294,Fri Jan 10 2025 10:53:28 GMT-0500 (Eastern Standard Time),150259.80000019073,A,rugenter,I,enter,2551,,7931.800000190735,142328.0,9007,WL,A,1.0
1,12.83299994468689,learn,47167.00005531311,Fri Jan 10 2025 10:53:28 GMT-0500 (Eastern Standard Time),155160.30000019073,A,f,I,f,4881,,4900.0,150260.30000019073,9007,WL,A,2.0
1,13.065999984741211,learn,46934.00001525879,Fri Jan 10 2025 10:53:28 GMT-0500 (Eastern Standard Time),155393.60000038147,A,fl,I,l,216,,5133.300000190735,150260.30000019073,9007,WL,A,2.0
1,13.282999992370605,learn,46717.000007629395,Fri Jan 10 2025 10:53:28 GMT-0500 (Eastern Standard Time),155610.19999980927,A,flo,I,o,191,,5349.89999961853,150260.30000019073,9007,WL,A,2.0
1,13.532999992370605,learn,46467.000007629395,Fri Jan 10 2025 10:53:28 GMT-0500 (Eastern Standard Time),155860.19999980927,A,flow,I,w,232,,5599.89999961853,150260.30000019073,9007,WL,A,2.0
1,13.766000032424927,learn,46233.99996757507,Fri Jan 10 2025 10:53:28 GMT-0500 (Eastern Standard Time),156093.60000038147,A,flowe,I,e,205,,5833.300000190735,150260.30000019073,9007,WL,A,2.0
1,13.999000072479248,learn,46000.99992752075,Fri Jan 10 2025 10:53:28 GMT-0500 (Eastern Standard Time),156326.80000019073,A,flower,I,r,211,,6066.5,150260.30000019073,9007,WL,A,2.0
1,14.200000047683716,learn,45799.999952316284,Fri Jan 10 2025 10:53:28 GMT-0500 (Eastern Standard Time),156527.60000038147,A,flowers,I,s,186,,6267.300000190735,150260.30000019073,9007,WL,A,2.0
1,15.032000064849854,learn,44967.99993515015,Fri Jan 10 2025 10:53:28 GMT-0500 (Eastern Standard Time),157359.69999980927,A,flowersenter,I,enter,806,,7099.39999961853,150260.30000019073,9007,WL,A,2.0
1,18.48300004005432,learn,41516.99995994568,Fri Jan 10 2025 10:53:28 GMT-0500 (Eastern Standard Time),160810.10000038147,A,r,I,r,3428,,3449.9000005722046,157360.19999980927,9007,WL,A,3.0
1,18.766000032424927,learn,41233.99996757507,Fri Jan 10 2025 10:53:28 GMT-0500 (Eastern Standard Time),161093.10000038147,A,ru,I,u,263,,3732.9000005722046,157360.19999980927,9007,WL,A,3.0
1,19.115999937057495,learn,40884.000062942505,Fri Jan 10 2025 10:53:28 GMT-0500 (Eastern Standard Time),161443.60000038147,A,rug,I,g,336,,4083.4000005722046,157360.19999980927,9007,WL,A,3.0
1,19.949000120162964,learn,40050.999879837036,Fri Jan 10 2025 10:53:28 GMT-0500 (Eastern Standard Time),162276.5,A,rugenter,I,enter,813,,4916.300000190735,157360.19999980927,9007,WL,A,3.0
1,23.449000120162964,learn,36550.999879837036,Fri Jan 10 2025 10:53:28 GMT-0500 (Eastern Standard Time),165776.4000005722,A,b,I,b,3487,,3499.4000005722046,162277.0,9007,WL,A,4.0
1,23.81599998474121,learn,36184.00001525879,Fri Jan 10 2025 10:53:28 GMT-0500 (Eastern Standard Time),166143.30000019073,A,bo,I,o,356,,3866.300000190735,162277.0,9007,WL,A,4.0
1,23.966000080108643,learn,36033.99991989136,Fri Jan 10 2025 10:53:28 GMT-0500 (Eastern Standard Time),166293.10000038147,A,boo,I,o,130,,4016.1000003814697,162277.0,9007,WL,A,4.0
1,24.216000080108643,learn,35783.99991989136,Fri Jan 10 2025 10:53:28 GMT-0500 (Eastern Standard Time),166543.19999980927,A,book,I,k,238,,4266.199999809265,162277.0,9007,WL,A,4.0
1,25.049000024795532,learn,34950.99997520447,Fri Jan 10 2025 10:53:28 GMT-0500 (Eastern Standard Time),167376.30000019073,A,bookenter,I,enter,818,,5099.300000190735,162277.0,9007,WL,A,4.0
1,40.365999937057495,learn,19634.000062942505,Fri Jan 10 2025 10:53:28 GMT-0500 (Eastern Standard Time),182693.0,A,a,I,a,15298,,15316.099999427795,167376.9000005722,9007,WL,A,5.0
1,40.61500000953674,learn,19384.999990463257,Fri Jan 10 2025 10:53:28 GMT-0500 (Eastern Standard Time),182942.80000019073,A,ap,I,p,237,,15565.89999961853,167376.9000005722,9007,WL,A,5.0
1,40.782999992370605,learn,19217.000007629395,Fri Jan 10 2025 10:53:28 GMT-0500 (Eastern Standard Time),183110.0,A,app,I,p,146,,15733.099999427795,167376.9000005722,9007,WL,A,5.0
1,40.99900007247925,learn,19000.999927520752,Fri Jan 10 2025 10:53:28 GMT-0500 (Eastern Standard Time),183326.30000019073,A,appl,I,l,196,,15949.39999961853,167376.9000005722,9007,WL,A,5.0
1,41.431999921798706,learn,18568.000078201294,Fri Jan 10 2025 10:53:28 GMT-0500 (Eastern Standard Time),183759.80000019073,A,apple,I,e,420,,16382.89999961853,167376.9000005722,9007,WL,A,5.0
1,42.38199996948242,learn,17618.000030517578,Fri Jan 10 2025 10:53:28 GMT-0500 (Eastern Standard Time),184709.69999980927,A,appleenter,I,enter,927,,17332.79999923706,167376.9000005722,9007,WL,A,5.0
1,43.86500000953674,learn,16134.999990463257,Fri Jan 10 2025 10:53:28 GMT-0500 (Eastern Standard Time),186192.69999980927,A,h,I,h,1470,,1482.5999994277954,184710.10000038147,9007,WL,A,6.0
1,44.03200006484985,learn,15967.999935150146,Fri Jan 10 2025 10:53:28 GMT-0500 (Eastern Standard Time),186359.4000005722,A,ha,I,a,147,,1649.3000001907349,184710.10000038147,9007,WL,A,6.0
1,44.348999977111816,learn,15651.000022888184,Fri Jan 10 2025 10:53:28 GMT-0500 (Eastern Standard Time),186676.5,A,har,I,r,302,,1966.3999996185303,184710.10000038147,9007,WL,A,6.0
1,44.61500000953674,learn,15384.999990463257,Fri Jan 10 2025 10:53:28 GMT-0500 (Eastern Standard Time),186942.80000019073,A,harp,I,p,245,,2232.699999809265,184710.10000038147,9007,WL,A,6.0
1,45.29900002479553,learn,14700.999975204468,Fri Jan 10 2025 10:53:28 GMT-0500 (Eastern Standard Time),187626.19999980927,A,harpenter,I,enter,660,,2916.0999994277954,184710.10000038147,9007,WL,A,6.0
1,60.01600003242493,learn,-16.000032424926758,Fri Jan 10 2025 10:53:28 GMT-0500 (Eastern Standard Time),202343.69999980927,A,None,I,None,14708,,14717.199999809265,187626.5,9007,WL,A,7.0
2,1.9660000801086426,learn,58033.99991989136,Fri Jan 10 2025 10:53:28 GMT-0500 (Eastern Standard Time),292293.69999980927,A,r,I,r,1941,,1966.1999998092651,290327.5,9007,WL,A,1.0
2,2.133000135421753,learn,57866.99986457825,Fri Jan 10 2025 10:53:28 GMT-0500 (Eastern Standard Time),292460.4000005722,A,ru,I,u,140,,2132.9000005722046,290327.5,9007,WL,A,1.0
2,3.1660001277923584,learn,56833.99987220764,Fri Jan 10 2025 10:53:28 GMT-0500 (Eastern Standard Time),293493.60000038147,A,rug,I,g,1007,,3166.1000003814697,290327.5,9007,WL,A,1.0
2,3.7660000324249268,learn,56233.99996757507,Fri Jan 10 2025 10:53:28 GMT-0500 (Eastern Standard Time),294093.19999980927,A,rugenter,I,enter,569,,3765.699999809265,290327.5,9007,WL,A,1.0
2,4.58299994468689,learn,55417.00005531311,Fri Jan 10 2025 10:53:28 GMT-0500 (Eastern Standard Time),294910.60000038147,A,b,I,b,809,,817.1000003814697,294093.5,9007,WL,A,2.0
2,4.916000127792358,learn,55083.99987220764,Fri Jan 10 2025 10:53:28 GMT-0500 (Eastern Standard Time),295243.69999980927,A,bo,I,o,308,,1150.1999998092651,294093.5,9007,WL,A,2.0
2,5.049000024795532,learn,54950.99997520447,Fri Jan 10 2025 10:53:28 GMT-0500 (Eastern Standard Time),295376.5,A,boo,I,o,116,,1283.0,294093.5,9007,WL,A,2.0
2,5.2829999923706055,learn,54717.000007629395,Fri Jan 10 2025 10:53:28 GMT-0500 (Eastern Standard Time),295610.4000005722,A,book,I,k,211,,1516.9000005722046,294093.5,9007,WL,A,2.0
2,5.91700005531311,learn,54082.99994468689,Fri Jan 10 2025 10:53:28 GMT-0500 (Eastern Standard Time),296244.30000019073,A,bookenter,I,enter,615,,2150.800000190735,294093.5,9007,WL,A,2.0
2,6.483000040054321,learn,53516.99995994568,Fri Jan 10 2025 10:53:28 GMT-0500 (Eastern Standard Time),296810.4000005722,A,a,I,a,544,,565.7000007629395,296244.69999980927,9007,WL,A,3.0
2,6.766000032424927,learn,53233.99996757507,Fri Jan 10 2025 10:53:28 GMT-0500 (Eastern Standard Time),297093.80000019073,A,ap,I,p,264,,849.1000003814697,296244.69999980927,9007,WL,A,3.0
2,6.933000087738037,learn,53066.99991226196,Fri Jan 10 2025 10:53:28 GMT-0500 (Eastern Standard Time),297260.30000019073,A,app,I,p,140,,1015.6000003814697,296244.69999980927,9007,WL,A,3.0
2,7.133000135421753,learn,52866.99986457825,Fri Jan 10 2025 10:53:28 GMT-0500 (Eastern Standard Time),297460.5,A,appl,I,l,175,,1215.8000001907349,296244.69999980927,9007,WL,A,3.0
2,7.466000080108643,learn,52533.99991989136,Fri Jan 10 2025 10:53:28 GMT-0500 (Eastern Standard Time),297793.80000019073,A,apple,I,e,318,,1549.1000003814697,296244.69999980927,9007,WL,A,3.0
2,8.565999984741211,learn,51434.00001525879,Fri Jan 10 2025 10:53:28 GMT-0500 (Eastern Standard Time),298893.10000038147,A,appleenter,I,enter,1072,,2648.4000005722046,296244.69999980927,9007,WL,A,3.0
2,9.032999992370605,learn,50967.000007629395,Fri Jan 10 2025 10:53:28 GMT-0500 (Eastern Standard Time),299360.4000005722,A,t,I,t,456,,466.9000005722046,298893.5,9007,WL,A,4.0
2,9.266000032424927,learn,50733.99996757507,Fri Jan 10 2025 10:53:28 GMT-0500 (Eastern Standard Time),299593.60000038147,A,tr,I,r,208,,700.1000003814697,298893.5,9007,WL,A,4.0
2,9.516000032424927,learn,50483.99996757507,Fri Jan 10 2025 10:53:28 GMT-0500 (Eastern Standard Time),299843.69999980927,A,tra,I,a,233,,950.1999998092651,298893.5,9007,WL,A,4.0
2,9.6489999294281,learn,50351.0000705719,Fri Jan 10 2025 10:53:28 GMT-0500 (Eastern Standard Time),299976.5,A,trai,I,i,111,,1083.0,298893.5,9007,WL,A,4.0
2,10.200000047683716,learn,49799.999952316284,Fri Jan 10 2025 10:53:28 GMT-0500 (Eastern Standard Time),300527.5,A,train,I,n,536,,1634.0,298893.5,9007,WL,A,4.0
2,11.032000064849854,learn,48967.99993515015,Fri Jan 10 2025 10:53:28 GMT-0500 (Eastern Standard Time),301359.69999980927,A,trainenter,I,enter,821,,2466.199999809265,298893.5,9007,WL,A,4.0
2,11.666000127792358,learn,48333.99987220764,Fri Jan 10 2025 10:53:28 GMT-0500 (Eastern Standard Time),301993.5,A,f,I,f,614,,633.3999996185303,301360.10000038147,9007,WL,A,5.0
2,11.799000024795532,learn,48200.99997520447,Fri Jan 10 2025 10:53:28 GMT-0500 (Eastern Standard Time),302126.5,A,fl,I,l,119,,766.3999996185303,301360.10000038147,9007,WL,A,5.0
2,12.016000032424927,learn,47983.99996757507,Fri Jan 10 2025 10:53:28 GMT-0500 (Eastern Standard Time),302343.4000005722,A,flo,I,o,196,,983.3000001907349,301360.10000038147,9007,WL,A,5.0
2,12.216000080108643,learn,47783.99991989136,Fri Jan 10 2025 10:53:28 GMT-0500 (Eastern Standard Time),302543.4000005722,A,flow,I,w,186,,1183.3000001907349,301360.10000038147,9007,WL,A,5.0
2,12.466000080108643,learn,47533.99991989136,Fri Jan 10 2025 10:53:28 GMT-0500 (Eastern Standard Time),302793.69999980927,A,flowe,I,e,226,,1433.5999994277954,301360.10000038147,9007,WL,A,5.0
2,12.666000127792358,learn,47333.99987220764,Fri Jan 10 2025 10:53:28 GMT-0500 (Eastern Standard Time),302993.69999980927,A,flower,I,r,184,,1633.5999994277954,301360.10000038147,9007,WL,A,5.0
2,12.883000135421753,learn,47116.99986457825,Fri Jan 10 2025 10:53:28 GMT-0500 (Eastern Standard Time),303210.30000019073,A,flowers,I,s,184,,1850.1999998092651,301360.10000038147,9007,WL,A,5.0
2,13.782999992370605,learn,46217.000007629395,Fri Jan 10 2025 10:53:28 GMT-0500 (Eastern Standard Time),304109.80000019073,A,flowersenter,I,enter,886,,2749.699999809265,301360.10000038147,9007,WL,A,5.0
2,14.766000032424927,learn,45233.99996757507,Fri Jan 10 2025 10:53:28 GMT-0500 (Eastern Standard Time),305093.69999980927,A,m,I,m,967,,983.5,304110.19999980927,9007,WL,A,6.0
2,15.065999984741211,learn,44934.00001525879,Fri Jan 10 2025 10:53:28 GMT-0500 (Eastern Standard Time),305393.69999980927,A,me,I,e,285,,1283.5,304110.19999980927,9007,WL,A,6.0
2,15.33299994468689,learn,44667.00005531311,Fri Jan 10 2025 10:53:28 GMT-0500 (Eastern Standard Time),305660.0,A,mea,I,a,240,,1549.8000001907349,304110.19999980927,9007,WL,A,6.0
2,15.599999904632568,learn,44400.00009536743,Fri Jan 10 2025 10:53:28 GMT-0500 (Eastern Standard Time),305927.0,A,mead,I,d,246,,1816.8000001907349,304110.19999980927,9007,WL,A,6.0
2,15.782000064849854,learn,44217.99993515015,Fri Jan 10 2025 10:53:28 GMT-0500 (Eastern Standard Time),306109.80000019073,A,meado,I,o,155,,1999.6000003814697,304110.19999980927,9007,WL,A,6.0
2,16.06599998474121,learn,43934.00001525879,Fri Jan 10 2025 10:53:28 GMT-0500 (Eastern Standard Time),306393.4000005722,A,meadow,I,w,258,,2283.2000007629395,304110.19999980927,9007,WL,A,6.0
2,17.115999937057495,learn,42884.000062942505,Fri Jan 10 2025 10:53:28 GMT-0500 (Eastern Standard Time),307443.19999980927,A,meadowenter,I,enter,1022,,3333.0,304110.19999980927,9007,WL,A,6.0
2,18.016000032424927,learn,41983.99996757507,Fri Jan 10 2025 10:53:28 GMT-0500 (Eastern Standard Time),308343.4000005722,A,g,I,g,881,,899.8000001907349,307443.60000038147,9007,WL,A,7.0
2,18.183000087738037,learn,41816.99991226196,Fri Jan 10 2025 10:53:28 GMT-0500 (Eastern Standard Time),308510.30000019073,A,go,I,o,139,,1066.6999998092651,307443.60000038147,9007,WL,A,7.0
2,18.40000009536743,learn,41599.99990463257,Fri Jan 10 2025 10:53:28 GMT-0500 (Eastern Standard Time),308727.0,A,gol,I,l,185,,1283.3999996185303,307443.60000038147,9007,WL,A,7.0
2,18.66600012779236,learn,41333.99987220764,Fri Jan 10 2025 10:53:28 GMT-0500 (Eastern Standard Time),308993.60000038147,A,gold,I,d,252,,1550.0,307443.60000038147,9007,WL,A,7.0
2,18.98200011253357,learn,41017.99988746643,Fri Jan 10 2025 10:53:28 GMT-0500 (Eastern Standard Time),309309.60000038147,A,goldenter,I,enter,304,,1866.0,307443.60000038147,9007,WL,A,7.0
2,19.499000072479248,learn,40500.99992752075,Fri Jan 10 2025 10:53:28 GMT-0500 (Eastern Standard Time),309826.5,A,k,I,k,503,,516.5999994277954,309309.9000005722,9007,WL,A,8.0
2,19.716000080108643,learn,40283.99991989136,Fri Jan 10 2025 10:53:28 GMT-0500 (Eastern Standard Time),310043.60000038147,A,ke,I,e,194,,733.6999998092651,309309.9000005722,9007,WL,A,8.0
2,19.98200011253357,learn,40017.99988746643,Fri Jan 10 2025 10:53:28 GMT-0500 (Eastern Standard Time),310309.60000038147,A,key,I,y,247,,999.6999998092651,309309.9000005722,9007,WL,A,8.0
2,21.16600012779236,learn,38833.99987220764,Fri Jan 10 2025 10:53:28 GMT-0500 (Eastern Standard Time),311493.19999980927,A,keyenter,I,enter,1167,,2183.2999992370605,309309.9000005722,9007,WL,A,8.0
2,28.133000135421753,learn,31866.999864578247,Fri Jan 10 2025 10:53:28 GMT-0500 (Eastern Standard Time),318460.4000005722,A,b,I,b,6944,,6966.800000190735,311493.60000038147,9007,WL,A,9.0
2,28.365999937057495,learn,31634.000062942505,Fri Jan 10 2025 10:53:28 GMT-0500 (Eastern Standard Time),318693.69999980927,A,bu,I,u,213,,7200.099999427795,311493.60000038147,9007,WL,A,9.0
2,28.615999937057495,learn,31384.000062942505,Fri Jan 10 2025 10:53:28 GMT-0500 (Eastern Standard Time),318943.4000005722,A,but,I,t,237,,7449.800000190735,311493.60000038147,9007,WL,A,9.0
2,28.782999992370605,learn,31217.000007629395,Fri Jan 10 2025 10:53:28 GMT-0500 (Eastern Standard Time),319110.0,A,butt,I,t,147,,7616.39999961853,311493.60000038147,9007,WL,A,9.0
2,28.98300004005432,learn,31016.99995994568,Fri Jan 10 2025 10:53:28 GMT-0500 (Eastern Standard Time),319310.30000019073,A,butto,I,o,175,,7816.699999809265,311493.60000038147,9007,WL,A,9.0
2,29.23300004005432,learn,30766.99995994568,Fri Jan 10 2025 10:53:28 GMT-0500 (Eastern Standard Time),319560.4000005722,A,button,I,n,228,,8066.800000190735,311493.60000038147,9007,WL,A,9.0
2,29.91600012779236,learn,30083.99987220764,Fri Jan 10 2025 10:53:28 GMT-0500 (Eastern Standard Time),320243.10000038147,A,buttonenter,I,enter,665,,8749.5,311493.60000038147,9007,WL,A,9.0
2,31.383000135421753,learn,28616.999864578247,Fri Jan 10 2025 10:53:28 GMT-0500 (Eastern Standard Time),321710.10000038147,A,s,I,s,1443,,1466.5,320243.60000038147,9007,WL,A,10.0
2,31.633000135421753,learn,28366.999864578247,Fri Jan 10 2025 10:53:28 GMT-0500 (Eastern Standard Time),321960.30000019073,A,sa,I,a,229,,1716.6999998092651,320243.60000038147,9007,WL,A,10.0
2,31.766000032424927,learn,28233.999967575073,Fri Jan 10 2025 10:53:28 GMT-0500 (Eastern Standard Time),322093.60000038147,A,sal,I,l,99,,1850.0,320243.60000038147,9007,WL,A,10.0
2,32.282999992370605,learn,27717.000007629395,Fri Jan 10 2025 10:53:28 GMT-0500 (Eastern Standard Time),322610.4000005722,A,salt,I,t,492,,2366.800000190735,320243.60000038147,9007,WL,A,10.0
2,32.58200001716614,learn,27417.999982833862,Fri Jan 10 2025 10:53:28 GMT-0500 (Eastern Standard Time),322909.80000019073,A,saltenter,I,enter,288,,2666.199999809265,320243.60000038147,9007,WL,A,10.0
2,32.98200011253357,learn,27017.99988746643,Fri Jan 10 2025 10:53:28 GMT-0500 (Eastern Standard Time),323309.60000038147,A,f,I,f,390,,399.4000005722046,322910.19999980927,9007,WL,A,11.0
2,33.13300013542175,learn,26866.999864578247,Fri Jan 10 2025 10:53:28 GMT-0500 (Eastern Standard Time),323460.5,A,fi,I,i,134,,550.3000001907349,322910.19999980927,9007,WL,A,11.0
2,33.38300013542175,learn,26616.999864578247,Fri Jan 10 2025 10:53:28 GMT-0500 (Eastern Standard Time),323710.5,A,fin,I,n,229,,800.3000001907349,322910.19999980927,9007,WL,A,11.0
2,33.59999990463257,learn,26400.00009536743,Fri Jan 10 2025 10:53:28 GMT-0500 (Eastern Standard Time),323927.10000038147,A,fing,I,g,197,,1016.9000005722046,322910.19999980927,9007,WL,A,11.0
2,33.79900002479553,learn,26200.999975204468,Fri Jan 10 2025 10:53:28 GMT-0500 (Eastern Standard Time),324126.69999980927,A,finge,I,e,186,,1216.5,322910.19999980927,9007,WL,A,11.0
2,33.93300008773804,learn,26066.999912261963,Fri Jan 10 2025 10:53:28 GMT-0500 (Eastern Standard Time),324260.4000005722,A,finger,I,r,117,,1350.2000007629395,322910.19999980927,9007,WL,A,11.0
2,34.74900007247925,learn,25250.999927520752,Fri Jan 10 2025 10:53:28 GMT-0500 (Eastern Standard Time),325076.60000038147,A,fingerenter,I,enter,797,,2166.4000005722046,322910.19999980927,9007,WL,A,11.0
2,40.83299994468689,learn,19167.00005531311,Fri Jan 10 2025 10:53:28 GMT-0500 (Eastern Standard Time),331160.4000005722,A,c,I,c,6064,,6083.400000572205,325077.0,9007,WL,A,12.0
2,41.450000047683716,learn,18549.999952316284,Fri Jan 10 2025 10:53:28 GMT-0500 (Eastern Standard Time),331777.10000038147,A,ch,I,h,601,,6700.10000038147,325077.0,9007,WL,A,12.0
2,41.84999990463257,learn,18150.00009536743,Fri Jan 10 2025 10:53:28 GMT-0500 (Eastern Standard Time),332177.0,A,chi,I,i,386,,7100.0,325077.0,9007,WL,A,12.0
2,42.38300013542175,learn,17616.999864578247,Fri Jan 10 2025 10:53:28 GMT-0500 (Eastern Standard Time),332710.60000038147,A,chim,I,m,511,,7633.60000038147,325077.0,9007,WL,A,12.0
2,42.700000047683716,learn,17299.999952316284,Fri Jan 10 2025 10:53:28 GMT-0500 (Eastern Standard Time),333027.10000038147,A,chimn,I,n,300,,7950.10000038147,325077.0,9007,WL,A,12.0
2,43.01600003242493,learn,16983.999967575073,Fri Jan 10 2025 10:53:28 GMT-0500 (Eastern Standard Time),333343.5,A,chimne,I,e,303,,8266.5,325077.0,9007,WL,A,12.0
2,43.24900007247925,learn,16750.999927520752,Fri Jan 10 2025 10:53:28 GMT-0500 (Eastern Standard Time),333576.5,A,chimney,I,y,208,,8499.5,325077.0,9007,WL,A,12.0
2,43.91600012779236,learn,16083.999872207642,Fri Jan 10 2025 10:53:28 GMT-0500 (Eastern Standard Time),334243.10000038147,A,chimneyenter,I,enter,652,,9166.10000038147,325077.0,9007,WL,A,12.0
2,60.01600003242493,learn,-16.000032424926758,Fri Jan 10 2025 10:53:28 GMT-0500 (Eastern Standard Time),350343.69999980927,A,None,I,None,16091,,16100.29999923706,334243.4000005722,9007,WL,A,13.0
3,1.2170000076293945,learn,58782.999992370605,Fri Jan 10 2025 10:53:28 GMT-0500 (Eastern Standard Time),428777.19999980927,A,r,I,r,1195,,1216.5999994277954,427560.60000038147,9007,WL,A,1.0
3,2.4170000553131104,learn,57582.99994468689,Fri Jan 10 2025 10:53:28 GMT-0500 (Eastern Standard Time),429977.19999980927,A,ra,I,a,1167,,2416.5999994277954,427560.60000038147,9007,WL,A,1.0
3,3.134000062942505,learn,56865.999937057495,Fri Jan 10 2025 10:53:28 GMT-0500 (Eastern Standard Time),430693.9000005722,A,rat,I,t,697,,3133.300000190735,427560.60000038147,9007,WL,A,1.0
3,3.316999912261963,learn,56683.00008773804,Fri Jan 10 2025 10:53:28 GMT-0500 (Eastern Standard Time),430877.0,A,ratt,I,t,157,,3316.3999996185303,427560.60000038147,9007,WL,A,1.0
3,3.5,learn,56500.0,Fri Jan 10 2025 10:53:28 GMT-0500 (Eastern Standard Time),431060.4000005722,A,rattl,I,l,165,,3499.800000190735,427560.60000038147,9007,WL,A,1.0
3,3.7160000801086426,learn,56283.99991989136,Fri Jan 10 2025 10:53:28 GMT-0500 (Eastern Standard Time),431276.60000038147,A,rattle,I,e,180,,3716.0,427560.60000038147,9007,WL,A,1.0
3,5.315999984741211,learn,54684.00001525879,Fri Jan 10 2025 10:53:28 GMT-0500 (Eastern Standard Time),432876.69999980927,A,rattleenter,I,enter,1576,,5316.099999427795,427560.60000038147,9007,WL,A,1.0
3,6.233000040054321,learn,53766.99995994568,Fri Jan 10 2025 10:53:28 GMT-0500 (Eastern Standard Time),433793.9000005722,A,b,I,b,904,,916.9000005722046,432877.0,9007,WL,A,2.0
3,6.66700005531311,learn,53332.99994468689,Fri Jan 10 2025 10:53:28 GMT-0500 (Eastern Standard Time),434227.0,A,bo,I,o,416,,1350.0,432877.0,9007,WL,A,2.0
3,6.849999904632568,learn,53150.00009536743,Fri Jan 10 2025 10:53:28 GMT-0500 (Eastern Standard Time),434410.30000019073,A,boo,I,o,161,,1533.3000001907349,432877.0,9007,WL,A,2.0
3,7.233000040054321,learn,52766.99995994568,Fri Jan 10 2025 10:53:28 GMT-0500 (Eastern Standard Time),434793.69999980927,A,book,I,k,360,,1916.6999998092651,432877.0,9007,WL,A,2.0
3,8.016000032424927,learn,51983.99996757507,Fri Jan 10 2025 10:53:28 GMT-0500 (Eastern Standard Time),435576.69999980927,A,bookenter,I,enter,759,,2699.699999809265,432877.0,9007,WL,A,2.0
3,8.516999959945679,learn,51483.00004005432,Fri Jan 10 2025 10:53:28 GMT-0500 (Eastern Standard Time),436077.19999980927,A,k,I,k,477,,500.19999980926514,435577.0,9007,WL,A,3.0
3,9.016999959945679,learn,50983.00004005432,Fri Jan 10 2025 10:53:28 GMT-0500 (Eastern Standard Time),436577.19999980927,A,ke,I,e,484,,1000.1999998092651,435577.0,9007,WL,A,3.0
3,9.316999912261963,learn,50683.00008773804,Fri Jan 10 2025 10:53:28 GMT-0500 (Eastern Standard Time),436877.10000038147,A,key,I,y,267,,1300.1000003814697,435577.0,9007,WL,A,3.0
3,10.115999937057495,learn,49884.000062942505,Fri Jan 10 2025 10:53:28 GMT-0500 (Eastern Standard Time),437676.69999980927,A,keyenter,I,enter,772,,2099.699999809265,435577.0,9007,WL,A,3.0
3,11.032999992370605,learn,48967.000007629395,Fri Jan 10 2025 10:53:28 GMT-0500 (Eastern Standard Time),438593.69999980927,A,g,I,g,904,,916.5999994277954,437677.10000038147,9007,WL,A,4.0
3,11.116999864578247,learn,48883.00013542175,Fri Jan 10 2025 10:53:28 GMT-0500 (Eastern Standard Time),438677.19999980927,A,go,I,o,65,,1000.0999994277954,437677.10000038147,9007,WL,A,4.0
3,11.41700005531311,learn,48582.99994468689,Fri Jan 10 2025 10:53:28 GMT-0500 (Eastern Standard Time),438977.10000038147,A,gol,I,l,283,,1300.0,437677.10000038147,9007,WL,A,4.0
3,11.683000087738037,learn,48316.99991226196,Fri Jan 10 2025 10:53:28 GMT-0500 (Eastern Standard Time),439243.69999980927,A,gold,I,d,242,,1566.5999994277954,437677.10000038147,9007,WL,A,4.0
3,12.632999897003174,learn,47367.000102996826,Fri Jan 10 2025 10:53:28 GMT-0500 (Eastern Standard Time),440193.30000019073,A,goldenter,I,enter,935,,2516.199999809265,437677.10000038147,9007,WL,A,4.0
3,13.16700005531311,learn,46832.99994468689,Fri Jan 10 2025 10:53:28 GMT-0500 (Eastern Standard Time),440727.10000038147,A,s,I,s,516,,533.4000005722046,440193.69999980927,9007,WL,A,5.0
3,13.400000095367432,learn,46599.99990463257,Fri Jan 10 2025 10:53:28 GMT-0500 (Eastern Standard Time),440960.5,A,sa,I,a,219,,766.8000001907349,440193.69999980927,9007,WL,A,5.0
3,13.483999967575073,learn,46516.00003242493,Fri Jan 10 2025 10:53:28 GMT-0500 (Eastern Standard Time),441043.9000005722,A,sal,I,l,66,,850.2000007629395,440193.69999980927,9007,WL,A,5.0
3,14.016000032424927,learn,45983.99996757507,Fri Jan 10 2025 10:53:28 GMT-0500 (Eastern Standard Time),441576.69999980927,A,salt,I,t,509,,1383.0,440193.69999980927,9007,WL,A,5.0
3,14.466000080108643,learn,45533.99991989136,Fri Jan 10 2025 10:53:28 GMT-0500 (Eastern Standard Time),442026.69999980927,A,saltenter,I,enter,429,,1833.0,440193.69999980927,9007,WL,A,5.0
3,14.91700005531311,learn,45082.99994468689,Fri Jan 10 2025 10:53:28 GMT-0500 (Eastern Standard Time),442477.10000038147,A,f,I,f,426,,450.0,442027.10000038147,9007,WL,A,6.0
3,15.08299994468689,learn,44917.00005531311,Fri Jan 10 2025 10:53:28 GMT-0500 (Eastern Standard Time),442643.4000005722,A,fi,I,i,147,,616.3000001907349,442027.10000038147,9007,WL,A,6.0
3,15.41700005531311,learn,44582.99994468689,Fri Jan 10 2025 10:53:28 GMT-0500 (Eastern Standard Time),442977.10000038147,A,fin,I,n,320,,950.0,442027.10000038147,9007,WL,A,6.0
3,15.683000087738037,learn,44316.99991226196,Fri Jan 10 2025 10:53:28 GMT-0500 (Eastern Standard Time),443243.60000038147,A,fing,I,g,242,,1216.5,442027.10000038147,9007,WL,A,6.0
3,15.866999864578247,learn,44133.00013542175,Fri Jan 10 2025 10:53:28 GMT-0500 (Eastern Standard Time),443427.10000038147,A,finge,I,e,168,,1400.0,442027.10000038147,9007,WL,A,6.0
3,16.0,learn,44000.0,Fri Jan 10 2025 10:53:28 GMT-0500 (Eastern Standard Time),443560.60000038147,A,finger,I,r,111,,1533.5,442027.10000038147,9007,WL,A,6.0
3,16.700000047683716,learn,43299.999952316284,Fri Jan 10 2025 10:53:28 GMT-0500 (Eastern Standard Time),444259.9000005722,A,fingerenter,I,enter,681,,2232.800000190735,442027.10000038147,9007,WL,A,6.0
3,17.15000009536743,learn,42849.99990463257,Fri Jan 10 2025 10:53:28 GMT-0500 (Eastern Standard Time),444710.0,A,f,I,f,432,,449.69999980926514,444260.30000019073,9007,WL,A,7.0
3,17.316999912261963,learn,42683.00008773804,Fri Jan 10 2025 10:53:28 GMT-0500 (Eastern Standard Time),444877.19999980927,A,fl,I,l,140,,616.8999996185303,444260.30000019073,9007,WL,A,7.0
3,17.51699995994568,learn,42483.00004005432,Fri Jan 10 2025 10:53:28 GMT-0500 (Eastern Standard Time),445077.19999980927,A,flo,I,o,182,,816.8999996185303,444260.30000019073,9007,WL,A,7.0
3,17.717000007629395,learn,42282.999992370605,Fri Jan 10 2025 10:53:28 GMT-0500 (Eastern Standard Time),445277.10000038147,A,flow,I,w,173,,1016.8000001907349,444260.30000019073,9007,WL,A,7.0
3,17.933000087738037,learn,42066.99991226196,Fri Jan 10 2025 10:53:28 GMT-0500 (Eastern Standard Time),445493.80000019073,A,flowe,I,e,197,,1233.5,444260.30000019073,9007,WL,A,7.0
3,18.1489999294281,learn,41851.0000705719,Fri Jan 10 2025 10:53:28 GMT-0500 (Eastern Standard Time),445709.80000019073,A,flower,I,r,194,,1449.5,444260.30000019073,9007,WL,A,7.0
3,18.433000087738037,learn,41566.99991226196,Fri Jan 10 2025 10:53:28 GMT-0500 (Eastern Standard Time),445993.60000038147,A,flowers,I,s,264,,1733.3000001907349,444260.30000019073,9007,WL,A,7.0
3,19.25,learn,40750.0,Fri Jan 10 2025 10:53:28 GMT-0500 (Eastern Standard Time),446810.0,A,flowersenter,I,enter,793,,2549.699999809265,444260.30000019073,9007,WL,A,7.0
3,19.90000009536743,learn,40099.99990463257,Fri Jan 10 2025 10:53:28 GMT-0500 (Eastern Standard Time),447460.60000038147,A,m,I,m,635,,650.3000001907349,446810.30000019073,9007,WL,A,8.0
3,20.15000009536743,learn,39849.99990463257,Fri Jan 10 2025 10:53:28 GMT-0500 (Eastern Standard Time),447710.60000038147,A,me,I,e,213,,900.3000001907349,446810.30000019073,9007,WL,A,8.0
3,20.33399987220764,learn,39666.00012779236,Fri Jan 10 2025 10:53:28 GMT-0500 (Eastern Standard Time),447893.9000005722,A,mea,I,a,164,,1083.6000003814697,446810.30000019073,9007,WL,A,8.0
3,20.58299994468689,learn,39417.00005531311,Fri Jan 10 2025 10:53:28 GMT-0500 (Eastern Standard Time),448143.69999980927,A,mead,I,d,227,,1333.3999996185303,446810.30000019073,9007,WL,A,8.0
3,20.90000009536743,learn,39099.99990463257,Fri Jan 10 2025 10:53:28 GMT-0500 (Eastern Standard Time),448460.69999980927,A,meado,I,o,290,,1650.3999996185303,446810.30000019073,9007,WL,A,8.0
3,21.25,learn,38750.0,Fri Jan 10 2025 10:53:28 GMT-0500 (Eastern Standard Time),448810.0,A,meadow,I,w,319,,1999.6999998092651,446810.30000019073,9007,WL,A,8.0
3,23.132999897003174,learn,36867.000102996826,Fri Jan 10 2025 10:53:28 GMT-0500 (Eastern Standard Time),450693.4000005722,A,meadowenter,I,enter,1868,,3883.1000003814697,446810.30000019073,9007,WL,A,8.0
3,23.616999864578247,learn,36383.00013542175,Fri Jan 10 2025 10:53:28 GMT-0500 (Eastern Standard Time),451177.10000038147,A,t,I,t,464,,483.4000005722046,450693.69999980927,9007,WL,A,9.0
3,23.81599998474121,learn,36184.00001525879,Fri Jan 10 2025 10:53:28 GMT-0500 (Eastern Standard Time),451376.9000005722,A,tr,I,r,186,,683.2000007629395,450693.69999980927,9007,WL,A,9.0
3,24.049999952316284,learn,35950.000047683716,Fri Jan 10 2025 10:53:28 GMT-0500 (Eastern Standard Time),451610.4000005722,A,tra,I,a,209,,916.7000007629395,450693.69999980927,9007,WL,A,9.0
3,24.200000047683716,learn,35799.999952316284,Fri Jan 10 2025 10:53:28 GMT-0500 (Eastern Standard Time),451760.4000005722,A,trai,I,i,137,,1066.7000007629395,450693.69999980927,9007,WL,A,9.0
3,24.549999952316284,learn,35450.000047683716,Fri Jan 10 2025 10:53:28 GMT-0500 (Eastern Standard Time),452110.4000005722,A,train,I,n,314,,1416.7000007629395,450693.69999980927,9007,WL,A,9.0
3,25.5,learn,34500.0,Fri Jan 10 2025 10:53:28 GMT-0500 (Eastern Standard Time),453060.0,A,trainenter,I,enter,932,,2366.300000190735,450693.69999980927,9007,WL,A,9.0
3,28.83299994468689,learn,31167.00005531311,Fri Jan 10 2025 10:53:28 GMT-0500 (Eastern Standard Time),456393.80000019073,A,b,I,b,3313,,3333.5,453060.30000019073,9007,WL,A,10.0
3,29.049999952316284,learn,30950.000047683716,Fri Jan 10 2025 10:53:28 GMT-0500 (Eastern Standard Time),456610.5,A,bu,I,u,201,,3550.199999809265,453060.30000019073,9007,WL,A,10.0
3,29.299999952316284,learn,30700.000047683716,Fri Jan 10 2025 10:53:28 GMT-0500 (Eastern Standard Time),456860.4000005722,A,but,I,t,225,,3800.1000003814697,453060.30000019073,9007,WL,A,10.0
3,29.467000007629395,learn,30532.999992370605,Fri Jan 10 2025 10:53:28 GMT-0500 (Eastern Standard Time),457027.0,A,butt,I,t,150,,3966.699999809265,453060.30000019073,9007,WL,A,10.0
3,29.59999990463257,learn,30400.00009536743,Fri Jan 10 2025 10:53:28 GMT-0500 (Eastern Standard Time),457160.5,A,butto,I,o,111,,4100.199999809265,453060.30000019073,9007,WL,A,10.0
3,29.90000009536743,learn,30099.99990463257,Fri Jan 10 2025 10:53:28 GMT-0500 (Eastern Standard Time),457460.4000005722,A,button,I,n,273,,4400.10000038147,453060.30000019073,9007,WL,A,10.0
3,30.34999990463257,learn,29650.00009536743,Fri Jan 10 2025 10:53:28 GMT-0500 (Eastern Standard Time),457910.10000038147,A,buttonenter,I,enter,429,,4849.800000190735,453060.30000019073,9007,WL,A,10.0
3,31.049000024795532,learn,28950.999975204468,Fri Jan 10 2025 10:53:28 GMT-0500 (Eastern Standard Time),458609.60000038147,A,a,I,a,687,,699.1000003814697,457910.5,9007,WL,A,11.0
3,31.299999952316284,learn,28700.000047683716,Fri Jan 10 2025 10:53:28 GMT-0500 (Eastern Standard Time),458860.4000005722,A,ap,I,p,228,,949.9000005722046,457910.5,9007,WL,A,11.0
3,31.450000047683716,learn,28549.999952316284,Fri Jan 10 2025 10:53:28 GMT-0500 (Eastern Standard Time),459010.60000038147,A,app,I,p,130,,1100.1000003814697,457910.5,9007,WL,A,11.0
3,31.66599988937378,learn,28334.00011062622,Fri Jan 10 2025 10:53:28 GMT-0500 (Eastern Standard Time),459226.80000019073,A,appl,I,l,183,,1316.3000001907349,457910.5,9007,WL,A,11.0
3,31.83299994468689,learn,28167.00005531311,Fri Jan 10 2025 10:53:28 GMT-0500 (Eastern Standard Time),459393.9000005722,A,apple,I,e,149,,1483.4000005722046,457910.5,9007,WL,A,11.0
3,32.200000047683716,learn,27799.999952316284,Fri Jan 10 2025 10:53:28 GMT-0500 (Eastern Standard Time),459760.0,A,appleenter,I,enter,351,,1849.5,457910.5,9007,WL,A,11.0
3,34.81699991226196,learn,25183.000087738037,Fri Jan 10 2025 10:53:28 GMT-0500 (Eastern Standard Time),462377.19999980927,A,r,I,r,2598,,2616.8999996185303,459760.30000019073,9007,WL,A,12.0
3,35.0,learn,25000.0,Fri Jan 10 2025 10:53:28 GMT-0500 (Eastern Standard Time),462560.4000005722,A,ru,I,u,167,,2800.1000003814697,459760.30000019073,9007,WL,A,12.0
3,35.43400001525879,learn,24565.99998474121,Fri Jan 10 2025 10:53:28 GMT-0500 (Eastern Standard Time),462993.9000005722,A,rug,I,g,418,,3233.6000003814697,459760.30000019073,9007,WL,A,12.0
3,35.84999990463257,learn,24150.00009536743,Fri Jan 10 2025 10:53:28 GMT-0500 (Eastern Standard Time),463410.0,A,rugenter,I,enter,400,,3649.699999809265,459760.30000019073,9007,WL,A,12.0
3,40.16700005531311,learn,19832.99994468689,Fri Jan 10 2025 10:53:28 GMT-0500 (Eastern Standard Time),467726.9000005722,A,h,I,h,4308,,4316.5,463410.4000005722,9007,WL,A,13.0
3,40.299999952316284,learn,19700.000047683716,Fri Jan 10 2025 10:53:28 GMT-0500 (Eastern Standard Time),467860.60000038147,A,ha,I,a,116,,4450.199999809265,463410.4000005722,9007,WL,A,13.0
3,40.59999990463257,learn,19400.00009536743,Fri Jan 10 2025 10:53:28 GMT-0500 (Eastern Standard Time),468160.4000005722,A,har,I,r,287,,4750.0,463410.4000005722,9007,WL,A,13.0
3,40.91599988937378,learn,19084.00011062622,Fri Jan 10 2025 10:53:28 GMT-0500 (Eastern Standard Time),468476.69999980927,A,harp,I,p,288,,5066.299999237061,463410.4000005722,9007,WL,A,13.0
3,41.31599998474121,learn,18684.00001525879,Fri Jan 10 2025 10:53:28 GMT-0500 (Eastern Standard Time),468876.69999980927,A,harpenter,I,enter,376,,5466.299999237061,463410.4000005722,9007,WL,A,13.0
3,44.5,learn,15500.0,Fri Jan 10 2025 10:53:28 GMT-0500 (Eastern Standard Time),472060.4000005722,A,g,I,g,3160,,3183.300000190735,468877.10000038147,9007,WL,A,14.0
3,44.799999952316284,learn,15200.000047683716,Fri Jan 10 2025 10:53:28 GMT-0500 (Eastern Standard Time),472360.5,A,go,I,o,278,,3483.3999996185303,468877.10000038147,9007,WL,A,14.0
3,44.98300004005432,learn,15016.999959945679,Fri Jan 10 2025 10:53:28 GMT-0500 (Eastern Standard Time),472543.60000038147,A,gol,I,l,170,,3666.5,468877.10000038147,9007,WL,A,14.0
3,45.134000062942505,learn,14865.999937057495,Fri Jan 10 2025 10:53:28 GMT-0500 (Eastern Standard Time),472693.9000005722,A,gold,I,d,127,,3816.800000190735,468877.10000038147,9007,WL,A,14.0
3,45.68300008773804,learn,14316.999912261963,Fri Jan 10 2025 10:53:28 GMT-0500 (Eastern Standard Time),473243.19999980927,A,goldenter,I,enter,515,,4366.099999427795,468877.10000038147,9007,WL,A,14.0
3,53.73399996757507,learn,6266.000032424927,Fri Jan 10 2025 10:53:28 GMT-0500 (Eastern Standard Time),481293.9000005722,A,s,I,s,8026,,8050.300000190735,473243.60000038147,9007,WL,A,15.0
3,53.967000007629395,learn,6032.9999923706055,Fri Jan 10 2025 10:53:28 GMT-0500 (Eastern Standard Time),481527.19999980927,A,sa,I,a,212,,8283.599999427795,473243.60000038147,9007,WL,A,15.0
3,54.06699991226196,learn,5933.000087738037,Fri Jan 10 2025 10:53:28 GMT-0500 (Eastern Standard Time),481627.0,A,sal,I,l,76,,8383.39999961853,473243.60000038147,9007,WL,A,15.0
3,54.43300008773804,learn,5566.999912261963,Fri Jan 10 2025 10:53:28 GMT-0500 (Eastern Standard Time),481993.69999980927,A,salt,I,t,335,,8750.099999427795,473243.60000038147,9007,WL,A,15.0
3,54.65000009536743,learn,5349.999904632568,Fri Jan 10 2025 10:53:28 GMT-0500 (Eastern Standard Time),482210.0,A,saltenter,I,enter,201,,8966.39999961853,473243.60000038147,9007,WL,A,15.0
4,1.8510000705718994,learn,58148.9999294281,Fri Jan 10 2025 10:53:28 GMT-0500 (Eastern Standard Time),555994.0,A,b,I,b,1829,,1850.0999994277954,554143.9000005722,9007,WL,A,1.0
4,2.884000062942505,learn,57115.999937057495,Fri Jan 10 2025 10:53:28 GMT-0500 (Eastern Standard Time),557027.1999998093,A,bo,I,o,1016,,2883.2999992370605,554143.9000005722,9007,WL,A,1.0
4,3.067000150680542,learn,56932.99984931946,Fri Jan 10 2025 10:53:28 GMT-0500 (Eastern Standard Time),557210.4000005722,A,boo,I,o,151,,3066.5,554143.9000005722,9007,WL,A,1.0
4,3.3510000705718994,learn,56648.9999294281,Fri Jan 10 2025 10:53:28 GMT-0500 (Eastern Standard Time),557493.9000005722,A,book,I,k,262,,3350.0,554143.9000005722,9007,WL,A,1.0
4,4.2170000076293945,learn,55782.999992370605,Fri Jan 10 2025 10:53:28 GMT-0500 (Eastern Standard Time),558360.1999998093,A,bookenter,I,enter,842,,4216.299999237061,554143.9000005722,9007,WL,A,1.0
4,4.7829999923706055,learn,55217.000007629395,Fri Jan 10 2025 10:53:28 GMT-0500 (Eastern Standard Time),558926.5,A,k,I,k,558,,565.8999996185303,558360.6000003815,9007,WL,A,2.0
4,5.033999919891357,learn,54966.00008010864,Fri Jan 10 2025 10:53:28 GMT-0500 (Eastern Standard Time),559177.3000001907,A,ke,I,e,230,,816.6999998092651,558360.6000003815,9007,WL,A,2.0
4,5.2829999923706055,learn,54717.000007629395,Fri Jan 10 2025 10:53:28 GMT-0500 (Eastern Standard Time),559426.8000001907,A,key,I,y,233,,1066.1999998092651,558360.6000003815,9007,WL,A,2.0
4,6.16700005531311,learn,53832.99994468689,Fri Jan 10 2025 10:53:28 GMT-0500 (Eastern Standard Time),560310.1000003815,A,keyenter,I,enter,866,,1949.5,558360.6000003815,9007,WL,A,2.0
4,6.733999967575073,learn,53266.00003242493,Fri Jan 10 2025 10:53:28 GMT-0500 (Eastern Standard Time),560877.1000003815,A,g,I,g,543,,566.6999998092651,560310.4000005722,9007,WL,A,3.0
4,6.8500001430511475,learn,53149.99985694885,Fri Jan 10 2025 10:53:28 GMT-0500 (Eastern Standard Time),560993.5,A,go,I,o,102,,683.0999994277954,560310.4000005722,9007,WL,A,3.0
4,7.117000102996826,learn,52882.999897003174,Fri Jan 10 2025 10:53:28 GMT-0500 (Eastern Standard Time),561260.6000003815,A,gol,I,l,242,,950.1999998092651,560310.4000005722,9007,WL,A,3.0
4,7.450999975204468,learn,52549.00002479553,Fri Jan 10 2025 10:53:28 GMT-0500 (Eastern Standard Time),561593.9000005722,A,gold,I,d,310,,1283.5,560310.4000005722,9007,WL,A,3.0
4,8.41700005531311,learn,51582.99994468689,Fri Jan 10 2025 10:53:28 GMT-0500 (Eastern Standard Time),562560.1000003815,A,goldenter,I,enter,952,,2249.699999809265,560310.4000005722,9007,WL,A,3.0
4,9.117000102996826,learn,50882.999897003174,Fri Jan 10 2025 10:53:28 GMT-0500 (Eastern Standard Time),563260.5,A,r,I,r,678,,700.0999994277954,562560.4000005722,9007,WL,A,4.0
4,9.384000062942505,learn,50615.999937057495,Fri Jan 10 2025 10:53:28 GMT-0500 (Eastern Standard Time),563527.1999998093,A,ra,I,a,247,,966.7999992370605,562560.4000005722,9007,WL,A,4.0
4,9.700999975204468,learn,50299.00002479553,Fri Jan 10 2025 10:53:28 GMT-0500 (Eastern Standard Time),563844.0,A,rat,I,t,299,,1283.5999994277954,562560.4000005722,9007,WL,A,4.0
4,9.884000062942505,learn,50115.999937057495,Fri Jan 10 2025 10:53:28 GMT-0500 (Eastern Standard Time),564027.4000005722,A,ratt,I,t,158,,1467.0,562560.4000005722,9007,WL,A,4.0
4,9.983000040054321,learn,50016.99995994568,Fri Jan 10 2025 10:53:28 GMT-0500 (Eastern Standard Time),564126.6000003815,A,rattl,I,l,87,,1566.1999998092651,562560.4000005722,9007,WL,A,4.0
4,10.266999959945679,learn,49733.00004005432,Fri Jan 10 2025 10:53:28 GMT-0500 (Eastern Standard Time),564410.8000001907,A,rattle,I,e,257,,1850.3999996185303,562560.4000005722,9007,WL,A,4.0
4,11.233000040054321,learn,48766.99995994568,Fri Jan 10 2025 10:53:28 GMT-0500 (Eastern Standard Time),565376.8000001907,A,rattleenter,I,enter,951,,2816.3999996185303,562560.4000005722,9007,WL,A,4.0
4,11.783999919891357,learn,48216.00008010864,Fri Jan 10 2025 10:53:28 GMT-0500 (Eastern Standard Time),565927.1000003815,A,c,I,c,532,,550.0,565377.1000003815,9007,WL,A,5.0
4,12.0,learn,48000.0,Fri Jan 10 2025 10:53:28 GMT-0500 (Eastern Standard Time),566143.3000001907,A,ch,I,h,204,,766.1999998092651,565377.1000003815,9007,WL,A,5.0
4,12.233999967575073,learn,47766.00003242493,Fri Jan 10 2025 10:53:28 GMT-0500 (Eastern Standard Time),566377.1999998093,A,chi,I,i,214,,1000.0999994277954,565377.1000003815,9007,WL,A,5.0
4,12.766999959945679,learn,47233.00004005432,Fri Jan 10 2025 10:53:28 GMT-0500 (Eastern Standard Time),566910.6999998093,A,chim,I,m,522,,1533.5999994277954,565377.1000003815,9007,WL,A,5.0
4,13.08400011062622,learn,46915.99988937378,Fri Jan 10 2025 10:53:28 GMT-0500 (Eastern Standard Time),567227.3000001907,A,chimn,I,n,293,,1850.1999998092651,565377.1000003815,9007,WL,A,5.0
4,13.266999959945679,learn,46733.00004005432,Fri Jan 10 2025 10:53:28 GMT-0500 (Eastern Standard Time),567410.8000001907,A,chimne,I,e,166,,2033.6999998092651,565377.1000003815,9007,WL,A,5.0
4,13.516999959945679,learn,46483.00004005432,Fri Jan 10 2025 10:53:28 GMT-0500 (Eastern Standard Time),567660.3000001907,A,chimney,I,y,214,,2283.199999809265,565377.1000003815,9007,WL,A,5.0
4,14.200000047683716,learn,45799.999952316284,Fri Jan 10 2025 10:53:28 GMT-0500 (Eastern Standard Time),568343.4000005722,A,chimneyenter,I,enter,661,,2966.300000190735,565377.1000003815,9007,WL,A,5.0
4,14.634000062942505,learn,45365.999937057495,Fri Jan 10 2025 10:53:28 GMT-0500 (Eastern Standard Time),568777.1999998093,A,f,I,f,414,,433.5,568343.6999998093,9007,WL,A,6.0
4,14.766999959945679,learn,45233.00004005432,Fri Jan 10 2025 10:53:28 GMT-0500 (Eastern Standard Time),568910.5,A,fl,I,l,106,,566.8000001907349,568343.6999998093,9007,WL,A,6.0
4,14.967000007629395,learn,45032.999992370605,Fri Jan 10 2025 10:53:28 GMT-0500 (Eastern Standard Time),569110.6000003815,A,flo,I,o,171,,766.9000005722046,568343.6999998093,9007,WL,A,6.0
4,15.16700005531311,learn,44832.99994468689,Fri Jan 10 2025 10:53:28 GMT-0500 (Eastern Standard Time),569310.6000003815,A,flow,I,w,171,,966.9000005722046,568343.6999998093,9007,WL,A,6.0
4,15.400000095367432,learn,44599.99990463257,Fri Jan 10 2025 10:53:28 GMT-0500 (Eastern Standard Time),569543.8000001907,A,flowe,I,e,212,,1200.1000003814697,568343.6999998093,9007,WL,A,6.0
4,15.684000015258789,learn,44315.99998474121,Fri Jan 10 2025 10:53:28 GMT-0500 (Eastern Standard Time),569827.3000001907,A,flower,I,r,266,,1483.6000003814697,568343.6999998093,9007,WL,A,6.0
4,16.133000135421753,learn,43866.99986457825,Fri Jan 10 2025 10:53:28 GMT-0500 (Eastern Standard Time),570276.6999998093,A,flowers,I,s,430,,1933.0,568343.6999998093,9007,WL,A,6.0
4,16.500999927520752,learn,43499.00007247925,Fri Jan 10 2025 10:53:28 GMT-0500 (Eastern Standard Time),570644.3000001907,A,flowersenter,I,enter,353,,2300.6000003814697,568343.6999998093,9007,WL,A,6.0
4,17.01699995994568,learn,42983.00004005432,Fri Jan 10 2025 10:53:28 GMT-0500 (Eastern Standard Time),571160.6999998093,A,m,I,m,498,,516.0999994277954,570644.6000003815,9007,WL,A,7.0
4,17.18400001525879,learn,42815.99998474121,Fri Jan 10 2025 10:53:28 GMT-0500 (Eastern Standard Time),571327.4000005722,A,me,I,e,138,,682.8000001907349,570644.6000003815,9007,WL,A,7.0
4,17.40000009536743,learn,42599.99990463257,Fri Jan 10 2025 10:53:28 GMT-0500 (Eastern Standard Time),571543.8000001907,A,mea,I,a,194,,899.1999998092651,570644.6000003815,9007,WL,A,7.0
4,17.617000102996826,learn,42382.999897003174,Fri Jan 10 2025 10:53:28 GMT-0500 (Eastern Standard Time),571760.6000003815,A,mead,I,d,203,,1116.0,570644.6000003815,9007,WL,A,7.0
4,17.867000102996826,learn,42132.999897003174,Fri Jan 10 2025 10:53:28 GMT-0500 (Eastern Standard Time),572010.5,A,meado,I,o,224,,1365.8999996185303,570644.6000003815,9007,WL,A,7.0
4,18.117000102996826,learn,41882.999897003174,Fri Jan 10 2025 10:53:28 GMT-0500 (Eastern Standard Time),572260.6999998093,A,meadow,I,w,228,,1616.0999994277954,570644.6000003815,9007,WL,A,7.0
4,19.40000009536743,learn,40599.99990463257,Fri Jan 10 2025 10:53:28 GMT-0500 (Eastern Standard Time),573543.5,A,meadowenter,I,enter,1262,,2898.8999996185303,570644.6000003815,9007,WL,A,7.0
4,21.000999927520752,learn,38999.00007247925,Fri Jan 10 2025 10:53:28 GMT-0500 (Eastern Standard Time),575144.0,A,r,I,r,1582,,1600.0999994277954,573543.9000005722,9007,WL,A,8.0
4,21.151000022888184,learn,38848.99997711182,Fri Jan 10 2025 10:53:28 GMT-0500 (Eastern Standard Time),575293.9000005722,A,ru,I,u,122,,1750.0,573543.9000005722,9007,WL,A,8.0
4,21.551000118255615,learn,38448.999881744385,Fri Jan 10 2025 10:53:28 GMT-0500 (Eastern Standard Time),575694.0,A,rug,I,g,364,,2150.0999994277954,573543.9000005722,9007,WL,A,8.0
4,22.91700005531311,learn,37082.99994468689,Fri Jan 10 2025 10:53:28 GMT-0500 (Eastern Standard Time),577060.1000003815,A,rugenter,I,enter,1349,,3516.199999809265,573543.9000005722,9007,WL,A,8.0
4,24.68400001525879,learn,35315.99998474121,Fri Jan 10 2025 10:53:28 GMT-0500 (Eastern Standard Time),578827.3000001907,A,a,I,a,1745,,1766.8000001907349,577060.5,9007,WL,A,9.0
4,24.950000047683716,learn,35049.999952316284,Fri Jan 10 2025 10:53:28 GMT-0500 (Eastern Standard Time),579093.6000003815,A,ap,I,p,238,,2033.1000003814697,577060.5,9007,WL,A,9.0
4,25.08400011062622,learn,34915.99988937378,Fri Jan 10 2025 10:53:28 GMT-0500 (Eastern Standard Time),579227.1999998093,A,app,I,p,107,,2166.699999809265,577060.5,9007,WL,A,9.0
4,25.301000118255615,learn,34698.999881744385,Fri Jan 10 2025 10:53:28 GMT-0500 (Eastern Standard Time),579444.0,A,appl,I,l,199,,2383.5,577060.5,9007,WL,A,9.0
4,25.467000007629395,learn,34532.999992370605,Fri Jan 10 2025 10:53:28 GMT-0500 (Eastern Standard Time),579610.1999998093,A,apple,I,e,143,,2549.699999809265,577060.5,9007,WL,A,9.0
4,25.75,learn,34250.0,Fri Jan 10 2025 10:53:28 GMT-0500 (Eastern Standard Time),579893.3000001907,A,appleenter,I,enter,265,,2832.800000190735,577060.5,9007,WL,A,9.0
4,26.067000150680542,learn,33932.99984931946,Fri Jan 10 2025 10:53:28 GMT-0500 (Eastern Standard Time),580210.6000003815,A,s,I,s,304,,317.0,579893.6000003815,9007,WL,A,10.0
4,26.26699995994568,learn,33733.00004005432,Fri Jan 10 2025 10:53:28 GMT-0500 (Eastern Standard Time),580410.6000003815,A,sa,I,a,176,,517.0,579893.6000003815,9007,WL,A,10.0
4,26.384000062942505,learn,33615.999937057495,Fri Jan 10 2025 10:53:28 GMT-0500 (Eastern Standard Time),580526.9000005722,A,sal,I,l,104,,633.3000001907349,579893.6000003815,9007,WL,A,10.0
4,26.799999952316284,learn,33200.000047683716,Fri Jan 10 2025 10:53:28 GMT-0500 (Eastern Standard Time),580943.6999998093,A,salt,I,t,404,,1050.0999994277954,579893.6000003815,9007,WL,A,10.0
4,27.100000143051147,learn,32899.99985694885,Fri Jan 10 2025 10:53:28 GMT-0500 (Eastern Standard Time),581243.3000001907,A,saltenter,I,enter,275,,1349.6999998092651,579893.6000003815,9007,WL,A,10.0
4,27.567000150680542,learn,32432.999849319458,Fri Jan 10 2025 10:53:28 GMT-0500 (Eastern Standard Time),581710.5,A,f,I,f,442,,466.80000019073486,581243.6999998093,9007,WL,A,11.0
4,27.76699995994568,learn,32233.00004005432,Fri Jan 10 2025 10:53:28 GMT-0500 (Eastern Standard Time),581910.6000003815,A,fi,I,i,180,,666.9000005722046,581243.6999998093,9007,WL,A,11.0
4,28.032999992370605,learn,31967.000007629395,Fri Jan 10 2025 10:53:28 GMT-0500 (Eastern Standard Time),582176.8000001907,A,fin,I,n,250,,933.1000003814697,581243.6999998093,9007,WL,A,11.0
4,28.217000007629395,learn,31782.999992370605,Fri Jan 10 2025 10:53:28 GMT-0500 (Eastern Standard Time),582360.6999998093,A,fing,I,g,164,,1117.0,581243.6999998093,9007,WL,A,11.0
4,28.43400001525879,learn,31565.99998474121,Fri Jan 10 2025 10:53:28 GMT-0500 (Eastern Standard Time),582577.3000001907,A,finge,I,e,202,,1333.6000003814697,581243.6999998093,9007,WL,A,11.0
4,28.567000150680542,learn,31432.999849319458,Fri Jan 10 2025 10:53:28 GMT-0500 (Eastern Standard Time),582710.6000003815,A,finger,I,r,113,,1466.9000005722046,581243.6999998093,9007,WL,A,11.0
4,28.799999952316284,learn,31200.000047683716,Fri Jan 10 2025 10:53:28 GMT-0500 (Eastern Standard Time),582943.4000005722,A,fingerenter,I,enter,211,,1699.7000007629395,581243.6999998093,9007,WL,A,11.0
4,31.6010000705719,learn,28398.9999294281,Fri Jan 10 2025 10:53:28 GMT-0500 (Eastern Standard Time),585744.6999998093,A,b,I,b,2791,,2800.8999996185303,582943.8000001907,9007,WL,A,12.0
4,31.884000062942505,learn,28115.999937057495,Fri Jan 10 2025 10:53:28 GMT-0500 (Eastern Standard Time),586027.1999998093,A,bu,I,u,259,,3083.3999996185303,582943.8000001907,9007,WL,A,12.0
4,32.051000118255615,learn,27948.999881744385,Fri Jan 10 2025 10:53:28 GMT-0500 (Eastern Standard Time),586194.0,A,but,I,t,151,,3250.199999809265,582943.8000001907,9007,WL,A,12.0
4,32.25099992752075,learn,27749.000072479248,Fri Jan 10 2025 10:53:28 GMT-0500 (Eastern Standard Time),586394.0,A,butt,I,t,168,,3450.199999809265,582943.8000001907,9007,WL,A,12.0
4,32.40000009536743,learn,27599.99990463257,Fri Jan 10 2025 10:53:28 GMT-0500 (Eastern Standard Time),586543.8000001907,A,butto,I,o,136,,3600.0,582943.8000001907,9007,WL,A,12.0
4,32.70099997520447,learn,27299.000024795532,Fri Jan 10 2025 10:53:28 GMT-0500 (Eastern Standard Time),586844.0,A,button,I,n,266,,3900.199999809265,582943.8000001907,9007,WL,A,12.0
4,33.26699995994568,learn,26733.00004005432,Fri Jan 10 2025 10:53:28 GMT-0500 (Eastern Standard Time),587410.1999998093,A,buttonenter,I,enter,552,,4466.39999961853,582943.8000001907,9007,WL,A,12.0
4,43.53399991989136,learn,16466.000080108643,Fri Jan 10 2025 10:53:28 GMT-0500 (Eastern Standard Time),597676.9000005722,A,b,I,b,10243,,10266.400000572205,587410.5,9007,WL,A,13.0
4,44.58400011062622,learn,15415.99988937378,Fri Jan 10 2025 10:53:28 GMT-0500 (Eastern Standard Time),598727.0,A,,I,backspace,1030,,11316.5,587410.5,9007,WL,A,13.0
4,55.117000102996826,learn,4882.999897003174,Fri Jan 10 2025 10:53:28 GMT-0500 (Eastern Standard Time),609260.5,A,t,I,t,10510,,21850.0,587410.5,9007,WL,A,13.0
4,55.31700015068054,learn,4682.999849319458,Fri Jan 10 2025 10:53:28 GMT-0500 (Eastern Standard Time),609460.8000001907,A,tr,I,r,182,,22050.300000190735,587410.5,9007,WL,A,13.0
4,55.551000118255615,learn,4448.999881744385,Fri Jan 10 2025 10:53:28 GMT-0500 (Eastern Standard Time),609694.0,A,tra,I,a,205,,22283.5,587410.5,9007,WL,A,13.0
4,55.651000022888184,learn,4348.999977111816,Fri Jan 10 2025 10:53:28 GMT-0500 (Eastern Standard Time),609794.0,A,trai,I,i,85,,22383.5,587410.5,9007,WL,A,13.0
4,55.884000062942505,learn,4115.999937057495,Fri Jan 10 2025 10:53:28 GMT-0500 (Eastern Standard Time),610027.1000003815,A,train,I,n,202,,22616.60000038147,587410.5,9007,WL,A,13.0
4,56.200000047683716,learn,3799.999952316284,Fri Jan 10 2025 10:53:28 GMT-0500 (Eastern Standard Time),610343.6000003815,A,trainenter,I,enter,295,,22933.10000038147,587410.5,9007,WL,A,13.0
4,60.01699995994568,learn,-16.99995994567871,Fri Jan 10 2025 10:53:28 GMT-0500 (Eastern Standard Time),614160.5,A,None,I,None,3808,,3816.5999994277954,610343.9000005722,9007,WL,A,14.0
5,1.2999999523162842,learn,60000.0,Fri Jan 10 2025 10:53:28 GMT-0500 (Eastern Standard Time),691177.1999998093,A,b,I,b,1278,,1299.2999992370605,689877.9000005722,9007,WL,A,1.0
5,1.7660000324249268,learn,60000.0,Fri Jan 10 2025 10:53:28 GMT-0500 (Eastern Standard Time),691643.8000001907,A,bo,I,o,443,,1765.8999996185303,689877.9000005722,9007,WL,A,1.0
5,1.9500000476837158,learn,60000.0,Fri Jan 10 2025 10:53:28 GMT-0500 (Eastern Standard Time),691827.5,A,boo,I,o,170,,1949.5999994277954,689877.9000005722,9007,WL,A,1.0
5,2.2660000324249268,learn,60000.0,Fri Jan 10 2025 10:53:28 GMT-0500 (Eastern Standard Time),692143.8000001907,A,book,I,k,303,,2265.8999996185303,689877.9000005722,9007,WL,A,1.0
5,3.183000087738037,learn,60000.0,Fri Jan 10 2025 10:53:28 GMT-0500 (Eastern Standard Time),693060.1999998093,A,bookenter,I,enter,899,,3182.2999992370605,689877.9000005722,9007,WL,A,1.0
5,3.700000047683716,learn,60000.0,Fri Jan 10 2025 10:53:28 GMT-0500 (Eastern Standard Time),693577.6000003815,A,k,I,k,499,,517.1000003814697,693060.5,9007,WL,A,2.0
5,4.0,learn,60000.0,Fri Jan 10 2025 10:53:28 GMT-0500 (Eastern Standard Time),693877.5,A,ke,I,e,282,,817.0,693060.5,9007,WL,A,2.0
5,4.25,learn,60000.0,Fri Jan 10 2025 10:53:28 GMT-0500 (Eastern Standard Time),694127.5,A,key,I,y,222,,1067.0,693060.5,9007,WL,A,2.0
5,5.065999984741211,learn,60000.0,Fri Jan 10 2025 10:53:28 GMT-0500 (Eastern Standard Time),694943.6000003815,A,keyenter,I,enter,803,,1883.1000003814697,693060.5,9007,WL,A,2.0
5,5.5329999923706055,learn,60000.0,Fri Jan 10 2025 10:53:28 GMT-0500 (Eastern Standard Time),695410.6999998093,A,l,I,l,455,,466.79999923706055,694943.9000005722,9007,WL,A,3.0
5,5.7829999923706055,learn,60000.0,Fri Jan 10 2025 10:53:28 GMT-0500 (Eastern Standard Time),695660.6999998093,A,lo,I,o,224,,716.7999992370605,694943.9000005722,9007,WL,A,3.0
5,6.3500001430511475,learn,60000.0,Fri Jan 10 2025 10:53:28 GMT-0500 (Eastern Standard Time),696227.4000005722,A,log,I,g,545,,1283.5,694943.9000005722,9007,WL,A,3.0
5,7.133000135421753,learn,60000.0,Fri Jan 10 2025 10:53:28 GMT-0500 (Eastern Standard Time),697010.3000001907,A,logenter,I,enter,767,,2066.3999996185303,694943.9000005722,9007,WL,A,3.0
5,7.700000047683716,learn,60000.0,Fri Jan 10 2025 10:53:28 GMT-0500 (Eastern Standard Time),697577.4000005722,A,r,I,r,549,,566.8000001907349,697010.6000003815,9007,WL,A,4.0
5,7.834000110626221,learn,60000.0,Fri Jan 10 2025 10:53:28 GMT-0500 (Eastern Standard Time),697711.0,A,ru,I,u,121,,700.3999996185303,697010.6000003815,9007,WL,A,4.0
5,8.433000087738037,learn,60000.0,Fri Jan 10 2025 10:53:28 GMT-0500 (Eastern Standard Time),698310.4000005722,A,rug,I,g,571,,1299.8000001907349,697010.6000003815,9007,WL,A,4.0
5,9.315999984741211,learn,60000.0,Fri Jan 10 2025 10:53:28 GMT-0500 (Eastern Standard Time),699193.6000003815,A,rugenter,I,enter,859,,2183.0,697010.6000003815,9007,WL,A,4.0
5,10.0,learn,60000.0,Fri Jan 10 2025 10:53:28 GMT-0500 (Eastern Standard Time),699877.5,A,s,I,s,669,,683.5999994277954,699193.9000005722,9007,WL,A,5.0
5,10.25,learn,60000.0,Fri Jan 10 2025 10:53:28 GMT-0500 (Eastern Standard Time),700127.1000003815,A,sa,I,a,237,,933.1999998092651,699193.9000005722,9007,WL,A,5.0
5,10.433000087738037,learn,60000.0,Fri Jan 10 2025 10:53:28 GMT-0500 (Eastern Standard Time),700310.6999998093,A,sal,I,l,163,,1116.7999992370605,699193.9000005722,9007,WL,A,5.0
5,10.833000183105469,learn,60000.0,Fri Jan 10 2025 10:53:28 GMT-0500 (Eastern Standard Time),700710.8000001907,A,salt,I,t,381,,1516.8999996185303,699193.9000005722,9007,WL,A,5.0
5,12.166000127792358,learn,60000.0,Fri Jan 10 2025 10:53:28 GMT-0500 (Eastern Standard Time),702043.6000003815,A,saltenter,I,enter,1307,,2849.699999809265,699193.9000005722,9007,WL,A,5.0
5,12.717000007629395,learn,60000.0,Fri Jan 10 2025 10:53:28 GMT-0500 (Eastern Standard Time),702594.0,A,f,I,f,537,,550.0,702044.0,9007,WL,A,6.0
5,12.900000095367432,learn,60000.0,Fri Jan 10 2025 10:53:28 GMT-0500 (Eastern Standard Time),702777.1999998093,A,fi,I,i,161,,733.1999998092651,702044.0,9007,WL,A,6.0
5,13.183000087738037,learn,60000.0,Fri Jan 10 2025 10:53:28 GMT-0500 (Eastern Standard Time),703060.3000001907,A,fin,I,n,263,,1016.3000001907349,702044.0,9007,WL,A,6.0
5,13.467000007629395,learn,60000.0,Fri Jan 10 2025 10:53:28 GMT-0500 (Eastern Standard Time),703343.9000005722,A,fing,I,g,268,,1299.9000005722046,702044.0,9007,WL,A,6.0
5,13.650000095367432,learn,60000.0,Fri Jan 10 2025 10:53:28 GMT-0500 (Eastern Standard Time),703526.9000005722,A,finge,I,e,163,,1482.9000005722046,702044.0,9007,WL,A,6.0
5,13.866000175476074,learn,60000.0,Fri Jan 10 2025 10:53:28 GMT-0500 (Eastern Standard Time),703743.8000001907,A,finger,I,r,206,,1699.8000001907349,702044.0,9007,WL,A,6.0
5,15.151000022888184,learn,60000.0,Fri Jan 10 2025 10:53:28 GMT-0500 (Eastern Standard Time),705028.0,A,fingerenter,I,enter,1267,,2984.0,702044.0,9007,WL,A,6.0
5,16.467000007629395,learn,60000.0,Fri Jan 10 2025 10:53:28 GMT-0500 (Eastern Standard Time),706344.1000003815,A,r,I,r,1297,,1315.6999998092651,705028.4000005722,9007,WL,A,7.0
5,16.73300004005432,learn,60000.0,Fri Jan 10 2025 10:53:28 GMT-0500 (Eastern Standard Time),706610.5,A,ra,I,a,250,,1582.0999994277954,705028.4000005722,9007,WL,A,7.0
5,17.032999992370605,learn,60000.0,Fri Jan 10 2025 10:53:28 GMT-0500 (Eastern Standard Time),706910.8000001907,A,rat,I,t,275,,1882.3999996185303,705028.4000005722,9007,WL,A,7.0
5,17.200999975204468,learn,60000.0,Fri Jan 10 2025 10:53:28 GMT-0500 (Eastern Standard Time),707078.1999998093,A,ratt,I,t,147,,2049.7999992370605,705028.4000005722,9007,WL,A,7.0
5,17.367000102996826,learn,60000.0,Fri Jan 10 2025 10:53:28 GMT-0500 (Eastern Standard Time),707244.0,A,rattl,I,l,143,,2215.5999994277954,705028.4000005722,9007,WL,A,7.0
5,17.567000150680542,learn,60000.0,Fri Jan 10 2025 10:53:28 GMT-0500 (Eastern Standard Time),707444.1000003815,A,rattle,I,e,173,,2415.699999809265,705028.4000005722,9007,WL,A,7.0
5,17.933000087738037,learn,60000.0,Fri Jan 10 2025 10:53:28 GMT-0500 (Eastern Standard Time),707810.3000001907,A,rattleenter,I,enter,351,,2781.8999996185303,705028.4000005722,9007,WL,A,7.0
5,18.549999952316284,learn,60000.0,Fri Jan 10 2025 10:53:28 GMT-0500 (Eastern Standard Time),708427.4000005722,A,f,I,f,595,,616.8000001907349,707810.6000003815,9007,WL,A,8.0
5,18.700000047683716,learn,60000.0,Fri Jan 10 2025 10:53:28 GMT-0500 (Eastern Standard Time),708577.4000005722,A,fl,I,l,136,,766.8000001907349,707810.6000003815,9007,WL,A,8.0
5,18.933000087738037,learn,60000.0,Fri Jan 10 2025 10:53:28 GMT-0500 (Eastern Standard Time),708810.6999998093,A,flo,I,o,200,,1000.0999994277954,707810.6000003815,9007,WL,A,8.0
5,19.117000102996826,learn,60000.0,Fri Jan 10 2025 10:53:28 GMT-0500 (Eastern Standard Time),708994.0,A,flow,I,w,167,,1183.3999996185303,707810.6000003815,9007,WL,A,8.0
5,19.41700005531311,learn,60000.0,Fri Jan 10 2025 10:53:28 GMT-0500 (Eastern Standard Time),709294.1000003815,A,flowe,I,e,271,,1483.5,707810.6000003815,9007,WL,A,8.0
5,19.65000009536743,learn,60000.0,Fri Jan 10 2025 10:53:28 GMT-0500 (Eastern Standard Time),709527.5,A,flower,I,r,212,,1716.8999996185303,707810.6000003815,9007,WL,A,8.0
5,20.467000007629395,learn,60000.0,Fri Jan 10 2025 10:53:28 GMT-0500 (Eastern Standard Time),710344.6999998093,A,flowerenter,I,enter,795,,2534.0999994277954,707810.6000003815,9007,WL,A,8.0
5,21.117000102996826,learn,60000.0,Fri Jan 10 2025 10:53:28 GMT-0500 (Eastern Standard Time),710994.1999998093,A,m,I,m,637,,649.0999994277954,710345.1000003815,9007,WL,A,9.0
5,21.282999992370605,learn,60000.0,Fri Jan 10 2025 10:53:28 GMT-0500 (Eastern Standard Time),711160.8000001907,A,me,I,e,142,,815.6999998092651,710345.1000003815,9007,WL,A,9.0
5,21.466000080108643,learn,60000.0,Fri Jan 10 2025 10:53:28 GMT-0500 (Eastern Standard Time),711343.9000005722,A,mea,I,a,170,,998.8000001907349,710345.1000003815,9007,WL,A,9.0
5,21.782999992370605,learn,60000.0,Fri Jan 10 2025 10:53:28 GMT-0500 (Eastern Standard Time),711660.6999998093,A,mead,I,d,285,,1315.5999994277954,710345.1000003815,9007,WL,A,9.0
5,22.01699995994568,learn,60000.0,Fri Jan 10 2025 10:53:28 GMT-0500 (Eastern Standard Time),711894.1000003815,A,meado,I,o,214,,1549.0,710345.1000003815,9007,WL,A,9.0
5,22.282999992370605,learn,60000.0,Fri Jan 10 2025 10:53:28 GMT-0500 (Eastern Standard Time),712160.6999998093,A,meadow,I,w,244,,1815.5999994277954,710345.1000003815,9007,WL,A,9.0
5,23.06599998474121,learn,60000.0,Fri Jan 10 2025 10:53:28 GMT-0500 (Eastern Standard Time),712943.5,A,meadowenter,I,enter,770,,2598.3999996185303,710345.1000003815,9007,WL,A,9.0
5,23.549999952316284,learn,60000.0,Fri Jan 10 2025 10:53:28 GMT-0500 (Eastern Standard Time),713427.0,A,c,I,c,470,,483.0999994277954,712943.9000005722,9007,WL,A,10.0
5,23.76699995994568,learn,60000.0,Fri Jan 10 2025 10:53:28 GMT-0500 (Eastern Standard Time),713644.1000003815,A,ch,I,h,195,,700.1999998092651,712943.9000005722,9007,WL,A,10.0
5,24.01699995994568,learn,60000.0,Fri Jan 10 2025 10:53:28 GMT-0500 (Eastern Standard Time),713894.1999998093,A,chi,I,i,230,,950.2999992370605,712943.9000005722,9007,WL,A,10.0
5,24.450000047683716,learn,60000.0,Fri Jan 10 2025 10:53:28 GMT-0500 (Eastern Standard Time),714327.5,A,chim,I,m,411,,1383.5999994277954,712943.9000005722,9007,WL,A,10.0
5,24.75,learn,60000.0,Fri Jan 10 2025 10:53:28 GMT-0500 (Eastern Standard Time),714627.4000005722,A,chimn,I,n,284,,1683.5,712943.9000005722,9007,WL,A,10.0
5,24.98300004005432,learn,60000.0,Fri Jan 10 2025 10:53:28 GMT-0500 (Eastern Standard Time),714860.8000001907,A,chimne,I,e,208,,1916.8999996185303,712943.9000005722,9007,WL,A,10.0
5,25.183000087738037,learn,60000.0,Fri Jan 10 2025 10:53:28 GMT-0500 (Eastern Standard Time),715060.6000003815,A,chimney,I,y,181,,2116.699999809265,712943.9000005722,9007,WL,A,10.0
5,25.90000009536743,learn,60000.0,Fri Jan 10 2025 10:53:28 GMT-0500 (Eastern Standard Time),715776.9000005722,A,chimneyenter,I,enter,693,,2833.0,712943.9000005722,9007,WL,A,10.0
5,26.367000102996826,learn,60000.0,Fri Jan 10 2025 10:53:28 GMT-0500 (Eastern Standard Time),716244.1000003815,A,b,I,b,453,,466.9000005722046,715777.1999998093,9007,WL,A,11.0
5,26.567000150680542,learn,60000.0,Fri Jan 10 2025 10:53:28 GMT-0500 (Eastern Standard Time),716444.0,A,bu,I,u,173,,666.8000001907349,715777.1999998093,9007,WL,A,11.0
5,26.76699995994568,learn,60000.0,Fri Jan 10 2025 10:53:28 GMT-0500 (Eastern Standard Time),716644.0,A,but,I,t,179,,866.8000001907349,715777.1999998093,9007,WL,A,11.0
5,26.950000047683716,learn,60000.0,Fri Jan 10 2025 10:53:28 GMT-0500 (Eastern Standard Time),716827.3000001907,A,butt,I,t,159,,1050.1000003814697,715777.1999998093,9007,WL,A,11.0
5,27.116000175476074,learn,60000.0,Fri Jan 10 2025 10:53:28 GMT-0500 (Eastern Standard Time),716993.6999998093,A,butto,I,o,150,,1216.5,715777.1999998093,9007,WL,A,11.0
5,27.43400001525879,learn,60000.0,Fri Jan 10 2025 10:53:28 GMT-0500 (Eastern Standard Time),717311.0,A,button,I,n,308,,1533.8000001907349,715777.1999998093,9007,WL,A,11.0
5,28.23300004005432,learn,60000.0,Fri Jan 10 2025 10:53:28 GMT-0500 (Eastern Standard Time),718110.1999998093,A,buttonenter,I,enter,773,,2333.0,715777.1999998093,9007,WL,A,11.0
5,29.450000047683716,learn,60000.0,Fri Jan 10 2025 10:53:28 GMT-0500 (Eastern Standard Time),719327.3000001907,A,h,I,h,1208,,1216.6999998092651,718110.6000003815,9007,WL,A,12.0
5,29.617000102996826,learn,60000.0,Fri Jan 10 2025 10:53:28 GMT-0500 (Eastern Standard Time),719494.1999998093,A,ha,I,a,146,,1383.5999994277954,718110.6000003815,9007,WL,A,12.0
5,29.933000087738037,learn,60000.0,Fri Jan 10 2025 10:53:28 GMT-0500 (Eastern Standard Time),719810.9000005722,A,har,I,r,293,,1700.3000001907349,718110.6000003815,9007,WL,A,12.0
5,30.249000072479248,learn,60000.0,Fri Jan 10 2025 10:53:28 GMT-0500 (Eastern Standard Time),720126.6999998093,A,harp,I,p,304,,2016.0999994277954,718110.6000003815,9007,WL,A,12.0
5,30.90000009536743,learn,60000.0,Fri Jan 10 2025 10:53:28 GMT-0500 (Eastern Standard Time),720777.8000001907,A,harpenter,I,enter,630,,2667.199999809265,718110.6000003815,9007,WL,A,12.0
5,45.56700015068054,learn,60000.0,Fri Jan 10 2025 10:53:28 GMT-0500 (Eastern Standard Time),735444.1999998093,A,g,I,g,14652,,14666.099999427795,720778.1000003815,9007,WL,A,13.0
5,45.66700005531311,learn,60000.0,Fri Jan 10 2025 10:53:28 GMT-0500 (Eastern Standard Time),735544.3000001907,A,go,I,o,79,,14766.199999809265,720778.1000003815,9007,WL,A,13.0
5,45.90000009536743,learn,60000.0,Fri Jan 10 2025 10:53:28 GMT-0500 (Eastern Standard Time),735777.4000005722,A,gol,I,l,218,,14999.300000190735,720778.1000003815,9007,WL,A,13.0
5,46.01699995994568,learn,60000.0,Fri Jan 10 2025 10:53:28 GMT-0500 (Eastern Standard Time),735894.0,A,gold,I,d,88,,15115.89999961853,720778.1000003815,9007,WL,A,13.0
5,46.29900002479553,learn,60000.0,Fri Jan 10 2025 10:53:28 GMT-0500 (Eastern Standard Time),736176.8000001907,A,goldenter,I,enter,260,,15398.699999809265,720778.1000003815,9007,WL,A,13.0
5,54.0,learn,60000.0,Fri Jan 10 2025 10:53:28 GMT-0500 (Eastern Standard Time),743877.4000005722,A,t,I,t,7685,,7700.300000190735,736177.1000003815,9007,WL,A,14.0
5,54.200000047683716,learn,60000.0,Fri Jan 10 2025 10:53:28 GMT-0500 (Eastern Standard Time),744077.1999998093,A,tr,I,r,171,,7900.099999427795,736177.1000003815,9007,WL,A,14.0
5,54.43300008773804,learn,60000.0,Fri Jan 10 2025 10:53:28 GMT-0500 (Eastern Standard Time),744310.6999998093,A,tra,I,a,206,,8133.599999427795,736177.1000003815,9007,WL,A,14.0
5,54.58300018310547,learn,60000.0,Fri Jan 10 2025 10:53:28 GMT-0500 (Eastern Standard Time),744460.6999998093,A,trai,I,i,125,,8283.599999427795,736177.1000003815,9007,WL,A,14.0
5,54.81700015068054,learn,60000.0,Fri Jan 10 2025 10:53:28 GMT-0500 (Eastern Standard Time),744694.1999998093,A,train,I,n,214,,8517.099999427795,736177.1000003815,9007,WL,A,14.0
5,55.73300004005432,learn,60000.0,Fri Jan 10 2025 10:53:28 GMT-0500 (Eastern Standard Time),745610.3000001907,A,trainenter,I,enter,884,,9433.199999809265,736177.1000003815,9007,WL,A,14.0
5,115.75,learn,60000.0,Fri Jan 10 2025 10:53:28 GMT-0500 (Eastern Standard Time),805627.6999998093,A,None,I,None,60008,,60017.099999427795,745610.6000003815,9007,WL,A,15.0
6,1.2839999198913574,distr,58716.00008010864,Fri Jan 10 2025 10:53:28 GMT-0500 (Eastern Standard Time),888511.1000003815,B,b,I,b,1272,,1283.1000003814697,887228.0,9007,WL,A,1.0
6,1.6999998092651367,distr,58300.00019073486,Fri Jan 10 2025 10:53:28 GMT-0500 (Eastern Standard Time),888927.6000003815,B,bo,I,o,405,,1699.6000003814697,887228.0,9007,WL,A,1.0
6,2.116999864578247,distr,57883.00013542175,Fri Jan 10 2025 10:53:28 GMT-0500 (Eastern Standard Time),889344.0,B,bow,I,w,404,,2116.0,887228.0,9007,WL,A,1.0
6,2.5,distr,57500.0,Fri Jan 10 2025 10:53:28 GMT-0500 (Eastern Standard Time),889727.3000001907,B,bowl,I,l,372,,2499.300000190735,887228.0,9007,WL,A,1.0
6,3.6669998168945312,distr,56333.00018310547,Fri Jan 10 2025 10:53:28 GMT-0500 (Eastern Standard Time),890893.9000005722,B,bowlenter,I,enter,1141,,3665.9000005722046,887228.0,9007,WL,A,1.0
6,4.316999912261963,distr,55683.00008773804,Fri Jan 10 2025 10:53:28 GMT-0500 (Eastern Standard Time),891544.6000003815,B,d,I,d,632,,650.1999998092651,890894.4000005722,9007,WL,A,2.0
6,4.5,distr,55500.0,Fri Jan 10 2025 10:53:28 GMT-0500 (Eastern Standard Time),891727.5,B,da,I,a,172,,833.0999994277954,890894.4000005722,9007,WL,A,2.0
6,5.0,distr,55000.0,Fri Jan 10 2025 10:53:28 GMT-0500 (Eastern Standard Time),892227.5,B,daw,I,w,474,,1333.0999994277954,890894.4000005722,9007,WL,A,2.0
6,5.266999959945679,distr,54733.00004005432,Fri Jan 10 2025 10:53:28 GMT-0500 (Eastern Standard Time),892494.3000001907,B,dawn,I,n,234,,1599.8999996185303,890894.4000005722,9007,WL,A,2.0
6,6.233000040054321,distr,53766.99995994568,Fri Jan 10 2025 10:53:28 GMT-0500 (Eastern Standard Time),893460.5,B,dawnenter,I,enter,948,,2566.0999994277954,890894.4000005722,9007,WL,A,2.0
6,7.599999904632568,distr,52400.00009536743,Fri Jan 10 2025 10:53:28 GMT-0500 (Eastern Standard Time),894827.5,B,j,I,j,1346,,1366.6999998092651,893460.8000001907,9007,WL,A,3.0
6,7.949999809265137,distr,52050.00019073486,Fri Jan 10 2025 10:53:28 GMT-0500 (Eastern Standard Time),895177.6999998093,B,ju,I,u,320,,1716.8999996185303,893460.8000001907,9007,WL,A,3.0
6,8.849999904632568,distr,51150.00009536743,Fri Jan 10 2025 10:53:28 GMT-0500 (Eastern Standard Time),896077.6000003815,B,jud,I,d,873,,2616.800000190735,893460.8000001907,9007,WL,A,3.0
6,9.25,distr,50750.0,Fri Jan 10 2025 10:53:28 GMT-0500 (Eastern Standard Time),896477.4000005722,B,judg,I,g,371,,3016.6000003814697,893460.8000001907,9007,WL,A,3.0
6,9.449999809265137,distr,50550.00019073486,Fri Jan 10 2025 10:53:28 GMT-0500 (Eastern Standard Time),896677.6000003815,B,judge,I,e,184,,3216.800000190735,893460.8000001907,9007,WL,A,3.0
6,10.432999849319458,distr,49567.00015068054,Fri Jan 10 2025 10:53:28 GMT-0500 (Eastern Standard Time),897660.5,B,judgeenter,I,enter,957,,4199.699999809265,893460.8000001907,9007,WL,A,3.0
6,11.16599988937378,distr,48834.00011062622,Fri Jan 10 2025 10:53:28 GMT-0500 (Eastern Standard Time),898393.8000001907,B,g,I,g,712,,733.0,897660.8000001907,9007,WL,A,4.0
6,11.366999864578247,distr,48633.00013542175,Fri Jan 10 2025 10:53:28 GMT-0500 (Eastern Standard Time),898594.1000003815,B,gr,I,r,187,,933.3000001907349,897660.8000001907,9007,WL,A,4.0
6,11.66599988937378,distr,48334.00011062622,Fri Jan 10 2025 10:53:28 GMT-0500 (Eastern Standard Time),898893.8000001907,B,gra,I,a,263,,1233.0,897660.8000001907,9007,WL,A,4.0
6,11.766999959945679,distr,48233.00004005432,Fri Jan 10 2025 10:53:28 GMT-0500 (Eastern Standard Time),898994.1999998093,B,gran,I,n,88,,1333.3999996185303,897660.8000001907,9007,WL,A,4.0
6,12.08299994468689,distr,47917.00005531311,Fri Jan 10 2025 10:53:28 GMT-0500 (Eastern Standard Time),899310.6999998093,B,grant,I,t,288,,1649.8999996185303,897660.8000001907,9007,WL,A,4.0
6,12.383999824523926,distr,47616.000175476074,Fri Jan 10 2025 10:53:28 GMT-0500 (Eastern Standard Time),899611.0,B,grants,I,s,277,,1950.1999998092651,897660.8000001907,9007,WL,A,4.0
6,14.182999849319458,distr,45817.00015068054,Fri Jan 10 2025 10:53:28 GMT-0500 (Eastern Standard Time),901410.5,B,grantsenter,I,enter,1782,,3749.699999809265,897660.8000001907,9007,WL,A,4.0
6,14.883999824523926,distr,45116.000175476074,Fri Jan 10 2025 10:53:28 GMT-0500 (Eastern Standard Time),902111.1000003815,B,i,I,i,676,,700.3000001907349,901410.8000001907,9007,WL,A,5.0
6,15.132999897003174,distr,44867.000102996826,Fri Jan 10 2025 10:53:28 GMT-0500 (Eastern Standard Time),902360.6999998093,B,in,I,n,228,,949.8999996185303,901410.8000001907,9007,WL,A,5.0
6,15.399999856948853,distr,44600.00014305115,Fri Jan 10 2025 10:53:28 GMT-0500 (Eastern Standard Time),902627.6000003815,B,ins,I,s,243,,1216.8000001907349,901410.8000001907,9007,WL,A,5.0
6,15.632999897003174,distr,44367.000102996826,Fri Jan 10 2025 10:53:28 GMT-0500 (Eastern Standard Time),902860.9000005722,B,inse,I,e,208,,1450.1000003814697,901410.8000001907,9007,WL,A,5.0
6,16.31599998474121,distr,43684.00001525879,Fri Jan 10 2025 10:53:28 GMT-0500 (Eastern Standard Time),903543.8000001907,B,insec,I,c,661,,2133.0,901410.8000001907,9007,WL,A,5.0
6,16.68400001525879,distr,43315.99998474121,Fri Jan 10 2025 10:53:28 GMT-0500 (Eastern Standard Time),903911.0,B,insect,I,t,351,,2500.199999809265,901410.8000001907,9007,WL,A,5.0
6,18.715999841690063,distr,41284.00015830994,Fri Jan 10 2025 10:53:28 GMT-0500 (Eastern Standard Time),905943.8000001907,B,insectenter,I,enter,2011,,4533.0,901410.8000001907,9007,WL,A,5.0
6,19.467000007629395,distr,40532.999992370605,Fri Jan 10 2025 10:53:28 GMT-0500 (Eastern Standard Time),906693.9000005722,B,s,I,s,734,,749.8000001907349,905944.1000003815,9007,WL,A,6.0
6,19.616999864578247,distr,40383.00013542175,Fri Jan 10 2025 10:53:28 GMT-0500 (Eastern Standard Time),906844.3000001907,B,sh,I,h,123,,900.1999998092651,905944.1000003815,9007,WL,A,6.0
6,19.949999809265137,distr,40050.00019073486,Fri Jan 10 2025 10:53:28 GMT-0500 (Eastern Standard Time),907177.1000003815,B,she,I,e,301,,1233.0,905944.1000003815,9007,WL,A,6.0
6,20.1489999294281,distr,39851.0000705719,Fri Jan 10 2025 10:53:28 GMT-0500 (Eastern Standard Time),907376.8000001907,B,shee,I,e,187,,1432.6999998092651,905944.1000003815,9007,WL,A,6.0
6,20.48300004005432,distr,39516.99995994568,Fri Jan 10 2025 10:53:28 GMT-0500 (Eastern Standard Time),907710.6000003815,B,sheep,I,p,309,,1766.5,905944.1000003815,9007,WL,A,6.0
6,21.282999992370605,distr,38717.000007629395,Fri Jan 10 2025 10:53:28 GMT-0500 (Eastern Standard Time),908510.4000005722,B,sheepenter,I,enter,783,,2566.300000190735,905944.1000003815,9007,WL,A,6.0
6,21.699999809265137,distr,38300.00019073486,Fri Jan 10 2025 10:53:28 GMT-0500 (Eastern Standard Time),908927.4000005722,B,s,I,s,408,,416.80000019073486,908510.6000003815,9007,WL,A,7.0
6,22.149999856948853,distr,37850.00014305115,Fri Jan 10 2025 10:53:28 GMT-0500 (Eastern Standard Time),909377.6000003815,B,se,I,e,435,,867.0,908510.6000003815,9007,WL,A,7.0
6,22.516000032424927,distr,37483.99996757507,Fri Jan 10 2025 10:53:28 GMT-0500 (Eastern Standard Time),909743.6999998093,B,see,I,e,353,,1233.0999994277954,908510.6000003815,9007,WL,A,7.0
6,22.882999897003174,distr,37117.000102996826,Fri Jan 10 2025 10:53:28 GMT-0500 (Eastern Standard Time),910110.6999998093,B,seed,I,d,343,,1600.0999994277954,908510.6000003815,9007,WL,A,7.0
6,23.18400001525879,distr,36815.99998474121,Fri Jan 10 2025 10:53:28 GMT-0500 (Eastern Standard Time),910411.0,B,seeds,I,s,277,,1900.3999996185303,908510.6000003815,9007,WL,A,7.0
6,25.049999952316284,distr,34950.000047683716,Fri Jan 10 2025 10:53:28 GMT-0500 (Eastern Standard Time),912277.1999998093,B,seedsenter,I,enter,1839,,3766.5999994277954,908510.6000003815,9007,WL,A,7.0
6,29.116999864578247,distr,30883.000135421753,Fri Jan 10 2025 10:53:28 GMT-0500 (Eastern Standard Time),916344.4000005722,B,c,I,c,4049,,4066.9000005722046,912277.5,9007,WL,A,8.0
6,29.282999992370605,distr,30717.000007629395,Fri Jan 10 2025 10:53:28 GMT-0500 (Eastern Standard Time),916510.3000001907,B,ch,I,h,138,,4232.800000190735,912277.5,9007,WL,A,8.0
6,29.41699981689453,distr,30583.00018310547,Fri Jan 10 2025 10:53:28 GMT-0500 (Eastern Standard Time),916644.1999998093,B,cha,I,a,121,,4366.699999809265,912277.5,9007,WL,A,8.0
6,29.566999912261963,distr,30433.000087738037,Fri Jan 10 2025 10:53:28 GMT-0500 (Eastern Standard Time),916794.5,B,chai,I,i,121,,4517.0,912277.5,9007,WL,A,8.0
6,29.83399987220764,distr,30166.00012779236,Fri Jan 10 2025 10:53:28 GMT-0500 (Eastern Standard Time),917060.9000005722,B,chair,I,r,249,,4783.400000572205,912277.5,9007,WL,A,8.0
6,30.49899983406067,distr,29501.00016593933,Fri Jan 10 2025 10:53:28 GMT-0500 (Eastern Standard Time),917726.8000001907,B,chairenter,I,enter,654,,5449.300000190735,912277.5,9007,WL,A,8.0
6,30.91699981689453,distr,29083.00018310547,Fri Jan 10 2025 10:53:28 GMT-0500 (Eastern Standard Time),918144.1000003815,B,c,I,c,408,,417.0,917727.1000003815,9007,WL,A,9.0
6,31.049999952316284,distr,28950.000047683716,Fri Jan 10 2025 10:53:28 GMT-0500 (Eastern Standard Time),918277.6000003815,B,co,I,o,107,,550.5,917727.1000003815,9007,WL,A,9.0
6,31.233999967575073,distr,28766.000032424927,Fri Jan 10 2025 10:53:28 GMT-0500 (Eastern Standard Time),918461.0,B,coa,I,a,159,,733.8999996185303,917727.1000003815,9007,WL,A,9.0
6,31.81599998474121,distr,28184.00001525879,Fri Jan 10 2025 10:53:28 GMT-0500 (Eastern Standard Time),919043.6999998093,B,coat,I,t,564,,1316.5999994277954,917727.1000003815,9007,WL,A,9.0
6,32.64999985694885,distr,27350.000143051147,Fri Jan 10 2025 10:53:28 GMT-0500 (Eastern Standard Time),919877.1999998093,B,coatenter,I,enter,817,,2150.0999994277954,917727.1000003815,9007,WL,A,9.0
6,35.532999992370605,distr,24467.000007629395,Fri Jan 10 2025 10:53:28 GMT-0500 (Eastern Standard Time),922760.8000001907,B,b,I,b,2866,,2883.300000190735,919877.5,9007,WL,A,10.0
6,35.81699991226196,distr,24183.000087738037,Fri Jan 10 2025 10:53:28 GMT-0500 (Eastern Standard Time),923044.1999998093,B,bo,I,o,267,,3166.699999809265,919877.5,9007,WL,A,10.0
6,36.09999990463257,distr,23900.00009536743,Fri Jan 10 2025 10:53:28 GMT-0500 (Eastern Standard Time),923327.6000003815,B,bot,I,t,253,,3450.1000003814697,919877.5,9007,WL,A,10.0
6,36.26699995994568,distr,23733.00004005432,Fri Jan 10 2025 10:53:28 GMT-0500 (Eastern Standard Time),923494.4000005722,B,bott,I,t,148,,3616.9000005722046,919877.5,9007,WL,A,10.0
6,36.36699986457825,distr,23633.000135421753,Fri Jan 10 2025 10:53:28 GMT-0500 (Eastern Standard Time),923594.4000005722,B,bottl,I,l,77,,3716.9000005722046,919877.5,9007,WL,A,10.0
6,36.53399991989136,distr,23466.000080108643,Fri Jan 10 2025 10:53:28 GMT-0500 (Eastern Standard Time),923761.0,B,bottle,I,e,148,,3883.5,919877.5,9007,WL,A,10.0
6,36.76799988746643,distr,23232.00011253357,Fri Jan 10 2025 10:53:28 GMT-0500 (Eastern Standard Time),923995.0,B,bottleenter,I,enter,210,,4117.5,919877.5,9007,WL,A,10.0
6,60.01699995994568,distr,-16.99995994567871,Fri Jan 10 2025 10:53:28 GMT-0500 (Eastern Standard Time),947244.3000001907,B,None,I,None,23241,,23249.0,923995.3000001907,9007,WL,A,11.0
7,3.0999999046325684,immed,56900.00009536743,Fri Jan 10 2025 10:53:28 GMT-0500 (Eastern Standard Time),961844.1000003815,A,b,I,b,3085,,3099.6000003814697,958744.5,9007,WL,A,1.0
7,3.5329999923706055,immed,56467.000007629395,Fri Jan 10 2025 10:53:28 GMT-0500 (Eastern Standard Time),962277.6999998093,A,bo,I,o,417,,3533.199999809265,958744.5,9007,WL,A,1.0
7,3.7160000801086426,immed,56283.99991989136,Fri Jan 10 2025 10:53:28 GMT-0500 (Eastern Standard Time),962460.4000005722,A,boo,I,o,157,,3715.9000005722046,958744.5,9007,WL,A,1.0
7,4.6499998569488525,immed,55350.00014305115,Fri Jan 10 2025 10:53:28 GMT-0500 (Eastern Standard Time),963394.4000005722,A,book,I,k,920,,4649.900000572205,958744.5,9007,WL,A,1.0
7,5.432999849319458,immed,54567.00015068054,Fri Jan 10 2025 10:53:28 GMT-0500 (Eastern Standard Time),964177.3000001907,A,bookenter,I,enter,769,,5432.800000190735,958744.5,9007,WL,A,1.0
7,6.200000047683716,immed,53799.999952316284,Fri Jan 10 2025 10:53:28 GMT-0500 (Eastern Standard Time),964944.1000003815,A,a,I,a,757,,766.5,964177.6000003815,9007,WL,A,2.0
7,6.5,immed,53500.0,Fri Jan 10 2025 10:53:28 GMT-0500 (Eastern Standard Time),965244.1999998093,A,ap,I,p,276,,1066.5999994277954,964177.6000003815,9007,WL,A,2.0
7,6.6499998569488525,immed,53350.00014305115,Fri Jan 10 2025 10:53:28 GMT-0500 (Eastern Standard Time),965394.4000005722,A,app,I,p,135,,1216.8000001907349,964177.6000003815,9007,WL,A,2.0
7,6.866999864578247,immed,53133.00013542175,Fri Jan 10 2025 10:53:28 GMT-0500 (Eastern Standard Time),965610.9000005722,A,appl,I,l,193,,1433.3000001907349,964177.6000003815,9007,WL,A,2.0
7,7.08299994468689,immed,52917.00005531311,Fri Jan 10 2025 10:53:28 GMT-0500 (Eastern Standard Time),965827.6999998093,A,apple,I,e,199,,1650.0999994277954,964177.6000003815,9007,WL,A,2.0
7,8.700000047683716,immed,51299.999952316284,Fri Jan 10 2025 10:53:28 GMT-0500 (Eastern Standard Time),967443.9000005722,A,appleenter,I,enter,1598,,3266.300000190735,964177.6000003815,9007,WL,A,2.0
7,9.450000047683716,immed,50549.999952316284,Fri Jan 10 2025 10:53:28 GMT-0500 (Eastern Standard Time),968194.1000003815,A,s,I,s,739,,749.9000005722046,967444.1999998093,9007,WL,A,3.0
7,9.700000047683716,immed,50299.999952316284,Fri Jan 10 2025 10:53:28 GMT-0500 (Eastern Standard Time),968444.3000001907,A,sa,I,a,225,,1000.1000003814697,967444.1999998093,9007,WL,A,3.0
7,9.865999937057495,immed,50134.000062942505,Fri Jan 10 2025 10:53:28 GMT-0500 (Eastern Standard Time),968610.6999998093,A,sal,I,l,149,,1166.5,967444.1999998093,9007,WL,A,3.0
7,10.382999897003174,immed,49617.000102996826,Fri Jan 10 2025 10:53:28 GMT-0500 (Eastern Standard Time),969127.0,A,salt,I,t,499,,1682.8000001907349,967444.1999998093,9007,WL,A,3.0
7,11.233000040054321,immed,48766.99995994568,Fri Jan 10 2025 10:53:28 GMT-0500 (Eastern Standard Time),969977.1999998093,A,saltenter,I,enter,831,,2533.0,967444.1999998093,9007,WL,A,3.0
7,11.733000040054321,immed,48266.99995994568,Fri Jan 10 2025 10:53:28 GMT-0500 (Eastern Standard Time),970477.5,A,f,I,f,478,,500.0,969977.5,9007,WL,A,4.0
7,11.91599988937378,immed,48084.00011062622,Fri Jan 10 2025 10:53:28 GMT-0500 (Eastern Standard Time),970660.1999998093,A,fi,I,i,167,,682.6999998092651,969977.5,9007,WL,A,4.0
7,12.182999849319458,immed,47817.00015068054,Fri Jan 10 2025 10:53:28 GMT-0500 (Eastern Standard Time),970927.8000001907,A,fin,I,n,241,,950.3000001907349,969977.5,9007,WL,A,4.0
7,12.450000047683716,immed,47549.999952316284,Fri Jan 10 2025 10:53:28 GMT-0500 (Eastern Standard Time),971193.9000005722,A,fing,I,g,242,,1216.4000005722046,969977.5,9007,WL,A,4.0
7,12.649999856948853,immed,47350.00014305115,Fri Jan 10 2025 10:53:28 GMT-0500 (Eastern Standard Time),971394.4000005722,A,finge,I,e,189,,1416.9000005722046,969977.5,9007,WL,A,4.0
7,12.799999952316284,immed,47200.000047683716,Fri Jan 10 2025 10:53:28 GMT-0500 (Eastern Standard Time),971544.4000005722,A,finger,I,r,123,,1566.9000005722046,969977.5,9007,WL,A,4.0
7,13.632999897003174,immed,46367.000102996826,Fri Jan 10 2025 10:53:28 GMT-0500 (Eastern Standard Time),972377.1000003815,A,fingerenter,I,enter,810,,2399.6000003814697,969977.5,9007,WL,A,4.0
7,14.16700005531311,immed,45832.99994468689,Fri Jan 10 2025 10:53:28 GMT-0500 (Eastern Standard Time),972911.0,A,r,I,r,510,,533.5999994277954,972377.4000005722,9007,WL,A,5.0
7,14.382999897003174,immed,45617.000102996826,Fri Jan 10 2025 10:53:28 GMT-0500 (Eastern Standard Time),973127.6999998093,A,ru,I,u,197,,750.2999992370605,972377.4000005722,9007,WL,A,5.0
7,15.266999959945679,immed,44733.00004005432,Fri Jan 10 2025 10:53:28 GMT-0500 (Eastern Standard Time),974010.9000005722,A,rug,I,g,851,,1633.5,972377.4000005722,9007,WL,A,5.0
7,15.766000032424927,immed,44233.99996757507,Fri Jan 10 2025 10:53:28 GMT-0500 (Eastern Standard Time),974510.5,A,rugenter,I,enter,471,,2133.0999994277954,972377.4000005722,9007,WL,A,5.0
7,16.182999849319458,immed,43817.00015068054,Fri Jan 10 2025 10:53:28 GMT-0500 (Eastern Standard Time),974927.5,A,t,I,t,408,,416.5,974511.0,9007,WL,A,6.0
7,16.432999849319458,immed,43567.00015068054,Fri Jan 10 2025 10:53:28 GMT-0500 (Eastern Standard Time),975177.6999998093,A,tr,I,r,228,,666.6999998092651,974511.0,9007,WL,A,6.0
7,16.682999849319458,immed,43317.00015068054,Fri Jan 10 2025 10:53:28 GMT-0500 (Eastern Standard Time),975427.8000001907,A,tra,I,a,231,,916.8000001907349,974511.0,9007,WL,A,6.0
7,16.799999952316284,immed,43200.000047683716,Fri Jan 10 2025 10:53:28 GMT-0500 (Eastern Standard Time),975544.5,A,trai,I,i,96,,1033.5,974511.0,9007,WL,A,6.0
7,17.066999912261963,immed,42933.00008773804,Fri Jan 10 2025 10:53:28 GMT-0500 (Eastern Standard Time),975811.1000003815,A,train,I,n,243,,1300.1000003814697,974511.0,9007,WL,A,6.0
7,17.882999897003174,immed,42117.000102996826,Fri Jan 10 2025 10:53:28 GMT-0500 (Eastern Standard Time),976627.1999998093,A,trainenter,I,enter,799,,2116.199999809265,974511.0,9007,WL,A,6.0
7,18.450000047683716,immed,41549.999952316284,Fri Jan 10 2025 10:53:28 GMT-0500 (Eastern Standard Time),977194.5,A,f,I,f,548,,566.8999996185303,976627.6000003815,9007,WL,A,7.0
7,18.58299994468689,immed,41417.00005531311,Fri Jan 10 2025 10:53:28 GMT-0500 (Eastern Standard Time),977327.6000003815,A,fl,I,l,121,,700.0,976627.6000003815,9007,WL,A,7.0
7,18.816999912261963,immed,41183.00008773804,Fri Jan 10 2025 10:53:28 GMT-0500 (Eastern Standard Time),977561.0,A,flo,I,o,212,,933.3999996185303,976627.6000003815,9007,WL,A,7.0
7,19.0,immed,41000.0,Fri Jan 10 2025 10:53:28 GMT-0500 (Eastern Standard Time),977744.1999998093,A,flow,I,w,171,,1116.5999994277954,976627.6000003815,9007,WL,A,7.0
7,19.25,immed,40750.0,Fri Jan 10 2025 10:53:28 GMT-0500 (Eastern Standard Time),977994.3000001907,A,flowe,I,e,228,,1366.6999998092651,976627.6000003815,9007,WL,A,7.0
7,19.450000047683716,immed,40549.999952316284,Fri Jan 10 2025 10:53:28 GMT-0500 (Eastern Standard Time),978194.4000005722,A,flower,I,r,176,,1566.8000001907349,976627.6000003815,9007,WL,A,7.0
7,20.549999952316284,immed,39450.000047683716,Fri Jan 10 2025 10:53:28 GMT-0500 (Eastern Standard Time),979293.9000005722,A,flowerenter,I,enter,1072,,2666.300000190735,976627.6000003815,9007,WL,A,7.0
7,21.08299994468689,immed,38917.00005531311,Fri Jan 10 2025 10:53:28 GMT-0500 (Eastern Standard Time),979827.8000001907,A,m,I,m,521,,533.6000003814697,979294.1999998093,9007,WL,A,8.0
7,21.25,immed,38750.0,Fri Jan 10 2025 10:53:28 GMT-0500 (Eastern Standard Time),979993.9000005722,A,me,I,e,143,,699.7000007629395,979294.1999998093,9007,WL,A,8.0
7,21.450000047683716,immed,38549.999952316284,Fri Jan 10 2025 10:53:28 GMT-0500 (Eastern Standard Time),980194.3000001907,A,mea,I,a,189,,900.1000003814697,979294.1999998093,9007,WL,A,8.0
7,21.717000007629395,immed,38282.999992370605,Fri Jan 10 2025 10:53:28 GMT-0500 (Eastern Standard Time),980461.1000003815,A,mead,I,d,234,,1166.9000005722046,979294.1999998093,9007,WL,A,8.0
7,22.0,immed,38000.0,Fri Jan 10 2025 10:53:28 GMT-0500 (Eastern Standard Time),980744.3000001907,A,meado,I,o,258,,1450.1000003814697,979294.1999998093,9007,WL,A,8.0
7,22.266000032424927,immed,37733.99996757507,Fri Jan 10 2025 10:53:28 GMT-0500 (Eastern Standard Time),981010.5,A,meadow,I,w,251,,1716.3000001907349,979294.1999998093,9007,WL,A,8.0
7,24.299999952316284,immed,35700.000047683716,Fri Jan 10 2025 10:53:28 GMT-0500 (Eastern Standard Time),983043.9000005722,A,meadowenter,I,enter,2020,,3749.7000007629395,979294.1999998093,9007,WL,A,8.0
7,25.23300004005432,immed,34766.99995994568,Fri Jan 10 2025 10:53:28 GMT-0500 (Eastern Standard Time),983977.6999998093,A,r,I,r,914,,933.5,983044.1999998093,9007,WL,A,9.0
7,25.467000007629395,immed,34532.999992370605,Fri Jan 10 2025 10:53:28 GMT-0500 (Eastern Standard Time),984211.1999998093,A,ra,I,a,218,,1167.0,983044.1999998093,9007,WL,A,9.0
7,25.782999992370605,immed,34217.000007629395,Fri Jan 10 2025 10:53:28 GMT-0500 (Eastern Standard Time),984527.8000001907,A,rat,I,t,287,,1483.6000003814697,983044.1999998093,9007,WL,A,9.0
7,25.932999849319458,immed,34067.00015068054,Fri Jan 10 2025 10:53:28 GMT-0500 (Eastern Standard Time),984677.4000005722,A,ratt,I,t,131,,1633.2000007629395,983044.1999998093,9007,WL,A,9.0
7,26.016000032424927,immed,33983.99996757507,Fri Jan 10 2025 10:53:28 GMT-0500 (Eastern Standard Time),984760.8000001907,A,rattl,I,l,63,,1716.6000003814697,983044.1999998093,9007,WL,A,9.0
7,26.200000047683716,immed,33799.999952316284,Fri Jan 10 2025 10:53:28 GMT-0500 (Eastern Standard Time),984944.1999998093,A,rattle,I,e,167,,1900.0,983044.1999998093,9007,WL,A,9.0
7,26.84999990463257,immed,33150.00009536743,Fri Jan 10 2025 10:53:28 GMT-0500 (Eastern Standard Time),985593.9000005722,A,rattleenter,I,enter,626,,2549.7000007629395,983044.1999998093,9007,WL,A,9.0
7,27.34999990463257,immed,32650.00009536743,Fri Jan 10 2025 10:53:28 GMT-0500 (Eastern Standard Time),986094.3000001907,A,l,I,l,477,,500.0,985594.3000001907,9007,WL,A,10.0
7,27.532999992370605,immed,32467.000007629395,Fri Jan 10 2025 10:53:28 GMT-0500 (Eastern Standard Time),986277.6999998093,A,lo,I,o,166,,683.3999996185303,985594.3000001907,9007,WL,A,10.0
7,28.016000032424927,immed,31983.999967575073,Fri Jan 10 2025 10:53:28 GMT-0500 (Eastern Standard Time),986760.8000001907,A,log,I,g,453,,1166.5,985594.3000001907,9007,WL,A,10.0
7,28.899999856948853,immed,31100.000143051147,Fri Jan 10 2025 10:53:28 GMT-0500 (Eastern Standard Time),987644.5,A,logk,I,k,858,,2050.199999809265,985594.3000001907,9007,WL,A,10.0
7,29.049999952316284,immed,30950.000047683716,Fri Jan 10 2025 10:53:28 GMT-0500 (Eastern Standard Time),987794.4000005722,A,logke,I,e,134,,2200.1000003814697,985594.3000001907,9007,WL,A,10.0
7,29.73300004005432,immed,30266.99995994568,Fri Jan 10 2025 10:53:28 GMT-0500 (Eastern Standard Time),988477.6999998093,A,logkey,I,y,657,,2883.3999996185303,985594.3000001907,9007,WL,A,10.0
7,30.5,immed,29500.0,Fri Jan 10 2025 10:53:28 GMT-0500 (Eastern Standard Time),989244.4000005722,A,logkeyc,I,c,741,,3650.1000003814697,985594.3000001907,9007,WL,A,10.0
7,30.616999864578247,immed,29383.000135421753,Fri Jan 10 2025 10:53:28 GMT-0500 (Eastern Standard Time),989361.0,A,logkeych,I,h,101,,3766.699999809265,985594.3000001907,9007,WL,A,10.0
7,30.816999912261963,immed,29183.000087738037,Fri Jan 10 2025 10:53:28 GMT-0500 (Eastern Standard Time),989561.1000003815,A,logkeychi,I,i,171,,3966.800000190735,985594.3000001907,9007,WL,A,10.0
7,31.132999897003174,immed,28867.000102996826,Fri Jan 10 2025 10:53:28 GMT-0500 (Eastern Standard Time),989877.6999998093,A,logkeychim,I,m,296,,4283.39999961853,985594.3000001907,9007,WL,A,10.0
7,31.717000007629395,immed,28282.999992370605,Fri Jan 10 2025 10:53:28 GMT-0500 (Eastern Standard Time),990461.1000003815,A,logkeychimn,I,n,558,,4866.800000190735,985594.3000001907,9007,WL,A,10.0
7,31.967000007629395,immed,28032.999992370605,Fri Jan 10 2025 10:53:28 GMT-0500 (Eastern Standard Time),990711.1000003815,A,logkeychimne,I,e,229,,5116.800000190735,985594.3000001907,9007,WL,A,10.0
7,32.31699991226196,immed,27683.000087738037,Fri Jan 10 2025 10:53:28 GMT-0500 (Eastern Standard Time),991060.9000005722,A,logkeychimney,I,y,327,,5466.60000038147,985594.3000001907,9007,WL,A,10.0
7,33.58299994468689,immed,26417.00005531311,Fri Jan 10 2025 10:53:28 GMT-0500 (Eastern Standard Time),992327.8000001907,A,logkeychimne,I,backspace,1246,,6733.5,985594.3000001907,9007,WL,A,10.0
7,33.782999992370605,immed,26217.000007629395,Fri Jan 10 2025 10:53:28 GMT-0500 (Eastern Standard Time),992527.6999998093,A,logkeychimn,I,backspace,172,,6933.39999961853,985594.3000001907,9007,WL,A,10.0
7,33.967000007629395,immed,26032.999992370605,Fri Jan 10 2025 10:53:28 GMT-0500 (Eastern Standard Time),992710.9000005722,A,logkeychim,I,backspace,161,,7116.60000038147,985594.3000001907,9007,WL,A,10.0
7,34.14999985694885,immed,25850.000143051147,Fri Jan 10 2025 10:53:28 GMT-0500 (Eastern Standard Time),992894.6000003815,A,logkeychi,I,backspace,155,,7300.300000190735,985594.3000001907,9007,WL,A,10.0
7,34.31699991226196,immed,25683.000087738037,Fri Jan 10 2025 10:53:28 GMT-0500 (Eastern Standard Time),993061.3000001907,A,logkeych,I,backspace,146,,7467.0,985594.3000001907,9007,WL,A,10.0
7,34.51699995994568,immed,25483.00004005432,Fri Jan 10 2025 10:53:28 GMT-0500 (Eastern Standard Time),993261.1000003815,A,logkeyc,I,backspace,172,,7666.800000190735,985594.3000001907,9007,WL,A,10.0
7,34.75,immed,25250.0,Fri Jan 10 2025 10:53:28 GMT-0500 (Eastern Standard Time),993494.3000001907,A,logkey,I,backspace,214,,7900.0,985594.3000001907,9007,WL,A,10.0
7,34.950000047683716,immed,25049.999952316284,Fri Jan 10 2025 10:53:28 GMT-0500 (Eastern Standard Time),993694.3000001907,A,logke,I,backspace,174,,8100.0,985594.3000001907,9007,WL,A,10.0
7,35.14999985694885,immed,24850.000143051147,Fri Jan 10 2025 10:53:28 GMT-0500 (Eastern Standard Time),993894.6000003815,A,logk,I,backspace,181,,8300.300000190735,985594.3000001907,9007,WL,A,10.0
7,35.382999897003174,immed,24617.000102996826,Fri Jan 10 2025 10:53:28 GMT-0500 (Eastern Standard Time),994127.3000001907,A,log,I,backspace,212,,8533.0,985594.3000001907,9007,WL,A,10.0
7,36.29900002479553,immed,23700.999975204468,Fri Jan 10 2025 10:53:28 GMT-0500 (Eastern Standard Time),995043.8000001907,A,logenter,I,enter,891,,9449.5,985594.3000001907,9007,WL,A,10.0
7,37.59999990463257,immed,22400.00009536743,Fri Jan 10 2025 10:53:28 GMT-0500 (Eastern Standard Time),996343.9000005722,A,k,I,k,1281,,1299.7000007629395,995044.1999998093,9007,WL,A,11.0
7,37.782999992370605,immed,22217.000007629395,Fri Jan 10 2025 10:53:28 GMT-0500 (Eastern Standard Time),996527.5,A,ke,I,e,154,,1483.3000001907349,995044.1999998093,9007,WL,A,11.0
7,38.08299994468689,immed,21917.00005531311,Fri Jan 10 2025 10:53:28 GMT-0500 (Eastern Standard Time),996827.9000005722,A,keu,I,u,275,,1783.7000007629395,995044.1999998093,9007,WL,A,11.0
7,38.59999990463257,immed,21400.00009536743,Fri Jan 10 2025 10:53:28 GMT-0500 (Eastern Standard Time),997344.1999998093,A,ke,I,backspace,504,,2300.0,995044.1999998093,9007,WL,A,11.0
7,39.33299994468689,immed,20667.00005531311,Fri Jan 10 2025 10:53:28 GMT-0500 (Eastern Standard Time),998077.5,A,key,I,y,705,,3033.300000190735,995044.1999998093,9007,WL,A,11.0
7,40.450000047683716,immed,19549.999952316284,Fri Jan 10 2025 10:53:28 GMT-0500 (Eastern Standard Time),999194.0,A,keyenter,I,enter,1094,,4149.800000190735,995044.1999998093,9007,WL,A,11.0
7,42.36699986457825,immed,17633.000135421753,Fri Jan 10 2025 10:53:28 GMT-0500 (Eastern Standard Time),1001111.0,A,c,I,c,1901,,1916.8000001907349,999194.1999998093,9007,WL,A,12.0
7,42.66700005531311,immed,17332.99994468689,Fri Jan 10 2025 10:53:28 GMT-0500 (Eastern Standard Time),1001411.0,A,ch,I,h,284,,2216.800000190735,999194.1999998093,9007,WL,A,12.0
7,42.96600008010864,immed,17033.999919891357,Fri Jan 10 2025 10:53:28 GMT-0500 (Eastern Standard Time),1001710.6000003815,A,chi,I,i,272,,2516.4000005722046,999194.1999998093,9007,WL,A,12.0
7,43.450000047683716,immed,16549.999952316284,Fri Jan 10 2025 10:53:28 GMT-0500 (Eastern Standard Time),1002194.0,A,chim,I,m,470,,2999.800000190735,999194.1999998093,9007,WL,A,12.0
7,43.84999990463257,immed,16150.000095367432,Fri Jan 10 2025 10:53:28 GMT-0500 (Eastern Standard Time),1002594.5,A,chimn,I,n,389,,3400.300000190735,999194.1999998093,9007,WL,A,12.0
7,44.11699986457825,immed,15883.000135421753,Fri Jan 10 2025 10:53:28 GMT-0500 (Eastern Standard Time),1002861.1999998093,A,chimne,I,e,241,,3667.0,999194.1999998093,9007,WL,A,12.0
7,44.31699991226196,immed,15683.000087738037,Fri Jan 10 2025 10:53:28 GMT-0500 (Eastern Standard Time),1003060.9000005722,A,chimney,I,y,183,,3866.7000007629395,999194.1999998093,9007,WL,A,12.0
7,45.14999985694885,immed,14850.000143051147,Fri Jan 10 2025 10:53:28 GMT-0500 (Eastern Standard Time),1003893.9000005722,A,chimneyenter,I,enter,807,,4699.700000762939,999194.1999998093,9007,WL,A,12.0
7,45.948999881744385,immed,14051.000118255615,Fri Jan 10 2025 10:53:28 GMT-0500 (Eastern Standard Time),1004693.6999998093,A,g,I,g,784,,799.5,1003894.1999998093,9007,WL,A,13.0
7,46.08500003814697,immed,13914.999961853027,Fri Jan 10 2025 10:53:28 GMT-0500 (Eastern Standard Time),1004828.9000005722,A,go,I,o,112,,934.7000007629395,1003894.1999998093,9007,WL,A,13.0
7,46.33299994468689,immed,13667.00005531311,Fri Jan 10 2025 10:53:28 GMT-0500 (Eastern Standard Time),1005077.6999998093,A,gol,I,l,235,,1183.5,1003894.1999998093,9007,WL,A,13.0
7,46.532999992370605,immed,13467.000007629395,Fri Jan 10 2025 10:53:28 GMT-0500 (Eastern Standard Time),1005277.6999998093,A,gold,I,d,165,,1383.5,1003894.1999998093,9007,WL,A,13.0
7,47.16599988937378,immed,12834.00011062622,Fri Jan 10 2025 10:53:28 GMT-0500 (Eastern Standard Time),1005910.6000003815,A,goldenter,I,enter,614,,2016.4000005722046,1003894.1999998093,9007,WL,A,13.0
7,50.23300004005432,immed,9766.999959945679,Fri Jan 10 2025 10:53:28 GMT-0500 (Eastern Standard Time),1008977.4000005722,A,b,I,b,3055,,3066.5,1005910.9000005722,9007,WL,A,14.0
7,50.467000007629395,immed,9532.999992370605,Fri Jan 10 2025 10:53:28 GMT-0500 (Eastern Standard Time),1009210.9000005722,A,bu,I,u,210,,3300.0,1005910.9000005722,9007,WL,A,14.0
7,50.64999985694885,immed,9350.000143051147,Fri Jan 10 2025 10:53:28 GMT-0500 (Eastern Standard Time),1009394.3000001907,A,but,I,t,169,,3483.3999996185303,1005910.9000005722,9007,WL,A,14.0
7,50.83299994468689,immed,9167.00005531311,Fri Jan 10 2025 10:53:28 GMT-0500 (Eastern Standard Time),1009577.8000001907,A,butt,I,t,161,,3666.8999996185303,1005910.9000005722,9007,WL,A,14.0
7,50.967000007629395,immed,9032.999992370605,Fri Jan 10 2025 10:53:28 GMT-0500 (Eastern Standard Time),1009711.1999998093,A,butto,I,o,100,,3800.2999992370605,1005910.9000005722,9007,WL,A,14.0
7,51.25,immed,8750.0,Fri Jan 10 2025 10:53:28 GMT-0500 (Eastern Standard Time),1009994.3000001907,A,button,I,n,260,,4083.3999996185303,1005910.9000005722,9007,WL,A,14.0
7,51.64999985694885,immed,8350.000143051147,Fri Jan 10 2025 10:53:28 GMT-0500 (Eastern Standard Time),1010393.9000005722,A,buttonenter,I,enter,377,,4483.0,1005910.9000005722,9007,WL,A,14.0
7,60.01600003242493,immed,-16.000032424926758,Fri Jan 10 2025 10:53:28 GMT-0500 (Eastern Standard Time),1018760.5,A,None,I,None,8358,,8366.199999809265,1010394.3000001907,9007,WL,A,15.0
