acc_sum,block,block_c,block_cond,con_img,correct,correct_response,datetime,endtime,face,jitter,line,project,response,response_time,row_sel,session_number,start_end,starttime,subject_id,task,task_vers,trial
1,prac,1,A,haborder.png,1,m,Fri Feb 28 2025 16:08:21 GMT-0600 (Central Standard Time),74646.5,CFD-WM-006-013-HC.jpg,1700,solid,O,m,1384,9,1,3881.100000000093,70765.3999999999,7073,ATS,A,1
2,prac,1,A,haborder.png,1,m,Fri Feb 28 2025 16:08:21 GMT-0600 (Central Standard Time),77545.5,CFD-WM-004-005-HC.jpg,1400,solid,O,m,707,7,1,6780.100000000093,70765.3999999999,7073,ATS,A,2
3,prac,1,A,haborder.png,1,m,Fri Feb 28 2025 16:08:21 GMT-0600 (Central Standard Time),81011.1000000001,CFD-BF-028-020-HC.jpg,2000,solid,O,m,672,5,1,10245.700000000186,70765.3999999999,7073,ATS,A,3
4,prac,1,A,haborder.png,1,z,Fri Feb 28 2025 16:08:21 GMT-0600 (Central Standard Time),83860.5,CFD-WF-019-015-A.jpg,1000,solid,O,z,1062,12,1,13095.100000000093,70765.3999999999,7073,ATS,A,4
5,prac,1,A,haborder.png,1,z,Fri Feb 28 2025 16:08:21 GMT-0600 (Central Standard Time),87237.20000000019,CFD-WF-003-014-A.jpg,1600,solid,O,z,925,10,1,16471.80000000028,70765.3999999999,7073,ATS,A,5
6,prac,1,A,haborder.png,1,z,Fri Feb 28 2025 16:08:21 GMT-0600 (Central Standard Time),90326.0,CFD-BM-005-010-A.jpg,1600,solid,O,z,711,2,1,19560.600000000093,70765.3999999999,7073,ATS,A,6
7,prac,1,A,haborder.png,1,m,Fri Feb 28 2025 16:08:21 GMT-0600 (Central Standard Time),93140.6000000001,CFD-WF-017-016-HC.jpg,1500,solid,O,m,520,11,1,22375.200000000186,70765.3999999999,7073,ATS,A,7
8,prac,1,A,haborder.png,1,m,Fri Feb 28 2025 16:08:21 GMT-0600 (Central Standard Time),96106.3999999999,CFD-BM-029-026-HC.jpg,1500,solid,O,m,674,3,1,25341.0,70765.3999999999,7073,ATS,A,8
9,prac,1,A,haborder.png,1,z,Fri Feb 28 2025 16:08:21 GMT-0600 (Central Standard Time),99688.5,CFD-WM-013-015-A.jpg,1900,solid,O,z,891,8,1,28923.100000000093,70765.3999999999,7073,ATS,A,9
10,prac,1,A,haborder.png,1,z,Fri Feb 28 2025 16:08:21 GMT-0600 (Central Standard Time),102271.20000000019,CFD-BF-023-013-A.jpg,1000,solid,O,z,792,4,1,31505.80000000028,70765.3999999999,7073,ATS,A,10
11,prac,1,A,haborder.png,1,z,Fri Feb 28 2025 16:08:21 GMT-0600 (Central Standard Time),104937.1000000001,CFD-BF-039-039-A.jpg,1200,solid,O,z,681,6,1,34171.700000000186,70765.3999999999,7073,ATS,A,11
12,prac,1,A,haborder.png,1,m,Fri Feb 28 2025 16:08:21 GMT-0600 (Central Standard Time),108135.80000000028,CFD-BM-017-052-HC.jpg,1700,solid,O,m,709,1,1,37370.40000000037,70765.3999999999,7073,ATS,A,12
1,prac,1,B,mfborder.png,1,z,Fri Feb 28 2025 16:08:21 GMT-0600 (Central Standard Time),142925.2000000002,CFD-BF-023-013-A.jpg,1000,dash,O,z,1411,4,1,3199.100000000093,139726.1000000001,7073,ATS,A,1
2,prac,1,B,mfborder.png,1,z,Fri Feb 28 2025 16:08:21 GMT-0600 (Central Standard Time),146490.7000000002,CFD-WF-002-008-HC.jpg,1900,dash,O,z,872,8,1,6764.600000000093,139726.1000000001,7073,ATS,A,2
3,prac,1,B,mfborder.png,1,m,Fri Feb 28 2025 16:08:21 GMT-0600 (Central Standard Time),149589.7000000002,CFD-WM-013-015-A.jpg,1700,dash,O,m,603,9,1,9863.600000000093,139726.1000000001,7073,ATS,A,3
4,prac,1,B,mfborder.png,1,m,Fri Feb 28 2025 16:08:21 GMT-0600 (Central Standard Time),152505.5,CFD-BM-010-019-A.jpg,1600,dash,O,m,523,2,1,12779.399999999907,139726.1000000001,7073,ATS,A,4
5,prac,1,B,mfborder.png,1,m,Fri Feb 28 2025 16:08:21 GMT-0600 (Central Standard Time),155538.0,CFD-BM-029-026-HC.jpg,1700,dash,O,m,540,1,1,15811.899999999907,139726.1000000001,7073,ATS,A,5
5,prac,1,B,mfborder.png,0,z,Fri Feb 28 2025 16:08:21 GMT-0600 (Central Standard Time),159336.5,CFD-WF-003-014-A.jpg,1500,dash,O,None,1516,11,1,19610.399999999907,139726.1000000001,7073,ATS,A,6
6,prac,1,B,mfborder.png,1,z,Fri Feb 28 2025 16:08:21 GMT-0600 (Central Standard Time),162402.6000000001,CFD-BF-010-005-HC.jpg,1500,dash,O,z,772,3,1,22676.5,139726.1000000001,7073,ATS,A,7
7,prac,1,B,mfborder.png,1,z,Fri Feb 28 2025 16:08:21 GMT-0600 (Central Standard Time),164635.0,CFD-WF-017-016-HC.jpg,1000,dash,O,z,447,12,1,24908.899999999907,139726.1000000001,7073,ATS,A,8
8,prac,1,B,mfborder.png,1,m,Fri Feb 28 2025 16:08:21 GMT-0600 (Central Standard Time),167152.1000000001,CFD-WM-019-013-A.jpg,1200,dash,O,m,534,6,1,27426.0,139726.1000000001,7073,ATS,A,9
9,prac,1,B,mfborder.png,1,z,Fri Feb 28 2025 16:08:21 GMT-0600 (Central Standard Time),169950.0,CFD-BF-028-020-HC.jpg,1400,dash,O,z,611,7,1,30223.899999999907,139726.1000000001,7073,ATS,A,10
10,prac,1,B,mfborder.png,1,m,Fri Feb 28 2025 16:08:21 GMT-0600 (Central Standard Time),173315.6000000001,CFD-BM-005-010-A.jpg,2000,dash,O,m,572,5,1,33589.5,139726.1000000001,7073,ATS,A,11
11,prac,1,B,mfborder.png,1,m,Fri Feb 28 2025 16:08:21 GMT-0600 (Central Standard Time),176231.30000000028,CFD-WM-006-013-HC.jpg,1600,dash,O,m,525,10,1,36505.200000000186,139726.1000000001,7073,ATS,A,12
1,test,1,A,haborder.png,1,m,Fri Feb 28 2025 16:08:21 GMT-0600 (Central Standard Time),200706.80000000028,CFD-BM-029-026-HC.jpg,1500,solid,O,m,749,3,1,2266.0,198440.80000000028,7073,ATS,A,1
2,test,1,A,haborder.png,1,m,Fri Feb 28 2025 16:08:21 GMT-0600 (Central Standard Time),203089.7000000002,CFD-WF-017-016-HC.jpg,1500,solid,O,m,850,11,1,4648.899999999907,198440.80000000028,7073,ATS,A,2
3,test,1,A,haborder.png,1,z,Fri Feb 28 2025 16:08:21 GMT-0600 (Central Standard Time),205088.6000000001,CFD-BF-039-039-A.jpg,1200,solid,O,z,775,6,1,6647.799999999814,198440.80000000028,7073,ATS,A,3
4,test,1,A,haborder.png,1,z,Fri Feb 28 2025 16:08:21 GMT-0600 (Central Standard Time),206738.7000000002,CFD-BF-039-039-A.jpg,1200,solid,O,z,432,6,1,8297.899999999907,198440.80000000028,7073,ATS,A,4
5,test,1,A,haborder.png,1,m,Fri Feb 28 2025 16:08:21 GMT-0600 (Central Standard Time),209620.80000000028,CFD-BF-028-020-HC.jpg,2000,solid,O,m,863,5,1,11180.0,198440.80000000028,7073,ATS,A,5
6,test,1,A,haborder.png,1,z,Fri Feb 28 2025 16:08:21 GMT-0600 (Central Standard Time),212620.0,CFD-WM-013-015-A.jpg,1900,solid,O,z,1072,8,1,14179.19999999972,198440.80000000028,7073,ATS,A,6
7,test,1,A,haborder.png,1,z,Fri Feb 28 2025 16:08:21 GMT-0600 (Central Standard Time),215169.2000000002,CFD-WM-013-015-A.jpg,1900,solid,O,z,617,8,1,16728.399999999907,198440.80000000028,7073,ATS,A,7
8,test,1,A,haborder.png,1,m,Fri Feb 28 2025 16:08:21 GMT-0600 (Central Standard Time),217168.80000000028,CFD-WM-004-005-HC.jpg,1400,solid,O,m,568,7,1,18728.0,198440.80000000028,7073,ATS,A,8
9,test,1,A,haborder.png,1,z,Fri Feb 28 2025 16:08:21 GMT-0600 (Central Standard Time),218834.6000000001,CFD-BF-023-013-A.jpg,1000,solid,O,z,648,4,1,20393.799999999814,198440.80000000028,7073,ATS,A,9
10,test,1,A,haborder.png,1,m,Fri Feb 28 2025 16:08:21 GMT-0600 (Central Standard Time),221383.8999999999,CFD-BM-017-052-HC.jpg,1700,solid,O,m,819,1,1,22943.099999999627,198440.80000000028,7073,ATS,A,10
11,test,1,A,haborder.png,1,m,Fri Feb 28 2025 16:08:21 GMT-0600 (Central Standard Time),223683.1000000001,CFD-BM-017-052-HC.jpg,1700,solid,O,m,574,1,1,25242.299999999814,198440.80000000028,7073,ATS,A,11
12,test,1,A,haborder.png,1,m,Fri Feb 28 2025 16:08:21 GMT-0600 (Central Standard Time),226299.1000000001,CFD-BF-028-020-HC.jpg,2000,solid,O,m,584,5,1,27858.299999999814,198440.80000000028,7073,ATS,A,12
13,test,1,A,haborder.png,1,z,Fri Feb 28 2025 16:08:21 GMT-0600 (Central Standard Time),228566.5,CFD-WF-003-014-A.jpg,1600,solid,O,z,647,10,1,30125.69999999972,198440.80000000028,7073,ATS,A,13
14,test,1,A,haborder.png,1,z,Fri Feb 28 2025 16:08:21 GMT-0600 (Central Standard Time),230880.80000000028,CFD-BM-005-010-A.jpg,1600,solid,O,z,684,2,1,32440.0,198440.80000000028,7073,ATS,A,14
15,test,1,A,haborder.png,1,m,Fri Feb 28 2025 16:08:21 GMT-0600 (Central Standard Time),232996.80000000028,CFD-WM-004-005-HC.jpg,1400,solid,O,m,688,7,1,34556.0,198440.80000000028,7073,ATS,A,15
16,test,1,A,haborder.png,1,z,Fri Feb 28 2025 16:08:21 GMT-0600 (Central Standard Time),234679.8999999999,CFD-WF-019-015-A.jpg,1000,solid,O,z,660,12,1,36239.09999999963,198440.80000000028,7073,ATS,A,16
17,test,1,A,haborder.png,1,z,Fri Feb 28 2025 16:08:21 GMT-0600 (Central Standard Time),237162.2000000002,CFD-BM-005-010-A.jpg,1600,solid,O,z,849,2,1,38721.39999999991,198440.80000000028,7073,ATS,A,17
18,test,1,A,haborder.png,1,m,Fri Feb 28 2025 16:08:21 GMT-0600 (Central Standard Time),239478.2000000002,CFD-BM-029-026-HC.jpg,1500,solid,O,m,787,3,1,41037.39999999991,198440.80000000028,7073,ATS,A,18
19,test,1,A,haborder.png,1,m,Fri Feb 28 2025 16:08:21 GMT-0600 (Central Standard Time),241894.1000000001,CFD-WM-006-013-HC.jpg,1700,solid,O,m,695,9,1,43453.299999999814,198440.80000000028,7073,ATS,A,19
20,test,1,A,haborder.png,1,z,Fri Feb 28 2025 16:08:21 GMT-0600 (Central Standard Time),243511.3999999999,CFD-BF-023-013-A.jpg,1000,solid,O,z,595,4,1,45070.59999999963,198440.80000000028,7073,ATS,A,20
21,test,1,A,haborder.png,1,m,Fri Feb 28 2025 16:08:21 GMT-0600 (Central Standard Time),245543.0,CFD-WF-017-016-HC.jpg,1500,solid,O,m,512,11,1,47102.19999999972,198440.80000000028,7073,ATS,A,21
22,test,1,A,haborder.png,1,z,Fri Feb 28 2025 16:08:21 GMT-0600 (Central Standard Time),247208.80000000028,CFD-WF-019-015-A.jpg,1000,solid,O,z,642,12,1,48768.0,198440.80000000028,7073,ATS,A,22
23,test,1,A,haborder.png,1,m,Fri Feb 28 2025 16:08:21 GMT-0600 (Central Standard Time),249458.30000000028,CFD-WM-006-013-HC.jpg,1700,solid,O,m,524,9,1,51017.5,198440.80000000028,7073,ATS,A,23
24,test,1,A,haborder.png,1,z,Fri Feb 28 2025 16:08:21 GMT-0600 (Central Standard Time),251724.5,CFD-WF-003-014-A.jpg,1600,solid,O,z,648,10,1,53283.69999999972,198440.80000000028,7073,ATS,A,24
1,test,1,B,mfborder.png,1,m,Fri Feb 28 2025 16:08:21 GMT-0600 (Central Standard Time),270435.1000000001,CFD-WM-006-013-HC.jpg,1600,dash,O,m,811,10,1,2432.2999999998137,268002.8000000003,7073,ATS,A,1
2,test,1,B,mfborder.png,1,z,Fri Feb 28 2025 16:08:21 GMT-0600 (Central Standard Time),272517.8000000003,CFD-BF-010-005-HC.jpg,1500,dash,O,z,559,3,1,4515.0,268002.8000000003,7073,ATS,A,2
3,test,1,B,mfborder.png,1,m,Fri Feb 28 2025 16:08:21 GMT-0600 (Central Standard Time),274783.8000000003,CFD-BM-029-026-HC.jpg,1700,dash,O,m,542,1,1,6781.0,268002.8000000003,7073,ATS,A,3
4,test,1,B,mfborder.png,1,z,Fri Feb 28 2025 16:08:21 GMT-0600 (Central Standard Time),276783.3000000003,CFD-WF-003-014-A.jpg,1500,dash,O,z,469,11,1,8780.5,268002.8000000003,7073,ATS,A,4
5,test,1,B,mfborder.png,1,m,Fri Feb 28 2025 16:08:21 GMT-0600 (Central Standard Time),278915.7000000002,CFD-WM-006-013-HC.jpg,1600,dash,O,m,514,10,1,10912.899999999907,268002.8000000003,7073,ATS,A,5
6,test,1,B,mfborder.png,1,z,Fri Feb 28 2025 16:08:21 GMT-0600 (Central Standard Time),280415.5,CFD-WF-017-016-HC.jpg,1000,dash,O,z,477,12,1,12412.69999999972,268002.8000000003,7073,ATS,A,6
7,test,1,B,mfborder.png,1,m,Fri Feb 28 2025 16:08:21 GMT-0600 (Central Standard Time),282631.3999999999,CFD-WM-013-015-A.jpg,1700,dash,O,m,486,9,1,14628.599999999627,268002.8000000003,7073,ATS,A,7
8,test,1,B,mfborder.png,1,m,Fri Feb 28 2025 16:08:21 GMT-0600 (Central Standard Time),284847.7000000002,CFD-BM-029-026-HC.jpg,1700,dash,O,m,487,1,1,16844.899999999907,268002.8000000003,7073,ATS,A,8
9,test,1,B,mfborder.png,1,m,Fri Feb 28 2025 16:08:21 GMT-0600 (Central Standard Time),286580.2000000002,CFD-WM-019-013-A.jpg,1200,dash,O,m,514,6,1,18577.399999999907,268002.8000000003,7073,ATS,A,9
10,test,1,B,mfborder.png,1,z,Fri Feb 28 2025 16:08:21 GMT-0600 (Central Standard Time),288629.6000000001,CFD-WF-003-014-A.jpg,1500,dash,O,z,521,11,1,20626.799999999814,268002.8000000003,7073,ATS,A,10
11,test,1,B,mfborder.png,1,z,Fri Feb 28 2025 16:08:21 GMT-0600 (Central Standard Time),290229.0,CFD-BF-023-013-A.jpg,1000,dash,O,z,572,4,1,22226.19999999972,268002.8000000003,7073,ATS,A,11
12,test,1,B,mfborder.png,1,m,Fri Feb 28 2025 16:08:21 GMT-0600 (Central Standard Time),292128.3999999999,CFD-WM-019-013-A.jpg,1200,dash,O,m,668,6,1,24125.599999999627,268002.8000000003,7073,ATS,A,12
13,test,1,B,mfborder.png,1,m,Fri Feb 28 2025 16:08:21 GMT-0600 (Central Standard Time),294294.5,CFD-BM-010-019-A.jpg,1600,dash,O,m,545,2,1,26291.69999999972,268002.8000000003,7073,ATS,A,13
14,test,1,B,mfborder.png,1,m,Fri Feb 28 2025 16:08:21 GMT-0600 (Central Standard Time),296793.6000000001,CFD-BM-005-010-A.jpg,2000,dash,O,m,475,5,1,28790.799999999814,268002.8000000003,7073,ATS,A,14
15,test,1,B,mfborder.png,1,z,Fri Feb 28 2025 16:08:21 GMT-0600 (Central Standard Time),298989.3999999999,CFD-BF-028-020-HC.jpg,1400,dash,O,z,779,7,1,30986.599999999627,268002.8000000003,7073,ATS,A,15
16,test,1,B,mfborder.png,1,z,Fri Feb 28 2025 16:08:21 GMT-0600 (Central Standard Time),300942.5,CFD-BF-028-020-HC.jpg,1400,dash,O,z,528,7,1,32939.69999999972,268002.8000000003,7073,ATS,A,16
17,test,1,B,mfborder.png,1,z,Fri Feb 28 2025 16:08:21 GMT-0600 (Central Standard Time),302641.8000000003,CFD-BF-023-013-A.jpg,1000,dash,O,z,674,4,1,34639.0,268002.8000000003,7073,ATS,A,17
18,test,1,B,mfborder.png,1,z,Fri Feb 28 2025 16:08:21 GMT-0600 (Central Standard Time),304774.3999999999,CFD-BF-010-005-HC.jpg,1500,dash,O,z,603,3,1,36771.59999999963,268002.8000000003,7073,ATS,A,18
19,test,1,B,mfborder.png,1,z,Fri Feb 28 2025 16:08:21 GMT-0600 (Central Standard Time),307290.3999999999,CFD-WF-002-008-HC.jpg,1900,dash,O,z,583,8,1,39287.59999999963,268002.8000000003,7073,ATS,A,19
20,test,1,B,mfborder.png,1,z,Fri Feb 28 2025 16:08:21 GMT-0600 (Central Standard Time),308823.3999999999,CFD-WF-017-016-HC.jpg,1000,dash,O,z,502,12,1,40820.59999999963,268002.8000000003,7073,ATS,A,20
21,test,1,B,mfborder.png,1,m,Fri Feb 28 2025 16:08:21 GMT-0600 (Central Standard Time),311372.8000000003,CFD-BM-005-010-A.jpg,2000,dash,O,m,532,5,1,43370.0,268002.8000000003,7073,ATS,A,21
22,test,1,B,mfborder.png,1,m,Fri Feb 28 2025 16:08:21 GMT-0600 (Central Standard Time),313371.7000000002,CFD-BM-010-019-A.jpg,1600,dash,O,m,381,2,1,45368.89999999991,268002.8000000003,7073,ATS,A,22
23,test,1,B,mfborder.png,1,m,Fri Feb 28 2025 16:08:21 GMT-0600 (Central Standard Time),315521.1000000001,CFD-WM-013-015-A.jpg,1700,dash,O,m,418,9,1,47518.299999999814,268002.8000000003,7073,ATS,A,23
24,test,1,B,mfborder.png,1,z,Fri Feb 28 2025 16:08:21 GMT-0600 (Central Standard Time),318053.6000000001,CFD-WF-002-008-HC.jpg,1900,dash,O,z,604,8,1,50050.799999999814,268002.8000000003,7073,ATS,A,24
0,prac,1,C,mfborder.png,0,m,Fri Feb 28 2025 16:08:21 GMT-0600 (Central Standard Time),367254.8999999999,CFD-BM-017-052-HC.jpg,2000,solid,O,None,1515,4,1,4298.5,362956.3999999999,7073,ATS,A,1
1,prac,1,C,haborder.png,1,z,Fri Feb 28 2025 16:08:21 GMT-0600 (Central Standard Time),370970.5,CFD-BF-023-013-A.jpg,1900,dash,O,z,1022,7,1,8014.100000000093,362956.3999999999,7073,ATS,A,2
2,prac,1,C,mfborder.png,1,m,Fri Feb 28 2025 16:08:21 GMT-0600 (Central Standard Time),373553.0,CFD-BM-005-010-A.jpg,1200,dash,O,m,592,5,1,10596.600000000093,362956.3999999999,7073,ATS,A,3
3,prac,1,C,haborder.png,1,z,Fri Feb 28 2025 16:08:21 GMT-0600 (Central Standard Time),377385.1000000001,CFD-WF-003-014-A.jpg,1600,dash,O,z,1448,9,1,14428.700000000186,362956.3999999999,7073,ATS,A,4
4,prac,1,C,mfborder.png,1,z,Fri Feb 28 2025 16:08:21 GMT-0600 (Central Standard Time),380134.5,CFD-BF-028-020-HC.jpg,1000,dash,O,z,961,3,1,17178.100000000093,362956.3999999999,7073,ATS,A,5
4,prac,1,C,mfborder.png,0,z,Fri Feb 28 2025 16:08:21 GMT-0600 (Central Standard Time),383550.6000000001,CFD-WF-017-016-HC.jpg,1600,dash,O,m,1044,1,1,20594.200000000186,362956.3999999999,7073,ATS,A,6
5,prac,1,C,haborder.png,1,m,Fri Feb 28 2025 16:08:21 GMT-0600 (Central Standard Time),386848.5,CFD-WM-004-005-HC.jpg,1400,solid,O,m,1108,12,1,23892.100000000093,362956.3999999999,7073,ATS,A,7
6,prac,1,C,haborder.png,1,m,Fri Feb 28 2025 16:08:21 GMT-0600 (Central Standard Time),390081.2000000002,CFD-WM-004-005-HC.jpg,1000,dash,O,m,1433,11,1,27124.80000000028,362956.3999999999,7073,ATS,A,8
7,prac,1,C,haborder.png,1,z,Fri Feb 28 2025 16:08:21 GMT-0600 (Central Standard Time),393680.0,CFD-BF-039-039-A.jpg,1700,solid,O,z,1100,8,1,30723.600000000093,362956.3999999999,7073,ATS,A,9
8,prac,1,C,mfborder.png,1,z,Fri Feb 28 2025 16:08:21 GMT-0600 (Central Standard Time),397095.5,CFD-WF-019-015-A.jpg,1500,solid,O,z,1117,2,1,34139.10000000009,362956.3999999999,7073,ATS,A,10
9,prac,1,C,haborder.png,1,m,Fri Feb 28 2025 16:08:21 GMT-0600 (Central Standard Time),400244.5,CFD-BM-029-026-HC.jpg,1500,solid,O,m,862,10,1,37288.10000000009,362956.3999999999,7073,ATS,A,11
9,prac,1,C,mfborder.png,0,m,Fri Feb 28 2025 16:08:21 GMT-0600 (Central Standard Time),404193.3000000003,CFD-WM-013-015-A.jpg,1700,solid,O,z,1458,6,1,41236.90000000037,362956.3999999999,7073,ATS,A,12
0,test,1,C,haborder.png,0,z,Fri Feb 28 2025 16:08:21 GMT-0600 (Central Standard Time),420804.8999999999,CFD-BM-005-010-A.jpg,1900,solid,O,m,988,8,1,2915.6999999997206,417889.2000000002,7073,ATS,A,1
1,test,1,C,mfborder.png,1,m,Fri Feb 28 2025 16:08:21 GMT-0600 (Central Standard Time),422887.5,CFD-WM-006-013-HC.jpg,1000,dash,O,m,1053,4,1,4998.299999999814,417889.2000000002,7073,ATS,A,2
2,test,1,C,mfborder.png,1,m,Fri Feb 28 2025 16:08:21 GMT-0600 (Central Standard Time),425120.1000000001,CFD-BM-029-026-HC.jpg,1200,dash,O,m,1010,6,1,7230.899999999907,417889.2000000002,7073,ATS,A,3
2,test,1,C,mfborder.png,0,z,Fri Feb 28 2025 16:08:21 GMT-0600 (Central Standard Time),428152.8000000003,CFD-WF-003-014-A.jpg,1500,dash,O,None,1516,3,1,10263.600000000093,417889.2000000002,7073,ATS,A,4
3,test,1,C,mfborder.png,1,z,Fri Feb 28 2025 16:08:21 GMT-0600 (Central Standard Time),430885.1000000001,CFD-BF-010-005-HC.jpg,1700,dash,O,z,1014,1,1,12995.899999999907,417889.2000000002,7073,ATS,A,5
4,test,1,C,haborder.png,1,m,Fri Feb 28 2025 16:08:21 GMT-0600 (Central Standard Time),433400.8999999999,CFD-WF-002-008-HC.jpg,1500,solid,O,m,992,11,1,15511.69999999972,417889.2000000002,7073,ATS,A,6
4,test,1,C,haborder.png,0,z,Fri Feb 28 2025 16:08:21 GMT-0600 (Central Standard Time),436333.3999999999,CFD-WM-013-015-A.jpg,1400,solid,O,None,1516,7,1,18444.19999999972,417889.2000000002,7073,ATS,A,7
4,test,1,C,haborder.png,0,z,Fri Feb 28 2025 16:08:21 GMT-0600 (Central Standard Time),439232.3999999999,CFD-BM-010-019-A.jpg,1700,solid,O,m,1169,9,1,21343.19999999972,417889.2000000002,7073,ATS,A,8
5,test,1,C,haborder.png,1,m,Fri Feb 28 2025 16:08:21 GMT-0600 (Central Standard Time),441681.7000000002,CFD-WF-017-016-HC.jpg,1000,solid,O,m,1412,12,1,23792.5,417889.2000000002,7073,ATS,A,9
5,test,1,C,mfborder.png,0,z,Fri Feb 28 2025 16:08:21 GMT-0600 (Central Standard Time),444814.1000000001,CFD-BF-023-013-A.jpg,1600,dash,O,None,1516,2,1,26924.899999999907,417889.2000000002,7073,ATS,A,10
5,test,1,C,mfborder.png,0,z,Fri Feb 28 2025 16:08:21 GMT-0600 (Central Standard Time),447949.5,CFD-BF-023-013-A.jpg,1600,dash,O,None,1515,2,1,30060.299999999814,417889.2000000002,7073,ATS,A,11
6,test,1,C,haborder.png,1,m,Fri Feb 28 2025 16:08:21 GMT-0600 (Central Standard Time),450695.6000000001,CFD-BF-028-020-HC.jpg,1600,solid,O,m,1119,10,1,32806.39999999991,417889.2000000002,7073,ATS,A,12
6,test,1,C,haborder.png,0,z,Fri Feb 28 2025 16:08:21 GMT-0600 (Central Standard Time),453627.8999999999,CFD-WM-013-015-A.jpg,1400,solid,O,None,1516,7,1,35738.69999999972,417889.2000000002,7073,ATS,A,13
6,test,1,C,mfborder.png,0,m,Fri Feb 28 2025 16:08:21 GMT-0600 (Central Standard Time),457160.1000000001,CFD-WM-019-013-A.jpg,2000,dash,O,None,1515,5,1,39270.89999999991,417889.2000000002,7073,ATS,A,14
6,test,1,C,mfborder.png,0,m,Fri Feb 28 2025 16:08:21 GMT-0600 (Central Standard Time),459892.8000000003,CFD-BM-029-026-HC.jpg,1200,dash,O,None,1516,6,1,42003.60000000009,417889.2000000002,7073,ATS,A,15
6,test,1,C,haborder.png,0,m,Fri Feb 28 2025 16:08:21 GMT-0600 (Central Standard Time),462924.8000000003,CFD-WF-002-008-HC.jpg,1500,solid,O,None,1512,11,1,45035.60000000009,417889.2000000002,7073,ATS,A,16
6,test,1,C,mfborder.png,0,z,Fri Feb 28 2025 16:08:21 GMT-0600 (Central Standard Time),465957.3999999999,CFD-WF-003-014-A.jpg,1500,dash,O,None,1515,3,1,48068.19999999972,417889.2000000002,7073,ATS,A,17
6,test,1,C,haborder.png,0,m,Fri Feb 28 2025 16:08:21 GMT-0600 (Central Standard Time),468490.2000000002,CFD-WF-017-016-HC.jpg,1000,solid,O,None,1516,12,1,50601.0,417889.2000000002,7073,ATS,A,18
6,test,1,C,haborder.png,0,z,Fri Feb 28 2025 16:08:21 GMT-0600 (Central Standard Time),471722.3999999999,CFD-BM-010-019-A.jpg,1700,solid,O,None,1515,9,1,53833.19999999972,417889.2000000002,7073,ATS,A,19
6,test,1,C,haborder.png,0,m,Fri Feb 28 2025 16:08:21 GMT-0600 (Central Standard Time),474838.0,CFD-BF-028-020-HC.jpg,1600,solid,O,z,1496,10,1,56948.799999999814,417889.2000000002,7073,ATS,A,20
6,test,1,C,haborder.png,0,z,Fri Feb 28 2025 16:08:21 GMT-0600 (Central Standard Time),477987.0,CFD-BM-005-010-A.jpg,1900,solid,O,m,1223,8,1,60097.799999999814,417889.2000000002,7073,ATS,A,21
6,test,1,C,mfborder.png,0,z,Fri Feb 28 2025 16:08:21 GMT-0600 (Central Standard Time),481002.8000000003,CFD-BF-010-005-HC.jpg,1700,dash,O,m,1298,1,1,63113.60000000009,417889.2000000002,7073,ATS,A,22
6,test,1,C,mfborder.png,0,m,Fri Feb 28 2025 16:08:21 GMT-0600 (Central Standard Time),483536.3999999999,CFD-WM-006-013-HC.jpg,1000,dash,O,None,1513,4,1,65647.19999999972,417889.2000000002,7073,ATS,A,23
7,test,1,C,mfborder.png,1,m,Fri Feb 28 2025 16:08:21 GMT-0600 (Central Standard Time),486367.5,CFD-WM-019-013-A.jpg,2000,dash,O,m,803,5,1,68478.29999999981,417889.2000000002,7073,ATS,A,24
0,test,2,C,mfborder.png,0,m,Fri Feb 28 2025 16:08:21 GMT-0600 (Central Standard Time),505128.8999999999,CFD-WM-013-015-A.jpg,1200,dash,O,None,1512,6,1,2732.899999999907,502396.0,7073,ATS,A,1
1,test,2,C,mfborder.png,1,m,Fri Feb 28 2025 16:08:21 GMT-0600 (Central Standard Time),506877.8999999999,CFD-BM-017-052-HC.jpg,1000,dash,O,m,718,4,1,4481.899999999907,502396.0,7073,ATS,A,2
2,test,2,C,haborder.png,1,m,Fri Feb 28 2025 16:08:21 GMT-0600 (Central Standard Time),509843.6000000001,CFD-BM-029-026-HC.jpg,1600,solid,O,m,1340,10,1,7447.600000000093,502396.0,7073,ATS,A,3
2,test,2,C,mfborder.png,0,z,Fri Feb 28 2025 16:08:21 GMT-0600 (Central Standard Time),512842.8000000003,CFD-WF-017-016-HC.jpg,1700,dash,O,m,1282,1,1,10446.80000000028,502396.0,7073,ATS,A,4
2,test,2,C,haborder.png,0,z,Fri Feb 28 2025 16:08:21 GMT-0600 (Central Standard Time),515775.2000000002,CFD-BF-023-013-A.jpg,1400,solid,O,None,1516,7,1,13379.200000000186,502396.0,7073,ATS,A,5
2,test,2,C,haborder.png,0,m,Fri Feb 28 2025 16:08:21 GMT-0600 (Central Standard Time),518907.6000000001,CFD-BM-029-026-HC.jpg,1600,solid,O,None,1515,10,1,16511.600000000093,502396.0,7073,ATS,A,6
2,test,2,C,haborder.png,0,m,Fri Feb 28 2025 16:08:21 GMT-0600 (Central Standard Time),521439.8999999999,CFD-WM-004-005-HC.jpg,1000,solid,O,None,1516,12,1,19043.899999999907,502396.0,7073,ATS,A,7
3,test,2,C,mfborder.png,1,z,Fri Feb 28 2025 16:08:21 GMT-0600 (Central Standard Time),524372.6000000001,CFD-WF-017-016-HC.jpg,1700,dash,O,z,1214,1,1,21976.600000000093,502396.0,7073,ATS,A,8
4,test,2,C,mfborder.png,1,z,Fri Feb 28 2025 16:08:21 GMT-0600 (Central Standard Time),527171.3000000003,CFD-WF-019-015-A.jpg,1600,dash,O,z,1181,2,1,24775.30000000028,502396.0,7073,ATS,A,9
5,test,2,C,mfborder.png,1,z,Fri Feb 28 2025 16:08:21 GMT-0600 (Central Standard Time),529554.2000000002,CFD-WF-019-015-A.jpg,1600,dash,O,z,750,2,1,27158.200000000186,502396.0,7073,ATS,A,10
6,test,2,C,mfborder.png,1,z,Fri Feb 28 2025 16:08:21 GMT-0600 (Central Standard Time),531786.6000000001,CFD-BF-028-020-HC.jpg,1500,dash,O,z,707,3,1,29390.600000000093,502396.0,7073,ATS,A,11
6,test,2,C,haborder.png,0,z,Fri Feb 28 2025 16:08:21 GMT-0600 (Central Standard Time),534670.1000000001,CFD-BF-039-039-A.jpg,1900,solid,O,m,955,8,1,32274.100000000093,502396.0,7073,ATS,A,12
7,test,2,C,haborder.png,1,m,Fri Feb 28 2025 16:08:21 GMT-0600 (Central Standard Time),537335.0,CFD-WM-004-005-HC.jpg,1500,solid,O,m,1137,11,1,34939.0,502396.0,7073,ATS,A,13
8,test,2,C,haborder.png,1,z,Fri Feb 28 2025 16:08:21 GMT-0600 (Central Standard Time),540234.0,CFD-WF-003-014-A.jpg,1700,solid,O,z,1175,9,1,37838.0,502396.0,7073,ATS,A,14
9,test,2,C,mfborder.png,1,m,Fri Feb 28 2025 16:08:21 GMT-0600 (Central Standard Time),543433.3999999999,CFD-BM-005-010-A.jpg,2000,dash,O,m,1177,5,1,41037.39999999991,502396.0,7073,ATS,A,15
10,test,2,C,haborder.png,1,m,Fri Feb 28 2025 16:08:21 GMT-0600 (Central Standard Time),545915.5,CFD-WM-004-005-HC.jpg,1500,solid,O,m,965,11,1,43519.5,502396.0,7073,ATS,A,16
11,test,2,C,mfborder.png,1,m,Fri Feb 28 2025 16:08:21 GMT-0600 (Central Standard Time),547798.3999999999,CFD-BM-017-052-HC.jpg,1000,dash,O,m,853,4,1,45402.39999999991,502396.0,7073,ATS,A,17
12,test,2,C,mfborder.png,1,m,Fri Feb 28 2025 16:08:21 GMT-0600 (Central Standard Time),550114.5,CFD-WM-013-015-A.jpg,1200,dash,O,m,1092,6,1,47718.5,502396.0,7073,ATS,A,18
13,test,2,C,mfborder.png,1,z,Fri Feb 28 2025 16:08:21 GMT-0600 (Central Standard Time),552547.0,CFD-BF-028-020-HC.jpg,1500,dash,O,z,907,3,1,50151.0,502396.0,7073,ATS,A,19
14,test,2,C,haborder.png,1,z,Fri Feb 28 2025 16:08:21 GMT-0600 (Central Standard Time),554963.0,CFD-WF-003-014-A.jpg,1700,solid,O,z,690,9,1,52567.0,502396.0,7073,ATS,A,20
15,test,2,C,haborder.png,1,z,Fri Feb 28 2025 16:08:21 GMT-0600 (Central Standard Time),557062.3000000003,CFD-BF-023-013-A.jpg,1400,solid,O,z,680,7,1,54666.30000000028,502396.0,7073,ATS,A,21
16,test,2,C,mfborder.png,1,m,Fri Feb 28 2025 16:08:21 GMT-0600 (Central Standard Time),559894.6000000001,CFD-BM-005-010-A.jpg,2000,dash,O,m,803,5,1,57498.60000000009,502396.0,7073,ATS,A,22
17,test,2,C,haborder.png,1,z,Fri Feb 28 2025 16:08:21 GMT-0600 (Central Standard Time),562593.8999999999,CFD-BF-039-039-A.jpg,1900,solid,O,z,767,8,1,60197.89999999991,502396.0,7073,ATS,A,23
18,test,2,C,haborder.png,1,m,Fri Feb 28 2025 16:08:21 GMT-0600 (Central Standard Time),564343.6000000001,CFD-WM-004-005-HC.jpg,1000,solid,O,m,717,12,1,61947.60000000009,502396.0,7073,ATS,A,24
0,test,3,C,mfborder.png,0,m,Fri Feb 28 2025 16:08:21 GMT-0600 (Central Standard Time),574473.5,CFD-WM-019-013-A.jpg,2000,dash,O,None,1515,5,1,3532.1999999997206,570941.3000000003,7073,ATS,A,1
1,test,3,C,mfborder.png,1,z,Fri Feb 28 2025 16:08:21 GMT-0600 (Central Standard Time),576973.8999999999,CFD-BF-023-013-A.jpg,1600,dash,O,z,880,2,1,6032.5999999996275,570941.3000000003,7073,ATS,A,2
2,test,3,C,mfborder.png,1,m,Fri Feb 28 2025 16:08:21 GMT-0600 (Central Standard Time),578705.6000000001,CFD-WM-006-013-HC.jpg,1000,dash,O,m,709,4,1,7764.299999999814,570941.3000000003,7073,ATS,A,3
3,test,3,C,mfborder.png,1,z,Fri Feb 28 2025 16:08:21 GMT-0600 (Central Standard Time),581154.8000000003,CFD-BF-023-013-A.jpg,1600,dash,O,z,825,2,1,10213.5,570941.3000000003,7073,ATS,A,4
4,test,3,C,haborder.png,1,m,Fri Feb 28 2025 16:08:21 GMT-0600 (Central Standard Time),583656.8999999999,CFD-BF-028-020-HC.jpg,1600,solid,O,m,880,10,1,12715.599999999627,570941.3000000003,7073,ATS,A,5
4,test,3,C,haborder.png,0,z,Fri Feb 28 2025 16:08:21 GMT-0600 (Central Standard Time),586619.3999999999,CFD-BM-005-010-A.jpg,1900,solid,O,m,1039,8,1,15678.099999999627,570941.3000000003,7073,ATS,A,6
5,test,3,C,haborder.png,1,m,Fri Feb 28 2025 16:08:21 GMT-0600 (Central Standard Time),589435.3000000003,CFD-WF-002-008-HC.jpg,1500,solid,O,m,1299,11,1,18494.0,570941.3000000003,7073,ATS,A,7
6,test,3,C,mfborder.png,1,m,Fri Feb 28 2025 16:08:21 GMT-0600 (Central Standard Time),591917.8999999999,CFD-BM-029-026-HC.jpg,1200,dash,O,m,1255,6,1,20976.599999999627,570941.3000000003,7073,ATS,A,8
7,test,3,C,haborder.png,1,z,Fri Feb 28 2025 16:08:21 GMT-0600 (Central Standard Time),595034.7000000002,CFD-BM-005-010-A.jpg,1900,solid,O,z,1200,8,1,24093.399999999907,570941.3000000003,7073,ATS,A,9
7,test,3,C,mfborder.png,0,z,Fri Feb 28 2025 16:08:21 GMT-0600 (Central Standard Time),597516.3000000003,CFD-BF-010-005-HC.jpg,1700,dash,O,m,765,1,1,26575.0,570941.3000000003,7073,ATS,A,10
7,test,3,C,mfborder.png,0,z,Fri Feb 28 2025 16:08:21 GMT-0600 (Central Standard Time),599882.2000000002,CFD-WF-003-014-A.jpg,1500,dash,O,m,842,3,1,28940.899999999907,570941.3000000003,7073,ATS,A,11
7,test,3,C,haborder.png,0,z,Fri Feb 28 2025 16:08:21 GMT-0600 (Central Standard Time),602681.2000000002,CFD-BM-010-019-A.jpg,1700,solid,O,m,1076,9,1,31739.899999999907,570941.3000000003,7073,ATS,A,12
7,test,3,C,haborder.png,0,z,Fri Feb 28 2025 16:08:21 GMT-0600 (Central Standard Time),605109.6000000001,CFD-WM-013-015-A.jpg,1400,solid,O,m,1011,7,1,34168.299999999814,570941.3000000003,7073,ATS,A,13
7,test,3,C,mfborder.png,0,m,Fri Feb 28 2025 16:08:21 GMT-0600 (Central Standard Time),607646.3999999999,CFD-WM-006-013-HC.jpg,1000,dash,O,None,1515,4,1,36705.09999999963,570941.3000000003,7073,ATS,A,14
8,test,3,C,mfborder.png,1,z,Fri Feb 28 2025 16:08:21 GMT-0600 (Central Standard Time),610845.6000000001,CFD-BF-010-005-HC.jpg,1700,dash,O,z,1472,1,1,39904.299999999814,570941.3000000003,7073,ATS,A,15
9,test,3,C,mfborder.png,1,m,Fri Feb 28 2025 16:08:21 GMT-0600 (Central Standard Time),613661.2000000002,CFD-WM-019-013-A.jpg,2000,dash,O,m,797,5,1,42719.89999999991,570941.3000000003,7073,ATS,A,16
10,test,3,C,mfborder.png,1,m,Fri Feb 28 2025 16:08:21 GMT-0600 (Central Standard Time),615544.0,CFD-BM-029-026-HC.jpg,1200,dash,O,m,660,6,1,44602.69999999972,570941.3000000003,7073,ATS,A,17
11,test,3,C,haborder.png,1,z,Fri Feb 28 2025 16:08:21 GMT-0600 (Central Standard Time),618259.6000000001,CFD-WM-013-015-A.jpg,1400,solid,O,z,1298,7,1,47318.299999999814,570941.3000000003,7073,ATS,A,18
12,test,3,C,haborder.png,1,z,Fri Feb 28 2025 16:08:21 GMT-0600 (Central Standard Time),621008.8999999999,CFD-BM-010-019-A.jpg,1700,solid,O,z,1027,9,1,50067.59999999963,570941.3000000003,7073,ATS,A,19
12,test,3,C,haborder.png,0,m,Fri Feb 28 2025 16:08:21 GMT-0600 (Central Standard Time),623275.1000000001,CFD-WF-017-016-HC.jpg,1000,solid,O,z,1233,12,1,52333.799999999814,570941.3000000003,7073,ATS,A,20
12,test,3,C,haborder.png,0,m,Fri Feb 28 2025 16:08:21 GMT-0600 (Central Standard Time),625990.7000000002,CFD-BF-028-020-HC.jpg,1600,solid,O,z,1096,10,1,55049.39999999991,570941.3000000003,7073,ATS,A,21
13,test,3,C,haborder.png,1,m,Fri Feb 28 2025 16:08:21 GMT-0600 (Central Standard Time),628439.8000000003,CFD-WF-002-008-HC.jpg,1500,solid,O,m,928,11,1,57498.5,570941.3000000003,7073,ATS,A,22
14,test,3,C,haborder.png,1,m,Fri Feb 28 2025 16:08:21 GMT-0600 (Central Standard Time),630339.3999999999,CFD-WF-017-016-HC.jpg,1000,solid,O,m,874,12,1,59398.09999999963,570941.3000000003,7073,ATS,A,23
15,test,3,C,mfborder.png,1,z,Fri Feb 28 2025 16:08:21 GMT-0600 (Central Standard Time),633321.8999999999,CFD-WF-003-014-A.jpg,1500,dash,O,z,1450,3,1,62380.59999999963,570941.3000000003,7073,ATS,A,24
0,test,4,C,mfborder.png,0,z,Fri Feb 28 2025 16:08:21 GMT-0600 (Central Standard Time),639803.2000000002,CFD-WF-019-015-A.jpg,1600,dash,O,None,1515,2,1,3132.2000000001863,636671.0,7073,ATS,A,1
0,test,4,C,mfborder.png,0,m,Fri Feb 28 2025 16:08:21 GMT-0600 (Central Standard Time),643335.3000000003,CFD-BM-005-010-A.jpg,2000,dash,O,None,1511,5,1,6664.300000000279,636671.0,7073,ATS,A,2
0,test,4,C,mfborder.png,0,z,Fri Feb 28 2025 16:08:21 GMT-0600 (Central Standard Time),646367.8000000003,CFD-BF-028-020-HC.jpg,1500,dash,O,None,1516,3,1,9696.80000000028,636671.0,7073,ATS,A,3
1,test,4,C,mfborder.png,1,z,Fri Feb 28 2025 16:08:21 GMT-0600 (Central Standard Time),648916.8999999999,CFD-WF-017-016-HC.jpg,1700,dash,O,z,822,1,1,12245.899999999907,636671.0,7073,ATS,A,4
2,test,4,C,haborder.png,1,m,Fri Feb 28 2025 16:08:21 GMT-0600 (Central Standard Time),651199.1000000001,CFD-WM-004-005-HC.jpg,1500,solid,O,m,752,11,1,14528.100000000093,636671.0,7073,ATS,A,5
3,test,4,C,mfborder.png,1,z,Fri Feb 28 2025 16:08:21 GMT-0600 (Central Standard Time),654048.5,CFD-WF-017-016-HC.jpg,1700,dash,O,z,1127,1,1,17377.5,636671.0,7073,ATS,A,6
4,test,4,C,haborder.png,1,z,Fri Feb 28 2025 16:08:21 GMT-0600 (Central Standard Time),657447.6000000001,CFD-BF-039-039-A.jpg,1900,solid,O,z,1470,8,1,20776.600000000093,636671.0,7073,ATS,A,7
5,test,4,C,haborder.png,1,z,Fri Feb 28 2025 16:08:21 GMT-0600 (Central Standard Time),660446.6000000001,CFD-WF-003-014-A.jpg,1700,solid,O,z,1279,9,1,23775.600000000093,636671.0,7073,ATS,A,8
6,test,4,C,mfborder.png,1,m,Fri Feb 28 2025 16:08:21 GMT-0600 (Central Standard Time),662646.0,CFD-WM-013-015-A.jpg,1200,dash,O,m,979,6,1,25975.0,636671.0,7073,ATS,A,9
7,test,4,C,mfborder.png,1,m,Fri Feb 28 2025 16:08:21 GMT-0600 (Central Standard Time),664412.0,CFD-BM-017-052-HC.jpg,1000,dash,O,m,748,4,1,27741.0,636671.0,7073,ATS,A,10
8,test,4,C,haborder.png,1,m,Fri Feb 28 2025 16:08:21 GMT-0600 (Central Standard Time),667244.2000000002,CFD-BM-029-026-HC.jpg,1600,solid,O,m,1206,10,1,30573.200000000186,636671.0,7073,ATS,A,11
9,test,4,C,haborder.png,1,z,Fri Feb 28 2025 16:08:21 GMT-0600 (Central Standard Time),670043.3000000003,CFD-WF-003-014-A.jpg,1700,solid,O,z,1082,9,1,33372.30000000028,636671.0,7073,ATS,A,12
10,test,4,C,mfborder.png,1,m,Fri Feb 28 2025 16:08:21 GMT-0600 (Central Standard Time),673242.8999999999,CFD-BM-005-010-A.jpg,2000,dash,O,m,1183,5,1,36571.89999999991,636671.0,7073,ATS,A,13
11,test,4,C,haborder.png,1,m,Fri Feb 28 2025 16:08:21 GMT-0600 (Central Standard Time),675703.8999999999,CFD-WM-004-005-HC.jpg,1500,solid,O,m,945,11,1,39032.89999999991,636671.0,7073,ATS,A,14
11,test,4,C,mfborder.png,0,z,Fri Feb 28 2025 16:08:21 GMT-0600 (Central Standard Time),678224.5,CFD-BF-028-020-HC.jpg,1500,dash,O,m,986,3,1,41553.5,636671.0,7073,ATS,A,15
12,test,4,C,haborder.png,1,z,Fri Feb 28 2025 16:08:21 GMT-0600 (Central Standard Time),681339.8999999999,CFD-BF-039-039-A.jpg,1900,solid,O,z,1190,8,1,44668.89999999991,636671.0,7073,ATS,A,16
13,test,4,C,mfborder.png,1,m,Fri Feb 28 2025 16:08:21 GMT-0600 (Central Standard Time),683076.1000000001,CFD-BM-017-052-HC.jpg,1000,dash,O,m,702,4,1,46405.10000000009,636671.0,7073,ATS,A,17
14,test,4,C,mfborder.png,1,z,Fri Feb 28 2025 16:08:21 GMT-0600 (Central Standard Time),685639.8999999999,CFD-WF-019-015-A.jpg,1600,dash,O,z,945,2,1,48968.89999999991,636671.0,7073,ATS,A,18
15,test,4,C,haborder.png,1,m,Fri Feb 28 2025 16:08:21 GMT-0600 (Central Standard Time),687558.8999999999,CFD-WM-004-005-HC.jpg,1000,solid,O,m,899,12,1,50887.89999999991,636671.0,7073,ATS,A,19
16,test,4,C,haborder.png,1,m,Fri Feb 28 2025 16:08:21 GMT-0600 (Central Standard Time),689987.3000000003,CFD-BM-029-026-HC.jpg,1600,solid,O,m,816,10,1,53316.30000000028,636671.0,7073,ATS,A,20
17,test,4,C,mfborder.png,1,m,Fri Feb 28 2025 16:08:21 GMT-0600 (Central Standard Time),692386.7000000002,CFD-WM-013-015-A.jpg,1200,dash,O,m,1174,6,1,55715.700000000186,636671.0,7073,ATS,A,21
18,test,4,C,haborder.png,1,z,Fri Feb 28 2025 16:08:21 GMT-0600 (Central Standard Time),694769.2000000002,CFD-BF-023-013-A.jpg,1400,solid,O,z,948,7,1,58098.200000000186,636671.0,7073,ATS,A,22
19,test,4,C,haborder.png,1,m,Fri Feb 28 2025 16:08:21 GMT-0600 (Central Standard Time),697251.7000000002,CFD-WM-004-005-HC.jpg,1000,solid,O,m,1464,12,1,60580.700000000186,636671.0,7073,ATS,A,23
20,test,4,C,haborder.png,1,z,Fri Feb 28 2025 16:08:21 GMT-0600 (Central Standard Time),699418.7000000002,CFD-BF-023-013-A.jpg,1400,solid,O,z,742,7,1,62747.700000000186,636671.0,7073,ATS,A,24
