acc_sum,block,block_c,change,condition,correct,correct_response,datetime,endtime,face,project,response,response_time,row_sel,session_number,start_end,starttime,subject_id,task,task_vers,trial
0,prac,1,,1-Back,,,Wed Mar 19 2025 13:29:18 GMT-0500 (Central Daylight Time),,012_o_f_d_a.png,O,space,7860,1,1,,,7045,VNB,C,0
1,prac,1,0.0,1-Back,1,m,Wed Mar 19 2025 13:29:18 GMT-0500 (Central Daylight Time),151527.0,022_y_f_n_a.png,O,m,1316,2,1,2238.39999999851,149288.6000000015,7045,VNB,C,1
2,prac,1,0.0,1-Back,1,m,Wed Mar 19 2025 13:29:18 GMT-0500 (Central Daylight Time),153709.6000000015,014_m_m_h_a.png,O,m,1281,3,1,2173.60000000149,151536.0,7045,VNB,C,2
3,prac,1,0.0,1-Back,1,m,Wed Mar 19 2025 13:29:18 GMT-0500 (Central Daylight Time),155725.8999999985,025_y_m_d_a.png,O,m,1123,4,1,2006.5,153719.3999999985,7045,VNB,C,3
4,prac,1,0.0,1-Back,1,m,Wed Mar 19 2025 13:29:18 GMT-0500 (Central Daylight Time),157641.79999999702,012_o_f_n_a.png,O,m,995,5,1,1906.6000000014901,155735.19999999553,7045,VNB,C,4
4,prac,1,1.0,1-Back,0,z,Wed Mar 19 2025 13:29:18 GMT-0500 (Central Daylight Time),159824.5,025_y_m_n_a.png,O,m,1278,6,1,2174.3000000044703,157650.19999999553,7045,VNB,C,5
5,prac,1,0.0,1-Back,1,m,Wed Mar 19 2025 13:29:18 GMT-0500 (Central Daylight Time),162057.29999999702,015_o_m_h_a.png,O,m,1315,7,1,2224.39999999851,159832.8999999985,7045,VNB,C,6
5,prac,1,0.0,1-Back,0,m,Wed Mar 19 2025 13:29:18 GMT-0500 (Central Daylight Time),164123.1000000015,019_m_f_d_a.png,O,z,1154,8,1,2058.4000000059605,162064.69999999553,7045,VNB,C,7
6,prac,1,1.0,1-Back,1,z,Wed Mar 19 2025 13:29:18 GMT-0500 (Central Daylight Time),165989.1000000015,022_y_f_d_a.png,O,z,947,9,1,1858.5,164130.6000000015,7045,VNB,C,8
7,prac,1,0.0,1-Back,1,m,Wed Mar 19 2025 13:29:18 GMT-0500 (Central Daylight Time),167972.19999999553,014_m_m_n_a.png,O,m,1083,10,1,1974.0,165998.19999999553,7045,VNB,C,9
8,prac,1,0.0,1-Back,1,m,Wed Mar 19 2025 13:29:18 GMT-0500 (Central Daylight Time),170069.3999999985,012_o_f_h_a.png,O,m,1136,11,1,2091.5,167977.8999999985,7045,VNB,C,10
9,prac,1,0.0,1-Back,1,m,Wed Mar 19 2025 13:29:18 GMT-0500 (Central Daylight Time),171904.0,025_y_m_d_a.png,O,m,949,12,1,1828.3999999985099,170075.6000000015,7045,VNB,C,11
0,test,1,0.0,1-Back,,,Wed Mar 19 2025 13:29:18 GMT-0500 (Central Daylight Time),171904.0,022_y_f_d_a.png,O,space,7070,1,1,1828.3999999985099,170075.6000000015,7045,VNB,C,0
1,test,1,0.0,1-Back,1,m,Wed Mar 19 2025 13:29:18 GMT-0500 (Central Daylight Time),195063.19999999553,019_m_f_n_a.png,O,m,943,2,1,1961.0,193102.19999999553,7045,VNB,C,1
2,test,1,0.0,1-Back,1,m,Wed Mar 19 2025 13:29:18 GMT-0500 (Central Daylight Time),197029.19999999553,015_o_m_h_a.png,O,m,937,3,1,1960.5,195068.69999999553,7045,VNB,C,2
3,test,1,1.0,1-Back,1,z,Wed Mar 19 2025 13:29:18 GMT-0500 (Central Daylight Time),199228.3999999985,014_m_m_h_a.png,O,z,1171,4,1,2193.7999999970198,197034.6000000015,7045,VNB,C,3
4,test,1,0.0,1-Back,1,m,Wed Mar 19 2025 13:29:18 GMT-0500 (Central Daylight Time),200911.3999999985,012_o_f_n_a.png,O,m,652,5,1,1677.5,199233.8999999985,7045,VNB,C,4
5,test,1,0.0,1-Back,1,m,Wed Mar 19 2025 13:29:18 GMT-0500 (Central Daylight Time),202927.3999999985,025_y_m_d_a.png,O,m,994,6,1,2010.2000000029802,200917.19999999553,7045,VNB,C,5
5,test,1,1.0,1-Back,0,z,Wed Mar 19 2025 13:29:18 GMT-0500 (Central Daylight Time),205043.5,019_m_f_d_a.png,O,m,1089,7,1,2110.89999999851,202932.6000000015,7045,VNB,C,6
5,test,1,0.0,1-Back,0,m,Wed Mar 19 2025 13:29:18 GMT-0500 (Central Daylight Time),206959.5,022_y_f_h_a.png,O,z,893,8,1,1910.5,205049.0,7045,VNB,C,7
6,test,1,0.0,1-Back,1,m,Wed Mar 19 2025 13:29:18 GMT-0500 (Central Daylight Time),209075.3999999985,015_o_m_n_a.png,O,m,1089,9,1,2110.5,206964.8999999985,7045,VNB,C,8
7,test,1,0.0,1-Back,1,m,Wed Mar 19 2025 13:29:18 GMT-0500 (Central Daylight Time),211324.69999999553,025_y_m_h_a.png,O,m,1229,10,1,2244.0,209080.69999999553,7045,VNB,C,9
8,test,1,0.0,1-Back,1,m,Wed Mar 19 2025 13:29:18 GMT-0500 (Central Daylight Time),213257.5,015_o_m_d_a.png,O,m,908,11,1,1927.8999999985099,211329.6000000015,7045,VNB,C,10
8,test,1,1.0,1-Back,0,z,Wed Mar 19 2025 13:29:18 GMT-0500 (Central Daylight Time),215106.8999999985,012_o_f_d_a.png,O,m,823,12,1,1843.8999999985099,213263.0,7045,VNB,C,11
9,test,1,0.0,1-Back,1,m,Wed Mar 19 2025 13:29:18 GMT-0500 (Central Daylight Time),217338.3999999985,014_m_m_n_a.png,O,m,1214,13,1,2225.10000000149,215113.29999999702,7045,VNB,C,12
9,test,1,1.0,1-Back,0,z,Wed Mar 19 2025 13:29:18 GMT-0500 (Central Daylight Time),219688.79999999702,022_y_f_n_a.png,O,m,1318,14,1,2344.7999999970198,217344.0,7045,VNB,C,13
10,test,1,0.0,1-Back,1,m,Wed Mar 19 2025 13:29:18 GMT-0500 (Central Daylight Time),221804.69999999553,019_m_f_h_a.png,O,m,1087,15,1,2110.2999999970198,219694.3999999985,7045,VNB,C,14
11,test,1,0.0,1-Back,1,m,Wed Mar 19 2025 13:29:18 GMT-0500 (Central Daylight Time),223854.19999999553,014_m_m_d_a.png,O,m,1028,16,1,2043.2999999970198,221810.8999999985,7045,VNB,C,15
12,test,1,0.0,1-Back,1,m,Wed Mar 19 2025 13:29:18 GMT-0500 (Central Daylight Time),225803.5,025_y_m_n_a.png,O,m,922,17,1,1943.8000000044703,223859.69999999553,7045,VNB,C,16
13,test,1,0.0,1-Back,1,m,Wed Mar 19 2025 13:29:18 GMT-0500 (Central Daylight Time),228102.79999999702,012_o_f_h_a.png,O,m,1268,18,1,2294.0,225808.79999999702,7045,VNB,C,17
0,test,2,0.0,1-Back,,,Wed Mar 19 2025 13:29:18 GMT-0500 (Central Daylight Time),228102.79999999702,025_y_m_n_a.png,O,space,1465,1,1,2294.0,225808.79999999702,7045,VNB,C,0
1,test,2,0.0,1-Back,1,m,Wed Mar 19 2025 13:29:18 GMT-0500 (Central Daylight Time),233451.1000000015,022_y_f_h_a.png,O,m,831,2,1,1843.9000000059605,231607.19999999553,7045,VNB,C,1
2,test,2,1.0,1-Back,1,m,Wed Mar 19 2025 13:29:18 GMT-0500 (Central Daylight Time),235467.1000000015,015_o_m_n_a.png,O,m,998,3,1,2010.7000000029802,233456.3999999985,7045,VNB,C,2
3,test,2,0.0,1-Back,1,m,Wed Mar 19 2025 13:29:18 GMT-0500 (Central Daylight Time),237516.5,019_m_f_d_a.png,O,m,1021,4,1,2043.6000000014901,235472.8999999985,7045,VNB,C,3
3,test,2,0.0,1-Back,0,z,Wed Mar 19 2025 13:29:18 GMT-0500 (Central Daylight Time),239432.5,014_m_m_d_a.png,O,m,891,5,1,1910.7000000029802,237521.79999999702,7045,VNB,C,4
4,test,2,0.0,1-Back,1,m,Wed Mar 19 2025 13:29:18 GMT-0500 (Central Daylight Time),241582.0,025_y_m_h_a.png,O,m,1119,6,1,2144.7000000029802,239437.29999999702,7045,VNB,C,5
4,test,2,1.0,1-Back,0,z,Wed Mar 19 2025 13:29:18 GMT-0500 (Central Daylight Time),244214.5,012_o_f_h_a.png,O,m,1602,7,1,2626.89999999851,241587.6000000015,7045,VNB,C,6
5,test,2,0.0,1-Back,1,m,Wed Mar 19 2025 13:29:18 GMT-0500 (Central Daylight Time),246197.1000000015,019_m_f_n_a.png,O,m,955,8,1,1976.8000000044703,244220.29999999702,7045,VNB,C,7
6,test,2,0.0,1-Back,1,m,Wed Mar 19 2025 13:29:18 GMT-0500 (Central Daylight Time),248213.19999999553,022_y_f_d_a.png,O,m,987,9,1,2011.0999999940395,246202.1000000015,7045,VNB,C,8
7,test,2,0.0,1-Back,1,m,Wed Mar 19 2025 13:29:18 GMT-0500 (Central Daylight Time),250512.5,014_m_m_n_a.png,O,m,1267,10,1,2294.2000000029802,248218.29999999702,7045,VNB,C,9
8,test,2,1.0,1-Back,1,m,Wed Mar 19 2025 13:29:18 GMT-0500 (Central Daylight Time),252661.8999999985,019_m_f_h_a.png,O,m,1129,11,1,2143.7999999970198,250518.1000000015,7045,VNB,C,10
9,test,2,0.0,1-Back,1,z,Wed Mar 19 2025 13:29:18 GMT-0500 (Central Daylight Time),254727.79999999702,015_o_m_h_a.png,O,z,1042,12,1,2059.7999999970198,252668.0,7045,VNB,C,11
10,test,2,0.0,1-Back,1,m,Wed Mar 19 2025 13:29:18 GMT-0500 (Central Daylight Time),256643.8999999985,025_y_m_d_a.png,O,m,889,13,1,1910.8999999985099,254733.0,7045,VNB,C,12
11,test,2,0.0,1-Back,1,m,Wed Mar 19 2025 13:29:18 GMT-0500 (Central Daylight Time),259143.1000000015,012_o_f_n_a.png,O,m,1468,14,1,2494.3000000044703,256648.79999999702,7045,VNB,C,13
11,test,2,0.0,1-Back,0,z,Wed Mar 19 2025 13:29:18 GMT-0500 (Central Daylight Time),261125.8999999985,022_y_f_n_a.png,O,m,953,15,1,1977.0,259148.8999999985,7045,VNB,C,14
12,test,2,1.0,1-Back,1,m,Wed Mar 19 2025 13:29:18 GMT-0500 (Central Daylight Time),263375.19999999553,014_m_m_h_a.png,O,m,1228,16,1,2244.0,261131.19999999553,7045,VNB,C,15
13,test,2,0.0,1-Back,1,m,Wed Mar 19 2025 13:29:18 GMT-0500 (Central Daylight Time),265374.6000000015,012_o_f_d_a.png,O,m,973,17,1,1994.2000000029802,263380.3999999985,7045,VNB,C,16
13,test,2,1.0,1-Back,0,z,Wed Mar 19 2025 13:29:18 GMT-0500 (Central Daylight Time),267823.799999997,015_o_m_d_a.png,O,m,1419,18,1,2443.6999999955297,265380.1000000015,7045,VNB,C,17
0,test,3,1.0,1-Back,,,Wed Mar 19 2025 13:29:18 GMT-0500 (Central Daylight Time),267823.799999997,012_o_f_h_a.png,O,space,1481,1,1,2443.6999999955297,265380.1000000015,7045,VNB,C,0
1,test,3,0.0,1-Back,1,m,Wed Mar 19 2025 13:29:18 GMT-0500 (Central Daylight Time),273755.19999999553,019_m_f_d_a.png,O,m,1257,2,1,2294.5999999940395,271460.6000000015,7045,VNB,C,1
2,test,3,1.0,1-Back,1,m,Wed Mar 19 2025 13:29:18 GMT-0500 (Central Daylight Time),275871.19999999553,014_m_m_n_a.png,O,m,1094,3,1,2111.0,273760.19999999553,7045,VNB,C,2
3,test,3,0.0,1-Back,1,z,Wed Mar 19 2025 13:29:18 GMT-0500 (Central Daylight Time),278187.19999999553,012_o_f_n_a.png,O,z,1290,4,1,2311.2999999970198,275875.8999999985,7045,VNB,C,3
4,test,3,1.0,1-Back,1,m,Wed Mar 19 2025 13:29:18 GMT-0500 (Central Daylight Time),280236.5,015_o_m_d_a.png,O,m,1030,5,1,2044.8000000044703,278191.69999999553,7045,VNB,C,4
5,test,3,0.0,1-Back,1,m,Wed Mar 19 2025 13:29:18 GMT-0500 (Central Daylight Time),282302.5,022_y_f_h_a.png,O,m,1037,6,1,2061.7000000029802,280240.799999997,7045,VNB,C,5
6,test,3,0.0,1-Back,1,z,Wed Mar 19 2025 13:29:18 GMT-0500 (Central Daylight Time),284401.8999999985,025_y_m_h_a.png,O,z,1066,7,1,2094.5,282307.3999999985,7045,VNB,C,6
7,test,3,0.0,1-Back,1,m,Wed Mar 19 2025 13:29:18 GMT-0500 (Central Daylight Time),286401.299999997,019_m_f_n_a.png,O,m,975,8,1,1994.5,284406.799999997,7045,VNB,C,7
8,test,3,0.0,1-Back,1,m,Wed Mar 19 2025 13:29:18 GMT-0500 (Central Daylight Time),288767.3999999985,022_y_f_d_a.png,O,m,1336,9,1,2361.2999999970198,286406.1000000015,7045,VNB,C,8
9,test,3,1.0,1-Back,1,m,Wed Mar 19 2025 13:29:18 GMT-0500 (Central Daylight Time),291216.69999999553,015_o_m_n_a.png,O,m,1426,10,1,2442.2999999970198,288774.3999999985,7045,VNB,C,9
10,test,3,0.0,1-Back,1,m,Wed Mar 19 2025 13:29:18 GMT-0500 (Central Daylight Time),293616.0,014_m_m_h_a.png,O,m,1368,11,1,2392.60000000149,291223.3999999985,7045,VNB,C,10
11,test,3,0.0,1-Back,1,z,Wed Mar 19 2025 13:29:18 GMT-0500 (Central Daylight Time),295615.299999997,019_m_f_h_a.png,O,z,968,12,1,1993.6999999955297,293621.6000000015,7045,VNB,C,11
12,test,3,1.0,1-Back,1,m,Wed Mar 19 2025 13:29:18 GMT-0500 (Central Daylight Time),297547.8999999985,012_o_f_d_a.png,O,m,914,13,1,1927.0,295620.8999999985,7045,VNB,C,12
12,test,3,0.0,1-Back,0,z,Wed Mar 19 2025 13:29:18 GMT-0500 (Central Daylight Time),299680.5,014_m_m_d_a.png,O,m,1109,14,1,2128.3000000044703,297552.19999999553,7045,VNB,C,13
13,test,3,0.0,1-Back,1,m,Wed Mar 19 2025 13:29:18 GMT-0500 (Central Daylight Time),301813.19999999553,025_y_m_n_a.png,O,m,1104,15,1,2127.6999999955297,299685.5,7045,VNB,C,14
14,test,3,1.0,1-Back,1,m,Wed Mar 19 2025 13:29:18 GMT-0500 (Central Daylight Time),303945.799999997,015_o_m_h_a.png,O,m,1100,16,1,2127.5,301818.299999997,7045,VNB,C,15
15,test,3,0.0,1-Back,1,m,Wed Mar 19 2025 13:29:18 GMT-0500 (Central Daylight Time),305778.5,025_y_m_d_a.png,O,m,815,17,1,1828.3000000044703,303950.19999999553,7045,VNB,C,16
16,test,3,1.0,1-Back,1,m,Wed Mar 19 2025 13:29:18 GMT-0500 (Central Daylight Time),308044.5,022_y_f_n_a.png,O,m,1239,18,1,2261.7000000029802,305782.799999997,7045,VNB,C,17
0,test,4,1.0,1-Back,,,Wed Mar 19 2025 13:29:18 GMT-0500 (Central Daylight Time),308044.5,014_m_m_d_a.png,O,space,1493,1,1,2261.7000000029802,305782.799999997,7045,VNB,C,0
1,test,4,0.0,1-Back,1,z,Wed Mar 19 2025 13:29:18 GMT-0500 (Central Daylight Time),314292.69999999553,015_o_m_d_a.png,O,z,1529,2,1,2535.5,311757.19999999553,7045,VNB,C,1
2,test,4,0.0,1-Back,1,m,Wed Mar 19 2025 13:29:18 GMT-0500 (Central Daylight Time),316458.6000000015,025_y_m_h_a.png,O,m,1148,3,1,2160.2000000029802,314298.3999999985,7045,VNB,C,2
3,test,4,0.0,1-Back,1,m,Wed Mar 19 2025 13:29:18 GMT-0500 (Central Daylight Time),318391.299999997,019_m_f_n_a.png,O,m,902,4,1,1927.0,316464.299999997,7045,VNB,C,3
4,test,4,1.0,1-Back,1,m,Wed Mar 19 2025 13:29:18 GMT-0500 (Central Daylight Time),320374.0,012_o_f_h_a.png,O,m,962,5,1,1978.3000000044703,318395.69999999553,7045,VNB,C,4
5,test,4,0.0,1-Back,1,m,Wed Mar 19 2025 13:29:18 GMT-0500 (Central Daylight Time),322656.8999999985,014_m_m_n_a.png,O,m,1251,6,1,2276.60000000149,320380.299999997,7045,VNB,C,5
6,test,4,0.0,1-Back,1,m,Wed Mar 19 2025 13:29:18 GMT-0500 (Central Daylight Time),324956.0,025_y_m_d_a.png,O,m,1272,7,1,2294.3000000044703,322661.69999999553,7045,VNB,C,6
7,test,4,1.0,1-Back,1,z,Wed Mar 19 2025 13:29:18 GMT-0500 (Central Daylight Time),326955.299999997,022_y_f_d_a.png,O,z,973,8,1,1994.1999999955297,324961.1000000015,7045,VNB,C,7
8,test,4,0.0,1-Back,1,m,Wed Mar 19 2025 13:29:18 GMT-0500 (Central Daylight Time),329138.0,019_m_f_h_a.png,O,m,1166,9,1,2177.60000000149,326960.3999999985,7045,VNB,C,8
8,test,4,0.0,1-Back,0,z,Wed Mar 19 2025 13:29:18 GMT-0500 (Central Daylight Time),331104.1000000015,015_o_m_h_a.png,O,m,935,10,1,1960.5,329143.6000000015,7045,VNB,C,9
9,test,4,1.0,1-Back,1,m,Wed Mar 19 2025 13:29:18 GMT-0500 (Central Daylight Time),333486.6000000015,012_o_f_n_a.png,O,m,1353,11,1,2375.7000000029802,331110.8999999985,7045,VNB,C,10
10,test,4,0.0,1-Back,1,m,Wed Mar 19 2025 13:29:18 GMT-0500 (Central Daylight Time),335719.19999999553,019_m_f_d_a.png,O,m,1211,12,1,2227.39999999851,333491.799999997,7045,VNB,C,11
11,test,4,0.0,1-Back,1,m,Wed Mar 19 2025 13:29:18 GMT-0500 (Central Daylight Time),338051.799999997,022_y_f_n_a.png,O,m,1314,13,1,2327.89999999851,335723.8999999985,7045,VNB,C,12
12,test,4,0.0,1-Back,1,m,Wed Mar 19 2025 13:29:18 GMT-0500 (Central Daylight Time),340734.299999997,012_o_f_d_a.png,O,m,1653,14,1,2678.1999999955297,338056.1000000015,7045,VNB,C,13
13,test,4,0.0,1-Back,1,m,Wed Mar 19 2025 13:29:18 GMT-0500 (Central Daylight Time),342950.6000000015,022_y_f_h_a.png,O,m,1195,15,1,2211.10000000149,340739.5,7045,VNB,C,14
14,test,4,1.0,1-Back,1,z,Wed Mar 19 2025 13:29:18 GMT-0500 (Central Daylight Time),344916.299999997,014_m_m_h_a.png,O,z,947,16,1,1960.6000000014901,342955.69999999553,7045,VNB,C,15
15,test,4,0.0,1-Back,1,m,Wed Mar 19 2025 13:29:18 GMT-0500 (Central Daylight Time),346799.1000000015,015_o_m_n_a.png,O,m,853,17,1,1877.8000000044703,344921.299999997,7045,VNB,C,16
15,test,4,1.0,1-Back,0,z,Wed Mar 19 2025 13:29:18 GMT-0500 (Central Daylight Time),349098.5,025_y_m_n_a.png,O,m,1282,18,1,2295.2000000029802,346803.299999997,7045,VNB,C,17
0,test,5,1.0,1-Back,,,Wed Mar 19 2025 13:29:18 GMT-0500 (Central Daylight Time),349098.5,015_o_m_n_a.png,O,space,1391,1,1,2295.2000000029802,346803.299999997,7045,VNB,C,0
1,test,5,1.0,1-Back,1,m,Wed Mar 19 2025 13:29:18 GMT-0500 (Central Daylight Time),354746.69999999553,012_o_f_h_a.png,O,m,1215,2,1,2227.5999999940395,352519.1000000015,7045,VNB,C,1
2,test,5,0.0,1-Back,1,m,Wed Mar 19 2025 13:29:18 GMT-0500 (Central Daylight Time),356879.3999999985,025_y_m_d_a.png,O,m,1110,3,1,2127.7000000029802,354751.69999999553,7045,VNB,C,2
3,test,5,0.0,1-Back,1,z,Wed Mar 19 2025 13:29:18 GMT-0500 (Central Daylight Time),358795.5,015_o_m_d_a.png,O,z,899,4,1,1911.8000000044703,356883.69999999553,7045,VNB,C,3
4,test,5,0.0,1-Back,1,m,Wed Mar 19 2025 13:29:18 GMT-0500 (Central Daylight Time),360711.6000000015,019_m_f_h_a.png,O,m,886,5,1,1910.8000000044703,358800.799999997,7045,VNB,C,4
5,test,5,0.0,1-Back,1,m,Wed Mar 19 2025 13:29:18 GMT-0500 (Central Daylight Time),363160.6000000015,022_y_f_n_a.png,O,m,1425,6,1,2444.9000000059605,360715.69999999553,7045,VNB,C,5
6,test,5,1.0,1-Back,1,z,Wed Mar 19 2025 13:29:18 GMT-0500 (Central Daylight Time),365210.19999999553,012_o_f_n_a.png,O,z,1024,7,1,2046.2999999970198,363163.8999999985,7045,VNB,C,6
7,test,5,0.0,1-Back,1,m,Wed Mar 19 2025 13:29:18 GMT-0500 (Central Daylight Time),367209.69999999553,019_m_f_d_a.png,O,m,975,8,1,1996.2999999970198,365213.3999999985,7045,VNB,C,7
7,test,5,0.0,1-Back,0,m,Wed Mar 19 2025 13:29:18 GMT-0500 (Central Daylight Time),369225.69999999553,025_y_m_h_a.png,O,z,992,9,1,2011.6999999955297,367214.0,7045,VNB,C,8
8,test,5,0.0,1-Back,1,m,Wed Mar 19 2025 13:29:18 GMT-0500 (Central Daylight Time),371641.3999999985,022_y_f_d_a.png,O,m,1384,10,1,2411.2999999970198,369230.1000000015,7045,VNB,C,9
9,test,5,0.0,1-Back,1,m,Wed Mar 19 2025 13:29:18 GMT-0500 (Central Daylight Time),373840.5,014_m_m_n_a.png,O,m,1168,11,1,2195.0,371645.5,7045,VNB,C,10
10,test,5,1.0,1-Back,1,z,Wed Mar 19 2025 13:29:18 GMT-0500 (Central Daylight Time),376006.6000000015,019_m_f_n_a.png,O,z,1136,12,1,2161.4000000059605,373845.19999999553,7045,VNB,C,11
11,test,5,0.0,1-Back,1,m,Wed Mar 19 2025 13:29:18 GMT-0500 (Central Daylight Time),377956.19999999553,015_o_m_h_a.png,O,m,922,13,1,1946.2999999970198,376009.8999999985,7045,VNB,C,12
12,test,5,0.0,1-Back,1,z,Wed Mar 19 2025 13:29:18 GMT-0500 (Central Daylight Time),380122.0,014_m_m_h_a.png,O,z,1133,14,1,2161.0,377961.0,7045,VNB,C,13
13,test,5,1.0,1-Back,1,m,Wed Mar 19 2025 13:29:18 GMT-0500 (Central Daylight Time),382071.3999999985,012_o_f_d_a.png,O,m,919,15,1,1943.7999999970198,380127.6000000015,7045,VNB,C,14
14,test,5,0.0,1-Back,1,m,Wed Mar 19 2025 13:29:18 GMT-0500 (Central Daylight Time),384620.6000000015,025_y_m_n_a.png,O,m,1530,16,1,2544.5,382076.1000000015,7045,VNB,C,15
15,test,5,0.0,1-Back,1,m,Wed Mar 19 2025 13:29:18 GMT-0500 (Central Daylight Time),387203.1000000015,022_y_f_h_a.png,O,m,1564,17,1,2578.10000000149,384625.0,7045,VNB,C,16
16,test,5,0.0,1-Back,1,m,Wed Mar 19 2025 13:29:18 GMT-0500 (Central Daylight Time),389235.799999997,014_m_m_d_a.png,O,m,1013,18,1,2028.5,387207.299999997,7045,VNB,C,17
0,prac,1,0.0,2-Back,,,Wed Mar 19 2025 13:29:18 GMT-0500 (Central Daylight Time),389235.799999997,019_m_f_n_a.png,O,space,5355,1,1,2028.5,387207.299999997,7045,VNB,C,0
0,prac,1,0.0,2-Back,,,Wed Mar 19 2025 13:29:18 GMT-0500 (Central Daylight Time),389235.799999997,012_o_f_h_a.png,O,space,5355,2,1,2028.5,387207.299999997,7045,VNB,C,0
1,prac,1,0.0,2-Back,1,m,Wed Mar 19 2025 13:29:18 GMT-0500 (Central Daylight Time),492903.6000000015,015_o_m_d_a.png,O,m,1733,3,1,2641.4000000059605,490262.19999999553,7045,VNB,C,1
1,prac,1,1.0,2-Back,0,z,Wed Mar 19 2025 13:29:18 GMT-0500 (Central Daylight Time),495552.69999999553,014_m_m_h_a.png,O,m,1734,4,1,2641.0,492911.69999999553,7045,VNB,C,2
2,prac,1,0.0,2-Back,1,m,Wed Mar 19 2025 13:29:18 GMT-0500 (Central Daylight Time),497885.19999999553,022_y_f_n_a.png,O,m,1414,5,1,2324.39999999851,495560.799999997,7045,VNB,C,3
2,prac,1,1.0,2-Back,0,z,Wed Mar 19 2025 13:29:18 GMT-0500 (Central Daylight Time),499967.799999997,015_o_m_h_a.png,O,m,1164,6,1,2074.89999999851,497892.8999999985,7045,VNB,C,4
3,prac,1,1.0,2-Back,1,z,Wed Mar 19 2025 13:29:18 GMT-0500 (Central Daylight Time),500900.8999999985,025_y_m_n_a.png,O,z,45,7,1,925.2999999970198,499975.6000000015,7045,VNB,C,5
4,prac,1,0.0,2-Back,1,m,Wed Mar 19 2025 13:29:18 GMT-0500 (Central Daylight Time),503783.19999999553,019_m_f_d_a.png,O,m,1954,8,1,2874.1999999955297,500909.0,7045,VNB,C,6
4,prac,1,0.0,2-Back,0,m,Wed Mar 19 2025 13:29:18 GMT-0500 (Central Daylight Time),506399.19999999553,012_o_f_d_a.png,O,z,1700,9,1,2608.39999999851,503790.799999997,7045,VNB,C,7
4,prac,1,0.0,2-Back,0,m,Wed Mar 19 2025 13:29:18 GMT-0500 (Central Daylight Time),509181.69999999553,014_m_m_h_a.png,O,None,2009,10,1,2776.39999999851,506405.299999997,7045,VNB,C,8
4,prac,1,1.0,2-Back,0,z,Wed Mar 19 2025 13:29:18 GMT-0500 (Central Daylight Time),511397.5,022_y_f_d_a.png,O,m,1305,11,1,2208.8000000044703,509188.69999999553,7045,VNB,C,9
4,prac,1,0.0,2-Back,0,m,Wed Mar 19 2025 13:29:18 GMT-0500 (Central Daylight Time),514313.3999999985,015_o_m_n_a.png,O,None,2013,12,1,2908.2000000029802,511405.19999999553,7045,VNB,C,10
0,prac,2,0.0,2-Back,,,Wed Mar 19 2025 13:29:18 GMT-0500 (Central Daylight Time),514313.3999999985,019_m_f_n_a.png,O,a,6797,1,1,2908.2000000029802,511405.19999999553,7045,VNB,C,0
0,prac,2,0.0,2-Back,,,Wed Mar 19 2025 13:29:18 GMT-0500 (Central Daylight Time),514313.3999999985,012_o_f_h_a.png,O,a,6797,2,1,2908.2000000029802,511405.19999999553,7045,VNB,C,0
1,prac,2,0.0,2-Back,1,m,Wed Mar 19 2025 13:29:18 GMT-0500 (Central Daylight Time),529092.1000000015,015_o_m_d_a.png,O,m,1749,3,1,2658.4000000059605,526433.6999999955,7045,VNB,C,1
2,prac,2,1.0,2-Back,1,z,Wed Mar 19 2025 13:29:18 GMT-0500 (Central Daylight Time),530958.1999999955,014_m_m_h_a.png,O,z,1086,4,1,1858.8999999985099,529099.299999997,7045,VNB,C,2
3,prac,2,0.0,2-Back,1,m,Wed Mar 19 2025 13:29:18 GMT-0500 (Central Daylight Time),532907.8999999985,022_y_f_n_a.png,O,m,1025,5,1,1942.0,530965.8999999985,7045,VNB,C,3
4,prac,2,1.0,2-Back,1,z,Wed Mar 19 2025 13:29:18 GMT-0500 (Central Daylight Time),534840.6000000015,015_o_m_h_a.png,O,z,1005,6,1,1923.6000000014901,532917.0,7045,VNB,C,4
4,prac,2,1.0,2-Back,0,z,Wed Mar 19 2025 13:29:18 GMT-0500 (Central Daylight Time),536806.3999999985,025_y_m_n_a.png,O,m,1067,7,1,1957.3999999985099,534849.0,7045,VNB,C,5
5,prac,2,0.0,2-Back,1,m,Wed Mar 19 2025 13:29:18 GMT-0500 (Central Daylight Time),539005.6999999955,019_m_f_d_a.png,O,m,1258,8,1,2191.2999999970198,536814.3999999985,7045,VNB,C,6
5,prac,2,0.0,2-Back,0,m,Wed Mar 19 2025 13:29:18 GMT-0500 (Central Daylight Time),541554.8999999985,012_o_f_d_a.png,O,z,1633,9,1,2542.2000000029802,539012.6999999955,7045,VNB,C,7
5,prac,2,0.0,2-Back,0,m,Wed Mar 19 2025 13:29:18 GMT-0500 (Central Daylight Time),543937.299999997,014_m_m_h_a.png,O,z,1607,10,1,2375.1999999955297,541562.1000000015,7045,VNB,C,8
5,prac,2,1.0,2-Back,0,z,Wed Mar 19 2025 13:29:18 GMT-0500 (Central Daylight Time),545670.299999997,022_y_f_d_a.png,O,m,815,11,1,1725.2999999970198,543945.0,7045,VNB,C,9
5,prac,2,0.0,2-Back,0,m,Wed Mar 19 2025 13:29:18 GMT-0500 (Central Daylight Time),548287.5,015_o_m_n_a.png,O,z,1719,12,1,2610.2000000029802,545677.299999997,7045,VNB,C,10
0,test,1,0.0,2-Back,,,Wed Mar 19 2025 13:29:18 GMT-0500 (Central Daylight Time),548287.5,025_y_m_h_a.png,O,space,1686,1,1,2610.2000000029802,545677.299999997,7045,VNB,C,0
0,test,1,0.0,2-Back,,,Wed Mar 19 2025 13:29:18 GMT-0500 (Central Daylight Time),548287.5,012_o_f_n_a.png,O,space,1686,2,1,2610.2000000029802,545677.299999997,7045,VNB,C,0
1,test,1,0.0,2-Back,1,z,Wed Mar 19 2025 13:29:18 GMT-0500 (Central Daylight Time),579126.3999999985,015_o_m_h_a.png,O,z,936,3,1,1961.7999999970198,577164.6000000015,7045,VNB,C,1
2,test,1,0.0,2-Back,1,m,Wed Mar 19 2025 13:29:18 GMT-0500 (Central Daylight Time),581342.3999999985,019_m_f_d_a.png,O,m,1195,4,1,2212.5,579129.8999999985,7045,VNB,C,2
3,test,1,1.0,2-Back,1,m,Wed Mar 19 2025 13:29:18 GMT-0500 (Central Daylight Time),583408.5,025_y_m_n_a.png,O,m,1043,5,1,2061.89999999851,581346.6000000015,7045,VNB,C,3
4,test,1,0.0,2-Back,1,z,Wed Mar 19 2025 13:29:18 GMT-0500 (Central Daylight Time),585757.6000000015,022_y_f_d_a.png,O,z,1329,6,1,2345.4000000059605,583412.1999999955,7045,VNB,C,4
5,test,1,0.0,2-Back,1,m,Wed Mar 19 2025 13:29:18 GMT-0500 (Central Daylight Time),587907.0,014_m_m_h_a.png,O,m,1132,7,1,2144.2000000029802,585762.799999997,7045,VNB,C,5
6,test,1,1.0,2-Back,1,m,Wed Mar 19 2025 13:29:18 GMT-0500 (Central Daylight Time),590639.5,022_y_f_n_a.png,O,m,1710,8,1,2727.10000000149,587912.3999999985,7045,VNB,C,6
6,test,1,0.0,2-Back,0,z,Wed Mar 19 2025 13:29:18 GMT-0500 (Central Daylight Time),593321.799999997,012_o_f_h_a.png,O,m,1649,9,1,2677.6999999955297,590644.1000000015,7045,VNB,C,7
6,test,1,0.0,2-Back,0,m,Wed Mar 19 2025 13:29:18 GMT-0500 (Central Daylight Time),595727.299999997,015_o_m_d_a.png,O,z,1382,10,1,2400.7999999970198,593326.5,7045,VNB,C,8
7,test,1,1.0,2-Back,1,m,Wed Mar 19 2025 13:29:18 GMT-0500 (Central Daylight Time),598137.0,014_m_m_d_a.png,O,m,1392,11,1,2405.60000000149,595731.3999999985,7045,VNB,C,9
8,test,1,0.0,2-Back,1,m,Wed Mar 19 2025 13:29:18 GMT-0500 (Central Daylight Time),600853.0,019_m_f_n_a.png,O,m,1688,12,1,2711.2000000029802,598141.799999997,7045,VNB,C,10
8,test,1,0.0,2-Back,0,m,Wed Mar 19 2025 13:29:18 GMT-0500 (Central Daylight Time),603685.5,022_y_f_h_a.png,O,z,1805,13,1,2828.0,600857.5,7045,VNB,C,11
8,test,1,0.0,2-Back,0,z,Wed Mar 19 2025 13:29:18 GMT-0500 (Central Daylight Time),606684.3999999985,014_m_m_n_a.png,O,m,1972,14,1,2994.10000000149,603690.299999997,7045,VNB,C,12
8,test,1,0.0,2-Back,0,m,Wed Mar 19 2025 13:29:18 GMT-0500 (Central Daylight Time),609716.8999999985,025_y_m_d_a.png,O,None,2016,15,1,3028.5,606688.3999999985,7045,VNB,C,13
8,test,1,1.0,2-Back,0,m,Wed Mar 19 2025 13:29:18 GMT-0500 (Central Daylight Time),611917.0,019_m_f_h_a.png,O,z,1172,16,1,2196.10000000149,609720.8999999985,7045,VNB,C,14
8,test,1,0.0,2-Back,0,z,Wed Mar 19 2025 13:29:18 GMT-0500 (Central Daylight Time),614482.0,012_o_f_d_a.png,O,m,1533,17,1,2560.5,611921.5,7045,VNB,C,15
8,test,1,0.0,2-Back,0,m,Wed Mar 19 2025 13:29:18 GMT-0500 (Central Daylight Time),617514.3999999985,015_o_m_n_a.png,O,None,2015,18,1,3027.7999999970198,614486.6000000015,7045,VNB,C,16
0,test,2,0.0,2-Back,,,Wed Mar 19 2025 13:29:18 GMT-0500 (Central Daylight Time),617514.3999999985,014_m_m_h_a.png,O,space,5991,1,1,3027.7999999970198,614486.6000000015,7045,VNB,C,0
0,test,2,0.0,2-Back,,,Wed Mar 19 2025 13:29:18 GMT-0500 (Central Daylight Time),617514.3999999985,022_y_f_n_a.png,O,space,5991,2,1,3027.7999999970198,614486.6000000015,7045,VNB,C,0
1,test,2,1.0,2-Back,1,z,Wed Mar 19 2025 13:29:18 GMT-0500 (Central Daylight Time),630810.299999997,012_o_f_h_a.png,O,z,983,3,1,2011.6999999955297,628798.6000000015,7045,VNB,C,1
2,test,2,0.0,2-Back,1,m,Wed Mar 19 2025 13:29:18 GMT-0500 (Central Daylight Time),633326.1999999955,015_o_m_d_a.png,O,m,1495,4,1,2510.89999999851,630815.299999997,7045,VNB,C,2
2,test,2,0.0,2-Back,0,m,Wed Mar 19 2025 13:29:18 GMT-0500 (Central Daylight Time),635925.3999999985,019_m_f_d_a.png,O,z,1571,5,1,2594.60000000149,633330.799999997,7045,VNB,C,3
3,test,2,0.0,2-Back,1,m,Wed Mar 19 2025 13:29:18 GMT-0500 (Central Daylight Time),638491.1000000015,025_y_m_h_a.png,O,m,1548,6,1,2561.7000000029802,635929.3999999985,7045,VNB,C,4
4,test,2,0.0,2-Back,1,m,Wed Mar 19 2025 13:29:18 GMT-0500 (Central Daylight Time),641207.0,012_o_f_n_a.png,O,m,1694,7,1,2710.89999999851,638496.1000000015,7045,VNB,C,5
4,test,2,1.0,2-Back,0,z,Wed Mar 19 2025 13:29:18 GMT-0500 (Central Daylight Time),644239.3999999985,015_o_m_h_a.png,O,None,2015,8,1,3028.2999999970198,641211.1000000015,7045,VNB,C,6
4,test,2,0.0,2-Back,0,m,Wed Mar 19 2025 13:29:18 GMT-0500 (Central Daylight Time),646938.5,022_y_f_d_a.png,O,z,1674,9,1,2693.8000000044703,644244.6999999955,7045,VNB,C,7
5,test,2,0.0,2-Back,1,m,Wed Mar 19 2025 13:29:18 GMT-0500 (Central Daylight Time),649487.6000000015,025_y_m_d_a.png,O,m,1519,10,1,2545.4000000059605,646942.1999999955,7045,VNB,C,8
6,test,2,0.0,2-Back,1,m,Wed Mar 19 2025 13:29:18 GMT-0500 (Central Daylight Time),652136.799999997,014_m_m_n_a.png,O,m,1626,11,1,2645.6999999955297,649491.1000000015,7045,VNB,C,9
7,test,2,0.0,2-Back,1,m,Wed Mar 19 2025 13:29:18 GMT-0500 (Central Daylight Time),654602.6999999955,019_m_f_h_a.png,O,m,1440,12,1,2461.39999999851,652141.299999997,7045,VNB,C,10
8,test,2,1.0,2-Back,1,z,Wed Mar 19 2025 13:29:18 GMT-0500 (Central Daylight Time),656985.5,015_o_m_n_a.png,O,z,1351,13,1,2378.89999999851,654606.6000000015,7045,VNB,C,11
8,test,2,0.0,2-Back,0,m,Wed Mar 19 2025 13:29:18 GMT-0500 (Central Daylight Time),660001.0,012_o_f_d_a.png,O,z,1992,14,1,3011.2000000029802,656989.799999997,7045,VNB,C,12
8,test,2,0.0,2-Back,0,m,Wed Mar 19 2025 13:29:18 GMT-0500 (Central Daylight Time),663033.6000000015,022_y_f_h_a.png,O,None,2015,15,1,3028.4000000059605,660005.1999999955,7045,VNB,C,13
8,test,2,0.0,2-Back,0,z,Wed Mar 19 2025 13:29:18 GMT-0500 (Central Daylight Time),665866.1999999955,014_m_m_d_a.png,O,m,1825,16,1,2827.5,663038.6999999955,7045,VNB,C,14
8,test,2,0.0,2-Back,0,m,Wed Mar 19 2025 13:29:18 GMT-0500 (Central Daylight Time),668898.1999999955,025_y_m_n_a.png,O,None,2015,17,1,3027.39999999851,665870.799999997,7045,VNB,C,15
8,test,2,1.0,2-Back,0,m,Wed Mar 19 2025 13:29:18 GMT-0500 (Central Daylight Time),671930.6999999955,019_m_f_n_a.png,O,None,2016,18,1,3027.5,668903.1999999955,7045,VNB,C,16
0,test,3,1.0,2-Back,,,Wed Mar 19 2025 13:29:18 GMT-0500 (Central Daylight Time),671930.6999999955,015_o_m_n_a.png,O,space,4407,1,1,3027.5,668903.1999999955,7045,VNB,C,0
0,test,3,1.0,2-Back,,,Wed Mar 19 2025 13:29:18 GMT-0500 (Central Daylight Time),671930.6999999955,012_o_f_d_a.png,O,space,4407,2,1,3027.5,668903.1999999955,7045,VNB,C,0
1,test,3,0.0,2-Back,1,m,Wed Mar 19 2025 13:29:18 GMT-0500 (Central Daylight Time),684126.799999997,022_y_f_h_a.png,O,m,1436,3,1,2461.5,681665.299999997,7045,VNB,C,1
2,test,3,0.0,2-Back,1,z,Wed Mar 19 2025 13:29:18 GMT-0500 (Central Daylight Time),686292.799999997,019_m_f_d_a.png,O,z,1139,4,1,2160.7999999970198,684132.0,7045,VNB,C,2
3,test,3,1.0,2-Back,1,m,Wed Mar 19 2025 13:29:18 GMT-0500 (Central Daylight Time),688889.5,025_y_m_n_a.png,O,m,1579,5,1,2592.3000000044703,686297.1999999955,7045,VNB,C,3
3,test,3,0.0,2-Back,0,m,Wed Mar 19 2025 13:29:18 GMT-0500 (Central Daylight Time),691158.1000000015,015_o_m_h_a.png,O,z,1237,6,1,2264.5,688893.6000000015,7045,VNB,C,4
3,test,3,0.0,2-Back,0,z,Wed Mar 19 2025 13:29:18 GMT-0500 (Central Daylight Time),693690.5,022_y_f_n_a.png,O,m,1515,7,1,2528.2000000029802,691162.299999997,7045,VNB,C,5
4,test,3,1.0,2-Back,1,m,Wed Mar 19 2025 13:29:18 GMT-0500 (Central Daylight Time),696123.1000000015,014_m_m_d_a.png,O,m,1415,8,1,2427.8000000044703,693695.299999997,7045,VNB,C,6
4,test,3,0.0,2-Back,0,m,Wed Mar 19 2025 13:29:18 GMT-0500 (Central Daylight Time),699155.3999999985,025_y_m_d_a.png,O,None,2015,9,1,3027.89999999851,696127.5,7045,VNB,C,7
4,test,3,0.0,2-Back,0,m,Wed Mar 19 2025 13:29:18 GMT-0500 (Central Daylight Time),702187.8999999985,012_o_f_h_a.png,O,None,2016,10,1,3028.60000000149,699159.299999997,7045,VNB,C,8
4,test,3,1.0,2-Back,0,m,Wed Mar 19 2025 13:29:18 GMT-0500 (Central Daylight Time),705220.1999999955,019_m_f_n_a.png,O,None,2015,11,1,3027.7999999970198,702192.3999999985,7045,VNB,C,9
4,test,3,1.0,2-Back,0,z,Wed Mar 19 2025 13:29:18 GMT-0500 (Central Daylight Time),707719.5,014_m_m_h_a.png,O,m,1477,12,1,2494.89999999851,705224.6000000015,7045,VNB,C,10
4,test,3,0.0,2-Back,0,m,Wed Mar 19 2025 13:29:18 GMT-0500 (Central Daylight Time),710751.799999997,022_y_f_d_a.png,O,None,2016,13,1,3027.2999999970198,707724.5,7045,VNB,C,11
4,test,3,0.0,2-Back,0,m,Wed Mar 19 2025 13:29:18 GMT-0500 (Central Daylight Time),713784.3999999985,012_o_f_n_a.png,O,None,2015,14,1,3028.39999999851,710756.0,7045,VNB,C,12
4,test,3,0.0,2-Back,0,z,Wed Mar 19 2025 13:29:18 GMT-0500 (Central Daylight Time),716816.6000000015,015_o_m_d_a.png,O,None,2016,15,1,3028.2000000029802,713788.3999999985,7045,VNB,C,13
5,test,3,1.0,2-Back,1,m,Wed Mar 19 2025 13:29:18 GMT-0500 (Central Daylight Time),719615.6000000015,019_m_f_h_a.png,O,m,1768,16,1,2794.60000000149,716821.0,7045,VNB,C,14
5,test,3,0.0,2-Back,0,m,Wed Mar 19 2025 13:29:18 GMT-0500 (Central Daylight Time),722648.0,014_m_m_n_a.png,O,None,2016,17,1,3027.8000000044703,719620.1999999955,7045,VNB,C,15
6,test,3,0.0,2-Back,1,z,Wed Mar 19 2025 13:29:18 GMT-0500 (Central Daylight Time),725613.8999999985,025_y_m_h_a.png,O,z,1945,18,1,2961.60000000149,722652.299999997,7045,VNB,C,16
0,test,4,0.0,2-Back,,,Wed Mar 19 2025 13:29:18 GMT-0500 (Central Daylight Time),725613.8999999985,019_m_f_n_a.png,O,space,4723,1,1,2961.60000000149,722652.299999997,7045,VNB,C,0
0,test,4,0.0,2-Back,,,Wed Mar 19 2025 13:29:18 GMT-0500 (Central Daylight Time),725613.8999999985,015_o_m_n_a.png,O,space,4723,2,1,2961.60000000149,722652.299999997,7045,VNB,C,0
1,test,4,1.0,2-Back,1,m,Wed Mar 19 2025 13:29:18 GMT-0500 (Central Daylight Time),737693.5,025_y_m_h_a.png,O,m,1013,3,1,2027.5,735666.0,7045,VNB,C,1
2,test,4,1.0,2-Back,1,m,Wed Mar 19 2025 13:29:18 GMT-0500 (Central Daylight Time),739725.8999999985,012_o_f_d_a.png,O,m,1012,4,1,2028.0,737697.8999999985,7045,VNB,C,2
2,test,4,0.0,2-Back,0,z,Wed Mar 19 2025 13:29:18 GMT-0500 (Central Daylight Time),742625.1000000015,015_o_m_h_a.png,O,m,1867,5,1,2894.0,739731.1000000015,7045,VNB,C,3
2,test,4,0.0,2-Back,0,m,Wed Mar 19 2025 13:29:18 GMT-0500 (Central Daylight Time),745658.1999999955,014_m_m_n_a.png,O,None,2016,6,1,3028.5,742629.6999999955,7045,VNB,C,4
2,test,4,0.0,2-Back,0,m,Wed Mar 19 2025 13:29:18 GMT-0500 (Central Daylight Time),748006.799999997,019_m_f_d_a.png,O,z,1327,7,1,2344.1999999955297,745662.6000000015,7045,VNB,C,5
2,test,4,0.0,2-Back,0,z,Wed Mar 19 2025 13:29:18 GMT-0500 (Central Daylight Time),750372.6000000015,022_y_f_n_a.png,O,m,1346,8,1,2362.0,748010.6000000015,7045,VNB,C,6
2,test,4,1.0,2-Back,0,m,Wed Mar 19 2025 13:29:18 GMT-0500 (Central Daylight Time),753405.1999999955,012_o_f_h_a.png,O,None,2015,9,1,3028.6999999955297,750376.5,7045,VNB,C,7
3,test,4,0.0,2-Back,1,m,Wed Mar 19 2025 13:29:18 GMT-0500 (Central Daylight Time),755821.0,014_m_m_h_a.png,O,m,1388,10,1,2411.39999999851,753409.6000000015,7045,VNB,C,8
4,test,4,0.0,2-Back,1,m,Wed Mar 19 2025 13:29:18 GMT-0500 (Central Daylight Time),758237.0,022_y_f_d_a.png,O,m,1396,11,1,2411.10000000149,755825.8999999985,7045,VNB,C,9
5,test,4,0.0,2-Back,1,m,Wed Mar 19 2025 13:29:18 GMT-0500 (Central Daylight Time),760523.6000000015,025_y_m_n_a.png,O,m,1260,12,1,2282.10000000149,758241.5,7045,VNB,C,10
6,test,4,0.0,2-Back,1,z,Wed Mar 19 2025 13:29:18 GMT-0500 (Central Daylight Time),763352.1000000015,015_o_m_d_a.png,O,z,1810,13,1,2823.2000000029802,760528.8999999985,7045,VNB,C,11
7,test,4,1.0,2-Back,1,m,Wed Mar 19 2025 13:29:18 GMT-0500 (Central Daylight Time),766267.799999997,019_m_f_h_a.png,O,m,1889,14,1,2911.60000000149,763356.1999999955,7045,VNB,C,12
7,test,4,1.0,2-Back,0,m,Wed Mar 19 2025 13:29:18 GMT-0500 (Central Daylight Time),768568.1999999955,022_y_f_h_a.png,O,z,1277,15,1,2295.39999999851,766272.799999997,7045,VNB,C,13
8,test,4,0.0,2-Back,1,m,Wed Mar 19 2025 13:29:18 GMT-0500 (Central Daylight Time),771116.1000000015,012_o_f_n_a.png,O,m,1522,16,1,2544.4000000059605,768571.6999999955,7045,VNB,C,14
9,test,4,0.0,2-Back,1,m,Wed Mar 19 2025 13:29:18 GMT-0500 (Central Daylight Time),773632.0,025_y_m_d_a.png,O,m,1485,17,1,2512.5,771119.5,7045,VNB,C,15
10,test,4,1.0,2-Back,1,m,Wed Mar 19 2025 13:29:18 GMT-0500 (Central Daylight Time),776481.299999997,014_m_m_d_a.png,O,m,1817,18,1,2844.60000000149,773636.6999999955,7045,VNB,C,16
0,test,5,1.0,2-Back,,,Wed Mar 19 2025 13:29:18 GMT-0500 (Central Daylight Time),776481.299999997,022_y_f_d_a.png,O,space,4456,1,1,2844.60000000149,773636.6999999955,7045,VNB,C,0
0,test,5,1.0,2-Back,,,Wed Mar 19 2025 13:29:18 GMT-0500 (Central Daylight Time),776481.299999997,012_o_f_h_a.png,O,space,4456,2,1,2844.60000000149,773636.6999999955,7045,VNB,C,0
0,test,5,1.0,2-Back,0,z,Wed Mar 19 2025 13:29:18 GMT-0500 (Central Daylight Time),788777.5,015_o_m_d_a.png,O,m,1392,3,1,2410.3000000044703,786367.1999999955,7045,VNB,C,1
1,test,5,1.0,2-Back,1,m,Wed Mar 19 2025 13:29:18 GMT-0500 (Central Daylight Time),790876.799999997,019_m_f_n_a.png,O,m,1073,4,1,2095.1999999955297,788781.6000000015,7045,VNB,C,2
1,test,5,0.0,2-Back,0,m,Wed Mar 19 2025 13:29:18 GMT-0500 (Central Daylight Time),793909.299999997,014_m_m_h_a.png,O,None,2016,5,1,3027.1999999955297,790882.1000000015,7045,VNB,C,3
2,test,5,0.0,2-Back,1,z,Wed Mar 19 2025 13:29:18 GMT-0500 (Central Daylight Time),796874.8999999985,022_y_f_n_a.png,O,z,1940,6,1,2961.2999999970198,793913.6000000015,7045,VNB,C,4
3,test,5,0.0,2-Back,1,m,Wed Mar 19 2025 13:29:18 GMT-0500 (Central Daylight Time),798824.1999999955,012_o_f_d_a.png,O,m,918,7,1,1945.5,796878.6999999955,7045,VNB,C,5
3,test,5,0.0,2-Back,0,m,Wed Mar 19 2025 13:29:18 GMT-0500 (Central Daylight Time),801856.6999999955,015_o_m_h_a.png,O,None,2016,8,1,3028.1999999955297,798828.5,7045,VNB,C,6
3,test,5,1.0,2-Back,0,z,Wed Mar 19 2025 13:29:18 GMT-0500 (Central Daylight Time),804889.1000000015,019_m_f_d_a.png,O,None,2015,9,1,3027.5,801861.6000000015,7045,VNB,C,7
3,test,5,0.0,2-Back,0,m,Wed Mar 19 2025 13:29:18 GMT-0500 (Central Daylight Time),807921.5,025_y_m_n_a.png,O,None,2015,10,1,3027.7000000029802,804893.799999997,7045,VNB,C,8
3,test,5,0.0,2-Back,0,m,Wed Mar 19 2025 13:29:18 GMT-0500 (Central Daylight Time),810954.1000000015,014_m_m_n_a.png,O,None,2016,11,1,3027.3000000044703,807926.799999997,7045,VNB,C,9
4,test,5,0.0,2-Back,1,m,Wed Mar 19 2025 13:29:18 GMT-0500 (Central Daylight Time),813936.3999999985,022_y_f_h_a.png,O,m,1951,12,1,2977.2000000029802,810959.1999999955,7045,VNB,C,10
5,test,5,0.0,2-Back,1,m,Wed Mar 19 2025 13:29:18 GMT-0500 (Central Daylight Time),816685.299999997,025_y_m_d_a.png,O,m,1729,13,1,2744.39999999851,813940.8999999985,7045,VNB,C,11
6,test,5,1.0,2-Back,1,z,Wed Mar 19 2025 13:29:18 GMT-0500 (Central Daylight Time),819384.3999999985,019_m_f_h_a.png,O,z,1668,14,1,2695.7999999970198,816688.6000000015,7045,VNB,C,12
6,test,5,0.0,2-Back,0,m,Wed Mar 19 2025 13:29:18 GMT-0500 (Central Daylight Time),822350.1999999955,015_o_m_n_a.png,O,z,1937,15,1,2961.1999999955297,819389.0,7045,VNB,C,13
7,test,5,0.0,2-Back,1,m,Wed Mar 19 2025 13:29:18 GMT-0500 (Central Daylight Time),824432.8999999985,014_m_m_d_a.png,O,m,1051,16,1,2078.0,822354.8999999985,7045,VNB,C,14
7,test,5,0.0,2-Back,0,z,Wed Mar 19 2025 13:29:18 GMT-0500 (Central Daylight Time),827465.299999997,012_o_f_n_a.png,O,None,2015,17,1,3027.7999999970198,824437.5,7045,VNB,C,15
7,test,5,1.0,2-Back,0,m,Wed Mar 19 2025 13:29:18 GMT-0500 (Central Daylight Time),830492.1999999955,025_y_m_h_a.png,O,None,2010,18,1,3022.7999999970198,827469.3999999985,7045,VNB,C,16
