block_c,block_dur,condition,countdown,datetime,endtime,list,multichar_response,project,response,response_time,session_number,start_end,starttime,subject_id,task,task_vers,trial
,,,,Fri Feb 28 2025 13:43:36 GMT-0600 (Central Standard Time),,,,O,space,840,1,,,7042,WL,B,
prac,,0,,Fri Feb 28 2025 13:43:36 GMT-0600 (Central Standard Time),,NA,b,O,b,5296,1,,,7042,WL,B,1.0
prac,,0,,Fri Feb 28 2025 13:43:36 GMT-0600 (Central Standard Time),,NA,bo,O,o,475,1,,,7042,WL,B,1.0
prac,,0,,Fri Feb 28 2025 13:43:36 GMT-0600 (Central Standard Time),,NA,boo,O,o,146,1,,,7042,WL,B,1.0
prac,,0,,Fri Feb 28 2025 13:43:36 GMT-0600 (Central Standard Time),,NA,boos,O,s,169,1,,,7042,WL,B,1.0
prac,,0,,Fri Feb 28 2025 13:43:36 GMT-0600 (Central Standard Time),,NA,boost,O,t,113,1,,,7042,WL,B,1.0
prac,,0,,Fri Feb 28 2025 13:43:36 GMT-0600 (Central Standard Time),,NA,boostenter,O,enter,1413,1,,,7042,WL,B,1.0
1,2.5169999599456787,learn,57483.00004005432,Fri Feb 28 2025 13:43:36 GMT-0600 (Central Standard Time),141609.59999996424,A,s,O,s,2503,1,2516.5,139093.09999996424,7042,WL,B,1.0
1,2.8970000743865967,learn,57102.9999256134,Fri Feb 28 2025 13:43:36 GMT-0600 (Central Standard Time),141989.29999995232,A,st,O,t,357,1,2896.199999988079,139093.09999996424,7042,WL,B,1.0
1,3.515000104904175,learn,56484.999895095825,Fri Feb 28 2025 13:43:36 GMT-0600 (Central Standard Time),142607.19999998808,A,str,O,r,609,1,3514.100000023842,139093.09999996424,7042,WL,B,1.0
1,3.699000120162964,learn,56300.999879837036,Fri Feb 28 2025 13:43:36 GMT-0600 (Central Standard Time),142791.39999997616,A,stre,O,e,173,1,3698.300000011921,139093.09999996424,7042,WL,B,1.0
1,3.9650001525878906,learn,56034.99984741211,Fri Feb 28 2025 13:43:36 GMT-0600 (Central Standard Time),143056.59999996424,A,stree,O,e,249,1,3963.5,139093.09999996424,7042,WL,B,1.0
1,4.2170000076293945,learn,55782.999992370605,Fri Feb 28 2025 13:43:36 GMT-0600 (Central Standard Time),143309.19999998808,A,street,O,t,247,1,4216.100000023842,139093.09999996424,7042,WL,B,1.0
1,4.781000137329102,learn,55218.9998626709,Fri Feb 28 2025 13:43:36 GMT-0600 (Central Standard Time),143873.29999995232,A,streetenter,O,enter,542,1,4780.199999988079,139093.09999996424,7042,WL,B,1.0
1,5.698000192642212,learn,54301.99980735779,Fri Feb 28 2025 13:43:36 GMT-0600 (Central Standard Time),144790.59999996424,A,g,O,g,898,1,916.8000000119209,143873.79999995232,7042,WL,B,2.0
1,6.131999969482422,learn,53868.00003051758,Fri Feb 28 2025 13:43:36 GMT-0600 (Central Standard Time),145224.0,A,gr,O,r,412,1,1350.2000000476837,143873.79999995232,7042,WL,B,2.0
1,6.3480000495910645,learn,53651.999950408936,Fri Feb 28 2025 13:43:36 GMT-0600 (Central Standard Time),145440.5,A,gra,O,a,195,1,1566.7000000476837,143873.79999995232,7042,WL,B,2.0
1,6.582000017166138,learn,53417.99998283386,Fri Feb 28 2025 13:43:36 GMT-0600 (Central Standard Time),145673.69999998808,A,gras,O,s,210,1,1799.9000000357628,143873.79999995232,7042,WL,B,2.0
1,6.865000009536743,learn,53134.99999046326,Fri Feb 28 2025 13:43:36 GMT-0600 (Central Standard Time),145956.79999995232,A,grass,O,s,265,1,2083.0,143873.79999995232,7042,WL,B,2.0
1,7.430000066757202,learn,52569.9999332428,Fri Feb 28 2025 13:43:36 GMT-0600 (Central Standard Time),146522.59999996424,A,grassenter,O,enter,560,1,2648.800000011921,143873.79999995232,7042,WL,B,2.0
1,8.081000089645386,learn,51918.999910354614,Fri Feb 28 2025 13:43:36 GMT-0600 (Central Standard Time),147173.29999995232,A,a,O,a,634,1,650.2999999523163,146523.0,7042,WL,B,3.0
1,8.264000177383423,learn,51735.99982261658,Fri Feb 28 2025 13:43:36 GMT-0600 (Central Standard Time),147356.09999996424,A,ar,O,r,167,1,833.0999999642372,146523.0,7042,WL,B,3.0
1,8.581000089645386,learn,51418.999910354614,Fri Feb 28 2025 13:43:36 GMT-0600 (Central Standard Time),147673.09999996424,A,arm,O,m,296,1,1150.0999999642372,146523.0,7042,WL,B,3.0
1,8.996000051498413,learn,51003.99994850159,Fri Feb 28 2025 13:43:36 GMT-0600 (Central Standard Time),148088.69999998808,A,armenter,O,enter,402,1,1565.699999988079,146523.0,7042,WL,B,3.0
1,9.69700002670288,learn,50302.99997329712,Fri Feb 28 2025 13:43:36 GMT-0600 (Central Standard Time),148789.09999996424,A,w,O,w,683,1,700.0999999642372,148089.0,7042,WL,B,4.0
1,9.86300015449524,learn,50136.99984550476,Fri Feb 28 2025 13:43:36 GMT-0600 (Central Standard Time),148955.39999997616,A,wi,O,i,151,1,866.3999999761581,148089.0,7042,WL,B,4.0
1,9.946000099182129,learn,50053.99990081787,Fri Feb 28 2025 13:43:36 GMT-0600 (Central Standard Time),149038.5,A,win,O,n,72,1,949.5,148089.0,7042,WL,B,4.0
1,10.11300015449524,learn,49886.99984550476,Fri Feb 28 2025 13:43:36 GMT-0600 (Central Standard Time),149205.29999995232,A,wind,O,d,150,1,1116.2999999523163,148089.0,7042,WL,B,4.0
1,10.246999979019165,learn,49753.000020980835,Fri Feb 28 2025 13:43:36 GMT-0600 (Central Standard Time),149339.59999996424,A,windo,O,o,118,1,1250.5999999642372,148089.0,7042,WL,B,4.0
1,10.430000066757202,learn,49569.9999332428,Fri Feb 28 2025 13:43:36 GMT-0600 (Central Standard Time),149522.69999998808,A,window,O,w,160,1,1433.699999988079,148089.0,7042,WL,B,4.0
1,10.84600019454956,learn,49153.99980545044,Fri Feb 28 2025 13:43:36 GMT-0600 (Central Standard Time),149938.29999995232,A,windowenter,O,enter,409,1,1849.2999999523163,148089.0,7042,WL,B,4.0
1,11.312000036239624,learn,48687.999963760376,Fri Feb 28 2025 13:43:36 GMT-0600 (Central Standard Time),150404.59999996424,A,d,O,d,449,1,466.0,149938.59999996424,7042,WL,B,5.0
1,11.546000003814697,learn,48453.9999961853,Fri Feb 28 2025 13:43:36 GMT-0600 (Central Standard Time),150638.39999997616,A,do,O,o,224,1,699.8000000119209,149938.59999996424,7042,WL,B,5.0
1,11.710999965667725,learn,48289.000034332275,Fri Feb 28 2025 13:43:36 GMT-0600 (Central Standard Time),150803.39999997616,A,doo,O,o,158,1,864.8000000119209,149938.59999996424,7042,WL,B,5.0
1,11.930999994277954,learn,48069.000005722046,Fri Feb 28 2025 13:43:36 GMT-0600 (Central Standard Time),151023.09999996424,A,door,O,r,209,1,1084.5,149938.59999996424,7042,WL,B,5.0
1,12.562999963760376,learn,47437.000036239624,Fri Feb 28 2025 13:43:36 GMT-0600 (Central Standard Time),151654.89999997616,A,doorenter,O,enter,621,1,1716.300000011921,149938.59999996424,7042,WL,B,5.0
1,12.930000066757202,learn,47069.9999332428,Fri Feb 28 2025 13:43:36 GMT-0600 (Central Standard Time),152022.19999998808,A,f,O,f,360,1,367.0,151655.19999998808,7042,WL,B,6.0
1,13.111999988555908,learn,46888.00001144409,Fri Feb 28 2025 13:43:36 GMT-0600 (Central Standard Time),152204.19999998808,A,fi,O,i,165,1,549.0,151655.19999998808,7042,WL,B,6.0
1,13.281000137329102,learn,46718.9998626709,Fri Feb 28 2025 13:43:36 GMT-0600 (Central Standard Time),152372.69999998808,A,fir,O,r,160,1,717.5,151655.19999998808,7042,WL,B,6.0
1,13.361000061035156,learn,46638.999938964844,Fri Feb 28 2025 13:43:36 GMT-0600 (Central Standard Time),152452.79999995232,A,fire,O,e,60,1,797.5999999642372,151655.19999998808,7042,WL,B,6.0
1,13.828999996185303,learn,46171.0000038147,Fri Feb 28 2025 13:43:36 GMT-0600 (Central Standard Time),152921.09999996424,A,fireenter,O,enter,445,1,1265.8999999761581,151655.19999998808,7042,WL,B,6.0
1,15.462000131607056,learn,44537.999868392944,Fri Feb 28 2025 13:43:36 GMT-0600 (Central Standard Time),154554.19999998808,A,s,O,s,1618,1,1632.800000011921,152921.39999997616,7042,WL,B,7.0
1,15.594000101089478,learn,44405.99989891052,Fri Feb 28 2025 13:43:36 GMT-0600 (Central Standard Time),154686.39999997616,A,sk,O,k,113,1,1765.0,152921.39999997616,7042,WL,B,7.0
1,15.811000108718872,learn,44188.99989128113,Fri Feb 28 2025 13:43:36 GMT-0600 (Central Standard Time),154903.5,A,ski,O,i,204,1,1982.1000000238419,152921.39999997616,7042,WL,B,7.0
1,15.876000165939331,learn,44123.99983406067,Fri Feb 28 2025 13:43:36 GMT-0600 (Central Standard Time),154968.69999998808,A,skin,O,n,53,1,2047.300000011921,152921.39999997616,7042,WL,B,7.0
1,16.26200008392334,learn,43737.99991607666,Fri Feb 28 2025 13:43:36 GMT-0600 (Central Standard Time),155354.29999995232,A,skinenter,O,enter,379,1,2432.899999976158,152921.39999997616,7042,WL,B,7.0
1,25.9760000705719,learn,34023.9999294281,Fri Feb 28 2025 13:43:36 GMT-0600 (Central Standard Time),165067.89999997616,A,s,O,s,9690,1,9713.399999976158,155354.5,7042,WL,B,8.0
1,26.125,learn,33875.0,Fri Feb 28 2025 13:43:36 GMT-0600 (Central Standard Time),165217.5,A,st,O,t,127,1,9863.0,155354.5,7042,WL,B,8.0
1,26.35800004005432,learn,33641.99995994568,Fri Feb 28 2025 13:43:36 GMT-0600 (Central Standard Time),165449.79999995232,A,sta,O,a,226,1,10095.299999952316,155354.5,7042,WL,B,8.0
1,26.58899998664856,learn,33411.00001335144,Fri Feb 28 2025 13:43:36 GMT-0600 (Central Standard Time),165681.59999996424,A,star,O,r,221,1,10327.099999964237,155354.5,7042,WL,B,8.0
1,28.159000158309937,learn,31840.999841690063,Fri Feb 28 2025 13:43:36 GMT-0600 (Central Standard Time),167251.09999996424,A,stars,O,s,1549,1,11896.599999964237,155354.5,7042,WL,B,8.0
1,33.539000034332275,learn,26460.999965667725,Fri Feb 28 2025 13:43:36 GMT-0600 (Central Standard Time),172631.29999995232,A,star,O,backspace,5361,1,17276.799999952316,155354.5,7042,WL,B,8.0
1,34.039000034332275,learn,25960.999965667725,Fri Feb 28 2025 13:43:36 GMT-0600 (Central Standard Time),173131.39999997616,A,starenter,O,enter,484,1,17776.899999976158,155354.5,7042,WL,B,8.0
1,43.38499999046326,learn,16615.000009536743,Fri Feb 28 2025 13:43:36 GMT-0600 (Central Standard Time),182477.89999997616,A,w,O,w,9329,1,9346.300000011921,173131.59999996424,7042,WL,B,9.0
1,43.55299997329712,learn,16447.00002670288,Fri Feb 28 2025 13:43:36 GMT-0600 (Central Standard Time),182645.89999997616,A,wi,O,i,147,1,9514.300000011921,173131.59999996424,7042,WL,B,9.0
1,43.66900014877319,learn,16330.999851226807,Fri Feb 28 2025 13:43:36 GMT-0600 (Central Standard Time),182761.79999995232,A,wif,O,f,103,1,9630.199999988079,173131.59999996424,7042,WL,B,9.0
1,43.76900005340576,learn,16230.999946594238,Fri Feb 28 2025 13:43:36 GMT-0600 (Central Standard Time),182861.59999996424,A,wife,O,e,83,1,9730.0,173131.59999996424,7042,WL,B,9.0
1,44.069000005722046,learn,15930.999994277954,Fri Feb 28 2025 13:43:36 GMT-0600 (Central Standard Time),183162.0,A,wifeenter,O,enter,286,1,10030.400000035763,173131.59999996424,7042,WL,B,9.0
1,60.015000104904175,learn,-15.000104904174805,Fri Feb 28 2025 13:43:36 GMT-0600 (Central Standard Time),199107.5,A,None,O,None,15940,1,15945.200000047684,183162.29999995232,7042,WL,B,10.0
2,1.1319999694824219,learn,58868.00003051758,Fri Feb 28 2025 13:43:36 GMT-0600 (Central Standard Time),267367.7999999523,A,s,O,s,1113,1,1131.0999999642372,266236.6999999881,7042,WL,B,1.0
2,1.3999998569488525,learn,58600.00014305115,Fri Feb 28 2025 13:43:36 GMT-0600 (Central Standard Time),267636.1999999881,A,st,O,t,263,1,1399.5,266236.6999999881,7042,WL,B,1.0
2,1.7149999141693115,learn,58285.00008583069,Fri Feb 28 2025 13:43:36 GMT-0600 (Central Standard Time),267950.89999997616,A,str,O,r,296,1,1714.199999988079,266236.6999999881,7042,WL,B,1.0
2,1.815999984741211,learn,58184.00001525879,Fri Feb 28 2025 13:43:36 GMT-0600 (Central Standard Time),268052.0,A,stre,O,e,94,1,1815.300000011921,266236.6999999881,7042,WL,B,1.0
2,2.0490000247955322,learn,57950.99997520447,Fri Feb 28 2025 13:43:36 GMT-0600 (Central Standard Time),268285.0,A,stree,O,e,217,1,2048.300000011921,266236.6999999881,7042,WL,B,1.0
2,2.248999834060669,learn,57751.00016593933,Fri Feb 28 2025 13:43:36 GMT-0600 (Central Standard Time),268485.0,A,street,O,t,194,1,2248.300000011921,266236.6999999881,7042,WL,B,1.0
2,2.6989998817443848,learn,57301.000118255615,Fri Feb 28 2025 13:43:36 GMT-0600 (Central Standard Time),268934.5,A,streetenter,O,enter,431,1,2697.800000011921,266236.6999999881,7042,WL,B,1.0
2,3.13100004196167,learn,56868.99995803833,Fri Feb 28 2025 13:43:36 GMT-0600 (Central Standard Time),269366.89999997616,A,g,O,g,423,1,432.0,268934.89999997616,7042,WL,B,2.0
2,3.4149999618530273,learn,56585.00003814697,Fri Feb 28 2025 13:43:36 GMT-0600 (Central Standard Time),269651.09999996424,A,gr,O,r,278,1,716.1999999880791,268934.89999997616,7042,WL,B,2.0
2,3.565999984741211,learn,56434.00001525879,Fri Feb 28 2025 13:43:36 GMT-0600 (Central Standard Time),269801.59999996424,A,gra,O,a,129,1,866.6999999880791,268934.89999997616,7042,WL,B,2.0
2,3.796999931335449,learn,56203.00006866455,Fri Feb 28 2025 13:43:36 GMT-0600 (Central Standard Time),270033.2999999523,A,gras,O,s,220,1,1098.3999999761581,268934.89999997616,7042,WL,B,2.0
2,4.065000057220459,learn,55934.99994277954,Fri Feb 28 2025 13:43:36 GMT-0600 (Central Standard Time),270300.89999997616,A,grass,O,s,251,1,1366.0,268934.89999997616,7042,WL,B,2.0
2,4.71399998664856,learn,55286.00001335144,Fri Feb 28 2025 13:43:36 GMT-0600 (Central Standard Time),270949.59999996424,A,grassenter,O,enter,630,1,2014.699999988079,268934.89999997616,7042,WL,B,2.0
2,5.197000026702881,learn,54802.99997329712,Fri Feb 28 2025 13:43:36 GMT-0600 (Central Standard Time),271433.39999997616,A,w,O,w,463,1,483.5,270949.89999997616,7042,WL,B,3.0
2,5.313999891281128,learn,54686.00010871887,Fri Feb 28 2025 13:43:36 GMT-0600 (Central Standard Time),271549.6999999881,A,wi,O,i,108,1,599.8000000119209,270949.89999997616,7042,WL,B,3.0
2,5.447999954223633,learn,54552.00004577637,Fri Feb 28 2025 13:43:36 GMT-0600 (Central Standard Time),271684.09999996424,A,win,O,n,129,1,734.1999999880791,270949.89999997616,7042,WL,B,3.0
2,5.565000057220459,learn,54434.99994277954,Fri Feb 28 2025 13:43:36 GMT-0600 (Central Standard Time),271800.59999996424,A,wind,O,d,104,1,850.6999999880791,270949.89999997616,7042,WL,B,3.0
2,5.697000026702881,learn,54302.99997329712,Fri Feb 28 2025 13:43:36 GMT-0600 (Central Standard Time),271932.89999997616,A,windo,O,o,127,1,983.0,270949.89999997616,7042,WL,B,3.0
2,5.848999977111816,learn,54151.00002288818,Fri Feb 28 2025 13:43:36 GMT-0600 (Central Standard Time),272084.6999999881,A,window,O,w,146,1,1134.800000011921,270949.89999997616,7042,WL,B,3.0
2,6.2149999141693115,learn,53785.00008583069,Fri Feb 28 2025 13:43:36 GMT-0600 (Central Standard Time),272450.6999999881,A,windowenter,O,enter,360,1,1500.800000011921,270949.89999997616,7042,WL,B,3.0
2,6.912999868392944,learn,53087.000131607056,Fri Feb 28 2025 13:43:36 GMT-0600 (Central Standard Time),273149.2999999523,A,a,O,a,681,1,698.2999999523163,272451.0,7042,WL,B,4.0
2,7.129999876022339,learn,52870.00012397766,Fri Feb 28 2025 13:43:36 GMT-0600 (Central Standard Time),273365.5,A,ar,O,r,208,1,914.5,272451.0,7042,WL,B,4.0
2,7.414999961853027,learn,52585.00003814697,Fri Feb 28 2025 13:43:36 GMT-0600 (Central Standard Time),273650.89999997616,A,arm,O,m,278,1,1199.8999999761581,272451.0,7042,WL,B,4.0
2,8.145999908447266,learn,51854.000091552734,Fri Feb 28 2025 13:43:36 GMT-0600 (Central Standard Time),274382.0,A,armenter,O,enter,718,1,1931.0,272451.0,7042,WL,B,4.0
2,8.478999853134155,learn,51521.000146865845,Fri Feb 28 2025 13:43:36 GMT-0600 (Central Standard Time),274715.2999999523,A,d,O,d,318,1,333.0,274382.2999999523,7042,WL,B,5.0
2,8.615000009536743,learn,51384.99999046326,Fri Feb 28 2025 13:43:36 GMT-0600 (Central Standard Time),274850.7999999523,A,do,O,o,129,1,468.5,274382.2999999523,7042,WL,B,5.0
2,8.79699993133545,learn,51203.00006866455,Fri Feb 28 2025 13:43:36 GMT-0600 (Central Standard Time),275032.39999997616,A,doo,O,o,170,1,650.1000000238419,274382.2999999523,7042,WL,B,5.0
2,8.978999853134155,learn,51021.000146865845,Fri Feb 28 2025 13:43:36 GMT-0600 (Central Standard Time),275214.5,A,door,O,r,171,1,832.2000000476837,274382.2999999523,7042,WL,B,5.0
2,9.228999853134155,learn,50771.000146865845,Fri Feb 28 2025 13:43:36 GMT-0600 (Central Standard Time),275464.6999999881,A,doorenter,O,enter,230,1,1082.4000000357628,274382.2999999523,7042,WL,B,5.0
2,10.213000059127808,learn,49786.99994087219,Fri Feb 28 2025 13:43:36 GMT-0600 (Central Standard Time),276448.7999999523,A,s,O,s,973,1,983.8999999761581,275464.89999997616,7042,WL,B,6.0
2,10.394999980926514,learn,49605.000019073486,Fri Feb 28 2025 13:43:36 GMT-0600 (Central Standard Time),276630.39999997616,A,st,O,t,173,1,1165.5,275464.89999997616,7042,WL,B,6.0
2,10.57699990272522,learn,49423.00009727478,Fri Feb 28 2025 13:43:36 GMT-0600 (Central Standard Time),276813.0,A,sta,O,a,174,1,1348.1000000238419,275464.89999997616,7042,WL,B,6.0
2,10.777999877929688,learn,49222.00012207031,Fri Feb 28 2025 13:43:36 GMT-0600 (Central Standard Time),277013.6999999881,A,star,O,r,186,1,1548.800000011921,275464.89999997616,7042,WL,B,6.0
2,11.09500002861023,learn,48904.99997138977,Fri Feb 28 2025 13:43:36 GMT-0600 (Central Standard Time),277330.39999997616,A,starenter,O,enter,295,1,1865.5,275464.89999997616,7042,WL,B,6.0
2,12.09500002861023,learn,47904.99997138977,Fri Feb 28 2025 13:43:36 GMT-0600 (Central Standard Time),278331.09999996424,A,c,O,c,988,1,1000.5,277330.59999996424,7042,WL,B,7.0
2,12.312000036239624,learn,47687.999963760376,Fri Feb 28 2025 13:43:36 GMT-0600 (Central Standard Time),278548.1999999881,A,ca,O,a,202,1,1217.6000000238419,277330.59999996424,7042,WL,B,7.0
2,12.48199987411499,learn,47518.00012588501,Fri Feb 28 2025 13:43:36 GMT-0600 (Central Standard Time),278717.5,A,cab,O,b,164,1,1386.9000000357628,277330.59999996424,7042,WL,B,7.0
2,12.713000059127808,learn,47286.99994087219,Fri Feb 28 2025 13:43:36 GMT-0600 (Central Standard Time),278948.6999999881,A,cabi,O,i,216,1,1618.1000000238419,277330.59999996424,7042,WL,B,7.0
2,12.812000036239624,learn,47187.999963760376,Fri Feb 28 2025 13:43:36 GMT-0600 (Central Standard Time),279047.7999999523,A,cabin,O,n,81,1,1717.199999988079,277330.59999996424,7042,WL,B,7.0
2,13.328999996185303,learn,46671.0000038147,Fri Feb 28 2025 13:43:36 GMT-0600 (Central Standard Time),279564.39999997616,A,cabinenter,O,enter,501,1,2233.800000011921,277330.59999996424,7042,WL,B,7.0
2,13.861999988555908,learn,46138.00001144409,Fri Feb 28 2025 13:43:36 GMT-0600 (Central Standard Time),280098.2999999523,A,f,O,f,528,1,533.5999999642372,279564.6999999881,7042,WL,B,8.0
2,14.042999982833862,learn,45957.00001716614,Fri Feb 28 2025 13:43:36 GMT-0600 (Central Standard Time),280279.2999999523,A,fi,O,i,158,1,714.5999999642372,279564.6999999881,7042,WL,B,8.0
2,14.192999839782715,learn,45807.000160217285,Fri Feb 28 2025 13:43:36 GMT-0600 (Central Standard Time),280429.0,A,fir,O,r,142,1,864.3000000119209,279564.6999999881,7042,WL,B,8.0
2,14.309999942779541,learn,45690.00005722046,Fri Feb 28 2025 13:43:36 GMT-0600 (Central Standard Time),280545.7999999523,A,fire,O,e,105,1,981.0999999642372,279564.6999999881,7042,WL,B,8.0
2,18.062000036239624,learn,41937.999963760376,Fri Feb 28 2025 13:43:36 GMT-0600 (Central Standard Time),284297.89999997616,A,fireenter,O,enter,3730,1,4733.199999988079,279564.6999999881,7042,WL,B,8.0
2,19.825999975204468,learn,40174.00002479553,Fri Feb 28 2025 13:43:36 GMT-0600 (Central Standard Time),286061.89999997616,A,p,O,p,1755,1,1763.699999988079,284298.1999999881,7042,WL,B,9.0
2,20.009000062942505,learn,39990.999937057495,Fri Feb 28 2025 13:43:36 GMT-0600 (Central Standard Time),286244.5,A,pu,O,u,167,1,1946.300000011921,284298.1999999881,7042,WL,B,9.0
2,20.17799997329712,learn,39822.00002670288,Fri Feb 28 2025 13:43:36 GMT-0600 (Central Standard Time),286414.1999999881,A,pup,O,p,145,1,2116.0,284298.1999999881,7042,WL,B,9.0
2,20.376999855041504,learn,39623.000144958496,Fri Feb 28 2025 13:43:36 GMT-0600 (Central Standard Time),286613.2999999523,A,pupi,O,i,193,1,2315.099999964237,284298.1999999881,7042,WL,B,9.0
2,20.575999975204468,learn,39424.00002479553,Fri Feb 28 2025 13:43:36 GMT-0600 (Central Standard Time),286812.1999999881,A,pupil,O,l,182,1,2514.0,284298.1999999881,7042,WL,B,9.0
2,20.842000007629395,learn,39157.999992370605,Fri Feb 28 2025 13:43:36 GMT-0600 (Central Standard Time),287078.1999999881,A,pupilenter,O,enter,257,1,2780.0,284298.1999999881,7042,WL,B,9.0
2,26.424000024795532,learn,33575.99997520447,Fri Feb 28 2025 13:43:36 GMT-0600 (Central Standard Time),292659.6999999881,A,l,O,l,5566,1,5581.300000011921,287078.39999997616,7042,WL,B,10.0
2,26.557999849319458,learn,33442.00015068054,Fri Feb 28 2025 13:43:36 GMT-0600 (Central Standard Time),292793.89999997616,A,la,O,a,112,1,5715.5,287078.39999997616,7042,WL,B,10.0
2,26.674000024795532,learn,33325.99997520447,Fri Feb 28 2025 13:43:36 GMT-0600 (Central Standard Time),292910.09999996424,A,lak,O,k,98,1,5831.699999988079,287078.39999997616,7042,WL,B,10.0
2,26.77300000190735,learn,33226.99999809265,Fri Feb 28 2025 13:43:36 GMT-0600 (Central Standard Time),293008.89999997616,A,lake,O,e,86,1,5930.5,287078.39999997616,7042,WL,B,10.0
2,27.007999897003174,learn,32992.000102996826,Fri Feb 28 2025 13:43:36 GMT-0600 (Central Standard Time),293243.59999996424,A,lakeenter,O,enter,218,1,6165.199999988079,287078.39999997616,7042,WL,B,10.0
2,33.2039999961853,learn,26796.000003814697,Fri Feb 28 2025 13:43:36 GMT-0600 (Central Standard Time),299440.5,A,c,O,c,6178,1,6196.700000047684,293243.7999999523,7042,WL,B,11.0
2,33.40499997138977,learn,26595.00002861023,Fri Feb 28 2025 13:43:36 GMT-0600 (Central Standard Time),299640.7999999523,A,ci,O,i,186,1,6397.0,293243.7999999523,7042,WL,B,11.0
2,33.537999868392944,learn,26462.000131607056,Fri Feb 28 2025 13:43:36 GMT-0600 (Central Standard Time),299774.5,A,cit,O,t,124,1,6530.700000047684,293243.7999999523,7042,WL,B,11.0
2,33.687000036239624,learn,26312.999963760376,Fri Feb 28 2025 13:43:36 GMT-0600 (Central Standard Time),299923.39999997616,A,city,O,y,143,1,6679.600000023842,293243.7999999523,7042,WL,B,11.0
2,33.9210000038147,learn,26078.999996185303,Fri Feb 28 2025 13:43:36 GMT-0600 (Central Standard Time),300156.7999999523,A,cityenter,O,enter,217,1,6913.0,293243.7999999523,7042,WL,B,11.0
2,51.23099994659424,learn,8769.000053405762,Fri Feb 28 2025 13:43:36 GMT-0600 (Central Standard Time),317467.59999996424,A,w,O,w,17295,1,17310.5,300157.09999996424,7042,WL,B,12.0
2,52.73300004005432,learn,7266.999959945679,Fri Feb 28 2025 13:43:36 GMT-0600 (Central Standard Time),318968.7999999523,A,wi,O,i,1482,1,18811.69999998808,300157.09999996424,7042,WL,B,12.0
2,52.884000062942505,learn,7115.999937057495,Fri Feb 28 2025 13:43:36 GMT-0600 (Central Standard Time),319120.09999996424,A,wif,O,f,131,1,18963.0,300157.09999996424,7042,WL,B,12.0
2,53.13199996948242,learn,6868.000030517578,Fri Feb 28 2025 13:43:36 GMT-0600 (Central Standard Time),319368.09999996424,A,wife,O,e,229,1,19211.0,300157.09999996424,7042,WL,B,12.0
2,53.717000007629395,learn,6282.9999923706055,Fri Feb 28 2025 13:43:36 GMT-0600 (Central Standard Time),319953.59999996424,A,wifeenter,O,enter,580,1,19796.5,300157.09999996424,7042,WL,B,12.0
2,60.01300001144409,learn,-13.000011444091797,Fri Feb 28 2025 13:43:36 GMT-0600 (Central Standard Time),326249.6999999881,A,None,O,None,6290,1,6295.900000035763,319953.7999999523,7042,WL,B,13.0
3,0.8159999847412109,learn,59184.00001525879,Fri Feb 28 2025 13:43:36 GMT-0600 (Central Standard Time),393727.89999997616,A,f,O,f,798,1,816.5,392911.39999997616,7042,WL,B,1.0
3,0.9830000400543213,learn,59016.99995994568,Fri Feb 28 2025 13:43:36 GMT-0600 (Central Standard Time),393894.5,A,fi,O,i,147,1,983.1000000238419,392911.39999997616,7042,WL,B,1.0
3,1.1500000953674316,learn,58849.99990463257,Fri Feb 28 2025 13:43:36 GMT-0600 (Central Standard Time),394061.7999999523,A,fir,O,r,159,1,1150.3999999761581,392911.39999997616,7042,WL,B,1.0
3,1.2330000400543213,learn,58766.99995994568,Fri Feb 28 2025 13:43:36 GMT-0600 (Central Standard Time),394144.2999999523,A,fire,O,e,59,1,1232.8999999761581,392911.39999997616,7042,WL,B,1.0
3,1.6500000953674316,learn,58349.99990463257,Fri Feb 28 2025 13:43:36 GMT-0600 (Central Standard Time),394561.2999999523,A,fireenter,O,enter,402,1,1649.8999999761581,392911.39999997616,7042,WL,B,1.0
3,2.0320000648498535,learn,57967.99993515015,Fri Feb 28 2025 13:43:36 GMT-0600 (Central Standard Time),394944.0,A,c,O,c,371,1,382.4000000357628,394561.59999996424,7042,WL,B,2.0
3,2.1489999294281006,learn,57851.0000705719,Fri Feb 28 2025 13:43:36 GMT-0600 (Central Standard Time),395060.89999997616,A,cl,O,l,100,1,499.30000001192093,394561.59999996424,7042,WL,B,2.0
3,2.3499999046325684,learn,57650.00009536743,Fri Feb 28 2025 13:43:36 GMT-0600 (Central Standard Time),395261.2999999523,A,clo,O,o,182,1,699.6999999880791,394561.59999996424,7042,WL,B,2.0
3,2.5490000247955322,learn,57450.99997520447,Fri Feb 28 2025 13:43:36 GMT-0600 (Central Standard Time),395460.5,A,cloc,O,c,183,1,898.9000000357628,394561.59999996424,7042,WL,B,2.0
3,2.6989998817443848,learn,57301.000118255615,Fri Feb 28 2025 13:43:36 GMT-0600 (Central Standard Time),395610.2999999523,A,clock,O,k,135,1,1048.699999988079,394561.59999996424,7042,WL,B,2.0
3,3.1480000019073486,learn,56851.99999809265,Fri Feb 28 2025 13:43:36 GMT-0600 (Central Standard Time),396060.0,A,clockenter,O,enter,445,1,1498.4000000357628,394561.59999996424,7042,WL,B,2.0
3,3.681999921798706,learn,56318.000078201294,Fri Feb 28 2025 13:43:36 GMT-0600 (Central Standard Time),396593.5,A,p,O,p,521,1,533.2000000476837,396060.2999999523,7042,WL,B,3.0
3,3.882999897003174,learn,56117.000102996826,Fri Feb 28 2025 13:43:36 GMT-0600 (Central Standard Time),396794.7999999523,A,pu,O,u,194,1,734.5,396060.2999999523,7042,WL,B,3.0
3,4.0320000648498535,learn,55967.99993515015,Fri Feb 28 2025 13:43:36 GMT-0600 (Central Standard Time),396943.59999996424,A,pup,O,p,127,1,883.3000000119209,396060.2999999523,7042,WL,B,3.0
3,4.232000112533569,learn,55767.99988746643,Fri Feb 28 2025 13:43:36 GMT-0600 (Central Standard Time),397143.7999999523,A,pupi,O,i,178,1,1083.5,396060.2999999523,7042,WL,B,3.0
3,4.431999921798706,learn,55568.000078201294,Fri Feb 28 2025 13:43:36 GMT-0600 (Central Standard Time),397343.1999999881,A,pupil,O,l,177,1,1282.9000000357628,396060.2999999523,7042,WL,B,3.0
3,4.749000072479248,learn,55250.99992752075,Fri Feb 28 2025 13:43:36 GMT-0600 (Central Standard Time),397660.5,A,pupilenter,O,enter,300,1,1600.2000000476837,396060.2999999523,7042,WL,B,3.0
3,5.11299991607666,learn,54887.00008392334,Fri Feb 28 2025 13:43:36 GMT-0600 (Central Standard Time),398024.7999999523,A,w,O,w,352,1,364.0,397660.7999999523,7042,WL,B,4.0
3,5.2809998989105225,learn,54719.00010108948,Fri Feb 28 2025 13:43:36 GMT-0600 (Central Standard Time),398192.7999999523,A,wi,O,i,147,1,532.0,397660.7999999523,7042,WL,B,4.0
3,5.448999881744385,learn,54551.000118255615,Fri Feb 28 2025 13:43:36 GMT-0600 (Central Standard Time),398360.59999996424,A,wif,O,f,157,1,699.8000000119209,397660.7999999523,7042,WL,B,4.0
3,5.5299999713897705,learn,54470.00002861023,Fri Feb 28 2025 13:43:36 GMT-0600 (Central Standard Time),398441.7999999523,A,wife,O,e,57,1,781.0,397660.7999999523,7042,WL,B,4.0
3,5.732000112533569,learn,54267.99988746643,Fri Feb 28 2025 13:43:36 GMT-0600 (Central Standard Time),398643.1999999881,A,wifeenter,O,enter,185,1,982.4000000357628,397660.7999999523,7042,WL,B,4.0
3,6.414999961853027,learn,53585.00003814697,Fri Feb 28 2025 13:43:36 GMT-0600 (Central Standard Time),399326.6999999881,A,s,O,s,666,1,683.3000000119209,398643.39999997616,7042,WL,B,5.0
3,6.614000082015991,learn,53385.99991798401,Fri Feb 28 2025 13:43:36 GMT-0600 (Central Standard Time),399526.0,A,st,O,t,192,1,882.6000000238419,398643.39999997616,7042,WL,B,5.0
3,6.881999969482422,learn,53118.00003051758,Fri Feb 28 2025 13:43:36 GMT-0600 (Central Standard Time),399793.39999997616,A,str,O,r,253,1,1150.0,398643.39999997616,7042,WL,B,5.0
3,6.980000019073486,learn,53019.999980926514,Fri Feb 28 2025 13:43:36 GMT-0600 (Central Standard Time),399891.6999999881,A,stre,O,e,81,1,1248.300000011921,398643.39999997616,7042,WL,B,5.0
3,7.180999994277954,learn,52819.000005722046,Fri Feb 28 2025 13:43:36 GMT-0600 (Central Standard Time),400092.09999996424,A,stree,O,e,184,1,1448.699999988079,398643.39999997616,7042,WL,B,5.0
3,7.331000089645386,learn,52668.999910354614,Fri Feb 28 2025 13:43:36 GMT-0600 (Central Standard Time),400242.2999999523,A,street,O,t,133,1,1598.8999999761581,398643.39999997616,7042,WL,B,5.0
3,7.581000089645386,learn,52418.999910354614,Fri Feb 28 2025 13:43:36 GMT-0600 (Central Standard Time),400492.89999997616,A,streetenter,O,enter,234,1,1849.5,398643.39999997616,7042,WL,B,5.0
3,7.86299991607666,learn,52137.00008392334,Fri Feb 28 2025 13:43:36 GMT-0600 (Central Standard Time),400774.59999996424,A,g,O,g,269,1,281.30000001192093,400493.2999999523,7042,WL,B,6.0
3,8.13100004196167,learn,51868.99995803833,Fri Feb 28 2025 13:43:36 GMT-0600 (Central Standard Time),401042.39999997616,A,gr,O,r,253,1,549.1000000238419,400493.2999999523,7042,WL,B,6.0
3,8.246999979019165,learn,51753.000020980835,Fri Feb 28 2025 13:43:36 GMT-0600 (Central Standard Time),401158.6999999881,A,gra,O,a,107,1,665.4000000357628,400493.2999999523,7042,WL,B,6.0
3,8.480999946594238,learn,51519.00005340576,Fri Feb 28 2025 13:43:36 GMT-0600 (Central Standard Time),401392.7999999523,A,gras,O,s,214,1,899.5,400493.2999999523,7042,WL,B,6.0
3,8.713000059127808,learn,51286.99994087219,Fri Feb 28 2025 13:43:36 GMT-0600 (Central Standard Time),401624.7999999523,A,grass,O,s,220,1,1131.5,400493.2999999523,7042,WL,B,6.0
3,9.19700002670288,learn,50802.99997329712,Fri Feb 28 2025 13:43:36 GMT-0600 (Central Standard Time),402108.1999999881,A,grassenter,O,enter,467,1,1614.9000000357628,400493.2999999523,7042,WL,B,6.0
3,9.52999997138977,learn,50470.00002861023,Fri Feb 28 2025 13:43:36 GMT-0600 (Central Standard Time),402441.6999999881,A,d,O,d,314,1,333.19999998807907,402108.5,7042,WL,B,7.0
3,9.680000066757202,learn,50319.9999332428,Fri Feb 28 2025 13:43:36 GMT-0600 (Central Standard Time),402592.0,A,do,O,o,139,1,483.5,402108.5,7042,WL,B,7.0
3,9.828999996185303,learn,50171.0000038147,Fri Feb 28 2025 13:43:36 GMT-0600 (Central Standard Time),402740.09999996424,A,doo,O,o,131,1,631.5999999642372,402108.5,7042,WL,B,7.0
3,9.964999914169312,learn,50035.00008583069,Fri Feb 28 2025 13:43:36 GMT-0600 (Central Standard Time),402876.2999999523,A,door,O,r,128,1,767.7999999523163,402108.5,7042,WL,B,7.0
3,10.296000003814697,learn,49703.9999961853,Fri Feb 28 2025 13:43:36 GMT-0600 (Central Standard Time),403207.39999997616,A,doorenter,O,enter,313,1,1098.8999999761581,402108.5,7042,WL,B,7.0
3,10.611999988555908,learn,49388.00001144409,Fri Feb 28 2025 13:43:36 GMT-0600 (Central Standard Time),403523.7999999523,A,a,O,a,301,1,316.19999998807907,403207.59999996424,7042,WL,B,8.0
3,10.730000019073486,learn,49269.999980926514,Fri Feb 28 2025 13:43:36 GMT-0600 (Central Standard Time),403641.2999999523,A,ar,O,r,95,1,433.69999998807907,403207.59999996424,7042,WL,B,8.0
3,10.913000106811523,learn,49086.99989318848,Fri Feb 28 2025 13:43:36 GMT-0600 (Central Standard Time),403824.89999997616,A,arm,O,m,170,1,617.3000000119209,403207.59999996424,7042,WL,B,8.0
3,11.312999963760376,learn,48687.000036239624,Fri Feb 28 2025 13:43:36 GMT-0600 (Central Standard Time),404224.1999999881,A,armenter,O,enter,389,1,1016.6000000238419,403207.59999996424,7042,WL,B,8.0
3,12.295000076293945,learn,47704.999923706055,Fri Feb 28 2025 13:43:36 GMT-0600 (Central Standard Time),405207.09999996424,A,c,O,c,965,1,982.6999999880791,404224.39999997616,7042,WL,B,9.0
3,12.344000101089478,learn,47655.99989891052,Fri Feb 28 2025 13:43:36 GMT-0600 (Central Standard Time),405255.5,A,cl,O,l,37,1,1031.1000000238419,404224.39999997616,7042,WL,B,9.0
3,12.545000076293945,learn,47454.999923706055,Fri Feb 28 2025 13:43:36 GMT-0600 (Central Standard Time),405457.09999996424,A,clo,O,o,180,1,1232.699999988079,404224.39999997616,7042,WL,B,9.0
3,12.67799997329712,learn,47322.00002670288,Fri Feb 28 2025 13:43:36 GMT-0600 (Central Standard Time),405589.59999996424,A,cloc,O,c,122,1,1365.199999988079,404224.39999997616,7042,WL,B,9.0
3,12.795000076293945,learn,47204.999923706055,Fri Feb 28 2025 13:43:36 GMT-0600 (Central Standard Time),405706.2999999523,A,clock,O,k,100,1,1481.8999999761581,404224.39999997616,7042,WL,B,9.0
3,13.128999948501587,learn,46871.00005149841,Fri Feb 28 2025 13:43:36 GMT-0600 (Central Standard Time),406040.89999997616,A,clockenter,O,enter,313,1,1816.5,404224.39999997616,7042,WL,B,9.0
3,16.528000116348267,learn,43471.99988365173,Fri Feb 28 2025 13:43:36 GMT-0600 (Central Standard Time),409439.6999999881,A,w,O,w,3379,1,3398.5,406041.1999999881,7042,WL,B,10.0
3,19.177000045776367,learn,40822.99995422363,Fri Feb 28 2025 13:43:36 GMT-0600 (Central Standard Time),412088.2999999523,A,wi,O,i,2628,1,6047.099999964237,406041.1999999881,7042,WL,B,10.0
3,19.609999895095825,learn,40390.000104904175,Fri Feb 28 2025 13:43:36 GMT-0600 (Central Standard Time),412521.39999997616,A,wif,O,f,420,1,6480.199999988079,406041.1999999881,7042,WL,B,10.0
3,19.793999910354614,learn,40206.000089645386,Fri Feb 28 2025 13:43:36 GMT-0600 (Central Standard Time),412706.0,A,wife,O,e,163,1,6664.800000011921,406041.1999999881,7042,WL,B,10.0
3,20.424999952316284,learn,39575.000047683716,Fri Feb 28 2025 13:43:36 GMT-0600 (Central Standard Time),413337.0,A,wifeenter,O,enter,619,1,7295.800000011921,406041.1999999881,7042,WL,B,10.0
3,21.191999912261963,learn,38808.00008773804,Fri Feb 28 2025 13:43:36 GMT-0600 (Central Standard Time),414103.6999999881,A,g,O,g,756,1,766.4000000357628,413337.2999999523,7042,WL,B,11.0
3,21.64299988746643,learn,38357.00011253357,Fri Feb 28 2025 13:43:36 GMT-0600 (Central Standard Time),414554.6999999881,A,,O,backspace,437,1,1217.4000000357628,413337.2999999523,7042,WL,B,11.0
3,21.924999952316284,learn,38075.000047683716,Fri Feb 28 2025 13:43:36 GMT-0600 (Central Standard Time),414836.6999999881,A,f,O,f,275,1,1499.4000000357628,413337.2999999523,7042,WL,B,11.0
3,22.16000008583069,learn,37839.99991416931,Fri Feb 28 2025 13:43:36 GMT-0600 (Central Standard Time),415071.7999999523,A,fi,O,i,223,1,1734.5,413337.2999999523,7042,WL,B,11.0
3,22.276000022888184,learn,37723.99997711182,Fri Feb 28 2025 13:43:36 GMT-0600 (Central Standard Time),415187.6999999881,A,fir,O,r,107,1,1850.4000000357628,413337.2999999523,7042,WL,B,11.0
3,22.375,learn,37625.0,Fri Feb 28 2025 13:43:36 GMT-0600 (Central Standard Time),415286.7999999523,A,fire,O,e,89,1,1949.5,413337.2999999523,7042,WL,B,11.0
3,22.558000087738037,learn,37441.99991226196,Fri Feb 28 2025 13:43:36 GMT-0600 (Central Standard Time),415469.7999999523,A,fireenter,O,enter,173,1,2132.5,413337.2999999523,7042,WL,B,11.0
3,23.01099991798401,learn,36989.00008201599,Fri Feb 28 2025 13:43:36 GMT-0600 (Central Standard Time),415923.09999996424,A,c,O,c,432,1,453.0,415470.09999996424,7042,WL,B,12.0
3,23.191999912261963,learn,36808.00008773804,Fri Feb 28 2025 13:43:36 GMT-0600 (Central Standard Time),416103.39999997616,A,ca,O,a,169,1,633.3000000119209,415470.09999996424,7042,WL,B,12.0
3,23.35800004005432,learn,36641.99995994568,Fri Feb 28 2025 13:43:36 GMT-0600 (Central Standard Time),416269.7999999523,A,cab,O,b,157,1,799.6999999880791,415470.09999996424,7042,WL,B,12.0
3,23.509999990463257,learn,36490.00000953674,Fri Feb 28 2025 13:43:36 GMT-0600 (Central Standard Time),416421.7999999523,A,cabi,O,i,134,1,951.6999999880791,415470.09999996424,7042,WL,B,12.0
3,23.609999895095825,learn,36390.000104904175,Fri Feb 28 2025 13:43:36 GMT-0600 (Central Standard Time),416521.5,A,cabin,O,n,77,1,1051.4000000357628,415470.09999996424,7042,WL,B,12.0
3,23.82699990272522,learn,36173.00009727478,Fri Feb 28 2025 13:43:36 GMT-0600 (Central Standard Time),416739.09999996424,A,cabinenter,O,enter,211,1,1269.0,415470.09999996424,7042,WL,B,12.0
3,25.95799994468689,learn,34042.00005531311,Fri Feb 28 2025 13:43:36 GMT-0600 (Central Standard Time),418869.5,A,l,O,l,2114,1,2130.2000000476837,416739.2999999523,7042,WL,B,13.0
3,26.04200005531311,learn,33957.99994468689,Fri Feb 28 2025 13:43:36 GMT-0600 (Central Standard Time),418953.5,A,la,O,a,78,1,2214.2000000476837,416739.2999999523,7042,WL,B,13.0
3,26.19099998474121,learn,33809.00001525879,Fri Feb 28 2025 13:43:36 GMT-0600 (Central Standard Time),419103.09999996424,A,lak,O,k,139,1,2363.800000011921,416739.2999999523,7042,WL,B,13.0
3,26.27500009536743,learn,33724.99990463257,Fri Feb 28 2025 13:43:36 GMT-0600 (Central Standard Time),419186.59999996424,A,lake,O,e,69,1,2447.300000011921,416739.2999999523,7042,WL,B,13.0
3,26.457000017166138,learn,33542.99998283386,Fri Feb 28 2025 13:43:36 GMT-0600 (Central Standard Time),419369.39999997616,A,lakeenter,O,enter,168,1,2630.100000023842,416739.2999999523,7042,WL,B,13.0
3,28.125,learn,31875.0,Fri Feb 28 2025 13:43:36 GMT-0600 (Central Standard Time),421037.2999999523,A,c,O,c,1662,1,1667.699999988079,419369.59999996424,7042,WL,B,14.0
3,28.240999937057495,learn,31759.000062942505,Fri Feb 28 2025 13:43:36 GMT-0600 (Central Standard Time),421152.6999999881,A,cl,O,l,95,1,1783.1000000238419,419369.59999996424,7042,WL,B,14.0
3,28.424000024795532,learn,31575.999975204468,Fri Feb 28 2025 13:43:36 GMT-0600 (Central Standard Time),421336.0,A,clo,O,o,172,1,1966.4000000357628,419369.59999996424,7042,WL,B,14.0
3,28.539999961853027,learn,31460.000038146973,Fri Feb 28 2025 13:43:36 GMT-0600 (Central Standard Time),421452.09999996424,A,cloc,O,c,101,1,2082.5,419369.59999996424,7042,WL,B,14.0
3,28.67300009727478,learn,31326.99990272522,Fri Feb 28 2025 13:43:36 GMT-0600 (Central Standard Time),421585.2999999523,A,clock,O,k,119,1,2215.699999988079,419369.59999996424,7042,WL,B,14.0
3,28.891000032424927,learn,31108.999967575073,Fri Feb 28 2025 13:43:36 GMT-0600 (Central Standard Time),421803.2999999523,A,clockenter,O,enter,213,1,2433.699999988079,419369.59999996424,7042,WL,B,14.0
3,33.98900008201599,learn,26010.99991798401,Fri Feb 28 2025 13:43:36 GMT-0600 (Central Standard Time),426900.59999996424,A,p,O,p,5081,1,5097.0,421803.59999996424,7042,WL,B,15.0
3,34.15499997138977,learn,25845.00002861023,Fri Feb 28 2025 13:43:36 GMT-0600 (Central Standard Time),427066.6999999881,A,pi,O,i,150,1,5263.100000023842,421803.59999996424,7042,WL,B,15.0
3,34.28800010681152,learn,25711.999893188477,Fri Feb 28 2025 13:43:36 GMT-0600 (Central Standard Time),427199.5,A,pip,O,p,121,1,5395.900000035763,421803.59999996424,7042,WL,B,15.0
3,34.473000049591064,learn,25526.999950408936,Fri Feb 28 2025 13:43:36 GMT-0600 (Central Standard Time),427385.09999996424,A,pipe,O,e,175,1,5581.5,421803.59999996424,7042,WL,B,15.0
3,34.65499997138977,learn,25345.00002861023,Fri Feb 28 2025 13:43:36 GMT-0600 (Central Standard Time),427566.59999996424,A,pipeenter,O,enter,162,1,5763.0,421803.59999996424,7042,WL,B,15.0
4,1.9670000076293945,learn,58032.999992370605,Fri Feb 28 2025 13:43:36 GMT-0600 (Central Standard Time),502393.0,A,c,O,c,1953,1,1966.2000000476837,500426.7999999523,7042,WL,B,1.0
4,2.1500000953674316,learn,57849.99990463257,Fri Feb 28 2025 13:43:36 GMT-0600 (Central Standard Time),502575.89999997616,A,cl,O,l,173,1,2149.100000023842,500426.7999999523,7042,WL,B,1.0
4,2.366000175476074,learn,57633.999824523926,Fri Feb 28 2025 13:43:36 GMT-0600 (Central Standard Time),502792.59999996424,A,clo,O,o,196,1,2365.800000011921,500426.7999999523,7042,WL,B,1.0
4,2.5169999599456787,learn,57483.00004005432,Fri Feb 28 2025 13:43:36 GMT-0600 (Central Standard Time),502943.2999999523,A,cloc,O,c,139,1,2516.5,500426.7999999523,7042,WL,B,1.0
4,2.6500000953674316,learn,57349.99990463257,Fri Feb 28 2025 13:43:36 GMT-0600 (Central Standard Time),503076.6999999881,A,clock,O,k,127,1,2649.900000035763,500426.7999999523,7042,WL,B,1.0
4,3.1019999980926514,learn,56898.00000190735,Fri Feb 28 2025 13:43:36 GMT-0600 (Central Standard Time),503527.89999997616,A,clockenter,O,enter,429,1,3101.100000023842,500426.7999999523,7042,WL,B,1.0
4,3.4660000801086426,learn,56533.99991989136,Fri Feb 28 2025 13:43:36 GMT-0600 (Central Standard Time),503892.6999999881,A,s,O,s,357,1,364.5,503528.1999999881,7042,WL,B,2.0
4,3.6000001430511475,learn,56399.99985694885,Fri Feb 28 2025 13:43:36 GMT-0600 (Central Standard Time),504026.0,A,sk,O,k,118,1,497.80000001192093,503528.1999999881,7042,WL,B,2.0
4,3.799999952316284,learn,56200.000047683716,Fri Feb 28 2025 13:43:36 GMT-0600 (Central Standard Time),504226.2999999523,A,ski,O,i,187,1,698.0999999642372,503528.1999999881,7042,WL,B,2.0
4,3.883000135421753,learn,56116.99986457825,Fri Feb 28 2025 13:43:36 GMT-0600 (Central Standard Time),504309.1999999881,A,skin,O,n,67,1,781.0,503528.1999999881,7042,WL,B,2.0
4,4.200999975204468,learn,55799.00002479553,Fri Feb 28 2025 13:43:36 GMT-0600 (Central Standard Time),504627.59999996424,A,skinenter,O,enter,309,1,1099.3999999761581,503528.1999999881,7042,WL,B,2.0
4,4.5980000495910645,learn,55401.999950408936,Fri Feb 28 2025 13:43:36 GMT-0600 (Central Standard Time),505024.59999996424,A,f,O,f,385,1,396.80000001192093,504627.7999999523,7042,WL,B,3.0
4,4.749000072479248,learn,55250.99992752075,Fri Feb 28 2025 13:43:36 GMT-0600 (Central Standard Time),505175.5,A,fi,O,i,132,1,547.7000000476837,504627.7999999523,7042,WL,B,3.0
4,4.884999990463257,learn,55115.00000953674,Fri Feb 28 2025 13:43:36 GMT-0600 (Central Standard Time),505311.0,A,fir,O,r,129,1,683.2000000476837,504627.7999999523,7042,WL,B,3.0
4,4.947999954223633,learn,55052.00004577637,Fri Feb 28 2025 13:43:36 GMT-0600 (Central Standard Time),505373.7999999523,A,fire,O,e,43,1,746.0,504627.7999999523,7042,WL,B,3.0
4,5.150000095367432,learn,54849.99990463257,Fri Feb 28 2025 13:43:36 GMT-0600 (Central Standard Time),505576.39999997616,A,fireenter,O,enter,190,1,948.6000000238419,504627.7999999523,7042,WL,B,3.0
4,5.765000104904175,learn,54234.999895095825,Fri Feb 28 2025 13:43:36 GMT-0600 (Central Standard Time),506191.6999999881,A,c,O,c,606,1,615.0,505576.6999999881,7042,WL,B,4.0
4,6.0980000495910645,learn,53901.999950408936,Fri Feb 28 2025 13:43:36 GMT-0600 (Central Standard Time),506524.59999996424,A,ca,O,a,317,1,947.8999999761581,505576.6999999881,7042,WL,B,4.0
4,6.249000072479248,learn,53750.99992752075,Fri Feb 28 2025 13:43:36 GMT-0600 (Central Standard Time),506675.59999996424,A,cab,O,b,136,1,1098.8999999761581,505576.6999999881,7042,WL,B,4.0
4,6.433000087738037,learn,53566.99991226196,Fri Feb 28 2025 13:43:36 GMT-0600 (Central Standard Time),506859.2999999523,A,cabi,O,i,178,1,1282.5999999642372,505576.6999999881,7042,WL,B,4.0
4,6.5320000648498535,learn,53467.99993515015,Fri Feb 28 2025 13:43:36 GMT-0600 (Central Standard Time),506958.1999999881,A,cabin,O,n,79,1,1381.5,505576.6999999881,7042,WL,B,4.0
4,6.781000137329102,learn,53218.9998626709,Fri Feb 28 2025 13:43:36 GMT-0600 (Central Standard Time),507207.1999999881,A,cabinenter,O,enter,230,1,1630.5,505576.6999999881,7042,WL,B,4.0
4,7.049000024795532,learn,52950.99997520447,Fri Feb 28 2025 13:43:36 GMT-0600 (Central Standard Time),507474.89999997616,A,l,O,l,262,1,267.39999997615814,507207.5,7042,WL,B,5.0
4,7.2170000076293945,learn,52782.999992370605,Fri Feb 28 2025 13:43:36 GMT-0600 (Central Standard Time),507643.6999999881,A,la,O,a,161,1,436.19999998807907,507207.5,7042,WL,B,5.0
4,7.315999984741211,learn,52684.00001525879,Fri Feb 28 2025 13:43:36 GMT-0600 (Central Standard Time),507741.7999999523,A,lak,O,k,88,1,534.2999999523163,507207.5,7042,WL,B,5.0
4,7.450999975204468,learn,52549.00002479553,Fri Feb 28 2025 13:43:36 GMT-0600 (Central Standard Time),507876.89999997616,A,lake,O,e,128,1,669.3999999761581,507207.5,7042,WL,B,5.0
4,7.664000034332275,learn,52335.999965667725,Fri Feb 28 2025 13:43:36 GMT-0600 (Central Standard Time),508090.6999999881,A,lakeenter,O,enter,197,1,883.1999999880791,507207.5,7042,WL,B,5.0
4,7.982000112533569,learn,52017.99988746643,Fri Feb 28 2025 13:43:36 GMT-0600 (Central Standard Time),508408.6999999881,A,s,O,s,298,1,317.69999998807907,508091.0,7042,WL,B,6.0
4,8.148000001907349,learn,51851.99999809265,Fri Feb 28 2025 13:43:36 GMT-0600 (Central Standard Time),508574.59999996424,A,st,O,t,148,1,483.5999999642372,508091.0,7042,WL,B,6.0
4,8.414999961853027,learn,51585.00003814697,Fri Feb 28 2025 13:43:36 GMT-0600 (Central Standard Time),508841.59999996424,A,str,O,r,245,1,750.5999999642372,508091.0,7042,WL,B,6.0
4,8.480999946594238,learn,51519.00005340576,Fri Feb 28 2025 13:43:36 GMT-0600 (Central Standard Time),508907.7999999523,A,stre,O,e,59,1,816.7999999523163,508091.0,7042,WL,B,6.0
4,8.682000160217285,learn,51317.999839782715,Fri Feb 28 2025 13:43:36 GMT-0600 (Central Standard Time),509108.2999999523,A,stree,O,e,195,1,1017.2999999523163,508091.0,7042,WL,B,6.0
4,8.814000129699707,learn,51185.99987030029,Fri Feb 28 2025 13:43:36 GMT-0600 (Central Standard Time),509240.6999999881,A,street,O,t,120,1,1149.699999988079,508091.0,7042,WL,B,6.0
4,9.049000024795532,learn,50950.99997520447,Fri Feb 28 2025 13:43:36 GMT-0600 (Central Standard Time),509475.0,A,streetenter,O,enter,229,1,1384.0,508091.0,7042,WL,B,6.0
4,9.682000160217285,learn,50317.999839782715,Fri Feb 28 2025 13:43:36 GMT-0600 (Central Standard Time),510107.89999997616,A,g,O,g,618,1,632.6000000238419,509475.2999999523,7042,WL,B,7.0
4,9.932000160217285,learn,50067.999839782715,Fri Feb 28 2025 13:43:36 GMT-0600 (Central Standard Time),510358.0,A,gr,O,r,244,1,882.7000000476837,509475.2999999523,7042,WL,B,7.0
4,10.065000057220459,learn,49934.99994277954,Fri Feb 28 2025 13:43:36 GMT-0600 (Central Standard Time),510491.0,A,gra,O,a,121,1,1015.7000000476837,509475.2999999523,7042,WL,B,7.0
4,10.25,learn,49750.0,Fri Feb 28 2025 13:43:36 GMT-0600 (Central Standard Time),510676.0,A,gras,O,s,178,1,1200.7000000476837,509475.2999999523,7042,WL,B,7.0
4,10.480999946594238,learn,49519.00005340576,Fri Feb 28 2025 13:43:36 GMT-0600 (Central Standard Time),510907.2999999523,A,grass,O,s,215,1,1432.0,509475.2999999523,7042,WL,B,7.0
4,10.946000099182129,learn,49053.99990081787,Fri Feb 28 2025 13:43:36 GMT-0600 (Central Standard Time),511372.5,A,grassenter,O,enter,459,1,1897.2000000476837,509475.2999999523,7042,WL,B,7.0
4,11.29800009727478,learn,48701.99990272522,Fri Feb 28 2025 13:43:36 GMT-0600 (Central Standard Time),511724.2999999523,A,d,O,d,336,1,351.5,511372.7999999523,7042,WL,B,8.0
4,11.432000160217285,learn,48567.999839782715,Fri Feb 28 2025 13:43:36 GMT-0600 (Central Standard Time),511857.7999999523,A,do,O,o,120,1,485.0,511372.7999999523,7042,WL,B,8.0
4,11.614000082015991,learn,48385.99991798401,Fri Feb 28 2025 13:43:36 GMT-0600 (Central Standard Time),512040.59999996424,A,doo,O,o,162,1,667.8000000119209,511372.7999999523,7042,WL,B,8.0
4,11.730000019073486,learn,48269.999980926514,Fri Feb 28 2025 13:43:36 GMT-0600 (Central Standard Time),512156.09999996424,A,door,O,r,108,1,783.3000000119209,511372.7999999523,7042,WL,B,8.0
4,12.114000082015991,learn,47885.99991798401,Fri Feb 28 2025 13:43:36 GMT-0600 (Central Standard Time),512540.39999997616,A,doorenter,O,enter,368,1,1167.6000000238419,511372.7999999523,7042,WL,B,8.0
4,12.430999994277954,learn,47569.000005722046,Fri Feb 28 2025 13:43:36 GMT-0600 (Central Standard Time),512857.1999999881,A,a,O,a,296,1,316.4000000357628,512540.7999999523,7042,WL,B,9.0
4,12.513000011444092,learn,47486.99998855591,Fri Feb 28 2025 13:43:36 GMT-0600 (Central Standard Time),512938.7999999523,A,ar,O,r,67,1,398.0,512540.7999999523,7042,WL,B,9.0
4,12.680999994277954,learn,47319.000005722046,Fri Feb 28 2025 13:43:36 GMT-0600 (Central Standard Time),513107.0,A,arm,O,m,160,1,566.2000000476837,512540.7999999523,7042,WL,B,9.0
4,13.896000146865845,learn,46103.999853134155,Fri Feb 28 2025 13:43:36 GMT-0600 (Central Standard Time),514322.2999999523,A,armenter,O,enter,1202,1,1781.5,512540.7999999523,7042,WL,B,9.0
4,14.446000099182129,learn,45553.99990081787,Fri Feb 28 2025 13:43:36 GMT-0600 (Central Standard Time),514872.6999999881,A,w,O,w,539,1,550.1000000238419,514322.59999996424,7042,WL,B,10.0
4,14.546000003814697,learn,45453.9999961853,Fri Feb 28 2025 13:43:36 GMT-0600 (Central Standard Time),514972.6999999881,A,wi,O,i,84,1,650.1000000238419,514322.59999996424,7042,WL,B,10.0
4,14.647000074386597,learn,45352.9999256134,Fri Feb 28 2025 13:43:36 GMT-0600 (Central Standard Time),515073.5,A,win,O,n,79,1,750.9000000357628,514322.59999996424,7042,WL,B,10.0
4,14.796000003814697,learn,45203.9999961853,Fri Feb 28 2025 13:43:36 GMT-0600 (Central Standard Time),515222.2999999523,A,wind,O,d,131,1,899.6999999880791,514322.59999996424,7042,WL,B,10.0
4,14.897000074386597,learn,45102.9999256134,Fri Feb 28 2025 13:43:36 GMT-0600 (Central Standard Time),515323.39999997616,A,windo,O,o,76,1,1000.8000000119209,514322.59999996424,7042,WL,B,10.0
4,15.062000036239624,learn,44937.999963760376,Fri Feb 28 2025 13:43:36 GMT-0600 (Central Standard Time),515488.6999999881,A,window,O,w,149,1,1166.1000000238419,514322.59999996424,7042,WL,B,10.0
4,15.513000011444092,learn,44486.99998855591,Fri Feb 28 2025 13:43:36 GMT-0600 (Central Standard Time),515938.89999997616,A,windowenter,O,enter,428,1,1616.300000011921,514322.59999996424,7042,WL,B,10.0
4,17.246000051498413,learn,42753.99994850159,Fri Feb 28 2025 13:43:36 GMT-0600 (Central Standard Time),517672.5,A,s,O,s,1723,1,1733.4000000357628,515939.09999996424,7042,WL,B,11.0
4,17.39300012588501,learn,42606.99987411499,Fri Feb 28 2025 13:43:36 GMT-0600 (Central Standard Time),517819.39999997616,A,st,O,t,141,1,1880.300000011921,515939.09999996424,7042,WL,B,11.0
4,17.54800009727478,learn,42451.99990272522,Fri Feb 28 2025 13:43:36 GMT-0600 (Central Standard Time),517974.2999999523,A,sta,O,a,149,1,2035.199999988079,515939.09999996424,7042,WL,B,11.0
4,17.67900013923645,learn,42320.99986076355,Fri Feb 28 2025 13:43:36 GMT-0600 (Central Standard Time),518104.89999997616,A,star,O,r,118,1,2165.800000011921,515939.09999996424,7042,WL,B,11.0
4,18.111999988555908,learn,41888.00001144409,Fri Feb 28 2025 13:43:36 GMT-0600 (Central Standard Time),518538.39999997616,A,starenter,O,enter,412,1,2599.300000011921,515939.09999996424,7042,WL,B,11.0
4,18.496999979019165,learn,41503.000020980835,Fri Feb 28 2025 13:43:36 GMT-0600 (Central Standard Time),518923.2999999523,A,w,O,w,380,1,384.5999999642372,518538.6999999881,7042,WL,B,12.0
4,18.644999980926514,learn,41355.000019073486,Fri Feb 28 2025 13:43:36 GMT-0600 (Central Standard Time),519070.7999999523,A,wi,O,i,130,1,532.0999999642372,518538.6999999881,7042,WL,B,12.0
4,18.76200008392334,learn,41237.99991607666,Fri Feb 28 2025 13:43:36 GMT-0600 (Central Standard Time),519188.6999999881,A,wif,O,f,112,1,650.0,518538.6999999881,7042,WL,B,12.0
4,18.861999988555908,learn,41138.00001144409,Fri Feb 28 2025 13:43:36 GMT-0600 (Central Standard Time),519288.09999996424,A,wife,O,e,85,1,749.3999999761581,518538.6999999881,7042,WL,B,12.0
4,19.09500002861023,learn,40904.99997138977,Fri Feb 28 2025 13:43:36 GMT-0600 (Central Standard Time),519521.39999997616,A,wifeenter,O,enter,220,1,982.6999999880791,518538.6999999881,7042,WL,B,12.0
4,19.794000148773193,learn,40205.99985122681,Fri Feb 28 2025 13:43:36 GMT-0600 (Central Standard Time),520220.59999996424,A,p,O,p,694,1,698.8999999761581,519521.6999999881,7042,WL,B,13.0
4,19.97699999809265,learn,40023.00000190735,Fri Feb 28 2025 13:43:36 GMT-0600 (Central Standard Time),520403.7999999523,A,pi,O,i,170,1,882.0999999642372,519521.6999999881,7042,WL,B,13.0
4,20.111000061035156,learn,39888.999938964844,Fri Feb 28 2025 13:43:36 GMT-0600 (Central Standard Time),520537.0,A,pip,O,p,113,1,1015.3000000119209,519521.6999999881,7042,WL,B,13.0
4,20.243000030517578,learn,39756.99996948242,Fri Feb 28 2025 13:43:36 GMT-0600 (Central Standard Time),520669.6999999881,A,pipe,O,e,113,1,1148.0,519521.6999999881,7042,WL,B,13.0
4,20.49399995803833,learn,39506.00004196167,Fri Feb 28 2025 13:43:36 GMT-0600 (Central Standard Time),520919.89999997616,A,pipeenter,O,enter,236,1,1398.199999988079,519521.6999999881,7042,WL,B,13.0
4,24.843000173568726,learn,35156.999826431274,Fri Feb 28 2025 13:43:36 GMT-0600 (Central Standard Time),525269.5999999642,A,p,O,p,4333,1,4349.399999976158,520920.1999999881,7042,WL,B,14.0
4,24.960999965667725,learn,35039.000034332275,Fri Feb 28 2025 13:43:36 GMT-0600 (Central Standard Time),525387.1999999881,A,pu,O,u,112,1,4467.0,520920.1999999881,7042,WL,B,14.0
4,25.110000133514404,learn,34889.999866485596,Fri Feb 28 2025 13:43:36 GMT-0600 (Central Standard Time),525536.5999999642,A,pup,O,p,128,1,4616.399999976158,520920.1999999881,7042,WL,B,14.0
4,25.292999982833862,learn,34707.00001716614,Fri Feb 28 2025 13:43:36 GMT-0600 (Central Standard Time),525719.5,A,pupi,O,i,164,1,4799.300000011921,520920.1999999881,7042,WL,B,14.0
4,25.442000150680542,learn,34557.99984931946,Fri Feb 28 2025 13:43:36 GMT-0600 (Central Standard Time),525868.5999999642,A,pupil,O,l,132,1,4948.399999976158,520920.1999999881,7042,WL,B,14.0
4,25.743000030517578,learn,34256.99996948242,Fri Feb 28 2025 13:43:36 GMT-0600 (Central Standard Time),526169.0999999642,A,pupilenter,O,enter,286,1,5248.899999976158,520920.1999999881,7042,WL,B,14.0
4,33.29100012779236,learn,26708.99987220764,Fri Feb 28 2025 13:43:36 GMT-0600 (Central Standard Time),533716.8999999762,A,s,O,s,7532,1,7547.5,526169.3999999762,7042,WL,B,15.0
4,33.44099998474121,learn,26559.00001525879,Fri Feb 28 2025 13:43:36 GMT-0600 (Central Standard Time),533867.3999999762,A,st,O,t,142,1,7698.0,526169.3999999762,7042,WL,B,15.0
4,33.60800004005432,learn,26391.99995994568,Fri Feb 28 2025 13:43:36 GMT-0600 (Central Standard Time),534034.0,A,sta,O,a,144,1,7864.600000023842,526169.3999999762,7042,WL,B,15.0
4,33.723000049591064,learn,26276.999950408936,Fri Feb 28 2025 13:43:36 GMT-0600 (Central Standard Time),534149.2999999523,A,star,O,r,95,1,7979.899999976158,526169.3999999762,7042,WL,B,15.0
4,34.00500011444092,learn,25994.999885559082,Fri Feb 28 2025 13:43:36 GMT-0600 (Central Standard Time),534431.6999999881,A,starenter,O,enter,271,1,8262.300000011921,526169.3999999762,7042,WL,B,15.0
5,0.44899988174438477,learn,60000.0,Fri Feb 28 2025 13:43:36 GMT-0600 (Central Standard Time),601445.5999999642,A,c,O,c,425,1,448.69999998807907,600996.8999999762,7042,WL,B,1.0
5,0.5479998588562012,learn,60000.0,Fri Feb 28 2025 13:43:36 GMT-0600 (Central Standard Time),601544.5999999642,A,ci,O,i,86,1,547.6999999880791,600996.8999999762,7042,WL,B,1.0
5,0.7159998416900635,learn,60000.0,Fri Feb 28 2025 13:43:36 GMT-0600 (Central Standard Time),601712.6999999881,A,cit,O,t,155,1,715.8000000119209,600996.8999999762,7042,WL,B,1.0
5,0.8649997711181641,learn,60000.0,Fri Feb 28 2025 13:43:36 GMT-0600 (Central Standard Time),601861.5,A,city,O,y,138,1,864.6000000238419,600996.8999999762,7042,WL,B,1.0
5,1.2979998588562012,learn,60000.0,Fri Feb 28 2025 13:43:36 GMT-0600 (Central Standard Time),602295.5,A,cityp,O,p,413,1,1298.6000000238419,600996.8999999762,7042,WL,B,1.0
5,1.4469997882843018,learn,60000.0,Fri Feb 28 2025 13:43:36 GMT-0600 (Central Standard Time),602444.0,A,citypu,O,u,133,1,1447.1000000238419,600996.8999999762,7042,WL,B,1.0
5,1.5819997787475586,learn,60000.0,Fri Feb 28 2025 13:43:36 GMT-0600 (Central Standard Time),602579.1999999881,A,citypup,O,p,113,1,1582.300000011921,600996.8999999762,7042,WL,B,1.0
5,2.130999803543091,learn,60000.0,Fri Feb 28 2025 13:43:36 GMT-0600 (Central Standard Time),603128.5,A,citypu,O,backspace,529,1,2131.600000023842,600996.8999999762,7042,WL,B,1.0
5,2.4149999618530273,learn,60000.0,Fri Feb 28 2025 13:43:36 GMT-0600 (Central Standard Time),603411.5999999642,A,cityp,O,backspace,266,1,2414.699999988079,600996.8999999762,7042,WL,B,1.0
5,2.6480000019073486,learn,60000.0,Fri Feb 28 2025 13:43:36 GMT-0600 (Central Standard Time),603644.8999999762,A,city,O,backspace,218,1,2648.0,600996.8999999762,7042,WL,B,1.0
5,3.630999803543091,learn,60000.0,Fri Feb 28 2025 13:43:36 GMT-0600 (Central Standard Time),604627.8999999762,A,cityenter,O,enter,968,1,3631.0,600996.8999999762,7042,WL,B,1.0
5,4.148999929428101,learn,60000.0,Fri Feb 28 2025 13:43:36 GMT-0600 (Central Standard Time),605145.8999999762,A,p,O,p,513,1,517.6999999880791,604628.1999999881,7042,WL,B,2.0
5,4.363999843597412,learn,60000.0,Fri Feb 28 2025 13:43:36 GMT-0600 (Central Standard Time),605360.6999999881,A,pu,O,u,202,1,732.5,604628.1999999881,7042,WL,B,2.0
5,4.512999773025513,learn,60000.0,Fri Feb 28 2025 13:43:36 GMT-0600 (Central Standard Time),605509.8999999762,A,pup,O,p,141,1,881.6999999880791,604628.1999999881,7042,WL,B,2.0
5,4.729999780654907,learn,60000.0,Fri Feb 28 2025 13:43:36 GMT-0600 (Central Standard Time),605727.0,A,pupi,O,i,206,1,1098.800000011921,604628.1999999881,7042,WL,B,2.0
5,4.979999780654907,learn,60000.0,Fri Feb 28 2025 13:43:36 GMT-0600 (Central Standard Time),605977.3999999762,A,pupil,O,l,237,1,1349.199999988079,604628.1999999881,7042,WL,B,2.0
5,6.979999780654907,learn,60000.0,Fri Feb 28 2025 13:43:36 GMT-0600 (Central Standard Time),607976.7999999523,A,pupi,O,backspace,1978,1,3348.599999964237,604628.1999999881,7042,WL,B,2.0
5,8.363999843597412,learn,60000.0,Fri Feb 28 2025 13:43:36 GMT-0600 (Central Standard Time),609360.5,A,pupil,O,l,1363,1,4732.300000011921,604628.1999999881,7042,WL,B,2.0
5,8.810999870300293,learn,60000.0,Fri Feb 28 2025 13:43:36 GMT-0600 (Central Standard Time),609808.3999999762,A,pupilenter,O,enter,427,1,5180.199999988079,604628.1999999881,7042,WL,B,2.0
5,10.960999965667725,learn,60000.0,Fri Feb 28 2025 13:43:36 GMT-0600 (Central Standard Time),611958.3999999762,A,c,O,c,2133,1,2149.699999988079,609808.6999999881,7042,WL,B,3.0
5,11.627999782562256,learn,60000.0,Fri Feb 28 2025 13:43:36 GMT-0600 (Central Standard Time),612625.5,A,,O,backspace,654,1,2816.800000011921,609808.6999999881,7042,WL,B,3.0
5,13.877999782562256,learn,60000.0,Fri Feb 28 2025 13:43:36 GMT-0600 (Central Standard Time),614875.0,A,s,O,s,2235,1,5066.300000011921,609808.6999999881,7042,WL,B,3.0
5,14.111999988555908,learn,60000.0,Fri Feb 28 2025 13:43:36 GMT-0600 (Central Standard Time),615108.7999999523,A,st,O,t,226,1,5300.099999964237,609808.6999999881,7042,WL,B,3.0
5,14.361999988555908,learn,60000.0,Fri Feb 28 2025 13:43:36 GMT-0600 (Central Standard Time),615358.7999999523,A,str,O,r,240,1,5550.099999964237,609808.6999999881,7042,WL,B,3.0
5,14.458999872207642,learn,60000.0,Fri Feb 28 2025 13:43:36 GMT-0600 (Central Standard Time),615456.6999999881,A,stre,O,e,80,1,5648.0,609808.6999999881,7042,WL,B,3.0
5,14.67799997329712,learn,60000.0,Fri Feb 28 2025 13:43:36 GMT-0600 (Central Standard Time),615675.1999999881,A,stree,O,e,193,1,5866.5,609808.6999999881,7042,WL,B,3.0
5,14.894999980926514,learn,60000.0,Fri Feb 28 2025 13:43:36 GMT-0600 (Central Standard Time),615891.5,A,street,O,t,208,1,6082.800000011921,609808.6999999881,7042,WL,B,3.0
5,15.40999984741211,learn,60000.0,Fri Feb 28 2025 13:43:36 GMT-0600 (Central Standard Time),616406.7999999523,A,streetenter,O,enter,505,1,6598.099999964237,609808.6999999881,7042,WL,B,3.0
5,16.008999824523926,learn,60000.0,Fri Feb 28 2025 13:43:36 GMT-0600 (Central Standard Time),617006.5,A,g,O,g,591,1,599.4000000357628,616407.0999999642,7042,WL,B,4.0
5,16.259999990463257,learn,60000.0,Fri Feb 28 2025 13:43:36 GMT-0600 (Central Standard Time),617256.3999999762,A,gr,O,r,228,1,849.3000000119209,616407.0999999642,7042,WL,B,4.0
5,16.358999967575073,learn,60000.0,Fri Feb 28 2025 13:43:36 GMT-0600 (Central Standard Time),617355.7999999523,A,gra,O,a,96,1,948.6999999880791,616407.0999999642,7042,WL,B,4.0
5,16.524999856948853,learn,60000.0,Fri Feb 28 2025 13:43:36 GMT-0600 (Central Standard Time),617521.5,A,gras,O,s,161,1,1114.4000000357628,616407.0999999642,7042,WL,B,4.0
5,16.79199981689453,learn,60000.0,Fri Feb 28 2025 13:43:36 GMT-0600 (Central Standard Time),617789.1999999881,A,grass,O,s,264,1,1382.1000000238419,616407.0999999642,7042,WL,B,4.0
5,17.22599983215332,learn,60000.0,Fri Feb 28 2025 13:43:36 GMT-0600 (Central Standard Time),618222.5,A,grassenter,O,enter,415,1,1815.4000000357628,616407.0999999642,7042,WL,B,4.0
5,17.65999984741211,learn,60000.0,Fri Feb 28 2025 13:43:36 GMT-0600 (Central Standard Time),618657.0,A,d,O,d,415,1,434.2000000476837,618222.7999999523,7042,WL,B,5.0
5,17.80899977684021,learn,60000.0,Fri Feb 28 2025 13:43:36 GMT-0600 (Central Standard Time),618806.1999999881,A,do,O,o,141,1,583.4000000357628,618222.7999999523,7042,WL,B,5.0
5,17.944000005722046,learn,60000.0,Fri Feb 28 2025 13:43:36 GMT-0600 (Central Standard Time),618941.0,A,doo,O,o,129,1,718.2000000476837,618222.7999999523,7042,WL,B,5.0
5,18.075999975204468,learn,60000.0,Fri Feb 28 2025 13:43:36 GMT-0600 (Central Standard Time),619073.2999999523,A,door,O,r,109,1,850.5,618222.7999999523,7042,WL,B,5.0
5,18.39199995994568,learn,60000.0,Fri Feb 28 2025 13:43:36 GMT-0600 (Central Standard Time),619389.0,A,doorenter,O,enter,294,1,1166.2000000476837,618222.7999999523,7042,WL,B,5.0
5,18.658999919891357,learn,60000.0,Fri Feb 28 2025 13:43:36 GMT-0600 (Central Standard Time),619655.5999999642,A,w,O,w,249,1,266.5,619389.0999999642,7042,WL,B,6.0
5,18.774999856948853,learn,60000.0,Fri Feb 28 2025 13:43:36 GMT-0600 (Central Standard Time),619772.0999999642,A,wi,O,i,102,1,383.0,619389.0999999642,7042,WL,B,6.0
5,18.875,learn,60000.0,Fri Feb 28 2025 13:43:36 GMT-0600 (Central Standard Time),619871.8999999762,A,win,O,n,79,1,482.80000001192093,619389.0999999642,7042,WL,B,6.0
5,18.991999864578247,learn,60000.0,Fri Feb 28 2025 13:43:36 GMT-0600 (Central Standard Time),619989.0999999642,A,wind,O,d,109,1,600.0,619389.0999999642,7042,WL,B,6.0
5,19.108999967575073,learn,60000.0,Fri Feb 28 2025 13:43:36 GMT-0600 (Central Standard Time),620106.3999999762,A,windo,O,o,103,1,717.3000000119209,619389.0999999642,7042,WL,B,6.0
5,19.241999864578247,learn,60000.0,Fri Feb 28 2025 13:43:36 GMT-0600 (Central Standard Time),620238.6999999881,A,window,O,w,115,1,849.6000000238419,619389.0999999642,7042,WL,B,6.0
5,19.525999784469604,learn,60000.0,Fri Feb 28 2025 13:43:36 GMT-0600 (Central Standard Time),620522.8999999762,A,windowenter,O,enter,280,1,1133.800000011921,619389.0999999642,7042,WL,B,6.0
5,20.691999912261963,learn,60000.0,Fri Feb 28 2025 13:43:36 GMT-0600 (Central Standard Time),621688.7999999523,A,w,O,w,1155,1,1165.5999999642372,620523.1999999881,7042,WL,B,7.0
5,20.79199981689453,learn,60000.0,Fri Feb 28 2025 13:43:36 GMT-0600 (Central Standard Time),621788.5999999642,A,wi,O,i,95,1,1265.3999999761581,620523.1999999881,7042,WL,B,7.0
5,20.924999952316284,learn,60000.0,Fri Feb 28 2025 13:43:36 GMT-0600 (Central Standard Time),621922.2999999523,A,wif,O,f,120,1,1399.0999999642372,620523.1999999881,7042,WL,B,7.0
5,21.026999950408936,learn,60000.0,Fri Feb 28 2025 13:43:36 GMT-0600 (Central Standard Time),622023.5999999642,A,wife,O,e,82,1,1500.3999999761581,620523.1999999881,7042,WL,B,7.0
5,21.19099998474121,learn,60000.0,Fri Feb 28 2025 13:43:36 GMT-0600 (Central Standard Time),622188.1999999881,A,wifeenter,O,enter,147,1,1665.0,620523.1999999881,7042,WL,B,7.0
5,21.406999826431274,learn,60000.0,Fri Feb 28 2025 13:43:36 GMT-0600 (Central Standard Time),622404.3999999762,A,s,O,s,201,1,216.0,622188.3999999762,7042,WL,B,8.0
5,21.507999897003174,learn,60000.0,Fri Feb 28 2025 13:43:36 GMT-0600 (Central Standard Time),622505.0,A,st,O,t,81,1,316.60000002384186,622188.3999999762,7042,WL,B,8.0
5,21.675999879837036,learn,60000.0,Fri Feb 28 2025 13:43:36 GMT-0600 (Central Standard Time),622673.0999999642,A,sta,O,a,146,1,484.69999998807907,622188.3999999762,7042,WL,B,8.0
5,21.807999849319458,learn,60000.0,Fri Feb 28 2025 13:43:36 GMT-0600 (Central Standard Time),622805.3999999762,A,star,O,r,126,1,617.0,622188.3999999762,7042,WL,B,8.0
5,22.107999801635742,learn,60000.0,Fri Feb 28 2025 13:43:36 GMT-0600 (Central Standard Time),623105.0999999642,A,starenter,O,enter,279,1,916.6999999880791,622188.3999999762,7042,WL,B,8.0
5,23.591999769210815,learn,60000.0,Fri Feb 28 2025 13:43:36 GMT-0600 (Central Standard Time),624588.5,A,p,O,p,1478,1,1483.2000000476837,623105.2999999523,7042,WL,B,9.0
5,23.722999811172485,learn,60000.0,Fri Feb 28 2025 13:43:36 GMT-0600 (Central Standard Time),624720.0999999642,A,pi,O,i,119,1,1614.800000011921,623105.2999999523,7042,WL,B,9.0
5,23.83999991416931,learn,60000.0,Fri Feb 28 2025 13:43:36 GMT-0600 (Central Standard Time),624837.2999999523,A,pip,O,p,109,1,1732.0,623105.2999999523,7042,WL,B,9.0
5,23.972999811172485,learn,60000.0,Fri Feb 28 2025 13:43:36 GMT-0600 (Central Standard Time),624970.5,A,pipe,O,e,121,1,1865.2000000476837,623105.2999999523,7042,WL,B,9.0
5,24.239999771118164,learn,60000.0,Fri Feb 28 2025 13:43:36 GMT-0600 (Central Standard Time),625237.1999999881,A,pipeenter,O,enter,249,1,2131.900000035763,623105.2999999523,7042,WL,B,9.0
5,26.806999921798706,learn,60000.0,Fri Feb 28 2025 13:43:36 GMT-0600 (Central Standard Time),627804.2999999523,A,f,O,f,2562,1,2566.7999999523163,625237.5,7042,WL,B,10.0
5,27.006999969482422,learn,60000.0,Fri Feb 28 2025 13:43:36 GMT-0600 (Central Standard Time),628004.2999999523,A,fi,O,i,195,1,2766.7999999523163,625237.5,7042,WL,B,10.0
5,27.122999906539917,learn,60000.0,Fri Feb 28 2025 13:43:36 GMT-0600 (Central Standard Time),628119.8999999762,A,fir,O,r,94,1,2882.399999976158,625237.5,7042,WL,B,10.0
5,27.221999883651733,learn,60000.0,Fri Feb 28 2025 13:43:36 GMT-0600 (Central Standard Time),628218.7999999523,A,fire,O,e,83,1,2981.2999999523163,625237.5,7042,WL,B,10.0
5,27.454999923706055,learn,60000.0,Fri Feb 28 2025 13:43:36 GMT-0600 (Central Standard Time),628452.2999999523,A,fireenter,O,enter,218,1,3214.7999999523163,625237.5,7042,WL,B,10.0
5,28.02300000190735,learn,60000.0,Fri Feb 28 2025 13:43:36 GMT-0600 (Central Standard Time),629019.7999999523,A,l,O,l,562,1,567.2999999523163,628452.5,7042,WL,B,11.0
5,28.15499997138977,learn,60000.0,Fri Feb 28 2025 13:43:36 GMT-0600 (Central Standard Time),629152.1999999881,A,la,O,a,113,1,699.6999999880791,628452.5,7042,WL,B,11.0
5,28.23799991607666,learn,60000.0,Fri Feb 28 2025 13:43:36 GMT-0600 (Central Standard Time),629235.2999999523,A,lak,O,k,75,1,782.7999999523163,628452.5,7042,WL,B,11.0
5,28.371999979019165,learn,60000.0,Fri Feb 28 2025 13:43:36 GMT-0600 (Central Standard Time),629369.2999999523,A,lake,O,e,121,1,916.7999999523163,628452.5,7042,WL,B,11.0
5,28.521999835968018,learn,60000.0,Fri Feb 28 2025 13:43:36 GMT-0600 (Central Standard Time),629519.2999999523,A,lakeenter,O,enter,140,1,1066.7999999523163,628452.5,7042,WL,B,11.0
5,28.83999991416931,learn,60000.0,Fri Feb 28 2025 13:43:36 GMT-0600 (Central Standard Time),629836.6999999881,A,c,O,c,302,1,317.19999998807907,629519.5,7042,WL,B,12.0
5,29.00499987602234,learn,60000.0,Fri Feb 28 2025 13:43:36 GMT-0600 (Central Standard Time),630002.1999999881,A,ca,O,a,144,1,482.69999998807907,629519.5,7042,WL,B,12.0
5,29.138999938964844,learn,60000.0,Fri Feb 28 2025 13:43:36 GMT-0600 (Central Standard Time),630135.8999999762,A,cab,O,b,113,1,616.3999999761581,629519.5,7042,WL,B,12.0
5,29.256999969482422,learn,60000.0,Fri Feb 28 2025 13:43:36 GMT-0600 (Central Standard Time),630253.5,A,cabi,O,i,97,1,734.0,629519.5,7042,WL,B,12.0
5,29.3219997882843,learn,60000.0,Fri Feb 28 2025 13:43:36 GMT-0600 (Central Standard Time),630319.1999999881,A,cabin,O,n,47,1,799.6999999880791,629519.5,7042,WL,B,12.0
5,29.5719997882843,learn,60000.0,Fri Feb 28 2025 13:43:36 GMT-0600 (Central Standard Time),630569.0,A,cabinenter,O,enter,237,1,1049.5,629519.5,7042,WL,B,12.0
5,34.4210000038147,learn,60000.0,Fri Feb 28 2025 13:43:36 GMT-0600 (Central Standard Time),635418.2999999523,A,c,O,c,4828,1,4848.899999976158,630569.3999999762,7042,WL,B,13.0
5,34.55399990081787,learn,60000.0,Fri Feb 28 2025 13:43:36 GMT-0600 (Central Standard Time),635550.6999999881,A,cl,O,l,115,1,4981.300000011921,630569.3999999762,7042,WL,B,13.0
5,34.72099995613098,learn,60000.0,Fri Feb 28 2025 13:43:36 GMT-0600 (Central Standard Time),635718.5,A,clo,O,o,146,1,5149.100000023842,630569.3999999762,7042,WL,B,13.0
5,34.8199999332428,learn,60000.0,Fri Feb 28 2025 13:43:36 GMT-0600 (Central Standard Time),635816.7999999523,A,cloc,O,c,79,1,5247.399999976158,630569.3999999762,7042,WL,B,13.0
5,34.936999797821045,learn,60000.0,Fri Feb 28 2025 13:43:36 GMT-0600 (Central Standard Time),635933.6999999881,A,clock,O,k,105,1,5364.300000011921,630569.3999999762,7042,WL,B,13.0
5,35.13799977302551,learn,60000.0,Fri Feb 28 2025 13:43:36 GMT-0600 (Central Standard Time),636134.3999999762,A,clockenter,O,enter,183,1,5565.0,630569.3999999762,7042,WL,B,13.0
5,53.014999866485596,learn,60000.0,Fri Feb 28 2025 13:43:36 GMT-0600 (Central Standard Time),654012.0,A,s,O,s,17863,1,17877.200000047684,636134.7999999523,7042,WL,B,14.0
5,53.16499996185303,learn,60000.0,Fri Feb 28 2025 13:43:36 GMT-0600 (Central Standard Time),654162.2999999523,A,st,O,t,129,1,18027.5,636134.7999999523,7042,WL,B,14.0
5,53.41499996185303,learn,60000.0,Fri Feb 28 2025 13:43:36 GMT-0600 (Central Standard Time),654411.7999999523,A,sta,O,a,233,1,18277.0,636134.7999999523,7042,WL,B,14.0
5,53.58099985122681,learn,60000.0,Fri Feb 28 2025 13:43:36 GMT-0600 (Central Standard Time),654577.8999999762,A,star,O,r,145,1,18443.100000023842,636134.7999999523,7042,WL,B,14.0
5,53.86299991607666,learn,60000.0,Fri Feb 28 2025 13:43:36 GMT-0600 (Central Standard Time),654860.1999999881,A,starenter,O,enter,262,1,18725.400000035763,636134.7999999523,7042,WL,B,14.0
5,83.65499997138977,learn,60000.0,Fri Feb 28 2025 13:43:36 GMT-0600 (Central Standard Time),684652.0,A,f,O,f,29786,1,29791.600000023842,654860.3999999762,7042,WL,B,15.0
6,0.995999813079834,distr,59004.000186920166,Fri Feb 28 2025 13:43:36 GMT-0600 (Central Standard Time),764342.2999999523,B,b,O,b,985,1,995.8999999761581,763346.3999999762,7042,WL,B,1.0
6,1.1629998683929443,distr,58837.000131607056,Fri Feb 28 2025 13:43:36 GMT-0600 (Central Standard Time),764510.0999999642,B,ba,O,a,158,1,1163.699999988079,763346.3999999762,7042,WL,B,1.0
6,1.2630000114440918,distr,58736.99998855591,Fri Feb 28 2025 13:43:36 GMT-0600 (Central Standard Time),764609.5999999642,B,bab,O,b,78,1,1263.199999988079,763346.3999999762,7042,WL,B,1.0
6,1.4639999866485596,distr,58536.00001335144,Fri Feb 28 2025 13:43:36 GMT-0600 (Central Standard Time),764810.5,B,baby,O,y,185,1,1464.1000000238419,763346.3999999762,7042,WL,B,1.0
6,1.7609999179840088,distr,58239.00008201599,Fri Feb 28 2025 13:43:36 GMT-0600 (Central Standard Time),765107.5999999642,B,babyenter,O,enter,278,1,1761.199999988079,763346.3999999762,7042,WL,B,1.0
6,2.562999963760376,distr,57437.000036239624,Fri Feb 28 2025 13:43:36 GMT-0600 (Central Standard Time),765910.0999999642,B,s,O,s,793,1,802.0999999642372,765108.0,7042,WL,B,2.0
6,2.746999979019165,distr,57253.000020980835,Fri Feb 28 2025 13:43:36 GMT-0600 (Central Standard Time),766093.1999999881,B,st,O,t,177,1,985.1999999880791,765108.0,7042,WL,B,2.0
6,3.013000011444092,distr,56986.99998855591,Fri Feb 28 2025 13:43:36 GMT-0600 (Central Standard Time),766359.6999999881,B,str,O,r,245,1,1251.699999988079,765108.0,7042,WL,B,2.0
6,3.0950000286102295,distr,56904.99997138977,Fri Feb 28 2025 13:43:36 GMT-0600 (Central Standard Time),766442.1999999881,B,stre,O,e,70,1,1334.199999988079,765108.0,7042,WL,B,2.0
6,3.19599986076355,distr,56804.00013923645,Fri Feb 28 2025 13:43:36 GMT-0600 (Central Standard Time),766542.1999999881,B,strea,O,a,80,1,1434.199999988079,765108.0,7042,WL,B,2.0
6,3.378999948501587,distr,56621.00005149841,Fri Feb 28 2025 13:43:36 GMT-0600 (Central Standard Time),766725.2999999523,B,stream,O,m,167,1,1617.2999999523163,765108.0,7042,WL,B,2.0
6,3.6449999809265137,distr,56355.000019073486,Fri Feb 28 2025 13:43:36 GMT-0600 (Central Standard Time),766991.6999999881,B,streamenter,O,enter,246,1,1883.699999988079,765108.0,7042,WL,B,2.0
6,4.7789998054504395,distr,55221.00019454956,Fri Feb 28 2025 13:43:36 GMT-0600 (Central Standard Time),768125.5999999642,B,c,O,c,1116,1,1133.699999988079,766991.8999999762,7042,WL,B,3.0
6,4.896999835968018,distr,55103.00016403198,Fri Feb 28 2025 13:43:36 GMT-0600 (Central Standard Time),768243.2999999523,B,co,O,o,113,1,1251.3999999761581,766991.8999999762,7042,WL,B,3.0
6,4.976999998092651,distr,55023.00000190735,Fri Feb 28 2025 13:43:36 GMT-0600 (Central Standard Time),768323.7999999523,B,coi,O,i,64,1,1331.8999999761581,766991.8999999762,7042,WL,B,3.0
6,5.043999910354614,distr,54956.000089645386,Fri Feb 28 2025 13:43:36 GMT-0600 (Central Standard Time),768391.2999999523,B,coin,O,n,56,1,1399.3999999761581,766991.8999999762,7042,WL,B,3.0
6,5.296999931335449,distr,54703.00006866455,Fri Feb 28 2025 13:43:36 GMT-0600 (Central Standard Time),768643.3999999762,B,coinenter,O,enter,246,1,1651.5,766991.8999999762,7042,WL,B,3.0
6,15.441999912261963,distr,44558.00008773804,Fri Feb 28 2025 13:43:36 GMT-0600 (Central Standard Time),778788.7999999523,B,b,O,b,10140,1,10145.099999964237,768643.6999999881,7042,WL,B,4.0
6,15.756999969482422,distr,44243.00003051758,Fri Feb 28 2025 13:43:36 GMT-0600 (Central Standard Time),779103.5,B,br,O,r,302,1,10459.800000011921,768643.6999999881,7042,WL,B,4.0
6,15.873999834060669,distr,44126.00016593933,Fri Feb 28 2025 13:43:36 GMT-0600 (Central Standard Time),779220.6999999881,B,bro,O,o,109,1,10577.0,768643.6999999881,7042,WL,B,4.0
6,16.04099988937378,distr,43959.00011062622,Fri Feb 28 2025 13:43:36 GMT-0600 (Central Standard Time),779388.0,B,broo,O,o,150,1,10744.300000011921,768643.6999999881,7042,WL,B,4.0
6,16.174999952316284,distr,43825.000047683716,Fri Feb 28 2025 13:43:36 GMT-0600 (Central Standard Time),779521.5,B,brook,O,k,120,1,10877.800000011921,768643.6999999881,7042,WL,B,4.0
6,16.358999967575073,distr,43641.00003242493,Fri Feb 28 2025 13:43:36 GMT-0600 (Central Standard Time),779705.5999999642,B,brooke,O,e,163,1,11061.899999976158,768643.6999999881,7042,WL,B,4.0
6,17.007999897003174,distr,42992.000102996826,Fri Feb 28 2025 13:43:36 GMT-0600 (Central Standard Time),780354.5999999642,B,brook,O,backspace,635,1,11710.899999976158,768643.6999999881,7042,WL,B,4.0
6,17.390999794006348,distr,42609.00020599365,Fri Feb 28 2025 13:43:36 GMT-0600 (Central Standard Time),780737.5,B,brookenter,O,enter,369,1,12093.800000011921,768643.6999999881,7042,WL,B,4.0
6,21.039999961853027,distr,38960.00003814697,Fri Feb 28 2025 13:43:36 GMT-0600 (Central Standard Time),784387.3999999762,B,t,O,t,3635,1,3649.600000023842,780737.7999999523,7042,WL,B,5.0
6,21.35699987411499,distr,38643.00012588501,Fri Feb 28 2025 13:43:36 GMT-0600 (Central Standard Time),784703.5999999642,B,tr,O,r,296,1,3965.800000011921,780737.7999999523,7042,WL,B,5.0
6,21.424000024795532,distr,38575.99997520447,Fri Feb 28 2025 13:43:36 GMT-0600 (Central Standard Time),784770.5999999642,B,tre,O,e,45,1,4032.800000011921,780737.7999999523,7042,WL,B,5.0
6,21.60699987411499,distr,38393.00012588501,Fri Feb 28 2025 13:43:36 GMT-0600 (Central Standard Time),784954.1999999881,B,tree,O,e,177,1,4216.400000035763,780737.7999999523,7042,WL,B,5.0
6,21.823999881744385,distr,38176.000118255615,Fri Feb 28 2025 13:43:36 GMT-0600 (Central Standard Time),785170.6999999881,B,treeenter,O,enter,210,1,4432.900000035763,780737.7999999523,7042,WL,B,5.0
6,27.569999933242798,distr,32430.000066757202,Fri Feb 28 2025 13:43:36 GMT-0600 (Central Standard Time),790917.1999999881,B,g,O,g,5730,1,5746.199999988079,785171.0,7042,WL,B,6.0
6,27.703999996185303,distr,32296.000003814697,Fri Feb 28 2025 13:43:36 GMT-0600 (Central Standard Time),791050.5,B,gh,O,h,113,1,5879.5,785171.0,7042,WL,B,6.0
6,27.805999994277954,distr,32194.000005722046,Fri Feb 28 2025 13:43:36 GMT-0600 (Central Standard Time),791152.5,B,gho,O,o,81,1,5981.5,785171.0,7042,WL,B,6.0
6,27.921000003814697,distr,32078.999996185303,Fri Feb 28 2025 13:43:36 GMT-0600 (Central Standard Time),791268.0,B,ghos,O,s,99,1,6097.0,785171.0,7042,WL,B,6.0
6,28.020999908447266,distr,31979.000091552734,Fri Feb 28 2025 13:43:36 GMT-0600 (Central Standard Time),791368.0,B,ghost,O,t,81,1,6197.0,785171.0,7042,WL,B,6.0
6,28.186999797821045,distr,31813.000202178955,Fri Feb 28 2025 13:43:36 GMT-0600 (Central Standard Time),791533.7999999523,B,ghostenter,O,enter,149,1,6362.799999952316,785171.0,7042,WL,B,6.0
6,60.00999999046326,distr,-9.999990463256836,Fri Feb 28 2025 13:43:36 GMT-0600 (Central Standard Time),823357.5,B,None,O,None,31818,1,31823.5,791534.0,7042,WL,B,7.0
7,7.980000019073486,immed,52019.999980926514,Fri Feb 28 2025 13:43:36 GMT-0600 (Central Standard Time),855513.6999999881,A,s,O,s,7965,1,7979.600000023842,847534.0999999642,7042,WL,B,1.0
7,8.17900013923645,immed,51820.99986076355,Fri Feb 28 2025 13:43:36 GMT-0600 (Central Standard Time),855712.0999999642,A,st,O,t,178,1,8178.0,847534.0999999642,7042,WL,B,1.0
7,8.495000123977661,immed,51504.99987602234,Fri Feb 28 2025 13:43:36 GMT-0600 (Central Standard Time),856028.5999999642,A,str,O,r,310,1,8494.5,847534.0999999642,7042,WL,B,1.0
7,8.57800006866455,immed,51421.99993133545,Fri Feb 28 2025 13:43:36 GMT-0600 (Central Standard Time),856111.5,A,stre,O,e,65,1,8577.400000035763,847534.0999999642,7042,WL,B,1.0
7,8.812000036239624,immed,51187.999963760376,Fri Feb 28 2025 13:43:36 GMT-0600 (Central Standard Time),856345.5999999642,A,stree,O,e,230,1,8811.5,847534.0999999642,7042,WL,B,1.0
7,8.996000051498413,immed,51003.99994850159,Fri Feb 28 2025 13:43:36 GMT-0600 (Central Standard Time),856529.5999999642,A,street,O,t,164,1,8995.5,847534.0999999642,7042,WL,B,1.0
7,9.41100001335144,immed,50588.99998664856,Fri Feb 28 2025 13:43:36 GMT-0600 (Central Standard Time),856944.6999999881,A,streetenter,O,enter,393,1,9410.600000023842,847534.0999999642,7042,WL,B,1.0
7,9.76200008392334,immed,50237.99991607666,Fri Feb 28 2025 13:43:36 GMT-0600 (Central Standard Time),857295.3999999762,A,g,O,g,341,1,350.5,856944.8999999762,7042,WL,B,2.0
7,10.044000148773193,immed,49955.99985122681,Fri Feb 28 2025 13:43:36 GMT-0600 (Central Standard Time),857577.5,A,gr,O,r,270,1,632.6000000238419,856944.8999999762,7042,WL,B,2.0
7,10.16100001335144,immed,49838.99998664856,Fri Feb 28 2025 13:43:36 GMT-0600 (Central Standard Time),857694.3999999762,A,gra,O,a,99,1,749.5,856944.8999999762,7042,WL,B,2.0
7,10.32800006866455,immed,49671.99993133545,Fri Feb 28 2025 13:43:36 GMT-0600 (Central Standard Time),857861.1999999881,A,gras,O,s,159,1,916.3000000119209,856944.8999999762,7042,WL,B,2.0
7,10.57800006866455,immed,49421.99993133545,Fri Feb 28 2025 13:43:36 GMT-0600 (Central Standard Time),858111.7999999523,A,grass,O,s,232,1,1166.8999999761581,856944.8999999762,7042,WL,B,2.0
7,11.279000043869019,immed,48720.99995613098,Fri Feb 28 2025 13:43:36 GMT-0600 (Central Standard Time),858812.0,A,grassenter,O,enter,693,1,1867.1000000238419,856944.8999999762,7042,WL,B,2.0
7,12.42799997329712,immed,47572.00002670288,Fri Feb 28 2025 13:43:36 GMT-0600 (Central Standard Time),859961.3999999762,A,c,O,c,1138,1,1149.199999988079,858812.1999999881,7042,WL,B,3.0
7,12.611000061035156,immed,47388.999938964844,Fri Feb 28 2025 13:43:36 GMT-0600 (Central Standard Time),860143.8999999762,A,ci,O,i,172,1,1331.699999988079,858812.1999999881,7042,WL,B,3.0
7,12.730999946594238,immed,47269.00005340576,Fri Feb 28 2025 13:43:36 GMT-0600 (Central Standard Time),860263.7999999523,A,cit,O,t,103,1,1451.5999999642372,858812.1999999881,7042,WL,B,3.0
7,12.894000053405762,immed,47105.99994659424,Fri Feb 28 2025 13:43:36 GMT-0600 (Central Standard Time),860426.8999999762,A,city,O,y,146,1,1614.699999988079,858812.1999999881,7042,WL,B,3.0
7,13.210999965667725,immed,46789.000034332275,Fri Feb 28 2025 13:43:36 GMT-0600 (Central Standard Time),860744.5999999642,A,cityenter,O,enter,299,1,1932.3999999761581,858812.1999999881,7042,WL,B,3.0
7,14.394000053405762,immed,45605.99994659424,Fri Feb 28 2025 13:43:36 GMT-0600 (Central Standard Time),861926.8999999762,A,a,O,a,1165,1,1182.199999988079,860744.6999999881,7042,WL,B,4.0
7,14.495000123977661,immed,45504.99987602234,Fri Feb 28 2025 13:43:36 GMT-0600 (Central Standard Time),862027.8999999762,A,ar,O,r,79,1,1283.199999988079,860744.6999999881,7042,WL,B,4.0
7,14.64300012588501,immed,45356.99987411499,Fri Feb 28 2025 13:43:36 GMT-0600 (Central Standard Time),862176.3999999762,A,arm,O,m,137,1,1431.699999988079,860744.6999999881,7042,WL,B,4.0
7,14.943000078201294,immed,45056.999921798706,Fri Feb 28 2025 13:43:36 GMT-0600 (Central Standard Time),862476.5999999642,A,armenter,O,enter,293,1,1731.8999999761581,860744.6999999881,7042,WL,B,4.0
7,15.125999927520752,immed,44874.00007247925,Fri Feb 28 2025 13:43:36 GMT-0600 (Central Standard Time),862659.5999999642,A,s,O,s,177,1,182.80000001192093,862476.7999999523,7042,WL,B,5.0
7,15.243000030517578,immed,44756.99996948242,Fri Feb 28 2025 13:43:36 GMT-0600 (Central Standard Time),862776.1999999881,A,sk,O,k,106,1,299.4000000357628,862476.7999999523,7042,WL,B,5.0
7,15.426000118255615,immed,44573.999881744385,Fri Feb 28 2025 13:43:36 GMT-0600 (Central Standard Time),862959.5999999642,A,ski,O,i,166,1,482.80000001192093,862476.7999999523,7042,WL,B,5.0
7,15.526000022888184,immed,44473.99997711182,Fri Feb 28 2025 13:43:36 GMT-0600 (Central Standard Time),863059.2999999523,A,skin,O,n,86,1,582.5,862476.7999999523,7042,WL,B,5.0
7,15.792999982833862,immed,44207.00001716614,Fri Feb 28 2025 13:43:36 GMT-0600 (Central Standard Time),863326.0999999642,A,skinenter,O,enter,250,1,849.3000000119209,862476.7999999523,7042,WL,B,5.0
7,16.526000022888184,immed,43473.99997711182,Fri Feb 28 2025 13:43:36 GMT-0600 (Central Standard Time),864059.0999999642,A,w,O,w,728,1,732.8000000119209,863326.2999999523,7042,WL,B,6.0
7,16.676000118255615,immed,43323.999881744385,Fri Feb 28 2025 13:43:36 GMT-0600 (Central Standard Time),864209.0999999642,A,wi,O,i,131,1,882.8000000119209,863326.2999999523,7042,WL,B,6.0
7,16.792999982833862,immed,43207.00001716614,Fri Feb 28 2025 13:43:36 GMT-0600 (Central Standard Time),864325.7999999523,A,wif,O,f,100,1,999.5,863326.2999999523,7042,WL,B,6.0
7,16.875999927520752,immed,43124.00007247925,Fri Feb 28 2025 13:43:36 GMT-0600 (Central Standard Time),864409.0,A,wife,O,e,72,1,1082.7000000476837,863326.2999999523,7042,WL,B,6.0
7,17.042999982833862,immed,42957.00001716614,Fri Feb 28 2025 13:43:36 GMT-0600 (Central Standard Time),864575.8999999762,A,wifeenter,O,enter,149,1,1249.6000000238419,863326.2999999523,7042,WL,B,6.0
7,17.276999950408936,immed,42723.000049591064,Fri Feb 28 2025 13:43:36 GMT-0600 (Central Standard Time),864810.1999999881,A,s,O,s,214,1,234.0,864576.1999999881,7042,WL,B,7.0
7,17.377000093460083,immed,42622.99990653992,Fri Feb 28 2025 13:43:36 GMT-0600 (Central Standard Time),864910.2999999523,A,st,O,t,88,1,334.0999999642372,864576.1999999881,7042,WL,B,7.0
7,17.55999994277954,immed,42440.00005722046,Fri Feb 28 2025 13:43:36 GMT-0600 (Central Standard Time),865093.6999999881,A,sta,O,a,168,1,517.5,864576.1999999881,7042,WL,B,7.0
7,17.66000008583069,immed,42339.99991416931,Fri Feb 28 2025 13:43:36 GMT-0600 (Central Standard Time),865193.1999999881,A,star,O,r,96,1,617.0,864576.1999999881,7042,WL,B,7.0
7,17.91000008583069,immed,42089.99991416931,Fri Feb 28 2025 13:43:36 GMT-0600 (Central Standard Time),865443.5,A,starenter,O,enter,237,1,867.3000000119209,864576.1999999881,7042,WL,B,7.0
7,22.611999988555908,immed,37388.00001144409,Fri Feb 28 2025 13:43:36 GMT-0600 (Central Standard Time),870145.6999999881,A,d,O,d,4690,1,4702.0,865443.6999999881,7042,WL,B,8.0
7,22.778000116348267,immed,37221.99988365173,Fri Feb 28 2025 13:43:36 GMT-0600 (Central Standard Time),870311.5,A,do,O,o,156,1,4867.800000011921,865443.6999999881,7042,WL,B,8.0
7,22.907999992370605,immed,37092.000007629395,Fri Feb 28 2025 13:43:36 GMT-0600 (Central Standard Time),870441.2999999523,A,doo,O,o,126,1,4997.599999964237,865443.6999999881,7042,WL,B,8.0
7,23.075000047683716,immed,36924.999952316284,Fri Feb 28 2025 13:43:36 GMT-0600 (Central Standard Time),870608.0,A,door,O,r,148,1,5164.300000011921,865443.6999999881,7042,WL,B,8.0
7,23.225000143051147,immed,36774.99985694885,Fri Feb 28 2025 13:43:36 GMT-0600 (Central Standard Time),870758.5999999642,A,doorenter,O,enter,141,1,5314.899999976158,865443.6999999881,7042,WL,B,8.0
7,24.924000024795532,immed,35075.99997520447,Fri Feb 28 2025 13:43:36 GMT-0600 (Central Standard Time),872456.7999999523,A,w,O,w,1687,1,1698.0999999642372,870758.6999999881,7042,WL,B,9.0
7,25.02300000190735,immed,34976.99999809265,Fri Feb 28 2025 13:43:36 GMT-0600 (Central Standard Time),872556.5999999642,A,wi,O,i,93,1,1797.8999999761581,870758.6999999881,7042,WL,B,9.0
7,25.141000032424927,immed,34858.99996757507,Fri Feb 28 2025 13:43:36 GMT-0600 (Central Standard Time),872674.0,A,win,O,n,97,1,1915.300000011921,870758.6999999881,7042,WL,B,9.0
7,25.240000009536743,immed,34759.99999046326,Fri Feb 28 2025 13:43:36 GMT-0600 (Central Standard Time),872773.7999999523,A,wind,O,d,93,1,2015.0999999642372,870758.6999999881,7042,WL,B,9.0
7,25.35700011253357,immed,34642.99988746643,Fri Feb 28 2025 13:43:36 GMT-0600 (Central Standard Time),872890.5999999642,A,windo,O,o,109,1,2131.899999976158,870758.6999999881,7042,WL,B,9.0
7,25.52500009536743,immed,34474.99990463257,Fri Feb 28 2025 13:43:36 GMT-0600 (Central Standard Time),873057.8999999762,A,window,O,w,147,1,2299.199999988079,870758.6999999881,7042,WL,B,9.0
7,25.77300000190735,immed,34226.99999809265,Fri Feb 28 2025 13:43:36 GMT-0600 (Central Standard Time),873306.5999999642,A,windowenter,O,enter,226,1,2547.899999976158,870758.6999999881,7042,WL,B,9.0
7,26.707000017166138,immed,33292.99998283386,Fri Feb 28 2025 13:43:36 GMT-0600 (Central Standard Time),874240.1999999881,A,f,O,f,922,1,933.4000000357628,873306.7999999523,7042,WL,B,10.0
7,26.907000064849854,immed,33092.99993515015,Fri Feb 28 2025 13:43:36 GMT-0600 (Central Standard Time),874440.0999999642,A,fi,O,i,183,1,1133.300000011921,873306.7999999523,7042,WL,B,10.0
7,27.091000080108643,immed,32908.99991989136,Fri Feb 28 2025 13:43:36 GMT-0600 (Central Standard Time),874624.2999999523,A,fie,O,e,174,1,1317.5,873306.7999999523,7042,WL,B,10.0
7,27.789999961853027,immed,32210.000038146973,Fri Feb 28 2025 13:43:36 GMT-0600 (Central Standard Time),875323.3999999762,A,fi,O,backspace,695,1,2016.6000000238419,873306.7999999523,7042,WL,B,10.0
7,28.17300009727478,immed,31826.99990272522,Fri Feb 28 2025 13:43:36 GMT-0600 (Central Standard Time),875706.0999999642,A,fir,O,r,379,1,2399.300000011921,873306.7999999523,7042,WL,B,10.0
7,28.240000009536743,immed,31759.999990463257,Fri Feb 28 2025 13:43:36 GMT-0600 (Central Standard Time),875773.0999999642,A,fire,O,e,59,1,2466.300000011921,873306.7999999523,7042,WL,B,10.0
7,28.506999969482422,immed,31493.000030517578,Fri Feb 28 2025 13:43:36 GMT-0600 (Central Standard Time),876040.1999999881,A,fireenter,O,enter,249,1,2733.400000035763,873306.7999999523,7042,WL,B,10.0
7,29.706000089645386,immed,30293.999910354614,Fri Feb 28 2025 13:43:36 GMT-0600 (Central Standard Time),877239.7999999523,A,l,O,l,1180,1,1199.5,876040.2999999523,7042,WL,B,11.0
7,29.788000106811523,immed,30211.999893188477,Fri Feb 28 2025 13:43:36 GMT-0600 (Central Standard Time),877321.7999999523,A,la,O,a,78,1,1281.5,876040.2999999523,7042,WL,B,11.0
7,29.890000104904175,immed,30109.999895095825,Fri Feb 28 2025 13:43:36 GMT-0600 (Central Standard Time),877423.0,A,lak,O,k,83,1,1382.7000000476837,876040.2999999523,7042,WL,B,11.0
7,29.972000122070312,immed,30027.999877929688,Fri Feb 28 2025 13:43:36 GMT-0600 (Central Standard Time),877505.2999999523,A,lake,O,e,74,1,1465.0,876040.2999999523,7042,WL,B,11.0
7,30.15499997138977,immed,29845.00002861023,Fri Feb 28 2025 13:43:36 GMT-0600 (Central Standard Time),877688.3999999762,A,lakeenter,O,enter,172,1,1648.1000000238419,876040.2999999523,7042,WL,B,11.0
7,30.57200002670288,immed,29427.99997329712,Fri Feb 28 2025 13:43:36 GMT-0600 (Central Standard Time),878105.5,A,c,O,c,396,1,416.80000001192093,877688.6999999881,7042,WL,B,12.0
7,30.72099995613098,immed,29279.00004386902,Fri Feb 28 2025 13:43:36 GMT-0600 (Central Standard Time),878254.5999999642,A,ca,O,a,127,1,565.8999999761581,877688.6999999881,7042,WL,B,12.0
7,30.939000129699707,immed,29060.999870300293,Fri Feb 28 2025 13:43:36 GMT-0600 (Central Standard Time),878472.1999999881,A,cab,O,b,207,1,783.5,877688.6999999881,7042,WL,B,12.0
7,31.08899998664856,immed,28911.00001335144,Fri Feb 28 2025 13:43:36 GMT-0600 (Central Standard Time),878622.5999999642,A,cabi,O,i,134,1,933.8999999761581,877688.6999999881,7042,WL,B,12.0
7,31.17300009727478,immed,28826.99990272522,Fri Feb 28 2025 13:43:36 GMT-0600 (Central Standard Time),878706.5,A,cabin,O,n,71,1,1017.8000000119209,877688.6999999881,7042,WL,B,12.0
7,31.472000122070312,immed,28527.999877929688,Fri Feb 28 2025 13:43:36 GMT-0600 (Central Standard Time),879005.3999999762,A,cabinenter,O,enter,290,1,1316.699999988079,877688.6999999881,7042,WL,B,12.0
7,33.40700006484985,immed,26592.999935150146,Fri Feb 28 2025 13:43:36 GMT-0600 (Central Standard Time),880940.7999999523,A,p,O,p,1920,1,1935.199999988079,879005.5999999642,7042,WL,B,13.0
7,33.57299995422363,immed,26427.000045776367,Fri Feb 28 2025 13:43:36 GMT-0600 (Central Standard Time),881106.6999999881,A,pu,O,u,142,1,2101.100000023842,879005.5999999642,7042,WL,B,13.0
7,33.704999923706055,immed,26295.000076293945,Fri Feb 28 2025 13:43:36 GMT-0600 (Central Standard Time),881238.5,A,pup,O,p,111,1,2232.900000035763,879005.5999999642,7042,WL,B,13.0
7,33.88800001144409,immed,26111.99998855591,Fri Feb 28 2025 13:43:36 GMT-0600 (Central Standard Time),881421.5,A,pupi,O,i,171,1,2415.900000035763,879005.5999999642,7042,WL,B,13.0
7,34.07299995422363,immed,25927.000045776367,Fri Feb 28 2025 13:43:36 GMT-0600 (Central Standard Time),881606.5,A,pupil,O,l,168,1,2600.900000035763,879005.5999999642,7042,WL,B,13.0
7,35.223000049591064,immed,24776.999950408936,Fri Feb 28 2025 13:43:36 GMT-0600 (Central Standard Time),882756.0999999642,A,pupilenter,O,enter,1134,1,3750.5,879005.5999999642,7042,WL,B,13.0
7,38.98699998855591,immed,21013.00001144409,Fri Feb 28 2025 13:43:36 GMT-0600 (Central Standard Time),886520.2999999523,A,p,O,p,3745,1,3764.0,882756.2999999523,7042,WL,B,14.0
7,39.15400004386902,immed,20845.99995613098,Fri Feb 28 2025 13:43:36 GMT-0600 (Central Standard Time),886687.5,A,pi,O,i,157,1,3931.2000000476837,882756.2999999523,7042,WL,B,14.0
7,39.30299997329712,immed,20697.00002670288,Fri Feb 28 2025 13:43:36 GMT-0600 (Central Standard Time),886836.6999999881,A,pip,O,p,134,1,4080.400000035763,882756.2999999523,7042,WL,B,14.0
7,39.437999963760376,immed,20562.000036239624,Fri Feb 28 2025 13:43:36 GMT-0600 (Central Standard Time),886971.0,A,pipe,O,e,119,1,4214.700000047684,882756.2999999523,7042,WL,B,14.0
7,39.63800001144409,immed,20361.99998855591,Fri Feb 28 2025 13:43:36 GMT-0600 (Central Standard Time),887170.7999999523,A,pipeenter,O,enter,185,1,4414.5,882756.2999999523,7042,WL,B,14.0
7,50.21799993515015,immed,9782.000064849854,Fri Feb 28 2025 13:43:36 GMT-0600 (Central Standard Time),897751.6999999881,A,w,O,w,10572,1,10580.600000023842,887171.0999999642,7042,WL,B,15.0
7,50.43499994277954,immed,9565.000057220459,Fri Feb 28 2025 13:43:36 GMT-0600 (Central Standard Time),897968.5999999642,A,wi,O,i,205,1,10797.5,887171.0999999642,7042,WL,B,15.0
7,50.63300013542175,immed,9366.999864578247,Fri Feb 28 2025 13:43:36 GMT-0600 (Central Standard Time),898166.7999999523,A,wif,O,f,189,1,10995.699999988079,887171.0999999642,7042,WL,B,15.0
7,50.75099992752075,immed,9249.000072479248,Fri Feb 28 2025 13:43:36 GMT-0600 (Central Standard Time),898284.5999999642,A,wife,O,e,111,1,11113.5,887171.0999999642,7042,WL,B,15.0
7,52.151000022888184,immed,7848.999977111816,Fri Feb 28 2025 13:43:36 GMT-0600 (Central Standard Time),899684.1999999881,A,wifeenter,O,enter,1383,1,12513.100000023842,887171.0999999642,7042,WL,B,15.0
