acc_sum,block,block_c,condition,correct,correct_response,datetime,endtime,flanker,jitter,project,response,response_test_buffer_response,response_test_target_response,response_time,response_time_test_buffer_response,response_time_test_target_response,row_sel,session_number,start_end,starttime,subject_id,target,task,task_vers,time_test_buffer,time_test_buffer_response,time_test_constants,time_test_flanker,time_test_jitter,time_test_logger,time_test_target,time_test_target_response,time_test_variables,trial
0,prac,1,inc,0,z,Fri Mar 28 2025 15:55:32 GMT-0500 (Central Daylight Time),119894.59999999404,window,1100,I,m,,,718,,,16,1,3228.7999999970198,116665.79999999702,8034,temper,AF,A,,,,,,,,,,1
1,prac,1,con,1,m,Fri Mar 28 2025 15:55:32 GMT-0500 (Central Daylight Time),122893.09999999404,remote,1000,I,m,,,695,,,7,1,2993.0,119900.09999999404,8034,remote,AF,A,,,,,,,,,,2
2,prac,1,con,1,z,Fri Mar 28 2025 15:55:32 GMT-0500 (Central Daylight Time),125725.39999999851,rage,1000,I,z,,,528,,,15,1,2827.7000000029802,122897.69999999553,8034,rage,AF,A,,,,,,,,,,3
3,prac,1,inc,1,m,Fri Mar 28 2025 15:55:32 GMT-0500 (Central Daylight Time),128774.39999999851,brutal,1100,I,m,,,642,,,8,1,3044.3000000044703,125730.09999999404,8034,window,AF,A,,,,,,,,,,4
4,prac,1,con,1,m,Fri Mar 28 2025 15:55:32 GMT-0500 (Central Daylight Time),131273.69999999553,jacket,800,I,m,,,397,,,5,1,2494.5,128779.19999999553,8034,jacket,AF,A,,,,,,,,,,5
5,prac,1,con,1,m,Fri Mar 28 2025 15:55:32 GMT-0500 (Central Daylight Time),134172.8999999985,bell,1000,I,m,,,586,,,3,1,2894.60000000149,131278.29999999702,8034,bell,AF,A,,,,,,,,,,6
6,prac,1,inc,1,z,Fri Mar 28 2025 15:55:32 GMT-0500 (Central Daylight Time),136922.09999999404,film,900,I,z,,,540,,,14,1,2744.7999999970198,134177.29999999702,8034,hate,AF,A,,,,,,,,,,7
7,prac,1,inc,1,m,Fri Mar 28 2025 15:55:32 GMT-0500 (Central Daylight Time),139721.19999999553,elated,900,I,m,,,583,,,6,1,2795.1999999955297,136926.0,8034,napkin,AF,A,,,,,,,,,,8
7,prac,1,con,0,z,Fri Mar 28 2025 15:55:32 GMT-0500 (Central Daylight Time),142720.0,love,1000,I,m,,,692,,,11,1,2994.2000000029802,139725.79999999702,8034,love,AF,A,,,,,,,,,,9
8,prac,1,inc,1,m,Fri Mar 28 2025 15:55:32 GMT-0500 (Central Daylight Time),145485.8999999985,kind,900,I,m,,,553,,,2,1,2760.7000000029802,142725.19999999553,8034,rock,AF,A,,,,,,,,,,10
9,prac,1,con,1,z,Fri Mar 28 2025 15:55:32 GMT-0500 (Central Daylight Time),148285.0,brutal,800,I,z,,,694,,,13,1,2794.4000000059605,145490.59999999404,8034,brutal,AF,A,,,,,,,,,,11
10,prac,1,inc,1,z,Fri Mar 28 2025 15:55:32 GMT-0500 (Central Daylight Time),151334.19999999553,napkin,1100,I,z,,,636,,,12,1,3044.7999999970198,148289.3999999985,8034,friend,AF,A,,,,,,,,,,12
10,prac,1,con,0,z,Fri Mar 28 2025 15:55:32 GMT-0500 (Central Daylight Time),153983.5,elated,800,I,m,,,534,,,9,1,2645.2000000029802,151338.29999999702,8034,elated,AF,A,,,,,,,,,,13
11,prac,1,con,1,m,Fri Mar 28 2025 15:55:32 GMT-0500 (Central Daylight Time),157099.19999999553,step,800,I,m,,,1004,,,1,1,3111.1999999955297,153988.0,8034,step,AF,A,,,,,,,,,,14
12,prac,1,inc,1,z,Fri Mar 28 2025 15:55:32 GMT-0500 (Central Daylight Time),159914.79999999702,rock,900,I,z,,,606,,,10,1,2811.39999999851,157103.3999999985,8034,kind,AF,A,,,,,,,,,,15
13,prac,1,inc,1,m,Fri Mar 28 2025 15:55:32 GMT-0500 (Central Daylight Time),163147.09999999404,hate,1100,I,m,,,821,,,4,1,3228.1999999955297,159918.8999999985,8034,film,AF,A,,,,,,,,,,16
1,test,1,con,1,m,Fri Mar 28 2025 15:55:32 GMT-0500 (Central Daylight Time),179158.5,remote,1000,I,m,m,None,554,354.0,200.0,115,1,2096.3000000044703,177062.19999999553,8034,remote,AF,A,176820,176820,175090,176104,175091,177187,176620,176620,177187,1
2,test,1,con,1,z,Fri Mar 28 2025 15:55:32 GMT-0500 (Central Daylight Time),181341.3999999985,love,1100,I,z,z,None,537,338.0,199.0,20,1,2177.60000000149,179163.79999999702,8034,love,AF,A,179020,179020,177192,178303,177192,179370,178820,178820,179369,2
3,test,1,con,1,m,Fri Mar 28 2025 15:55:32 GMT-0500 (Central Daylight Time),183474.09999999404,film,1000,I,m,m,None,583,384.0,199.0,91,1,2127.89999999851,181346.19999999553,8034,film,AF,A,181102,181102,179374,180386,179375,181502,180903,180903,181502,3
4,test,1,con,1,m,Fri Mar 28 2025 15:55:32 GMT-0500 (Central Daylight Time),185506.69999999553,bell,900,I,m,m,None,590,391.0,199.0,82,1,2028.6000000014901,183478.09999999404,8034,bell,AF,A,183135,183135,181506,182419,181507,183535,182936,182936,183535,4
5,test,1,inc,1,z,Fri Mar 28 2025 15:55:32 GMT-0500 (Central Daylight Time),187589.3999999985,bell,1000,I,z,z,None,537,338.0,199.0,23,1,2078.5,185510.8999999985,8034,love,AF,A,185268,185268,183539,184552,183539,185617,185068,185068,185617,5
6,test,1,con,1,m,Fri Mar 28 2025 15:55:32 GMT-0500 (Central Daylight Time),189571.8999999985,step,800,I,m,m,None,548,340.0,208.0,65,1,1978.6000000014901,187593.29999999702,8034,step,AF,A,187250,187250,185621,186434,185622,187600,187042,187042,187600,6
7,test,1,inc,1,m,Fri Mar 28 2025 15:55:32 GMT-0500 (Central Daylight Time),191687.8999999985,temper,1000,I,m,m,None,577,377.0,200.0,103,1,2111.2000000029802,189576.69999999553,8034,jacket,AF,A,189333,189333,187605,188617,187605,189716,189133,189133,189716,7
7,test,1,con,0,z,Fri Mar 28 2025 15:55:32 GMT-0500 (Central Daylight Time),193554.0,rage,800,I,m,m,None,525,325.0,200.0,49,1,1861.9000000059605,191692.09999999404,8034,rage,AF,A,191249,191249,189720,190533,189721,191582,191049,191049,191582,8
8,test,1,con,1,z,Fri Mar 28 2025 15:55:32 GMT-0500 (Central Daylight Time),195420.19999999553,elated,900,I,z,z,None,423,223.0,200.0,2,1,1862.1999999955297,193558.0,8034,elated,AF,A,193215,193215,191586,192499,191586,193448,193015,193015,193448,9
9,test,1,inc,1,z,Fri Mar 28 2025 15:55:32 GMT-0500 (Central Daylight Time),197569.69999999553,remote,1000,I,z,z,None,607,408.0,199.0,7,1,2145.1999999955297,195424.5,8034,elated,AF,A,195182,195182,193453,194465,193453,195598,194982,194982,195598,10
10,test,1,inc,1,m,Fri Mar 28 2025 15:55:32 GMT-0500 (Central Daylight Time),199669.0,brutal,900,I,m,m,None,654,455.0,199.0,110,1,2095.2000000029802,197573.79999999702,8034,napkin,AF,A,197231,197231,195602,196514,195602,197697,197031,197031,197697,11
11,test,1,con,1,z,Fri Mar 28 2025 15:55:32 GMT-0500 (Central Daylight Time),201468.59999999404,friend,800,I,z,z,None,463,264.0,199.0,25,1,1795.1999999955297,199673.3999999985,8034,friend,AF,A,199230,199230,197701,198514,197702,199497,199031,199031,199497,12
12,test,1,con,1,m,Fri Mar 28 2025 15:55:32 GMT-0500 (Central Daylight Time),203201.19999999553,jacket,800,I,m,m,None,391,192.0,199.0,97,1,1728.6999999955297,201472.5,8034,jacket,AF,A,201029,201030,199501,200313,199501,201229,200830,200830,201229,13
13,test,1,con,1,m,Fri Mar 28 2025 15:55:32 GMT-0500 (Central Daylight Time),205100.3999999985,film,900,I,m,m,None,463,264.0,199.0,90,1,1895.1000000014901,203205.29999999702,8034,film,AF,A,202862,202862,201233,202146,201234,203129,202663,202663,203128,14
14,test,1,inc,1,m,Fri Mar 28 2025 15:55:32 GMT-0500 (Central Daylight Time),207116.69999999553,elated,800,I,m,m,None,679,480.0,199.0,125,1,2012.1999999955297,205104.5,8034,window,AF,A,204661,204662,203133,203945,203133,205145,204462,204462,205145,15
15,test,1,con,1,z,Fri Mar 28 2025 15:55:32 GMT-0500 (Central Daylight Time),209182.59999999404,hate,800,I,z,z,None,727,528.0,199.0,41,1,2061.89999999851,207120.69999999553,8034,hate,AF,A,206678,206678,205149,205961,205149,207211,206478,206478,207211,16
16,test,1,con,1,z,Fri Mar 28 2025 15:55:32 GMT-0500 (Central Daylight Time),211548.3999999985,elated,1000,I,z,z,None,829,630.0,199.0,3,1,2361.2000000029802,209187.19999999553,8034,elated,AF,A,208944,208944,207215,208227,207216,209576,208744,208744,209576,17
17,test,1,inc,1,z,Fri Mar 28 2025 15:55:32 GMT-0500 (Central Daylight Time),213914.59999999404,window,1100,I,z,z,None,748,549.0,199.0,64,1,2362.1999999955297,211552.3999999985,8034,temper,AF,A,211393,211393,209580,210693,209581,211943,211194,211194,211943,18
17,test,1,inc,0,z,Fri Mar 28 2025 15:55:32 GMT-0500 (Central Daylight Time),216080.59999999404,remote,1000,I,m,m,None,618,419.0,199.0,39,1,2162.2999999970198,213918.29999999702,8034,brutal,AF,A,213675,213675,211946,212959,211947,214109,213476,213476,214109,19
18,test,1,con,1,m,Fri Mar 28 2025 15:55:32 GMT-0500 (Central Daylight Time),218096.59999999404,film,800,I,m,m,None,675,476.0,199.0,89,1,2012.1999999955297,216084.3999999985,8034,film,AF,A,215642,215642,214112,214925,214113,216125,215442,215442,216125,20
19,test,1,inc,1,m,Fri Mar 28 2025 15:55:32 GMT-0500 (Central Daylight Time),220279.0,brutal,900,I,m,m,None,744,544.0,200.0,102,1,2178.3000000044703,218100.69999999553,8034,jacket,AF,A,217758,217758,216129,217041,216129,218307,217558,217558,218307,21
20,test,1,con,1,z,Fri Mar 28 2025 15:55:32 GMT-0500 (Central Daylight Time),222679.5,hate,1100,I,z,z,None,754,554.0,200.0,44,1,2395.2000000029802,220284.29999999702,8034,hate,AF,A,220140,220140,218312,219424,218313,220708,219940,219940,220708,22
21,test,1,inc,1,m,Fri Mar 28 2025 15:55:32 GMT-0500 (Central Daylight Time),225127.29999999702,friend,1100,I,m,m,None,802,603.0,199.0,128,1,2442.89999999851,222684.3999999985,8034,window,AF,A,222539,222539,220712,221823,220713,223155,222340,222340,223155,23
22,test,1,con,1,m,Fri Mar 28 2025 15:55:32 GMT-0500 (Central Daylight Time),227293.5,remote,800,I,m,m,None,829,629.0,200.0,113,1,2161.4000000059605,225132.09999999404,8034,remote,AF,A,224689,224689,223160,223973,223161,225322,224489,224489,225321,24
23,test,1,con,1,m,Fri Mar 28 2025 15:55:32 GMT-0500 (Central Daylight Time),229493.0,napkin,900,I,m,m,None,755,555.0,200.0,106,1,2195.9000000059605,227297.09999999404,8034,napkin,AF,A,226955,226955,225325,226238,225325,227521,226755,226755,227521,25
24,test,1,inc,1,z,Fri Mar 28 2025 15:55:32 GMT-0500 (Central Daylight Time),231575.79999999702,rock,900,I,z,z,None,636,436.0,200.0,14,1,2078.89999999851,229496.8999999985,8034,kind,AF,A,229154,229154,227525,228438,227525,229604,228954,228954,229604,26
25,test,1,inc,1,z,Fri Mar 28 2025 15:55:32 GMT-0500 (Central Daylight Time),233674.79999999702,napkin,900,I,z,z,None,665,465.0,200.0,6,1,2094.60000000149,231580.19999999553,8034,elated,AF,A,231237,231237,229608,230520,229608,231703,231037,231037,231703,27
26,test,1,con,1,z,Fri Mar 28 2025 15:55:32 GMT-0500 (Central Daylight Time),235674.5,temper,800,I,z,z,None,658,458.0,200.0,57,1,1995.6000000014901,233678.8999999985,8034,temper,AF,A,233236,233236,231707,232520,231707,233703,233036,233036,233702,28
27,test,1,con,1,z,Fri Mar 28 2025 15:55:32 GMT-0500 (Central Daylight Time),238090.19999999553,brutal,1000,I,z,z,None,883,683.0,200.0,35,1,2412.0,235678.19999999553,8034,brutal,AF,A,235435,235435,233706,234719,233707,236118,235235,235235,236118,29
28,test,1,con,1,m,Fri Mar 28 2025 15:55:32 GMT-0500 (Central Daylight Time),240256.09999999404,step,1000,I,m,m,None,626,427.0,199.0,67,1,2162.2999999970198,238093.79999999702,8034,step,AF,A,237851,237851,236122,237135,236122,238284,237652,237652,238284,30
29,test,1,con,1,z,Fri Mar 28 2025 15:55:32 GMT-0500 (Central Daylight Time),242288.8999999985,kind,1100,I,z,z,None,393,193.0,200.0,12,1,2028.8999999985099,240260.0,8034,kind,AF,A,240117,240117,238288,239401,238288,240317,239917,239917,240317,31
30,test,1,inc,1,m,Fri Mar 28 2025 15:55:32 GMT-0500 (Central Daylight Time),244271.3999999985,rage,800,I,m,m,None,635,436.0,199.0,77,1,1978.5,242292.8999999985,8034,rock,AF,A,241850,241850,240321,241134,240321,242299,241651,241651,242299,32
31,test,1,con,1,z,Fri Mar 28 2025 15:55:32 GMT-0500 (Central Daylight Time),246454.29999999702,rage,1100,I,z,z,None,544,345.0,199.0,52,1,2179.2000000029802,244275.09999999404,8034,rage,AF,A,244133,244133,242303,243416,242303,244482,243933,243933,244482,33
32,test,1,con,1,m,Fri Mar 28 2025 15:55:32 GMT-0500 (Central Daylight Time),248870.09999999404,film,1100,I,m,m,None,771,571.0,200.0,92,1,2412.0999999940395,246458.0,8034,film,AF,A,246315,246315,244486,245599,244486,246898,246115,246115,246898,34
33,test,1,inc,1,m,Fri Mar 28 2025 15:55:32 GMT-0500 (Central Daylight Time),251003.0,brutal,900,I,m,m,None,697,498.0,199.0,126,1,2129.0,248874.0,8034,window,AF,A,248531,248532,246902,247815,246902,249031,248332,248332,249031,35
34,test,1,inc,1,z,Fri Mar 28 2025 15:55:32 GMT-0500 (Central Daylight Time),253403.19999999553,window,1100,I,z,z,None,767,567.0,200.0,32,1,2396.5,251006.69999999553,8034,friend,AF,A,250864,250864,249035,250147,249035,251431,250664,250664,251431,36
35,test,1,con,1,m,Fri Mar 28 2025 15:55:32 GMT-0500 (Central Daylight Time),255651.29999999702,window,900,I,m,m,None,807,607.0,200.0,122,1,2244.60000000149,253406.69999999553,8034,window,AF,A,253063,253063,251435,252347,251435,253680,252863,252863,253679,37
36,test,1,con,1,m,Fri Mar 28 2025 15:55:32 GMT-0500 (Central Daylight Time),257917.5,jacket,1100,I,m,m,None,629,430.0,199.0,100,1,2262.10000000149,255655.3999999985,8034,jacket,AF,A,255512,255512,253683,254796,253684,255946,255313,255313,255946,38
37,test,1,con,1,z,Fri Mar 28 2025 15:55:32 GMT-0500 (Central Daylight Time),259966.69999999553,elated,1100,I,z,z,None,401,195.0,206.0,4,1,2045.3999999985099,257921.29999999702,8034,elated,AF,A,257795,257795,255949,257062,255950,257995,257589,257589,257995,39
38,test,1,inc,1,m,Fri Mar 28 2025 15:55:32 GMT-0500 (Central Daylight Time),261899.19999999553,elated,800,I,m,m,None,598,398.0,200.0,109,1,1928.6000000014901,259970.59999999404,8034,napkin,AF,A,259528,259528,257999,258812,257999,259927,259328,259328,259927,40
39,test,1,con,1,m,Fri Mar 28 2025 15:55:32 GMT-0500 (Central Daylight Time),263948.8999999985,rock,900,I,m,m,None,612,413.0,199.0,74,1,2046.3000000044703,261902.59999999404,8034,rock,AF,A,261560,261561,259931,260844,259931,261977,261361,261361,261977,41
40,test,1,inc,1,m,Fri Mar 28 2025 15:55:32 GMT-0500 (Central Daylight Time),266048.19999999553,kind,900,I,m,m,None,660,460.0,200.0,86,1,2095.2999999970198,263952.8999999985,8034,bell,AF,A,263610,263610,261981,262893,261981,264076,263410,263410,264076,42
41,test,1,con,1,z,Fri Mar 28 2025 15:55:32 GMT-0500 (Central Daylight Time),267780.8999999985,kind,800,I,z,z,None,389,188.0,201.0,9,1,1728.8999999985099,266052.0,8034,kind,AF,A,265610,265610,264080,264893,264080,265809,265409,265409,265809,43
42,test,1,con,1,m,Fri Mar 28 2025 15:55:32 GMT-0500 (Central Daylight Time),269830.299999997,window,800,I,m,m,None,704,504.0,200.0,121,1,2045.7000000029802,267784.59999999404,8034,window,AF,A,267342,267342,265813,266626,265813,267858,267142,267142,267858,44
43,test,1,con,1,z,Fri Mar 28 2025 15:55:32 GMT-0500 (Central Daylight Time),271796.299999997,rage,900,I,z,z,None,530,331.0,199.0,50,1,1961.7999999970198,269834.5,8034,rage,AF,A,269491,269491,267863,268775,267863,269824,269292,269292,269824,45
44,test,1,con,1,z,Fri Mar 28 2025 15:55:32 GMT-0500 (Central Daylight Time),274012.19999999553,hate,900,I,z,z,None,779,580.0,199.0,42,1,2211.89999999851,271800.299999997,8034,hate,AF,A,271458,271458,269828,270741,269829,272040,271258,271258,272040,46
45,test,1,con,1,z,Fri Mar 28 2025 15:55:32 GMT-0500 (Central Daylight Time),275761.69999999553,brutal,800,I,z,z,None,400,201.0,199.0,33,1,1745.5,274016.19999999553,8034,brutal,AF,A,273573,273573,272044,272857,272045,273790,273374,273374,273790,47
46,test,1,inc,1,z,Fri Mar 28 2025 15:55:32 GMT-0500 (Central Daylight Time),277794.5,napkin,900,I,z,z,None,598,399.0,199.0,62,1,2029.3000000044703,275765.19999999553,8034,temper,AF,A,275423,275423,273793,274707,273794,275823,275223,275223,275822,48
47,test,1,con,1,m,Fri Mar 28 2025 15:55:32 GMT-0500 (Central Daylight Time),279893.69999999553,rock,1000,I,m,m,None,554,355.0,199.0,75,1,2095.39999999851,277798.299999997,8034,rock,AF,A,277555,277555,275826,276839,275827,277922,277356,277356,277922,49
48,test,1,con,1,z,Fri Mar 28 2025 15:55:32 GMT-0500 (Central Daylight Time),281560.0,love,800,I,z,z,None,327,127.0,200.0,17,1,1662.3000000044703,279897.69999999553,8034,love,AF,A,279455,279455,277926,278740,277926,279588,279255,279255,279588,50
49,test,1,con,1,m,Fri Mar 28 2025 15:55:32 GMT-0500 (Central Daylight Time),283609.3999999985,rock,800,I,m,m,None,639,435.0,204.0,73,1,2045.6000000014901,281563.799999997,8034,rock,AF,A,281187,281187,279592,280405,279592,281637,280983,280983,281637,51
50,test,1,con,1,z,Fri Mar 28 2025 15:55:32 GMT-0500 (Central Daylight Time),285475.09999999404,friend,1000,I,z,z,None,323,124.0,199.0,27,1,1862.0,283613.09999999404,8034,friend,AF,A,283370,283370,281641,282654,281641,283503,283171,283171,283503,52
51,test,1,con,1,m,Fri Mar 28 2025 15:55:32 GMT-0500 (Central Daylight Time),287474.69999999553,rock,1100,I,m,m,None,356,157.0,199.0,76,1,1995.0,285479.69999999553,8034,rock,AF,A,285336,285337,283508,284620,283508,285503,285137,285137,285503,53
52,test,1,inc,1,z,Fri Mar 28 2025 15:55:32 GMT-0500 (Central Daylight Time),289441.09999999404,step,800,I,z,z,None,618,418.0,200.0,45,1,1962.5999999940395,287478.5,8034,hate,AF,A,287036,287036,285507,286320,285507,287469,286836,286836,287469,54
53,test,1,inc,1,m,Fri Mar 28 2025 15:55:32 GMT-0500 (Central Daylight Time),291756.799999997,hate,1100,I,m,m,None,672,472.0,200.0,80,1,2311.60000000149,289445.19999999553,8034,rock,AF,A,289302,289302,287473,288585,287474,289785,289102,289102,289785,55
54,test,1,inc,1,m,Fri Mar 28 2025 15:55:32 GMT-0500 (Central Daylight Time),293939.3999999985,temper,1000,I,m,m,None,648,448.0,200.0,111,1,2178.39999999851,291761.0,8034,napkin,AF,A,291518,291518,289789,290801,289789,291967,291318,291318,291967,56
54,test,1,con,0,z,Fri Mar 28 2025 15:55:32 GMT-0500 (Central Daylight Time),295788.69999999553,friend,900,I,m,m,None,405,206.0,199.0,26,1,1845.7999999970198,293942.8999999985,8034,friend,AF,A,293600,293600,291971,292884,291971,293817,293401,293401,293817,57
55,test,1,con,1,z,Fri Mar 28 2025 15:55:32 GMT-0500 (Central Daylight Time),297871.69999999553,hate,1000,I,z,z,None,536,336.0,200.0,43,1,2078.7999999970198,295792.8999999985,8034,hate,AF,A,295550,295550,293821,294834,293821,295900,295350,295350,295900,58
56,test,1,inc,1,z,Fri Mar 28 2025 15:55:32 GMT-0500 (Central Daylight Time),299754.19999999553,step,800,I,z,z,None,540,341.0,199.0,21,1,1878.7999999970198,297875.3999999985,8034,love,AF,A,297433,297433,295903,296716,295904,297782,297233,297233,297782,59
57,test,1,inc,1,z,Fri Mar 28 2025 15:55:32 GMT-0500 (Central Daylight Time),301670.19999999553,napkin,900,I,z,z,None,470,271.0,199.0,30,1,1912.0,299758.19999999553,8034,friend,AF,A,299415,299415,297786,298699,297787,299698,299216,299216,299698,60
58,test,1,inc,1,z,Fri Mar 28 2025 15:55:32 GMT-0500 (Central Daylight Time),303819.59999999404,rock,900,I,z,z,None,706,507.0,199.0,22,1,2145.5999999940395,301674.0,8034,love,AF,A,301331,301331,299702,300615,299702,301848,301132,301132,301848,61
59,test,1,con,1,z,Fri Mar 28 2025 15:55:32 GMT-0500 (Central Daylight Time),306118.8999999985,temper,1100,I,z,z,None,660,461.0,199.0,60,1,2295.39999999851,303823.5,8034,temper,AF,A,303681,303681,301852,302965,301852,304147,303481,303481,304147,62
60,test,1,inc,1,z,Fri Mar 28 2025 15:55:32 GMT-0500 (Central Daylight Time),308268.19999999553,film,1100,I,z,z,None,506,306.0,200.0,24,1,2145.1999999955297,306123.0,8034,love,AF,A,305980,305980,304151,305264,304151,306296,305780,305780,306296,63
61,test,1,inc,1,z,Fri Mar 28 2025 15:55:32 GMT-0500 (Central Daylight Time),310384.09999999404,bell,1000,I,z,z,None,568,369.0,199.0,15,1,2112.0,308272.09999999404,8034,kind,AF,A,308029,308029,306300,307313,306300,308412,307830,307830,308412,64
62,test,1,inc,1,m,Fri Mar 28 2025 15:55:32 GMT-0500 (Central Daylight Time),312600.5,temper,1000,I,m,m,None,667,452.0,215.0,119,1,2212.2000000029802,310388.299999997,8034,remote,AF,A,310162,310162,308416,309429,308417,310629,309947,309947,310629,65
63,test,1,con,1,m,Fri Mar 28 2025 15:55:32 GMT-0500 (Central Daylight Time),314699.69999999553,jacket,1000,I,m,m,None,563,348.0,215.0,99,1,2095.5,312604.19999999553,8034,jacket,AF,A,312378,312378,310632,311645,310633,312728,312163,312163,312728,66
64,test,1,con,1,m,Fri Mar 28 2025 15:55:32 GMT-0500 (Central Daylight Time),316699.0,step,900,I,m,m,None,564,365.0,199.0,66,1,1995.3000000044703,314703.69999999553,8034,step,AF,A,314361,314361,312732,313644,312732,314727,314161,314161,314727,67
65,test,1,inc,1,z,Fri Mar 28 2025 15:55:32 GMT-0500 (Central Daylight Time),319081.3999999985,film,1100,I,z,z,None,734,534.0,200.0,56,1,2379.0,316702.3999999985,8034,rage,AF,A,316560,316560,314730,315843,314731,317109,316360,316360,317109,68
66,test,1,inc,1,z,Fri Mar 28 2025 15:55:32 GMT-0500 (Central Daylight Time),320981.0,jacket,800,I,z,z,None,554,355.0,199.0,5,1,1895.7000000029802,319085.299999997,8034,elated,AF,A,318643,318643,317113,317926,317114,319009,318443,318443,319009,69
67,test,1,con,1,m,Fri Mar 28 2025 15:55:32 GMT-0500 (Central Daylight Time),322930.5,napkin,800,I,m,m,None,616,416.0,200.0,105,1,1945.3000000044703,320985.19999999553,8034,napkin,AF,A,320542,320542,319013,319826,319014,320959,320342,320342,320959,70
68,test,1,inc,1,z,Fri Mar 28 2025 15:55:32 GMT-0500 (Central Daylight Time),324879.799999997,jacket,800,I,z,z,None,609,410.0,199.0,61,1,1945.6000000014901,322934.19999999553,8034,temper,AF,A,322492,322492,320962,321775,320963,322908,322292,322292,322908,71
69,test,1,con,1,z,Fri Mar 28 2025 15:55:32 GMT-0500 (Central Daylight Time),326997.09999999404,temper,1000,I,z,z,None,580,381.0,199.0,59,1,2113.5999999940395,324883.5,8034,temper,AF,A,324641,324641,322912,323925,322912,325025,324441,324441,325025,72
70,test,1,con,1,z,Fri Mar 28 2025 15:55:32 GMT-0500 (Central Daylight Time),328995.19999999553,love,1000,I,z,z,None,457,257.0,200.0,19,1,1994.0,327001.19999999553,8034,love,AF,A,326757,326757,325029,326041,325030,327023,326557,326557,327023,73
71,test,1,con,1,z,Fri Mar 28 2025 15:55:32 GMT-0500 (Central Daylight Time),330794.59999999404,elated,800,I,z,z,None,466,266.0,200.0,1,1,1794.7999999970198,328999.799999997,8034,elated,AF,A,328556,328556,327028,327840,327028,328823,328356,328356,328823,74
72,test,1,con,1,z,Fri Mar 28 2025 15:55:32 GMT-0500 (Central Daylight Time),332610.59999999404,brutal,900,I,z,z,None,373,174.0,199.0,34,1,1812.5999999940395,330798.0,8034,brutal,AF,A,330456,330456,328826,329739,328826,330639,330256,330256,330639,75
73,test,1,con,1,m,Fri Mar 28 2025 15:55:32 GMT-0500 (Central Daylight Time),334443.299999997,jacket,900,I,m,m,None,398,198.0,200.0,98,1,1828.7999999970198,332614.5,8034,jacket,AF,A,332272,332272,330643,331555,330643,332471,332072,332072,332471,76
74,test,1,inc,1,m,Fri Mar 28 2025 15:55:32 GMT-0500 (Central Daylight Time),336727.299999997,temper,1000,I,m,m,None,744,545.0,199.0,127,1,2280.10000000149,334447.19999999553,8034,window,AF,A,334205,334205,332475,333488,332476,334755,334005,334005,334755,77
75,test,1,con,1,m,Fri Mar 28 2025 15:55:32 GMT-0500 (Central Daylight Time),338625.59999999404,bell,800,I,m,m,None,549,350.0,199.0,81,1,1894.5,336731.09999999404,8034,bell,AF,A,336287,336288,334759,335571,334759,336654,336087,336088,336654,78
76,test,1,inc,1,m,Fri Mar 28 2025 15:55:32 GMT-0500 (Central Daylight Time),340924.69999999553,hate,1100,I,m,m,None,655,456.0,199.0,96,1,2295.2999999970198,338629.3999999985,8034,film,AF,A,338486,338486,336657,337770,336658,338953,338287,338287,338953,79
77,test,1,con,1,m,Fri Mar 28 2025 15:55:32 GMT-0500 (Central Daylight Time),343307.19999999553,remote,1100,I,m,m,None,756,557.0,199.0,116,1,2378.7999999970198,340928.3999999985,8034,remote,AF,A,340769,340769,338956,340069,338957,341335,340570,340570,341335,80
78,test,1,inc,1,m,Fri Mar 28 2025 15:55:32 GMT-0500 (Central Daylight Time),345839.69999999553,friend,1100,I,m,m,None,892,693.0,199.0,120,1,2528.60000000149,343311.09999999404,8034,remote,AF,A,343169,343169,341339,342452,341340,343868,342969,342969,343868,81
79,test,1,inc,1,z,Fri Mar 28 2025 15:55:32 GMT-0500 (Central Daylight Time),348089.19999999553,film,1100,I,z,z,None,609,409.0,200.0,48,1,2245.7999999970198,345843.3999999985,8034,hate,AF,A,345701,345701,343871,344984,343872,346117,345501,345501,346117,82
80,test,1,inc,1,z,Fri Mar 28 2025 15:55:32 GMT-0500 (Central Daylight Time),350122.299999997,napkin,900,I,z,z,None,590,391.0,199.0,38,1,2029.2999999970198,348093.0,8034,brutal,AF,A,347751,347751,346121,347034,346121,348150,347551,347551,348150,83
81,test,1,inc,1,m,Fri Mar 28 2025 15:55:32 GMT-0500 (Central Daylight Time),352221.0,brutal,900,I,m,m,None,655,455.0,200.0,118,1,2094.60000000149,350126.3999999985,8034,remote,AF,A,349783,349783,348154,349067,348155,350249,349583,349583,350249,84
82,test,1,con,1,m,Fri Mar 28 2025 15:55:32 GMT-0500 (Central Daylight Time),354537.09999999404,napkin,1100,I,m,m,None,676,475.0,201.0,108,1,2312.0,352225.09999999404,8034,napkin,AF,A,352083,352083,350253,351366,350254,352565,351882,351882,352565,85
83,test,1,inc,1,z,Fri Mar 28 2025 15:55:32 GMT-0500 (Central Daylight Time),356686.3999999985,remote,1000,I,z,z,None,611,412.0,199.0,31,1,2145.10000000149,354541.299999997,8034,friend,AF,A,354298,354298,352569,353582,352570,354714,354099,354099,354714,86
84,test,1,inc,1,z,Fri Mar 28 2025 15:55:32 GMT-0500 (Central Daylight Time),358552.59999999404,jacket,800,I,z,z,None,525,326.0,199.0,29,1,1862.5999999940395,356690.0,8034,friend,AF,A,356248,356248,354718,355531,354718,356581,356048,356048,356581,87
85,test,1,con,1,m,Fri Mar 28 2025 15:55:32 GMT-0500 (Central Daylight Time),360852.0,window,1100,I,m,m,None,664,465.0,199.0,124,1,2295.5,358556.5,8034,window,AF,A,358413,358413,356585,357697,356585,358880,358214,358214,358880,88
86,test,1,inc,1,m,Fri Mar 28 2025 15:55:32 GMT-0500 (Central Daylight Time),362817.8999999985,elated,800,I,m,m,None,624,425.0,199.0,101,1,1962.3000000044703,360855.59999999404,8034,jacket,AF,A,360413,360413,358884,359697,358884,360846,360214,360214,360846,89
87,test,1,inc,1,m,Fri Mar 28 2025 15:55:32 GMT-0500 (Central Daylight Time),364800.69999999553,kind,900,I,m,m,None,543,343.0,200.0,70,1,1979.1999999955297,362821.5,8034,step,AF,A,362479,362479,360850,361763,360850,362829,362279,362279,362829,90
88,test,1,inc,1,m,Fri Mar 28 2025 15:55:32 GMT-0500 (Central Daylight Time),366866.5,kind,900,I,m,m,None,623,424.0,199.0,78,1,2061.60000000149,364804.8999999985,8034,rock,AF,A,364462,364462,362833,363746,362833,364895,364262,364262,364895,91
89,test,1,inc,1,m,Fri Mar 28 2025 15:55:32 GMT-0500 (Central Daylight Time),368732.799999997,rage,800,I,m,m,None,521,322.0,199.0,69,1,1862.2000000029802,366870.59999999404,8034,step,AF,A,366428,366428,364899,365711,364899,366761,366228,366228,366761,92
90,test,1,inc,1,m,Fri Mar 28 2025 15:55:32 GMT-0500 (Central Daylight Time),370982.0,hate,1100,I,m,m,None,603,404.0,199.0,88,1,2245.5,368736.5,8034,bell,AF,A,368594,368594,366765,367877,366765,369010,368394,368394,369010,93
91,test,1,con,1,m,Fri Mar 28 2025 15:55:32 GMT-0500 (Central Daylight Time),373014.59999999404,step,1100,I,m,m,None,395,195.0,200.0,68,1,2028.8999999985099,370985.69999999553,8034,step,AF,A,370843,370843,369014,370127,369014,371043,370643,370643,371043,94
91,test,1,con,0,z,Fri Mar 28 2025 15:55:32 GMT-0500 (Central Daylight Time),374964.09999999404,kind,1000,I,m,m,None,413,214.0,199.0,11,1,1945.7999999970198,373018.299999997,8034,kind,AF,A,372776,372776,371046,372060,371047,372992,372576,372576,372992,95
92,test,1,inc,1,m,Fri Mar 28 2025 15:55:32 GMT-0500 (Central Daylight Time),377208.3999999985,love,1000,I,m,m,None,569,369.0,200.0,79,1,2240.2000000029802,374968.19999999553,8034,rock,AF,A,374725,374725,372996,374009,372996,375236,374525,374525,375236,96
93,test,1,inc,1,z,Fri Mar 28 2025 15:55:32 GMT-0500 (Central Daylight Time),379262.69999999553,bell,1000,I,z,z,None,510,311.0,199.0,47,1,2050.60000000149,377212.09999999404,8034,hate,AF,A,376975,376975,375240,376258,375241,377291,376774,376775,377291,97
94,test,1,con,1,z,Fri Mar 28 2025 15:55:32 GMT-0500 (Central Daylight Time),381162.299999997,love,900,I,z,z,None,466,266.0,200.0,18,1,1895.8999999985099,379266.3999999985,8034,love,AF,A,378924,378924,377294,378208,377295,379190,378724,378724,379190,98
95,test,1,con,1,m,Fri Mar 28 2025 15:55:32 GMT-0500 (Central Daylight Time),383394.5,bell,1100,I,m,m,None,598,399.0,199.0,84,1,2228.8000000044703,381165.69999999553,8034,bell,AF,A,381023,381023,379194,380307,379194,381423,380824,380824,381423,99
96,test,1,con,1,z,Fri Mar 28 2025 15:55:32 GMT-0500 (Central Daylight Time),385344.0,rage,1000,I,z,z,None,410,210.0,200.0,51,1,1945.9000000059605,383398.09999999404,8034,rage,AF,A,383156,383156,381426,382440,381427,383372,382956,382956,383372,100
97,test,1,inc,1,m,Fri Mar 28 2025 15:55:32 GMT-0500 (Central Daylight Time),387360.0,rage,800,I,m,m,None,676,476.0,200.0,85,1,2012.5,385347.5,8034,bell,AF,A,384905,384906,383376,384189,383376,385388,384705,384705,385388,101
98,test,1,inc,1,m,Fri Mar 28 2025 15:55:32 GMT-0500 (Central Daylight Time),389609.59999999404,friend,1100,I,m,m,None,608,409.0,199.0,112,1,2246.0,387363.59999999404,8034,napkin,AF,A,387221,387221,385392,386505,385392,387638,387022,387022,387638,102
99,test,1,inc,1,z,Fri Mar 28 2025 15:55:32 GMT-0500 (Central Daylight Time),391558.8999999985,rock,900,I,z,z,None,510,311.0,199.0,46,1,1945.6000000014901,389613.299999997,8034,hate,AF,A,389271,389271,387641,388554,387642,389587,389071,389071,389587,103
99,test,1,inc,0,m,Fri Mar 28 2025 15:55:32 GMT-0500 (Central Daylight Time),393591.3999999985,love,1000,I,z,z,None,486,286.0,200.0,95,1,2028.8000000044703,391562.59999999404,8034,film,AF,A,391320,391320,389591,390604,389591,391619,391120,391120,391619,104
100,test,1,inc,1,m,Fri Mar 28 2025 15:55:32 GMT-0500 (Central Daylight Time),395624.19999999553,kind,900,I,m,m,None,593,393.0,200.0,94,1,2029.1999999955297,393595.0,8034,film,AF,A,393253,393253,391623,392536,391623,393652,393053,393053,393652,105
101,test,1,inc,1,m,Fri Mar 28 2025 15:55:32 GMT-0500 (Central Daylight Time),397523.59999999404,elated,800,I,m,m,None,564,364.0,200.0,117,1,1895.5,395628.09999999404,8034,remote,AF,A,395186,395186,393656,394469,393656,395552,394986,394986,395552,106
102,test,1,con,1,m,Fri Mar 28 2025 15:55:32 GMT-0500 (Central Daylight Time),399490.0,window,1000,I,m,m,None,417,217.0,200.0,123,1,1962.7000000029802,397527.299999997,8034,window,AF,A,397285,397285,395555,396568,395556,397518,397085,397085,397518,107
103,test,1,inc,1,z,Fri Mar 28 2025 15:55:32 GMT-0500 (Central Daylight Time),401772.09999999404,film,1100,I,z,z,None,656,456.0,200.0,16,1,2278.2999999970198,399493.799999997,8034,kind,AF,A,399334,399334,397522,398633,397522,399800,399134,399134,399800,108
104,test,1,inc,1,z,Fri Mar 28 2025 15:55:32 GMT-0500 (Central Daylight Time),403905.0,bell,1000,I,z,z,None,584,385.0,199.0,55,1,2129.10000000149,401775.8999999985,8034,rage,AF,A,401533,401533,399804,400817,399804,401933,401334,401334,401933,109
105,test,1,inc,1,z,Fri Mar 28 2025 15:55:32 GMT-0500 (Central Daylight Time),406088.8999999985,window,1100,I,z,z,None,536,336.0,200.0,40,1,2179.89999999851,403909.0,8034,brutal,AF,A,403766,403766,401937,403050,401937,404117,403566,403566,404117,110
106,test,1,con,1,m,Fri Mar 28 2025 15:55:32 GMT-0500 (Central Daylight Time),408203.799999997,napkin,1000,I,m,m,None,581,381.0,200.0,107,1,2110.60000000149,406093.19999999553,8034,napkin,AF,A,405849,405849,404121,405132,404121,406232,405649,405649,406232,111
107,test,1,inc,1,z,Fri Mar 28 2025 15:55:32 GMT-0500 (Central Daylight Time),410103.19999999553,step,800,I,z,z,None,561,361.0,200.0,13,1,1895.7999999970198,408207.3999999985,8034,kind,AF,A,407765,407765,406235,407049,406236,408131,407565,407565,408131,112
108,test,1,con,1,m,Fri Mar 28 2025 15:55:32 GMT-0500 (Central Daylight Time),412219.0,remote,900,I,m,m,None,674,474.0,200.0,114,1,2112.10000000149,410106.8999999985,8034,remote,AF,A,409764,409764,408135,409048,408135,410247,409564,409564,410247,113
109,test,1,inc,1,m,Fri Mar 28 2025 15:55:32 GMT-0500 (Central Daylight Time),414351.69999999553,rage,800,I,m,m,None,785,586.0,199.0,93,1,2128.7999999970198,412222.8999999985,8034,film,AF,A,411780,411780,410251,411064,410251,412380,411581,411581,412380,114
110,test,1,inc,1,z,Fri Mar 28 2025 15:55:32 GMT-0500 (Central Daylight Time),416651.0,window,1100,I,z,z,None,656,457.0,199.0,8,1,2295.4000000059605,414355.59999999404,8034,elated,AF,A,414213,414213,412384,413496,412384,414679,414013,414013,414679,115
111,test,1,inc,1,m,Fri Mar 28 2025 15:55:32 GMT-0500 (Central Daylight Time),418917.09999999404,hate,1100,I,m,m,None,622,422.0,200.0,72,1,2262.1999999955297,416654.8999999985,8034,step,AF,A,416512,416512,414683,415796,414683,416945,416312,416312,416945,116
112,test,1,inc,1,z,Fri Mar 28 2025 15:55:32 GMT-0500 (Central Daylight Time),421049.59999999404,remote,1000,I,z,z,None,584,384.0,200.0,63,1,2128.6999999955297,418920.8999999985,8034,temper,AF,A,418678,418678,416949,417962,416949,419078,418478,418478,419078,117
113,test,1,inc,1,z,Fri Mar 28 2025 15:55:32 GMT-0500 (Central Daylight Time),423015.69999999553,rock,900,I,z,z,None,535,336.0,199.0,54,1,1962.3999999985099,421053.299999997,8034,rage,AF,A,420694,420694,419081,419994,419082,421044,420495,420495,421044,118
114,test,1,inc,1,m,Fri Mar 28 2025 15:55:32 GMT-0500 (Central Daylight Time),425348.19999999553,friend,1100,I,m,m,None,714,514.0,200.0,104,1,2328.89999999851,423019.299999997,8034,jacket,AF,A,422860,422860,421047,422154,421048,423376,422660,422660,423376,119
115,test,1,inc,1,z,Fri Mar 28 2025 15:55:32 GMT-0500 (Central Daylight Time),427231.19999999553,jacket,800,I,z,z,None,544,344.0,200.0,37,1,1879.3999999985099,425351.799999997,8034,brutal,AF,A,424909,424910,423380,424193,423380,425259,424709,424709,425259,120
116,test,1,inc,1,m,Fri Mar 28 2025 15:55:32 GMT-0500 (Central Daylight Time),429380.5,love,1000,I,m,m,None,606,406.0,200.0,71,1,2145.4000000059605,427235.09999999404,8034,step,AF,A,426992,426992,425263,426276,425264,427409,426792,426792,427408,121
117,test,1,inc,1,m,Fri Mar 28 2025 15:55:32 GMT-0500 (Central Daylight Time),431462.8999999985,love,1000,I,m,m,None,537,337.0,200.0,87,1,2078.8000000044703,429384.09999999404,8034,bell,AF,A,429141,429141,427412,428425,427413,429491,428941,428941,429491,122
118,test,1,con,1,z,Fri Mar 28 2025 15:55:32 GMT-0500 (Central Daylight Time),433762.19999999553,brutal,1100,I,z,z,None,650,450.0,200.0,36,1,2295.39999999851,431466.799999997,8034,brutal,AF,A,431324,431324,429495,430608,429495,431790,431124,431124,431790,123
119,test,1,con,1,z,Fri Mar 28 2025 15:55:32 GMT-0500 (Central Daylight Time),435811.799999997,kind,900,I,z,z,None,615,415.0,200.0,10,1,2045.7999999970198,433766.0,8034,kind,AF,A,433423,433423,431794,432708,431794,433840,433223,433223,433840,124
120,test,1,inc,1,z,Fri Mar 28 2025 15:55:32 GMT-0500 (Central Daylight Time),437711.299999997,step,800,I,z,z,None,553,353.0,200.0,53,1,1895.7999999970198,435815.5,8034,rage,AF,A,435373,435373,433844,434656,433844,435739,435173,435173,435739,125
120,test,1,con,0,z,Fri Mar 28 2025 15:55:32 GMT-0500 (Central Daylight Time),439943.8999999985,friend,1100,I,m,m,None,586,386.0,200.0,28,1,2228.5,437715.3999999985,8034,friend,AF,A,437572,437572,435743,436856,435744,437972,437372,437372,437972,126
120,test,1,con,0,z,Fri Mar 28 2025 15:55:32 GMT-0500 (Central Daylight Time),441926.3999999985,temper,900,I,m,m,None,536,337.0,199.0,58,1,1978.8000000044703,439947.59999999404,8034,temper,AF,A,439605,439605,437976,438889,437976,439954,439405,439405,439954,127
121,test,1,con,1,m,Fri Mar 28 2025 15:55:32 GMT-0500 (Central Daylight Time),444058.799999997,bell,1000,I,m,m,None,598,399.0,199.0,83,1,2128.7000000029802,441930.09999999404,8034,bell,AF,A,441687,441687,439958,440971,439958,442087,441488,441488,442087,128
