Q,Q1,Q2,Q3,Q4,acc_sum,block,block_c,correct,correct_response,datetime,endtime,project,response,response_time,row_sel,session_number,squiggle1,squiggle1x,squiggle1y,squiggle2,squiggle2x,squiggle2y,squiggle3,squiggle3x,squiggle3y,squiggle4,squiggle4x,squiggle4y,start_end,starttime,subject_id,target_congruent,task,task_vers,testsquiggle,testsquigglex,testsquiggley,time_practice_delay,time_practice_fixation,time_practice_stimuli,time_practice_study,time_test_delay,time_test_fixation,time_test_stimuli,time_test_study,trial
1,1,0,0,0,0,prac,1,0,z,Wed Nov 06 2024 15:05:35 GMT-0600 (Central Standard Time),157168.70000004768,O,None,2015,1,1,66.bmp,-120,-120,67.bmp,120,-120,68.bmp,-120,120,69.bmp,120,120,10830.900000095367,146337.79999995232,7033,yes,SM,C,66.bmp,-120,-120,145245,139214,147262,141231,,,,,1
3,0,0,1,0,0,prac,1,0,m,Wed Nov 06 2024 15:05:35 GMT-0600 (Central Standard Time),167681.90000009537,O,z,1666,2,1,70.bmp,-120,-120,71.bmp,120,-120,72.bmp,-120,120,73.bmp,120,120,10495.900000095367,157186.0,7033,no,SM,C,73.bmp,-120,120,156092,150062,158108,152077,,,,,2
4,0,0,0,1,1,prac,1,1,m,Wed Nov 06 2024 15:05:35 GMT-0600 (Central Standard Time),177595.40000009537,O,m,1073,3,1,74.bmp,-120,-120,75.bmp,120,-120,76.bmp,-120,120,77.bmp,120,120,9897.200000047684,167698.20000004768,7033,no,SM,C,74.bmp,120,120,166605,160574,168622,162590,,,,,3
2,0,1,0,0,2,prac,1,1,z,Wed Nov 06 2024 15:05:35 GMT-0600 (Central Standard Time),188258.79999995232,O,z,1825,4,1,78.bmp,-120,-120,79.bmp,120,-120,80.bmp,-120,120,81.bmp,120,120,10648.899999856949,177609.90000009537,7033,yes,SM,C,79.bmp,120,-120,176518,170486,178535,172504,,,,,4
3,0,0,1,0,2,prac,1,0,z,Wed Nov 06 2024 15:05:35 GMT-0600 (Central Standard Time),199104.70000004768,O,None,2014,5,1,82.bmp,-120,-120,83.bmp,120,-120,84.bmp,-120,120,85.bmp,120,120,10830.400000095367,188274.29999995232,7033,yes,SM,C,84.bmp,-120,120,187181,181151,189198,183166,,,,,5
1,1,0,0,0,2,prac,1,0,m,Wed Nov 06 2024 15:05:35 GMT-0600 (Central Standard Time),209518.0,O,z,1578,6,1,86.bmp,-120,-120,87.bmp,120,-120,88.bmp,-120,120,89.bmp,120,120,10398.900000095367,199119.09999990463,7033,no,SM,C,89.bmp,-120,-120,198028,191995,200045,194013,,,,,6
2,0,1,0,0,2,prac,1,0,m,Wed Nov 06 2024 15:05:35 GMT-0600 (Central Standard Time),220131.20000004768,O,z,1773,7,1,90.bmp,-120,-120,91.bmp,120,-120,92.bmp,-120,120,93.bmp,120,120,10597.600000143051,209533.59999990463,7033,no,SM,C,90.bmp,120,-120,208441,202409,210458,204425,,,,,7
4,0,0,0,1,3,prac,1,1,z,Wed Nov 06 2024 15:05:35 GMT-0600 (Central Standard Time),230861.09999990463,O,z,1889,8,1,94.bmp,-120,-120,95.bmp,120,-120,96.bmp,-120,120,97.bmp,120,120,10715.299999952316,220145.79999995232,7033,yes,SM,C,97.bmp,120,120,219054,213022,221071,215039,,,,,8
1,1,0,0,0,0,prac,2,0,z,Wed Nov 06 2024 15:05:35 GMT-0600 (Central Standard Time),248838.29999995232,O,m,1612,1,1,66.bmp,-120,-120,67.bmp,120,-120,68.bmp,-120,120,69.bmp,120,120,10416.099999904633,238422.20000004768,7033,yes,SM,C,66.bmp,-120,-120,237315,231298,239331,233300,,,,,1
3,0,0,1,0,0,prac,2,0,m,Wed Nov 06 2024 15:05:35 GMT-0600 (Central Standard Time),259668.0,O,None,2015,2,1,70.bmp,-120,-120,71.bmp,120,-120,72.bmp,-120,120,73.bmp,120,120,10816.299999952316,248851.70000004768,7033,no,SM,C,73.bmp,-120,120,247745,241727,249761,243730,,,,,2
4,0,0,0,1,0,prac,2,0,m,Wed Nov 06 2024 15:05:35 GMT-0600 (Central Standard Time),269614.90000009537,O,z,1120,3,1,74.bmp,-120,-120,75.bmp,120,-120,76.bmp,-120,120,77.bmp,120,120,9933.300000190735,259681.59999990463,7033,no,SM,C,74.bmp,120,120,258575,252558,260591,254560,,,,,3
2,0,1,0,0,1,prac,2,1,z,Wed Nov 06 2024 15:05:35 GMT-0600 (Central Standard Time),279778.40000009537,O,z,1316,4,1,78.bmp,-120,-120,79.bmp,120,-120,80.bmp,-120,120,81.bmp,120,120,10147.5,269630.90000009537,7033,yes,SM,C,79.bmp,120,-120,268538,262506,270555,264523,,,,,4
3,0,0,1,0,1,prac,2,0,z,Wed Nov 06 2024 15:05:35 GMT-0600 (Central Standard Time),290208.2999999523,O,m,1602,5,1,82.bmp,-120,-120,83.bmp,120,-120,84.bmp,-120,120,85.bmp,120,120,10415.799999952316,279792.5,7033,yes,SM,C,84.bmp,-120,120,278685,272668,280701,274670,,,,,5
1,1,0,0,0,1,prac,2,0,m,Wed Nov 06 2024 15:05:35 GMT-0600 (Central Standard Time),300038.2000000477,O,z,1004,6,1,86.bmp,-120,-120,87.bmp,120,-120,88.bmp,-120,120,89.bmp,120,120,9815.700000047684,290222.5,7033,no,SM,C,89.bmp,-120,-120,289115,283098,291131,285100,,,,,6
2,0,1,0,0,2,prac,2,1,m,Wed Nov 06 2024 15:05:35 GMT-0600 (Central Standard Time),310734.59999990463,O,m,1876,7,1,90.bmp,-120,-120,91.bmp,120,-120,92.bmp,-120,120,93.bmp,120,120,10682.799999952316,300051.7999999523,7033,no,SM,C,90.bmp,120,-120,298945,292928,300962,294930,,,,,7
4,0,0,0,1,3,prac,2,1,z,Wed Nov 06 2024 15:05:35 GMT-0600 (Central Standard Time),321414.59999990463,O,z,1861,8,1,94.bmp,-120,-120,95.bmp,120,-120,96.bmp,-120,120,97.bmp,120,120,10665.599999904633,310749.0,7033,yes,SM,C,97.bmp,120,120,309641,303625,311658,305626,,,,,8
4,0,0,0,1,0,test,1,0,m,Wed Nov 06 2024 15:05:35 GMT-0600 (Central Standard Time),345240.40000009537,O,None,2015,1,1,98.bmp,-120,-120,99.bmp,120,-120,100.bmp,-120,120,93.bmp,120,120,10050.700000047684,335189.7000000477,7033,yes,SM,C,100.bmp,120,120,309641,303625,311658,305626,334082.0,328065.0,336100.0,330068.0,1
2,0,1,0,0,0,test,1,0,m,Wed Nov 06 2024 15:05:35 GMT-0600 (Central Standard Time),355303.5,O,None,2015,2,1,51.bmp,-120,-120,52.bmp,120,-120,53.bmp,-120,120,54.bmp,120,120,10049.799999952316,345253.7000000477,7033,yes,SM,C,53.bmp,120,-120,309641,303625,311658,305626,344147.0,338130.0,346163.0,340132.0,2
1,1,0,0,0,1,test,1,1,z,Wed Nov 06 2024 15:05:35 GMT-0600 (Central Standard Time),364550.0,O,z,1198,3,1,55.bmp,-120,-120,56.bmp,120,-120,57.bmp,-120,120,58.bmp,120,120,9233.200000047684,355316.7999999523,7033,yes,SM,C,55.bmp,-120,-120,309641,303625,311658,305626,354210.0,348193.0,356226.0,350195.0,3
3,0,0,1,0,1,test,1,0,m,Wed Nov 06 2024 15:05:35 GMT-0600 (Central Standard Time),374613.59999990463,O,None,2015,4,1,59.bmp,-120,-120,60.bmp,120,-120,61.bmp,-120,120,62.bmp,120,120,10050.899999856949,364562.7000000477,7033,yes,SM,C,59.bmp,-120,120,309641,303625,311658,305626,363458.0,357438.0,365473.0,359442.0,4
2,0,1,0,0,1,test,1,0,z,Wed Nov 06 2024 15:05:35 GMT-0600 (Central Standard Time),384677.0,O,None,2015,5,1,63.bmp,-120,-120,64.bmp,120,-120,65.bmp,-120,120,66.bmp,120,120,10049.799999952316,374627.2000000477,7033,yes,SM,C,64.bmp,120,-120,309641,303625,311658,305626,373520.0,367503.0,375537.0,369505.0,5
3,0,0,1,0,2,test,1,1,z,Wed Nov 06 2024 15:05:35 GMT-0600 (Central Standard Time),393907.09999990463,O,z,1167,6,1,67.bmp,-120,-120,68.bmp,120,-120,69.bmp,-120,120,70.bmp,120,120,9217.399999856949,384689.7000000477,7033,yes,SM,C,69.bmp,-120,120,309641,303625,311658,305626,383583.0,377565.0,385600.0,379569.0,6
4,0,0,0,1,2,test,1,0,z,Wed Nov 06 2024 15:05:35 GMT-0600 (Central Standard Time),403970.7000000477,O,None,2014,7,1,71.bmp,-120,-120,72.bmp,120,-120,73.bmp,-120,120,74.bmp,120,120,10049.700000047684,393921.0,7033,yes,SM,C,74.bmp,120,120,309641,303625,311658,305626,392814.0,386797.0,394831.0,388799.0,7
2,0,1,0,0,3,test,1,1,m,Wed Nov 06 2024 15:05:35 GMT-0600 (Central Standard Time),414033.90000009537,O,m,1993,8,1,75.bmp,-120,-120,76.bmp,120,-120,77.bmp,-120,120,78.bmp,120,120,10048.200000047684,403985.7000000477,7033,yes,SM,C,75.bmp,120,-120,309641,303625,311658,305626,402894.0,396862.0,404910.0,398879.0,8
3,0,0,1,0,4,test,1,1,m,Wed Nov 06 2024 15:05:35 GMT-0600 (Central Standard Time),423080.7999999523,O,m,954,9,1,79.bmp,-120,-120,80.bmp,120,-120,81.bmp,-120,120,82.bmp,120,120,9010.399999856949,414070.40000009537,7033,yes,SM,C,80.bmp,-120,120,309641,303625,311658,305626,412974.0,406946.0,414990.0,408959.0,9
4,0,0,0,1,5,test,1,1,z,Wed Nov 06 2024 15:05:35 GMT-0600 (Central Standard Time),432877.5,O,z,1747,10,1,87.bmp,-120,-120,88.bmp,120,-120,89.bmp,-120,120,90.bmp,120,120,9783.099999904633,423094.40000009537,7033,yes,SM,C,90.bmp,120,120,309641,303625,311658,305626,421988.0,415970.0,424004.0,417973.0,10
3,0,0,1,0,6,test,1,1,z,Wed Nov 06 2024 15:05:35 GMT-0600 (Central Standard Time),441525.09999990463,O,z,582,11,1,83.bmp,-120,-120,84.bmp,120,-120,85.bmp,-120,120,86.bmp,120,120,8632.299999952316,432892.7999999523,7033,yes,SM,C,85.bmp,-120,120,309641,303625,311658,305626,431801.0,425769.0,433818.0,427786.0,11
2,0,1,0,0,7,test,1,1,m,Wed Nov 06 2024 15:05:35 GMT-0600 (Central Standard Time),450671.7999999523,O,m,1087,12,1,91.bmp,-120,-120,92.bmp,120,-120,93.bmp,-120,120,94.bmp,120,120,9133.899999856949,441537.90000009537,7033,yes,SM,C,91.bmp,120,-120,309641,303625,311658,305626,440431.0,434414.0,442448.0,436415.0,12
3,0,0,1,0,7,test,1,0,m,Wed Nov 06 2024 15:05:35 GMT-0600 (Central Standard Time),460735.2999999523,O,None,2015,13,1,95.bmp,-120,-120,96.bmp,120,-120,97.bmp,-120,120,98.bmp,120,120,10051.200000047684,450684.09999990463,7033,yes,SM,C,96.bmp,-120,120,309641,303625,311658,305626,449578.0,443560.0,451595.0,445564.0,13
1,1,0,0,0,8,test,1,1,z,Wed Nov 06 2024 15:05:35 GMT-0600 (Central Standard Time),470397.90000009537,O,z,1604,14,1,99.bmp,-120,-120,100.bmp,120,-120,54.bmp,-120,120,51.bmp,120,120,9649.700000047684,460748.2000000477,7033,yes,SM,C,99.bmp,-120,-120,309641,303625,311658,305626,459642.0,453624.0,461658.0,455627.0,14
4,0,0,0,1,9,test,1,1,m,Wed Nov 06 2024 15:05:35 GMT-0600 (Central Standard Time),480161.90000009537,O,m,1701,15,1,60.bmp,-120,-120,61.bmp,120,-120,62.bmp,-120,120,63.bmp,120,120,9760.400000095367,470401.5,7033,yes,SM,C,61.bmp,120,120,309641,303625,311658,305626,469306.0,463277.0,471322.0,465291.0,15
1,1,0,0,0,9,test,1,0,m,Wed Nov 06 2024 15:05:35 GMT-0600 (Central Standard Time),490225.59999990463,O,None,2015,16,1,52.bmp,-120,-120,53.bmp,120,-120,54.bmp,-120,120,55.bmp,120,120,10050.599999904633,480175.0,7033,yes,SM,C,55.bmp,-120,-120,309641,303625,311658,305626,479069.0,473051.0,481085.0,475054.0,16
3,0,0,1,0,10,test,1,1,m,Wed Nov 06 2024 15:05:35 GMT-0600 (Central Standard Time),499672.2999999523,O,m,1370,17,1,72.bmp,-120,-120,73.bmp,120,-120,74.bmp,-120,120,75.bmp,120,120,9432.5,490239.7999999523,7033,yes,SM,C,72.bmp,-120,120,309641,303625,311658,305626,489149.0,483116.0,491165.0,485134.0,17
1,1,0,0,0,11,test,1,1,z,Wed Nov 06 2024 15:05:35 GMT-0600 (Central Standard Time),509069.40000009537,O,z,1323,18,1,56.bmp,-120,-120,57.bmp,120,-120,58.bmp,-120,120,59.bmp,120,120,9382.600000143051,499686.7999999523,7033,yes,SM,C,56.bmp,-120,-120,309641,303625,311658,305626,498596.0,492563.0,500612.0,494581.0,18
2,0,1,0,0,11,test,1,0,z,Wed Nov 06 2024 15:05:35 GMT-0600 (Central Standard Time),519166.09999990463,O,None,2015,19,1,76.bmp,-120,-120,77.bmp,120,-120,78.bmp,-120,120,79.bmp,120,120,10056.699999809265,509109.40000009537,7033,yes,SM,C,77.bmp,120,-120,309641,303625,311658,305626,508009.0,501985.0,510026.0,503995.0,19
3,0,0,1,0,12,test,1,1,z,Wed Nov 06 2024 15:05:35 GMT-0600 (Central Standard Time),528962.7999999523,O,z,1734,20,1,80.bmp,-120,-120,81.bmp,120,-120,82.bmp,-120,120,83.bmp,120,120,9784.0,519178.7999999523,7033,yes,SM,C,82.bmp,-120,120,309641,303625,311658,305626,518073.0,512055.0,520089.0,514058.0,20
1,1,0,0,0,13,test,1,1,m,Wed Nov 06 2024 15:05:35 GMT-0600 (Central Standard Time),538243.0,O,m,1217,21,1,64.bmp,-120,-120,65.bmp,120,-120,66.bmp,-120,120,67.bmp,120,120,9268.099999904633,528974.9000000954,7033,yes,SM,C,66.bmp,-120,-120,309641,303625,311658,305626,527869.0,521851.0,529886.0,523854.0,21
4,0,0,0,1,13,test,1,0,z,Wed Nov 06 2024 15:05:35 GMT-0600 (Central Standard Time),548306.4000000954,O,None,2015,22,1,68.bmp,-120,-120,69.bmp,120,-120,70.bmp,-120,120,71.bmp,120,120,10050.900000095367,538255.5,7033,yes,SM,C,71.bmp,120,120,309641,303625,311658,305626,537150.0,531131.0,539166.0,533135.0,22
1,1,0,0,0,14,test,1,1,m,Wed Nov 06 2024 15:05:35 GMT-0600 (Central Standard Time),557620.0999999046,O,m,1250,23,1,84.bmp,-120,-120,85.bmp,120,-120,86.bmp,-120,120,87.bmp,120,120,9301.5,548318.5999999046,7033,yes,SM,C,87.bmp,-120,-120,309641,303625,311658,305626,547213.0,541194.0,549230.0,543198.0,23
2,0,1,0,0,14,test,1,0,z,Wed Nov 06 2024 15:05:35 GMT-0600 (Central Standard Time),567683.5,O,None,2015,24,1,92.bmp,-120,-120,93.bmp,120,-120,94.bmp,-120,120,95.bmp,120,120,10049.799999952316,557633.7000000477,7033,yes,SM,C,93.bmp,120,-120,309641,303625,311658,305626,556526.0,550509.0,558543.0,552512.0,24
4,0,0,0,1,15,test,1,1,m,Wed Nov 06 2024 15:05:35 GMT-0600 (Central Standard Time),576930.4000000954,O,m,1184,25,1,96.bmp,-120,-120,97.bmp,120,-120,98.bmp,-120,120,99.bmp,120,120,9233.200000047684,567697.2000000477,7033,yes,SM,C,98.bmp,120,120,309641,303625,311658,305626,566590.0,560573.0,568606.0,562575.0,25
1,1,0,0,0,16,test,1,1,z,Wed Nov 06 2024 15:05:35 GMT-0600 (Central Standard Time),586027.2999999523,O,z,1034,26,1,88.bmp,-120,-120,89.bmp,120,-120,90.bmp,-120,120,91.bmp,120,120,9083.799999952316,576943.5,7033,yes,SM,C,88.bmp,-120,-120,309641,303625,311658,305626,575837.0,569819.0,577853.0,571822.0,26
4,0,0,0,1,17,test,1,1,z,Wed Nov 06 2024 15:05:35 GMT-0600 (Central Standard Time),595757.2999999523,O,z,1673,27,1,100.bmp,-120,-120,61.bmp,120,-120,51.bmp,-120,120,52.bmp,120,120,9715.799999952316,586041.5,7033,yes,SM,C,52.bmp,120,120,309641,303625,311658,305626,584934.0,578917.0,586950.0,580919.0,27
3,0,0,1,0,18,test,1,1,m,Wed Nov 06 2024 15:05:35 GMT-0600 (Central Standard Time),605454.2000000477,O,m,1638,28,1,53.bmp,-120,-120,54.bmp,120,-120,55.bmp,-120,120,56.bmp,120,120,9684.0,595770.2000000477,7033,yes,SM,C,53.bmp,-120,120,309641,303625,311658,305626,594664.0,588646.0,596681.0,590649.0,28
2,0,1,0,0,19,test,1,1,z,Wed Nov 06 2024 15:05:35 GMT-0600 (Central Standard Time),615034.2999999523,O,z,1526,29,1,57.bmp,-120,-120,58.bmp,120,-120,59.bmp,-120,120,60.bmp,120,120,9566.700000047684,605467.5999999046,7033,yes,SM,C,58.bmp,120,-120,309641,303625,311658,305626,604361.0,598343.0,606377.0,600346.0,29
3,0,0,1,0,19,test,1,0,z,Wed Nov 06 2024 15:05:35 GMT-0600 (Central Standard Time),624831.0999999046,O,m,1746,30,1,61.bmp,-120,-120,62.bmp,120,-120,63.bmp,-120,120,64.bmp,120,120,9783.399999856949,615047.7000000477,7033,yes,SM,C,63.bmp,-120,120,309641,303625,311658,305626,613941.0,607923.0,615958.0,609926.0,30
1,1,0,0,0,20,test,1,1,z,Wed Nov 06 2024 15:05:35 GMT-0600 (Central Standard Time),634294.7000000477,O,z,1413,31,1,65.bmp,-120,-120,66.bmp,120,-120,67.bmp,-120,120,68.bmp,120,120,9450.100000143051,624844.5999999046,7033,yes,SM,C,65.bmp,-120,-120,309641,303625,311658,305626,623738.0,617720.0,625754.0,619723.0,31
2,0,1,0,0,21,test,1,1,m,Wed Nov 06 2024 15:05:35 GMT-0600 (Central Standard Time),644058.4000000954,O,m,1700,32,1,69.bmp,-120,-120,70.bmp,120,-120,71.bmp,-120,120,72.bmp,120,120,9750.600000143051,634307.7999999523,7033,yes,SM,C,69.bmp,120,-120,309641,303625,311658,305626,633202.0,627184.0,635218.0,629186.0,32
4,0,0,0,1,22,test,1,1,z,Wed Nov 06 2024 15:05:35 GMT-0600 (Central Standard Time),652988.7000000477,O,z,849,33,1,81.bmp,-120,-120,82.bmp,120,-120,83.bmp,-120,120,84.bmp,120,120,8915.700000047684,644073.0,7033,yes,SM,C,84.bmp,120,120,309641,303625,311658,305626,642982.0,636949.0,644998.0,638966.0,33
2,0,1,0,0,23,test,1,1,z,Wed Nov 06 2024 15:05:35 GMT-0600 (Central Standard Time),661752.2999999523,O,z,712,34,1,73.bmp,-120,-120,74.bmp,120,-120,75.bmp,-120,120,76.bmp,120,120,8749.700000047684,653002.5999999046,7033,yes,SM,C,74.bmp,120,-120,309641,303625,311658,305626,651895.0,645878.0,653912.0,647880.0,34
4,0,0,0,1,24,test,1,1,m,Wed Nov 06 2024 15:05:35 GMT-0600 (Central Standard Time),670849.2999999523,O,m,1036,35,1,77.bmp,-120,-120,78.bmp,120,-120,79.bmp,-120,120,80.bmp,120,120,9084.399999856949,661764.9000000954,7033,yes,SM,C,79.bmp,120,120,309641,303625,311658,305626,660659.0,654641.0,662675.0,656644.0,35
3,0,0,1,0,24,test,1,0,m,Wed Nov 06 2024 15:05:35 GMT-0600 (Central Standard Time),680912.9000000954,O,None,2016,36,1,85.bmp,-120,-120,86.bmp,120,-120,87.bmp,-120,120,88.bmp,120,120,10051.400000095367,670861.5,7033,yes,SM,C,85.bmp,-120,120,309641,303625,311658,305626,669756.0,663737.0,671772.0,665741.0,36
1,1,0,0,0,24,test,1,0,m,Wed Nov 06 2024 15:05:35 GMT-0600 (Central Standard Time),690976.2000000477,O,None,2015,37,1,89.bmp,-120,-120,90.bmp,120,-120,91.bmp,-120,120,92.bmp,120,120,10051.400000095367,680924.7999999523,7033,yes,SM,C,90.bmp,-120,-120,309641,303625,311658,305626,679819.0,673800.0,681836.0,675804.0,37
2,0,1,0,0,24,test,1,0,m,Wed Nov 06 2024 15:05:35 GMT-0600 (Central Standard Time),699439.5,O,z,411,38,1,93.bmp,-120,-120,94.bmp,120,-120,95.bmp,-120,120,96.bmp,120,120,8451.400000095367,690988.0999999046,7033,yes,SM,C,95.bmp,120,-120,309641,303625,311658,305626,689883.0,683864.0,691899.0,685868.0,38
4,0,0,0,1,25,test,1,1,z,Wed Nov 06 2024 15:05:35 GMT-0600 (Central Standard Time),708986.9000000954,O,z,1484,39,1,97.bmp,-120,-120,98.bmp,120,-120,99.bmp,-120,120,100.bmp,120,120,9537.800000190735,699449.0999999046,7033,yes,SM,C,100.bmp,120,120,309641,303625,311658,305626,698347.0,692325.0,700363.0,694332.0,39
3,0,0,1,0,26,test,1,1,m,Wed Nov 06 2024 15:05:35 GMT-0600 (Central Standard Time),718766.9000000954,O,m,1729,40,1,54.bmp,-120,-120,55.bmp,120,-120,56.bmp,-120,120,57.bmp,120,120,9765.900000095367,709001.0,7033,yes,SM,C,55.bmp,-120,120,309641,303625,311658,305626,707894.0,701877.0,709910.0,703878.0,40
1,1,0,0,0,27,test,1,1,z,Wed Nov 06 2024 15:05:35 GMT-0600 (Central Standard Time),728463.7000000477,O,z,1637,41,1,58.bmp,-120,-120,59.bmp,120,-120,60.bmp,-120,120,61.bmp,120,120,9684.299999952316,718779.4000000954,7033,yes,SM,C,58.bmp,-120,-120,309641,303625,311658,305626,717674.0,711655.0,719690.0,713659.0,41
4,0,0,0,1,28,test,1,1,z,Wed Nov 06 2024 15:05:35 GMT-0600 (Central Standard Time),737827.7999999523,O,z,1300,42,1,62.bmp,-120,-120,63.bmp,120,-120,64.bmp,-120,120,65.bmp,120,120,9350.700000047684,728477.0999999046,7033,yes,SM,C,65.bmp,120,120,309641,303625,311658,305626,727370.0,721353.0,729387.0,723355.0,42
1,1,0,0,0,28,test,1,0,z,Wed Nov 06 2024 15:05:35 GMT-0600 (Central Standard Time),747890.0,O,None,2016,43,1,66.bmp,-120,-120,67.bmp,120,-120,68.bmp,-120,120,69.bmp,120,120,10048.099999904633,737841.9000000954,7033,yes,SM,C,66.bmp,-120,-120,309641,303625,311658,305626,736734.0,730717.0,738749.0,732719.0,43
4,0,0,0,1,29,test,1,1,m,Wed Nov 06 2024 15:05:35 GMT-0600 (Central Standard Time),757437.5,O,m,1489,44,1,54.bmp,-120,-120,51.bmp,120,-120,52.bmp,-120,120,53.bmp,120,120,9543.799999952316,747893.7000000477,7033,yes,SM,C,54.bmp,120,120,309641,303625,311658,305626,746798.0,740769.0,748814.0,742782.0,44
1,1,0,0,0,30,test,1,1,m,Wed Nov 06 2024 15:05:35 GMT-0600 (Central Standard Time),767034.4000000954,O,m,1543,45,1,78.bmp,-120,-120,79.bmp,120,-120,80.bmp,-120,120,81.bmp,120,120,9584.300000190735,757450.0999999046,7033,yes,SM,C,81.bmp,-120,-120,309641,303625,311658,305626,756344.0,750326.0,758361.0,752329.0,45
1,1,0,0,0,31,test,1,1,m,Wed Nov 06 2024 15:05:35 GMT-0600 (Central Standard Time),776148.0,O,m,1058,46,1,70.bmp,-120,-120,71.bmp,120,-120,72.bmp,-120,120,73.bmp,120,120,9100.5,767047.5,7033,yes,SM,C,71.bmp,-120,-120,309641,303625,311658,305626,765941.0,759923.0,767957.0,761926.0,46
3,0,0,1,0,31,test,1,0,z,Wed Nov 06 2024 15:05:35 GMT-0600 (Central Standard Time),786211.9000000954,O,None,2016,47,1,74.bmp,-120,-120,75.bmp,120,-120,76.bmp,-120,120,77.bmp,120,120,10052.0,776159.9000000954,7033,yes,SM,C,76.bmp,-120,120,309641,303625,311658,305626,775055.0,769036.0,777071.0,771040.0,47
3,0,0,1,0,32,test,1,1,z,Wed Nov 06 2024 15:05:35 GMT-0600 (Central Standard Time),795575.0,O,z,1296,48,1,90.bmp,-120,-120,91.bmp,120,-120,92.bmp,-120,120,93.bmp,120,120,9348.5,786226.5,7033,yes,SM,C,92.bmp,-120,120,309641,303625,311658,305626,785135.0,779102.0,787151.0,781120.0,48
2,0,1,0,0,32,test,1,0,z,Wed Nov 06 2024 15:05:35 GMT-0600 (Central Standard Time),805321.7000000477,O,m,1694,49,1,86.bmp,-120,-120,87.bmp,120,-120,88.bmp,-120,120,89.bmp,120,120,9733.299999952316,795588.4000000954,7033,yes,SM,C,87.bmp,120,-120,309641,303625,311658,305626,794482.0,788464.0,796498.0,790467.0,49
3,0,0,1,0,33,test,1,1,m,Wed Nov 06 2024 15:05:35 GMT-0600 (Central Standard Time),815235.0999999046,O,m,1858,50,1,82.bmp,-120,-120,83.bmp,120,-120,84.bmp,-120,120,85.bmp,120,120,9899.899999856949,805335.2000000477,7033,yes,SM,C,82.bmp,-120,120,309641,303625,311658,305626,804229.0,798211.0,806245.0,800214.0,50
2,0,1,0,0,34,test,1,1,z,Wed Nov 06 2024 15:05:35 GMT-0600 (Central Standard Time),823732.4000000954,O,z,433,51,1,94.bmp,-120,-120,95.bmp,120,-120,96.bmp,-120,120,97.bmp,120,120,8485.5,815246.9000000954,7033,yes,SM,C,95.bmp,120,-120,309641,303625,311658,305626,814142.0,808123.0,816158.0,810126.0,51
4,0,0,0,1,35,test,1,1,m,Wed Nov 06 2024 15:05:35 GMT-0600 (Central Standard Time),832879.4000000954,O,m,1087,52,1,98.bmp,-120,-120,99.bmp,120,-120,100.bmp,-120,120,81.bmp,120,120,9135.300000190735,823744.0999999046,7033,yes,SM,C,98.bmp,120,120,309641,303625,311658,305626,822639.0,816620.0,824656.0,818624.0,52
3,0,0,1,0,35,test,1,0,z,Wed Nov 06 2024 15:05:35 GMT-0600 (Central Standard Time),842942.7000000477,O,None,2016,53,1,51.bmp,-120,-120,52.bmp,120,-120,53.bmp,-120,120,54.bmp,120,120,10050.299999952316,832892.4000000954,7033,yes,SM,C,53.bmp,-120,120,309641,303625,311658,305626,831786.0,825768.0,833802.0,827771.0,53
1,1,0,0,0,36,test,1,1,m,Wed Nov 06 2024 15:05:35 GMT-0600 (Central Standard Time),852039.7999999523,O,m,1045,54,1,55.bmp,-120,-120,56.bmp,120,-120,57.bmp,-120,120,58.bmp,120,120,9085.700000047684,842954.0999999046,7033,yes,SM,C,57.bmp,-120,-120,309641,303625,311658,305626,841849.0,835830.0,843866.0,837834.0,54
4,0,0,0,1,36,test,1,0,z,Wed Nov 06 2024 15:05:35 GMT-0600 (Central Standard Time),862103.2000000477,O,None,2015,55,1,59.bmp,-120,-120,60.bmp,120,-120,61.bmp,-120,120,62.bmp,120,120,10051.299999952316,852051.9000000954,7033,yes,SM,C,62.bmp,120,120,309641,303625,311658,305626,850946.0,844928.0,852963.0,846931.0,55
2,0,1,0,0,37,test,1,1,m,Wed Nov 06 2024 15:05:35 GMT-0600 (Central Standard Time),871349.9000000954,O,m,1197,56,1,63.bmp,-120,-120,64.bmp,120,-120,65.bmp,-120,120,66.bmp,120,120,9232.700000047684,862117.2000000477,7033,yes,SM,C,63.bmp,120,-120,309641,303625,311658,305626,861010.0,854993.0,863026.0,856995.0,56
4,0,0,0,1,38,test,1,1,m,Wed Nov 06 2024 15:05:35 GMT-0600 (Central Standard Time),880363.0999999046,O,m,965,57,1,67.bmp,-120,-120,68.bmp,120,-120,69.bmp,-120,120,70.bmp,120,120,8999.399999856949,871363.7000000477,7033,yes,SM,C,68.bmp,120,120,309641,303625,311658,305626,870257.0,864239.0,872273.0,866242.0,57
3,0,0,1,0,39,test,1,1,z,Wed Nov 06 2024 15:05:35 GMT-0600 (Central Standard Time),890093.2000000477,O,z,1671,58,1,71.bmp,-120,-120,72.bmp,120,-120,73.bmp,-120,120,74.bmp,120,120,9726.200000047684,880367.0,7033,yes,SM,C,73.bmp,-120,120,309641,303625,311658,305626,879270.0,873242.0,881287.0,875254.0,58
2,0,1,0,0,39,test,1,0,m,Wed Nov 06 2024 15:05:35 GMT-0600 (Central Standard Time),900157.0999999046,O,None,2015,59,1,75.bmp,-120,-120,76.bmp,120,-120,77.bmp,-120,120,78.bmp,120,120,10058.099999904633,890099.0,7033,yes,SM,C,78.bmp,120,-120,309641,303625,311658,305626,889001.0,882974.0,891017.0,884986.0,59
1,1,0,0,0,40,test,1,1,z,Wed Nov 06 2024 15:05:35 GMT-0600 (Central Standard Time),909204.5,O,z,983,60,1,79.bmp,-120,-120,80.bmp,120,-120,81.bmp,-120,120,82.bmp,120,120,9034.700000047684,900169.7999999523,7033,yes,SM,C,79.bmp,-120,-120,309641,303625,311658,305626,899064.0,893045.0,901080.0,895049.0,60
2,0,1,0,0,41,test,1,1,z,Wed Nov 06 2024 15:05:35 GMT-0600 (Central Standard Time),918468.0,O,z,1200,61,1,83.bmp,-120,-120,84.bmp,120,-120,85.bmp,-120,120,86.bmp,120,120,9251.799999952316,909216.2000000477,7033,yes,SM,C,84.bmp,120,-120,309641,303625,311658,305626,908111.0,902092.0,910127.0,904096.0,61
4,0,0,0,1,42,test,1,1,z,Wed Nov 06 2024 15:05:35 GMT-0600 (Central Standard Time),927714.9000000954,O,z,1192,62,1,91.bmp,-120,-120,92.bmp,120,-120,93.bmp,-120,120,94.bmp,120,120,9234.600000143051,918480.2999999523,7033,yes,SM,C,94.bmp,120,120,309641,303625,311658,305626,917375.0,911356.0,919391.0,913360.0,62
1,1,0,0,0,43,test,1,1,m,Wed Nov 06 2024 15:05:35 GMT-0600 (Central Standard Time),937228.4000000954,O,m,1458,63,1,95.bmp,-120,-120,96.bmp,120,-120,97.bmp,-120,120,98.bmp,120,120,9500.200000047684,927728.2000000477,7033,yes,SM,C,95.bmp,-120,120,309641,303625,311658,305626,926622.0,920604.0,928638.0,922607.0,63
2,0,1,0,0,43,test,1,0,z,Wed Nov 06 2024 15:05:35 GMT-0600 (Central Standard Time),946591.9000000954,O,m,1312,64,1,99.bmp,-120,-120,100.bmp,120,-120,62.bmp,-120,120,51.bmp,120,120,9350.600000143051,937241.2999999523,7033,yes,SM,C,100.bmp,120,-120,309641,303625,311658,305626,936135.0,930117.0,938151.0,932120.0,64
4,0,0,0,1,44,test,1,1,m,Wed Nov 06 2024 15:05:35 GMT-0600 (Central Standard Time),955605.7999999523,O,m,956,65,1,52.bmp,-120,-120,53.bmp,120,-120,54.bmp,-120,120,55.bmp,120,120,9000.599999904633,946605.2000000477,7033,yes,SM,C,54.bmp,120,120,309641,303625,311658,305626,945499.0,939481.0,947515.0,941484.0,65
3,0,0,1,0,44,test,1,0,m,Wed Nov 06 2024 15:05:35 GMT-0600 (Central Standard Time),965269.0,O,z,1597,66,1,56.bmp,-120,-120,57.bmp,120,-120,58.bmp,-120,120,59.bmp,120,120,9648.200000047684,955620.7999999523,7033,yes,SM,C,59.bmp,-120,120,309641,303625,311658,305626,954529.0,948497.0,956546.0,950514.0,66
2,0,1,0,0,45,test,1,1,m,Wed Nov 06 2024 15:05:35 GMT-0600 (Central Standard Time),975182.5999999046,O,m,1847,67,1,87.bmp,-120,-120,88.bmp,120,-120,89.bmp,-120,120,90.bmp,120,120,9897.299999952316,965285.2999999523,7033,yes,SM,C,89.bmp,120,-120,309641,303625,311658,305626,964192.0,958161.0,966209.0,960178.0,67
3,0,0,1,0,46,test,1,1,z,Wed Nov 06 2024 15:05:35 GMT-0600 (Central Standard Time),984629.2000000477,O,z,1397,68,1,60.bmp,-120,-120,61.bmp,120,-120,62.bmp,-120,120,63.bmp,120,120,9433.5,975195.7000000477,7033,yes,SM,C,62.bmp,-120,120,309641,303625,311658,305626,974089.0,968071.0,976106.0,970074.0,68
1,1,0,0,0,47,test,1,1,m,Wed Nov 06 2024 15:05:35 GMT-0600 (Central Standard Time),994542.7000000477,O,m,1863,69,1,64.bmp,-120,-120,65.bmp,120,-120,66.bmp,-120,120,67.bmp,120,120,9900.700000047684,984642.0,7033,yes,SM,C,65.bmp,-120,-120,309641,303625,311658,305626,983536.0,977518.0,985553.0,979520.0,69
2,0,1,0,0,48,test,1,1,m,Wed Nov 06 2024 15:05:35 GMT-0600 (Central Standard Time),1003956.2999999523,O,m,1357,70,1,68.bmp,-120,-120,69.bmp,120,-120,70.bmp,-120,120,71.bmp,120,120,9401.399999856949,994554.9000000954,7033,yes,SM,C,70.bmp,120,-120,309641,303625,311658,305626,993450.0,987431.0,995466.0,989435.0,70
4,0,0,0,1,49,test,1,1,z,Wed Nov 06 2024 15:05:35 GMT-0600 (Central Standard Time),1013436.5,O,z,1415,71,1,72.bmp,-120,-120,73.bmp,120,-120,74.bmp,-120,120,75.bmp,120,120,9468.299999952316,1003968.2000000477,7033,yes,SM,C,75.bmp,120,120,309641,303625,311658,305626,1002863.0,996844.0,1004880.0,998848.0,71
1,1,0,0,0,49,test,1,0,z,Wed Nov 06 2024 15:05:35 GMT-0600 (Central Standard Time),1023500.2000000477,O,None,2015,72,1,76.bmp,-120,-120,77.bmp,120,-120,78.bmp,-120,120,79.bmp,120,120,10051.0,1013449.2000000477,7033,yes,SM,C,76.bmp,-120,-120,309641,303625,311658,305626,1012343.0,1006325.0,1014360.0,1008328.0,72
2,0,1,0,0,49,test,1,0,z,Wed Nov 06 2024 15:05:35 GMT-0600 (Central Standard Time),1032996.7000000477,O,m,1448,73,1,80.bmp,-120,-120,81.bmp,120,-120,82.bmp,-120,120,83.bmp,120,120,9484.0,1023512.7000000477,7033,yes,SM,C,81.bmp,120,-120,309641,303625,311658,305626,1022406.0,1016389.0,1024423.0,1018392.0,73
4,0,0,0,1,49,test,1,0,m,Wed Nov 06 2024 15:05:35 GMT-0600 (Central Standard Time),1043060.4000000954,O,None,2015,74,1,84.bmp,-120,-120,85.bmp,120,-120,86.bmp,-120,120,87.bmp,120,120,10051.5,1033008.9000000954,7033,yes,SM,C,86.bmp,120,120,309641,303625,311658,305626,1031904.0,1025885.0,1033920.0,1027889.0,74
2,0,1,0,0,49,test,1,0,m,Wed Nov 06 2024 15:05:35 GMT-0600 (Central Standard Time),1052973.4000000954,O,z,1864,75,1,88.bmp,-120,-120,89.bmp,120,-120,90.bmp,-120,120,91.bmp,120,120,9901.400000095367,1043072.0,7033,yes,SM,C,91.bmp,120,-120,309641,303625,311658,305626,1041967.0,1035948.0,1043983.0,1037953.0,75
1,1,0,0,0,50,test,1,1,z,Wed Nov 06 2024 15:05:35 GMT-0600 (Central Standard Time),1062420.5999999046,O,z,1390,76,1,92.bmp,-120,-120,93.bmp,120,-120,94.bmp,-120,120,95.bmp,120,120,9435.5,1052985.0999999046,7033,yes,SM,C,92.bmp,-120,-120,309641,303625,311658,305626,1051880.0,1045861.0,1053897.0,1047865.0,76
3,0,0,1,0,50,test,1,0,z,Wed Nov 06 2024 15:05:35 GMT-0600 (Central Standard Time),1072483.7999999523,O,None,2017,77,1,100.bmp,-120,-120,61.bmp,120,-120,51.bmp,-120,120,52.bmp,120,120,10051.200000047684,1062432.5999999046,7033,yes,SM,C,51.bmp,-120,120,309641,303625,311658,305626,1061326.0,1055308.0,1063342.0,1057312.0,77
1,1,0,0,0,51,test,1,1,m,Wed Nov 06 2024 15:05:35 GMT-0600 (Central Standard Time),1081447.5999999046,O,m,904,78,1,96.bmp,-120,-120,97.bmp,120,-120,98.bmp,-120,120,99.bmp,120,120,8951.099999904633,1072496.5,7033,yes,SM,C,97.bmp,-120,-120,309641,303625,311658,305626,1071391.0,1065372.0,1073407.0,1067376.0,78
4,0,0,0,1,52,test,1,1,m,Wed Nov 06 2024 15:05:35 GMT-0600 (Central Standard Time),1090544.7000000477,O,m,1036,79,1,57.bmp,-120,-120,58.bmp,120,-120,59.bmp,-120,120,60.bmp,120,120,9085.100000143051,1081459.5999999046,7033,yes,SM,C,57.bmp,120,120,309641,303625,311658,305626,1080354.0,1074335.0,1082371.0,1076339.0,79
3,0,0,1,0,53,test,1,1,m,Wed Nov 06 2024 15:05:35 GMT-0600 (Central Standard Time),1100108.2000000477,O,m,1507,80,1,53.bmp,-120,-120,54.bmp,120,-120,55.bmp,-120,120,56.bmp,120,120,9550.299999952316,1090557.9000000954,7033,yes,SM,C,56.bmp,-120,120,309641,303625,311658,305626,1089451.0,1083434.0,1091468.0,1085436.0,80
