acc_sum,block,block_c,change,condition,correct,correct_response,datetime,endtime,face,project,response,response_time,row_sel,session_number,start_end,starttime,subject_id,task,task_vers,trial
0,prac,1,,1-Back,,,Mon Mar 10 2025 17:43:44 GMT-0500 (Central Daylight Time),,012_o_f_d_a.png,O,space,9071,1,1,,,7048,VNB,C,0
1,prac,1,0.0,1-Back,1,m,Mon Mar 10 2025 17:43:44 GMT-0500 (Central Daylight Time),138488.60000002384,022_y_f_n_a.png,O,m,1534,2,1,2419.100000023842,136069.5,7048,VNB,C,1
2,prac,1,0.0,1-Back,1,m,Mon Mar 10 2025 17:43:44 GMT-0500 (Central Daylight Time),141054.60000002384,014_m_m_h_a.png,O,m,1702,3,1,2556.400000035763,138498.19999998808,7048,VNB,C,2
3,prac,1,0.0,1-Back,1,m,Mon Mar 10 2025 17:43:44 GMT-0500 (Central Daylight Time),142787.0,025_y_m_d_a.png,O,m,859,4,1,1722.800000011921,141064.19999998808,7048,VNB,C,3
4,prac,1,0.0,1-Back,1,m,Mon Mar 10 2025 17:43:44 GMT-0500 (Central Daylight Time),145070.69999998808,012_o_f_n_a.png,O,m,1398,5,1,2274.099999964237,142796.60000002384,7048,VNB,C,4
5,prac,1,1.0,1-Back,1,z,Mon Mar 10 2025 17:43:44 GMT-0500 (Central Daylight Time),147087.89999997616,025_y_m_n_a.png,O,z,1155,6,1,2008.699999988079,145079.19999998808,7048,VNB,C,5
6,prac,1,0.0,1-Back,1,m,Mon Mar 10 2025 17:43:44 GMT-0500 (Central Daylight Time),148785.0,015_o_m_h_a.png,O,m,822,7,1,1688.699999988079,147096.30000001192,7048,VNB,C,6
7,prac,1,0.0,1-Back,1,m,Mon Mar 10 2025 17:43:44 GMT-0500 (Central Daylight Time),150767.39999997616,019_m_f_d_a.png,O,m,1087,8,1,1972.0999999642372,148795.30000001192,7048,VNB,C,7
8,prac,1,1.0,1-Back,1,z,Mon Mar 10 2025 17:43:44 GMT-0500 (Central Daylight Time),152469.19999998808,022_y_f_d_a.png,O,z,826,9,1,1692.0,150777.19999998808,7048,VNB,C,8
9,prac,1,0.0,1-Back,1,m,Mon Mar 10 2025 17:43:44 GMT-0500 (Central Daylight Time),154134.89999997616,014_m_m_n_a.png,O,m,789,10,1,1657.3999999761581,152477.5,7048,VNB,C,9
10,prac,1,0.0,1-Back,1,m,Mon Mar 10 2025 17:43:44 GMT-0500 (Central Daylight Time),155634.80000001192,012_o_f_h_a.png,O,m,635,11,1,1490.1000000238419,154144.69999998808,7048,VNB,C,10
10,prac,1,0.0,1-Back,0,m,Mon Mar 10 2025 17:43:44 GMT-0500 (Central Daylight Time),157382.69999998808,025_y_m_d_a.png,O,z,874,12,1,1740.5,155642.19999998808,7048,VNB,C,11
0,test,1,0.0,1-Back,,,Mon Mar 10 2025 17:43:44 GMT-0500 (Central Daylight Time),157382.69999998808,022_y_f_d_a.png,O,space,6136,1,1,1740.5,155642.19999998808,7048,VNB,C,0
1,test,1,0.0,1-Back,1,m,Mon Mar 10 2025 17:43:44 GMT-0500 (Central Daylight Time),176558.5,019_m_f_n_a.png,O,m,825,2,1,1842.800000011921,174715.69999998808,7048,VNB,C,1
2,test,1,0.0,1-Back,1,m,Mon Mar 10 2025 17:43:44 GMT-0500 (Central Daylight Time),178675.39999997616,015_o_m_h_a.png,O,m,1088,3,1,2109.5,176565.89999997616,7048,VNB,C,2
3,test,1,1.0,1-Back,1,z,Mon Mar 10 2025 17:43:44 GMT-0500 (Central Daylight Time),181126.39999997616,014_m_m_h_a.png,O,z,1420,4,1,2444.5,178681.89999997616,7048,VNB,C,3
4,test,1,0.0,1-Back,1,m,Mon Mar 10 2025 17:43:44 GMT-0500 (Central Daylight Time),182873.5,012_o_f_n_a.png,O,m,704,5,1,1740.199999988079,181133.30000001192,7048,VNB,C,4
5,test,1,0.0,1-Back,1,m,Mon Mar 10 2025 17:43:44 GMT-0500 (Central Daylight Time),184740.39999997616,025_y_m_d_a.png,O,m,846,6,1,1859.2999999523163,182881.10000002384,7048,VNB,C,5
6,test,1,1.0,1-Back,1,z,Mon Mar 10 2025 17:43:44 GMT-0500 (Central Daylight Time),186557.10000002384,019_m_f_d_a.png,O,z,794,7,1,1808.9000000357628,184748.19999998808,7048,VNB,C,6
6,test,1,0.0,1-Back,0,m,Mon Mar 10 2025 17:43:44 GMT-0500 (Central Daylight Time),188874.19999998808,022_y_f_h_a.png,O,z,1283,8,1,2309.300000011921,186564.89999997616,7048,VNB,C,7
7,test,1,0.0,1-Back,1,m,Mon Mar 10 2025 17:43:44 GMT-0500 (Central Daylight Time),191421.0,015_o_m_n_a.png,O,m,1526,9,1,2540.399999976158,188880.60000002384,7048,VNB,C,8
8,test,1,0.0,1-Back,1,m,Mon Mar 10 2025 17:43:44 GMT-0500 (Central Daylight Time),194086.89999997616,025_y_m_h_a.png,O,m,1641,10,1,2659.099999964237,191427.80000001192,7048,VNB,C,9
9,test,1,0.0,1-Back,1,m,Mon Mar 10 2025 17:43:44 GMT-0500 (Central Daylight Time),196520.39999997616,015_o_m_d_a.png,O,m,1408,11,1,2425.399999976158,194095.0,7048,VNB,C,10
10,test,1,1.0,1-Back,1,z,Mon Mar 10 2025 17:43:44 GMT-0500 (Central Daylight Time),198285.80000001192,012_o_f_d_a.png,O,z,733,12,1,1757.800000011921,196528.0,7048,VNB,C,11
11,test,1,0.0,1-Back,1,m,Mon Mar 10 2025 17:43:44 GMT-0500 (Central Daylight Time),200035.30000001192,014_m_m_n_a.png,O,m,719,13,1,1742.6000000238419,198292.69999998808,7048,VNB,C,12
12,test,1,1.0,1-Back,1,z,Mon Mar 10 2025 17:43:44 GMT-0500 (Central Daylight Time),202083.80000001192,022_y_f_n_a.png,O,z,1020,14,1,2041.0,200042.80000001192,7048,VNB,C,13
13,test,1,0.0,1-Back,1,m,Mon Mar 10 2025 17:43:44 GMT-0500 (Central Daylight Time),203884.39999997616,019_m_f_h_a.png,O,m,771,15,1,1791.699999988079,202092.69999998808,7048,VNB,C,14
14,test,1,0.0,1-Back,1,m,Mon Mar 10 2025 17:43:44 GMT-0500 (Central Daylight Time),205816.5,014_m_m_d_a.png,O,m,915,16,1,1924.300000011921,203892.19999998808,7048,VNB,C,15
15,test,1,0.0,1-Back,1,m,Mon Mar 10 2025 17:43:44 GMT-0500 (Central Daylight Time),207582.19999998808,025_y_m_n_a.png,O,m,742,17,1,1761.5999999642372,205820.60000002384,7048,VNB,C,16
16,test,1,0.0,1-Back,1,m,Mon Mar 10 2025 17:43:44 GMT-0500 (Central Daylight Time),209432.10000002384,012_o_f_h_a.png,O,m,831,18,1,1842.6000000238419,207589.5,7048,VNB,C,17
0,test,2,0.0,1-Back,,,Mon Mar 10 2025 17:43:44 GMT-0500 (Central Daylight Time),209432.10000002384,025_y_m_n_a.png,O,space,1223,1,1,1842.6000000238419,207589.5,7048,VNB,C,0
1,test,2,0.0,1-Back,1,m,Mon Mar 10 2025 17:43:44 GMT-0500 (Central Daylight Time),214431.89999997616,022_y_f_h_a.png,O,m,725,2,1,1743.199999988079,212688.69999998808,7048,VNB,C,1
2,test,2,1.0,1-Back,1,m,Mon Mar 10 2025 17:43:44 GMT-0500 (Central Daylight Time),216580.60000002384,015_o_m_n_a.png,O,m,1122,3,1,2141.0,214439.60000002384,7048,VNB,C,2
3,test,2,0.0,1-Back,1,m,Mon Mar 10 2025 17:43:44 GMT-0500 (Central Daylight Time),218332.80000001192,019_m_f_d_a.png,O,m,735,4,1,1743.800000011921,216589.0,7048,VNB,C,3
4,test,2,0.0,1-Back,1,z,Mon Mar 10 2025 17:43:44 GMT-0500 (Central Daylight Time),220196.0,014_m_m_d_a.png,O,z,837,5,1,1860.1000000238419,218335.89999997616,7048,VNB,C,4
5,test,2,0.0,1-Back,1,m,Mon Mar 10 2025 17:43:44 GMT-0500 (Central Daylight Time),222178.5,025_y_m_h_a.png,O,m,964,6,1,1974.3999999761581,220204.10000002384,7048,VNB,C,5
6,test,2,1.0,1-Back,1,z,Mon Mar 10 2025 17:43:44 GMT-0500 (Central Daylight Time),224228.19999998808,012_o_f_h_a.png,O,z,1020,7,1,2044.800000011921,222183.39999997616,7048,VNB,C,6
7,test,2,0.0,1-Back,1,m,Mon Mar 10 2025 17:43:44 GMT-0500 (Central Daylight Time),225979.5,019_m_f_n_a.png,O,m,735,8,1,1743.300000011921,224236.19999998808,7048,VNB,C,7
8,test,2,0.0,1-Back,1,m,Mon Mar 10 2025 17:43:44 GMT-0500 (Central Daylight Time),227842.89999997616,022_y_f_d_a.png,O,m,838,9,1,1855.2999999523163,225987.60000002384,7048,VNB,C,8
9,test,2,0.0,1-Back,1,m,Mon Mar 10 2025 17:43:44 GMT-0500 (Central Daylight Time),229625.39999997616,014_m_m_n_a.png,O,m,755,10,1,1774.0,227851.39999997616,7048,VNB,C,9
10,test,2,1.0,1-Back,1,m,Mon Mar 10 2025 17:43:44 GMT-0500 (Central Daylight Time),231711.19999998808,019_m_f_h_a.png,O,m,1053,11,1,2076.800000011921,229634.39999997616,7048,VNB,C,10
11,test,2,0.0,1-Back,1,z,Mon Mar 10 2025 17:43:44 GMT-0500 (Central Daylight Time),233443.10000002384,015_o_m_h_a.png,O,z,717,12,1,1723.2000000476837,231719.89999997616,7048,VNB,C,11
12,test,2,0.0,1-Back,1,m,Mon Mar 10 2025 17:43:44 GMT-0500 (Central Daylight Time),235107.5,025_y_m_d_a.png,O,m,646,13,1,1655.6000000238419,233451.89999997616,7048,VNB,C,12
13,test,2,0.0,1-Back,1,m,Mon Mar 10 2025 17:43:44 GMT-0500 (Central Daylight Time),237173.89999997616,012_o_f_n_a.png,O,m,1042,14,1,2057.899999976158,235116.0,7048,VNB,C,13
14,test,2,0.0,1-Back,1,z,Mon Mar 10 2025 17:43:44 GMT-0500 (Central Daylight Time),239106.60000002384,022_y_f_n_a.png,O,z,903,15,1,1923.7000000476837,237182.89999997616,7048,VNB,C,14
15,test,2,1.0,1-Back,1,m,Mon Mar 10 2025 17:43:44 GMT-0500 (Central Daylight Time),240706.69999998808,014_m_m_h_a.png,O,m,565,16,1,1589.5,239117.19999998808,7048,VNB,C,15
16,test,2,0.0,1-Back,1,m,Mon Mar 10 2025 17:43:44 GMT-0500 (Central Daylight Time),242605.39999997616,012_o_f_d_a.png,O,m,869,17,1,1891.8999999761581,240713.5,7048,VNB,C,16
17,test,2,1.0,1-Back,1,z,Mon Mar 10 2025 17:43:44 GMT-0500 (Central Daylight Time),244670.80000001192,015_o_m_d_a.png,O,z,1041,18,1,2057.600000023842,242613.19999998808,7048,VNB,C,17
0,test,3,1.0,1-Back,,,Mon Mar 10 2025 17:43:44 GMT-0500 (Central Daylight Time),244670.80000001192,012_o_f_h_a.png,O,space,1088,1,1,2057.600000023842,242613.19999998808,7048,VNB,C,0
1,test,3,0.0,1-Back,1,m,Mon Mar 10 2025 17:43:44 GMT-0500 (Central Daylight Time),249653.5,019_m_f_d_a.png,O,m,745,2,1,1758.699999988079,247894.80000001192,7048,VNB,C,1
2,test,3,1.0,1-Back,1,m,Mon Mar 10 2025 17:43:44 GMT-0500 (Central Daylight Time),251269.69999998808,014_m_m_n_a.png,O,m,593,3,1,1607.300000011921,249662.39999997616,7048,VNB,C,2
3,test,3,0.0,1-Back,1,z,Mon Mar 10 2025 17:43:44 GMT-0500 (Central Daylight Time),253086.39999997616,012_o_f_n_a.png,O,z,786,4,1,1806.199999988079,251280.19999998808,7048,VNB,C,3
4,test,3,1.0,1-Back,1,m,Mon Mar 10 2025 17:43:44 GMT-0500 (Central Daylight Time),254701.30000001192,015_o_m_d_a.png,O,m,585,5,1,1606.4000000357628,253094.89999997616,7048,VNB,C,4
5,test,3,0.0,1-Back,1,m,Mon Mar 10 2025 17:43:44 GMT-0500 (Central Daylight Time),256336.0,022_y_f_h_a.png,O,m,615,6,1,1627.199999988079,254708.80000001192,7048,VNB,C,5
6,test,3,0.0,1-Back,1,z,Mon Mar 10 2025 17:43:44 GMT-0500 (Central Daylight Time),257933.80000001192,025_y_m_h_a.png,O,z,576,7,1,1591.6000000238419,256342.19999998808,7048,VNB,C,6
7,test,3,0.0,1-Back,1,m,Mon Mar 10 2025 17:43:44 GMT-0500 (Central Daylight Time),259483.80000001192,019_m_f_n_a.png,O,m,520,8,1,1542.5,257941.30000001192,7048,VNB,C,7
8,test,3,0.0,1-Back,1,m,Mon Mar 10 2025 17:43:44 GMT-0500 (Central Daylight Time),261134.69999998808,022_y_f_d_a.png,O,m,618,9,1,1640.0,259494.69999998808,7048,VNB,C,8
9,test,3,1.0,1-Back,1,m,Mon Mar 10 2025 17:43:44 GMT-0500 (Central Daylight Time),262765.39999997616,015_o_m_n_a.png,O,m,610,10,1,1624.0,261141.39999997616,7048,VNB,C,9
10,test,3,0.0,1-Back,1,m,Mon Mar 10 2025 17:43:44 GMT-0500 (Central Daylight Time),264598.60000002384,014_m_m_h_a.png,O,m,811,11,1,1825.6000000238419,262773.0,7048,VNB,C,10
11,test,3,0.0,1-Back,1,z,Mon Mar 10 2025 17:43:44 GMT-0500 (Central Daylight Time),265997.0,019_m_f_h_a.png,O,z,376,12,1,1389.800000011921,264607.1999999881,7048,VNB,C,11
12,test,3,1.0,1-Back,1,m,Mon Mar 10 2025 17:43:44 GMT-0500 (Central Daylight Time),267563.89999997616,012_o_f_d_a.png,O,m,536,13,1,1559.3999999761581,266004.5,7048,VNB,C,12
13,test,3,0.0,1-Back,1,z,Mon Mar 10 2025 17:43:44 GMT-0500 (Central Daylight Time),269378.3000000119,014_m_m_d_a.png,O,z,795,14,1,1806.6000000238419,267571.6999999881,7048,VNB,C,13
14,test,3,0.0,1-Back,1,m,Mon Mar 10 2025 17:43:44 GMT-0500 (Central Daylight Time),270914.3000000119,025_y_m_n_a.png,O,m,516,15,1,1528.199999988079,269386.10000002384,7048,VNB,C,14
15,test,3,1.0,1-Back,1,m,Mon Mar 10 2025 17:43:44 GMT-0500 (Central Daylight Time),272781.10000002384,015_o_m_h_a.png,O,m,850,16,1,1858.800000011921,270922.3000000119,7048,VNB,C,15
16,test,3,0.0,1-Back,1,m,Mon Mar 10 2025 17:43:44 GMT-0500 (Central Daylight Time),274394.60000002384,025_y_m_d_a.png,O,m,597,17,1,1604.7000000476837,272789.89999997616,7048,VNB,C,16
17,test,3,1.0,1-Back,1,m,Mon Mar 10 2025 17:43:44 GMT-0500 (Central Daylight Time),275994.8000000119,022_y_f_n_a.png,O,m,571,18,1,1587.300000011921,274407.5,7048,VNB,C,17
0,test,4,1.0,1-Back,,,Mon Mar 10 2025 17:43:44 GMT-0500 (Central Daylight Time),275994.8000000119,014_m_m_d_a.png,O,space,1166,1,1,1587.300000011921,274407.5,7048,VNB,C,0
1,test,4,0.0,1-Back,1,z,Mon Mar 10 2025 17:43:44 GMT-0500 (Central Daylight Time),281411.3000000119,015_o_m_d_a.png,O,z,1215,2,1,2223.699999988079,279187.60000002384,7048,VNB,C,1
2,test,4,0.0,1-Back,1,m,Mon Mar 10 2025 17:43:44 GMT-0500 (Central Daylight Time),283009.5,025_y_m_h_a.png,O,m,573,3,1,1590.8999999761581,281418.60000002384,7048,VNB,C,2
3,test,4,0.0,1-Back,1,m,Mon Mar 10 2025 17:43:44 GMT-0500 (Central Daylight Time),284641.8000000119,019_m_f_n_a.png,O,m,607,4,1,1622.9000000357628,283018.89999997616,7048,VNB,C,3
4,test,4,1.0,1-Back,1,m,Mon Mar 10 2025 17:43:44 GMT-0500 (Central Daylight Time),286208.39999997616,012_o_f_h_a.png,O,m,552,5,1,1558.199999988079,284650.1999999881,7048,VNB,C,4
5,test,4,0.0,1-Back,1,m,Mon Mar 10 2025 17:43:44 GMT-0500 (Central Daylight Time),287990.8000000119,014_m_m_n_a.png,O,m,759,6,1,1778.5,286212.3000000119,7048,VNB,C,5
6,test,4,0.0,1-Back,1,m,Mon Mar 10 2025 17:43:44 GMT-0500 (Central Daylight Time),290808.60000002384,025_y_m_d_a.png,O,m,1785,7,1,2811.2000000476837,287997.39999997616,7048,VNB,C,6
7,test,4,1.0,1-Back,1,z,Mon Mar 10 2025 17:43:44 GMT-0500 (Central Daylight Time),292657.0,022_y_f_d_a.png,O,z,823,8,1,1840.699999988079,290816.3000000119,7048,VNB,C,7
8,test,4,0.0,1-Back,1,m,Mon Mar 10 2025 17:43:44 GMT-0500 (Central Daylight Time),294204.6999999881,019_m_f_h_a.png,O,m,519,9,1,1539.0,292665.6999999881,7048,VNB,C,8
9,test,4,0.0,1-Back,1,z,Mon Mar 10 2025 17:43:44 GMT-0500 (Central Daylight Time),295837.10000002384,015_o_m_h_a.png,O,z,610,10,1,1625.2000000476837,294211.89999997616,7048,VNB,C,9
10,test,4,1.0,1-Back,1,m,Mon Mar 10 2025 17:43:44 GMT-0500 (Central Daylight Time),297420.6999999881,012_o_f_n_a.png,O,m,560,11,1,1575.699999988079,295845.0,7048,VNB,C,10
11,test,4,0.0,1-Back,1,m,Mon Mar 10 2025 17:43:44 GMT-0500 (Central Daylight Time),299071.1999999881,019_m_f_d_a.png,O,m,617,12,1,1643.199999988079,297428.0,7048,VNB,C,11
12,test,4,0.0,1-Back,1,m,Mon Mar 10 2025 17:43:44 GMT-0500 (Central Daylight Time),300586.8000000119,022_y_f_n_a.png,O,m,498,13,1,1510.199999988079,299076.60000002384,7048,VNB,C,12
13,test,4,0.0,1-Back,1,m,Mon Mar 10 2025 17:43:44 GMT-0500 (Central Daylight Time),302187.1999999881,012_o_f_d_a.png,O,m,581,14,1,1592.0,300595.1999999881,7048,VNB,C,13
14,test,4,0.0,1-Back,1,m,Mon Mar 10 2025 17:43:44 GMT-0500 (Central Daylight Time),303919.3000000119,022_y_f_h_a.png,O,m,710,15,1,1724.1000000238419,302195.1999999881,7048,VNB,C,14
15,test,4,1.0,1-Back,1,z,Mon Mar 10 2025 17:43:44 GMT-0500 (Central Daylight Time),305735.39999997616,014_m_m_h_a.png,O,z,783,16,1,1809.0,303926.39999997616,7048,VNB,C,15
16,test,4,0.0,1-Back,1,m,Mon Mar 10 2025 17:43:44 GMT-0500 (Central Daylight Time),307352.1999999881,015_o_m_n_a.png,O,m,589,17,1,1607.5,305744.6999999881,7048,VNB,C,16
17,test,4,1.0,1-Back,1,z,Mon Mar 10 2025 17:43:44 GMT-0500 (Central Daylight Time),309184.60000002384,025_y_m_n_a.png,O,z,799,18,1,1825.2000000476837,307359.39999997616,7048,VNB,C,17
0,test,5,1.0,1-Back,,,Mon Mar 10 2025 17:43:44 GMT-0500 (Central Daylight Time),309184.60000002384,015_o_m_n_a.png,O,space,1465,1,1,1825.2000000476837,307359.39999997616,7048,VNB,C,0
1,test,5,1.0,1-Back,1,m,Mon Mar 10 2025 17:43:44 GMT-0500 (Central Daylight Time),314349.10000002384,012_o_f_h_a.png,O,m,660,2,1,1676.4000000357628,312672.6999999881,7048,VNB,C,1
2,test,5,0.0,1-Back,1,m,Mon Mar 10 2025 17:43:44 GMT-0500 (Central Daylight Time),315932.89999997616,025_y_m_d_a.png,O,m,561,3,1,1576.5,314356.39999997616,7048,VNB,C,2
3,test,5,0.0,1-Back,1,z,Mon Mar 10 2025 17:43:44 GMT-0500 (Central Daylight Time),317481.60000002384,015_o_m_d_a.png,O,z,523,4,1,1540.2000000476837,315941.39999997616,7048,VNB,C,3
4,test,5,0.0,1-Back,1,m,Mon Mar 10 2025 17:43:44 GMT-0500 (Central Daylight Time),318964.89999997616,019_m_f_h_a.png,O,m,454,5,1,1475.2999999523163,317489.60000002384,7048,VNB,C,4
5,test,5,0.0,1-Back,1,m,Mon Mar 10 2025 17:43:44 GMT-0500 (Central Daylight Time),320614.1999999881,022_y_f_n_a.png,O,m,626,6,1,1640.800000011921,318973.39999997616,7048,VNB,C,5
6,test,5,1.0,1-Back,1,z,Mon Mar 10 2025 17:43:44 GMT-0500 (Central Daylight Time),322463.60000002384,012_o_f_n_a.png,O,z,817,7,1,1842.1000000238419,320621.5,7048,VNB,C,6
7,test,5,0.0,1-Back,1,m,Mon Mar 10 2025 17:43:44 GMT-0500 (Central Daylight Time),324012.39999997616,019_m_f_d_a.png,O,m,528,8,1,1541.0,322471.39999997616,7048,VNB,C,7
8,test,5,0.0,1-Back,1,m,Mon Mar 10 2025 17:43:44 GMT-0500 (Central Daylight Time),325978.10000002384,025_y_m_h_a.png,O,m,945,9,1,1957.800000011921,324020.3000000119,7048,VNB,C,8
9,test,5,0.0,1-Back,1,m,Mon Mar 10 2025 17:43:44 GMT-0500 (Central Daylight Time),327578.3000000119,022_y_f_d_a.png,O,m,572,10,1,1592.800000011921,325985.5,7048,VNB,C,9
10,test,5,0.0,1-Back,1,m,Mon Mar 10 2025 17:43:44 GMT-0500 (Central Daylight Time),329110.39999997616,014_m_m_n_a.png,O,m,508,11,1,1524.0999999642372,327586.3000000119,7048,VNB,C,10
11,test,5,1.0,1-Back,1,z,Mon Mar 10 2025 17:43:44 GMT-0500 (Central Daylight Time),330710.5,019_m_f_n_a.png,O,z,577,12,1,1592.6000000238419,329117.89999997616,7048,VNB,C,11
12,test,5,0.0,1-Back,1,m,Mon Mar 10 2025 17:43:44 GMT-0500 (Central Daylight Time),332345.0,015_o_m_h_a.png,O,m,607,13,1,1628.0,330717.0,7048,VNB,C,12
13,test,5,0.0,1-Back,1,z,Mon Mar 10 2025 17:43:44 GMT-0500 (Central Daylight Time),333875.5,014_m_m_h_a.png,O,z,503,14,1,1523.800000011921,332351.6999999881,7048,VNB,C,13
14,test,5,1.0,1-Back,1,m,Mon Mar 10 2025 17:43:44 GMT-0500 (Central Daylight Time),335442.5,012_o_f_d_a.png,O,m,538,15,1,1559.6000000238419,333882.89999997616,7048,VNB,C,14
15,test,5,0.0,1-Back,1,m,Mon Mar 10 2025 17:43:44 GMT-0500 (Central Daylight Time),337042.1999999881,025_y_m_n_a.png,O,m,580,16,1,1591.5,335450.6999999881,7048,VNB,C,15
16,test,5,0.0,1-Back,1,m,Mon Mar 10 2025 17:43:44 GMT-0500 (Central Daylight Time),338707.89999997616,022_y_f_h_a.png,O,m,645,17,1,1658.199999988079,337049.6999999881,7048,VNB,C,16
17,test,5,0.0,1-Back,1,m,Mon Mar 10 2025 17:43:44 GMT-0500 (Central Daylight Time),340423.1999999881,014_m_m_d_a.png,O,m,682,18,1,1707.199999988079,338716.0,7048,VNB,C,17
0,prac,1,0.0,2-Back,,,Mon Mar 10 2025 17:43:44 GMT-0500 (Central Daylight Time),340423.1999999881,019_m_f_n_a.png,O,space,4176,1,1,1707.199999988079,338716.0,7048,VNB,C,0
0,prac,1,0.0,2-Back,,,Mon Mar 10 2025 17:43:44 GMT-0500 (Central Daylight Time),340423.1999999881,012_o_f_h_a.png,O,space,4176,2,1,1707.199999988079,338716.0,7048,VNB,C,0
0,prac,1,0.0,2-Back,0,m,Mon Mar 10 2025 17:43:44 GMT-0500 (Central Daylight Time),436577.1999999881,015_o_m_d_a.png,O,None,2015,3,1,2892.0,433685.1999999881,7048,VNB,C,1
1,prac,1,1.0,2-Back,1,z,Mon Mar 10 2025 17:43:44 GMT-0500 (Central Daylight Time),439010.10000002384,014_m_m_h_a.png,O,z,1574,4,1,2424.800000011921,436585.3000000119,7048,VNB,C,2
1,prac,1,0.0,2-Back,0,m,Mon Mar 10 2025 17:43:44 GMT-0500 (Central Daylight Time),441909.60000002384,022_y_f_n_a.png,O,None,2015,5,1,2891.300000011921,439018.3000000119,7048,VNB,C,3
2,prac,1,1.0,2-Back,1,z,Mon Mar 10 2025 17:43:44 GMT-0500 (Central Daylight Time),443891.5,015_o_m_h_a.png,O,z,1074,6,1,1973.0,441918.5,7048,VNB,C,4
2,prac,1,1.0,2-Back,0,z,Mon Mar 10 2025 17:43:44 GMT-0500 (Central Daylight Time),446408.3000000119,025_y_m_n_a.png,O,m,1646,7,1,2506.600000023842,443901.6999999881,7048,VNB,C,5
3,prac,1,0.0,2-Back,1,m,Mon Mar 10 2025 17:43:44 GMT-0500 (Central Daylight Time),449057.39999997616,019_m_f_d_a.png,O,m,1756,8,1,2641.5,446415.89999997616,7048,VNB,C,6
3,prac,1,0.0,2-Back,0,m,Mon Mar 10 2025 17:43:44 GMT-0500 (Central Daylight Time),451091.39999997616,012_o_f_d_a.png,O,z,1169,9,1,2025.5999999642372,449065.8000000119,7048,VNB,C,7
3,prac,1,0.0,2-Back,0,m,Mon Mar 10 2025 17:43:44 GMT-0500 (Central Daylight Time),453871.10000002384,014_m_m_h_a.png,O,None,2007,10,1,2773.800000011921,451097.3000000119,7048,VNB,C,8
3,prac,1,1.0,2-Back,0,z,Mon Mar 10 2025 17:43:44 GMT-0500 (Central Daylight Time),456770.60000002384,022_y_f_d_a.png,O,None,2016,11,1,2890.300000011921,453880.3000000119,7048,VNB,C,9
4,prac,1,0.0,2-Back,1,m,Mon Mar 10 2025 17:43:44 GMT-0500 (Central Daylight Time),458853.5,015_o_m_n_a.png,O,m,1188,12,1,2073.699999988079,456779.8000000119,7048,VNB,C,10
0,prac,2,0.0,2-Back,,,Mon Mar 10 2025 17:43:44 GMT-0500 (Central Daylight Time),458853.5,019_m_f_n_a.png,O,a,8797,1,1,2073.699999988079,456779.8000000119,7048,VNB,C,0
0,prac,2,0.0,2-Back,,,Mon Mar 10 2025 17:43:44 GMT-0500 (Central Daylight Time),458853.5,012_o_f_h_a.png,O,a,8797,2,1,2073.699999988079,456779.8000000119,7048,VNB,C,0
1,prac,2,0.0,2-Back,1,m,Mon Mar 10 2025 17:43:44 GMT-0500 (Central Daylight Time),475266.1999999881,015_o_m_d_a.png,O,m,1436,3,1,2322.599999964237,472943.60000002384,7048,VNB,C,1
2,prac,2,1.0,2-Back,1,z,Mon Mar 10 2025 17:43:44 GMT-0500 (Central Daylight Time),476880.60000002384,014_m_m_h_a.png,O,z,829,4,1,1605.5,475275.10000002384,7048,VNB,C,2
3,prac,2,0.0,2-Back,1,m,Mon Mar 10 2025 17:43:44 GMT-0500 (Central Daylight Time),479315.0,022_y_f_n_a.png,O,m,1516,5,1,2424.399999976158,476890.60000002384,7048,VNB,C,3
4,prac,2,1.0,2-Back,1,z,Mon Mar 10 2025 17:43:44 GMT-0500 (Central Daylight Time),481163.8000000119,015_o_m_h_a.png,O,z,956,6,1,1838.5,479325.3000000119,7048,VNB,C,4
4,prac,2,1.0,2-Back,0,z,Mon Mar 10 2025 17:43:44 GMT-0500 (Central Daylight Time),483196.8000000119,025_y_m_n_a.png,O,m,1157,7,1,2023.9000000357628,481172.89999997616,7048,VNB,C,5
5,prac,2,0.0,2-Back,1,m,Mon Mar 10 2025 17:43:44 GMT-0500 (Central Daylight Time),485063.89999997616,019_m_f_d_a.png,O,m,981,8,1,1858.199999988079,483205.6999999881,7048,VNB,C,6
5,prac,2,0.0,2-Back,0,m,Mon Mar 10 2025 17:43:44 GMT-0500 (Central Daylight Time),487511.0,012_o_f_d_a.png,O,z,1552,9,1,2438.600000023842,485072.39999997616,7048,VNB,C,7
6,prac,2,0.0,2-Back,1,m,Mon Mar 10 2025 17:43:44 GMT-0500 (Central Daylight Time),489926.6999999881,014_m_m_h_a.png,O,m,1631,10,1,2405.5,487521.1999999881,7048,VNB,C,8
7,prac,2,1.0,2-Back,1,z,Mon Mar 10 2025 17:43:44 GMT-0500 (Central Daylight Time),492078.6999999881,022_y_f_d_a.png,O,z,1278,11,1,2143.899999976158,489934.8000000119,7048,VNB,C,9
8,prac,2,0.0,2-Back,1,m,Mon Mar 10 2025 17:43:44 GMT-0500 (Central Daylight Time),494359.1999999881,015_o_m_n_a.png,O,m,1390,12,1,2272.300000011921,492086.89999997616,7048,VNB,C,10
0,test,1,0.0,2-Back,,,Mon Mar 10 2025 17:43:44 GMT-0500 (Central Daylight Time),494359.1999999881,025_y_m_h_a.png,O,space,6773,1,1,2272.300000011921,492086.89999997616,7048,VNB,C,0
0,test,1,0.0,2-Back,,,Mon Mar 10 2025 17:43:44 GMT-0500 (Central Daylight Time),494359.1999999881,012_o_f_n_a.png,O,space,6773,2,1,2272.300000011921,492086.89999997616,7048,VNB,C,0
1,test,1,0.0,2-Back,1,z,Mon Mar 10 2025 17:43:44 GMT-0500 (Central Daylight Time),514420.0,015_o_m_h_a.png,O,z,1097,3,1,2109.300000011921,512310.6999999881,7048,VNB,C,1
2,test,1,0.0,2-Back,1,m,Mon Mar 10 2025 17:43:44 GMT-0500 (Central Daylight Time),516752.10000002384,019_m_f_d_a.png,O,m,1299,4,1,2323.100000023842,514429.0,7048,VNB,C,2
2,test,1,1.0,2-Back,0,m,Mon Mar 10 2025 17:43:44 GMT-0500 (Central Daylight Time),519368.60000002384,025_y_m_n_a.png,O,z,1592,5,1,2608.600000023842,516760.0,7048,VNB,C,3
3,test,1,0.0,2-Back,1,z,Mon Mar 10 2025 17:43:44 GMT-0500 (Central Daylight Time),521565.6999999881,022_y_f_d_a.png,O,z,1166,6,1,2189.800000011921,519375.89999997616,7048,VNB,C,4
4,test,1,0.0,2-Back,1,m,Mon Mar 10 2025 17:43:44 GMT-0500 (Central Daylight Time),523716.10000002384,014_m_m_h_a.png,O,m,1120,7,1,2143.600000023842,521572.5,7048,VNB,C,5
4,test,1,1.0,2-Back,0,m,Mon Mar 10 2025 17:43:44 GMT-0500 (Central Daylight Time),525982.1000000238,022_y_f_n_a.png,O,z,1243,8,1,2258.2000000476837,523723.89999997616,7048,VNB,C,6
5,test,1,0.0,2-Back,1,z,Mon Mar 10 2025 17:43:44 GMT-0500 (Central Daylight Time),527980.8000000119,012_o_f_h_a.png,O,z,976,9,1,1991.300000011921,525989.5,7048,VNB,C,7
6,test,1,0.0,2-Back,1,m,Mon Mar 10 2025 17:43:44 GMT-0500 (Central Daylight Time),529830.8000000119,015_o_m_d_a.png,O,m,825,10,1,1842.300000011921,527988.5,7048,VNB,C,8
7,test,1,1.0,2-Back,1,m,Mon Mar 10 2025 17:43:44 GMT-0500 (Central Daylight Time),532447.3000000119,014_m_m_d_a.png,O,m,1593,11,1,2608.300000011921,529839.0,7048,VNB,C,9
8,test,1,0.0,2-Back,1,m,Mon Mar 10 2025 17:43:44 GMT-0500 (Central Daylight Time),534528.8999999762,019_m_f_n_a.png,O,m,1065,12,1,2073.599999964237,532455.3000000119,7048,VNB,C,10
9,test,1,0.0,2-Back,1,m,Mon Mar 10 2025 17:43:44 GMT-0500 (Central Daylight Time),537228.6999999881,022_y_f_h_a.png,O,m,1679,13,1,2691.0,534537.6999999881,7048,VNB,C,11
10,test,1,0.0,2-Back,1,z,Mon Mar 10 2025 17:43:44 GMT-0500 (Central Daylight Time),539296.6999999881,014_m_m_n_a.png,O,z,1033,14,1,2059.699999988079,537237.0,7048,VNB,C,12
10,test,1,0.0,2-Back,0,m,Mon Mar 10 2025 17:43:44 GMT-0500 (Central Daylight Time),542327.6999999881,025_y_m_d_a.png,O,None,2015,15,1,3023.899999976158,539303.8000000119,7048,VNB,C,13
10,test,1,1.0,2-Back,0,m,Mon Mar 10 2025 17:43:44 GMT-0500 (Central Daylight Time),545259.5,019_m_f_h_a.png,O,z,1898,16,1,2925.800000011921,542333.6999999881,7048,VNB,C,14
10,test,1,0.0,2-Back,0,z,Mon Mar 10 2025 17:43:44 GMT-0500 (Central Daylight Time),547695.0,012_o_f_d_a.png,O,m,1411,17,1,2425.399999976158,545269.6000000238,7048,VNB,C,15
10,test,1,0.0,2-Back,0,m,Mon Mar 10 2025 17:43:44 GMT-0500 (Central Daylight Time),549740.5,015_o_m_n_a.png,O,z,1026,18,1,2039.6000000238419,547700.8999999762,7048,VNB,C,16
0,test,2,0.0,2-Back,,,Mon Mar 10 2025 17:43:44 GMT-0500 (Central Daylight Time),549740.5,014_m_m_h_a.png,O,space,1323,1,1,2039.6000000238419,547700.8999999762,7048,VNB,C,0
0,test,2,0.0,2-Back,,,Mon Mar 10 2025 17:43:44 GMT-0500 (Central Daylight Time),549740.5,022_y_f_n_a.png,O,space,1323,2,1,2039.6000000238419,547700.8999999762,7048,VNB,C,0
1,test,2,1.0,2-Back,1,z,Mon Mar 10 2025 17:43:44 GMT-0500 (Central Daylight Time),558889.1000000238,012_o_f_h_a.png,O,z,1559,3,1,2574.5,556314.6000000238,7048,VNB,C,1
2,test,2,0.0,2-Back,1,m,Mon Mar 10 2025 17:43:44 GMT-0500 (Central Daylight Time),561721.6999999881,015_o_m_d_a.png,O,m,1808,4,1,2826.5,558895.1999999881,7048,VNB,C,2
2,test,2,0.0,2-Back,0,m,Mon Mar 10 2025 17:43:44 GMT-0500 (Central Daylight Time),564251.8999999762,019_m_f_d_a.png,O,z,1500,5,1,2520.599999964237,561731.3000000119,7048,VNB,C,3
2,test,2,0.0,2-Back,0,m,Mon Mar 10 2025 17:43:44 GMT-0500 (Central Daylight Time),567069.6999999881,025_y_m_h_a.png,O,z,1792,6,1,2810.5,564259.1999999881,7048,VNB,C,4
3,test,2,0.0,2-Back,1,m,Mon Mar 10 2025 17:43:44 GMT-0500 (Central Daylight Time),569367.3999999762,012_o_f_n_a.png,O,m,1281,7,1,2288.899999976158,567078.5,7048,VNB,C,5
4,test,2,1.0,2-Back,1,z,Mon Mar 10 2025 17:43:44 GMT-0500 (Central Daylight Time),571303.1999999881,015_o_m_h_a.png,O,z,903,8,1,1929.8999999761581,569373.3000000119,7048,VNB,C,6
5,test,2,0.0,2-Back,1,m,Mon Mar 10 2025 17:43:44 GMT-0500 (Central Daylight Time),573366.8999999762,022_y_f_d_a.png,O,m,1037,9,1,2061.099999964237,571305.8000000119,7048,VNB,C,7
6,test,2,0.0,2-Back,1,m,Mon Mar 10 2025 17:43:44 GMT-0500 (Central Daylight Time),575932.0,025_y_m_d_a.png,O,m,1536,10,1,2556.399999976158,573375.6000000238,7048,VNB,C,8
6,test,2,0.0,2-Back,0,m,Mon Mar 10 2025 17:43:44 GMT-0500 (Central Daylight Time),578799.0,014_m_m_n_a.png,O,z,1834,11,1,2859.800000011921,575939.1999999881,7048,VNB,C,9
7,test,2,0.0,2-Back,1,m,Mon Mar 10 2025 17:43:44 GMT-0500 (Central Daylight Time),581164.0,019_m_f_h_a.png,O,m,1337,12,1,2358.5,578805.5,7048,VNB,C,10
8,test,2,1.0,2-Back,1,z,Mon Mar 10 2025 17:43:44 GMT-0500 (Central Daylight Time),582994.5,015_o_m_n_a.png,O,z,812,13,1,1821.300000011921,581173.1999999881,7048,VNB,C,11
9,test,2,0.0,2-Back,1,m,Mon Mar 10 2025 17:43:44 GMT-0500 (Central Daylight Time),584863.0,012_o_f_d_a.png,O,m,844,14,1,1865.8999999761581,582997.1000000238,7048,VNB,C,12
9,test,2,0.0,2-Back,0,m,Mon Mar 10 2025 17:43:44 GMT-0500 (Central Daylight Time),587096.1999999881,022_y_f_h_a.png,O,z,1199,15,1,2227.0,584869.1999999881,7048,VNB,C,13
10,test,2,0.0,2-Back,1,z,Mon Mar 10 2025 17:43:44 GMT-0500 (Central Daylight Time),588879.3999999762,014_m_m_d_a.png,O,z,759,16,1,1775.5,587103.8999999762,7048,VNB,C,14
11,test,2,0.0,2-Back,1,m,Mon Mar 10 2025 17:43:44 GMT-0500 (Central Daylight Time),591161.5,025_y_m_n_a.png,O,m,1251,17,1,2273.600000023842,588887.8999999762,7048,VNB,C,15
12,test,2,1.0,2-Back,1,m,Mon Mar 10 2025 17:43:44 GMT-0500 (Central Daylight Time),593461.8999999762,019_m_f_n_a.png,O,m,1269,18,1,2293.0,591168.8999999762,7048,VNB,C,16
0,test,3,1.0,2-Back,,,Mon Mar 10 2025 17:43:44 GMT-0500 (Central Daylight Time),593461.8999999762,015_o_m_n_a.png,O,space,1233,1,1,2293.0,591168.8999999762,7048,VNB,C,0
0,test,3,1.0,2-Back,,,Mon Mar 10 2025 17:43:44 GMT-0500 (Central Daylight Time),593461.8999999762,012_o_f_d_a.png,O,space,1233,2,1,2293.0,591168.8999999762,7048,VNB,C,0
1,test,3,0.0,2-Back,1,m,Mon Mar 10 2025 17:43:44 GMT-0500 (Central Daylight Time),602258.8999999762,022_y_f_h_a.png,O,m,1482,3,1,2492.7999999523163,599766.1000000238,7048,VNB,C,1
2,test,3,0.0,2-Back,1,z,Mon Mar 10 2025 17:43:44 GMT-0500 (Central Daylight Time),604406.6999999881,019_m_f_d_a.png,O,z,1123,4,1,2138.899999976158,602267.8000000119,7048,VNB,C,2
2,test,3,1.0,2-Back,0,m,Mon Mar 10 2025 17:43:44 GMT-0500 (Central Daylight Time),606857.0,025_y_m_n_a.png,O,z,1433,5,1,2439.699999988079,604417.3000000119,7048,VNB,C,3
3,test,3,0.0,2-Back,1,m,Mon Mar 10 2025 17:43:44 GMT-0500 (Central Daylight Time),608806.1999999881,015_o_m_h_a.png,O,m,926,6,1,1941.8999999761581,606864.3000000119,7048,VNB,C,4
4,test,3,0.0,2-Back,1,z,Mon Mar 10 2025 17:43:44 GMT-0500 (Central Daylight Time),611187.6000000238,022_y_f_n_a.png,O,z,1351,7,1,2372.7000000476837,608814.8999999762,7048,VNB,C,5
5,test,3,1.0,2-Back,1,m,Mon Mar 10 2025 17:43:44 GMT-0500 (Central Daylight Time),613771.3000000119,014_m_m_d_a.png,O,m,1564,8,1,2576.800000011921,611194.5,7048,VNB,C,6
5,test,3,0.0,2-Back,0,m,Mon Mar 10 2025 17:43:44 GMT-0500 (Central Daylight Time),616803.6999999881,025_y_m_d_a.png,O,None,2013,9,1,3026.099999964237,613777.6000000238,7048,VNB,C,7
5,test,3,0.0,2-Back,0,m,Mon Mar 10 2025 17:43:44 GMT-0500 (Central Daylight Time),618836.3999999762,012_o_f_h_a.png,O,z,1016,10,1,2028.7999999523163,616807.6000000238,7048,VNB,C,8
6,test,3,1.0,2-Back,1,m,Mon Mar 10 2025 17:43:44 GMT-0500 (Central Daylight Time),620785.3000000119,019_m_f_n_a.png,O,m,925,11,1,1941.5,618843.8000000119,7048,VNB,C,9
7,test,3,1.0,2-Back,1,z,Mon Mar 10 2025 17:43:44 GMT-0500 (Central Daylight Time),623717.8999999762,014_m_m_h_a.png,O,z,1900,12,1,2925.199999988079,620792.6999999881,7048,VNB,C,10
8,test,3,0.0,2-Back,1,m,Mon Mar 10 2025 17:43:44 GMT-0500 (Central Daylight Time),626300.6000000238,022_y_f_d_a.png,O,m,1553,13,1,2573.600000023842,623727.0,7048,VNB,C,11
9,test,3,0.0,2-Back,1,m,Mon Mar 10 2025 17:43:44 GMT-0500 (Central Daylight Time),629149.3000000119,012_o_f_n_a.png,O,m,1828,14,1,2840.600000023842,626308.6999999881,7048,VNB,C,12
9,test,3,0.0,2-Back,0,z,Mon Mar 10 2025 17:43:44 GMT-0500 (Central Daylight Time),631349.3999999762,015_o_m_d_a.png,O,m,1167,15,1,2192.599999964237,629156.8000000119,7048,VNB,C,13
9,test,3,1.0,2-Back,0,m,Mon Mar 10 2025 17:43:44 GMT-0500 (Central Daylight Time),632980.8000000119,019_m_f_h_a.png,O,z,611,16,1,1621.300000011921,631359.5,7048,VNB,C,14
9,test,3,0.0,2-Back,0,m,Mon Mar 10 2025 17:43:44 GMT-0500 (Central Daylight Time),635380.1999999881,014_m_m_n_a.png,O,z,1368,17,1,2391.300000011921,632988.8999999762,7048,VNB,C,15
9,test,3,0.0,2-Back,0,z,Mon Mar 10 2025 17:43:44 GMT-0500 (Central Daylight Time),637462.0,025_y_m_h_a.png,O,m,1058,18,1,2072.899999976158,635389.1000000238,7048,VNB,C,16
0,test,4,0.0,2-Back,,,Mon Mar 10 2025 17:43:44 GMT-0500 (Central Daylight Time),637462.0,019_m_f_n_a.png,O,space,2122,1,1,2072.899999976158,635389.1000000238,7048,VNB,C,0
0,test,4,0.0,2-Back,,,Mon Mar 10 2025 17:43:44 GMT-0500 (Central Daylight Time),637462.0,015_o_m_n_a.png,O,space,2122,2,1,2072.899999976158,635389.1000000238,7048,VNB,C,0
1,test,4,1.0,2-Back,1,m,Mon Mar 10 2025 17:43:44 GMT-0500 (Central Daylight Time),646712.3000000119,025_y_m_h_a.png,O,m,852,3,1,1873.6000000238419,644838.6999999881,7048,VNB,C,1
2,test,4,1.0,2-Back,1,m,Mon Mar 10 2025 17:43:44 GMT-0500 (Central Daylight Time),648675.8999999762,012_o_f_d_a.png,O,m,945,4,1,1953.2999999523163,646722.6000000238,7048,VNB,C,2
3,test,4,0.0,2-Back,1,z,Mon Mar 10 2025 17:43:44 GMT-0500 (Central Daylight Time),650360.6999999881,015_o_m_h_a.png,O,z,659,5,1,1677.300000011921,648683.3999999762,7048,VNB,C,3
4,test,4,0.0,2-Back,1,m,Mon Mar 10 2025 17:43:44 GMT-0500 (Central Daylight Time),652393.0,014_m_m_n_a.png,O,m,1016,6,1,2029.6000000238419,650363.3999999762,7048,VNB,C,4
4,test,4,0.0,2-Back,0,m,Mon Mar 10 2025 17:43:44 GMT-0500 (Central Daylight Time),654940.5,019_m_f_d_a.png,O,z,1527,7,1,2541.300000011921,652399.1999999881,7048,VNB,C,5
5,test,4,0.0,2-Back,1,z,Mon Mar 10 2025 17:43:44 GMT-0500 (Central Daylight Time),657189.8000000119,022_y_f_n_a.png,O,z,1225,8,1,2242.5,654947.3000000119,7048,VNB,C,6
6,test,4,1.0,2-Back,1,m,Mon Mar 10 2025 17:43:44 GMT-0500 (Central Daylight Time),659056.3999999762,012_o_f_h_a.png,O,m,833,9,1,1859.5,657196.8999999762,7048,VNB,C,7
7,test,4,0.0,2-Back,1,m,Mon Mar 10 2025 17:43:44 GMT-0500 (Central Daylight Time),661306.8999999762,014_m_m_h_a.png,O,m,1222,10,1,2242.5,659064.3999999762,7048,VNB,C,8
8,test,4,0.0,2-Back,1,m,Mon Mar 10 2025 17:43:44 GMT-0500 (Central Daylight Time),663721.0,022_y_f_d_a.png,O,m,1388,11,1,2406.199999988079,661314.8000000119,7048,VNB,C,9
9,test,4,0.0,2-Back,1,m,Mon Mar 10 2025 17:43:44 GMT-0500 (Central Daylight Time),666270.1000000238,025_y_m_n_a.png,O,m,1524,12,1,2543.0,663727.1000000238,7048,VNB,C,10
9,test,4,0.0,2-Back,0,z,Mon Mar 10 2025 17:43:44 GMT-0500 (Central Daylight Time),668754.8999999762,015_o_m_d_a.png,O,m,1467,13,1,2477.399999976158,666277.5,7048,VNB,C,11
9,test,4,1.0,2-Back,0,m,Mon Mar 10 2025 17:43:44 GMT-0500 (Central Daylight Time),670536.1000000238,019_m_f_h_a.png,O,z,767,14,1,1776.300000011921,668759.8000000119,7048,VNB,C,12
10,test,4,1.0,2-Back,1,m,Mon Mar 10 2025 17:43:44 GMT-0500 (Central Daylight Time),672885.1000000238,022_y_f_h_a.png,O,m,1318,15,1,2340.5,670544.6000000238,7048,VNB,C,13
11,test,4,0.0,2-Back,1,m,Mon Mar 10 2025 17:43:44 GMT-0500 (Central Daylight Time),675169.8999999762,012_o_f_n_a.png,O,m,1267,16,1,2278.099999964237,672891.8000000119,7048,VNB,C,14
12,test,4,0.0,2-Back,1,m,Mon Mar 10 2025 17:43:44 GMT-0500 (Central Daylight Time),677335.8999999762,025_y_m_d_a.png,O,m,1144,17,1,2161.699999988079,675174.1999999881,7048,VNB,C,15
13,test,4,1.0,2-Back,1,m,Mon Mar 10 2025 17:43:44 GMT-0500 (Central Daylight Time),679251.6999999881,014_m_m_d_a.png,O,m,900,18,1,1908.0,677343.6999999881,7048,VNB,C,16
0,test,5,1.0,2-Back,,,Mon Mar 10 2025 17:43:44 GMT-0500 (Central Daylight Time),679251.6999999881,022_y_f_d_a.png,O,space,1115,1,1,1908.0,677343.6999999881,7048,VNB,C,0
0,test,5,1.0,2-Back,,,Mon Mar 10 2025 17:43:44 GMT-0500 (Central Daylight Time),679251.6999999881,012_o_f_h_a.png,O,space,1115,2,1,1908.0,677343.6999999881,7048,VNB,C,0
1,test,5,1.0,2-Back,1,z,Mon Mar 10 2025 17:43:44 GMT-0500 (Central Daylight Time),688281.6999999881,015_o_m_d_a.png,O,z,1624,3,1,2641.399999976158,685640.3000000119,7048,VNB,C,1
2,test,5,1.0,2-Back,1,m,Mon Mar 10 2025 17:43:44 GMT-0500 (Central Daylight Time),690296.8000000119,019_m_f_n_a.png,O,m,991,4,1,2008.300000011921,688288.5,7048,VNB,C,2
2,test,5,0.0,2-Back,0,m,Mon Mar 10 2025 17:43:44 GMT-0500 (Central Daylight Time),692511.1999999881,014_m_m_h_a.png,O,z,1182,5,1,2206.699999988079,690304.5,7048,VNB,C,3
3,test,5,0.0,2-Back,1,z,Mon Mar 10 2025 17:43:44 GMT-0500 (Central Daylight Time),694513.0,022_y_f_n_a.png,O,z,982,6,1,1995.800000011921,692517.1999999881,7048,VNB,C,4
4,test,5,0.0,2-Back,1,m,Mon Mar 10 2025 17:43:44 GMT-0500 (Central Daylight Time),696677.6999999881,012_o_f_d_a.png,O,m,1134,7,1,2156.699999988079,694521.0,7048,VNB,C,5
4,test,5,0.0,2-Back,0,m,Mon Mar 10 2025 17:43:44 GMT-0500 (Central Daylight Time),699242.6000000238,015_o_m_h_a.png,O,z,1547,8,1,2557.100000023842,696685.5,7048,VNB,C,6
5,test,5,1.0,2-Back,1,z,Mon Mar 10 2025 17:43:44 GMT-0500 (Central Daylight Time),701742.8000000119,019_m_f_d_a.png,O,z,1475,9,1,2491.5,699251.3000000119,7048,VNB,C,7
6,test,5,0.0,2-Back,1,m,Mon Mar 10 2025 17:43:44 GMT-0500 (Central Daylight Time),703825.6999999881,025_y_m_n_a.png,O,m,1055,10,1,2073.699999988079,701752.0,7048,VNB,C,8
6,test,5,0.0,2-Back,0,m,Mon Mar 10 2025 17:43:44 GMT-0500 (Central Daylight Time),706192.3000000119,014_m_m_n_a.png,O,z,1348,11,1,2358.699999988079,703833.6000000238,7048,VNB,C,9
7,test,5,0.0,2-Back,1,m,Mon Mar 10 2025 17:43:44 GMT-0500 (Central Daylight Time),708391.3999999762,022_y_f_h_a.png,O,m,1167,12,1,2190.199999988079,706201.1999999881,7048,VNB,C,10
8,test,5,0.0,2-Back,1,m,Mon Mar 10 2025 17:43:44 GMT-0500 (Central Daylight Time),710408.6000000238,025_y_m_d_a.png,O,m,984,13,1,2008.5,708400.1000000238,7048,VNB,C,11
8,test,5,1.0,2-Back,0,z,Mon Mar 10 2025 17:43:44 GMT-0500 (Central Daylight Time),712603.5,019_m_f_h_a.png,O,m,1175,14,1,2188.600000023842,710414.8999999762,7048,VNB,C,12
8,test,5,0.0,2-Back,0,m,Mon Mar 10 2025 17:43:44 GMT-0500 (Central Daylight Time),714372.3999999762,015_o_m_n_a.png,O,z,751,15,1,1766.199999988079,712606.1999999881,7048,VNB,C,13
8,test,5,0.0,2-Back,0,m,Mon Mar 10 2025 17:43:44 GMT-0500 (Central Daylight Time),716337.1999999881,014_m_m_d_a.png,O,z,947,16,1,1958.0,714379.1999999881,7048,VNB,C,14
8,test,5,0.0,2-Back,0,z,Mon Mar 10 2025 17:43:44 GMT-0500 (Central Daylight Time),718553.5,012_o_f_n_a.png,O,m,1188,17,1,2208.300000011921,716345.1999999881,7048,VNB,C,15
8,test,5,1.0,2-Back,0,m,Mon Mar 10 2025 17:43:44 GMT-0500 (Central Daylight Time),720870.0,025_y_m_h_a.png,O,z,1285,18,1,2309.199999988079,718560.8000000119,7048,VNB,C,16
