acc_sum,block,block_c,condition,correct,correct_response,datetime,endtime,flanker,jitter,project,response,response_test_buffer_response,response_test_target_response,response_time,response_time_test_buffer_response,response_time_test_target_response,row_sel,session_number,start_end,starttime,subject_id,target,task,task_vers,time_test_buffer,time_test_buffer_response,time_test_constants,time_test_flanker,time_test_jitter,time_test_logger,time_test_target,time_test_target_response,time_test_variables,trial
0,prac,1,con,0,m,Wed Apr 09 2025 17:03:35 GMT-0500 (Central Daylight Time),127555.79999999702,jacket,800,O,None,,,1799,,,5,1,4860.89999999851,122694.89999999851,7124,jacket,AF,B,,,,,,,,,,1
0,prac,1,inc,0,z,Wed Apr 09 2025 17:03:35 GMT-0500 (Central Daylight Time),132520.59999999776,rock,900,O,None,,,1799,,,10,1,4959.800000000745,127560.79999999702,7124,kind,AF,B,,,,,,,,,,2
0,prac,1,inc,0,m,Wed Apr 09 2025 17:03:35 GMT-0500 (Central Daylight Time),137485.79999999702,kind,900,O,None,,,1799,,,2,1,4960.599999997765,132525.19999999925,7124,rock,AF,B,,,,,,,,,,3
0,prac,1,con,0,z,Wed Apr 09 2025 17:03:35 GMT-0500 (Central Daylight Time),139835.09999999776,rage,1000,O,m,,,47,,,15,1,2344.800000000745,137490.29999999702,7124,rage,AF,B,,,,,,,,,,4
0,prac,1,con,0,z,Wed Apr 09 2025 17:03:35 GMT-0500 (Central Daylight Time),144900.3999999985,love,1000,O,None,,,1799,,,11,1,5060.89999999851,139839.5,7124,love,AF,B,,,,,,,,,,5
0,prac,1,inc,0,m,Wed Apr 09 2025 17:03:35 GMT-0500 (Central Daylight Time),147416.0,brutal,1100,O,z,,,107,,,8,1,2510.300000000745,144905.69999999925,7124,window,AF,B,,,,,,,,,,6
0,prac,1,inc,0,z,Wed Apr 09 2025 17:03:35 GMT-0500 (Central Daylight Time),152581.09999999776,napkin,1100,O,None,,,1799,,,12,1,5160.599999997765,147420.5,7124,friend,AF,B,,,,,,,,,,7
0,prac,1,con,0,m,Wed Apr 09 2025 17:03:35 GMT-0500 (Central Daylight Time),155213.69999999925,remote,1000,O,z,,,328,,,7,1,2628.400000002235,152585.29999999702,7124,remote,AF,B,,,,,,,,,,8
1,prac,1,inc,1,z,Wed Apr 09 2025 17:03:35 GMT-0500 (Central Daylight Time),157779.19999999925,film,900,O,z,,,355,,,14,1,2560.900000002235,155218.29999999702,7124,hate,AF,B,,,,,,,,,,9
2,prac,1,inc,1,z,Wed Apr 09 2025 17:03:35 GMT-0500 (Central Daylight Time),160528.69999999925,window,1100,O,z,,,348,,,16,1,2743.5,157785.19999999925,7124,temper,AF,B,,,,,,,,,,10
2,prac,1,con,0,m,Wed Apr 09 2025 17:03:35 GMT-0500 (Central Daylight Time),165593.69999999925,bell,1000,O,None,,,1799,,,3,1,5060.199999999255,160533.5,7124,bell,AF,B,,,,,,,,,,11
2,prac,1,con,0,m,Wed Apr 09 2025 17:03:35 GMT-0500 (Central Daylight Time),167743.19999999925,step,800,O,z,,,35,,,1,1,2144.800000000745,165598.3999999985,7124,step,AF,B,,,,,,,,,,12
3,prac,1,inc,1,m,Wed Apr 09 2025 17:03:35 GMT-0500 (Central Daylight Time),170159.19999999925,elated,900,O,m,,,210,,,6,1,2411.699999999255,167747.5,7124,napkin,AF,B,,,,,,,,,,13
3,prac,1,con,0,z,Wed Apr 09 2025 17:03:35 GMT-0500 (Central Daylight Time),172658.0,elated,800,O,m,,,390,,,9,1,2494.7000000029802,170163.29999999702,7124,elated,AF,B,,,,,,,,,,14
3,prac,1,con,0,z,Wed Apr 09 2025 17:03:35 GMT-0500 (Central Daylight Time),177523.3999999985,brutal,800,O,None,,,1799,,,13,1,4861.199999999255,172662.19999999925,7124,brutal,AF,B,,,,,,,,,,15
3,prac,1,inc,0,m,Wed Apr 09 2025 17:03:35 GMT-0500 (Central Daylight Time),182688.3999999985,hate,1100,O,None,,,1799,,,4,1,5160.5,177527.8999999985,7124,film,AF,B,,,,,,,,,,16
0,prac,2,inc,0,m,Wed Apr 09 2025 17:03:35 GMT-0500 (Central Daylight Time),189986.09999999776,elated,900,O,None,,,1799,,,6,1,4961.39999999851,185024.69999999925,7124,napkin,AF,B,,,,,,,,,,1
1,prac,2,inc,1,z,Wed Apr 09 2025 17:03:35 GMT-0500 (Central Daylight Time),192318.79999999702,rock,900,O,z,,,119,,,10,1,2328.099999997765,189990.69999999925,7124,kind,AF,B,,,,,,,,,,2
1,prac,2,con,0,m,Wed Apr 09 2025 17:03:35 GMT-0500 (Central Daylight Time),194701.0,bell,1000,O,z,,,70,,,3,1,2377.900000002235,192323.09999999776,7124,bell,AF,B,,,,,,,,,,3
1,prac,2,con,0,z,Wed Apr 09 2025 17:03:35 GMT-0500 (Central Daylight Time),196950.69999999925,elated,800,O,m,,,135,,,9,1,2245.699999999255,194705.0,7124,elated,AF,B,,,,,,,,,,4
1,prac,2,con,0,z,Wed Apr 09 2025 17:03:35 GMT-0500 (Central Daylight Time),201815.69999999925,brutal,800,O,None,,,1799,,,13,1,4860.800000000745,196954.8999999985,7124,brutal,AF,B,,,,,,,,,,5
1,prac,2,con,0,m,Wed Apr 09 2025 17:03:35 GMT-0500 (Central Daylight Time),206880.8999999985,remote,1000,O,None,,,1799,,,7,1,5060.800000000745,201820.09999999776,7124,remote,AF,B,,,,,,,,,,6
1,prac,2,inc,0,m,Wed Apr 09 2025 17:03:35 GMT-0500 (Central Daylight Time),212045.8999999985,brutal,1100,O,None,,,1799,,,8,1,5161.10000000149,206884.79999999702,7124,window,AF,B,,,,,,,,,,7
1,prac,2,inc,0,z,Wed Apr 09 2025 17:03:35 GMT-0500 (Central Daylight Time),214628.3999999985,window,1100,O,m,,,171,,,16,1,2578.199999999255,212050.19999999925,7124,temper,AF,B,,,,,,,,,,8
1,prac,2,inc,0,m,Wed Apr 09 2025 17:03:35 GMT-0500 (Central Daylight Time),217160.79999999702,kind,900,O,z,,,330,,,2,1,2527.7999999970198,214633.0,7124,rock,AF,B,,,,,,,,,,9
1,prac,2,inc,0,z,Wed Apr 09 2025 17:03:35 GMT-0500 (Central Daylight Time),222326.0,napkin,1100,O,None,,,1799,,,12,1,5160.300000000745,217165.69999999925,7124,friend,AF,B,,,,,,,,,,10
2,prac,2,con,1,m,Wed Apr 09 2025 17:03:35 GMT-0500 (Central Daylight Time),224525.5,jacket,800,O,m,,,87,,,5,1,2195.10000000149,222330.3999999985,7124,jacket,AF,B,,,,,,,,,,11
3,prac,2,inc,1,m,Wed Apr 09 2025 17:03:35 GMT-0500 (Central Daylight Time),227007.8999999985,hate,1100,O,m,,,75,,,4,1,2478.5,224529.3999999985,7124,film,AF,B,,,,,,,,,,12
3,prac,2,con,0,z,Wed Apr 09 2025 17:03:35 GMT-0500 (Central Daylight Time),229517.69999999925,rage,1000,O,m,,,211,,,15,1,2506.0,227011.69999999925,7124,rage,AF,B,,,,,,,,,,13
4,prac,2,inc,1,z,Wed Apr 09 2025 17:03:35 GMT-0500 (Central Daylight Time),231973.0,film,900,O,z,,,262,,,14,1,2451.2000000029802,229521.79999999702,7124,hate,AF,B,,,,,,,,,,14
5,prac,2,con,1,z,Wed Apr 09 2025 17:03:35 GMT-0500 (Central Daylight Time),234622.19999999925,love,1000,O,z,,,343,,,11,1,2645.199999999255,231977.0,7124,love,AF,B,,,,,,,,,,15
5,prac,2,con,0,m,Wed Apr 09 2025 17:03:35 GMT-0500 (Central Daylight Time),237087.79999999702,step,800,O,z,,,359,,,1,1,2461.5,234626.29999999702,7124,step,AF,B,,,,,,,,,,16
1,prac,3,con,1,z,Wed Apr 09 2025 17:03:35 GMT-0500 (Central Daylight Time),241703.5,rage,1000,O,z,,,418,,,15,1,2728.7000000029802,238974.79999999702,7124,rage,AF,B,,,,,,,,,,1
2,prac,3,inc,1,m,Wed Apr 09 2025 17:03:35 GMT-0500 (Central Daylight Time),244519.29999999702,hate,1100,O,m,,,409,,,4,1,2810.39999999851,241708.8999999985,7124,film,AF,B,,,,,,,,,,2
3,prac,3,inc,1,z,Wed Apr 09 2025 17:03:35 GMT-0500 (Central Daylight Time),247201.69999999925,window,1100,O,z,,,282,,,16,1,2678.699999999255,244523.0,7124,temper,AF,B,,,,,,,,,,3
3,prac,3,con,0,z,Wed Apr 09 2025 17:03:35 GMT-0500 (Central Daylight Time),249684.09999999776,elated,800,O,m,,,370,,,9,1,2477.89999999851,247206.19999999925,7124,elated,AF,B,,,,,,,,,,4
3,prac,3,con,0,z,Wed Apr 09 2025 17:03:35 GMT-0500 (Central Daylight Time),252299.8999999985,love,1000,O,m,,,305,,,11,1,2611.800000000745,249688.09999999776,7124,love,AF,B,,,,,,,,,,5
3,prac,3,con,0,m,Wed Apr 09 2025 17:03:35 GMT-0500 (Central Daylight Time),254832.59999999776,jacket,800,O,z,,,417,,,5,1,2528.300000000745,252304.29999999702,7124,jacket,AF,B,,,,,,,,,,6
4,prac,3,inc,1,m,Wed Apr 09 2025 17:03:35 GMT-0500 (Central Daylight Time),257648.3999999985,brutal,1100,O,m,,,416,,,8,1,2812.0,254836.3999999985,7124,window,AF,B,,,,,,,,,,7
4,prac,3,inc,0,z,Wed Apr 09 2025 17:03:35 GMT-0500 (Central Daylight Time),260364.19999999925,rock,900,O,m,,,504,,,10,1,2711.800000000745,257652.3999999985,7124,kind,AF,B,,,,,,,,,,8
5,prac,3,inc,1,z,Wed Apr 09 2025 17:03:35 GMT-0500 (Central Daylight Time),263413.19999999925,napkin,1100,O,z,,,645,,,12,1,3045.300000000745,260367.8999999985,7124,friend,AF,B,,,,,,,,,,9
6,prac,3,inc,1,z,Wed Apr 09 2025 17:03:35 GMT-0500 (Central Daylight Time),266095.69999999925,film,900,O,z,,,468,,,14,1,2678.60000000149,263417.09999999776,7124,hate,AF,B,,,,,,,,,,10
7,prac,3,con,1,m,Wed Apr 09 2025 17:03:35 GMT-0500 (Central Daylight Time),268928.09999999776,remote,1000,O,m,,,532,,,7,1,2828.699999999255,266099.3999999985,7124,remote,AF,B,,,,,,,,,,11
8,prac,3,con,1,m,Wed Apr 09 2025 17:03:35 GMT-0500 (Central Daylight Time),271677.19999999925,bell,1000,O,m,,,445,,,3,1,2745.300000000745,268931.8999999985,7124,bell,AF,B,,,,,,,,,,12
9,prac,3,con,1,z,Wed Apr 09 2025 17:03:35 GMT-0500 (Central Daylight Time),274126.69999999925,brutal,800,O,z,,,335,,,13,1,2445.199999999255,271681.5,7124,brutal,AF,B,,,,,,,,,,13
9,prac,3,inc,0,m,Wed Apr 09 2025 17:03:35 GMT-0500 (Central Daylight Time),276602.19999999925,kind,900,O,z,,,242,,,2,1,2471.699999999255,274130.5,7124,rock,AF,B,,,,,,,,,,14
10,prac,3,con,1,m,Wed Apr 09 2025 17:03:35 GMT-0500 (Central Daylight Time),279024.8999999985,step,800,O,m,,,331,,,1,1,2418.300000000745,276606.59999999776,7124,step,AF,B,,,,,,,,,,15
10,prac,3,inc,0,m,Wed Apr 09 2025 17:03:35 GMT-0500 (Central Daylight Time),281624.0,elated,900,O,z,,,400,,,6,1,2594.800000000745,279029.19999999925,7124,napkin,AF,B,,,,,,,,,,16
0,prac,4,con,0,z,Wed Apr 09 2025 17:03:35 GMT-0500 (Central Daylight Time),287922.299999997,rage,1000,O,None,,,1799,,,15,1,5062.099999997765,282860.19999999925,7124,rage,AF,B,,,,,,,,,,1
1,prac,4,con,1,z,Wed Apr 09 2025 17:03:35 GMT-0500 (Central Daylight Time),290388.299999997,brutal,800,O,z,,,363,,,13,1,2462.0,287926.299999997,7124,brutal,AF,B,,,,,,,,,,2
2,prac,4,con,1,z,Wed Apr 09 2025 17:03:35 GMT-0500 (Central Daylight Time),292770.69999999925,elated,800,O,z,,,281,,,9,1,2378.699999999255,290392.0,7124,elated,AF,B,,,,,,,,,,3
3,prac,4,inc,1,m,Wed Apr 09 2025 17:03:35 GMT-0500 (Central Daylight Time),295536.5,hate,1100,O,m,,,365,,,4,1,2762.10000000149,292774.3999999985,7124,film,AF,B,,,,,,,,,,4
3,prac,4,con,0,m,Wed Apr 09 2025 17:03:35 GMT-0500 (Central Daylight Time),297969.09999999776,step,800,O,z,,,331,,,1,1,2429.099999997765,295540.0,7124,step,AF,B,,,,,,,,,,5
3,prac,4,inc,0,z,Wed Apr 09 2025 17:03:35 GMT-0500 (Central Daylight Time),300785.0,window,1100,O,m,,,428,,,16,1,2812.300000000745,297972.69999999925,7124,temper,AF,B,,,,,,,,,,6
3,prac,4,inc,0,m,Wed Apr 09 2025 17:03:35 GMT-0500 (Central Daylight Time),303350.799999997,elated,900,O,z,,,359,,,6,1,2561.599999997765,300789.19999999925,7124,napkin,AF,B,,,,,,,,,,7
4,prac,4,inc,1,m,Wed Apr 09 2025 17:03:35 GMT-0500 (Central Daylight Time),305816.299999997,kind,900,O,m,,,250,,,2,1,2461.7999999970198,303354.5,7124,rock,AF,B,,,,,,,,,,8
4,prac,4,inc,0,z,Wed Apr 09 2025 17:03:35 GMT-0500 (Central Daylight Time),308632.5,napkin,1100,O,m,,,407,,,12,1,2812.2000000029802,305820.299999997,7124,friend,AF,B,,,,,,,,,,9
5,prac,4,inc,1,z,Wed Apr 09 2025 17:03:35 GMT-0500 (Central Daylight Time),311214.799999997,rock,900,O,z,,,376,,,10,1,2578.5,308636.299999997,7124,kind,AF,B,,,,,,,,,,10
6,prac,4,inc,1,m,Wed Apr 09 2025 17:03:35 GMT-0500 (Central Daylight Time),314214.09999999776,brutal,1100,O,m,,,586,,,8,1,2995.300000000745,311218.799999997,7124,window,AF,B,,,,,,,,,,11
7,prac,4,con,1,m,Wed Apr 09 2025 17:03:35 GMT-0500 (Central Daylight Time),316863.09999999776,remote,1000,O,m,,,343,,,7,1,2645.099999997765,314218.0,7124,remote,AF,B,,,,,,,,,,12
8,prac,4,inc,1,z,Wed Apr 09 2025 17:03:35 GMT-0500 (Central Daylight Time),319362.3999999985,film,900,O,z,,,289,,,14,1,2495.5,316866.8999999985,7124,hate,AF,B,,,,,,,,,,13
9,prac,4,con,1,m,Wed Apr 09 2025 17:03:35 GMT-0500 (Central Daylight Time),321911.59999999776,jacket,800,O,m,,,442,,,5,1,2545.300000000745,319366.299999997,7124,jacket,AF,B,,,,,,,,,,14
9,prac,4,con,0,m,Wed Apr 09 2025 17:03:35 GMT-0500 (Central Daylight Time),324594.09999999776,bell,1000,O,z,,,379,,,3,1,2678.699999999255,321915.3999999985,7124,bell,AF,B,,,,,,,,,,15
10,prac,4,con,1,z,Wed Apr 09 2025 17:03:35 GMT-0500 (Central Daylight Time),327276.19999999925,love,1000,O,z,,,379,,,11,1,2678.60000000149,324597.59999999776,7124,love,AF,B,,,,,,,,,,16
1,test,1,inc,1,m,Wed Apr 09 2025 17:03:35 GMT-0500 (Central Daylight Time),361865.799999997,rage,800,O,m,m,None,550,350.0,200.0,93,1,1879.2999999970198,359986.5,7124,film,AF,B,355905,355905,354376,355189,354376,356255,355705,355705,356255,1
2,test,1,inc,1,m,Wed Apr 09 2025 17:03:35 GMT-0500 (Central Daylight Time),363815.19999999925,temper,1000,O,m,m,None,410,211.0,199.0,119,1,1945.6000000014901,361869.59999999776,7124,remote,AF,B,357988,357988,356259,357271,356259,358204,357788,357788,358204,2
2,test,1,con,0,m,Wed Apr 09 2025 17:03:35 GMT-0500 (Central Daylight Time),365431.299999997,film,800,O,z,z,None,269,70.0,199.0,89,1,1612.5,363818.799999997,7124,film,AF,B,359737,359737,358208,359021,358208,359820,359537,359538,359820,3
3,test,1,inc,1,z,Wed Apr 09 2025 17:03:35 GMT-0500 (Central Daylight Time),367197.5,step,800,O,z,z,None,421,221.0,200.0,21,1,1762.7000000029802,365434.799999997,7124,love,AF,B,361353,361354,359824,360637,359824,361587,361153,361153,361586,4
4,test,1,inc,1,z,Wed Apr 09 2025 17:03:35 GMT-0500 (Central Daylight Time),368913.5,jacket,800,O,z,z,None,374,175.0,199.0,37,1,1712.2000000029802,367201.299999997,7124,brutal,AF,B,363119,363120,361590,362403,361591,363303,362920,362920,363303,5
4,test,1,inc,0,z,Wed Apr 09 2025 17:03:35 GMT-0500 (Central Daylight Time),370929.299999997,window,1100,O,m,m,None,375,83.0,292.0,64,1,2012.199999999255,368917.09999999776,7124,temper,AF,B,365228,365228,363306,364419,363306,365318,364936,364936,365318,6
4,test,1,inc,0,z,Wed Apr 09 2025 17:03:35 GMT-0500 (Central Daylight Time),372995.69999999925,rock,900,O,m,m,None,630,431.0,199.0,14,1,2060.10000000149,370935.59999999776,7124,kind,AF,B,366952,366952,365325,366235,365325,367385,366752,366752,367385,7
4,test,1,con,0,m,Wed Apr 09 2025 17:03:35 GMT-0500 (Central Daylight Time),374878.3999999985,rock,800,O,z,z,None,544,345.0,199.0,73,1,1878.8999999985099,372999.5,7124,rock,AF,B,368918,368918,367389,368201,367389,369268,368718,368718,369267,8
5,test,1,inc,1,m,Wed Apr 09 2025 17:03:35 GMT-0500 (Central Daylight Time),376728.09999999776,brutal,900,O,m,m,None,409,210.0,199.0,110,1,1846.0,374882.09999999776,7124,napkin,AF,B,370900,370901,369271,370184,369271,371117,370701,370701,371117,9
6,test,1,con,1,m,Wed Apr 09 2025 17:03:35 GMT-0500 (Central Daylight Time),378477.09999999776,window,900,O,m,m,None,313,113.0,200.0,122,1,1745.300000000745,376731.799999997,7124,window,AF,B,372750,372750,371121,372034,371121,372866,372550,372550,372866,10
7,test,1,con,1,z,Wed Apr 09 2025 17:03:35 GMT-0500 (Central Daylight Time),380410.0,friend,900,O,z,z,None,492,292.0,200.0,26,1,1929.0,378481.0,7124,friend,AF,B,374499,374499,372870,373783,372870,374799,374299,374299,374799,11
7,test,1,inc,0,z,Wed Apr 09 2025 17:03:35 GMT-0500 (Central Daylight Time),382225.8999999985,step,800,O,m,m,None,475,275.0,200.0,45,1,1812.1000000014901,380413.799999997,7124,hate,AF,B,376332,376332,374803,375616,374803,376615,376132,376132,376615,12
7,test,1,con,0,m,Wed Apr 09 2025 17:03:35 GMT-0500 (Central Daylight Time),384075.59999999776,rock,900,O,z,z,None,407,207.0,200.0,74,1,1845.699999999255,382229.8999999985,7124,rock,AF,B,378248,378248,376619,377532,376619,378465,378048,378048,378465,13
7,test,1,con,0,z,Wed Apr 09 2025 17:03:35 GMT-0500 (Central Daylight Time),387408.0,rage,800,O,None,None,None,1799,1799.0,199.0,49,1,3328.800000000745,384079.19999999925,7124,rage,AF,B,379998,379998,378468,379281,378469,381797,379798,379798,381797,14
8,test,1,inc,1,m,Wed Apr 09 2025 17:03:35 GMT-0500 (Central Daylight Time),389623.5,friend,1100,O,m,m,None,569,369.0,200.0,128,1,2211.60000000149,387411.8999999985,7124,window,AF,B,383630,383630,381801,382914,381801,384013,383430,383430,384013,15
8,test,1,con,0,z,Wed Apr 09 2025 17:03:35 GMT-0500 (Central Daylight Time),391706.299999997,hate,1100,O,m,m,None,441,241.0,200.0,44,1,2078.7999999970198,389627.5,7124,hate,AF,B,385846,385846,384017,385129,384017,386095,385646,385646,386095,16
9,test,1,con,1,m,Wed Apr 09 2025 17:03:35 GMT-0500 (Central Daylight Time),393905.8999999985,napkin,900,O,m,m,None,749,550.0,199.0,106,1,2195.699999999255,391710.19999999925,7124,napkin,AF,B,387729,387729,386099,387012,386100,388295,387529,387529,388295,17
10,test,1,inc,1,m,Wed Apr 09 2025 17:03:35 GMT-0500 (Central Daylight Time),395938.3999999985,friend,1100,O,m,m,None,390,191.0,199.0,104,1,2028.699999999255,393909.69999999925,7124,jacket,AF,B,390128,390128,388299,389411,388299,390328,389928,389928,390327,18
11,test,1,inc,1,m,Wed Apr 09 2025 17:03:35 GMT-0500 (Central Daylight Time),397771.19999999925,elated,800,O,m,m,None,497,298.0,199.0,125,1,1829.0,395942.19999999925,7124,window,AF,B,391861,391861,390331,391144,390332,392160,391661,391661,392160,19
11,test,1,inc,0,m,Wed Apr 09 2025 17:03:35 GMT-0500 (Central Daylight Time),399587.3999999985,love,1000,O,z,z,None,274,74.0,200.0,71,1,1812.3999999985099,397775.0,7124,step,AF,B,393893,393893,392164,393177,392164,393976,393693,393693,393976,20
11,test,1,inc,0,z,Wed Apr 09 2025 17:03:35 GMT-0500 (Central Daylight Time),401453.19999999925,napkin,900,O,m,m,None,421,222.0,199.0,38,1,1862.199999999255,399591.0,7124,brutal,AF,B,395609,395609,393980,394893,393980,395842,395410,395410,395842,21
12,test,1,con,1,m,Wed Apr 09 2025 17:03:35 GMT-0500 (Central Daylight Time),403485.8999999985,window,800,O,m,m,None,687,488.0,199.0,121,1,2029.0,401456.8999999985,7124,window,AF,B,397375,397375,395846,396659,395846,397875,397176,397176,397875,22
13,test,1,con,1,m,Wed Apr 09 2025 17:03:35 GMT-0500 (Central Daylight Time),405269.0,bell,800,O,m,m,None,439,239.0,200.0,81,1,1779.1000000014901,403489.8999999985,7124,bell,AF,B,399408,399408,397879,398692,397879,399658,399208,399208,399658,23
14,test,1,con,1,z,Wed Apr 09 2025 17:03:35 GMT-0500 (Central Daylight Time),407101.59999999776,love,1000,O,z,z,None,288,88.0,200.0,19,1,1828.800000000745,405272.799999997,7124,love,AF,B,401391,401391,399662,400675,399662,401491,401191,401191,401491,24
14,test,1,inc,0,z,Wed Apr 09 2025 17:03:35 GMT-0500 (Central Daylight Time),408834.299999997,jacket,800,O,m,m,None,398,199.0,199.0,61,1,1728.8999999985099,407105.3999999985,7124,temper,AF,B,403024,403024,401494,402307,401495,403223,402824,402824,403223,25
15,test,1,con,1,m,Wed Apr 09 2025 17:03:35 GMT-0500 (Central Daylight Time),410783.8999999985,jacket,1000,O,m,m,None,402,203.0,199.0,99,1,1946.0,408837.8999999985,7124,jacket,AF,B,404956,404956,403227,404240,403227,405173,404757,404757,405173,26
15,test,1,inc,0,m,Wed Apr 09 2025 17:03:35 GMT-0500 (Central Daylight Time),412716.5,hate,1100,O,z,z,None,288,73.0,215.0,88,1,1928.9000000022352,410787.59999999776,7124,bell,AF,B,407022,407022,405177,406289,405177,407106,406807,406807,407106,27
16,test,1,con,1,m,Wed Apr 09 2025 17:03:35 GMT-0500 (Central Daylight Time),414565.8999999985,jacket,900,O,m,m,None,403,204.0,199.0,98,1,1845.3999999985099,412720.5,7124,jacket,AF,B,408739,408739,407110,408022,407110,408955,408539,408539,408955,28
17,test,1,con,1,z,Wed Apr 09 2025 17:03:35 GMT-0500 (Central Daylight Time),416232.19999999925,kind,800,O,z,z,None,327,127.0,200.0,9,1,1662.300000000745,414569.8999999985,7124,kind,AF,B,410488,410488,408959,409773,408959,410621,410288,410288,410621,29
18,test,1,inc,1,m,Wed Apr 09 2025 17:03:35 GMT-0500 (Central Daylight Time),417926.09999999776,rage,800,O,m,m,None,361,147.0,214.0,85,1,1689.800000000745,416236.299999997,7124,bell,AF,B,412168,412168,410625,411438,410626,412315,411954,411954,412315,30
19,test,1,con,1,z,Wed Apr 09 2025 17:03:35 GMT-0500 (Central Daylight Time),419964.19999999925,love,1100,O,z,z,None,406,206.0,200.0,20,1,2034.4000000022352,417929.799999997,7124,love,AF,B,414137,414137,412319,413421,412319,414353,413937,413937,414353,31
19,test,1,inc,0,z,Wed Apr 09 2025 17:03:35 GMT-0500 (Central Daylight Time),421980.3999999985,bell,1000,O,m,m,None,472,272.0,200.0,15,1,2012.699999999255,419967.69999999925,7124,kind,AF,B,416087,416087,414357,415370,414357,416370,415886,415886,416369,32
19,test,1,con,0,z,Wed Apr 09 2025 17:03:35 GMT-0500 (Central Daylight Time),425612.5,temper,1100,O,None,None,None,1799,1799.0,199.0,60,1,3628.300000000745,421984.19999999925,7124,temper,AF,B,418202,418202,416373,417486,416373,420002,418003,418003,420002,33
19,test,1,con,0,z,Wed Apr 09 2025 17:03:35 GMT-0500 (Central Daylight Time),427595.0,hate,1000,O,m,m,None,448,249.0,199.0,43,1,1978.6000000014901,425616.3999999985,7124,hate,AF,B,421734,421734,420005,421018,420006,421984,421535,421535,421984,34
19,test,1,inc,0,z,Wed Apr 09 2025 17:03:35 GMT-0500 (Central Daylight Time),429377.799999997,jacket,800,O,m,m,None,441,242.0,199.0,5,1,1779.0,427598.799999997,7124,elated,AF,B,423517,423517,421988,422801,421988,423767,423318,423318,423767,35
20,test,1,inc,1,m,Wed Apr 09 2025 17:03:35 GMT-0500 (Central Daylight Time),431777.3999999985,friend,1100,O,m,m,None,759,559.0,200.0,112,1,2396.0,429381.3999999985,7124,napkin,AF,B,425600,425600,423770,424883,423771,426166,425400,425400,426166,36
21,test,1,inc,1,z,Wed Apr 09 2025 17:03:35 GMT-0500 (Central Daylight Time),433676.59999999776,bell,1000,O,z,z,None,362,163.0,199.0,23,1,1895.300000000745,431781.299999997,7124,love,AF,B,427899,427900,426170,427183,426171,428066,427700,427700,428066,37
21,test,1,con,0,z,Wed Apr 09 2025 17:03:35 GMT-0500 (Central Daylight Time),435642.69999999925,rage,900,O,m,m,None,523,324.0,199.0,50,1,1961.9000000022352,433680.799999997,7124,rage,AF,B,429699,429699,428070,428983,428070,430032,429499,429499,430032,38
21,test,1,inc,0,m,Wed Apr 09 2025 17:03:35 GMT-0500 (Central Daylight Time),439175.09999999776,love,1000,O,None,None,None,1799,1799.0,199.0,87,1,3528.300000000745,435646.799999997,7124,bell,AF,B,431765,431765,430036,431048,430036,433564,431565,431565,433564,39
21,test,1,inc,0,m,Wed Apr 09 2025 17:03:35 GMT-0500 (Central Daylight Time),441140.8999999985,brutal,900,O,z,z,None,530,330.0,200.0,126,1,1962.1000000014901,439178.799999997,7124,window,AF,B,435197,435197,433568,434481,433568,435530,434997,434997,435530,40
21,test,1,con,0,m,Wed Apr 09 2025 17:03:35 GMT-0500 (Central Daylight Time),443123.69999999925,film,900,O,z,z,None,548,348.0,200.0,90,1,1979.0,441144.69999999925,7124,film,AF,B,437163,437163,435534,436447,435534,437513,436963,436963,437513,41
22,test,1,con,1,z,Wed Apr 09 2025 17:03:35 GMT-0500 (Central Daylight Time),445156.5,elated,800,O,z,z,None,688,489.0,199.0,1,1,2028.7000000029802,443127.799999997,7124,elated,AF,B,439046,439046,437517,438329,437517,439546,438846,438846,439545,42
23,test,1,inc,1,z,Wed Apr 09 2025 17:03:35 GMT-0500 (Central Daylight Time),447422.299999997,film,1100,O,z,z,None,620,421.0,199.0,48,1,2262.2999999970198,445160.0,7124,hate,AF,B,441378,441378,439549,440662,439549,441811,441179,441179,441811,43
23,test,1,con,0,m,Wed Apr 09 2025 17:03:35 GMT-0500 (Central Daylight Time),449471.8999999985,jacket,800,O,z,z,None,710,510.0,200.0,97,1,2045.699999999255,447426.19999999925,7124,jacket,AF,B,443345,443345,441815,442628,441815,443861,443145,443145,443861,44
24,test,1,con,1,m,Wed Apr 09 2025 17:03:35 GMT-0500 (Central Daylight Time),451520.8999999985,remote,900,O,m,m,None,601,401.0,200.0,114,1,2045.0,449475.8999999985,7124,remote,AF,B,445494,445494,443865,444777,443865,445910,445294,445294,445910,45
25,test,1,inc,1,m,Wed Apr 09 2025 17:03:35 GMT-0500 (Central Daylight Time),453420.3999999985,kind,900,O,m,m,None,456,256.0,200.0,70,1,1895.800000000745,451524.59999999776,7124,step,AF,B,447543,447543,445914,446827,445914,447810,447343,447343,447809,46
26,test,1,inc,1,z,Wed Apr 09 2025 17:03:35 GMT-0500 (Central Daylight Time),455603.299999997,remote,1000,O,z,z,None,639,440.0,199.0,39,1,2179.2999999970198,453424.0,7124,brutal,AF,B,449542,449543,447813,448826,447813,449992,449343,449343,449992,47
27,test,1,con,1,z,Wed Apr 09 2025 17:03:35 GMT-0500 (Central Daylight Time),457519.09999999776,kind,1000,O,z,z,None,370,170.0,200.0,11,1,1912.0999999977648,455607.0,7124,kind,AF,B,451725,451725,449996,451009,449996,451908,451525,451525,451908,48
28,test,1,inc,1,m,Wed Apr 09 2025 17:03:35 GMT-0500 (Central Daylight Time),459801.799999997,friend,1100,O,m,m,None,633,433.0,200.0,120,1,2278.7999999970198,457523.0,7124,remote,AF,B,453741,453741,451912,453025,451912,454191,453541,453541,454191,49
29,test,1,inc,1,m,Wed Apr 09 2025 17:03:35 GMT-0500 (Central Daylight Time),461784.3999999985,elated,800,O,m,m,None,643,443.0,200.0,117,1,1978.8999999985099,459805.5,7124,remote,AF,B,455724,455724,454194,455008,454195,456174,455524,455524,456173,50
29,test,1,inc,0,z,Wed Apr 09 2025 17:03:35 GMT-0500 (Central Daylight Time),463717.19999999925,napkin,900,O,m,m,None,495,296.0,199.0,6,1,1928.800000000745,461788.3999999985,7124,elated,AF,B,457807,457807,456177,457091,456178,458106,457607,457607,458106,51
30,test,1,con,1,z,Wed Apr 09 2025 17:03:35 GMT-0500 (Central Daylight Time),466232.8999999985,kind,1100,O,z,z,None,791,592.0,199.0,12,1,2511.89999999851,463721.0,7124,kind,AF,B,460022,460023,458110,459320,458110,460622,459823,459823,460622,52
31,test,1,inc,1,m,Wed Apr 09 2025 17:03:35 GMT-0500 (Central Daylight Time),468315.69999999925,love,1000,O,m,m,None,540,340.0,200.0,95,1,2079.10000000149,466236.59999999776,7124,film,AF,B,462355,462355,460626,461639,460626,462705,462155,462155,462705,53
31,test,1,con,0,m,Wed Apr 09 2025 17:03:35 GMT-0500 (Central Daylight Time),470548.3999999985,film,1000,O,z,z,None,689,489.0,200.0,91,1,2228.800000000745,468319.59999999776,7124,film,AF,B,464438,464438,462709,463721,462709,464937,464238,464238,464937,54
32,test,1,inc,1,z,Wed Apr 09 2025 17:03:35 GMT-0500 (Central Daylight Time),472714.5,film,1100,O,z,z,None,524,325.0,199.0,56,1,2162.2000000029802,470552.299999997,7124,rage,AF,B,466770,466770,464941,466054,464942,467104,466571,466571,467104,55
33,test,1,inc,1,z,Wed Apr 09 2025 17:03:35 GMT-0500 (Central Daylight Time),474630.5,rock,900,O,z,z,None,469,270.0,199.0,46,1,1912.2000000029802,472718.299999997,7124,hate,AF,B,468736,468737,467107,468020,467108,469020,468537,468537,469020,56
34,test,1,inc,1,z,Wed Apr 09 2025 17:03:35 GMT-0500 (Central Daylight Time),476696.59999999776,napkin,900,O,z,z,None,617,418.0,199.0,30,1,2062.099999997765,474634.5,7124,friend,AF,B,470653,470653,469024,469936,469024,471086,470453,470453,471086,57
35,test,1,con,1,z,Wed Apr 09 2025 17:03:35 GMT-0500 (Central Daylight Time),478712.59999999776,kind,900,O,z,z,None,568,369.0,199.0,10,1,2012.300000000745,476700.299999997,7124,kind,AF,B,472718,472718,471089,472002,471090,473102,472519,472519,473102,58
36,test,1,con,1,z,Wed Apr 09 2025 17:03:35 GMT-0500 (Central Daylight Time),480811.8999999985,elated,1100,O,z,z,None,455,256.0,199.0,4,1,2095.39999999851,478716.5,7124,elated,AF,B,474935,474935,473106,474218,473106,475201,474735,474735,475201,59
37,test,1,con,1,z,Wed Apr 09 2025 17:03:35 GMT-0500 (Central Daylight Time),482794.69999999925,elated,1000,O,z,z,None,441,241.0,200.0,3,1,1979.0,480815.69999999925,7124,elated,AF,B,476934,476934,475205,476218,475205,477184,476734,476734,477184,60
38,test,1,con,1,z,Wed Apr 09 2025 17:03:35 GMT-0500 (Central Daylight Time),484544.19999999925,temper,800,O,z,z,None,401,202.0,199.0,57,1,1745.5,482798.69999999925,7124,temper,AF,B,478717,478717,477188,478001,477188,478933,478517,478517,478933,61
38,test,1,inc,0,m,Wed Apr 09 2025 17:03:35 GMT-0500 (Central Daylight Time),486426.69999999925,brutal,900,O,z,z,None,441,241.0,200.0,118,1,1878.5,484548.19999999925,7124,remote,AF,B,480566,480566,478937,479850,478938,480816,480366,480366,480816,62
38,test,1,con,0,m,Wed Apr 09 2025 17:03:35 GMT-0500 (Central Daylight Time),488492.59999999776,napkin,1000,O,z,z,None,529,329.0,200.0,107,1,2061.699999999255,486430.8999999985,7124,napkin,AF,B,482549,482549,480820,481832,480820,482882,482349,482349,482882,63
39,test,1,con,1,z,Wed Apr 09 2025 17:03:35 GMT-0500 (Central Daylight Time),490758.799999997,friend,1000,O,z,z,None,727,528.0,199.0,27,1,2262.699999999255,488496.09999999776,7124,friend,AF,B,484615,484615,482885,483898,482885,485148,484415,484415,485148,64
39,test,1,inc,0,z,Wed Apr 09 2025 17:03:35 GMT-0500 (Central Daylight Time),492658.3999999985,napkin,900,O,m,m,None,466,266.0,200.0,62,1,1895.800000000745,490762.59999999776,7124,temper,AF,B,486781,486781,485152,486065,485152,487047,486581,486581,487047,65
40,test,1,con,1,m,Wed Apr 09 2025 17:03:35 GMT-0500 (Central Daylight Time),495090.5,step,1100,O,m,m,None,798,599.0,199.0,68,1,2428.10000000149,492662.3999999985,7124,step,AF,B,488880,488880,487051,488164,487052,489480,488681,488681,489480,66
41,test,1,con,1,m,Wed Apr 09 2025 17:03:35 GMT-0500 (Central Daylight Time),497273.299999997,window,1100,O,m,m,None,533,334.0,199.0,124,1,2178.89999999851,495094.3999999985,7124,window,AF,B,491313,491313,489483,490596,489484,491662,491113,491113,491662,67
42,test,1,con,1,z,Wed Apr 09 2025 17:03:35 GMT-0500 (Central Daylight Time),499389.5,temper,1000,O,z,z,None,571,371.0,200.0,59,1,2112.5,497277.0,7124,temper,AF,B,493396,493396,491666,492679,491666,493779,493195,493195,493779,68
43,test,1,inc,1,z,Wed Apr 09 2025 17:03:35 GMT-0500 (Central Daylight Time),501638.799999997,window,1100,O,z,z,None,602,403.0,199.0,32,1,2245.5,499393.299999997,7124,friend,AF,B,495612,495612,493782,494895,493783,496028,495412,495412,496028,69
44,test,1,inc,1,z,Wed Apr 09 2025 17:03:35 GMT-0500 (Central Daylight Time),503871.299999997,film,1100,O,z,z,None,586,386.0,200.0,16,1,2228.89999999851,501642.3999999985,7124,kind,AF,B,497861,497861,496031,497144,496032,498260,497661,497661,498260,70
45,test,1,con,1,m,Wed Apr 09 2025 17:03:35 GMT-0500 (Central Daylight Time),506220.5,jacket,1100,O,m,m,None,713,514.0,199.0,100,1,2345.400000002235,503875.09999999776,7124,jacket,AF,B,500093,500093,498264,499377,498264,500610,499894,499894,500610,71
46,test,1,con,1,m,Wed Apr 09 2025 17:03:35 GMT-0500 (Central Daylight Time),508220.09999999776,bell,1000,O,m,m,None,463,264.0,199.0,83,1,1995.5999999977648,506224.5,7124,bell,AF,B,502343,502343,500614,501626,500614,502609,502143,502143,502609,72
47,test,1,inc,1,z,Wed Apr 09 2025 17:03:35 GMT-0500 (Central Daylight Time),510235.8999999985,bell,1000,O,z,z,None,481,281.0,200.0,47,1,2012.0,508223.8999999985,7124,hate,AF,B,504342,504342,502613,503626,502613,504625,504142,504142,504625,73
48,test,1,con,1,z,Wed Apr 09 2025 17:03:35 GMT-0500 (Central Daylight Time),512195.69999999925,hate,800,O,z,z,None,480,280.0,200.0,41,1,1956.0,510239.69999999925,7124,hate,AF,B,506158,506158,504629,505442,504629,506585,505958,505958,506585,74
49,test,1,con,1,m,Wed Apr 09 2025 17:03:35 GMT-0500 (Central Daylight Time),514401.299999997,step,800,O,m,m,None,874,675.0,199.0,65,1,2201.89999999851,512199.3999999985,7124,step,AF,B,508108,508108,506588,507391,506589,508790,507908,507908,508790,75
50,test,1,inc,1,m,Wed Apr 09 2025 17:03:35 GMT-0500 (Central Daylight Time),516767.19999999925,temper,1000,O,m,m,None,819,620.0,199.0,127,1,2362.10000000149,514405.09999999776,7124,window,AF,B,510523,510523,508794,509807,508794,511156,510324,510324,511156,76
51,test,1,con,1,m,Wed Apr 09 2025 17:03:35 GMT-0500 (Central Daylight Time),519166.799999997,remote,1100,O,m,m,None,761,562.0,199.0,116,1,2395.599999997765,516771.19999999925,7124,remote,AF,B,512989,512989,511160,512273,511161,513556,512790,512790,513556,77
52,test,1,inc,1,m,Wed Apr 09 2025 17:03:35 GMT-0500 (Central Daylight Time),521099.19999999925,rage,800,O,m,m,None,606,407.0,199.0,69,1,1928.699999999255,519170.5,7124,step,AF,B,515072,515072,513559,514372,513560,515488,514873,514873,515488,78
52,test,1,inc,0,z,Wed Apr 09 2025 17:03:35 GMT-0500 (Central Daylight Time),522865.299999997,step,800,O,m,m,None,425,226.0,199.0,53,1,1762.0999999977648,521103.19999999925,7124,rage,AF,B,517021,517021,515492,516305,515493,517254,516822,516822,517254,79
53,test,1,inc,1,m,Wed Apr 09 2025 17:03:35 GMT-0500 (Central Daylight Time),524881.5,rage,800,O,m,m,None,666,467.0,199.0,77,1,2012.300000000745,522869.19999999925,7124,rock,AF,B,518788,518788,517258,518071,517259,519271,518588,518588,519271,80
54,test,1,inc,1,m,Wed Apr 09 2025 17:03:35 GMT-0500 (Central Daylight Time),527130.3999999985,hate,1100,O,m,m,None,615,416.0,199.0,96,1,2245.0,524885.3999999985,7124,film,AF,B,521103,521103,519274,520387,519275,521519,520904,520904,521519,81
55,test,1,inc,1,m,Wed Apr 09 2025 17:03:35 GMT-0500 (Central Daylight Time),528996.8999999985,elated,800,O,m,m,None,522,322.0,200.0,109,1,1862.699999999255,527134.1999999993,7124,napkin,AF,B,523053,523053,521523,522336,521523,523386,522853,522853,523386,82
56,test,1,con,1,m,Wed Apr 09 2025 17:03:35 GMT-0500 (Central Daylight Time),531063.0,rock,1100,O,m,m,None,428,228.0,200.0,76,1,2062.400000002235,529000.5999999978,7124,rock,AF,B,525219,525219,523390,524503,523390,525452,525019,525019,525452,83
56,test,1,con,0,z,Wed Apr 09 2025 17:03:35 GMT-0500 (Central Daylight Time),532795.6999999993,brutal,800,O,m,m,None,390,190.0,200.0,33,1,1728.9000000022352,531066.799999997,7124,brutal,AF,B,526985,526985,525456,526270,525456,527185,526785,526785,527185,84
57,test,1,con,1,m,Wed Apr 09 2025 17:03:35 GMT-0500 (Central Daylight Time),534861.6999999993,remote,1000,O,m,m,None,529,329.0,200.0,115,1,2062.199999999255,532799.5,7124,remote,AF,B,528918,528918,527189,528201,527189,529251,528718,528718,529251,85
58,test,1,con,1,m,Wed Apr 09 2025 17:03:35 GMT-0500 (Central Daylight Time),536844.3999999985,rock,1000,O,m,m,None,439,239.0,200.0,75,1,1979.1000000014901,534865.299999997,7124,rock,AF,B,530984,530984,529254,530267,529255,531234,530784,530784,531233,86
59,test,1,inc,1,m,Wed Apr 09 2025 17:03:35 GMT-0500 (Central Daylight Time),539060.3999999985,hate,1100,O,m,m,None,580,381.0,199.0,80,1,2211.39999999851,536849.0,7124,rock,AF,B,533066,533066,531238,532350,531238,533449,532867,532867,533449,87
60,test,1,con,1,z,Wed Apr 09 2025 17:03:35 GMT-0500 (Central Daylight Time),541076.299999997,elated,900,O,z,z,None,579,380.0,199.0,2,1,2011.8999999985099,539064.3999999985,7124,elated,AF,B,535083,535083,533453,534366,533454,535466,534883,534883,535465,88
61,test,1,con,1,m,Wed Apr 09 2025 17:03:35 GMT-0500 (Central Daylight Time),543042.299999997,remote,800,O,m,m,None,632,432.0,200.0,113,1,1962.2999999970198,541080.0,7124,remote,AF,B,536999,536999,535469,536282,535469,537431,536798,536798,537431,89
62,test,1,con,1,z,Wed Apr 09 2025 17:03:35 GMT-0500 (Central Daylight Time),545125.1999999993,temper,900,O,z,z,None,646,447.0,199.0,58,1,2079.5,543045.6999999993,7124,temper,AF,B,539064,539064,537435,538348,537435,539514,538865,538865,539514,90
63,test,1,inc,1,m,Wed Apr 09 2025 17:03:35 GMT-0500 (Central Daylight Time),547091.0999999978,kind,900,O,m,m,None,547,332.0,215.0,78,1,1962.199999999255,545128.8999999985,7124,rock,AF,B,541147,541147,539518,540431,539518,541480,540932,540932,541480,91
64,test,1,con,1,z,Wed Apr 09 2025 17:03:35 GMT-0500 (Central Daylight Time),549423.799999997,rage,1000,O,z,z,None,786,586.0,200.0,51,1,2329.099999997765,547094.6999999993,7124,rage,AF,B,543213,543213,541484,542497,541484,543813,543013,543013,543813,92
65,test,1,inc,1,z,Wed Apr 09 2025 17:03:35 GMT-0500 (Central Daylight Time),551373.1999999993,rock,900,O,z,z,None,513,313.0,200.0,22,1,1945.699999999255,549427.5,7124,love,AF,B,545446,545446,543817,544729,543817,545762,545246,545246,545762,93
66,test,1,inc,1,m,Wed Apr 09 2025 17:03:35 GMT-0500 (Central Daylight Time),553489.3999999985,love,1000,O,m,m,None,568,368.0,200.0,79,1,2112.0,551377.3999999985,7124,rock,AF,B,547495,547495,545766,546779,545767,547878,547295,547295,547878,94
67,test,1,con,1,z,Wed Apr 09 2025 17:03:35 GMT-0500 (Central Daylight Time),555588.5,friend,1100,O,z,z,None,456,256.0,200.0,28,1,2095.400000002235,553493.0999999978,7124,friend,AF,B,549711,549711,547882,548995,547882,549978,549511,549511,549978,95
68,test,1,con,1,m,Wed Apr 09 2025 17:03:35 GMT-0500 (Central Daylight Time),557471.1999999993,napkin,800,O,m,m,None,536,336.0,200.0,105,1,1879.0,555592.1999999993,7124,napkin,AF,B,551511,551511,549981,550795,549982,551860,551311,551311,551860,96
69,test,1,inc,1,z,Wed Apr 09 2025 17:03:35 GMT-0500 (Central Daylight Time),559653.799999997,remote,1000,O,z,z,None,517,312.0,205.0,7,1,2178.699999999255,557475.0999999978,7124,elated,AF,B,553727,553727,551864,552877,551864,554043,553521,553521,554043,97
70,test,1,con,1,z,Wed Apr 09 2025 17:03:35 GMT-0500 (Central Daylight Time),561486.799999997,brutal,900,O,z,z,None,395,195.0,200.0,34,1,1829.3999999985099,559657.3999999985,7124,brutal,AF,B,555676,555676,554046,554960,554047,555876,555476,555476,555876,98
71,test,1,inc,1,m,Wed Apr 09 2025 17:03:35 GMT-0500 (Central Daylight Time),563719.3999999985,kind,900,O,m,m,None,794,594.0,200.0,94,1,2228.89999999851,561490.5,7124,film,AF,B,557509,557509,555880,556792,555880,558109,557309,557309,558108,99
72,test,1,inc,1,z,Wed Apr 09 2025 17:03:35 GMT-0500 (Central Daylight Time),565851.8999999985,bell,1000,O,z,z,None,598,398.0,200.0,55,1,2128.800000000745,563723.0999999978,7124,rage,AF,B,559841,559841,558112,559125,558112,560241,559641,559641,560241,100
73,test,1,con,1,z,Wed Apr 09 2025 17:03:35 GMT-0500 (Central Daylight Time),568201.299999997,rage,1100,O,z,z,None,709,509.0,200.0,52,1,2345.89999999851,565855.3999999985,7124,rage,AF,B,562074,562074,560244,561358,560245,562590,561874,561874,562590,101
74,test,1,inc,1,m,Wed Apr 09 2025 17:03:35 GMT-0500 (Central Daylight Time),570300.6999999993,hate,1100,O,m,m,None,463,264.0,199.0,72,1,2095.5,568205.1999999993,7124,step,AF,B,564423,564423,562594,563707,562595,564690,564224,564224,564690,102
75,test,1,inc,1,z,Wed Apr 09 2025 17:03:35 GMT-0500 (Central Daylight Time),572066.5,step,800,O,z,z,None,423,224.0,199.0,13,1,1762.2000000029802,570304.299999997,7124,kind,AF,B,566223,566223,564693,565506,564694,566456,566023,566023,566456,103
76,test,1,con,1,z,Wed Apr 09 2025 17:03:35 GMT-0500 (Central Daylight Time),573799.6999999993,hate,900,O,z,z,None,294,94.0,200.0,42,1,1729.199999999255,572070.5,7124,hate,AF,B,568089,568089,566460,567373,566460,568189,567889,567889,568189,104
77,test,1,con,1,m,Wed Apr 09 2025 17:03:35 GMT-0500 (Central Daylight Time),575965.5999999978,bell,1100,O,m,m,None,520,321.0,199.0,84,1,2162.300000000745,573803.299999997,7124,bell,AF,B,570022,570022,568192,569305,568193,570355,569822,569822,570355,105
78,test,1,inc,1,m,Wed Apr 09 2025 17:03:35 GMT-0500 (Central Daylight Time),577731.5999999978,elated,800,O,m,m,None,430,231.0,199.0,101,1,1762.0999999977648,575969.5,7124,jacket,AF,B,571888,571888,570359,571171,570359,572121,571688,571688,572121,106
79,test,1,con,1,m,Wed Apr 09 2025 17:03:35 GMT-0500 (Central Daylight Time),579814.299999997,film,1100,O,m,m,None,436,237.0,199.0,92,1,2078.89999999851,577735.3999999985,7124,film,AF,B,573954,573954,572124,573237,572125,574203,573754,573754,574203,107
80,test,1,con,1,m,Wed Apr 09 2025 17:03:35 GMT-0500 (Central Daylight Time),582146.8999999985,napkin,1100,O,m,m,None,690,491.0,199.0,108,1,2328.699999999255,579818.1999999993,7124,napkin,AF,B,576036,576036,574207,575320,574208,576536,575837,575837,576536,108
81,test,1,inc,1,z,Wed Apr 09 2025 17:03:35 GMT-0500 (Central Daylight Time),584179.799999997,remote,1000,O,z,z,None,498,298.0,200.0,63,1,2029.0999999977648,582150.6999999993,7124,temper,AF,B,578269,578269,576540,577552,576540,578569,578069,578069,578569,109
82,test,1,inc,1,m,Wed Apr 09 2025 17:03:35 GMT-0500 (Central Daylight Time),586145.5999999978,temper,1000,O,m,m,None,424,225.0,199.0,103,1,1962.0999999977648,584183.5,7124,jacket,AF,B,580302,580302,578573,579585,578573,580535,580102,580102,580535,110
83,test,1,inc,1,z,Wed Apr 09 2025 17:03:35 GMT-0500 (Central Daylight Time),588312.6999999993,remote,1000,O,z,z,None,618,403.0,215.0,31,1,2163.300000000745,586149.3999999985,7124,friend,AF,B,582284,582284,580538,581551,580539,582702,582069,582069,582702,111
84,test,1,con,1,z,Wed Apr 09 2025 17:03:35 GMT-0500 (Central Daylight Time),590044.299999997,friend,800,O,z,z,None,389,189.0,200.0,25,1,1727.8999999985099,588316.3999999985,7124,friend,AF,B,584234,584234,582705,583517,582706,584433,584034,584034,584433,112
85,test,1,con,1,m,Wed Apr 09 2025 17:03:35 GMT-0500 (Central Daylight Time),592193.799999997,step,900,O,m,m,None,699,500.0,199.0,66,1,2145.599999997765,590048.1999999993,7124,step,AF,B,586067,586067,584437,585350,584437,586583,585867,585867,586583,113
86,test,1,con,1,m,Wed Apr 09 2025 17:03:35 GMT-0500 (Central Daylight Time),594343.1999999993,window,1000,O,m,m,None,603,403.0,200.0,123,1,2145.300000000745,592197.8999999985,7124,window,AF,B,588316,588316,586587,587599,586587,588732,588116,588116,588732,114
87,test,1,con,1,z,Wed Apr 09 2025 17:03:35 GMT-0500 (Central Daylight Time),596575.799999997,brutal,1100,O,z,z,None,586,386.0,200.0,36,1,2228.89999999851,594346.8999999985,7124,brutal,AF,B,590565,590565,588736,589849,588736,590965,590365,590365,590965,115
88,test,1,con,1,m,Wed Apr 09 2025 17:03:35 GMT-0500 (Central Daylight Time),598625.0999999978,step,1000,O,m,m,None,501,300.0,201.0,67,1,2045.800000000745,596579.299999997,7124,step,AF,B,592699,592699,590968,591981,590969,593014,592498,592498,593014,116
89,test,1,inc,1,z,Wed Apr 09 2025 17:03:35 GMT-0500 (Central Daylight Time),600707.8999999985,window,1100,O,z,z,None,448,248.0,200.0,8,1,2078.89999999851,598629.0,7124,elated,AF,B,594847,594847,593018,594131,593018,595097,594647,594647,595097,117
90,test,1,inc,1,m,Wed Apr 09 2025 17:03:35 GMT-0500 (Central Daylight Time),602690.3999999985,brutal,900,O,m,m,None,533,333.0,200.0,102,1,1978.699999999255,600711.6999999993,7124,jacket,AF,B,596730,596730,595101,596014,595101,597080,596530,596530,597079,118
91,test,1,con,1,z,Wed Apr 09 2025 17:03:35 GMT-0500 (Central Daylight Time),604540.0999999978,love,900,O,z,z,None,405,206.0,199.0,18,1,1845.8999999985099,602694.1999999993,7124,love,AF,B,598713,598713,597083,597996,597083,598929,598513,598513,598929,119
92,test,1,inc,1,m,Wed Apr 09 2025 17:03:35 GMT-0500 (Central Daylight Time),606806.0,temper,1000,O,m,m,None,599,396.0,203.0,111,1,2262.300000000745,604543.6999999993,7124,napkin,AF,B,600795,600795,598933,599946,598933,601195,600592,600592,601195,120
92,test,1,inc,0,z,Wed Apr 09 2025 17:03:35 GMT-0500 (Central Daylight Time),608588.6999999993,jacket,800,O,m,m,None,447,247.0,200.0,29,1,1779.1000000014901,606809.5999999978,7124,friend,AF,B,602728,602728,601199,602012,601199,602978,602528,602528,602978,121
93,test,1,con,1,z,Wed Apr 09 2025 17:03:35 GMT-0500 (Central Daylight Time),610354.799999997,love,800,O,z,z,None,423,224.0,199.0,17,1,1762.3999999985099,608592.3999999985,7124,love,AF,B,604511,604511,602981,603794,602982,604744,604311,604311,604744,122
94,test,1,inc,1,z,Wed Apr 09 2025 17:03:35 GMT-0500 (Central Daylight Time),612437.299999997,film,1100,O,z,z,None,438,238.0,200.0,24,1,2078.699999999255,610358.5999999978,7124,love,AF,B,606577,606577,604748,605860,604748,606826,606377,606377,606826,123
94,test,1,inc,0,m,Wed Apr 09 2025 17:03:35 GMT-0500 (Central Daylight Time),614303.5999999978,kind,900,O,z,z,None,427,228.0,199.0,86,1,1862.3999999985099,612441.1999999993,7124,bell,AF,B,608459,608459,606830,607744,606830,608693,608260,608260,608693,124
94,test,1,inc,0,z,Wed Apr 09 2025 17:03:35 GMT-0500 (Central Daylight Time),616236.299999997,rock,900,O,m,m,None,488,289.0,199.0,54,1,1929.0999999977648,614307.1999999993,7124,rage,AF,B,610326,610326,608696,609610,608697,610625,610126,610126,610625,125
94,test,1,con,0,z,Wed Apr 09 2025 17:03:35 GMT-0500 (Central Daylight Time),618402.299999997,brutal,1000,O,m,m,None,617,417.0,200.0,35,1,2162.39999999851,616239.8999999985,7124,brutal,AF,B,612358,612358,610629,611642,610629,612791,612158,612158,612791,126
94,test,1,inc,0,z,Wed Apr 09 2025 17:03:35 GMT-0500 (Central Daylight Time),622034.3999999985,window,1100,O,None,None,None,1799,1799.0,199.0,40,1,3628.5,618405.8999999985,7124,brutal,AF,B,614624,614624,612795,613908,612795,616423,614425,614425,616423,127
94,test,1,con,0,m,Wed Apr 09 2025 17:03:35 GMT-0500 (Central Daylight Time),625466.6999999993,bell,900,O,None,None,None,1799,1799.0,199.0,82,1,3428.5,622038.1999999993,7124,bell,AF,B,618057,618057,616427,617340,616427,619856,617857,617857,619856,128
